success,trial_type,trial_index,time_elapsed,internal_node_id,Block,TrialNumber,TrialTime,trialTimeDiff,FPS_avg,FPS_med,FPS_mode,TrialDur,winResizeTime,rt,block,button_pressed,MotCoh,MotDir,ColCoh,Color,ChoiceKey,Choice,Accuracy,RT,nFrames,FPS,PPD,missTrial,missTrialMsg,onsetDelay,fullScreenExitTime,canvCenter,TrialType,Score,BlockTrial,stimulus,button_labels,exp,subjectId,date
True,fullscreen,0,2586,0.0-0.0,0.0,1.0,,,,,,,,,,,,,,,,,,,,,,,,,,,,,,,,HRV,HRV_0192,2022-11-30 19:37:45
,wl-check-fps,1,7848,0.0-1.0,0.0,2.0,"[3666.2, 3670.3, 3972.8, 3973.3, 3987.4, 4003.9, 4021.1, 4037.1, 4053.8, 4070.4, 4088, 4103.9, 4122.3, 4137.3, 4154.1, 4170.8, 4187.3, 4203.6, 4220.2, 4239.3, 4253.9, 4270.5, 4286.9, 4303.5, 4320.5, 4336.8, 4353.6, 4370.3, 4387.5, 4403.5, 4420.6, 4436.9, 4453.9, 4470.5, 4487, 4503.7, 4520.8, 4537.4, 4553.8, 4570.3, 4586.8, 4603.4, 4620.5, 4637.1, 4653.5, 4670.7, 4687, 4703.8, 4720.6, 4736.9, 4753.7, 4770.1, 4787.1, 4803.8, 4820.3, 4836.7, 4853.5, 4870.1, 4886.9, 4903.4, 4920.1, 4937, 4953.7, 4970.4, 4986.7, 5004, 5020.2, 5036.7, 5054, 5070.1, 5086.8, 5103.6, 5120.8, 5137, 5153.9, 5170.5, 5187, 5203.4, 5220.2, 5236.8, 5254, 5270.3, 5286.9, 5303.3, 5320.7, 5336.8, 5353.5, 5370.3, 5386.8, 5403.2, 5420.1, 5436.9, 5453.5, 5470.7, 5486.7, 5503.6, 5520.5, 5536.8, 5554, 5570.5, 5586.6, 5603.3, 5620.3, 5636.5, 5653.6, 5670, 5687.2, 5704, 5720.5, 5736.9, 5753.8, 5770.3, 5786.8, 5803.7, 5820.3, 5836.5, 5853.5, 5870.5, 5886.8, 5903.7, 5920.2, 5936.7, 5953.5, 5970.3, 5986.6, 6003.6, 6020, 6036.5, 6053.9, 6070, 6086.9, 6103.6, 6120.5, 6136.4, 6153.4, 6170.1, 6186.5, 6203.2, 6219.8, 6236.6, 6253.4, 6270.1, 6286.8, 6303.2, 6319.8, 6336.6, 6353.3, 6369.7, 6386.7, 6403.3, 6419.9, 6436.3, 6454.1, 6470.4, 6486.6, 6503.6, 6520.3, 6536.5, 6553.3, 6570.2, 6586.3, 6603.3, 6620.2, 6636.9, 6653.1, 6670.2, 6686.7, 6703.1, 6719.7, 6736.5, 6753.3, 6769.8, 6786.5, 6803.4, 6820.6, 6836.7, 6853.9, 6870, 6886.3, 6903.2, 6919.7, 6936.5, 6953.4, 6969.9, 6986.3, 7003, 7019.8, 7037.3, 7053.5, 7069.7, 7086.4, 7103, 7119.8, 7136.3, 7153.1, 7170, 7186.1, 7203.5, 7219.8, 7236.4, 7253, 7269.7, 7286.4, 7303.1, 7319.7, 7336.3, 7353.3, 7369.8, 7386.3, 7403.9, 7420.2, 7436.4, 7452.7, 7470, 7486.1, 7503, 7519.7, 7536.2, 7553.1, 7570, 7586.3, 7603.5, 7620.1, 7636.3, 7653.3, 7669.7, 7686.3, 7703, 7719.9, 7736.2, 7753.5, 7769.5, 7786.5, 7803.1, 7819.9, 7836.3, 7853.2, 7869.6, 7886.2, 7902.9, 7919.8, 7935.9, 7952.6, 7969.7, 7986, 8002.9, 8019.7, 8036.7, 8052.7, 8069.7, 8086.4, 8103.1, 8120, 8136.4, 8153.1, 8170, 8186.3, 8203, 8220.1, 8236.6, 8252.5, 8269.3, 8286, 8303, 8319.7, 8336.6, 8353.1, 8369.8, 8386.2, 8403.1, 8419.8, 8436.4, 8452.8, 8469.5, 8489.2, 8505.1, 8519.7, 8540.7, 8552.8, 8569.3, 8585.9, 8602.6, 8619.2, 8635.9, 8652.4, 8669.4, 8686.4, 8702.7, 8719.8, 8735.7, 8752.6, 8770, 8786.4, 8803.1, 8819.9, 8836.2, 8852.9, 8870.5, 8886.7, 8902.8]","[5.2, 4.1, 302.5, 0.5, 14.1, 16.5, 17.2, 16, 16.7, 16.6, 17.6, 15.9, 18.4, 15, 16.8, 16.7, 16.5, 16.3, 16.6, 19.1, 14.6, 16.6, 16.4, 16.6, 17, 16.3, 16.8, 16.7, 17.2, 16, 17.1, 16.3, 17, 16.6, 16.5, 16.7, 17.1, 16.6, 16.4, 16.5, 16.5, 16.6, 17.1, 16.6, 16.4, 17.2, 16.3, 16.8, 16.8, 16.3, 16.8, 16.4, 17, 16.7, 16.5, 16.4, 16.8, 16.6, 16.8, 16.5, 16.7, 16.9, 16.7, 16.7, 16.3, 17.3, 16.2, 16.5, 17.3, 16.1, 16.7, 16.8, 17.2, 16.2, 16.9, 16.6, 16.5, 16.4, 16.8, 16.6, 17.2, 16.3, 16.6, 16.4, 17.4, 16.1, 16.7, 16.8, 16.5, 16.4, 16.9, 16.8, 16.6, 17.2, 16, 16.9, 16.9, 16.3, 17.2, 16.5, 16.1, 16.7, 17, 16.2, 17.1, 16.4, 17.2, 16.8, 16.5, 16.4, 16.9, 16.5, 16.5, 16.9, 16.6, 16.2, 17, 17, 16.3, 16.9, 16.5, 16.5, 16.8, 16.8, 16.3, 17, 16.4, 16.5, 17.4, 16.1, 16.9, 16.7, 16.9, 15.9, 17, 16.7, 16.4, 16.7, 16.6, 16.8, 16.8, 16.7, 16.7, 16.4, 16.6, 16.8, 16.7, 16.4, 17, 16.6, 16.6, 16.4, 17.8, 16.3, 16.2, 17, 16.7, 16.2, 16.8, 16.9, 16.1, 17, 16.9, 16.7, 16.2, 17.1, 16.5, 16.4, 16.6, 16.8, 16.8, 16.5, 16.7, 16.9, 17.2, 16.1, 17.2, 16.1, 16.3, 16.9, 16.5, 16.8, 16.9, 16.5, 16.4, 16.7, 16.8, 17.5, 16.2, 16.2, 16.7, 16.6, 16.8, 16.5, 16.8, 16.9, 16.1, 17.4, 16.3, 16.6, 16.6, 16.7, 16.7, 16.7, 16.6, 16.6, 17, 16.5, 16.5, 17.6, 16.3, 16.2, 16.3, 17.3, 16.1, 16.9, 16.7, 16.5, 16.9, 16.9, 16.3, 17.2, 16.6, 16.2, 17, 16.4, 16.6, 16.7, 16.9, 16.3, 17.3, 16, 17, 16.6, 16.8, 16.4, 16.9, 16.4, 16.6, 16.7, 16.9, 16.1, 16.7, 17.1, 16.3, 16.9, 16.8, 17, 16, 17, 16.7, 16.7, 16.9, 16.4, 16.7, 16.9, 16.3, 16.7, 17.1, 16.5, 15.9, 16.8, 16.7, 17, 16.7, 16.9, 16.5, 16.7, 16.4, 16.9, 16.7, 16.6, 16.4, 16.7, 19.7, 15.9, 14.6, 21, 12.1, 16.5, 16.6, 16.7, 16.6, 16.7, 16.5, 17, 17, 16.3, 17.1, 15.9, 16.9, 17.4, 16.4, 16.7, 16.8, 16.3, 16.7, 17.6, 16.2, 16.1]",57.0,60.0,60.0,5258.8,[],,,,,,,,,,,,,,,,,,,,,,,,,HRV,HRV_0192,2022-11-30 19:37:45
,wl-html-keyboard-response,2,24509,0.0-2.0-0.0,0.0,3.0,,,,,,,,14646.0,0.0,0,,,,,,,,,,,,,,,,,,,,,,HRV,HRV_0192,2022-11-30 19:37:45
,wl-rdm,3,32424,0.0-3.0-0.0,0.0,4.0,,,,,,,[],,,,0.0,0.0,87.9,0.0,u,0.0,True,2350.199999988079,141.0,60.0,40.0,False,,3000.0,[],"[768, 432]",ColorTask_Demo,,,,,HRV,HRV_0192,2022-11-30 19:37:45
,wl-rdm,4,38456,0.0-3.0-1.0,0.0,5.0,,,,,,,[],,,,0.0,0.0,87.9,1.0,i,1.0,True,1936.800000011921,117.0,60.0,40.0,False,,2000.0,[],"[768, 432]",ColorTask_Demo,,,,,HRV,HRV_0192,2022-11-30 19:37:45
,wl-html-keyboard-response,5,48250,0.0-3.0-2.0,0.0,6.0,,,,,,,,7788.0,0.0,1,,,,,,,,,,,,,,,,,,,,,,HRV,HRV_0192,2022-11-30 19:37:45
,wl-html-keyboard-response,6,60288,0.0-4.0-0.0,0.0,7.0,,,,,,,,10033.900000035763,0.0,0,,,,,,,,,,,,,,,,,,,,,,HRV,HRV_0192,2022-11-30 19:37:45
,wl-html-keyboard-response,7,79728,0.0-5.0-0.0,0.0,8.0,,,,,,,,17437.100000023842,0.0,0,,,,,,,,,,,,,,,,,,,,,,HRV,HRV_0192,2022-11-30 19:37:45
,wl-rdm,8,83627,0.0-6.0-0.0,0.0,9.0,,,,,,,[],,,,,,50.0,0.0,i,1.0,False,2608.199999988079,157.0,60.0,40.0,False,,226.5954761883056,[],"[768, 432]",ColorTask,-1.0,1.0,,,HRV,HRV_0192,2022-11-30 19:37:45
,wl-rdm,9,86859,0.0-6.1-0.1,0.0,10.0,,,,,,,[],,,,,,73.6,1.0,i,1.0,True,1824.300000011921,110.0,60.0,40.0,False,,344.7673439541958,[],"[768, 432]",ColorTask,0.0,2.0,,,HRV,HRV_0192,2022-11-30 19:37:45
,wl-rdm,10,89558,0.0-6.2-0.2,0.0,11.0,,,,,,,[],,,,,,53.2,0.0,u,0.0,True,1429.800000011921,86.0,60.0,40.0,False,,212.25551125245863,[],"[768, 432]",ColorTask,1.0,3.0,,,HRV,HRV_0192,2022-11-30 19:37:45
,wl-rdm,11,92108,0.0-6.3-0.3,0.0,12.0,,,,,,,[],,,,,,53.2,0.0,u,0.0,True,1233.8999999761581,75.0,60.0,40.0,False,,234.80891616403562,[],"[768, 432]",ColorTask,2.0,4.0,,,HRV,HRV_0192,2022-11-30 19:37:45
,wl-rdm,12,95107,0.0-6.4-0.4,0.0,13.0,,,,,,,[],,,,,,62.5,1.0,i,1.0,True,1592.2000000476837,96.0,60.0,40.0,False,,335.51737497119257,[],"[768, 432]",ColorTask,3.0,5.0,,,HRV,HRV_0192,2022-11-30 19:37:45
,wl-rdm,13,97906,0.0-6.5-0.5,0.0,14.0,,,,,,,[],,,,,,73.6,1.0,i,1.0,True,1401.199999988079,85.0,60.0,40.0,False,,319.40691215212763,[],"[768, 432]",ColorTask,4.0,6.0,,,HRV,HRV_0192,2022-11-30 19:37:45
,wl-rdm,14,100373,0.0-6.6-0.6,0.0,15.0,,,,,,,[],,,,,,87.9,1.0,i,1.0,True,1158.0999999642372,70.0,60.0,40.0,False,,223.52570865109195,[],"[768, 432]",ColorTask,5.0,7.0,,,HRV,HRV_0192,2022-11-30 19:37:45
,wl-rdm,15,102805,0.0-6.7-0.7,0.0,16.0,,,,,,,[],,,,,,62.5,0.0,u,0.0,True,1114.6000000238419,67.0,60.0,40.0,False,,238.47910619308993,[],"[768, 432]",ColorTask,6.0,8.0,,,HRV,HRV_0192,2022-11-30 19:37:45
,wl-rdm,16,105437,0.0-6.8-0.8,0.0,17.0,,,,,,,[],,,,,,56.4,0.0,u,0.0,True,1273.5,77.0,60.0,40.0,False,,277.89152059519114,[],"[768, 432]",ColorTask,7.0,9.0,,,HRV,HRV_0192,2022-11-30 19:37:45
,wl-rdm,17,108053,0.0-6.9-0.9,0.0,18.0,,,,,,,[],,,,,,53.2,1.0,i,1.0,True,1323.5000000596046,80.0,60.0,40.0,False,,209.64800727257727,[],"[768, 432]",ColorTask,8.0,10.0,,,HRV,HRV_0192,2022-11-30 19:37:45
,wl-rdm,18,110253,0.0-6.10-0.10,0.0,19.0,,,,,,,[],,,,,,73.6,0.0,u,0.0,True,898.2000000476837,54.0,60.0,40.0,False,,217.0296843668042,[],"[768, 432]",ColorTask,9.0,11.0,,,HRV,HRV_0192,2022-11-30 19:37:45
,wl-rdm,19,112486,0.0-6.11-0.11,0.0,20.0,,,,,,,[],,,,,,56.4,1.0,i,1.0,True,913.2999999523163,55.0,60.0,40.0,False,,253.85128299709237,[],"[768, 432]",ColorTask,10.0,12.0,,,HRV,HRV_0192,2022-11-30 19:37:45
,wl-rdm,20,114918,0.0-6.12-0.12,0.0,21.0,,,,,,,[],,,,,,56.4,0.0,u,0.0,True,1037.9000000357628,63.0,60.0,40.0,False,,329.4838516712157,[],"[768, 432]",ColorTask,11.0,13.0,,,HRV,HRV_0192,2022-11-30 19:37:45
,wl-rdm,21,117101,0.0-6.13-0.13,0.0,22.0,,,,,,,[],,,,,,73.6,1.0,i,1.0,True,815.2000000476837,49.0,60.0,40.0,False,,284.0299976283221,[],"[768, 432]",ColorTask,12.0,14.0,,,HRV,HRV_0192,2022-11-30 19:37:45
,wl-rdm,22,119883,0.0-6.14-0.14,0.0,23.0,,,,,,,[],,,,,,62.5,0.0,u,0.0,True,1341.9000000357628,81.0,60.0,40.0,False,,361.6383268347864,[],"[768, 432]",ColorTask,13.0,15.0,,,HRV,HRV_0192,2022-11-30 19:37:45
,wl-rdm,23,122116,0.0-6.15-0.15,0.0,24.0,,,,,,,[],,,,,,50.0,1.0,i,1.0,True,891.0,54.0,60.0,40.0,False,,258.0190913021763,[],"[768, 432]",ColorTask,14.0,16.0,,,HRV,HRV_0192,2022-11-30 19:37:45
,wl-rdm,24,124919,0.0-6.16-0.16,0.0,25.0,,,,,,,[],,,,,,62.5,0.0,i,1.0,False,1425.800000011921,86.0,60.0,40.0,False,,283.6261628655951,[],"[768, 432]",ColorTask,13.0,17.0,,,HRV,HRV_0192,2022-11-30 19:37:45
,wl-rdm,25,127032,0.0-6.17-0.17,0.0,26.0,,,,,,,[],,,,,,50.0,1.0,i,1.0,True,828.7000000476837,50.0,60.0,40.0,False,,200.22383611007305,[],"[768, 432]",ColorTask,14.0,18.0,,,HRV,HRV_0192,2022-11-30 19:37:45
,wl-rdm,26,129432,0.0-6.18-0.18,0.0,27.0,,,,,,,[],,,,,,62.5,1.0,i,1.0,True,1127.9000000357628,68.0,60.0,40.0,False,,213.7038521229864,[],"[768, 432]",ColorTask,15.0,19.0,,,HRV,HRV_0192,2022-11-30 19:37:45
,wl-rdm,27,133630,0.0-6.19-0.19,0.0,28.0,,,,,,,[],,,,,,53.2,1.0,u,0.0,False,2896.5,174.0,60.0,40.0,False,,222.5226684230038,[],"[768, 432]",ColorTask,14.0,20.0,,,HRV,HRV_0192,2022-11-30 19:37:45
,wl-rdm,28,135664,0.0-6.20-0.20,0.0,29.0,,,,,,,[],,,,,,73.6,1.0,i,1.0,True,746.7999999523163,45.0,60.0,40.0,False,,214.34215521701339,[],"[768, 432]",ColorTask,15.0,21.0,,,HRV,HRV_0192,2022-11-30 19:37:45
,wl-rdm,29,138429,0.0-6.21-0.21,0.0,30.0,,,,,,,[],,,,,,73.6,1.0,i,1.0,True,1306.4000000357628,79.0,60.0,40.0,False,,386.5314866876435,[],"[768, 432]",ColorTask,16.0,22.0,,,HRV,HRV_0192,2022-11-30 19:37:45
,wl-rdm,30,140662,0.0-6.22-0.22,0.0,31.0,,,,,,,[],,,,,,87.9,0.0,u,0.0,True,947.0,57.0,60.0,40.0,False,,220.4660868474905,[],"[768, 432]",ColorTask,17.0,23.0,,,HRV,HRV_0192,2022-11-30 19:37:45
,wl-rdm,31,144411,0.0-6.23-0.23,0.0,32.0,,,,,,,[],,,,,,73.6,0.0,u,0.0,True,2284.399999976158,138.0,60.0,40.0,False,,381.1227349094663,[],"[768, 432]",ColorTask,18.0,24.0,,,HRV,HRV_0192,2022-11-30 19:37:45
,wl-rdm,32,148726,0.0-6.24-0.24,0.0,32.0,,,,,,,[],,,,,,50.0,0.0,u,,,3117.300000011921,179.0,60.0,40.0,True,RT_timeout ,204.8087764920885,[],"[768, 432]",ColorTask,17.0,25.0,,,HRV,HRV_0192,2022-11-30 19:37:45
,wl-rdm,33,151309,0.0-6.25-0.25,0.0,33.0,,,,,,,[],,,,,,56.4,0.0,i,1.0,False,1205.9000000357628,73.0,60.0,40.0,False,,292.1909182018105,[],"[768, 432]",ColorTask,16.0,26.0,,,HRV,HRV_0192,2022-11-30 19:37:45
,wl-rdm,34,153464,0.0-6.26-0.26,0.0,34.0,,,,,,,[],,,,,,56.4,1.0,i,1.0,True,784.2000000476837,48.0,60.0,40.0,False,,270.94935894841853,[],"[768, 432]",ColorTask,17.0,27.0,,,HRV,HRV_0192,2022-11-30 19:37:45
,wl-rdm,35,156208,0.0-6.27-0.27,0.0,35.0,,,,,,,[],,,,,,62.5,1.0,i,1.0,True,1443.7999999523163,87.0,60.0,40.0,False,,235.08115379234653,[],"[768, 432]",ColorTask,18.0,28.0,,,HRV,HRV_0192,2022-11-30 19:37:45
,wl-rdm,36,158941,0.0-6.28-0.28,0.0,36.0,,,,,,,[],,,,,,50.0,0.0,u,0.0,True,1307.0,79.0,60.0,40.0,False,,338.0793392886553,[],"[768, 432]",ColorTask,19.0,29.0,,,HRV,HRV_0192,2022-11-30 19:37:45
,wl-rdm,37,161174,0.0-6.29-0.29,0.0,37.0,,,,,,,[],,,,,,53.2,0.0,i,1.0,False,939.5,57.0,60.0,40.0,False,,204.04742611923413,[],"[768, 432]",ColorTask,18.0,30.0,,,HRV,HRV_0192,2022-11-30 19:37:45
,wl-rdm,38,163607,0.0-6.30-0.30,0.0,38.0,,,,,,,[],,,,,,56.4,0.0,u,0.0,True,1148.300000011921,69.0,60.0,40.0,False,,210.8974446047542,[],"[768, 432]",ColorTask,19.0,31.0,,,HRV,HRV_0192,2022-11-30 19:37:45
,wl-rdm,39,166056,0.0-6.31-0.31,0.0,39.0,,,,,,,[],,,,,,62.5,0.0,u,0.0,True,1145.2000000476837,69.0,60.0,40.0,False,,237.9713111365762,[],"[768, 432]",ColorTask,20.0,32.0,,,HRV,HRV_0192,2022-11-30 19:37:45
,wl-rdm,40,168256,0.0-6.32-0.32,0.0,40.0,,,,,,,[],,,,,,87.9,0.0,u,0.0,True,737.9000000357628,45.0,60.0,40.0,False,,380.3612590022976,[],"[768, 432]",ColorTask,21.0,33.0,,,HRV,HRV_0192,2022-11-30 19:37:45
,wl-rdm,41,170655,0.0-6.33-0.33,0.0,41.0,,,,,,,[],,,,,,50.0,0.0,u,0.0,True,1038.8999999761581,63.0,60.0,40.0,False,,268.36558743502326,[],"[768, 432]",ColorTask,22.0,34.0,,,HRV,HRV_0192,2022-11-30 19:37:45
,wl-rdm,42,173971,0.0-6.34-0.34,0.0,42.0,,,,,,,[],,,,,,53.2,0.0,i,1.0,False,1893.0,114.0,60.0,40.0,False,,346.1291441844511,[],"[768, 432]",ColorTask,21.0,35.0,,,HRV,HRV_0192,2022-11-30 19:37:45
,wl-rdm,43,176654,0.0-6.35-0.35,0.0,43.0,,,,,,,[],,,,,,53.2,0.0,u,0.0,True,1289.3999999761581,78.0,60.0,40.0,False,,326.13013974808933,[],"[768, 432]",ColorTask,22.0,36.0,,,HRV,HRV_0192,2022-11-30 19:37:45
,wl-rdm,44,179019,0.0-6.36-0.36,0.0,44.0,,,,,,,[],,,,,,62.5,0.0,u,0.0,True,968.2000000476837,59.0,60.0,40.0,False,,301.069680930714,[],"[768, 432]",ColorTask,23.0,37.0,,,HRV,HRV_0192,2022-11-30 19:37:45
,wl-rdm,45,181285,0.0-6.37-0.37,0.0,45.0,,,,,,,[],,,,,,73.6,0.0,u,0.0,True,940.5,57.0,60.0,40.0,False,,242.23176605939207,[],"[768, 432]",ColorTask,24.0,38.0,,,HRV,HRV_0192,2022-11-30 19:37:45
,wl-rdm,46,183885,0.0-6.38-0.38,0.0,46.0,,,,,,,[],,,,,,53.2,0.0,u,0.0,True,1207.300000011921,73.0,60.0,40.0,False,,312.31679174776224,[],"[768, 432]",ColorTask,25.0,39.0,,,HRV,HRV_0192,2022-11-30 19:37:45
,wl-rdm,47,186485,0.0-6.39-0.39,0.0,47.0,,,,,,,[],,,,,,50.0,1.0,u,0.0,False,1298.5999999642372,78.0,60.0,40.0,False,,243.8052050499351,[],"[768, 432]",ColorTask,24.0,40.0,,,HRV,HRV_0192,2022-11-30 19:37:45
,wl-rdm,48,189117,0.0-6.40-0.40,0.0,48.0,,,,,,,[],,,,,,56.4,0.0,u,0.0,True,1340.4000000357628,81.0,60.0,40.0,False,,211.3698034640145,[],"[768, 432]",ColorTask,25.0,41.0,,,HRV,HRV_0192,2022-11-30 19:37:45
,wl-rdm,49,191583,0.0-6.41-0.41,0.0,49.0,,,,,,,[],,,,,,87.9,0.0,u,0.0,True,1080.4000000357628,65.0,60.0,40.0,False,,320.34016290450484,[],"[768, 432]",ColorTask,26.0,42.0,,,HRV,HRV_0192,2022-11-30 19:37:45
,wl-rdm,50,193949,0.0-6.42-0.42,0.0,50.0,,,,,,,[],,,,,,87.9,0.0,u,0.0,True,980.6999999880791,59.0,60.0,40.0,False,,323.56078307045664,[],"[768, 432]",ColorTask,27.0,43.0,,,HRV,HRV_0192,2022-11-30 19:37:45
,wl-rdm,51,196932,0.0-6.43-0.43,0.0,51.0,,,,,,,[],,,,,,56.4,0.0,u,0.0,True,1691.300000011921,102.0,60.0,40.0,False,,211.58415138872954,[],"[768, 432]",ColorTask,28.0,44.0,,,HRV,HRV_0192,2022-11-30 19:37:45
,wl-rdm,52,199581,0.0-6.44-0.44,0.0,52.0,,,,,,,[],,,,,,50.0,0.0,u,0.0,True,1282.1000000238419,77.0,60.0,40.0,False,,306.7405824117371,[],"[768, 432]",ColorTask,29.0,45.0,,,HRV,HRV_0192,2022-11-30 19:37:45
,wl-rdm,53,201864,0.0-6.45-0.45,0.0,53.0,,,,,,,[],,,,,,87.9,1.0,i,1.0,True,979.3000000119209,59.0,60.0,40.0,False,,243.87160526852406,[],"[768, 432]",ColorTask,30.0,46.0,,,HRV,HRV_0192,2022-11-30 19:37:45
,wl-rdm,54,204180,0.0-6.46-0.46,0.0,54.0,,,,,,,[],,,,,,87.9,1.0,i,1.0,True,892.3999999761581,54.0,60.0,40.0,False,,347.37212435096285,[],"[768, 432]",ColorTask,31.0,47.0,,,HRV,HRV_0192,2022-11-30 19:37:45
,wl-rdm,55,206479,0.0-6.47-0.47,0.0,55.0,,,,,,,[],,,,,,73.6,1.0,i,1.0,True,937.8000000119209,57.0,60.0,40.0,False,,281.1157353192916,[],"[768, 432]",ColorTask,32.0,48.0,,,HRV,HRV_0192,2022-11-30 19:37:45
,wl-rdm,56,209095,0.0-6.48-0.48,0.0,56.0,,,,,,,[],,,,,,50.0,0.0,u,0.0,True,1262.1000000238419,76.0,60.0,40.0,False,,294.2943606394264,[],"[768, 432]",ColorTask,33.0,49.0,,,HRV,HRV_0192,2022-11-30 19:37:45
,wl-rdm,57,211811,0.0-6.49-0.49,0.0,57.0,,,,,,,[],,,,,,62.5,1.0,i,1.0,True,1251.300000011921,76.0,60.0,40.0,False,,382.5386247917883,[],"[768, 432]",ColorTask,34.0,50.0,,,HRV,HRV_0192,2022-11-30 19:37:45
,wl-rdm,58,214094,0.0-6.50-0.50,0.0,58.0,,,,,,,[],,,,,,87.9,1.0,i,1.0,True,840.0000000596046,51.0,60.0,40.0,False,,354.00018488233604,[],"[768, 432]",ColorTask,35.0,51.0,,,HRV,HRV_0192,2022-11-30 19:37:45
,wl-rdm,59,217226,0.0-6.51-0.51,0.0,59.0,,,,,,,[],,,,,,56.4,0.0,i,1.0,False,1834.5999999642372,111.0,60.0,40.0,False,,214.1809911728391,[],"[768, 432]",ColorTask,34.0,52.0,,,HRV,HRV_0192,2022-11-30 19:37:45
,wl-rdm,60,219625,0.0-6.52-0.52,0.0,60.0,,,,,,,[],,,,,,50.0,0.0,i,1.0,False,985.4000000357628,60.0,60.0,40.0,False,,329.2806565710769,[],"[768, 432]",ColorTask,33.0,53.0,,,HRV,HRV_0192,2022-11-30 19:37:45
,wl-rdm,61,222375,0.0-6.53-0.53,0.0,61.0,,,,,,,[],,,,,,53.2,1.0,i,1.0,True,1346.0999999642372,81.0,60.0,40.0,False,,318.2708339080996,[],"[768, 432]",ColorTask,34.0,54.0,,,HRV,HRV_0192,2022-11-30 19:37:45
,wl-rdm,62,224841,0.0-6.54-0.54,0.0,62.0,,,,,,,[],,,,,,53.2,1.0,u,0.0,False,1110.800000011921,67.0,60.0,40.0,False,,279.4955110001708,[],"[768, 432]",ColorTask,33.0,55.0,,,HRV,HRV_0192,2022-11-30 19:37:45
,wl-rdm,63,227073,0.0-6.55-0.55,0.0,63.0,,,,,,,[],,,,,,56.4,1.0,i,1.0,True,752.3000000119209,46.0,60.0,40.0,False,,383.91296029087687,[],"[768, 432]",ColorTask,34.0,56.0,,,HRV,HRV_0192,2022-11-30 19:37:45
,wl-rdm,64,229456,0.0-6.56-0.56,0.0,64.0,,,,,,,[],,,,,,62.5,1.0,i,1.0,True,985.8000000119209,60.0,60.0,40.0,False,,320.22428552879535,[],"[768, 432]",ColorTask,35.0,57.0,,,HRV,HRV_0192,2022-11-30 19:37:45
,wl-rdm,65,231606,0.0-6.57-0.57,0.0,65.0,,,,,,,[],,,,,,87.9,1.0,i,1.0,True,773.1000000238419,47.0,60.0,40.0,False,,285.66090166544234,[],"[768, 432]",ColorTask,36.0,58.0,,,HRV,HRV_0192,2022-11-30 19:37:45
,wl-rdm,66,233872,0.0-6.58-0.58,0.0,66.0,,,,,,,[],,,,,,53.2,1.0,i,1.0,True,836.8000000715256,51.0,60.0,40.0,False,,337.6054764504561,[],"[768, 432]",ColorTask,37.0,59.0,,,HRV,HRV_0192,2022-11-30 19:37:45
,wl-rdm,67,235938,0.0-6.59-0.59,0.0,67.0,,,,,,,[],,,,,,53.2,1.0,i,1.0,True,694.1000000238419,42.0,60.0,40.0,False,,294.21179686740805,[],"[768, 432]",ColorTask,38.0,60.0,,,HRV,HRV_0192,2022-11-30 19:37:45
,wl-rdm,68,238171,0.0-6.60-0.60,0.0,68.0,,,,,,,[],,,,,,87.9,0.0,u,0.0,True,851.1000000238419,52.0,60.0,40.0,False,,307.90429079864145,[],"[768, 432]",ColorTask,39.0,61.0,,,HRV,HRV_0192,2022-11-30 19:37:45
,wl-rdm,69,240853,0.0-6.61-0.61,0.0,69.0,,,,,,,[],,,,,,50.0,1.0,u,0.0,False,1264.699999988079,76.0,60.0,40.0,False,,346.2725672399022,[],"[768, 432]",ColorTask,38.0,62.0,,,HRV,HRV_0192,2022-11-30 19:37:45
,wl-rdm,70,243020,0.0-6.62-0.62,0.0,70.0,,,,,,,[],,,,,,62.5,1.0,i,1.0,True,700.8999999761581,43.0,60.0,40.0,False,,367.81442370194935,[],"[768, 432]",ColorTask,39.0,63.0,,,HRV,HRV_0192,2022-11-30 19:37:45
,wl-rdm,71,245119,0.0-6.63-0.63,0.0,71.0,,,,,,,[],,,,,,50.0,1.0,i,1.0,True,737.3999999761581,45.0,60.0,40.0,False,,283.0672874482369,[],"[768, 432]",ColorTask,40.0,64.0,,,HRV,HRV_0192,2022-11-30 19:37:45
,wl-rdm,72,247235,0.0-6.64-0.64,0.0,72.0,,,,,,,[],,,,,,87.9,1.0,i,1.0,True,768.7999999523163,47.0,60.0,40.0,False,,256.25138132746343,[],"[768, 432]",ColorTask,41.0,65.0,,,HRV,HRV_0192,2022-11-30 19:37:45
,wl-rdm,73,249501,0.0-6.65-0.65,0.0,73.0,,,,,,,[],,,,,,73.6,1.0,i,1.0,True,805.8999999761581,49.0,60.0,40.0,False,,367.27673806585744,[],"[768, 432]",ColorTask,42.0,66.0,,,HRV,HRV_0192,2022-11-30 19:37:45
,wl-rdm,74,251701,0.0-6.66-0.66,0.0,74.0,,,,,,,[],,,,,,87.9,0.0,u,0.0,True,906.8999999761581,55.0,60.0,40.0,False,,204.86198273775665,[],"[768, 432]",ColorTask,43.0,67.0,,,HRV,HRV_0192,2022-11-30 19:37:45
,wl-rdm,75,253850,0.0-6.67-0.67,0.0,75.0,,,,,,,[],,,,,,87.9,0.0,u,0.0,True,742.7999999523163,45.0,60.0,40.0,False,,324.5729197943809,[],"[768, 432]",ColorTask,44.0,68.0,,,HRV,HRV_0192,2022-11-30 19:37:45
,wl-rdm,76,255850,0.0-6.68-0.68,0.0,76.0,,,,,,,[],,,,,,87.9,0.0,u,0.0,True,709.8000000119209,43.0,60.0,40.0,False,,200.48630317490844,[],"[768, 432]",ColorTask,45.0,69.0,,,HRV,HRV_0192,2022-11-30 19:37:45
,wl-rdm,77,257983,0.0-6.69-0.69,0.0,77.0,,,,,,,[],,,,,,62.5,0.0,u,0.0,True,721.6999999880791,44.0,60.0,40.0,False,,342.75773180088675,[],"[768, 432]",ColorTask,46.0,70.0,,,HRV,HRV_0192,2022-11-30 19:37:45
,wl-rdm,78,259982,0.0-6.70-0.70,0.0,78.0,,,,,,,[],,,,,,56.4,1.0,u,0.0,False,629.9000000357628,38.0,60.0,40.0,False,,285.3978919714595,[],"[768, 432]",ColorTask,45.0,71.0,,,HRV,HRV_0192,2022-11-30 19:37:45
,wl-rdm,79,262315,0.0-6.71-0.71,0.0,79.0,,,,,,,[],,,,,,62.5,0.0,u,0.0,True,867.5999999642372,53.0,60.0,40.0,False,,373.65652807822653,[],"[768, 432]",ColorTask,46.0,72.0,,,HRV,HRV_0192,2022-11-30 19:37:45
,wl-rdm,80,264747,0.0-6.72-0.72,0.0,80.0,,,,,,,[],,,,,,53.2,0.0,i,1.0,False,1099.300000011921,66.0,60.0,40.0,False,,251.65987634765705,[],"[768, 432]",ColorTask,45.0,73.0,,,HRV,HRV_0192,2022-11-30 19:37:45
,wl-rdm,81,267514,0.0-6.73-0.73,0.0,81.0,,,,,,,[],,,,,,62.5,1.0,i,1.0,True,1442.6000000238419,87.0,60.0,40.0,False,,258.2716261502664,[],"[768, 432]",ColorTask,46.0,74.0,,,HRV,HRV_0192,2022-11-30 19:37:45
,wl-rdm,82,269629,0.0-6.74-0.74,0.0,82.0,,,,,,,[],,,,,,73.6,0.0,u,0.0,True,798.8000000119209,48.0,60.0,40.0,False,,247.39403600666168,[],"[768, 432]",ColorTask,47.0,75.0,,,HRV,HRV_0192,2022-11-30 19:37:45
,wl-rdm,83,271879,0.0-6.75-0.75,0.0,83.0,,,,,,,[],,,,,,56.4,1.0,i,1.0,True,812.1000000238419,49.0,60.0,40.0,False,,371.98278310662556,[],"[768, 432]",ColorTask,48.0,76.0,,,HRV,HRV_0192,2022-11-30 19:37:45
,wl-rdm,84,274029,0.0-6.76-0.76,0.0,84.0,,,,,,,[],,,,,,73.6,1.0,i,1.0,True,839.7000000476837,51.0,60.0,40.0,False,,217.6009940894871,[],"[768, 432]",ColorTask,49.0,77.0,,,HRV,HRV_0192,2022-11-30 19:37:45
,wl-rdm,85,276595,0.0-6.77-0.77,0.0,85.0,,,,,,,[],,,,,,56.4,1.0,i,1.0,True,1192.7999999523163,72.0,60.0,40.0,False,,295.0130331918703,[],"[768, 432]",ColorTask,50.0,78.0,,,HRV,HRV_0192,2022-11-30 19:37:45
,wl-rdm,86,279128,0.0-6.78-0.78,0.0,86.0,,,,,,,[],,,,,,56.4,1.0,i,1.0,True,1204.300000011921,73.0,60.0,40.0,False,,236.3722623451281,[],"[768, 432]",ColorTask,51.0,79.0,,,HRV,HRV_0192,2022-11-30 19:37:45
,wl-rdm,87,281811,0.0-6.79-0.79,0.0,87.0,,,,,,,[],,,,,,56.4,0.0,u,0.0,True,1268.7999999523163,77.0,60.0,40.0,False,,326.3228929173457,[],"[768, 432]",ColorTask,52.0,80.0,,,HRV,HRV_0192,2022-11-30 19:37:45
,wl-rdm,88,284094,0.0-6.80-0.80,0.0,88.0,,,,,,,[],,,,,,73.6,1.0,i,1.0,True,840.6999999880791,51.0,60.0,40.0,False,,363.3654241026451,[],"[768, 432]",ColorTask,53.0,81.0,,,HRV,HRV_0192,2022-11-30 19:37:45
,wl-rdm,89,286376,0.0-6.81-0.81,0.0,89.0,,,,,,,[],,,,,,56.4,0.0,i,1.0,False,987.3999999761581,60.0,60.0,40.0,False,,214.71530097237854,[],"[768, 432]",ColorTask,52.0,82.0,,,HRV,HRV_0192,2022-11-30 19:37:45
,wl-rdm,90,288392,0.0-6.82-0.82,0.0,90.0,,,,,,,[],,,,,,87.9,1.0,i,1.0,True,729.0,44.0,60.0,40.0,False,,203.35843423753107,[],"[768, 432]",ColorTask,53.0,83.0,,,HRV,HRV_0192,2022-11-30 19:37:45
,wl-rdm,91,290508,0.0-6.83-0.83,0.0,91.0,,,,,,,[],,,,,,73.6,0.0,u,0.0,True,682.7999999523163,41.0,60.0,40.0,False,,354.8344745433161,[],"[768, 432]",ColorTask,54.0,84.0,,,HRV,HRV_0192,2022-11-30 19:37:45
,wl-rdm,92,292740,0.0-6.84-0.84,0.0,92.0,,,,,,,[],,,,,,87.9,1.0,i,1.0,True,891.5,54.0,60.0,40.0,False,,263.20167250865416,[],"[768, 432]",ColorTask,55.0,85.0,,,HRV,HRV_0192,2022-11-30 19:37:45
,wl-rdm,93,294874,0.0-6.85-0.85,0.0,93.0,,,,,,,[],,,,,,53.2,0.0,i,1.0,False,835.5,51.0,60.0,40.0,False,,225.84536238703032,[],"[768, 432]",ColorTask,54.0,86.0,,,HRV,HRV_0192,2022-11-30 19:37:45
,wl-rdm,94,296956,0.0-6.86-0.86,0.0,94.0,,,,,,,[],,,,,,53.2,1.0,i,1.0,True,698.7999999523163,42.0,60.0,40.0,False,,318.7147945105447,[],"[768, 432]",ColorTask,55.0,87.0,,,HRV,HRV_0192,2022-11-30 19:37:45
,wl-rdm,95,298972,0.0-6.87-0.87,0.0,95.0,,,,,,,[],,,,,,87.9,1.0,i,1.0,True,648.6000000238419,39.0,60.0,40.0,False,,295.2669033258155,[],"[768, 432]",ColorTask,56.0,88.0,,,HRV,HRV_0192,2022-11-30 19:37:45
,wl-rdm,96,301039,0.0-6.88-0.88,0.0,96.0,,,,,,,[],,,,,,73.6,0.0,u,0.0,True,744.8999999761581,45.0,60.0,40.0,False,,251.8731804013432,[],"[768, 432]",ColorTask,57.0,89.0,,,HRV,HRV_0192,2022-11-30 19:37:45
,wl-rdm,97,303255,0.0-6.89-0.89,0.0,97.0,,,,,,,[],,,,,,50.0,1.0,i,1.0,True,921.3000000119209,56.0,60.0,40.0,False,,232.83342346329505,[],"[768, 432]",ColorTask,58.0,90.0,,,HRV,HRV_0192,2022-11-30 19:37:45
,wl-rdm,98,305404,0.0-6.90-0.90,0.0,98.0,,,,,,,[],,,,,,53.2,1.0,i,1.0,True,691.1000000238419,42.0,60.0,40.0,False,,376.74307903977126,[],"[768, 432]",ColorTask,59.0,91.0,,,HRV,HRV_0192,2022-11-30 19:37:45
,wl-rdm,99,308137,0.0-6.91-0.91,0.0,99.0,,,,,,,[],,,,,,53.2,0.0,i,1.0,False,1368.4999999403954,83.0,60.0,40.0,False,,287.29558070465197,[],"[768, 432]",ColorTask,58.0,92.0,,,HRV,HRV_0192,2022-11-30 19:37:45
,wl-rdm,100,310236,0.0-6.92-0.92,0.0,100.0,,,,,,,[],,,,,,56.4,1.0,i,1.0,True,757.5999999642372,46.0,60.0,40.0,False,,259.0741586861857,[],"[768, 432]",ColorTask,59.0,93.0,,,HRV,HRV_0192,2022-11-30 19:37:45
,wl-rdm,101,312586,0.0-6.93-0.93,0.0,101.0,,,,,,,[],,,,,,50.0,1.0,u,0.0,False,1051.9999999403954,64.0,60.0,40.0,False,,205.52494086380827,[],"[768, 432]",ColorTask,58.0,94.0,,,HRV,HRV_0192,2022-11-30 19:37:45
,wl-rdm,102,314618,0.0-6.94-0.94,0.0,102.0,,,,,,,[],,,,,,62.5,0.0,i,1.0,False,676.6999999880791,41.0,60.0,40.0,False,,269.58535626161455,[],"[768, 432]",ColorTask,57.0,95.0,,,HRV,HRV_0192,2022-11-30 19:37:45
,wl-rdm,103,316785,0.0-6.95-0.95,0.0,103.0,,,,,,,[],,,,,,73.6,0.0,u,0.0,True,871.0,53.0,60.0,40.0,False,,206.80444795732276,[],"[768, 432]",ColorTask,58.0,96.0,,,HRV,HRV_0192,2022-11-30 19:37:45
,wl-rdm,104,319334,0.0-6.96-0.96,0.0,104.0,,,,,,,[],,,,,,50.0,0.0,u,0.0,True,1230.0999999642372,74.0,60.0,40.0,False,,251.32014959068877,[],"[768, 432]",ColorTask,59.0,97.0,,,HRV,HRV_0192,2022-11-30 19:37:45
,wl-rdm,105,322050,0.0-6.97-0.97,0.0,105.0,,,,,,,[],,,,,,50.0,0.0,i,1.0,False,1319.0000000596046,80.0,60.0,40.0,False,,304.8558261093755,[],"[768, 432]",ColorTask,58.0,98.0,,,HRV,HRV_0192,2022-11-30 19:37:45
,wl-rdm,106,324166,0.0-6.98-0.98,0.0,106.0,,,,,,,[],,,,,,73.6,0.0,u,0.0,True,705.6999999880791,43.0,60.0,40.0,False,,318.1835142817284,[],"[768, 432]",ColorTask,59.0,99.0,,,HRV,HRV_0192,2022-11-30 19:37:45
,wl-rdm,107,326199,0.0-6.99-0.99,0.0,107.0,,,,,,,[],,,,,,56.4,1.0,u,0.0,False,729.7000000476837,44.0,60.0,40.0,False,,248.42286655040343,[],"[768, 432]",ColorTask,58.0,100.0,,,HRV,HRV_0192,2022-11-30 19:37:45
,wl-rdm,108,328298,0.0-6.100-0.100,0.0,108.0,,,,,,,[],,,,,,62.5,0.0,u,0.0,True,801.1999999880791,49.0,60.0,40.0,False,,228.21006190720797,[],"[768, 432]",ColorTask,59.0,101.0,,,HRV,HRV_0192,2022-11-30 19:37:45
,wl-rdm,109,330431,0.0-6.101-0.101,0.0,109.0,,,,,,,[],,,,,,53.2,1.0,i,1.0,True,745.3999999761581,45.0,60.0,40.0,False,,324.906673254294,[],"[768, 432]",ColorTask,60.0,102.0,,,HRV,HRV_0192,2022-11-30 19:37:45
,wl-rdm,110,332631,0.0-6.102-0.102,0.0,110.0,,,,,,,[],,,,,,73.6,0.0,u,0.0,True,821.2000000476837,50.0,60.0,40.0,False,,299.6051641552969,[],"[768, 432]",ColorTask,61.0,103.0,,,HRV,HRV_0192,2022-11-30 19:37:45
,wl-rdm,111,334781,0.0-6.103-0.103,0.0,111.0,,,,,,,[],,,,,,50.0,0.0,i,1.0,False,782.5000000596046,48.0,60.0,40.0,False,,273.1156624700189,[],"[768, 432]",ColorTask,60.0,104.0,,,HRV,HRV_0192,2022-11-30 19:37:45
,wl-rdm,112,337013,0.0-6.104-0.104,0.0,112.0,,,,,,,[],,,,,,62.5,1.0,u,0.0,False,897.8000000119209,54.0,60.0,40.0,False,,279.90497972844923,[],"[768, 432]",ColorTask,59.0,105.0,,,HRV,HRV_0192,2022-11-30 19:37:45
,wl-rdm,113,339163,0.0-6.105-0.105,0.0,113.0,,,,,,,[],,,,,,50.0,1.0,u,0.0,False,859.8000000119209,52.0,60.0,40.0,False,,201.01265128714547,[],"[768, 432]",ColorTask,58.0,106.0,,,HRV,HRV_0192,2022-11-30 19:37:45
,wl-rdm,114,341196,0.0-6.106-0.106,0.0,114.0,,,,,,,[],,,,,,62.5,1.0,i,1.0,True,765.8000000119209,46.0,60.0,40.0,False,,212.1512597024091,[],"[768, 432]",ColorTask,59.0,107.0,,,HRV,HRV_0192,2022-11-30 19:37:45
,wl-rdm,115,343279,0.0-6.107-0.107,0.0,115.0,,,,,,,[],,,,,,50.0,1.0,u,0.0,False,772.9000000357628,47.0,60.0,40.0,False,,216.6254017600415,[],"[768, 432]",ColorTask,58.0,108.0,,,HRV,HRV_0192,2022-11-30 19:37:45
,wl-rdm,116,345461,0.0-6.108-0.108,0.0,116.0,,,,,,,[],,,,,,87.9,0.0,u,0.0,True,840.4000000357628,51.0,60.0,40.0,False,,250.93979525749242,[],"[768, 432]",ColorTask,59.0,109.0,,,HRV,HRV_0192,2022-11-30 19:37:45
,wl-html-keyboard-response,117,392397,0.0-7.0-0.0,1.0,117.0,,,,,,,,44919.5,1.0,0,,,,,,,,,,,,,,,,,,,,,,HRV,HRV_0192,2022-11-30 19:37:45
,wl-rdm,118,394832,0.0-8.0-0.0,1.0,118.0,,,,,,,[],,,,,,56.4,1.0,i,1.0,True,1144.199999988079,69.0,60.0,40.0,False,,228.62429383770626,[],"[768, 432]",ColorTask,60.0,1.0,,,HRV,HRV_0192,2022-11-30 19:37:45
,wl-rdm,119,396865,0.0-8.1-0.1,1.0,119.0,,,,,,,[],,,,,,87.9,0.0,u,0.0,True,694.3000000715256,42.0,60.0,40.0,False,,257.1060321725857,[],"[768, 432]",ColorTask,61.0,2.0,,,HRV,HRV_0192,2022-11-30 19:37:45
,wl-rdm,120,399064,0.0-8.2-0.2,1.0,120.0,,,,,,,[],,,,,,87.9,0.0,u,0.0,True,769.5999999642372,47.0,60.0,40.0,False,,363.2753079195696,[],"[768, 432]",ColorTask,62.0,3.0,,,HRV,HRV_0192,2022-11-30 19:37:45
,wl-rdm,121,401180,0.0-8.3-0.3,1.0,121.0,,,,,,,[],,,,,,62.5,1.0,i,1.0,True,723.4000000357628,33.0,60.0,40.0,False,,306.7349371508358,[],"[768, 432]",ColorTask,63.0,4.0,,,HRV,HRV_0192,2022-11-30 19:37:45
,wl-rdm,122,403363,0.0-8.4-0.4,1.0,122.0,,,,,,,[],,,,,,56.4,0.0,i,1.0,False,886.5999999642372,54.0,60.0,40.0,False,,202.51523876891736,[],"[768, 432]",ColorTask,62.0,5.0,,,HRV,HRV_0192,2022-11-30 19:37:45
,wl-rdm,123,405380,0.0-8.5-0.5,1.0,123.0,,,,,,,[],,,,,,87.9,0.0,u,0.0,True,717.5,44.0,60.0,40.0,False,,203.82180586829884,[],"[768, 432]",ColorTask,63.0,6.0,,,HRV,HRV_0192,2022-11-30 19:37:45
,wl-rdm,124,407512,0.0-8.6-0.6,1.0,124.0,,,,,,,[],,,,,,62.5,0.0,u,0.0,True,794.5999999642372,48.0,60.0,40.0,False,,250.71066130442114,[],"[768, 432]",ColorTask,64.0,7.0,,,HRV,HRV_0192,2022-11-30 19:37:45
,wl-rdm,125,409545,0.0-8.7-0.7,1.0,125.0,,,,,,,[],,,,,,73.6,1.0,i,1.0,True,734.6999999880791,45.0,60.0,40.0,False,,203.7615987447809,[],"[768, 432]",ColorTask,65.0,8.0,,,HRV,HRV_0192,2022-11-30 19:37:45
,wl-rdm,126,411612,0.0-8.8-0.8,1.0,126.0,,,,,,,[],,,,,,73.6,1.0,i,1.0,True,734.8999999761581,45.0,60.0,40.0,False,,247.00831588489956,[],"[768, 432]",ColorTask,66.0,9.0,,,HRV,HRV_0192,2022-11-30 19:37:45
,wl-rdm,127,413577,0.0-8.9-0.9,1.0,127.0,,,,,,,[],,,,,,87.9,1.0,i,1.0,True,618.1000000238419,38.0,60.0,40.0,False,,277.3264713856533,[],"[768, 432]",ColorTask,67.0,10.0,,,HRV,HRV_0192,2022-11-30 19:37:45
,wl-rdm,128,415827,0.0-8.10-0.10,1.0,128.0,,,,,,,[],,,,,,50.0,0.0,i,1.0,False,842.6999999880791,51.0,60.0,40.0,False,,323.3749060518773,[],"[768, 432]",ColorTask,66.0,11.0,,,HRV,HRV_0192,2022-11-30 19:37:45
,wl-rdm,129,417993,0.0-8.11-0.11,1.0,129.0,,,,,,,[],,,,,,87.9,1.0,i,1.0,True,735.4000000357628,45.0,60.0,40.0,False,,333.8775351699104,[],"[768, 432]",ColorTask,67.0,12.0,,,HRV,HRV_0192,2022-11-30 19:37:45
,wl-rdm,130,420076,0.0-8.12-0.12,1.0,130.0,,,,,,,[],,,,,,62.5,1.0,i,1.0,True,641.9000000357628,39.0,60.0,40.0,False,,352.0656629535565,[],"[768, 432]",ColorTask,68.0,13.0,,,HRV,HRV_0192,2022-11-30 19:37:45
,wl-rdm,131,422175,0.0-8.13-0.13,1.0,131.0,,,,,,,[],,,,,,73.6,1.0,i,1.0,True,795.5,48.0,60.0,40.0,False,,221.65855907638883,[],"[768, 432]",ColorTask,69.0,14.0,,,HRV,HRV_0192,2022-11-30 19:37:45
,wl-rdm,132,424292,0.0-8.14-0.14,1.0,132.0,,,,,,,[],,,,,,50.0,0.0,i,1.0,False,750.8999999761581,46.0,60.0,40.0,False,,280.02406028766626,[],"[768, 432]",ColorTask,68.0,15.0,,,HRV,HRV_0192,2022-11-30 19:37:45
,wl-rdm,133,426458,0.0-8.15-0.15,1.0,133.0,,,,,,,[],,,,,,62.5,0.0,i,1.0,False,743.0,45.0,60.0,40.0,False,,356.9022744584811,[],"[768, 432]",ColorTask,67.0,16.0,,,HRV,HRV_0192,2022-11-30 19:37:45
,wl-rdm,134,429424,0.0-8.16-0.16,1.0,134.0,,,,,,,[],,,,,,62.5,0.0,u,0.0,True,1637.300000011921,99.0,60.0,40.0,False,,245.99427102719926,[],"[768, 432]",ColorTask,68.0,17.0,,,HRV,HRV_0192,2022-11-30 19:37:45
,wl-rdm,135,431539,0.0-8.17-0.17,1.0,135.0,,,,,,,[],,,,,,73.6,1.0,i,1.0,True,748.9000000357628,45.0,60.0,40.0,False,,283.2200488931064,[],"[768, 432]",ColorTask,69.0,18.0,,,HRV,HRV_0192,2022-11-30 19:37:45
,wl-rdm,136,433990,0.0-8.18-0.18,1.0,136.0,,,,,,,[],,,,,,53.2,1.0,u,0.0,False,990.4000000357628,60.0,60.0,40.0,False,,399.318008734743,[],"[768, 432]",ColorTask,68.0,19.0,,,HRV,HRV_0192,2022-11-30 19:37:45
,wl-rdm,137,436155,0.0-8.19-0.19,1.0,137.0,,,,,,,[],,,,,,62.5,1.0,i,1.0,True,742.1999999880791,45.0,60.0,40.0,False,,340.2739507082433,[],"[768, 432]",ColorTask,69.0,20.0,,,HRV,HRV_0192,2022-11-30 19:37:45
,wl-rdm,138,438272,0.0-8.20-0.20,1.0,138.0,,,,,,,[],,,,,,50.0,1.0,i,1.0,True,753.6000000238419,46.0,60.0,40.0,False,,295.7837094095816,[],"[768, 432]",ColorTask,70.0,21.0,,,HRV,HRV_0192,2022-11-30 19:37:45
,wl-rdm,139,440404,0.0-8.21-0.21,1.0,139.0,,,,,,,[],,,,,,62.5,1.0,i,1.0,True,817.5999999642372,50.0,60.0,40.0,False,,219.12334196622396,[],"[768, 432]",ColorTask,71.0,22.0,,,HRV,HRV_0192,2022-11-30 19:37:45
,wl-rdm,140,442687,0.0-8.22-0.22,1.0,140.0,,,,,,,[],,,,,,53.2,1.0,i,1.0,True,862.4000000357628,52.0,60.0,40.0,False,,361.7884293238565,[],"[768, 432]",ColorTask,72.0,23.0,,,HRV,HRV_0192,2022-11-30 19:37:45
,wl-rdm,141,444753,0.0-8.23-0.23,1.0,141.0,,,,,,,[],,,,,,73.6,0.0,u,0.0,True,694.7000000476837,42.0,60.0,40.0,False,,292.7330329410028,[],"[768, 432]",ColorTask,73.0,24.0,,,HRV,HRV_0192,2022-11-30 19:37:45
,wl-rdm,142,447236,0.0-8.24-0.24,1.0,142.0,,,,,,,[],,,,,,50.0,1.0,u,0.0,False,1067.5999999642372,65.0,60.0,40.0,False,,321.7941415392624,[],"[768, 432]",ColorTask,72.0,25.0,,,HRV,HRV_0192,2022-11-30 19:37:45
,wl-rdm,143,449419,0.0-8.25-0.25,1.0,143.0,,,,,,,[],,,,,,73.6,1.0,i,1.0,True,843.5000000596046,51.0,60.0,40.0,False,,258.4451713513236,[],"[768, 432]",ColorTask,73.0,26.0,,,HRV,HRV_0192,2022-11-30 19:37:45
,wl-rdm,144,451818,0.0-8.26-0.26,1.0,144.0,,,,,,,[],,,,,,53.2,0.0,i,1.0,False,984.0999999642372,60.0,60.0,40.0,False,,333.43150157757816,[],"[768, 432]",ColorTask,72.0,27.0,,,HRV,HRV_0192,2022-11-30 19:37:45
,wl-rdm,145,454034,0.0-8.27-0.27,1.0,145.0,,,,,,,[],,,,,,73.6,0.0,u,0.0,True,827.5,50.0,60.0,40.0,False,,302.3906697953191,[],"[768, 432]",ColorTask,73.0,28.0,,,HRV,HRV_0192,2022-11-30 19:37:45
,wl-rdm,146,456533,0.0-8.28-0.28,1.0,146.0,,,,,,,[],,,,,,53.2,0.0,u,0.0,True,1132.0,68.0,60.0,40.0,False,,297.2211774198531,[],"[768, 432]",ColorTask,74.0,29.0,,,HRV,HRV_0192,2022-11-30 19:37:45
,wl-rdm,147,458683,0.0-8.29-0.29,1.0,147.0,,,,,,,[],,,,,,50.0,0.0,i,1.0,False,733.9000000357628,45.0,60.0,40.0,False,,349.61941381253484,[],"[768, 432]",ColorTask,73.0,30.0,,,HRV,HRV_0192,2022-11-30 19:37:45
,wl-rdm,148,460765,0.0-8.30-0.30,1.0,148.0,,,,,,,[],,,,,,87.9,1.0,i,1.0,True,797.6999999880791,48.0,60.0,40.0,False,,205.9457233421767,[],"[768, 432]",ColorTask,74.0,31.0,,,HRV,HRV_0192,2022-11-30 19:37:45
,wl-rdm,149,462798,0.0-8.31-0.31,1.0,149.0,,,,,,,[],,,,,,53.2,0.0,u,0.0,True,746.5,45.0,60.0,40.0,False,,216.90399609276992,[],"[768, 432]",ColorTask,75.0,32.0,,,HRV,HRV_0192,2022-11-30 19:37:45
,wl-rdm,150,464931,0.0-8.32-0.32,1.0,150.0,,,,,,,[],,,,,,87.9,0.0,u,0.0,True,708.0999999642372,43.0,60.0,40.0,False,,345.3481109335943,[],"[768, 432]",ColorTask,76.0,33.0,,,HRV,HRV_0192,2022-11-30 19:37:45
,wl-rdm,151,467131,0.0-8.33-0.33,1.0,151.0,,,,,,,[],,,,,,53.2,1.0,i,1.0,True,893.4999999403954,54.0,60.0,40.0,False,,217.5075509904716,[],"[768, 432]",ColorTask,77.0,34.0,,,HRV,HRV_0192,2022-11-30 19:37:45
,wl-rdm,152,469697,0.0-8.34-0.34,1.0,152.0,,,,,,,[],,,,,,50.0,1.0,i,1.0,True,1243.1000000238419,75.0,60.0,40.0,False,,262.75619407877304,[],"[768, 432]",ColorTask,78.0,35.0,,,HRV,HRV_0192,2022-11-30 19:37:45
,wl-rdm,153,471913,0.0-8.35-0.35,1.0,153.0,,,,,,,[],,,,,,50.0,1.0,i,1.0,True,828.0000000596046,50.0,60.0,40.0,False,,305.22278247615816,[],"[768, 432]",ColorTask,79.0,36.0,,,HRV,HRV_0192,2022-11-30 19:37:45
,wl-rdm,154,473979,0.0-8.36-0.36,1.0,154.0,,,,,,,[],,,,,,73.6,1.0,i,1.0,True,625.1999999880791,38.0,60.0,40.0,False,,351.4523539501971,[],"[768, 432]",ColorTask,80.0,37.0,,,HRV,HRV_0192,2022-11-30 19:37:45
,wl-rdm,155,476312,0.0-8.37-0.37,1.0,155.0,,,,,,,[],,,,,,50.0,0.0,i,1.0,False,995.8999999761581,60.0,60.0,40.0,False,,256.50416692102743,[],"[768, 432]",ColorTask,79.0,38.0,,,HRV,HRV_0192,2022-11-30 19:37:45
,wl-rdm,156,478461,0.0-8.38-0.38,1.0,156.0,,,,,,,[],,,,,,50.0,1.0,u,0.0,False,740.4000000357628,45.0,60.0,40.0,False,,316.34785269568124,[],"[768, 432]",ColorTask,78.0,39.0,,,HRV,HRV_0192,2022-11-30 19:37:45
,wl-rdm,157,480744,0.0-8.39-0.39,1.0,157.0,,,,,,,[],,,,,,50.0,1.0,i,1.0,True,920.2999999523163,56.0,60.0,40.0,False,,274.48407725925256,[],"[768, 432]",ColorTask,79.0,40.0,,,HRV,HRV_0192,2022-11-30 19:37:45
,wl-rdm,158,483143,0.0-8.40-0.40,1.0,158.0,,,,,,,[],,,,,,62.5,0.0,i,1.0,False,1045.5,63.0,60.0,40.0,False,,298.6823556673668,[],"[768, 432]",ColorTask,78.0,41.0,,,HRV,HRV_0192,2022-11-30 19:37:45
,wl-rdm,159,485076,0.0-8.41-0.41,1.0,159.0,,,,,,,[],,,,,,53.2,1.0,i,1.0,True,635.0,39.0,60.0,40.0,False,,210.23266007277854,[],"[768, 432]",ColorTask,79.0,42.0,,,HRV,HRV_0192,2022-11-30 19:37:45
,wl-rdm,160,487276,0.0-8.42-0.42,1.0,160.0,,,,,,,[],,,,,,62.5,0.0,i,1.0,False,891.3000000119209,54.0,60.0,40.0,False,,227.47228902888557,[],"[768, 432]",ColorTask,78.0,43.0,,,HRV,HRV_0192,2022-11-30 19:37:45
,wl-rdm,161,489442,0.0-8.43-0.43,1.0,161.0,,,,,,,[],,,,,,56.4,1.0,i,1.0,True,719.3000000119209,44.0,60.0,40.0,False,,365.0100275349365,[],"[768, 432]",ColorTask,79.0,44.0,,,HRV,HRV_0192,2022-11-30 19:37:45
,wl-rdm,162,491425,0.0-8.44-0.44,1.0,162.0,,,,,,,[],,,,,,56.4,1.0,i,1.0,True,710.0,43.0,60.0,40.0,False,,207.13363381400046,[],"[768, 432]",ColorTask,80.0,45.0,,,HRV,HRV_0192,2022-11-30 19:37:45
,wl-rdm,163,493374,0.0-8.45-0.45,1.0,163.0,,,,,,,[],,,,,,56.4,1.0,i,1.0,True,572.8000000119209,35.0,60.0,40.0,False,,292.1638431722522,[],"[768, 432]",ColorTask,81.0,46.0,,,HRV,HRV_0192,2022-11-30 19:37:45
,wl-rdm,164,495457,0.0-8.46-0.46,1.0,164.0,,,,,,,[],,,,,,53.2,1.0,i,1.0,True,610.5999999642372,37.0,60.0,40.0,False,,390.27308215402593,[],"[768, 432]",ColorTask,82.0,47.0,,,HRV,HRV_0192,2022-11-30 19:37:45
,wl-rdm,165,497706,0.0-8.47-0.47,1.0,165.0,,,,,,,[],,,,,,62.5,0.0,i,1.0,False,851.1000000238419,52.0,60.0,40.0,False,,310.1201938910601,[],"[768, 432]",ColorTask,81.0,48.0,,,HRV,HRV_0192,2022-11-30 19:37:45
,wl-rdm,166,499773,0.0-8.48-0.48,1.0,166.0,,,,,,,[],,,,,,62.5,0.0,u,0.0,True,715.3000000119209,43.0,60.0,40.0,False,,297.7366118778775,[],"[768, 432]",ColorTask,82.0,49.0,,,HRV,HRV_0192,2022-11-30 19:37:45
,wl-rdm,167,502005,0.0-8.49-0.49,1.0,167.0,,,,,,,[],,,,,,73.6,0.0,u,0.0,True,864.0,52.0,60.0,40.0,False,,302.1080367834653,[],"[768, 432]",ColorTask,83.0,50.0,,,HRV,HRV_0192,2022-11-30 19:37:45
,wl-rdm,168,504221,0.0-8.50-0.50,1.0,168.0,,,,,,,[],,,,,,56.4,1.0,i,1.0,True,739.6000000238419,45.0,60.0,40.0,False,,397.41404153005885,[],"[768, 432]",ColorTask,84.0,51.0,,,HRV,HRV_0192,2022-11-30 19:37:45
,wl-rdm,169,506654,0.0-8.51-0.51,1.0,169.0,,,,,,,[],,,,,,62.5,1.0,u,0.0,False,1021.8000000119209,62.0,60.0,40.0,False,,323.5786839028425,[],"[768, 432]",ColorTask,83.0,52.0,,,HRV,HRV_0192,2022-11-30 19:37:45
,wl-rdm,170,509003,0.0-8.52-0.52,1.0,170.0,,,,,,,[],,,,,,53.2,0.0,u,0.0,True,1025.1000000238419,62.0,60.0,40.0,False,,248.92145229153778,[],"[768, 432]",ColorTask,84.0,53.0,,,HRV,HRV_0192,2022-11-30 19:37:45
,wl-rdm,171,511136,0.0-8.53-0.53,1.0,171.0,,,,,,,[],,,,,,62.5,0.0,u,0.0,True,803.2999999523163,49.0,60.0,40.0,False,,246.90961278025742,[],"[768, 432]",ColorTask,85.0,54.0,,,HRV,HRV_0192,2022-11-30 19:37:45
,wl-rdm,172,513219,0.0-8.54-0.54,1.0,172.0,,,,,,,[],,,,,,87.9,1.0,i,1.0,True,751.1999999880791,46.0,60.0,40.0,False,,242.15910846828737,[],"[768, 432]",ColorTask,86.0,55.0,,,HRV,HRV_0192,2022-11-30 19:37:45
,wl-rdm,173,515536,0.0-8.55-0.55,1.0,173.0,,,,,,,[],,,,,,53.2,1.0,u,0.0,False,954.5,58.0,60.0,40.0,False,,281.7186322345693,[],"[768, 432]",ColorTask,85.0,56.0,,,HRV,HRV_0192,2022-11-30 19:37:45
,wl-rdm,174,517885,0.0-8.56-0.56,1.0,174.0,,,,,,,[],,,,,,53.2,1.0,u,0.0,False,1007.4000000357628,61.0,60.0,40.0,False,,258.44532138138663,[],"[768, 432]",ColorTask,84.0,57.0,,,HRV,HRV_0192,2022-11-30 19:37:45
,wl-rdm,175,519968,0.0-8.57-0.57,1.0,175.0,,,,,,,[],,,,,,87.9,1.0,i,1.0,True,661.7999999523163,40.0,60.0,40.0,False,,363.40276522204067,[],"[768, 432]",ColorTask,85.0,58.0,,,HRV,HRV_0192,2022-11-30 19:37:45
,wl-rdm,176,522118,0.0-8.58-0.58,1.0,176.0,,,,,,,[],,,,,,56.4,1.0,i,1.0,True,807.8999999761581,49.0,60.0,40.0,False,,257.0817861987529,[],"[768, 432]",ColorTask,86.0,59.0,,,HRV,HRV_0192,2022-11-30 19:37:45
,wl-rdm,177,524400,0.0-8.59-0.59,1.0,177.0,,,,,,,[],,,,,,87.9,0.0,u,0.0,True,845.0,51.0,60.0,40.0,False,,372.3659618509652,[],"[768, 432]",ColorTask,87.0,60.0,,,HRV,HRV_0192,2022-11-30 19:37:45
,wl-rdm,178,527016,0.0-8.60-0.60,1.0,178.0,,,,,,,[],,,,,,53.2,0.0,u,0.0,True,1278.3999999761581,77.0,60.0,40.0,False,,250.9799729315095,[],"[768, 432]",ColorTask,88.0,61.0,,,HRV,HRV_0192,2022-11-30 19:37:45
,wl-rdm,179,529299,0.0-8.61-0.61,1.0,179.0,,,,,,,[],,,,,,56.4,0.0,u,0.0,True,892.3999999761581,54.0,60.0,40.0,False,,306.35182942111845,[],"[768, 432]",ColorTask,89.0,62.0,,,HRV,HRV_0192,2022-11-30 19:37:45
,wl-rdm,180,531582,0.0-8.62-0.62,1.0,180.0,,,,,,,[],,,,,,50.0,1.0,u,0.0,False,863.6999999880791,52.0,60.0,40.0,False,,359.4281497455443,[],"[768, 432]",ColorTask,88.0,63.0,,,HRV,HRV_0192,2022-11-30 19:37:45
,wl-rdm,181,533698,0.0-8.63-0.63,1.0,181.0,,,,,,,[],,,,,,53.2,0.0,u,0.0,True,710.5999999642372,43.0,60.0,40.0,False,,317.48462118151787,[],"[768, 432]",ColorTask,89.0,64.0,,,HRV,HRV_0192,2022-11-30 19:37:45
,wl-rdm,182,535997,0.0-8.64-0.64,1.0,182.0,,,,,,,[],,,,,,53.2,0.0,i,1.0,False,915.6999999880791,55.0,60.0,40.0,False,,328.5560997827438,[],"[768, 432]",ColorTask,88.0,65.0,,,HRV,HRV_0192,2022-11-30 19:37:45
,wl-rdm,183,538030,0.0-8.65-0.65,1.0,183.0,,,,,,,[],,,,,,87.9,0.0,u,0.0,True,680.4999999403954,41.0,60.0,40.0,False,,299.8153897419794,[],"[768, 432]",ColorTask,89.0,66.0,,,HRV,HRV_0192,2022-11-30 19:37:45
,wl-rdm,184,540196,0.0-8.66-0.66,1.0,184.0,,,,,,,[],,,,,,87.9,1.0,i,1.0,True,724.8999999761581,44.0,60.0,40.0,False,,364.6192155154956,[],"[768, 432]",ColorTask,90.0,67.0,,,HRV,HRV_0192,2022-11-30 19:37:45
,wl-rdm,185,542362,0.0-8.67-0.67,1.0,185.0,,,,,,,[],,,,,,73.6,0.0,u,0.0,True,785.1000000238419,47.0,60.0,40.0,False,,286.8803065958153,[],"[768, 432]",ColorTask,91.0,68.0,,,HRV,HRV_0192,2022-11-30 19:37:45
,wl-rdm,186,544945,0.0-8.68-0.68,1.0,186.0,,,,,,,[],,,,,,56.4,1.0,u,0.0,False,1161.5,70.0,60.0,40.0,False,,350.7047756366974,[],"[768, 432]",ColorTask,90.0,69.0,,,HRV,HRV_0192,2022-11-30 19:37:45
,wl-rdm,187,547144,0.0-8.69-0.69,1.0,187.0,,,,,,,[],,,,,,87.9,1.0,i,1.0,True,761.0,46.0,60.0,40.0,False,,353.74456091205525,[],"[768, 432]",ColorTask,91.0,70.0,,,HRV,HRV_0192,2022-11-30 19:37:45
,wl-rdm,188,549644,0.0-8.70-0.70,1.0,188.0,,,,,,,[],,,,,,62.5,1.0,i,1.0,True,1101.300000011921,67.0,60.0,40.0,False,,308.438738021152,[],"[768, 432]",ColorTask,92.0,71.0,,,HRV,HRV_0192,2022-11-30 19:37:45
,wl-rdm,189,551760,0.0-8.71-0.71,1.0,189.0,,,,,,,[],,,,,,73.6,1.0,i,1.0,True,637.5000000596046,39.0,60.0,40.0,False,,392.5525056232618,[],"[768, 432]",ColorTask,93.0,72.0,,,HRV,HRV_0192,2022-11-30 19:37:45
,wl-rdm,190,553676,0.0-8.72-0.72,1.0,190.0,,,,,,,[],,,,,,56.4,0.0,i,1.0,False,534.3000000119209,33.0,60.0,40.0,False,,290.78399482709546,[],"[768, 432]",ColorTask,92.0,73.0,,,HRV,HRV_0192,2022-11-30 19:37:45
,wl-rdm,191,555709,0.0-8.73-0.73,1.0,191.0,,,,,,,[],,,,,,56.4,0.0,i,1.0,False,618.2000000476837,38.0,60.0,40.0,False,,328.6717574676826,[],"[768, 432]",ColorTask,91.0,74.0,,,HRV,HRV_0192,2022-11-30 19:37:45
,wl-rdm,192,557675,0.0-8.74-0.74,1.0,192.0,,,,,,,[],,,,,,73.6,0.0,u,0.0,True,634.9000000357628,39.0,60.0,40.0,False,,234.82101926658015,[],"[768, 432]",ColorTask,92.0,75.0,,,HRV,HRV_0192,2022-11-30 19:37:45
,wl-rdm,193,559974,0.0-8.75-0.75,1.0,193.0,,,,,,,[],,,,,,53.2,1.0,i,1.0,True,964.8000000119209,58.0,60.0,40.0,False,,263.61561028126556,[],"[768, 432]",ColorTask,93.0,76.0,,,HRV,HRV_0192,2022-11-30 19:37:45
,wl-rdm,194,561924,0.0-8.76-0.76,1.0,194.0,,,,,,,[],,,,,,56.4,0.0,u,0.0,True,666.1000000238419,40.0,60.0,40.0,False,,205.93786915932077,[],"[768, 432]",ColorTask,94.0,77.0,,,HRV,HRV_0192,2022-11-30 19:37:45
,wl-rdm,195,563823,0.0-8.77-0.77,1.0,195.0,,,,,,,[],,,,,,62.5,1.0,i,1.0,True,604.6000000238419,37.0,60.0,40.0,False,,208.14641429458672,[],"[768, 432]",ColorTask,95.0,78.0,,,HRV,HRV_0192,2022-11-30 19:37:45
,wl-rdm,196,565906,0.0-8.78-0.78,1.0,196.0,,,,,,,[],,,,,,56.4,1.0,i,1.0,True,760.6000000238419,46.0,60.0,40.0,False,,237.8322056792042,[],"[768, 432]",ColorTask,96.0,79.0,,,HRV,HRV_0192,2022-11-30 19:37:45
,wl-rdm,197,567822,0.0-8.79-0.79,1.0,197.0,,,,,,,[],,,,,,50.0,1.0,i,1.0,True,562.8000000715256,34.0,60.0,40.0,False,,272.1897563803063,[],"[768, 432]",ColorTask,97.0,80.0,,,HRV,HRV_0192,2022-11-30 19:37:45
,wl-rdm,198,569756,0.0-8.80-0.80,1.0,198.0,,,,,,,[],,,,,,50.0,1.0,i,1.0,True,618.0,38.0,60.0,40.0,False,,237.01040182178593,[],"[768, 432]",ColorTask,98.0,81.0,,,HRV,HRV_0192,2022-11-30 19:37:45
,wl-rdm,199,571805,0.0-8.81-0.81,1.0,199.0,,,,,,,[],,,,,,62.5,1.0,i,1.0,True,590.4999999403954,36.0,60.0,40.0,False,,387.7577457899516,[],"[768, 432]",ColorTask,99.0,82.0,,,HRV,HRV_0192,2022-11-30 19:37:45
,wl-rdm,200,573721,0.0-8.82-0.82,1.0,200.0,,,,,,,[],,,,,,62.5,1.0,i,1.0,True,577.4000000357628,35.0,60.0,40.0,False,,251.93952968983797,[],"[768, 432]",ColorTask,100.0,83.0,,,HRV,HRV_0192,2022-11-30 19:37:45
,wl-rdm,201,575670,0.0-8.83-0.83,1.0,201.0,,,,,,,[],,,,,,53.2,1.0,i,1.0,True,547.3000000119209,33.0,60.0,40.0,False,,319.8869452215963,[],"[768, 432]",ColorTask,101.0,84.0,,,HRV,HRV_0192,2022-11-30 19:37:45
,wl-rdm,202,577702,0.0-8.84-0.84,1.0,202.0,,,,,,,[],,,,,,50.0,0.0,i,1.0,False,745.8999999761581,45.0,60.0,40.0,False,,206.44067881961772,[],"[768, 432]",ColorTask,100.0,85.0,,,HRV,HRV_0192,2022-11-30 19:37:45
,wl-rdm,203,579902,0.0-8.85-0.85,1.0,203.0,,,,,,,[],,,,,,50.0,0.0,u,0.0,True,812.5999999642372,49.0,60.0,40.0,False,,328.7493658960329,[],"[768, 432]",ColorTask,101.0,86.0,,,HRV,HRV_0192,2022-11-30 19:37:45
,wl-rdm,204,581935,0.0-8.86-0.86,1.0,204.0,,,,,,,[],,,,,,73.6,0.0,u,0.0,True,663.1999999880791,40.0,60.0,40.0,False,,289.66288559993154,[],"[768, 432]",ColorTask,102.0,87.0,,,HRV,HRV_0192,2022-11-30 19:37:45
,wl-rdm,205,583918,0.0-8.87-0.87,1.0,205.0,,,,,,,[],,,,,,56.4,0.0,i,1.0,False,572.5,35.0,60.0,40.0,False,,317.85569040276346,[],"[768, 432]",ColorTask,101.0,88.0,,,HRV,HRV_0192,2022-11-30 19:37:45
,wl-rdm,206,585800,0.0-8.88-0.88,1.0,206.0,,,,,,,[],,,,,,87.9,0.0,u,0.0,True,569.2000000476837,35.0,60.0,40.0,False,,246.77005853673995,[],"[768, 432]",ColorTask,102.0,89.0,,,HRV,HRV_0192,2022-11-30 19:37:45
,wl-rdm,207,587816,0.0-8.89-0.89,1.0,207.0,,,,,,,[],,,,,,73.6,1.0,i,1.0,True,645.5000000596046,39.0,60.0,40.0,False,,296.0721640629519,[],"[768, 432]",ColorTask,103.0,90.0,,,HRV,HRV_0192,2022-11-30 19:37:45
,wl-rdm,208,589783,0.0-8.90-0.90,1.0,208.0,,,,,,,[],,,,,,50.0,0.0,i,1.0,False,644.7999999523163,39.0,60.0,40.0,False,,256.83764864777226,[],"[768, 432]",ColorTask,102.0,91.0,,,HRV,HRV_0192,2022-11-30 19:37:45
,wl-rdm,209,592099,0.0-8.91-0.91,1.0,209.0,,,,,,,[],,,,,,73.6,0.0,i,1.0,False,982.6999999880791,59.0,60.0,40.0,False,,267.3656109042942,[],"[768, 432]",ColorTask,101.0,92.0,,,HRV,HRV_0192,2022-11-30 19:37:45
,wl-rdm,210,594232,0.0-8.92-0.92,1.0,210.0,,,,,,,[],,,,,,56.4,0.0,i,1.0,False,811.1000000238419,49.0,60.0,40.0,False,,260.39431083142006,[],"[768, 432]",ColorTask,100.0,93.0,,,HRV,HRV_0192,2022-11-30 19:37:45
,wl-rdm,211,596648,0.0-8.93-0.93,1.0,211.0,,,,,,,[],,,,,,50.0,0.0,i,1.0,False,1053.300000011921,64.0,60.0,40.0,False,,282.92281077638415,[],"[768, 432]",ColorTask,99.0,94.0,,,HRV,HRV_0192,2022-11-30 19:37:45
,wl-rdm,212,598881,0.0-8.94-0.94,1.0,212.0,,,,,,,[],,,,,,73.6,0.0,u,0.0,True,869.7999999523163,53.0,60.0,40.0,False,,273.61687625489697,[],"[768, 432]",ColorTask,100.0,95.0,,,HRV,HRV_0192,2022-11-30 19:37:45
,wl-rdm,213,600897,0.0-8.95-0.95,1.0,213.0,,,,,,,[],,,,,,87.9,0.0,u,0.0,True,606.5999999642372,37.0,60.0,40.0,False,,335.3011513767425,[],"[768, 432]",ColorTask,101.0,96.0,,,HRV,HRV_0192,2022-11-30 19:37:45
,wl-rdm,214,602813,0.0-8.96-0.96,1.0,214.0,,,,,,,[],,,,,,73.6,0.0,u,0.0,True,606.4000000357628,37.0,60.0,40.0,False,,215.1892527298034,[],"[768, 432]",ColorTask,102.0,97.0,,,HRV,HRV_0192,2022-11-30 19:37:45
,wl-rdm,215,604863,0.0-8.97-0.97,1.0,215.0,,,,,,,[],,,,,,62.5,0.0,u,0.0,True,696.1000000238419,42.0,60.0,40.0,False,,280.16270715328517,[],"[768, 432]",ColorTask,103.0,98.0,,,HRV,HRV_0192,2022-11-30 19:37:45
,wl-rdm,216,607079,0.0-8.98-0.98,1.0,216.0,,,,,,,[],,,,,,56.4,1.0,i,1.0,True,804.4000000357628,49.0,60.0,40.0,False,,317.82251052458304,[],"[768, 432]",ColorTask,104.0,99.0,,,HRV,HRV_0192,2022-11-30 19:37:45
,wl-rdm,217,609494,0.0-8.99-0.99,1.0,217.0,,,,,,,[],,,,,,56.4,0.0,u,0.0,True,1004.6999999880791,61.0,60.0,40.0,False,,326.20453902646335,[],"[768, 432]",ColorTask,105.0,100.0,,,HRV,HRV_0192,2022-11-30 19:37:45
,wl-rdm,218,611411,0.0-8.100-0.100,1.0,218.0,,,,,,,[],,,,,,87.9,1.0,i,1.0,True,632.6999999880791,38.0,60.0,40.0,False,,223.82509037220524,[],"[768, 432]",ColorTask,106.0,101.0,,,HRV,HRV_0192,2022-11-30 19:37:45
,wl-rdm,219,613561,0.0-8.101-0.101,1.0,219.0,,,,,,,[],,,,,,87.9,0.0,u,0.0,True,727.5999999642372,44.0,60.0,40.0,False,,359.3138472933025,[],"[768, 432]",ColorTask,107.0,102.0,,,HRV,HRV_0192,2022-11-30 19:37:45
,wl-rdm,220,615943,0.0-8.102-0.102,1.0,220.0,,,,,,,[],,,,,,53.2,0.0,i,1.0,False,945.5999999642372,57.0,60.0,40.0,False,,354.21978707093933,[],"[768, 432]",ColorTask,106.0,103.0,,,HRV,HRV_0192,2022-11-30 19:37:45
,wl-rdm,221,617959,0.0-8.103-0.103,1.0,221.0,,,,,,,[],,,,,,73.6,1.0,u,0.0,False,578.8999999761581,35.0,60.0,40.0,False,,370.93406482625807,[],"[768, 432]",ColorTask,105.0,104.0,,,HRV,HRV_0192,2022-11-30 19:37:45
,wl-rdm,222,620143,0.0-8.104-0.104,1.0,222.0,,,,,,,[],,,,,,56.4,0.0,u,0.0,True,796.5,48.0,60.0,40.0,False,,317.10184899498574,[],"[768, 432]",ColorTask,106.0,105.0,,,HRV,HRV_0192,2022-11-30 19:37:45
,wl-rdm,223,622174,0.0-8.105-0.105,1.0,223.0,,,,,,,[],,,,,,87.9,1.0,i,1.0,True,678.4000000357628,41.0,60.0,40.0,False,,292.5463027937113,[],"[768, 432]",ColorTask,107.0,106.0,,,HRV,HRV_0192,2022-11-30 19:37:45
,wl-rdm,224,624441,0.0-8.106-0.106,1.0,224.0,,,,,,,[],,,,,,53.2,0.0,i,1.0,False,969.1000000238419,59.0,60.0,40.0,False,,214.67897590902845,[],"[768, 432]",ColorTask,106.0,107.0,,,HRV,HRV_0192,2022-11-30 19:37:45
,wl-rdm,225,626441,0.0-8.107-0.107,1.0,225.0,,,,,,,[],,,,,,50.0,0.0,i,1.0,False,693.5999999642372,42.0,60.0,40.0,False,,239.29114006271527,[],"[768, 432]",ColorTask,105.0,108.0,,,HRV,HRV_0192,2022-11-30 19:37:45
,wl-html-button-response,226,631539,0.0-9.0-0.0,,,,,,,,,,5093.5,,0,,,,,,,,,,,,,,,,,,,,<h3>End of this session. Thank you!</h3><br>,['Close window'],HRV,HRV_0192,2022-11-30 19:37:45
