trialN,stimuli,trialStartTime,trialStartTime_UNIX,stimulus1,stimulus2,stimulus1Bid,stimulus2Bid,delta,selected,rt,rt_UNIX,rt_perfnow,receivedResponse,rsp,trialEndTime,trialDuration,trialEndTime_UNIX,trialDuration_UNIX,exp,subjectId,date
0,"[{'imgObject': {}, 'id': 'salad w chicken', 'src': '/static/foodstim60/salad w chicken.jpg', 'key': 'u', 'origWidth': 411, 'origHeight': 411, 'width': 411, 'height': 411, 'widthPercent': 0.45, 'rescaleHeight': False, 'trialN': 0, 'loaded': True, 'loadedTime': 12197.100000023842, 'positionName': 'LEFT', 'positionCoords': [80.52, 82.5], 'bid': 7.83}, {'imgObject': {}, 'id': 'cherries', 'src': '/static/foodstim60/cherries.jpg', 'key': 'i', 'origWidth': 410, 'origHeight': 411, 'width': 410, 'height': 411, 'widthPercent': 0.45, 'rescaleHeight': False, 'trialN': 0, 'loaded': True, 'loadedTime': 12210.100000023842, 'positionName': 'RIGHT', 'positionCoords': [532.48, 82.5], 'bid': 7.46}]",13784.700000047684,1669835257073,salad w chicken,cherries,7.83,7.46,-0.3700000000000001,salad w chicken,2454.2999999523163,2455,2455.699999988079,True,u,16758.700000047684,2974.0,1669835260047,2974,HRV,HRV_0192,2022-11-30 19:12:12
1,"[{'imgObject': {}, 'id': 'baked potato', 'src': '/static/foodstim60/baked potato.jpg', 'key': 'u', 'origWidth': 409, 'origHeight': 410, 'width': 409, 'height': 410, 'widthPercent': 0.45, 'rescaleHeight': False, 'trialN': 1, 'loaded': True, 'loadedTime': 12320, 'positionName': 'LEFT', 'positionCoords': [82.52, 83], 'bid': 2.48}, {'imgObject': {}, 'id': 'cherry tomato', 'src': '/static/foodstim60/cherry tomato.jpg', 'key': 'i', 'origWidth': 410, 'origHeight': 410, 'width': 410, 'height': 410, 'widthPercent': 0.45, 'rescaleHeight': False, 'trialN': 1, 'loaded': True, 'loadedTime': 12331.700000047684, 'positionName': 'RIGHT', 'positionCoords': [532.48, 83], 'bid': 1.21}]",16759.100000023842,1669835260047,baked potato,cherry tomato,2.48,1.21,-1.27,baked potato,1039.5,1040,1040.0,True,u,18315.600000023842,1556.5,1669835261604,1557,HRV,HRV_0192,2022-11-30 19:12:12
2,"[{'imgObject': {}, 'id': 'turkey sandwich', 'src': '/static/foodstim60/turkey sandwich.jpg', 'key': 'u', 'origWidth': 409, 'origHeight': 409, 'width': 409, 'height': 409, 'widthPercent': 0.45, 'rescaleHeight': False, 'trialN': 2, 'loaded': True, 'loadedTime': 12314.600000023842, 'positionName': 'LEFT', 'positionCoords': [82.52, 83.5], 'bid': 8.08}, {'imgObject': {}, 'id': 'kiwi', 'src': '/static/foodstim60/kiwi.jpg', 'key': 'i', 'origWidth': 410, 'origHeight': 410, 'width': 410, 'height': 410, 'widthPercent': 0.45, 'rescaleHeight': False, 'trialN': 2, 'loaded': True, 'loadedTime': 12212.900000035763, 'positionName': 'RIGHT', 'positionCoords': [532.48, 83], 'bid': 7.85}]",18315.80000001192,1669835261604,turkey sandwich,kiwi,8.08,7.85,-0.23000000000000043,turkey sandwich,1051.300000011921,1052,1051.800000011921,True,u,19877.100000023842,1561.300000011921,1669835263165,1561,HRV,HRV_0192,2022-11-30 19:12:12
3,"[{'imgObject': {}, 'id': 'rigatoni', 'src': '/static/foodstim60/rigatoni.jpg', 'key': 'u', 'origWidth': 411, 'origHeight': 411, 'width': 411, 'height': 411, 'widthPercent': 0.45, 'rescaleHeight': False, 'trialN': 3, 'loaded': True, 'loadedTime': 12541.400000035763, 'positionName': 'LEFT', 'positionCoords': [80.52, 82.5], 'bid': 2.36}, {'imgObject': {}, 'id': 'froot loops w milk', 'src': '/static/foodstim60/froot loops w milk.jpg', 'key': 'i', 'origWidth': 410, 'origHeight': 410, 'width': 410, 'height': 410, 'widthPercent': 0.45, 'rescaleHeight': False, 'trialN': 3, 'loaded': True, 'loadedTime': 12544.100000023842, 'positionName': 'RIGHT', 'positionCoords': [532.48, 83], 'bid': 2.34}]",19877.400000035763,1669835263165,rigatoni,froot loops w milk,2.36,2.34,-0.020000000000000018,rigatoni,1385.199999988079,1386,1385.699999988079,True,u,21768.900000035763,1891.5,1669835265057,1892,HRV,HRV_0192,2022-11-30 19:12:12
4,"[{'imgObject': {}, 'id': 'shreddedwheatwithmilk', 'src': '/static/foodstim60/shreddedwheatwithmilk.jpg', 'key': 'u', 'origWidth': 410, 'origHeight': 410, 'width': 410, 'height': 410, 'widthPercent': 0.45, 'rescaleHeight': False, 'trialN': 4, 'loaded': True, 'loadedTime': 12553.700000047684, 'positionName': 'LEFT', 'positionCoords': [81.52, 83], 'bid': 3.26}, {'imgObject': {}, 'id': 'luckycharms', 'src': '/static/foodstim60/luckycharms.jpg', 'key': 'i', 'origWidth': 410, 'origHeight': 409, 'width': 410, 'height': 409, 'widthPercent': 0.45, 'rescaleHeight': False, 'trialN': 4, 'loaded': True, 'loadedTime': 12637, 'positionName': 'RIGHT', 'positionCoords': [532.48, 83.5], 'bid': 3.43}]",21769.0,1669835265057,shreddedwheatwithmilk,luckycharms,3.26,3.43,0.17000000000000037,luckycharms,1029.6000000238419,1030,1030.1000000238419,True,i,23313.30000001192,1544.300000011921,1669835266601,1544,HRV,HRV_0192,2022-11-30 19:12:12
5,"[{'imgObject': {}, 'id': 'popsicles', 'src': '/static/foodstim60/popsicles.jpg', 'key': 'u', 'origWidth': 410, 'origHeight': 410, 'width': 410, 'height': 410, 'widthPercent': 0.45, 'rescaleHeight': False, 'trialN': 5, 'loaded': True, 'loadedTime': 12559, 'positionName': 'LEFT', 'positionCoords': [81.52, 83], 'bid': 8.16}, {'imgObject': {}, 'id': 'fruitsalad', 'src': '/static/foodstim60/fruitsalad.jpg', 'key': 'i', 'origWidth': 410, 'origHeight': 410, 'width': 410, 'height': 410, 'widthPercent': 0.45, 'rescaleHeight': False, 'trialN': 5, 'loaded': True, 'loadedTime': 12564.600000023842, 'positionName': 'RIGHT', 'positionCoords': [532.48, 83], 'bid': 8.35}]",23313.700000047684,1669835266602,popsicles,fruitsalad,8.16,8.35,0.1899999999999995,fruitsalad,1013.1999999880791,1014,1014.0999999642372,True,i,24839.200000047684,1525.5,1669835268127,1525,HRV,HRV_0192,2022-11-30 19:12:12
6,"[{'imgObject': {}, 'id': 'salad w chicken', 'src': '/static/foodstim60/salad w chicken.jpg', 'key': 'u', 'origWidth': 411, 'origHeight': 411, 'width': 411, 'height': 411, 'widthPercent': 0.45, 'rescaleHeight': False, 'trialN': 6, 'loaded': True, 'loadedTime': 12197.200000047684, 'positionName': 'LEFT', 'positionCoords': [80.52, 82.5], 'bid': 7.83}, {'imgObject': {}, 'id': 'Grapes', 'src': '/static/foodstim60/Grapes.jpg', 'key': 'i', 'origWidth': 411, 'origHeight': 411, 'width': 411, 'height': 411, 'widthPercent': 0.45, 'rescaleHeight': False, 'trialN': 6, 'loaded': True, 'loadedTime': 12740.700000047684, 'positionName': 'RIGHT', 'positionCoords': [532.48, 82.5], 'bid': 7.73}]",24839.600000023842,1669835268128,salad w chicken,Grapes,7.83,7.73,-0.09999999999999964,salad w chicken,1358.6000000238419,1359,1359.0,True,u,26710.700000047684,1871.1000000238419,1669835269999,1871,HRV,HRV_0192,2022-11-30 19:12:12
7,"[{'imgObject': {}, 'id': 'fried eggs', 'src': '/static/foodstim60/fried eggs.jpg', 'key': 'u', 'origWidth': 410, 'origHeight': 410, 'width': 410, 'height': 410, 'widthPercent': 0.45, 'rescaleHeight': False, 'trialN': 7, 'loaded': True, 'loadedTime': 12726.400000035763, 'positionName': 'LEFT', 'positionCoords': [81.52, 83], 'bid': 6.21}, {'imgObject': {}, 'id': 'seaweed', 'src': '/static/foodstim60/seaweed.jpg', 'key': 'i', 'origWidth': 410, 'origHeight': 410, 'width': 410, 'height': 410, 'widthPercent': 0.45, 'rescaleHeight': False, 'trialN': 7, 'loaded': True, 'loadedTime': 12755, 'positionName': 'RIGHT', 'positionCoords': [532.48, 83], 'bid': 0.87}]",26711.0,1669835269999,fried eggs,seaweed,6.21,0.87,-5.34,fried eggs,887.0,887,887.4000000357628,True,u,28110.5,1399.5,1669835271398,1399,HRV,HRV_0192,2022-11-30 19:12:12
8,"[{'imgObject': {}, 'id': 'chickenfingers', 'src': '/static/foodstim60/chickenfingers.jpg', 'key': 'u', 'origWidth': 410, 'origHeight': 410, 'width': 410, 'height': 410, 'widthPercent': 0.45, 'rescaleHeight': False, 'trialN': 8, 'loaded': True, 'loadedTime': 12746.300000011921, 'positionName': 'LEFT', 'positionCoords': [81.52, 83], 'bid': 5}, {'imgObject': {}, 'id': 'hotdog w must', 'src': '/static/foodstim60/hotdog w must.jpg', 'key': 'i', 'origWidth': 409, 'origHeight': 409, 'width': 409, 'height': 409, 'widthPercent': 0.45, 'rescaleHeight': False, 'trialN': 8, 'loaded': True, 'loadedTime': 12728.700000047684, 'positionName': 'RIGHT', 'positionCoords': [532.48, 83.5], 'bid': 0.03}]",28110.80000001192,1669835271399,chickenfingers,hotdog w must,5.0,0.03,-4.97,chickenfingers,816.5,817,817.0,True,u,29436.700000047684,1325.9000000357628,1669835272725,1326,HRV,HRV_0192,2022-11-30 19:12:12
9,"[{'imgObject': {}, 'id': 'cheerios', 'src': '/static/foodstim60/cheerios.jpg', 'key': 'u', 'origWidth': 409, 'origHeight': 410, 'width': 409, 'height': 410, 'widthPercent': 0.45, 'rescaleHeight': False, 'trialN': 9, 'loaded': True, 'loadedTime': 12844.600000023842, 'positionName': 'LEFT', 'positionCoords': [82.52, 83], 'bid': 2.32}, {'imgObject': {}, 'id': 'roastedpotatoes', 'src': '/static/foodstim60/roastedpotatoes.jpg', 'key': 'i', 'origWidth': 409, 'origHeight': 410, 'width': 409, 'height': 410, 'widthPercent': 0.45, 'rescaleHeight': False, 'trialN': 9, 'loaded': True, 'loadedTime': 12879.400000035763, 'positionName': 'RIGHT', 'positionCoords': [532.48, 83], 'bid': 2.03}]",29437.100000023842,1669835272725,cheerios,roastedpotatoes,2.32,2.03,-0.29000000000000004,roastedpotatoes,1066.300000011921,1067,1066.800000011921,True,i,31012.400000035763,1575.300000011921,1669835274300,1575,HRV,HRV_0192,2022-11-30 19:12:12
10,"[{'imgObject': {}, 'id': 'cheerios', 'src': '/static/foodstim60/cheerios.jpg', 'key': 'u', 'origWidth': 409, 'origHeight': 410, 'width': 409, 'height': 410, 'widthPercent': 0.45, 'rescaleHeight': False, 'trialN': 10, 'loaded': True, 'loadedTime': 12844.900000035763, 'positionName': 'LEFT', 'positionCoords': [82.52, 83], 'bid': 2.32}, {'imgObject': {}, 'id': 'burrito', 'src': '/static/foodstim60/burrito.jpg', 'key': 'i', 'origWidth': 410, 'origHeight': 410, 'width': 410, 'height': 410, 'widthPercent': 0.45, 'rescaleHeight': False, 'trialN': 10, 'loaded': True, 'loadedTime': 12882.100000023842, 'positionName': 'RIGHT', 'positionCoords': [532.48, 83], 'bid': 0.93}]",31012.600000023842,1669835274301,cheerios,burrito,2.32,0.93,-1.3899999999999997,burrito,1010.6000000238419,1011,1011.0,True,i,32540.80000001192,1528.199999988079,1669835275829,1528,HRV,HRV_0192,2022-11-30 19:12:12
11,"[{'imgObject': {}, 'id': 'banana', 'src': '/static/foodstim60/banana.jpg', 'key': 'u', 'origWidth': 410, 'origHeight': 410, 'width': 410, 'height': 410, 'widthPercent': 0.45, 'rescaleHeight': False, 'trialN': 11, 'loaded': True, 'loadedTime': 12854.200000047684, 'positionName': 'LEFT', 'positionCoords': [81.52, 83], 'bid': 4.92}, {'imgObject': {}, 'id': 'cocktailshrimp', 'src': '/static/foodstim60/cocktailshrimp.jpg', 'key': 'i', 'origWidth': 410, 'origHeight': 410, 'width': 410, 'height': 410, 'widthPercent': 0.45, 'rescaleHeight': False, 'trialN': 11, 'loaded': True, 'loadedTime': 12876.400000035763, 'positionName': 'RIGHT', 'positionCoords': [532.48, 83], 'bid': 6.95}]",32541.0,1669835275829,banana,cocktailshrimp,4.92,6.95,2.0300000000000002,cocktailshrimp,1449.1000000238419,1450,1449.5,True,i,34506.60000002384,1965.6000000238419,1669835277795,1966,HRV,HRV_0192,2022-11-30 19:12:12
12,"[{'imgObject': {}, 'id': 'chicken nuggets2', 'src': '/static/foodstim60/chicken nuggets2.jpg', 'key': 'u', 'origWidth': 410, 'origHeight': 409, 'width': 410, 'height': 409, 'widthPercent': 0.45, 'rescaleHeight': False, 'trialN': 12, 'loaded': True, 'loadedTime': 12973.800000011921, 'positionName': 'LEFT', 'positionCoords': [81.52, 83.5], 'bid': 1.05}, {'imgObject': {}, 'id': 'luckycharms', 'src': '/static/foodstim60/luckycharms.jpg', 'key': 'i', 'origWidth': 410, 'origHeight': 409, 'width': 410, 'height': 409, 'widthPercent': 0.45, 'rescaleHeight': False, 'trialN': 12, 'loaded': True, 'loadedTime': 12637.300000011921, 'positionName': 'RIGHT', 'positionCoords': [532.48, 83.5], 'bid': 3.43}]",34506.80000001192,1669835277795,chicken nuggets2,luckycharms,1.05,3.43,2.38,luckycharms,980.1999999880791,980,980.6000000238419,True,i,35998.700000047684,1491.9000000357628,1669835279287,1492,HRV,HRV_0192,2022-11-30 19:12:12
13,"[{'imgObject': {}, 'id': 'fruitsalad', 'src': '/static/foodstim60/fruitsalad.jpg', 'key': 'u', 'origWidth': 410, 'origHeight': 410, 'width': 410, 'height': 410, 'widthPercent': 0.45, 'rescaleHeight': False, 'trialN': 13, 'loaded': True, 'loadedTime': 12566.800000011921, 'positionName': 'LEFT', 'positionCoords': [81.52, 83], 'bid': 8.35}, {'imgObject': {}, 'id': 'cocktailshrimp', 'src': '/static/foodstim60/cocktailshrimp.jpg', 'key': 'i', 'origWidth': 410, 'origHeight': 410, 'width': 410, 'height': 410, 'widthPercent': 0.45, 'rescaleHeight': False, 'trialN': 13, 'loaded': True, 'loadedTime': 12876.900000035763, 'positionName': 'RIGHT', 'positionCoords': [532.48, 83], 'bid': 6.95}]",35999.10000002384,1669835279287,fruitsalad,cocktailshrimp,8.35,6.95,-1.3999999999999995,fruitsalad,1087.699999988079,1088,1088.0,True,u,37593.10000002384,1594.0,1669835280881,1594,HRV,HRV_0192,2022-11-30 19:12:12
14,"[{'imgObject': {}, 'id': 'raisin bran w milk', 'src': '/static/foodstim60/raisin bran w milk.jpg', 'key': 'u', 'origWidth': 411, 'origHeight': 411, 'width': 411, 'height': 411, 'widthPercent': 0.45, 'rescaleHeight': False, 'trialN': 14, 'loaded': True, 'loadedTime': 13035.600000023842, 'positionName': 'LEFT', 'positionCoords': [80.52, 82.5], 'bid': 4.94}, {'imgObject': {}, 'id': 'orange slices', 'src': '/static/foodstim60/orange slices.jpg', 'key': 'i', 'origWidth': 409, 'origHeight': 410, 'width': 409, 'height': 410, 'widthPercent': 0.45, 'rescaleHeight': False, 'trialN': 14, 'loaded': True, 'loadedTime': 13146.800000011921, 'positionName': 'RIGHT', 'positionCoords': [532.48, 83], 'bid': 6.5600000000000005}]",37593.30000001192,1669835280881,raisin bran w milk,orange slices,4.94,6.5600000000000005,1.62,orange slices,829.6000000238419,830,830.1999999880791,True,i,38936.200000047684,1342.9000000357628,1669835282224,1343,HRV,HRV_0192,2022-11-30 19:12:12
15,"[{'imgObject': {}, 'id': 'rigatoni and sauce', 'src': '/static/foodstim60/rigatoni and sauce.jpg', 'key': 'u', 'origWidth': 410, 'origHeight': 411, 'width': 410, 'height': 411, 'widthPercent': 0.45, 'rescaleHeight': False, 'trialN': 15, 'loaded': True, 'loadedTime': 13144.200000047684, 'positionName': 'LEFT', 'positionCoords': [81.52, 82.5], 'bid': 7.4}, {'imgObject': {}, 'id': 'turkeysandwich', 'src': '/static/foodstim60/turkeysandwich.jpg', 'key': 'i', 'origWidth': 409, 'origHeight': 409, 'width': 409, 'height': 409, 'widthPercent': 0.45, 'rescaleHeight': False, 'trialN': 15, 'loaded': True, 'loadedTime': 13050.900000035763, 'positionName': 'RIGHT', 'positionCoords': [532.48, 83.5], 'bid': 8.63}]",38936.40000003576,1669835282224,rigatoni and sauce,turkeysandwich,7.4,8.63,1.2300000000000004,turkeysandwich,1573.699999988079,1574,1574.0,True,i,41030.30000001192,2093.899999976158,1669835284318,2094,HRV,HRV_0192,2022-11-30 19:12:12
16,"[{'imgObject': {}, 'id': 'sweetpotato', 'src': '/static/foodstim60/sweetpotato.jpg', 'key': 'u', 'origWidth': 410, 'origHeight': 410, 'width': 410, 'height': 410, 'widthPercent': 0.45, 'rescaleHeight': False, 'trialN': 16, 'loaded': True, 'loadedTime': 13064.700000047684, 'positionName': 'LEFT', 'positionCoords': [81.52, 83], 'bid': 1.95}, {'imgObject': {}, 'id': 'olives', 'src': '/static/foodstim60/olives.jpg', 'key': 'i', 'origWidth': 410, 'origHeight': 410, 'width': 410, 'height': 410, 'widthPercent': 0.45, 'rescaleHeight': False, 'trialN': 16, 'loaded': True, 'loadedTime': 13061.900000035763, 'positionName': 'RIGHT', 'positionCoords': [532.48, 83], 'bid': 0.15}]",41030.5,1669835284318,sweetpotato,olives,1.95,0.15,-1.8,sweetpotato,928.4000000357628,929,928.9000000357628,True,u,42474.60000002384,1444.1000000238419,1669835285763,1445,HRV,HRV_0192,2022-11-30 19:12:12
17,"[{'imgObject': {}, 'id': 'veggieswithdip', 'src': '/static/foodstim60/veggieswithdip.jpg', 'key': 'u', 'origWidth': 409, 'origHeight': 409, 'width': 409, 'height': 409, 'widthPercent': 0.45, 'rescaleHeight': False, 'trialN': 17, 'loaded': True, 'loadedTime': 13148, 'positionName': 'LEFT', 'positionCoords': [82.52, 83.5], 'bid': 5}, {'imgObject': {}, 'id': 'raisin bran w milk', 'src': '/static/foodstim60/raisin bran w milk.jpg', 'key': 'i', 'origWidth': 411, 'origHeight': 411, 'width': 411, 'height': 411, 'widthPercent': 0.45, 'rescaleHeight': False, 'trialN': 17, 'loaded': True, 'loadedTime': 13034.900000035763, 'positionName': 'RIGHT', 'positionCoords': [532.48, 82.5], 'bid': 4.94}]",42474.80000001192,1669835285763,veggieswithdip,raisin bran w milk,5.0,4.94,-0.05999999999999961,veggieswithdip,1260.0,1260,1260.5,True,u,44241.40000003576,1766.6000000238419,1669835287529,1766,HRV,HRV_0192,2022-11-30 19:12:12
18,"[{'imgObject': {}, 'id': 'hashbrowns', 'src': '/static/foodstim60/hashbrowns.jpg', 'key': 'u', 'origWidth': 411, 'origHeight': 410, 'width': 411, 'height': 410, 'widthPercent': 0.45, 'rescaleHeight': False, 'trialN': 18, 'loaded': True, 'loadedTime': 13248.200000047684, 'positionName': 'LEFT', 'positionCoords': [80.52, 83], 'bid': 0.7000000000000001}, {'imgObject': {}, 'id': 'sushi w_condiments', 'src': '/static/foodstim60/sushi w_condiments.jpg', 'key': 'i', 'origWidth': 410, 'origHeight': 410, 'width': 410, 'height': 410, 'widthPercent': 0.45, 'rescaleHeight': False, 'trialN': 18, 'loaded': True, 'loadedTime': 13343.700000047684, 'positionName': 'RIGHT', 'positionCoords': [532.48, 83], 'bid': 0.64}]",44241.60000002384,1669835287530,hashbrowns,sushi w_condiments,0.7000000000000001,0.64,-0.06000000000000005,sushi w_condiments,2036.8999999761581,2037,2037.300000011921,True,i,46792.90000003576,2551.300000011921,1669835290081,2551,HRV,HRV_0192,2022-11-30 19:12:12
19,"[{'imgObject': {}, 'id': 'hashbrowns', 'src': '/static/foodstim60/hashbrowns.jpg', 'key': 'u', 'origWidth': 411, 'origHeight': 410, 'width': 411, 'height': 410, 'widthPercent': 0.45, 'rescaleHeight': False, 'trialN': 19, 'loaded': True, 'loadedTime': 13248.900000035763, 'positionName': 'LEFT', 'positionCoords': [80.52, 83], 'bid': 0.7000000000000001}, {'imgObject': {}, 'id': 'roastedpotatoes', 'src': '/static/foodstim60/roastedpotatoes.jpg', 'key': 'i', 'origWidth': 409, 'origHeight': 410, 'width': 409, 'height': 410, 'widthPercent': 0.45, 'rescaleHeight': False, 'trialN': 19, 'loaded': True, 'loadedTime': 12879.100000023842, 'positionName': 'RIGHT', 'positionCoords': [532.48, 83], 'bid': 2.03}]",46793.10000002384,1669835290081,hashbrowns,roastedpotatoes,0.7000000000000001,2.03,1.3299999999999996,roastedpotatoes,1021.1000000238419,1022,1021.5,True,i,48323.60000002384,1530.5,1669835291612,1531,HRV,HRV_0192,2022-11-30 19:12:12
20,"[{'imgObject': {}, 'id': 'salad w chicken', 'src': '/static/foodstim60/salad w chicken.jpg', 'key': 'u', 'origWidth': 411, 'origHeight': 411, 'width': 411, 'height': 411, 'widthPercent': 0.45, 'rescaleHeight': False, 'trialN': 20, 'loaded': True, 'loadedTime': 12098.700000047684, 'positionName': 'LEFT', 'positionCoords': [80.52, 82.5], 'bid': 7.83}, {'imgObject': {}, 'id': 'ice cream sundae 002', 'src': '/static/foodstim60/ice cream sundae 002.jpg', 'key': 'i', 'origWidth': 409, 'origHeight': 409, 'width': 409, 'height': 409, 'widthPercent': 0.45, 'rescaleHeight': False, 'trialN': 20, 'loaded': True, 'loadedTime': 13359.900000035763, 'positionName': 'RIGHT', 'positionCoords': [532.48, 83.5], 'bid': 6.11}]",48323.80000001192,1669835291612,salad w chicken,ice cream sundae 002,7.83,6.11,-1.7199999999999998,salad w chicken,890.8000000119209,891,891.5,True,u,49731.30000001192,1407.5,1669835293019,1407,HRV,HRV_0192,2022-11-30 19:12:12
21,"[{'imgObject': {}, 'id': 'mac & cheese', 'src': '/static/foodstim60/mac & cheese.jpg', 'key': 'u', 'origWidth': 410, 'origHeight': 410, 'width': 410, 'height': 410, 'widthPercent': 0.45, 'rescaleHeight': False, 'trialN': 21, 'loaded': True, 'loadedTime': 13363.700000047684, 'positionName': 'LEFT', 'positionCoords': [81.52, 83], 'bid': 3.94}, {'imgObject': {}, 'id': 'popsicles', 'src': '/static/foodstim60/popsicles.jpg', 'key': 'i', 'origWidth': 410, 'origHeight': 410, 'width': 410, 'height': 410, 'widthPercent': 0.45, 'rescaleHeight': False, 'trialN': 21, 'loaded': True, 'loadedTime': 12560.400000035763, 'positionName': 'RIGHT', 'positionCoords': [532.48, 83], 'bid': 8.16}]",49731.60000002384,1669835293020,mac & cheese,popsicles,3.94,8.16,4.220000000000001,mac & cheese,987.1999999880791,987,987.6000000238419,True,u,51224.90000003576,1493.300000011921,1669835294513,1493,HRV,HRV_0192,2022-11-30 19:12:12
22,"[{'imgObject': {}, 'id': 'olives', 'src': '/static/foodstim60/olives.jpg', 'key': 'u', 'origWidth': 410, 'origHeight': 410, 'width': 410, 'height': 410, 'widthPercent': 0.45, 'rescaleHeight': False, 'trialN': 22, 'loaded': True, 'loadedTime': 13062.700000047684, 'positionName': 'LEFT', 'positionCoords': [81.52, 83], 'bid': 0.15}, {'imgObject': {}, 'id': 'froot loops w milk', 'src': '/static/foodstim60/froot loops w milk.jpg', 'key': 'i', 'origWidth': 410, 'origHeight': 410, 'width': 410, 'height': 410, 'widthPercent': 0.45, 'rescaleHeight': False, 'trialN': 22, 'loaded': True, 'loadedTime': 12542.800000011921, 'positionName': 'RIGHT', 'positionCoords': [532.48, 83], 'bid': 2.34}]",51225.10000002384,1669835294513,olives,froot loops w milk,0.15,2.34,2.19,froot loops w milk,829.8000000119209,830,830.1999999880791,True,i,52568.0,1342.8999999761581,1669835295856,1343,HRV,HRV_0192,2022-11-30 19:12:12
23,"[{'imgObject': {}, 'id': 'blueberries', 'src': '/static/foodstim60/blueberries.jpg', 'key': 'u', 'origWidth': 411, 'origHeight': 411, 'width': 411, 'height': 411, 'widthPercent': 0.45, 'rescaleHeight': False, 'trialN': 23, 'loaded': True, 'loadedTime': 13449, 'positionName': 'LEFT', 'positionCoords': [80.52, 82.5], 'bid': 7.36}, {'imgObject': {}, 'id': 'tacos', 'src': '/static/foodstim60/tacos.jpg', 'key': 'i', 'origWidth': 411, 'origHeight': 411, 'width': 411, 'height': 411, 'widthPercent': 0.45, 'rescaleHeight': False, 'trialN': 23, 'loaded': True, 'loadedTime': 13454.100000023842, 'positionName': 'RIGHT', 'positionCoords': [532.48, 82.5], 'bid': 8.45}]",52568.30000001192,1669835295856,blueberries,tacos,7.36,8.45,1.089999999999999,tacos,830.4000000357628,831,830.8000000119209,True,i,53916.5,1348.199999988079,1669835297204,1348,HRV,HRV_0192,2022-11-30 19:12:12
24,"[{'imgObject': {}, 'id': 'corn cob', 'src': '/static/foodstim60/corn cob.jpg', 'key': 'u', 'origWidth': 411, 'origHeight': 411, 'width': 411, 'height': 411, 'widthPercent': 0.45, 'rescaleHeight': False, 'trialN': 24, 'loaded': True, 'loadedTime': 13539, 'positionName': 'LEFT', 'positionCoords': [80.52, 82.5], 'bid': 4.9}, {'imgObject': {}, 'id': 'eggsalad', 'src': '/static/foodstim60/eggsalad.jpg', 'key': 'i', 'origWidth': 410, 'origHeight': 409, 'width': 410, 'height': 409, 'widthPercent': 0.45, 'rescaleHeight': False, 'trialN': 24, 'loaded': True, 'loadedTime': 13520.200000047684, 'positionName': 'RIGHT', 'positionCoords': [532.48, 83.5], 'bid': 4.84}]",53916.700000047684,1669835297205,corn cob,eggsalad,4.9,4.84,-0.0600000000000005,eggsalad,1041.3999999761581,1042,1042.0,True,i,55471.700000047684,1555.0,1669835298760,1555,HRV,HRV_0192,2022-11-30 19:12:12
25,"[{'imgObject': {}, 'id': 'cheerios', 'src': '/static/foodstim60/cheerios.jpg', 'key': 'u', 'origWidth': 409, 'origHeight': 410, 'width': 409, 'height': 410, 'widthPercent': 0.45, 'rescaleHeight': False, 'trialN': 25, 'loaded': True, 'loadedTime': 12844.800000011921, 'positionName': 'LEFT', 'positionCoords': [82.52, 83], 'bid': 2.32}, {'imgObject': {}, 'id': 'hotdog w must', 'src': '/static/foodstim60/hotdog w must.jpg', 'key': 'i', 'origWidth': 409, 'origHeight': 409, 'width': 409, 'height': 409, 'widthPercent': 0.45, 'rescaleHeight': False, 'trialN': 25, 'loaded': True, 'loadedTime': 12736, 'positionName': 'RIGHT', 'positionCoords': [532.48, 83.5], 'bid': 0.03}]",55471.80000001192,1669835298760,cheerios,hotdog w must,2.32,0.03,-2.29,cheerios,1015.1999999880791,1016,1015.6999999880791,True,u,56993.200000047684,1521.4000000357628,1669835300281,1521,HRV,HRV_0192,2022-11-30 19:12:12
26,"[{'imgObject': {}, 'id': 'bagel plain', 'src': '/static/foodstim60/bagel plain.jpg', 'key': 'u', 'origWidth': 410, 'origHeight': 410, 'width': 410, 'height': 410, 'widthPercent': 0.45, 'rescaleHeight': False, 'trialN': 26, 'loaded': True, 'loadedTime': 13542.200000047684, 'positionName': 'LEFT', 'positionCoords': [81.52, 83], 'bid': 6.19}, {'imgObject': {}, 'id': 'Tribe humus pita', 'src': '/static/foodstim60/Tribe humus pita.jpg', 'key': 'i', 'origWidth': 411, 'origHeight': 411, 'width': 411, 'height': 411, 'widthPercent': 0.45, 'rescaleHeight': False, 'trialN': 26, 'loaded': True, 'loadedTime': 13530.800000011921, 'positionName': 'RIGHT', 'positionCoords': [532.48, 82.5], 'bid': 4.55}]",56993.5,1669835300281,bagel plain,Tribe humus pita,6.19,4.55,-1.6400000000000006,bagel plain,1140.7000000476837,1141,1141.0,True,u,58645.700000047684,1652.2000000476837,1669835301934,1653,HRV,HRV_0192,2022-11-30 19:12:12
27,"[{'imgObject': {}, 'id': 'raspberries', 'src': '/static/foodstim60/raspberries.jpg', 'key': 'u', 'origWidth': 411, 'origHeight': 411, 'width': 411, 'height': 411, 'widthPercent': 0.45, 'rescaleHeight': False, 'trialN': 27, 'loaded': True, 'loadedTime': 13544.200000047684, 'positionName': 'LEFT', 'positionCoords': [80.52, 82.5], 'bid': 8.41}, {'imgObject': {}, 'id': 'bagel and cc', 'src': '/static/foodstim60/bagel and cc.jpg', 'key': 'i', 'origWidth': 410, 'origHeight': 410, 'width': 410, 'height': 410, 'widthPercent': 0.45, 'rescaleHeight': False, 'trialN': 27, 'loaded': True, 'loadedTime': 13619.300000011921, 'positionName': 'RIGHT', 'positionCoords': [532.48, 83], 'bid': 8.08}]",58645.90000003576,1669835301934,raspberries,bagel and cc,8.41,8.08,-0.33000000000000007,bagel and cc,952.5,953,952.6999999880791,True,i,60116.200000047684,1470.300000011921,1669835303404,1470,HRV,HRV_0192,2022-11-30 19:12:12
28,"[{'imgObject': {}, 'id': 'veggieswithdip', 'src': '/static/foodstim60/veggieswithdip.jpg', 'key': 'u', 'origWidth': 409, 'origHeight': 409, 'width': 409, 'height': 409, 'widthPercent': 0.45, 'rescaleHeight': False, 'trialN': 28, 'loaded': True, 'loadedTime': 13148.200000047684, 'positionName': 'LEFT', 'positionCoords': [82.52, 83.5], 'bid': 5}, {'imgObject': {}, 'id': 'granola w milk', 'src': '/static/foodstim60/granola w milk.jpg', 'key': 'i', 'origWidth': 410, 'origHeight': 410, 'width': 410, 'height': 410, 'widthPercent': 0.45, 'rescaleHeight': False, 'trialN': 28, 'loaded': True, 'loadedTime': 13640.5, 'positionName': 'RIGHT', 'positionCoords': [532.48, 83], 'bid': 4.84}]",60116.200000047684,1669835303404,veggieswithdip,granola w milk,5.0,4.84,-0.16000000000000014,veggieswithdip,1154.3999999761581,1155,1154.7999999523163,True,u,61788.80000001192,1672.5999999642372,1669835305077,1673,HRV,HRV_0192,2022-11-30 19:12:12
29,"[{'imgObject': {}, 'id': 'tacos', 'src': '/static/foodstim60/tacos.jpg', 'key': 'u', 'origWidth': 411, 'origHeight': 411, 'width': 411, 'height': 411, 'widthPercent': 0.45, 'rescaleHeight': False, 'trialN': 29, 'loaded': True, 'loadedTime': 13453.100000023842, 'positionName': 'LEFT', 'positionCoords': [80.52, 82.5], 'bid': 8.45}, {'imgObject': {}, 'id': 'corn cob', 'src': '/static/foodstim60/corn cob.jpg', 'key': 'i', 'origWidth': 411, 'origHeight': 411, 'width': 411, 'height': 411, 'widthPercent': 0.45, 'rescaleHeight': False, 'trialN': 29, 'loaded': True, 'loadedTime': 13539.400000035763, 'positionName': 'RIGHT', 'positionCoords': [532.48, 82.5], 'bid': 4.9}]",61789.0,1669835305077,tacos,corn cob,8.45,4.9,-3.549999999999999,tacos,865.6000000238419,866,866.0,True,u,63170.30000001192,1381.300000011921,1669835306458,1381,HRV,HRV_0192,2022-11-30 19:12:12
30,"[{'imgObject': {}, 'id': 'yogurt no spoon', 'src': '/static/foodstim60/yogurt no spoon.jpg', 'key': 'u', 'origWidth': 411, 'origHeight': 410, 'width': 411, 'height': 410, 'widthPercent': 0.45, 'rescaleHeight': False, 'trialN': 30, 'loaded': True, 'loadedTime': 13710.700000047684, 'positionName': 'LEFT', 'positionCoords': [80.52, 83], 'bid': 7.08}, {'imgObject': {}, 'id': 'apple slices', 'src': '/static/foodstim60/apple slices.jpg', 'key': 'i', 'origWidth': 409, 'origHeight': 410, 'width': 409, 'height': 410, 'widthPercent': 0.45, 'rescaleHeight': False, 'trialN': 30, 'loaded': True, 'loadedTime': 13649.300000011921, 'positionName': 'RIGHT', 'positionCoords': [532.48, 83], 'bid': 6.79}]",63170.5,1669835306458,yogurt no spoon,apple slices,7.08,6.79,-0.29000000000000004,yogurt no spoon,1467.7000000476837,1469,1468.300000011921,True,u,65153.60000002384,1983.1000000238419,1669835308442,1984,HRV,HRV_0192,2022-11-30 19:12:12
31,"[{'imgObject': {}, 'id': 'lox', 'src': '/static/foodstim60/lox.jpg', 'key': 'u', 'origWidth': 410, 'origHeight': 411, 'width': 410, 'height': 411, 'widthPercent': 0.45, 'rescaleHeight': False, 'trialN': 31, 'loaded': True, 'loadedTime': 13637.5, 'positionName': 'LEFT', 'positionCoords': [81.52, 82.5], 'bid': 2.01}, {'imgObject': {}, 'id': 'sushi w_condiments', 'src': '/static/foodstim60/sushi w_condiments.jpg', 'key': 'i', 'origWidth': 410, 'origHeight': 410, 'width': 410, 'height': 410, 'widthPercent': 0.45, 'rescaleHeight': False, 'trialN': 31, 'loaded': True, 'loadedTime': 13345.600000023842, 'positionName': 'RIGHT', 'positionCoords': [532.48, 83], 'bid': 0.64}]",65153.90000003576,1669835308442,lox,sushi w_condiments,2.01,0.64,-1.3699999999999997,lox,1068.8999999761581,1062,1069.5999999642372,True,u,66738.70000004768,1584.800000011921,1669835310020,1578,HRV,HRV_0192,2022-11-30 19:12:12
32,"[{'imgObject': {}, 'id': 'burger', 'src': '/static/foodstim60/burger.jpg', 'key': 'u', 'origWidth': 409, 'origHeight': 409, 'width': 409, 'height': 409, 'widthPercent': 0.45, 'rescaleHeight': False, 'trialN': 32, 'loaded': True, 'loadedTime': 13631.800000011921, 'positionName': 'LEFT', 'positionCoords': [82.52, 83.5], 'bid': 6.67}, {'imgObject': {}, 'id': 'apple slices', 'src': '/static/foodstim60/apple slices.jpg', 'key': 'i', 'origWidth': 409, 'origHeight': 410, 'width': 409, 'height': 410, 'widthPercent': 0.45, 'rescaleHeight': False, 'trialN': 32, 'loaded': True, 'loadedTime': 13649.400000035763, 'positionName': 'RIGHT', 'positionCoords': [532.48, 83], 'bid': 6.79}]",66738.80000001192,1669835310020,burger,apple slices,6.67,6.79,0.1200000000000001,burger,1163.4000000357628,1164,1163.699999988079,True,u,68420.70000004768,1681.9000000357628,1669835311702,1682,HRV,HRV_0192,2022-11-30 19:12:12
33,"[{'imgObject': {}, 'id': 'edamame', 'src': '/static/foodstim60/edamame.jpg', 'key': 'u', 'origWidth': 409, 'origHeight': 410, 'width': 409, 'height': 410, 'widthPercent': 0.45, 'rescaleHeight': False, 'trialN': 33, 'loaded': True, 'loadedTime': 13641.800000011921, 'positionName': 'LEFT', 'positionCoords': [82.52, 83], 'bid': 1.19}, {'imgObject': {}, 'id': 'mac & cheese', 'src': '/static/foodstim60/mac & cheese.jpg', 'key': 'i', 'origWidth': 410, 'origHeight': 410, 'width': 410, 'height': 410, 'widthPercent': 0.45, 'rescaleHeight': False, 'trialN': 33, 'loaded': True, 'loadedTime': 13363.900000035763, 'positionName': 'RIGHT', 'positionCoords': [532.48, 83], 'bid': 3.94}]",68420.80000001192,1669835311702,edamame,mac & cheese,1.19,3.94,2.75,mac & cheese,809.5,810,809.9000000357628,True,i,69741.30000001192,1320.5,1669835313022,1320,HRV,HRV_0192,2022-11-30 19:12:12
34,"[{'imgObject': {}, 'id': 'baked potato', 'src': '/static/foodstim60/baked potato.jpg', 'key': 'u', 'origWidth': 409, 'origHeight': 410, 'width': 409, 'height': 410, 'widthPercent': 0.45, 'rescaleHeight': False, 'trialN': 34, 'loaded': True, 'loadedTime': 12319.600000023842, 'positionName': 'LEFT', 'positionCoords': [82.52, 83], 'bid': 2.48}, {'imgObject': {}, 'id': 'hashbrowns', 'src': '/static/foodstim60/hashbrowns.jpg', 'key': 'i', 'origWidth': 411, 'origHeight': 410, 'width': 411, 'height': 410, 'widthPercent': 0.45, 'rescaleHeight': False, 'trialN': 34, 'loaded': True, 'loadedTime': 13249, 'positionName': 'RIGHT', 'positionCoords': [532.48, 83], 'bid': 0.7000000000000001}]",69741.60000002384,1669835313023,baked potato,hashbrowns,2.48,0.7000000000000001,-1.7799999999999998,baked potato,1033.1000000238419,1033,1033.699999988079,True,u,71284.10000002384,1542.5,1669835314565,1542,HRV,HRV_0192,2022-11-30 19:12:12
35,"[{'imgObject': {}, 'id': 'seaweed', 'src': '/static/foodstim60/seaweed.jpg', 'key': 'u', 'origWidth': 410, 'origHeight': 410, 'width': 410, 'height': 410, 'widthPercent': 0.45, 'rescaleHeight': False, 'trialN': 35, 'loaded': True, 'loadedTime': 12755.200000047684, 'positionName': 'LEFT', 'positionCoords': [81.52, 83], 'bid': 0.87}, {'imgObject': {}, 'id': 'mashed potato', 'src': '/static/foodstim60/mashed potato.jpg', 'key': 'i', 'origWidth': 409, 'origHeight': 409, 'width': 409, 'height': 409, 'widthPercent': 0.45, 'rescaleHeight': False, 'trialN': 35, 'loaded': True, 'loadedTime': 13647.100000023842, 'positionName': 'RIGHT', 'positionCoords': [532.48, 83.5], 'bid': 2.98}]",71284.5,1669835314565,seaweed,mashed potato,0.87,2.98,2.11,mashed potato,921.8000000119209,923,922.2000000476837,True,i,72723.70000004768,1439.2000000476837,1669835316005,1440,HRV,HRV_0192,2022-11-30 19:12:12
36,"[{'imgObject': {}, 'id': 'hotdog w must', 'src': '/static/foodstim60/hotdog w must.jpg', 'key': 'u', 'origWidth': 409, 'origHeight': 409, 'width': 409, 'height': 409, 'widthPercent': 0.45, 'rescaleHeight': False, 'trialN': 36, 'loaded': True, 'loadedTime': 12728.600000023842, 'positionName': 'LEFT', 'positionCoords': [82.52, 83.5], 'bid': 0.03}, {'imgObject': {}, 'id': 'chicken nuggets2', 'src': '/static/foodstim60/chicken nuggets2.jpg', 'key': 'i', 'origWidth': 410, 'origHeight': 409, 'width': 410, 'height': 409, 'widthPercent': 0.45, 'rescaleHeight': False, 'trialN': 36, 'loaded': True, 'loadedTime': 12974.200000047684, 'positionName': 'RIGHT', 'positionCoords': [532.48, 83.5], 'bid': 1.05}]",72724.0,1669835316005,hotdog w must,chicken nuggets2,0.03,1.05,1.02,chicken nuggets2,842.6000000238419,843,843.2000000476837,True,i,74071.0,1347.0,1669835317352,1347,HRV,HRV_0192,2022-11-30 19:12:12
37,"[{'imgObject': {}, 'id': 'strawberries', 'src': '/static/foodstim60/strawberries.jpg', 'key': 'u', 'origWidth': 410, 'origHeight': 410, 'width': 410, 'height': 410, 'widthPercent': 0.45, 'rescaleHeight': False, 'trialN': 37, 'loaded': True, 'loadedTime': 13729.600000023842, 'positionName': 'LEFT', 'positionCoords': [81.52, 83], 'bid': 8.16}, {'imgObject': {}, 'id': 'burger', 'src': '/static/foodstim60/burger.jpg', 'key': 'i', 'origWidth': 409, 'origHeight': 409, 'width': 409, 'height': 409, 'widthPercent': 0.45, 'rescaleHeight': False, 'trialN': 37, 'loaded': True, 'loadedTime': 13633.800000011921, 'positionName': 'RIGHT', 'positionCoords': [532.48, 83.5], 'bid': 6.67}]",74071.20000004768,1669835317352,strawberries,burger,8.16,6.67,-1.4900000000000002,burger,1175.0999999642372,1176,1175.5999999642372,True,i,75755.5,1684.2999999523163,1669835319036,1684,HRV,HRV_0192,2022-11-30 19:12:12
38,"[{'imgObject': {}, 'id': 'steak', 'src': '/static/foodstim60/steak.jpg', 'key': 'u', 'origWidth': 410, 'origHeight': 410, 'width': 410, 'height': 410, 'widthPercent': 0.45, 'rescaleHeight': False, 'trialN': 38, 'loaded': True, 'loadedTime': 13711.600000023842, 'positionName': 'LEFT', 'positionCoords': [81.52, 83], 'bid': 8.370000000000001}, {'imgObject': {}, 'id': 'raspberries', 'src': '/static/foodstim60/raspberries.jpg', 'key': 'i', 'origWidth': 411, 'origHeight': 411, 'width': 411, 'height': 411, 'widthPercent': 0.45, 'rescaleHeight': False, 'trialN': 38, 'loaded': True, 'loadedTime': 13544.300000011921, 'positionName': 'RIGHT', 'positionCoords': [532.48, 82.5], 'bid': 8.41}]",75755.70000004768,1669835319037,steak,raspberries,8.370000000000001,8.41,0.03999999999999915,steak,738.8999999761581,739,739.2999999523163,True,u,77005.90000003576,1250.199999988079,1669835320287,1250,HRV,HRV_0192,2022-11-30 19:12:12
39,"[{'imgObject': {}, 'id': 'omelette', 'src': '/static/foodstim60/omelette.jpg', 'key': 'u', 'origWidth': 410, 'origHeight': 409, 'width': 410, 'height': 409, 'widthPercent': 0.45, 'rescaleHeight': False, 'trialN': 39, 'loaded': True, 'loadedTime': 13715.700000047684, 'positionName': 'LEFT', 'positionCoords': [81.52, 83.5], 'bid': 7.42}, {'imgObject': {}, 'id': 'blackbeanswithrice', 'src': '/static/foodstim60/blackbeanswithrice.jpg', 'key': 'i', 'origWidth': 410, 'origHeight': 410, 'width': 410, 'height': 410, 'widthPercent': 0.45, 'rescaleHeight': False, 'trialN': 39, 'loaded': True, 'loadedTime': 13722.5, 'positionName': 'RIGHT', 'positionCoords': [532.48, 83], 'bid': 2.3000000000000003}]",77006.0,1669835320287,omelette,blackbeanswithrice,7.42,2.3000000000000003,-5.119999999999999,omelette,872.8000000119209,873,873.2000000476837,True,u,78393.40000003576,1387.4000000357628,1669835321674,1387,HRV,HRV_0192,2022-11-30 19:12:12
40,"[{'imgObject': {}, 'id': 'burger', 'src': '/static/foodstim60/burger.jpg', 'key': 'u', 'origWidth': 409, 'origHeight': 409, 'width': 409, 'height': 409, 'widthPercent': 0.45, 'rescaleHeight': False, 'trialN': 40, 'loaded': True, 'loadedTime': 13634.100000023842, 'positionName': 'LEFT', 'positionCoords': [82.52, 83.5], 'bid': 6.67}, {'imgObject': {}, 'id': 'eggsalad', 'src': '/static/foodstim60/eggsalad.jpg', 'key': 'i', 'origWidth': 410, 'origHeight': 409, 'width': 410, 'height': 409, 'widthPercent': 0.45, 'rescaleHeight': False, 'trialN': 40, 'loaded': True, 'loadedTime': 13522.300000011921, 'positionName': 'RIGHT', 'positionCoords': [532.48, 83.5], 'bid': 4.84}]",78393.60000002384,1669835321675,burger,eggsalad,6.67,4.84,-1.83,burger,981.0,981,981.3999999761581,True,u,79880.60000002384,1487.0,1669835323162,1487,HRV,HRV_0192,2022-11-30 19:12:12
41,"[{'imgObject': {}, 'id': 'lox', 'src': '/static/foodstim60/lox.jpg', 'key': 'u', 'origWidth': 410, 'origHeight': 411, 'width': 410, 'height': 411, 'widthPercent': 0.45, 'rescaleHeight': False, 'trialN': 41, 'loaded': True, 'loadedTime': 13634.400000035763, 'positionName': 'LEFT', 'positionCoords': [81.52, 82.5], 'bid': 2.01}, {'imgObject': {}, 'id': 'roastedpotatoes', 'src': '/static/foodstim60/roastedpotatoes.jpg', 'key': 'i', 'origWidth': 409, 'origHeight': 410, 'width': 409, 'height': 410, 'widthPercent': 0.45, 'rescaleHeight': False, 'trialN': 41, 'loaded': True, 'loadedTime': 12877.900000035763, 'positionName': 'RIGHT', 'positionCoords': [532.48, 83], 'bid': 2.03}]",79880.80000001192,1669835323162,lox,roastedpotatoes,2.01,2.03,0.020000000000000018,roastedpotatoes,781.8000000119209,782,782.1999999880791,True,i,81167.70000004768,1286.9000000357628,1669835324449,1287,HRV,HRV_0192,2022-11-30 19:12:12
42,"[{'imgObject': {}, 'id': 'mac & cheese', 'src': '/static/foodstim60/mac & cheese.jpg', 'key': 'u', 'origWidth': 410, 'origHeight': 410, 'width': 410, 'height': 410, 'widthPercent': 0.45, 'rescaleHeight': False, 'trialN': 42, 'loaded': True, 'loadedTime': 13364.5, 'positionName': 'LEFT', 'positionCoords': [81.52, 83], 'bid': 3.94}, {'imgObject': {}, 'id': 'Tribe humus pita', 'src': '/static/foodstim60/Tribe humus pita.jpg', 'key': 'i', 'origWidth': 411, 'origHeight': 411, 'width': 411, 'height': 411, 'widthPercent': 0.45, 'rescaleHeight': False, 'trialN': 42, 'loaded': True, 'loadedTime': 13532.300000011921, 'positionName': 'RIGHT', 'positionCoords': [532.48, 82.5], 'bid': 4.55}]",81167.90000003576,1669835324449,mac & cheese,Tribe humus pita,3.94,4.55,0.6099999999999999,mac & cheese,918.3999999761581,919,918.8999999761581,True,u,82592.5,1424.5999999642372,1669835325873,1424,HRV,HRV_0192,2022-11-30 19:12:12
43,"[{'imgObject': {}, 'id': 'fried eggs', 'src': '/static/foodstim60/fried eggs.jpg', 'key': 'u', 'origWidth': 410, 'origHeight': 410, 'width': 410, 'height': 410, 'widthPercent': 0.45, 'rescaleHeight': False, 'trialN': 43, 'loaded': True, 'loadedTime': 12726.5, 'positionName': 'LEFT', 'positionCoords': [81.52, 83], 'bid': 6.21}, {'imgObject': {}, 'id': 'bagel and cc', 'src': '/static/foodstim60/bagel and cc.jpg', 'key': 'i', 'origWidth': 410, 'origHeight': 410, 'width': 410, 'height': 410, 'widthPercent': 0.45, 'rescaleHeight': False, 'trialN': 43, 'loaded': True, 'loadedTime': 13618.100000023842, 'positionName': 'RIGHT', 'positionCoords': [532.48, 83], 'bid': 8.08}]",82592.70000004768,1669835325874,fried eggs,bagel and cc,6.21,8.08,1.87,fried eggs,742.0,742,742.3999999761581,True,u,83847.30000001192,1254.5999999642372,1669835327128,1254,HRV,HRV_0192,2022-11-30 19:12:12
44,"[{'imgObject': {}, 'id': 'rigatoni', 'src': '/static/foodstim60/rigatoni.jpg', 'key': 'u', 'origWidth': 411, 'origHeight': 411, 'width': 411, 'height': 411, 'widthPercent': 0.45, 'rescaleHeight': False, 'trialN': 44, 'loaded': True, 'loadedTime': 12541.600000023842, 'positionName': 'LEFT', 'positionCoords': [80.52, 82.5], 'bid': 2.36}, {'imgObject': {}, 'id': 'mashed potato', 'src': '/static/foodstim60/mashed potato.jpg', 'key': 'i', 'origWidth': 409, 'origHeight': 409, 'width': 409, 'height': 409, 'widthPercent': 0.45, 'rescaleHeight': False, 'trialN': 44, 'loaded': True, 'loadedTime': 13647.600000023842, 'positionName': 'RIGHT', 'positionCoords': [532.48, 83.5], 'bid': 2.98}]",83847.5,1669835327128,rigatoni,mashed potato,2.36,2.98,0.6200000000000001,mashed potato,1239.800000011921,1241,1240.300000011921,True,i,85612.0,1764.5,1669835328893,1765,HRV,HRV_0192,2022-11-30 19:12:12
45,"[{'imgObject': {}, 'id': 'chickenfingers', 'src': '/static/foodstim60/chickenfingers.jpg', 'key': 'u', 'origWidth': 410, 'origHeight': 410, 'width': 410, 'height': 410, 'widthPercent': 0.45, 'rescaleHeight': False, 'trialN': 45, 'loaded': True, 'loadedTime': 12746.400000035763, 'positionName': 'LEFT', 'positionCoords': [81.52, 83], 'bid': 5}, {'imgObject': {}, 'id': 'banana', 'src': '/static/foodstim60/banana.jpg', 'key': 'i', 'origWidth': 410, 'origHeight': 410, 'width': 410, 'height': 410, 'widthPercent': 0.45, 'rescaleHeight': False, 'trialN': 45, 'loaded': True, 'loadedTime': 12865.200000047684, 'positionName': 'RIGHT', 'positionCoords': [532.48, 83], 'bid': 4.92}]",85612.20000004768,1669835328893,chickenfingers,banana,5.0,4.92,-0.08000000000000007,chickenfingers,977.8999999761581,978,978.1999999880791,True,u,87097.80000001192,1485.5999999642372,1669835330379,1486,HRV,HRV_0192,2022-11-30 19:12:12
46,"[{'imgObject': {}, 'id': 'cherries', 'src': '/static/foodstim60/cherries.jpg', 'key': 'u', 'origWidth': 410, 'origHeight': 411, 'width': 410, 'height': 411, 'widthPercent': 0.45, 'rescaleHeight': False, 'trialN': 46, 'loaded': True, 'loadedTime': 12199.900000035763, 'positionName': 'LEFT', 'positionCoords': [81.52, 82.5], 'bid': 7.46}, {'imgObject': {}, 'id': 'omelette', 'src': '/static/foodstim60/omelette.jpg', 'key': 'i', 'origWidth': 410, 'origHeight': 409, 'width': 410, 'height': 409, 'widthPercent': 0.45, 'rescaleHeight': False, 'trialN': 46, 'loaded': True, 'loadedTime': 13714.700000047684, 'positionName': 'RIGHT', 'positionCoords': [532.48, 83.5], 'bid': 7.42}]",87097.90000003576,1669835330379,cherries,omelette,7.46,7.42,-0.040000000000000036,cherries,692.3999999761581,693,692.8000000119209,True,u,88297.40000003576,1199.5,1669835331578,1199,HRV,HRV_0192,2022-11-30 19:12:12
47,"[{'imgObject': {}, 'id': 'fruitsalad', 'src': '/static/foodstim60/fruitsalad.jpg', 'key': 'u', 'origWidth': 410, 'origHeight': 410, 'width': 410, 'height': 410, 'widthPercent': 0.45, 'rescaleHeight': False, 'trialN': 47, 'loaded': True, 'loadedTime': 12566.900000035763, 'positionName': 'LEFT', 'positionCoords': [81.52, 83], 'bid': 8.35}, {'imgObject': {}, 'id': 'Tribe humus pita', 'src': '/static/foodstim60/Tribe humus pita.jpg', 'key': 'i', 'origWidth': 411, 'origHeight': 411, 'width': 411, 'height': 411, 'widthPercent': 0.45, 'rescaleHeight': False, 'trialN': 47, 'loaded': True, 'loadedTime': 13532.100000023842, 'positionName': 'RIGHT', 'positionCoords': [532.48, 82.5], 'bid': 4.55}]",88297.60000002384,1669835331579,fruitsalad,Tribe humus pita,8.35,4.55,-3.8,fruitsalad,772.6000000238419,773,773.0,True,u,89579.90000003576,1282.300000011921,1669835332861,1282,HRV,HRV_0192,2022-11-30 19:12:12
48,"[{'imgObject': {}, 'id': 'mac & cheese', 'src': '/static/foodstim60/mac & cheese.jpg', 'key': 'u', 'origWidth': 410, 'origHeight': 410, 'width': 410, 'height': 410, 'widthPercent': 0.45, 'rescaleHeight': False, 'trialN': 48, 'loaded': True, 'loadedTime': 13364.200000047684, 'positionName': 'LEFT', 'positionCoords': [81.52, 83], 'bid': 3.94}, {'imgObject': {}, 'id': 'shreddedwheatwithmilk', 'src': '/static/foodstim60/shreddedwheatwithmilk.jpg', 'key': 'i', 'origWidth': 410, 'origHeight': 410, 'width': 410, 'height': 410, 'widthPercent': 0.45, 'rescaleHeight': False, 'trialN': 48, 'loaded': True, 'loadedTime': 12553.100000023842, 'positionName': 'RIGHT', 'positionCoords': [532.48, 83], 'bid': 3.26}]",89580.0,1669835332861,mac & cheese,shreddedwheatwithmilk,3.94,3.26,-0.6800000000000002,mac & cheese,978.3000000119209,979,979.0,True,u,91069.0,1489.0,1669835334350,1489,HRV,HRV_0192,2022-11-30 19:12:12
49,"[{'imgObject': {}, 'id': 'eggs', 'src': '/static/foodstim60/eggs.jpg', 'key': 'u', 'origWidth': 409, 'origHeight': 409, 'width': 409, 'height': 409, 'widthPercent': 0.45, 'rescaleHeight': False, 'trialN': 49, 'loaded': True, 'loadedTime': 13754.200000047684, 'positionName': 'LEFT', 'positionCoords': [82.52, 83.5], 'bid': 4.76}, {'imgObject': {}, 'id': 'chickenfingers', 'src': '/static/foodstim60/chickenfingers.jpg', 'key': 'i', 'origWidth': 410, 'origHeight': 410, 'width': 410, 'height': 410, 'widthPercent': 0.45, 'rescaleHeight': False, 'trialN': 49, 'loaded': True, 'loadedTime': 12744.200000047684, 'positionName': 'RIGHT', 'positionCoords': [532.48, 83], 'bid': 5}]",91069.10000002384,1669835334350,eggs,chickenfingers,4.76,5.0,0.2400000000000002,chickenfingers,857.3999999761581,858,857.8000000119209,True,i,92432.40000003576,1363.300000011921,1669835335713,1363,HRV,HRV_0192,2022-11-30 19:12:12
50,"[{'imgObject': {}, 'id': 'lox', 'src': '/static/foodstim60/lox.jpg', 'key': 'u', 'origWidth': 410, 'origHeight': 411, 'width': 410, 'height': 411, 'widthPercent': 0.45, 'rescaleHeight': False, 'trialN': 50, 'loaded': True, 'loadedTime': 13637, 'positionName': 'LEFT', 'positionCoords': [81.52, 82.5], 'bid': 2.01}, {'imgObject': {}, 'id': 'corn cob', 'src': '/static/foodstim60/corn cob.jpg', 'key': 'i', 'origWidth': 411, 'origHeight': 411, 'width': 411, 'height': 411, 'widthPercent': 0.45, 'rescaleHeight': False, 'trialN': 50, 'loaded': True, 'loadedTime': 13539.700000047684, 'positionName': 'RIGHT', 'positionCoords': [532.48, 82.5], 'bid': 4.9}]",92432.5,1669835335714,lox,corn cob,2.01,4.9,2.8900000000000006,corn cob,734.4000000357628,734,734.7000000476837,True,i,93672.5,1240.0,1669835336953,1239,HRV,HRV_0192,2022-11-30 19:12:12
51,"[{'imgObject': {}, 'id': 'cherries', 'src': '/static/foodstim60/cherries.jpg', 'key': 'u', 'origWidth': 410, 'origHeight': 411, 'width': 410, 'height': 411, 'widthPercent': 0.45, 'rescaleHeight': False, 'trialN': 51, 'loaded': True, 'loadedTime': 12210.5, 'positionName': 'LEFT', 'positionCoords': [81.52, 82.5], 'bid': 7.46}, {'imgObject': {}, 'id': 'raspberries', 'src': '/static/foodstim60/raspberries.jpg', 'key': 'i', 'origWidth': 411, 'origHeight': 411, 'width': 411, 'height': 411, 'widthPercent': 0.45, 'rescaleHeight': False, 'trialN': 51, 'loaded': True, 'loadedTime': 13544.5, 'positionName': 'RIGHT', 'positionCoords': [532.48, 82.5], 'bid': 8.41}]",93672.80000001192,1669835336954,cherries,raspberries,7.46,8.41,0.9500000000000002,raspberries,933.5,934,933.8000000119209,True,i,95112.90000003576,1440.1000000238419,1669835338394,1440,HRV,HRV_0192,2022-11-30 19:12:12
52,"[{'imgObject': {}, 'id': 'blackbeanswithrice', 'src': '/static/foodstim60/blackbeanswithrice.jpg', 'key': 'u', 'origWidth': 410, 'origHeight': 410, 'width': 410, 'height': 410, 'widthPercent': 0.45, 'rescaleHeight': False, 'trialN': 52, 'loaded': True, 'loadedTime': 13722.400000035763, 'positionName': 'LEFT', 'positionCoords': [81.52, 83], 'bid': 2.3000000000000003}, {'imgObject': {}, 'id': 'cheerios', 'src': '/static/foodstim60/cheerios.jpg', 'key': 'i', 'origWidth': 409, 'origHeight': 410, 'width': 409, 'height': 410, 'widthPercent': 0.45, 'rescaleHeight': False, 'trialN': 52, 'loaded': True, 'loadedTime': 12843.200000047684, 'positionName': 'RIGHT', 'positionCoords': [532.48, 83], 'bid': 2.32}]",95113.10000002384,1669835338394,blackbeanswithrice,cheerios,2.3000000000000003,2.32,0.019999999999999574,blackbeanswithrice,749.5,750,749.8999999761581,True,u,96380.0,1266.8999999761581,1669835339661,1267,HRV,HRV_0192,2022-11-30 19:12:12
53,"[{'imgObject': {}, 'id': 'mango', 'src': '/static/foodstim60/mango.jpg', 'key': 'u', 'origWidth': 411, 'origHeight': 411, 'width': 411, 'height': 411, 'widthPercent': 0.45, 'rescaleHeight': False, 'trialN': 53, 'loaded': True, 'loadedTime': 13781.900000035763, 'positionName': 'LEFT', 'positionCoords': [80.52, 82.5], 'bid': 7.2}, {'imgObject': {}, 'id': 'raspberries', 'src': '/static/foodstim60/raspberries.jpg', 'key': 'i', 'origWidth': 411, 'origHeight': 411, 'width': 411, 'height': 411, 'widthPercent': 0.45, 'rescaleHeight': False, 'trialN': 53, 'loaded': True, 'loadedTime': 13543.900000035763, 'positionName': 'RIGHT', 'positionCoords': [532.48, 82.5], 'bid': 8.41}]",96380.10000002384,1669835339661,mango,raspberries,7.2,8.41,1.21,raspberries,1050.699999988079,1051,1051.1000000238419,True,i,97937.80000001192,1557.699999988079,1669835341219,1558,HRV,HRV_0192,2022-11-30 19:12:12
54,"[{'imgObject': {}, 'id': 'orange slices', 'src': '/static/foodstim60/orange slices.jpg', 'key': 'u', 'origWidth': 409, 'origHeight': 410, 'width': 409, 'height': 410, 'widthPercent': 0.45, 'rescaleHeight': False, 'trialN': 54, 'loaded': True, 'loadedTime': 13146.600000023842, 'positionName': 'LEFT', 'positionCoords': [82.52, 83], 'bid': 6.5600000000000005}, {'imgObject': {}, 'id': 'burrito', 'src': '/static/foodstim60/burrito.jpg', 'key': 'i', 'origWidth': 410, 'origHeight': 410, 'width': 410, 'height': 410, 'widthPercent': 0.45, 'rescaleHeight': False, 'trialN': 54, 'loaded': True, 'loadedTime': 12881.900000035763, 'positionName': 'RIGHT', 'positionCoords': [532.48, 83], 'bid': 0.93}]",97937.90000003576,1669835341219,orange slices,burrito,6.5600000000000005,0.93,-5.630000000000001,orange slices,1132.199999988079,1132,1132.5999999642372,True,u,99579.80000001192,1641.8999999761581,1669835342861,1642,HRV,HRV_0192,2022-11-30 19:12:12
55,"[{'imgObject': {}, 'id': 'blueberries', 'src': '/static/foodstim60/blueberries.jpg', 'key': 'u', 'origWidth': 411, 'origHeight': 411, 'width': 411, 'height': 411, 'widthPercent': 0.45, 'rescaleHeight': False, 'trialN': 55, 'loaded': True, 'loadedTime': 13436, 'positionName': 'LEFT', 'positionCoords': [80.52, 82.5], 'bid': 7.36}, {'imgObject': {}, 'id': 'burger', 'src': '/static/foodstim60/burger.jpg', 'key': 'i', 'origWidth': 409, 'origHeight': 409, 'width': 409, 'height': 409, 'widthPercent': 0.45, 'rescaleHeight': False, 'trialN': 55, 'loaded': True, 'loadedTime': 13634.300000011921, 'positionName': 'RIGHT', 'positionCoords': [532.48, 83.5], 'bid': 6.67}]",99580.0,1669835342861,blueberries,burger,7.36,6.67,-0.6900000000000004,burger,658.3000000119209,659,658.7000000476837,True,i,100749.60000002384,1169.6000000238419,1669835344031,1170,HRV,HRV_0192,2022-11-30 19:12:12
56,"[{'imgObject': {}, 'id': 'baked potato', 'src': '/static/foodstim60/baked potato.jpg', 'key': 'u', 'origWidth': 409, 'origHeight': 410, 'width': 409, 'height': 410, 'widthPercent': 0.45, 'rescaleHeight': False, 'trialN': 56, 'loaded': True, 'loadedTime': 12319.400000035763, 'positionName': 'LEFT', 'positionCoords': [82.52, 83], 'bid': 2.48}, {'imgObject': {}, 'id': 'kiwi', 'src': '/static/foodstim60/kiwi.jpg', 'key': 'i', 'origWidth': 410, 'origHeight': 410, 'width': 410, 'height': 410, 'widthPercent': 0.45, 'rescaleHeight': False, 'trialN': 56, 'loaded': True, 'loadedTime': 12210.900000035763, 'positionName': 'RIGHT', 'positionCoords': [532.48, 83], 'bid': 7.85}]",100749.70000004768,1669835344031,baked potato,kiwi,2.48,7.85,5.369999999999999,baked potato,753.2999999523163,753,753.6999999880791,True,u,102014.30000001192,1264.5999999642372,1669835345295,1264,HRV,HRV_0192,2022-11-30 19:12:12
57,"[{'imgObject': {}, 'id': 'sweetpotato', 'src': '/static/foodstim60/sweetpotato.jpg', 'key': 'u', 'origWidth': 410, 'origHeight': 410, 'width': 410, 'height': 410, 'widthPercent': 0.45, 'rescaleHeight': False, 'trialN': 57, 'loaded': True, 'loadedTime': 13064.400000035763, 'positionName': 'LEFT', 'positionCoords': [81.52, 83], 'bid': 1.95}, {'imgObject': {}, 'id': 'burrito', 'src': '/static/foodstim60/burrito.jpg', 'key': 'i', 'origWidth': 410, 'origHeight': 410, 'width': 410, 'height': 410, 'widthPercent': 0.45, 'rescaleHeight': False, 'trialN': 57, 'loaded': True, 'loadedTime': 12882.100000023842, 'positionName': 'RIGHT', 'positionCoords': [532.48, 83], 'bid': 0.93}]",102014.5,1669835345295,sweetpotato,burrito,1.95,0.93,-1.02,sweetpotato,1455.4000000357628,1456,1455.7000000476837,True,u,103982.90000003576,1968.4000000357628,1669835347264,1969,HRV,HRV_0192,2022-11-30 19:12:12
58,"[{'imgObject': {}, 'id': 'rigatoni', 'src': '/static/foodstim60/rigatoni.jpg', 'key': 'u', 'origWidth': 411, 'origHeight': 411, 'width': 411, 'height': 411, 'widthPercent': 0.45, 'rescaleHeight': False, 'trialN': 58, 'loaded': True, 'loadedTime': 12541.800000011921, 'positionName': 'LEFT', 'positionCoords': [80.52, 82.5], 'bid': 2.36}, {'imgObject': {}, 'id': 'sushi w_condiments', 'src': '/static/foodstim60/sushi w_condiments.jpg', 'key': 'i', 'origWidth': 410, 'origHeight': 410, 'width': 410, 'height': 410, 'widthPercent': 0.45, 'rescaleHeight': False, 'trialN': 58, 'loaded': True, 'loadedTime': 13355.300000011921, 'positionName': 'RIGHT', 'positionCoords': [532.48, 83], 'bid': 0.64}]",103983.20000004768,1669835347264,rigatoni,sushi w_condiments,2.36,0.64,-1.7199999999999998,rigatoni,983.5,984,984.0,True,u,105485.5,1502.2999999523163,1669835348767,1503,HRV,HRV_0192,2022-11-30 19:12:12
59,"[{'imgObject': {}, 'id': 'Grapes', 'src': '/static/foodstim60/Grapes.jpg', 'key': 'u', 'origWidth': 411, 'origHeight': 411, 'width': 411, 'height': 411, 'widthPercent': 0.45, 'rescaleHeight': False, 'trialN': 59, 'loaded': True, 'loadedTime': 12741.200000047684, 'positionName': 'LEFT', 'positionCoords': [80.52, 82.5], 'bid': 7.73}, {'imgObject': {}, 'id': 'mango', 'src': '/static/foodstim60/mango.jpg', 'key': 'i', 'origWidth': 411, 'origHeight': 411, 'width': 411, 'height': 411, 'widthPercent': 0.45, 'rescaleHeight': False, 'trialN': 59, 'loaded': True, 'loadedTime': 13783.600000023842, 'positionName': 'RIGHT', 'positionCoords': [532.48, 82.5], 'bid': 7.2}]",105485.80000001192,1669835348767,Grapes,mango,7.73,7.2,-0.5300000000000002,Grapes,881.1000000238419,881,881.6000000238419,True,u,106874.10000002384,1388.300000011921,1669835350155,1388,HRV,HRV_0192,2022-11-30 19:12:12
60,"[{'imgObject': {}, 'id': 'cherries', 'src': '/static/foodstim60/cherries.jpg', 'key': 'u', 'origWidth': 410, 'origHeight': 411, 'width': 410, 'height': 411, 'widthPercent': 0.45, 'rescaleHeight': False, 'trialN': 60, 'loaded': True, 'loadedTime': 12198.300000011921, 'positionName': 'LEFT', 'positionCoords': [81.52, 82.5], 'bid': 7.46}, {'imgObject': {}, 'id': 'yogurt no spoon', 'src': '/static/foodstim60/yogurt no spoon.jpg', 'key': 'i', 'origWidth': 411, 'origHeight': 410, 'width': 411, 'height': 410, 'widthPercent': 0.45, 'rescaleHeight': False, 'trialN': 60, 'loaded': True, 'loadedTime': 13710.600000023842, 'positionName': 'RIGHT', 'positionCoords': [532.48, 83], 'bid': 7.08}]",106874.30000001192,1669835350155,cherries,yogurt no spoon,7.46,7.08,-0.3799999999999999,yogurt no spoon,843.9000000357628,845,844.5,True,i,108226.20000004768,1351.9000000357628,1669835351507,1352,HRV,HRV_0192,2022-11-30 19:12:12
61,"[{'imgObject': {}, 'id': 'hashbrowns', 'src': '/static/foodstim60/hashbrowns.jpg', 'key': 'u', 'origWidth': 411, 'origHeight': 410, 'width': 411, 'height': 410, 'widthPercent': 0.45, 'rescaleHeight': False, 'trialN': 61, 'loaded': True, 'loadedTime': 13248.5, 'positionName': 'LEFT', 'positionCoords': [80.52, 83], 'bid': 0.7000000000000001}, {'imgObject': {}, 'id': 'grilled chicken strips', 'src': '/static/foodstim60/grilled chicken strips.jpg', 'key': 'i', 'origWidth': 410, 'origHeight': 411, 'width': 410, 'height': 411, 'widthPercent': 0.45, 'rescaleHeight': False, 'trialN': 61, 'loaded': True, 'loadedTime': 13748.300000011921, 'positionName': 'RIGHT', 'positionCoords': [532.48, 82.5], 'bid': 1.62}]",108226.40000003576,1669835351507,hashbrowns,grilled chicken strips,0.7000000000000001,1.62,0.92,grilled chicken strips,780.3000000119209,781,780.5999999642372,True,i,109510.0,1283.5999999642372,1669835352791,1284,HRV,HRV_0192,2022-11-30 19:12:12
62,"[{'imgObject': {}, 'id': 'salmon', 'src': '/static/foodstim60/salmon.jpg', 'key': 'u', 'origWidth': 410, 'origHeight': 409, 'width': 410, 'height': 409, 'widthPercent': 0.45, 'rescaleHeight': False, 'trialN': 62, 'loaded': True, 'loadedTime': 13742.600000023842, 'positionName': 'LEFT', 'positionCoords': [81.52, 83.5], 'bid': 1.77}, {'imgObject': {}, 'id': 'sweetpotato', 'src': '/static/foodstim60/sweetpotato.jpg', 'key': 'i', 'origWidth': 410, 'origHeight': 410, 'width': 410, 'height': 410, 'widthPercent': 0.45, 'rescaleHeight': False, 'trialN': 62, 'loaded': True, 'loadedTime': 13064.5, 'positionName': 'RIGHT', 'positionCoords': [532.48, 83], 'bid': 1.95}]",109510.30000001192,1669835352791,salmon,sweetpotato,1.77,1.95,0.17999999999999994,salmon,888.5,889,889.0,True,u,110919.0,1408.699999988079,1669835354200,1409,HRV,HRV_0192,2022-11-30 19:12:12
63,"[{'imgObject': {}, 'id': 'hotdog w must', 'src': '/static/foodstim60/hotdog w must.jpg', 'key': 'u', 'origWidth': 409, 'origHeight': 409, 'width': 409, 'height': 409, 'widthPercent': 0.45, 'rescaleHeight': False, 'trialN': 63, 'loaded': True, 'loadedTime': 12727.300000011921, 'positionName': 'LEFT', 'positionCoords': [82.52, 83.5], 'bid': 0.03}, {'imgObject': {}, 'id': 'olives', 'src': '/static/foodstim60/olives.jpg', 'key': 'i', 'origWidth': 410, 'origHeight': 410, 'width': 410, 'height': 410, 'widthPercent': 0.45, 'rescaleHeight': False, 'trialN': 63, 'loaded': True, 'loadedTime': 13060.700000047684, 'positionName': 'RIGHT', 'positionCoords': [532.48, 83], 'bid': 0.15}]",110919.20000004768,1669835354200,hotdog w must,olives,0.03,0.15,0.12,hotdog w must,1022.6999999880791,1023,1023.0999999642372,True,u,112474.20000004768,1555.0,1669835355755,1555,HRV,HRV_0192,2022-11-30 19:12:12
64,"[{'imgObject': {}, 'id': 'shreddedwheatwithmilk', 'src': '/static/foodstim60/shreddedwheatwithmilk.jpg', 'key': 'u', 'origWidth': 410, 'origHeight': 410, 'width': 410, 'height': 410, 'widthPercent': 0.45, 'rescaleHeight': False, 'trialN': 64, 'loaded': True, 'loadedTime': 12553.300000011921, 'positionName': 'LEFT', 'positionCoords': [81.52, 83], 'bid': 3.26}, {'imgObject': {}, 'id': 'burrito', 'src': '/static/foodstim60/burrito.jpg', 'key': 'i', 'origWidth': 410, 'origHeight': 410, 'width': 410, 'height': 410, 'widthPercent': 0.45, 'rescaleHeight': False, 'trialN': 64, 'loaded': True, 'loadedTime': 12882.100000023842, 'positionName': 'RIGHT', 'positionCoords': [532.48, 83], 'bid': 0.93}]",112474.40000003576,1669835355755,shreddedwheatwithmilk,burrito,3.26,0.93,-2.3299999999999996,burrito,883.6999999880791,884,884.0,True,i,113871.60000002384,1397.199999988079,1669835357153,1398,HRV,HRV_0192,2022-11-30 19:12:12
65,"[{'imgObject': {}, 'id': 'Tribe humus pita', 'src': '/static/foodstim60/Tribe humus pita.jpg', 'key': 'u', 'origWidth': 411, 'origHeight': 411, 'width': 411, 'height': 411, 'widthPercent': 0.45, 'rescaleHeight': False, 'trialN': 65, 'loaded': True, 'loadedTime': 13532.5, 'positionName': 'LEFT', 'positionCoords': [80.52, 82.5], 'bid': 4.55}, {'imgObject': {}, 'id': 'luckycharms', 'src': '/static/foodstim60/luckycharms.jpg', 'key': 'i', 'origWidth': 410, 'origHeight': 409, 'width': 410, 'height': 409, 'widthPercent': 0.45, 'rescaleHeight': False, 'trialN': 65, 'loaded': True, 'loadedTime': 12636.800000011921, 'positionName': 'RIGHT', 'positionCoords': [532.48, 83.5], 'bid': 3.43}]",113871.80000001192,1669835357153,Tribe humus pita,luckycharms,4.55,3.43,-1.1199999999999997,luckycharms,846.3000000119209,847,846.8000000119209,True,i,115238.70000004768,1366.9000000357628,1669835358520,1367,HRV,HRV_0192,2022-11-30 19:12:12
66,"[{'imgObject': {}, 'id': 'salmon', 'src': '/static/foodstim60/salmon.jpg', 'key': 'u', 'origWidth': 410, 'origHeight': 409, 'width': 410, 'height': 409, 'widthPercent': 0.45, 'rescaleHeight': False, 'trialN': 66, 'loaded': True, 'loadedTime': 13742.300000011921, 'positionName': 'LEFT', 'positionCoords': [81.52, 83.5], 'bid': 1.77}, {'imgObject': {}, 'id': 'seaweed', 'src': '/static/foodstim60/seaweed.jpg', 'key': 'i', 'origWidth': 410, 'origHeight': 410, 'width': 410, 'height': 410, 'widthPercent': 0.45, 'rescaleHeight': False, 'trialN': 66, 'loaded': True, 'loadedTime': 12753.400000035763, 'positionName': 'RIGHT', 'positionCoords': [532.48, 83], 'bid': 0.87}]",115238.90000003576,1669835358520,salmon,seaweed,1.77,0.87,-0.9,salmon,1039.0999999642372,1039,1039.5,True,u,116793.30000001192,1554.3999999761581,1669835360074,1554,HRV,HRV_0192,2022-11-30 19:12:12
67,"[{'imgObject': {}, 'id': 'apple slices', 'src': '/static/foodstim60/apple slices.jpg', 'key': 'u', 'origWidth': 409, 'origHeight': 410, 'width': 409, 'height': 410, 'widthPercent': 0.45, 'rescaleHeight': False, 'trialN': 67, 'loaded': True, 'loadedTime': 13648.200000047684, 'positionName': 'LEFT', 'positionCoords': [82.52, 83], 'bid': 6.79}, {'imgObject': {}, 'id': 'edamame', 'src': '/static/foodstim60/edamame.jpg', 'key': 'i', 'origWidth': 409, 'origHeight': 410, 'width': 409, 'height': 410, 'widthPercent': 0.45, 'rescaleHeight': False, 'trialN': 67, 'loaded': True, 'loadedTime': 13642.700000047684, 'positionName': 'RIGHT', 'positionCoords': [532.48, 83], 'bid': 1.19}]",116793.60000002384,1669835360074,apple slices,edamame,6.79,1.19,-5.6,apple slices,853.5,854,853.8999999761581,True,u,118166.40000003576,1372.800000011921,1669835361447,1373,HRV,HRV_0192,2022-11-30 19:12:12
68,"[{'imgObject': {}, 'id': 'cherry tomato', 'src': '/static/foodstim60/cherry tomato.jpg', 'key': 'u', 'origWidth': 410, 'origHeight': 410, 'width': 410, 'height': 410, 'widthPercent': 0.45, 'rescaleHeight': False, 'trialN': 68, 'loaded': True, 'loadedTime': 12331.900000035763, 'positionName': 'LEFT', 'positionCoords': [81.52, 83], 'bid': 1.21}, {'imgObject': {}, 'id': 'cocktailshrimp', 'src': '/static/foodstim60/cocktailshrimp.jpg', 'key': 'i', 'origWidth': 410, 'origHeight': 410, 'width': 410, 'height': 410, 'widthPercent': 0.45, 'rescaleHeight': False, 'trialN': 68, 'loaded': True, 'loadedTime': 12875, 'positionName': 'RIGHT', 'positionCoords': [532.48, 83], 'bid': 6.95}]",118166.60000002384,1669835361448,cherry tomato,cocktailshrimp,1.21,6.95,5.74,cocktailshrimp,1111.5,1111,1111.800000011921,True,i,119802.20000004768,1635.6000000238419,1669835363083,1635,HRV,HRV_0192,2022-11-30 19:12:12
69,"[{'imgObject': {}, 'id': 'eggsalad', 'src': '/static/foodstim60/eggsalad.jpg', 'key': 'u', 'origWidth': 410, 'origHeight': 409, 'width': 410, 'height': 409, 'widthPercent': 0.45, 'rescaleHeight': False, 'trialN': 69, 'loaded': True, 'loadedTime': 13522.100000023842, 'positionName': 'LEFT', 'positionCoords': [81.52, 83.5], 'bid': 4.84}, {'imgObject': {}, 'id': 'cantaloupe', 'src': '/static/foodstim60/cantaloupe.jpg', 'key': 'i', 'origWidth': 409, 'origHeight': 409, 'width': 409, 'height': 409, 'widthPercent': 0.45, 'rescaleHeight': False, 'trialN': 69, 'loaded': True, 'loadedTime': 13739.900000035763, 'positionName': 'RIGHT', 'positionCoords': [532.48, 83.5], 'bid': 8.43}]",119802.40000003576,1669835363083,eggsalad,cantaloupe,4.84,8.43,3.59,eggsalad,1075.5999999642372,1076,1076.0999999642372,True,u,121401.80000001192,1599.3999999761581,1669835364683,1600,HRV,HRV_0192,2022-11-30 19:12:12
70,"[{'imgObject': {}, 'id': 'cocktailshrimp', 'src': '/static/foodstim60/cocktailshrimp.jpg', 'key': 'u', 'origWidth': 410, 'origHeight': 410, 'width': 410, 'height': 410, 'widthPercent': 0.45, 'rescaleHeight': False, 'trialN': 70, 'loaded': True, 'loadedTime': 12876.700000047684, 'positionName': 'LEFT', 'positionCoords': [81.52, 83], 'bid': 6.95}, {'imgObject': {}, 'id': 'yogurt no spoon', 'src': '/static/foodstim60/yogurt no spoon.jpg', 'key': 'i', 'origWidth': 411, 'origHeight': 410, 'width': 411, 'height': 410, 'widthPercent': 0.45, 'rescaleHeight': False, 'trialN': 70, 'loaded': True, 'loadedTime': 13708.800000011921, 'positionName': 'RIGHT', 'positionCoords': [532.48, 83], 'bid': 7.08}]",121402.0,1669835364683,cocktailshrimp,yogurt no spoon,6.95,7.08,0.1299999999999999,cocktailshrimp,1628.0,1628,1628.300000011921,True,u,123551.80000001192,2149.800000011921,1669835366833,2150,HRV,HRV_0192,2022-11-30 19:12:12
71,"[{'imgObject': {}, 'id': 'steak', 'src': '/static/foodstim60/steak.jpg', 'key': 'u', 'origWidth': 410, 'origHeight': 410, 'width': 410, 'height': 410, 'widthPercent': 0.45, 'rescaleHeight': False, 'trialN': 71, 'loaded': True, 'loadedTime': 13713.600000023842, 'positionName': 'LEFT', 'positionCoords': [81.52, 83], 'bid': 8.370000000000001}, {'imgObject': {}, 'id': 'popsicles', 'src': '/static/foodstim60/popsicles.jpg', 'key': 'i', 'origWidth': 410, 'origHeight': 410, 'width': 410, 'height': 410, 'widthPercent': 0.45, 'rescaleHeight': False, 'trialN': 71, 'loaded': True, 'loadedTime': 12560.800000011921, 'positionName': 'RIGHT', 'positionCoords': [532.48, 83], 'bid': 8.16}]",123551.90000003576,1669835366833,steak,popsicles,8.370000000000001,8.16,-0.21000000000000085,steak,726.3999999761581,727,726.6999999880791,True,u,124803.80000001192,1251.8999999761581,1669835368085,1252,HRV,HRV_0192,2022-11-30 19:12:12
72,"[{'imgObject': {}, 'id': 'cherries', 'src': '/static/foodstim60/cherries.jpg', 'key': 'u', 'origWidth': 410, 'origHeight': 411, 'width': 410, 'height': 411, 'widthPercent': 0.45, 'rescaleHeight': False, 'trialN': 72, 'loaded': True, 'loadedTime': 12199.600000023842, 'positionName': 'LEFT', 'positionCoords': [81.52, 82.5], 'bid': 7.46}, {'imgObject': {}, 'id': 'cheerios', 'src': '/static/foodstim60/cheerios.jpg', 'key': 'i', 'origWidth': 409, 'origHeight': 410, 'width': 409, 'height': 410, 'widthPercent': 0.45, 'rescaleHeight': False, 'trialN': 72, 'loaded': True, 'loadedTime': 12845.100000023842, 'positionName': 'RIGHT', 'positionCoords': [532.48, 83], 'bid': 2.32}]",124804.0,1669835368085,cherries,cheerios,7.46,2.32,-5.140000000000001,cherries,842.3000000119209,843,842.6000000238419,True,u,126151.90000003576,1347.9000000357628,1669835369433,1348,HRV,HRV_0192,2022-11-30 19:12:12
73,"[{'imgObject': {}, 'id': 'burrito', 'src': '/static/foodstim60/burrito.jpg', 'key': 'u', 'origWidth': 410, 'origHeight': 410, 'width': 410, 'height': 410, 'widthPercent': 0.45, 'rescaleHeight': False, 'trialN': 73, 'loaded': True, 'loadedTime': 12882.400000035763, 'positionName': 'LEFT', 'positionCoords': [81.52, 83], 'bid': 0.93}, {'imgObject': {}, 'id': 'edamame', 'src': '/static/foodstim60/edamame.jpg', 'key': 'i', 'origWidth': 409, 'origHeight': 410, 'width': 409, 'height': 410, 'widthPercent': 0.45, 'rescaleHeight': False, 'trialN': 73, 'loaded': True, 'loadedTime': 13642.900000035763, 'positionName': 'RIGHT', 'positionCoords': [532.48, 83], 'bid': 1.19}]",126152.10000002384,1669835369433,burrito,edamame,0.93,1.19,0.2599999999999999,burrito,798.1000000238419,797,798.5,True,u,127471.70000004768,1319.6000000238419,1669835370751,1318,HRV,HRV_0192,2022-11-30 19:12:12
74,"[{'imgObject': {}, 'id': 'ice cream sundae 002', 'src': '/static/foodstim60/ice cream sundae 002.jpg', 'key': 'u', 'origWidth': 409, 'origHeight': 409, 'width': 409, 'height': 409, 'widthPercent': 0.45, 'rescaleHeight': False, 'trialN': 74, 'loaded': True, 'loadedTime': 13359.400000035763, 'positionName': 'LEFT', 'positionCoords': [82.52, 83.5], 'bid': 6.11}, {'imgObject': {}, 'id': 'bagel plain', 'src': '/static/foodstim60/bagel plain.jpg', 'key': 'i', 'origWidth': 410, 'origHeight': 410, 'width': 410, 'height': 410, 'widthPercent': 0.45, 'rescaleHeight': False, 'trialN': 74, 'loaded': True, 'loadedTime': 13541.900000035763, 'positionName': 'RIGHT', 'positionCoords': [532.48, 83], 'bid': 6.19}]",127471.90000003576,1669835370751,ice cream sundae 002,bagel plain,6.11,6.19,0.08000000000000007,ice cream sundae 002,998.3999999761581,999,998.8000000119209,True,u,128992.0,1520.0999999642372,1669835372271,1520,HRV,HRV_0192,2022-11-30 19:12:12
75,"[{'imgObject': {}, 'id': 'tacos', 'src': '/static/foodstim60/tacos.jpg', 'key': 'u', 'origWidth': 411, 'origHeight': 411, 'width': 411, 'height': 411, 'widthPercent': 0.45, 'rescaleHeight': False, 'trialN': 75, 'loaded': True, 'loadedTime': 13453.5, 'positionName': 'LEFT', 'positionCoords': [80.52, 82.5], 'bid': 8.45}, {'imgObject': {}, 'id': 'strawberries', 'src': '/static/foodstim60/strawberries.jpg', 'key': 'i', 'origWidth': 410, 'origHeight': 410, 'width': 410, 'height': 410, 'widthPercent': 0.45, 'rescaleHeight': False, 'trialN': 75, 'loaded': True, 'loadedTime': 13729.200000047684, 'positionName': 'RIGHT', 'positionCoords': [532.48, 83], 'bid': 8.16}]",128992.20000004768,1669835372272,tacos,strawberries,8.45,8.16,-0.28999999999999915,tacos,830.2999999523163,831,830.8999999761581,True,u,130332.20000004768,1340.0,1669835373612,1340,HRV,HRV_0192,2022-11-30 19:12:12
76,"[{'imgObject': {}, 'id': 'rigatoni', 'src': '/static/foodstim60/rigatoni.jpg', 'key': 'u', 'origWidth': 411, 'origHeight': 411, 'width': 411, 'height': 411, 'widthPercent': 0.45, 'rescaleHeight': False, 'trialN': 76, 'loaded': True, 'loadedTime': 12542, 'positionName': 'LEFT', 'positionCoords': [80.52, 82.5], 'bid': 2.36}, {'imgObject': {}, 'id': 'edamame', 'src': '/static/foodstim60/edamame.jpg', 'key': 'i', 'origWidth': 409, 'origHeight': 410, 'width': 409, 'height': 410, 'widthPercent': 0.45, 'rescaleHeight': False, 'trialN': 76, 'loaded': True, 'loadedTime': 13643, 'positionName': 'RIGHT', 'positionCoords': [532.48, 83], 'bid': 1.19}]",130332.30000001192,1669835373612,rigatoni,edamame,2.36,1.19,-1.17,rigatoni,865.8000000119209,866,866.1999999880791,True,u,131717.20000004768,1384.9000000357628,1669835374997,1385,HRV,HRV_0192,2022-11-30 19:12:12
77,"[{'imgObject': {}, 'id': 'omelette', 'src': '/static/foodstim60/omelette.jpg', 'key': 'u', 'origWidth': 410, 'origHeight': 409, 'width': 410, 'height': 409, 'widthPercent': 0.45, 'rescaleHeight': False, 'trialN': 77, 'loaded': True, 'loadedTime': 13715.900000035763, 'positionName': 'LEFT', 'positionCoords': [81.52, 83.5], 'bid': 7.42}, {'imgObject': {}, 'id': 'cocktailshrimp', 'src': '/static/foodstim60/cocktailshrimp.jpg', 'key': 'i', 'origWidth': 410, 'origHeight': 410, 'width': 410, 'height': 410, 'widthPercent': 0.45, 'rescaleHeight': False, 'trialN': 77, 'loaded': True, 'loadedTime': 12876.300000011921, 'positionName': 'RIGHT', 'positionCoords': [532.48, 83], 'bid': 6.95}]",131717.40000003576,1669835374997,omelette,cocktailshrimp,7.42,6.95,-0.46999999999999975,omelette,809.0999999642372,809,809.5999999642372,True,u,133035.40000003576,1318.0,1669835376315,1318,HRV,HRV_0192,2022-11-30 19:12:12
78,"[{'imgObject': {}, 'id': 'veggieswithdip', 'src': '/static/foodstim60/veggieswithdip.jpg', 'key': 'u', 'origWidth': 409, 'origHeight': 409, 'width': 409, 'height': 409, 'widthPercent': 0.45, 'rescaleHeight': False, 'trialN': 78, 'loaded': True, 'loadedTime': 13148.100000023842, 'positionName': 'LEFT', 'positionCoords': [82.52, 83.5], 'bid': 5}, {'imgObject': {}, 'id': 'luckycharms', 'src': '/static/foodstim60/luckycharms.jpg', 'key': 'i', 'origWidth': 410, 'origHeight': 409, 'width': 410, 'height': 409, 'widthPercent': 0.45, 'rescaleHeight': False, 'trialN': 78, 'loaded': True, 'loadedTime': 12634.600000023842, 'positionName': 'RIGHT', 'positionCoords': [532.48, 83.5], 'bid': 3.43}]",133035.60000002384,1669835376315,veggieswithdip,luckycharms,5.0,3.43,-1.5699999999999998,veggieswithdip,802.8999999761581,803,803.3000000119209,True,u,134355.30000001192,1319.699999988079,1669835377635,1320,HRV,HRV_0192,2022-11-30 19:12:12
79,"[{'imgObject': {}, 'id': 'turkey sandwich', 'src': '/static/foodstim60/turkey sandwich.jpg', 'key': 'u', 'origWidth': 409, 'origHeight': 409, 'width': 409, 'height': 409, 'widthPercent': 0.45, 'rescaleHeight': False, 'trialN': 79, 'loaded': True, 'loadedTime': 12316, 'positionName': 'LEFT', 'positionCoords': [82.52, 83.5], 'bid': 8.08}, {'imgObject': {}, 'id': 'shreddedwheatwithmilk', 'src': '/static/foodstim60/shreddedwheatwithmilk.jpg', 'key': 'i', 'origWidth': 410, 'origHeight': 410, 'width': 410, 'height': 410, 'widthPercent': 0.45, 'rescaleHeight': False, 'trialN': 79, 'loaded': True, 'loadedTime': 12552.700000047684, 'positionName': 'RIGHT', 'positionCoords': [532.48, 83], 'bid': 3.26}]",134355.60000002384,1669835377635,turkey sandwich,shreddedwheatwithmilk,8.08,3.26,-4.82,turkey sandwich,667.1999999880791,668,667.8999999761581,True,u,135527.60000002384,1172.0,1669835378807,1172,HRV,HRV_0192,2022-11-30 19:12:12
80,"[{'imgObject': {}, 'id': 'grilled chicken strips', 'src': '/static/foodstim60/grilled chicken strips.jpg', 'key': 'u', 'origWidth': 410, 'origHeight': 411, 'width': 410, 'height': 411, 'widthPercent': 0.45, 'rescaleHeight': False, 'trialN': 80, 'loaded': True, 'loadedTime': 13747, 'positionName': 'LEFT', 'positionCoords': [81.52, 82.5], 'bid': 1.62}, {'imgObject': {}, 'id': 'eggs', 'src': '/static/foodstim60/eggs.jpg', 'key': 'i', 'origWidth': 409, 'origHeight': 409, 'width': 409, 'height': 409, 'widthPercent': 0.45, 'rescaleHeight': False, 'trialN': 80, 'loaded': True, 'loadedTime': 13753.900000035763, 'positionName': 'RIGHT', 'positionCoords': [532.48, 83.5], 'bid': 4.76}]",135528.10000002384,1669835378807,grilled chicken strips,eggs,1.62,4.76,3.1399999999999997,grilled chicken strips,934.6000000238419,936,935.1000000238419,True,u,136980.20000004768,1452.1000000238419,1669835380260,1453,HRV,HRV_0192,2022-11-30 19:12:12
81,"[{'imgObject': {}, 'id': 'burrito', 'src': '/static/foodstim60/burrito.jpg', 'key': 'u', 'origWidth': 410, 'origHeight': 410, 'width': 410, 'height': 410, 'widthPercent': 0.45, 'rescaleHeight': False, 'trialN': 81, 'loaded': True, 'loadedTime': 12880.700000047684, 'positionName': 'LEFT', 'positionCoords': [81.52, 83], 'bid': 0.93}, {'imgObject': {}, 'id': 'seaweed', 'src': '/static/foodstim60/seaweed.jpg', 'key': 'i', 'origWidth': 410, 'origHeight': 410, 'width': 410, 'height': 410, 'widthPercent': 0.45, 'rescaleHeight': False, 'trialN': 81, 'loaded': True, 'loadedTime': 12755.300000011921, 'positionName': 'RIGHT', 'positionCoords': [532.48, 83], 'bid': 0.87}]",136980.40000003576,1669835380260,burrito,seaweed,0.93,0.87,-0.06000000000000005,burrito,826.3000000119209,827,826.8000000119209,True,u,138316.80000001192,1336.3999999761581,1669835381596,1336,HRV,HRV_0192,2022-11-30 19:12:12
82,"[{'imgObject': {}, 'id': 'cantaloupe', 'src': '/static/foodstim60/cantaloupe.jpg', 'key': 'u', 'origWidth': 409, 'origHeight': 409, 'width': 409, 'height': 409, 'widthPercent': 0.45, 'rescaleHeight': False, 'trialN': 82, 'loaded': True, 'loadedTime': 13737.100000023842, 'positionName': 'LEFT', 'positionCoords': [82.52, 83.5], 'bid': 8.43}, {'imgObject': {}, 'id': 'pear', 'src': '/static/foodstim60/pear.jpg', 'key': 'i', 'origWidth': 411, 'origHeight': 410, 'width': 411, 'height': 410, 'widthPercent': 0.45, 'rescaleHeight': False, 'trialN': 82, 'loaded': True, 'loadedTime': 13761, 'positionName': 'RIGHT', 'positionCoords': [532.48, 83], 'bid': 7.22}]",138317.0,1669835381596,cantaloupe,pear,8.43,7.22,-1.21,cantaloupe,1129.2000000476837,1130,1129.6000000238419,True,u,139957.40000003576,1640.4000000357628,1669835383237,1641,HRV,HRV_0192,2022-11-30 19:12:12
83,"[{'imgObject': {}, 'id': 'sushi w_condiments', 'src': '/static/foodstim60/sushi w_condiments.jpg', 'key': 'u', 'origWidth': 410, 'origHeight': 410, 'width': 410, 'height': 410, 'widthPercent': 0.45, 'rescaleHeight': False, 'trialN': 83, 'loaded': True, 'loadedTime': 13355.900000035763, 'positionName': 'LEFT', 'positionCoords': [81.52, 83], 'bid': 0.64}, {'imgObject': {}, 'id': 'ice cream sundae 002', 'src': '/static/foodstim60/ice cream sundae 002.jpg', 'key': 'i', 'origWidth': 409, 'origHeight': 409, 'width': 409, 'height': 409, 'widthPercent': 0.45, 'rescaleHeight': False, 'trialN': 83, 'loaded': True, 'loadedTime': 13357.600000023842, 'positionName': 'RIGHT', 'positionCoords': [532.48, 83.5], 'bid': 6.11}]",139957.60000002384,1669835383237,sushi w_condiments,ice cream sundae 002,0.64,6.11,5.470000000000001,ice cream sundae 002,913.1000000238419,914,913.6000000238419,True,i,141376.5,1418.8999999761581,1669835384656,1419,HRV,HRV_0192,2022-11-30 19:12:12
84,"[{'imgObject': {}, 'id': 'veggieswithdip', 'src': '/static/foodstim60/veggieswithdip.jpg', 'key': 'u', 'origWidth': 409, 'origHeight': 409, 'width': 409, 'height': 409, 'widthPercent': 0.45, 'rescaleHeight': False, 'trialN': 84, 'loaded': True, 'loadedTime': 13147.900000035763, 'positionName': 'LEFT', 'positionCoords': [82.52, 83.5], 'bid': 5}, {'imgObject': {}, 'id': 'olives', 'src': '/static/foodstim60/olives.jpg', 'key': 'i', 'origWidth': 410, 'origHeight': 410, 'width': 410, 'height': 410, 'widthPercent': 0.45, 'rescaleHeight': False, 'trialN': 84, 'loaded': True, 'loadedTime': 13062.200000047684, 'positionName': 'RIGHT', 'positionCoords': [532.48, 83], 'bid': 0.15}]",141376.80000001192,1669835384656,veggieswithdip,olives,5.0,0.15,-4.85,veggieswithdip,822.1000000238419,823,822.6999999880791,True,u,142709.10000002384,1332.300000011921,1669835385988,1332,HRV,HRV_0192,2022-11-30 19:12:12
85,"[{'imgObject': {}, 'id': 'yogurt no spoon', 'src': '/static/foodstim60/yogurt no spoon.jpg', 'key': 'u', 'origWidth': 411, 'origHeight': 410, 'width': 411, 'height': 410, 'widthPercent': 0.45, 'rescaleHeight': False, 'trialN': 85, 'loaded': True, 'loadedTime': 13710.800000011921, 'positionName': 'LEFT', 'positionCoords': [80.52, 83], 'bid': 7.08}, {'imgObject': {}, 'id': 'raisin bran w milk', 'src': '/static/foodstim60/raisin bran w milk.jpg', 'key': 'i', 'origWidth': 411, 'origHeight': 411, 'width': 411, 'height': 411, 'widthPercent': 0.45, 'rescaleHeight': False, 'trialN': 85, 'loaded': True, 'loadedTime': 13033.100000023842, 'positionName': 'RIGHT', 'positionCoords': [532.48, 82.5], 'bid': 4.94}]",142709.20000004768,1669835385989,yogurt no spoon,raisin bran w milk,7.08,4.94,-2.1399999999999997,yogurt no spoon,784.6999999880791,785,784.8999999761581,True,u,144000.20000004768,1291.0,1669835387280,1291,HRV,HRV_0192,2022-11-30 19:12:12
86,"[{'imgObject': {}, 'id': 'eggs', 'src': '/static/foodstim60/eggs.jpg', 'key': 'u', 'origWidth': 409, 'origHeight': 409, 'width': 409, 'height': 409, 'widthPercent': 0.45, 'rescaleHeight': False, 'trialN': 86, 'loaded': True, 'loadedTime': 13752.300000011921, 'positionName': 'LEFT', 'positionCoords': [82.52, 83.5], 'bid': 4.76}, {'imgObject': {}, 'id': 'eggsalad', 'src': '/static/foodstim60/eggsalad.jpg', 'key': 'i', 'origWidth': 410, 'origHeight': 409, 'width': 410, 'height': 409, 'widthPercent': 0.45, 'rescaleHeight': False, 'trialN': 86, 'loaded': True, 'loadedTime': 13522.5, 'positionName': 'RIGHT', 'positionCoords': [532.48, 83.5], 'bid': 4.84}]",144000.40000003576,1669835387280,eggs,eggsalad,4.76,4.84,0.08000000000000007,eggsalad,893.5,894,893.8000000119209,True,i,145399.5,1399.0999999642372,1669835388679,1399,HRV,HRV_0192,2022-11-30 19:12:12
87,"[{'imgObject': {}, 'id': 'sushi w_condiments', 'src': '/static/foodstim60/sushi w_condiments.jpg', 'key': 'u', 'origWidth': 410, 'origHeight': 410, 'width': 410, 'height': 410, 'widthPercent': 0.45, 'rescaleHeight': False, 'trialN': 87, 'loaded': True, 'loadedTime': 13355.700000047684, 'positionName': 'LEFT', 'positionCoords': [81.52, 83], 'bid': 0.64}, {'imgObject': {}, 'id': 'hotdog w must', 'src': '/static/foodstim60/hotdog w must.jpg', 'key': 'i', 'origWidth': 409, 'origHeight': 409, 'width': 409, 'height': 409, 'widthPercent': 0.45, 'rescaleHeight': False, 'trialN': 87, 'loaded': True, 'loadedTime': 12736.600000023842, 'positionName': 'RIGHT', 'positionCoords': [532.48, 83.5], 'bid': 0.03}]",145399.70000004768,1669835388679,sushi w_condiments,hotdog w must,0.64,0.03,-0.61,sushi w_condiments,838.5,839,838.8999999761581,True,u,146749.70000004768,1350.0,1669835390029,1350,HRV,HRV_0192,2022-11-30 19:12:12
88,"[{'imgObject': {}, 'id': 'salmon', 'src': '/static/foodstim60/salmon.jpg', 'key': 'u', 'origWidth': 410, 'origHeight': 409, 'width': 410, 'height': 409, 'widthPercent': 0.45, 'rescaleHeight': False, 'trialN': 88, 'loaded': True, 'loadedTime': 13742.900000035763, 'positionName': 'LEFT', 'positionCoords': [81.52, 83.5], 'bid': 1.77}, {'imgObject': {}, 'id': 'cherry tomato', 'src': '/static/foodstim60/cherry tomato.jpg', 'key': 'i', 'origWidth': 410, 'origHeight': 410, 'width': 410, 'height': 410, 'widthPercent': 0.45, 'rescaleHeight': False, 'trialN': 88, 'loaded': True, 'loadedTime': 12330.600000023842, 'positionName': 'RIGHT', 'positionCoords': [532.48, 83], 'bid': 1.21}]",146749.80000001192,1669835390029,salmon,cherry tomato,1.77,1.21,-0.56,salmon,656.1999999880791,657,656.5,True,u,147923.80000001192,1174.0,1669835391203,1174,HRV,HRV_0192,2022-11-30 19:12:12
89,"[{'imgObject': {}, 'id': 'Grapes', 'src': '/static/foodstim60/Grapes.jpg', 'key': 'u', 'origWidth': 411, 'origHeight': 411, 'width': 411, 'height': 411, 'widthPercent': 0.45, 'rescaleHeight': False, 'trialN': 89, 'loaded': True, 'loadedTime': 12741.400000035763, 'positionName': 'LEFT', 'positionCoords': [80.52, 82.5], 'bid': 7.73}, {'imgObject': {}, 'id': 'omelette', 'src': '/static/foodstim60/omelette.jpg', 'key': 'i', 'origWidth': 410, 'origHeight': 409, 'width': 410, 'height': 409, 'widthPercent': 0.45, 'rescaleHeight': False, 'trialN': 89, 'loaded': True, 'loadedTime': 13716, 'positionName': 'RIGHT', 'positionCoords': [532.48, 83.5], 'bid': 7.42}]",147924.0,1669835391203,Grapes,omelette,7.73,7.42,-0.3100000000000005,Grapes,698.7000000476837,699,698.9000000357628,True,u,149132.80000001192,1208.800000011921,1669835392412,1209,HRV,HRV_0192,2022-11-30 19:12:12
90,"[{'imgObject': {}, 'id': 'pear', 'src': '/static/foodstim60/pear.jpg', 'key': 'u', 'origWidth': 411, 'origHeight': 410, 'width': 411, 'height': 410, 'widthPercent': 0.45, 'rescaleHeight': False, 'trialN': 90, 'loaded': True, 'loadedTime': 13759.700000047684, 'positionName': 'LEFT', 'positionCoords': [80.52, 83], 'bid': 7.22}, {'imgObject': {}, 'id': 'mango', 'src': '/static/foodstim60/mango.jpg', 'key': 'i', 'origWidth': 411, 'origHeight': 411, 'width': 411, 'height': 411, 'widthPercent': 0.45, 'rescaleHeight': False, 'trialN': 90, 'loaded': True, 'loadedTime': 13783.5, 'positionName': 'RIGHT', 'positionCoords': [532.48, 82.5], 'bid': 7.2}]",160464.40000003576,1669835403744,pear,mango,7.22,7.2,-0.019999999999999574,pear,949.8000000119209,950,950.1999999880791,True,u,161922.30000001192,1457.8999999761581,1669835405202,1458,HRV,HRV_0192,2022-11-30 19:12:12
91,"[{'imgObject': {}, 'id': 'cheerios', 'src': '/static/foodstim60/cheerios.jpg', 'key': 'u', 'origWidth': 409, 'origHeight': 410, 'width': 409, 'height': 410, 'widthPercent': 0.45, 'rescaleHeight': False, 'trialN': 91, 'loaded': True, 'loadedTime': 12844.700000047684, 'positionName': 'LEFT', 'positionCoords': [82.52, 83], 'bid': 2.32}, {'imgObject': {}, 'id': 'luckycharms', 'src': '/static/foodstim60/luckycharms.jpg', 'key': 'i', 'origWidth': 410, 'origHeight': 409, 'width': 410, 'height': 409, 'widthPercent': 0.45, 'rescaleHeight': False, 'trialN': 91, 'loaded': True, 'loadedTime': 12637.100000023842, 'positionName': 'RIGHT', 'positionCoords': [532.48, 83.5], 'bid': 3.43}]",161922.60000002384,1669835405202,cheerios,luckycharms,2.32,3.43,1.1100000000000003,luckycharms,931.8999999761581,932,932.3000000119209,True,i,163369.30000001192,1446.699999988079,1669835406649,1447,HRV,HRV_0192,2022-11-30 19:12:12
92,"[{'imgObject': {}, 'id': 'kiwi', 'src': '/static/foodstim60/kiwi.jpg', 'key': 'u', 'origWidth': 410, 'origHeight': 410, 'width': 410, 'height': 410, 'widthPercent': 0.45, 'rescaleHeight': False, 'trialN': 92, 'loaded': True, 'loadedTime': 12212.700000047684, 'positionName': 'LEFT', 'positionCoords': [81.52, 83], 'bid': 7.85}, {'imgObject': {}, 'id': 'bagel plain', 'src': '/static/foodstim60/bagel plain.jpg', 'key': 'i', 'origWidth': 410, 'origHeight': 410, 'width': 410, 'height': 410, 'widthPercent': 0.45, 'rescaleHeight': False, 'trialN': 92, 'loaded': True, 'loadedTime': 13540.200000047684, 'positionName': 'RIGHT', 'positionCoords': [532.48, 83], 'bid': 6.19}]",163369.5,1669835406649,kiwi,bagel plain,7.85,6.19,-1.6599999999999993,kiwi,740.6000000238419,741,741.2000000476837,True,u,164625.10000002384,1255.6000000238419,1669835407905,1256,HRV,HRV_0192,2022-11-30 19:12:12
93,"[{'imgObject': {}, 'id': 'cantaloupe', 'src': '/static/foodstim60/cantaloupe.jpg', 'key': 'u', 'origWidth': 409, 'origHeight': 409, 'width': 409, 'height': 409, 'widthPercent': 0.45, 'rescaleHeight': False, 'trialN': 93, 'loaded': True, 'loadedTime': 13739.400000035763, 'positionName': 'LEFT', 'positionCoords': [82.52, 83.5], 'bid': 8.43}, {'imgObject': {}, 'id': 'turkey sandwich', 'src': '/static/foodstim60/turkey sandwich.jpg', 'key': 'i', 'origWidth': 409, 'origHeight': 409, 'width': 409, 'height': 409, 'widthPercent': 0.45, 'rescaleHeight': False, 'trialN': 93, 'loaded': True, 'loadedTime': 12315.700000047684, 'positionName': 'RIGHT', 'positionCoords': [532.48, 83.5], 'bid': 8.08}]",164625.40000003576,1669835407905,cantaloupe,turkey sandwich,8.43,8.08,-0.34999999999999964,turkey sandwich,813.3000000119209,814,813.8000000119209,True,i,165953.60000002384,1328.199999988079,1669835409233,1328,HRV,HRV_0192,2022-11-30 19:12:12
94,"[{'imgObject': {}, 'id': 'Tribe humus pita', 'src': '/static/foodstim60/Tribe humus pita.jpg', 'key': 'u', 'origWidth': 411, 'origHeight': 411, 'width': 411, 'height': 411, 'widthPercent': 0.45, 'rescaleHeight': False, 'trialN': 94, 'loaded': True, 'loadedTime': 13532.600000023842, 'positionName': 'LEFT', 'positionCoords': [80.52, 82.5], 'bid': 4.55}, {'imgObject': {}, 'id': 'cherry tomato', 'src': '/static/foodstim60/cherry tomato.jpg', 'key': 'i', 'origWidth': 410, 'origHeight': 410, 'width': 410, 'height': 410, 'widthPercent': 0.45, 'rescaleHeight': False, 'trialN': 94, 'loaded': True, 'loadedTime': 12328.100000023842, 'positionName': 'RIGHT', 'positionCoords': [532.48, 83], 'bid': 1.21}]",165954.10000002384,1669835409233,Tribe humus pita,cherry tomato,4.55,1.21,-3.34,Tribe humus pita,1044.0,1045,1044.300000011921,True,u,167511.30000001192,1557.199999988079,1669835410791,1558,HRV,HRV_0192,2022-11-30 19:12:12
95,"[{'imgObject': {}, 'id': 'avocado', 'src': '/static/foodstim60/avocado.jpg', 'key': 'u', 'origWidth': 409, 'origHeight': 409, 'width': 409, 'height': 409, 'widthPercent': 0.45, 'rescaleHeight': False, 'trialN': 95, 'loaded': True, 'loadedTime': 13769, 'positionName': 'LEFT', 'positionCoords': [82.52, 83.5], 'bid': 9.31}, {'imgObject': {}, 'id': 'bagel and cc', 'src': '/static/foodstim60/bagel and cc.jpg', 'key': 'i', 'origWidth': 410, 'origHeight': 410, 'width': 410, 'height': 410, 'widthPercent': 0.45, 'rescaleHeight': False, 'trialN': 95, 'loaded': True, 'loadedTime': 13627.5, 'positionName': 'RIGHT', 'positionCoords': [532.48, 83], 'bid': 8.08}]",167511.5,1669835410791,avocado,bagel and cc,9.31,8.08,-1.2300000000000004,avocado,958.6000000238419,959,958.9000000357628,True,u,168982.90000003576,1471.4000000357628,1669835412262,1471,HRV,HRV_0192,2022-11-30 19:12:12
96,"[{'imgObject': {}, 'id': 'blueberries', 'src': '/static/foodstim60/blueberries.jpg', 'key': 'u', 'origWidth': 411, 'origHeight': 411, 'width': 411, 'height': 411, 'widthPercent': 0.45, 'rescaleHeight': False, 'trialN': 96, 'loaded': True, 'loadedTime': 13436.400000035763, 'positionName': 'LEFT', 'positionCoords': [80.52, 82.5], 'bid': 7.36}, {'imgObject': {}, 'id': 'mango', 'src': '/static/foodstim60/mango.jpg', 'key': 'i', 'origWidth': 411, 'origHeight': 411, 'width': 411, 'height': 411, 'widthPercent': 0.45, 'rescaleHeight': False, 'trialN': 96, 'loaded': True, 'loadedTime': 13783.700000047684, 'positionName': 'RIGHT', 'positionCoords': [532.48, 82.5], 'bid': 7.2}]",168983.10000002384,1669835412262,blueberries,mango,7.36,7.2,-0.16000000000000014,blueberries,943.3999999761581,945,944.1999999880791,True,u,170442.0,1458.8999999761581,1669835413722,1460,HRV,HRV_0192,2022-11-30 19:12:12
97,"[{'imgObject': {}, 'id': 'blackbeanswithrice', 'src': '/static/foodstim60/blackbeanswithrice.jpg', 'key': 'u', 'origWidth': 410, 'origHeight': 410, 'width': 410, 'height': 410, 'widthPercent': 0.45, 'rescaleHeight': False, 'trialN': 97, 'loaded': True, 'loadedTime': 13722.100000023842, 'positionName': 'LEFT', 'positionCoords': [81.52, 83], 'bid': 2.3000000000000003}, {'imgObject': {}, 'id': 'raisin bran w milk', 'src': '/static/foodstim60/raisin bran w milk.jpg', 'key': 'i', 'origWidth': 411, 'origHeight': 411, 'width': 411, 'height': 411, 'widthPercent': 0.45, 'rescaleHeight': False, 'trialN': 97, 'loaded': True, 'loadedTime': 13035.300000011921, 'positionName': 'RIGHT', 'positionCoords': [532.48, 82.5], 'bid': 4.94}]",170442.30000001192,1669835413722,blackbeanswithrice,raisin bran w milk,2.3000000000000003,4.94,2.64,blackbeanswithrice,723.6000000238419,724,724.0,True,u,171685.40000003576,1243.1000000238419,1669835414965,1243,HRV,HRV_0192,2022-11-30 19:12:12
98,"[{'imgObject': {}, 'id': 'turkeysandwich', 'src': '/static/foodstim60/turkeysandwich.jpg', 'key': 'u', 'origWidth': 409, 'origHeight': 409, 'width': 409, 'height': 409, 'widthPercent': 0.45, 'rescaleHeight': False, 'trialN': 98, 'loaded': True, 'loadedTime': 13049.5, 'positionName': 'LEFT', 'positionCoords': [82.52, 83.5], 'bid': 8.63}, {'imgObject': {}, 'id': 'kiwi', 'src': '/static/foodstim60/kiwi.jpg', 'key': 'i', 'origWidth': 410, 'origHeight': 410, 'width': 410, 'height': 410, 'widthPercent': 0.45, 'rescaleHeight': False, 'trialN': 98, 'loaded': True, 'loadedTime': 12212.400000035763, 'positionName': 'RIGHT', 'positionCoords': [532.48, 83], 'bid': 7.85}]",171685.5,1669835414965,turkeysandwich,kiwi,8.63,7.85,-0.7800000000000011,turkeysandwich,800.9000000357628,801,801.4000000357628,True,u,173004.0,1318.5,1669835416283,1318,HRV,HRV_0192,2022-11-30 19:12:12
99,"[{'imgObject': {}, 'id': 'roastedpotatoes', 'src': '/static/foodstim60/roastedpotatoes.jpg', 'key': 'u', 'origWidth': 409, 'origHeight': 410, 'width': 409, 'height': 410, 'widthPercent': 0.45, 'rescaleHeight': False, 'trialN': 99, 'loaded': True, 'loadedTime': 12879.600000023842, 'positionName': 'LEFT', 'positionCoords': [82.52, 83], 'bid': 2.03}, {'imgObject': {}, 'id': 'banana', 'src': '/static/foodstim60/banana.jpg', 'key': 'i', 'origWidth': 410, 'origHeight': 410, 'width': 410, 'height': 410, 'widthPercent': 0.45, 'rescaleHeight': False, 'trialN': 99, 'loaded': True, 'loadedTime': 12865.300000011921, 'positionName': 'RIGHT', 'positionCoords': [532.48, 83], 'bid': 4.92}]",173004.20000004768,1669835416284,roastedpotatoes,banana,2.03,4.92,2.89,roastedpotatoes,666.0,666,666.5999999642372,True,u,174177.60000002384,1173.3999999761581,1669835417457,1173,HRV,HRV_0192,2022-11-30 19:12:12
100,"[{'imgObject': {}, 'id': 'orange slices', 'src': '/static/foodstim60/orange slices.jpg', 'key': 'u', 'origWidth': 409, 'origHeight': 410, 'width': 409, 'height': 410, 'widthPercent': 0.45, 'rescaleHeight': False, 'trialN': 100, 'loaded': True, 'loadedTime': 13146.700000047684, 'positionName': 'LEFT', 'positionCoords': [82.52, 83], 'bid': 6.5600000000000005}, {'imgObject': {}, 'id': 'granola w milk', 'src': '/static/foodstim60/granola w milk.jpg', 'key': 'i', 'origWidth': 410, 'origHeight': 410, 'width': 410, 'height': 410, 'widthPercent': 0.45, 'rescaleHeight': False, 'trialN': 100, 'loaded': True, 'loadedTime': 13640.800000011921, 'positionName': 'RIGHT', 'positionCoords': [532.48, 83], 'bid': 4.84}]",174177.80000001192,1669835417457,orange slices,granola w milk,6.5600000000000005,4.84,-1.7200000000000006,orange slices,660.8000000119209,661,661.1000000238419,True,u,175356.70000004768,1178.9000000357628,1669835418636,1179,HRV,HRV_0192,2022-11-30 19:12:12
101,"[{'imgObject': {}, 'id': 'raspberries', 'src': '/static/foodstim60/raspberries.jpg', 'key': 'u', 'origWidth': 411, 'origHeight': 411, 'width': 411, 'height': 411, 'widthPercent': 0.45, 'rescaleHeight': False, 'trialN': 101, 'loaded': True, 'loadedTime': 13544.5, 'positionName': 'LEFT', 'positionCoords': [80.52, 82.5], 'bid': 8.41}, {'imgObject': {}, 'id': 'fruitsalad', 'src': '/static/foodstim60/fruitsalad.jpg', 'key': 'i', 'origWidth': 410, 'origHeight': 410, 'width': 410, 'height': 410, 'widthPercent': 0.45, 'rescaleHeight': False, 'trialN': 101, 'loaded': True, 'loadedTime': 12567.200000047684, 'positionName': 'RIGHT', 'positionCoords': [532.48, 83], 'bid': 8.35}]",175357.0,1669835418636,raspberries,fruitsalad,8.41,8.35,-0.0600000000000005,fruitsalad,664.9000000357628,666,665.4000000357628,True,i,176528.60000002384,1171.6000000238419,1669835419808,1172,HRV,HRV_0192,2022-11-30 19:12:12
102,"[{'imgObject': {}, 'id': 'Grapes', 'src': '/static/foodstim60/Grapes.jpg', 'key': 'u', 'origWidth': 411, 'origHeight': 411, 'width': 411, 'height': 411, 'widthPercent': 0.45, 'rescaleHeight': False, 'trialN': 102, 'loaded': True, 'loadedTime': 12738.400000035763, 'positionName': 'LEFT', 'positionCoords': [80.52, 82.5], 'bid': 7.73}, {'imgObject': {}, 'id': 'veggieswithdip', 'src': '/static/foodstim60/veggieswithdip.jpg', 'key': 'i', 'origWidth': 409, 'origHeight': 409, 'width': 409, 'height': 409, 'widthPercent': 0.45, 'rescaleHeight': False, 'trialN': 102, 'loaded': True, 'loadedTime': 13147, 'positionName': 'RIGHT', 'positionCoords': [532.48, 83.5], 'bid': 5}]",176528.90000003576,1669835419808,Grapes,veggieswithdip,7.73,5.0,-2.7300000000000004,Grapes,1061.5999999642372,1063,1062.199999988079,True,u,178097.0,1568.0999999642372,1669835421376,1568,HRV,HRV_0192,2022-11-30 19:12:12
103,"[{'imgObject': {}, 'id': 'roastedpotatoes', 'src': '/static/foodstim60/roastedpotatoes.jpg', 'key': 'u', 'origWidth': 409, 'origHeight': 410, 'width': 409, 'height': 410, 'widthPercent': 0.45, 'rescaleHeight': False, 'trialN': 103, 'loaded': True, 'loadedTime': 12879.200000047684, 'positionName': 'LEFT', 'positionCoords': [82.52, 83], 'bid': 2.03}, {'imgObject': {}, 'id': 'rigatoni and sauce', 'src': '/static/foodstim60/rigatoni and sauce.jpg', 'key': 'i', 'origWidth': 410, 'origHeight': 411, 'width': 410, 'height': 411, 'widthPercent': 0.45, 'rescaleHeight': False, 'trialN': 103, 'loaded': True, 'loadedTime': 13144, 'positionName': 'RIGHT', 'positionCoords': [532.48, 82.5], 'bid': 7.4}]",178097.10000002384,1669835421377,roastedpotatoes,rigatoni and sauce,2.03,7.4,5.370000000000001,rigatoni and sauce,861.3000000119209,861,861.8000000119209,True,i,179487.5,1390.3999999761581,1669835422767,1390,HRV,HRV_0192,2022-11-30 19:12:12
104,"[{'imgObject': {}, 'id': 'baked potato', 'src': '/static/foodstim60/baked potato.jpg', 'key': 'u', 'origWidth': 409, 'origHeight': 410, 'width': 409, 'height': 410, 'widthPercent': 0.45, 'rescaleHeight': False, 'trialN': 104, 'loaded': True, 'loadedTime': 12318, 'positionName': 'LEFT', 'positionCoords': [82.52, 83], 'bid': 2.48}, {'imgObject': {}, 'id': 'lox', 'src': '/static/foodstim60/lox.jpg', 'key': 'i', 'origWidth': 410, 'origHeight': 411, 'width': 410, 'height': 411, 'widthPercent': 0.45, 'rescaleHeight': False, 'trialN': 104, 'loaded': True, 'loadedTime': 13636.900000035763, 'positionName': 'RIGHT', 'positionCoords': [532.48, 82.5], 'bid': 2.01}]",179487.70000004768,1669835422767,baked potato,lox,2.48,2.01,-0.4700000000000002,baked potato,895.8999999761581,897,896.5,True,u,180888.10000002384,1400.3999999761581,1669835424167,1400,HRV,HRV_0192,2022-11-30 19:12:12
105,"[{'imgObject': {}, 'id': 'grilled chicken strips', 'src': '/static/foodstim60/grilled chicken strips.jpg', 'key': 'u', 'origWidth': 410, 'origHeight': 411, 'width': 410, 'height': 411, 'widthPercent': 0.45, 'rescaleHeight': False, 'trialN': 105, 'loaded': True, 'loadedTime': 13748.200000047684, 'positionName': 'LEFT', 'positionCoords': [81.52, 82.5], 'bid': 1.62}, {'imgObject': {}, 'id': 'yogurt no spoon', 'src': '/static/foodstim60/yogurt no spoon.jpg', 'key': 'i', 'origWidth': 411, 'origHeight': 410, 'width': 411, 'height': 410, 'widthPercent': 0.45, 'rescaleHeight': False, 'trialN': 105, 'loaded': True, 'loadedTime': 13710.900000035763, 'positionName': 'RIGHT', 'positionCoords': [532.48, 83], 'bid': 7.08}]",180888.20000004768,1669835424168,grilled chicken strips,yogurt no spoon,1.62,7.08,5.46,grilled chicken strips,766.0999999642372,766,766.5,True,u,182174.30000001192,1286.0999999642372,1669835425454,1286,HRV,HRV_0192,2022-11-30 19:12:12
106,"[{'imgObject': {}, 'id': 'shreddedwheatwithmilk', 'src': '/static/foodstim60/shreddedwheatwithmilk.jpg', 'key': 'u', 'origWidth': 410, 'origHeight': 410, 'width': 410, 'height': 410, 'widthPercent': 0.45, 'rescaleHeight': False, 'trialN': 106, 'loaded': True, 'loadedTime': 12553.600000023842, 'positionName': 'LEFT', 'positionCoords': [81.52, 83], 'bid': 3.26}, {'imgObject': {}, 'id': 'chickenfingers', 'src': '/static/foodstim60/chickenfingers.jpg', 'key': 'i', 'origWidth': 410, 'origHeight': 410, 'width': 410, 'height': 410, 'widthPercent': 0.45, 'rescaleHeight': False, 'trialN': 106, 'loaded': True, 'loadedTime': 12746.600000023842, 'positionName': 'RIGHT', 'positionCoords': [532.48, 83], 'bid': 5}]",182174.5,1669835425454,shreddedwheatwithmilk,chickenfingers,3.26,5.0,1.7400000000000002,chickenfingers,672.1000000238419,673,672.6000000238419,True,i,183357.0,1182.5,1669835426636,1182,HRV,HRV_0192,2022-11-30 19:12:12
107,"[{'imgObject': {}, 'id': 'pear', 'src': '/static/foodstim60/pear.jpg', 'key': 'u', 'origWidth': 411, 'origHeight': 410, 'width': 411, 'height': 410, 'widthPercent': 0.45, 'rescaleHeight': False, 'trialN': 107, 'loaded': True, 'loadedTime': 13760.800000011921, 'positionName': 'LEFT', 'positionCoords': [80.52, 83], 'bid': 7.22}, {'imgObject': {}, 'id': 'rigatoni and sauce', 'src': '/static/foodstim60/rigatoni and sauce.jpg', 'key': 'i', 'origWidth': 410, 'origHeight': 411, 'width': 410, 'height': 411, 'widthPercent': 0.45, 'rescaleHeight': False, 'trialN': 107, 'loaded': True, 'loadedTime': 13142.600000023842, 'positionName': 'RIGHT', 'positionCoords': [532.48, 82.5], 'bid': 7.4}]",183357.30000001192,1669835426637,pear,rigatoni and sauce,7.22,7.4,0.1800000000000006,rigatoni and sauce,744.6999999880791,745,745.1000000238419,True,i,184619.5,1262.199999988079,1669835427899,1262,HRV,HRV_0192,2022-11-30 19:12:12
108,"[{'imgObject': {}, 'id': 'Grapes', 'src': '/static/foodstim60/Grapes.jpg', 'key': 'u', 'origWidth': 411, 'origHeight': 411, 'width': 411, 'height': 411, 'widthPercent': 0.45, 'rescaleHeight': False, 'trialN': 108, 'loaded': True, 'loadedTime': 12740.800000011921, 'positionName': 'LEFT', 'positionCoords': [80.52, 82.5], 'bid': 7.73}, {'imgObject': {}, 'id': 'cantaloupe', 'src': '/static/foodstim60/cantaloupe.jpg', 'key': 'i', 'origWidth': 409, 'origHeight': 409, 'width': 409, 'height': 409, 'widthPercent': 0.45, 'rescaleHeight': False, 'trialN': 108, 'loaded': True, 'loadedTime': 13739.600000023842, 'positionName': 'RIGHT', 'positionCoords': [532.48, 83.5], 'bid': 8.43}]",184619.80000001192,1669835427899,Grapes,cantaloupe,7.73,8.43,0.6999999999999993,Grapes,730.4000000357628,731,730.8000000119209,True,u,185869.70000004768,1249.9000000357628,1669835429149,1250,HRV,HRV_0192,2022-11-30 19:12:12
