trialN,stimuli,trialStartTime,trialStartTime_UNIX,stimulus1,stimulus2,stimulus1Bid,stimulus2Bid,delta,selected,rt,rt_UNIX,rt_perfnow,receivedResponse,rsp,trialEndTime,trialDuration,trialEndTime_UNIX,trialDuration_UNIX,exp,subjectId,date
0,"[{'imgObject': {}, 'id': 'banana', 'src': '/static/foodstim60/banana.jpg', 'key': 'u', 'origWidth': 410, 'origHeight': 410, 'width': 409.95, 'height': 409.95, 'widthPercent': 0.45, 'rescaleHeight': False, 'trialN': 0, 'loaded': True, 'loadedTime': 7478.799999952316, 'positionName': 'LEFT', 'positionCoords': [28.28, 51.5], 'bid': 10}, {'imgObject': {}, 'id': 'apple slices', 'src': '/static/foodstim60/apple slices.jpg', 'key': 'i', 'origWidth': 409, 'origHeight': 410, 'width': 409, 'height': 410, 'widthPercent': 0.45, 'rescaleHeight': False, 'trialN': 0, 'loaded': True, 'loadedTime': 7578.699999809265, 'positionName': 'RIGHT', 'positionCoords': [473.72, 51], 'bid': 9.99}]",8812.299999952316,1669831652142,banana,apple slices,10.0,9.99,-0.009999999999999787,apple slices,1110.2000000476837,1112,1111.7999999523163,True,i,10450.099999904633,1637.7999999523163,1669831653780,1638,HRV,HRV_0115,2022-11-30 18:13:24
1,"[{'imgObject': {}, 'id': 'corn cob', 'src': '/static/foodstim60/corn cob.jpg', 'key': 'u', 'origWidth': 411, 'origHeight': 411, 'width': 409.95, 'height': 409.95, 'widthPercent': 0.45, 'rescaleHeight': False, 'trialN': 1, 'loaded': True, 'loadedTime': 7625, 'positionName': 'LEFT', 'positionCoords': [28.28, 51.5], 'bid': 9.86}, {'imgObject': {}, 'id': 'rigatoni and sauce', 'src': '/static/foodstim60/rigatoni and sauce.jpg', 'key': 'i', 'origWidth': 410, 'origHeight': 411, 'width': 409.95, 'height': 410.94987804878053, 'widthPercent': 0.45, 'rescaleHeight': False, 'trialN': 1, 'loaded': True, 'loadedTime': 7646.299999952316, 'positionName': 'RIGHT', 'positionCoords': [473.72, 51], 'bid': 9.75}]",10450.399999856949,1669831653780,corn cob,rigatoni and sauce,9.86,9.75,-0.10999999999999943,corn cob,985.7999999523163,987,986.6000001430511,True,u,11952.399999856949,1502.0,1669831655282,1502,HRV,HRV_0115,2022-11-30 18:13:24
2,"[{'imgObject': {}, 'id': 'cocktailshrimp', 'src': '/static/foodstim60/cocktailshrimp.jpg', 'key': 'u', 'origWidth': 410, 'origHeight': 410, 'width': 409.95, 'height': 409.95, 'widthPercent': 0.45, 'rescaleHeight': False, 'trialN': 2, 'loaded': True, 'loadedTime': 7665.5, 'positionName': 'LEFT', 'positionCoords': [28.28, 51.5], 'bid': 2.61}, {'imgObject': {}, 'id': 'Grapes', 'src': '/static/foodstim60/Grapes.jpg', 'key': 'i', 'origWidth': 411, 'origHeight': 411, 'width': 409.95, 'height': 409.95, 'widthPercent': 0.45, 'rescaleHeight': False, 'trialN': 2, 'loaded': True, 'loadedTime': 7668.399999856949, 'positionName': 'RIGHT', 'positionCoords': [473.72, 51.5], 'bid': 9.59}]",11952.699999809265,1669831655282,cocktailshrimp,Grapes,2.61,9.59,6.98,Grapes,868.5,870,869.6000001430511,True,i,13338.899999856949,1386.2000000476837,1669831656669,1387,HRV,HRV_0115,2022-11-30 18:13:24
3,"[{'imgObject': {}, 'id': 'tacos', 'src': '/static/foodstim60/tacos.jpg', 'key': 'u', 'origWidth': 411, 'origHeight': 411, 'width': 409.95, 'height': 409.95, 'widthPercent': 0.45, 'rescaleHeight': False, 'trialN': 3, 'loaded': True, 'loadedTime': 7707.099999904633, 'positionName': 'LEFT', 'positionCoords': [28.28, 51.5], 'bid': 3.0700000000000003}, {'imgObject': {}, 'id': 'sushi w_condiments', 'src': '/static/foodstim60/sushi w_condiments.jpg', 'key': 'i', 'origWidth': 410, 'origHeight': 410, 'width': 409.95, 'height': 409.95, 'widthPercent': 0.45, 'rescaleHeight': False, 'trialN': 3, 'loaded': True, 'loadedTime': 7769.699999809265, 'positionName': 'RIGHT', 'positionCoords': [473.72, 51.5], 'bid': 2.28}]",13339.099999904633,1669831656669,tacos,sushi w_condiments,3.0700000000000003,2.28,-0.7900000000000005,tacos,1180.9000000953674,1181,1181.2999999523163,True,u,15035.299999952316,1696.2000000476837,1669831658365,1696,HRV,HRV_0115,2022-11-30 18:13:24
4,"[{'imgObject': {}, 'id': 'rigatoni', 'src': '/static/foodstim60/rigatoni.jpg', 'key': 'u', 'origWidth': 411, 'origHeight': 411, 'width': 409.95, 'height': 409.95, 'widthPercent': 0.45, 'rescaleHeight': False, 'trialN': 4, 'loaded': True, 'loadedTime': 7840.399999856949, 'positionName': 'LEFT', 'positionCoords': [28.28, 51.5], 'bid': 9.33}, {'imgObject': {}, 'id': 'corn cob', 'src': '/static/foodstim60/corn cob.jpg', 'key': 'i', 'origWidth': 411, 'origHeight': 411, 'width': 409.95, 'height': 409.95, 'widthPercent': 0.45, 'rescaleHeight': False, 'trialN': 4, 'loaded': True, 'loadedTime': 7628.799999952316, 'positionName': 'RIGHT', 'positionCoords': [473.72, 51.5], 'bid': 9.86}]",15035.5,1669831658365,rigatoni,corn cob,9.33,9.86,0.5299999999999994,corn cob,850.5,852,851.2999999523163,True,i,16398.0,1362.5,1669831659728,1363,HRV,HRV_0115,2022-11-30 18:13:24
5,"[{'imgObject': {}, 'id': 'raspberries', 'src': '/static/foodstim60/raspberries.jpg', 'key': 'u', 'origWidth': 411, 'origHeight': 411, 'width': 409.95, 'height': 409.95, 'widthPercent': 0.45, 'rescaleHeight': False, 'trialN': 5, 'loaded': True, 'loadedTime': 7597.699999809265, 'positionName': 'LEFT', 'positionCoords': [28.28, 51.5], 'bid': 9.13}, {'imgObject': {}, 'id': 'eggs', 'src': '/static/foodstim60/eggs.jpg', 'key': 'i', 'origWidth': 409, 'origHeight': 409, 'width': 409, 'height': 409, 'widthPercent': 0.45, 'rescaleHeight': False, 'trialN': 5, 'loaded': True, 'loadedTime': 7742, 'positionName': 'RIGHT', 'positionCoords': [473.72, 51.5], 'bid': 9.92}]",16398.299999952316,1669831659728,raspberries,eggs,9.13,9.92,0.7899999999999991,eggs,843.7000000476837,845,845.0999999046326,True,i,17757.699999809265,1359.3999998569489,1669831661087,1359,HRV,HRV_0115,2022-11-30 18:13:24
6,"[{'imgObject': {}, 'id': 'chickenfingers', 'src': '/static/foodstim60/chickenfingers.jpg', 'key': 'u', 'origWidth': 410, 'origHeight': 410, 'width': 409.95, 'height': 409.95, 'widthPercent': 0.45, 'rescaleHeight': False, 'trialN': 6, 'loaded': True, 'loadedTime': 7785.599999904633, 'positionName': 'LEFT', 'positionCoords': [28.28, 51.5], 'bid': 3.25}, {'imgObject': {}, 'id': 'olives', 'src': '/static/foodstim60/olives.jpg', 'key': 'i', 'origWidth': 410, 'origHeight': 410, 'width': 409.95, 'height': 409.95, 'widthPercent': 0.45, 'rescaleHeight': False, 'trialN': 6, 'loaded': True, 'loadedTime': 7801.199999809265, 'positionName': 'RIGHT', 'positionCoords': [473.72, 51.5], 'bid': 4.17}]",17758.0,1669831661088,chickenfingers,olives,3.25,4.17,0.9199999999999999,chickenfingers,1287.5,1290,1290.5999999046326,True,u,19550.799999952316,1792.7999999523163,1669831662881,1793,HRV,HRV_0115,2022-11-30 18:13:24
7,"[{'imgObject': {}, 'id': 'chicken nuggets2', 'src': '/static/foodstim60/chicken nuggets2.jpg', 'key': 'u', 'origWidth': 410, 'origHeight': 409, 'width': 409.95, 'height': 408.9501219512195, 'widthPercent': 0.45, 'rescaleHeight': False, 'trialN': 7, 'loaded': True, 'loadedTime': 7812.099999904633, 'positionName': 'LEFT', 'positionCoords': [28.28, 52], 'bid': 3.34}, {'imgObject': {}, 'id': 'corn cob', 'src': '/static/foodstim60/corn cob.jpg', 'key': 'i', 'origWidth': 411, 'origHeight': 411, 'width': 409.95, 'height': 409.95, 'widthPercent': 0.45, 'rescaleHeight': False, 'trialN': 7, 'loaded': True, 'loadedTime': 7631.699999809265, 'positionName': 'RIGHT', 'positionCoords': [473.72, 51.5], 'bid': 9.86}]",19551.0,1669831662881,chicken nuggets2,corn cob,3.34,9.86,6.52,corn cob,903.3999998569489,904,904.0999999046326,True,i,20970.599999904633,1419.5999999046326,1669831664300,1419,HRV,HRV_0115,2022-11-30 18:13:24
8,"[{'imgObject': {}, 'id': 'baked potato', 'src': '/static/foodstim60/baked potato.jpg', 'key': 'u', 'origWidth': 409, 'origHeight': 410, 'width': 409, 'height': 410, 'widthPercent': 0.45, 'rescaleHeight': False, 'trialN': 8, 'loaded': True, 'loadedTime': 7856, 'positionName': 'LEFT', 'positionCoords': [28.28, 51], 'bid': 0.8300000000000001}, {'imgObject': {}, 'id': 'steak', 'src': '/static/foodstim60/steak.jpg', 'key': 'i', 'origWidth': 410, 'origHeight': 410, 'width': 409.95, 'height': 409.95, 'widthPercent': 0.45, 'rescaleHeight': False, 'trialN': 8, 'loaded': True, 'loadedTime': 7823.199999809265, 'positionName': 'RIGHT', 'positionCoords': [473.72, 51.5], 'bid': 1.05}]",20970.799999952316,1669831664301,baked potato,steak,0.8300000000000001,1.05,0.21999999999999997,baked potato,1013,1014,1014.0999999046326,True,u,22504.799999952316,1534.0,1669831665835,1534,HRV,HRV_0115,2022-11-30 18:13:24
9,"[{'imgObject': {}, 'id': 'Tribe humus pita', 'src': '/static/foodstim60/Tribe humus pita.jpg', 'key': 'u', 'origWidth': 411, 'origHeight': 411, 'width': 409.95, 'height': 409.95, 'widthPercent': 0.45, 'rescaleHeight': False, 'trialN': 9, 'loaded': True, 'loadedTime': 7863.699999809265, 'positionName': 'LEFT', 'positionCoords': [28.28, 51.5], 'bid': 1.63}, {'imgObject': {}, 'id': 'hashbrowns', 'src': '/static/foodstim60/hashbrowns.jpg', 'key': 'i', 'origWidth': 411, 'origHeight': 410, 'width': 409.95, 'height': 408.95255474452557, 'widthPercent': 0.45, 'rescaleHeight': False, 'trialN': 9, 'loaded': True, 'loadedTime': 7923.5, 'positionName': 'RIGHT', 'positionCoords': [473.72, 52], 'bid': 2.59}]",22505.099999904633,1669831665835,Tribe humus pita,hashbrowns,1.63,2.59,0.96,Tribe humus pita,979.2999999523163,980,980.2999999523163,True,u,24007.699999809265,1502.5999999046326,1669831667337,1502,HRV,HRV_0115,2022-11-30 18:13:24
10,"[{'imgObject': {}, 'id': 'mac & cheese', 'src': '/static/foodstim60/mac & cheese.jpg', 'key': 'u', 'origWidth': 410, 'origHeight': 410, 'width': 409.95, 'height': 409.95, 'widthPercent': 0.45, 'rescaleHeight': False, 'trialN': 10, 'loaded': True, 'loadedTime': 7886.799999952316, 'positionName': 'LEFT', 'positionCoords': [28.28, 51.5], 'bid': 1.63}, {'imgObject': {}, 'id': 'burrito', 'src': '/static/foodstim60/burrito.jpg', 'key': 'i', 'origWidth': 410, 'origHeight': 410, 'width': 409.95, 'height': 409.95, 'widthPercent': 0.45, 'rescaleHeight': False, 'trialN': 10, 'loaded': True, 'loadedTime': 7932.599999904633, 'positionName': 'RIGHT', 'positionCoords': [473.72, 51.5], 'bid': 1.32}]",24008.299999952316,1669831667338,mac & cheese,burrito,1.63,1.32,-0.30999999999999983,mac & cheese,913.8999998569489,914,914.2000000476837,True,u,25432.199999809265,1423.8999998569489,1669831668762,1424,HRV,HRV_0115,2022-11-30 18:13:24
11,"[{'imgObject': {}, 'id': 'grilled chicken strips', 'src': '/static/foodstim60/grilled chicken strips.jpg', 'key': 'u', 'origWidth': 410, 'origHeight': 411, 'width': 409.95, 'height': 410.94987804878053, 'widthPercent': 0.45, 'rescaleHeight': False, 'trialN': 11, 'loaded': True, 'loadedTime': 7902.5, 'positionName': 'LEFT', 'positionCoords': [28.28, 51], 'bid': 1.3}, {'imgObject': {}, 'id': 'hashbrowns', 'src': '/static/foodstim60/hashbrowns.jpg', 'key': 'i', 'origWidth': 411, 'origHeight': 410, 'width': 409.95, 'height': 408.95255474452557, 'widthPercent': 0.45, 'rescaleHeight': False, 'trialN': 11, 'loaded': True, 'loadedTime': 7920.899999856949, 'positionName': 'RIGHT', 'positionCoords': [473.72, 52], 'bid': 2.59}]",25432.39999985695,1669831668762,grilled chicken strips,hashbrowns,1.3,2.59,1.2899999999999998,hashbrowns,959.7000000476837,961,960.5,True,i,26901.799999952316,1469.4000000953674,1669831670231,1469,HRV,HRV_0115,2022-11-30 18:13:24
12,"[{'imgObject': {}, 'id': 'hashbrowns', 'src': '/static/foodstim60/hashbrowns.jpg', 'key': 'u', 'origWidth': 411, 'origHeight': 410, 'width': 409.95, 'height': 408.95255474452557, 'widthPercent': 0.45, 'rescaleHeight': False, 'trialN': 12, 'loaded': True, 'loadedTime': 7907.799999952316, 'positionName': 'LEFT', 'positionCoords': [28.28, 52], 'bid': 2.59}, {'imgObject': {}, 'id': 'cocktailshrimp', 'src': '/static/foodstim60/cocktailshrimp.jpg', 'key': 'i', 'origWidth': 410, 'origHeight': 410, 'width': 409.95, 'height': 409.95, 'widthPercent': 0.45, 'rescaleHeight': False, 'trialN': 12, 'loaded': True, 'loadedTime': 7662.799999952316, 'positionName': 'RIGHT', 'positionCoords': [473.72, 51.5], 'bid': 2.61}]",26901.89999985695,1669831670232,hashbrowns,cocktailshrimp,2.59,2.61,0.020000000000000018,cocktailshrimp,800.1000001430511,801,801.1000001430511,True,i,28220.099999904633,1318.2000000476837,1669831671550,1318,HRV,HRV_0115,2022-11-30 18:13:24
13,"[{'imgObject': {}, 'id': 'tacos', 'src': '/static/foodstim60/tacos.jpg', 'key': 'u', 'origWidth': 411, 'origHeight': 411, 'width': 409.95, 'height': 409.95, 'widthPercent': 0.45, 'rescaleHeight': False, 'trialN': 13, 'loaded': True, 'loadedTime': 7694, 'positionName': 'LEFT', 'positionCoords': [28.28, 51.5], 'bid': 3.0700000000000003}, {'imgObject': {}, 'id': 'bagel and cc', 'src': '/static/foodstim60/bagel and cc.jpg', 'key': 'i', 'origWidth': 410, 'origHeight': 410, 'width': 409.95, 'height': 409.95, 'widthPercent': 0.45, 'rescaleHeight': False, 'trialN': 13, 'loaded': True, 'loadedTime': 7956.599999904633, 'positionName': 'RIGHT', 'positionCoords': [473.72, 51.5], 'bid': 7.95}]",28220.39999985695,1669831671550,tacos,bagel and cc,3.0700000000000003,7.95,4.88,bagel and cc,941,942,942.4000000953674,True,i,29681.89999985695,1461.5,1669831673012,1462,HRV,HRV_0115,2022-11-30 18:13:24
14,"[{'imgObject': {}, 'id': 'strawberries', 'src': '/static/foodstim60/strawberries.jpg', 'key': 'u', 'origWidth': 410, 'origHeight': 410, 'width': 409.95, 'height': 409.95, 'widthPercent': 0.45, 'rescaleHeight': False, 'trialN': 14, 'loaded': True, 'loadedTime': 7972.5, 'positionName': 'LEFT', 'positionCoords': [28.28, 51.5], 'bid': 9.75}, {'imgObject': {}, 'id': 'salmon', 'src': '/static/foodstim60/salmon.jpg', 'key': 'i', 'origWidth': 410, 'origHeight': 409, 'width': 409.95, 'height': 408.9501219512195, 'widthPercent': 0.45, 'rescaleHeight': False, 'trialN': 14, 'loaded': True, 'loadedTime': 8038, 'positionName': 'RIGHT', 'positionCoords': [473.72, 52], 'bid': 2.94}]",29682.199999809265,1669831673012,strawberries,salmon,9.75,2.94,-6.8100000000000005,strawberries,1162.4000000953674,1163,1163.1000001430511,True,u,31355.199999809265,1673.0,1669831674685,1673,HRV,HRV_0115,2022-11-30 18:13:24
15,"[{'imgObject': {}, 'id': 'turkey sandwich', 'src': '/static/foodstim60/turkey sandwich.jpg', 'key': 'u', 'origWidth': 409, 'origHeight': 409, 'width': 409, 'height': 409, 'widthPercent': 0.45, 'rescaleHeight': False, 'trialN': 15, 'loaded': True, 'loadedTime': 8035.5, 'positionName': 'LEFT', 'positionCoords': [28.28, 51.5], 'bid': 8.98}, {'imgObject': {}, 'id': 'edamame', 'src': '/static/foodstim60/edamame.jpg', 'key': 'i', 'origWidth': 409, 'origHeight': 410, 'width': 409, 'height': 410, 'widthPercent': 0.45, 'rescaleHeight': False, 'trialN': 15, 'loaded': True, 'loadedTime': 7985.599999904633, 'positionName': 'RIGHT', 'positionCoords': [473.72, 51], 'bid': 3.84}]",31355.39999985695,1669831674685,turkey sandwich,edamame,8.98,3.84,-5.140000000000001,turkey sandwich,1150.1000001430511,1153,1153.2000000476837,True,u,33020.199999809265,1664.7999999523163,1669831676350,1665,HRV,HRV_0115,2022-11-30 18:13:24
16,"[{'imgObject': {}, 'id': 'olives', 'src': '/static/foodstim60/olives.jpg', 'key': 'u', 'origWidth': 410, 'origHeight': 410, 'width': 409.95, 'height': 409.95, 'widthPercent': 0.45, 'rescaleHeight': False, 'trialN': 16, 'loaded': True, 'loadedTime': 7802.399999856949, 'positionName': 'LEFT', 'positionCoords': [28.28, 51.5], 'bid': 4.17}, {'imgObject': {}, 'id': 'edamame', 'src': '/static/foodstim60/edamame.jpg', 'key': 'i', 'origWidth': 409, 'origHeight': 410, 'width': 409, 'height': 410, 'widthPercent': 0.45, 'rescaleHeight': False, 'trialN': 16, 'loaded': True, 'loadedTime': 7991.099999904633, 'positionName': 'RIGHT', 'positionCoords': [473.72, 51], 'bid': 3.84}]",33020.59999990463,1669831676350,olives,edamame,4.17,3.84,-0.33000000000000007,olives,1403.0999999046326,1405,1404.4000000953674,True,u,34932.39999985695,1911.7999999523163,1669831678262,1912,HRV,HRV_0115,2022-11-30 18:13:24
17,"[{'imgObject': {}, 'id': 'avocado', 'src': '/static/foodstim60/avocado.jpg', 'key': 'u', 'origWidth': 409, 'origHeight': 409, 'width': 409, 'height': 409, 'widthPercent': 0.45, 'rescaleHeight': False, 'trialN': 17, 'loaded': True, 'loadedTime': 7997.5, 'positionName': 'LEFT', 'positionCoords': [28.28, 51.5], 'bid': 9.37}, {'imgObject': {}, 'id': 'eggs', 'src': '/static/foodstim60/eggs.jpg', 'key': 'i', 'origWidth': 409, 'origHeight': 409, 'width': 409, 'height': 409, 'widthPercent': 0.45, 'rescaleHeight': False, 'trialN': 17, 'loaded': True, 'loadedTime': 7739, 'positionName': 'RIGHT', 'positionCoords': [473.72, 51.5], 'bid': 9.92}]",34932.59999990463,1669831678262,avocado,eggs,9.37,9.92,0.5500000000000007,eggs,704.0999999046326,705,705.0999999046326,True,i,36139.89999985695,1207.2999999523163,1669831679470,1208,HRV,HRV_0115,2022-11-30 18:13:24
18,"[{'imgObject': {}, 'id': 'luckycharms', 'src': '/static/foodstim60/luckycharms.jpg', 'key': 'u', 'origWidth': 410, 'origHeight': 409, 'width': 409.95, 'height': 408.9501219512195, 'widthPercent': 0.45, 'rescaleHeight': False, 'trialN': 18, 'loaded': True, 'loadedTime': 8028, 'positionName': 'LEFT', 'positionCoords': [28.28, 52], 'bid': 8.65}, {'imgObject': {}, 'id': 'blueberries', 'src': '/static/foodstim60/blueberries.jpg', 'key': 'i', 'origWidth': 411, 'origHeight': 411, 'width': 409.95, 'height': 409.95, 'widthPercent': 0.45, 'rescaleHeight': False, 'trialN': 18, 'loaded': True, 'loadedTime': 8049.899999856949, 'positionName': 'RIGHT', 'positionCoords': [473.72, 51.5], 'bid': 8.47}]",36140.09999990463,1669831679470,luckycharms,blueberries,8.65,8.47,-0.17999999999999972,blueberries,827.5,828,828.5999999046326,True,i,37475.89999985695,1335.7999999523163,1669831680806,1336,HRV,HRV_0115,2022-11-30 18:13:24
19,"[{'imgObject': {}, 'id': 'cantaloupe', 'src': '/static/foodstim60/cantaloupe.jpg', 'key': 'u', 'origWidth': 409, 'origHeight': 409, 'width': 409, 'height': 409, 'widthPercent': 0.45, 'rescaleHeight': False, 'trialN': 19, 'loaded': True, 'loadedTime': 8046.699999809265, 'positionName': 'LEFT', 'positionCoords': [28.28, 51.5], 'bid': 9.53}, {'imgObject': {}, 'id': 'Grapes', 'src': '/static/foodstim60/Grapes.jpg', 'key': 'i', 'origWidth': 411, 'origHeight': 411, 'width': 409.95, 'height': 409.95, 'widthPercent': 0.45, 'rescaleHeight': False, 'trialN': 19, 'loaded': True, 'loadedTime': 7686.399999856949, 'positionName': 'RIGHT', 'positionCoords': [473.72, 51.5], 'bid': 9.59}]",37476.299999952316,1669831680806,cantaloupe,Grapes,9.53,9.59,0.0600000000000005,Grapes,734.8999998569489,736,735.5999999046326,True,i,38716.5,1240.2000000476837,1669831682046,1240,HRV,HRV_0115,2022-11-30 18:13:24
20,"[{'imgObject': {}, 'id': 'banana', 'src': '/static/foodstim60/banana.jpg', 'key': 'u', 'origWidth': 410, 'origHeight': 410, 'width': 409.95, 'height': 409.95, 'widthPercent': 0.45, 'rescaleHeight': False, 'trialN': 20, 'loaded': True, 'loadedTime': 7474.299999952316, 'positionName': 'LEFT', 'positionCoords': [28.28, 51.5], 'bid': 10}, {'imgObject': {}, 'id': 'burger', 'src': '/static/foodstim60/burger.jpg', 'key': 'i', 'origWidth': 409, 'origHeight': 409, 'width': 409, 'height': 409, 'widthPercent': 0.45, 'rescaleHeight': False, 'trialN': 20, 'loaded': True, 'loadedTime': 8100.599999904633, 'positionName': 'RIGHT', 'positionCoords': [473.72, 51.5], 'bid': 9.31}]",38716.699999809265,1669831682046,banana,burger,10.0,9.31,-0.6899999999999995,banana,778.9000000953674,780,779.5,True,u,40003.59999990463,1286.9000000953674,1669831683333,1287,HRV,HRV_0115,2022-11-30 18:13:24
21,"[{'imgObject': {}, 'id': 'cantaloupe', 'src': '/static/foodstim60/cantaloupe.jpg', 'key': 'u', 'origWidth': 409, 'origHeight': 409, 'width': 409, 'height': 409, 'widthPercent': 0.45, 'rescaleHeight': False, 'trialN': 21, 'loaded': True, 'loadedTime': 8049.699999809265, 'positionName': 'LEFT', 'positionCoords': [28.28, 51.5], 'bid': 9.53}, {'imgObject': {}, 'id': 'hashbrowns', 'src': '/static/foodstim60/hashbrowns.jpg', 'key': 'i', 'origWidth': 411, 'origHeight': 410, 'width': 409.95, 'height': 408.95255474452557, 'widthPercent': 0.45, 'rescaleHeight': False, 'trialN': 21, 'loaded': True, 'loadedTime': 7917.199999809265, 'positionName': 'RIGHT', 'positionCoords': [473.72, 52], 'bid': 2.59}]",40003.89999985695,1669831683334,cantaloupe,hashbrowns,9.53,2.59,-6.9399999999999995,cantaloupe,777.1000001430511,778,778.1000001430511,True,u,41283.5,1279.6000001430511,1669831684613,1279,HRV,HRV_0115,2022-11-30 18:13:24
22,"[{'imgObject': {}, 'id': 'cherry tomato', 'src': '/static/foodstim60/cherry tomato.jpg', 'key': 'u', 'origWidth': 410, 'origHeight': 410, 'width': 409.95, 'height': 409.95, 'widthPercent': 0.45, 'rescaleHeight': False, 'trialN': 22, 'loaded': True, 'loadedTime': 8062.5, 'positionName': 'LEFT', 'positionCoords': [28.28, 51.5], 'bid': 9.75}, {'imgObject': {}, 'id': 'orange slices', 'src': '/static/foodstim60/orange slices.jpg', 'key': 'i', 'origWidth': 409, 'origHeight': 410, 'width': 409, 'height': 410, 'widthPercent': 0.45, 'rescaleHeight': False, 'trialN': 22, 'loaded': True, 'loadedTime': 8078.099999904633, 'positionName': 'RIGHT', 'positionCoords': [473.72, 51], 'bid': 9.7}]",41283.699999809265,1669831684613,cherry tomato,orange slices,9.75,9.7,-0.05000000000000071,orange slices,793.3000001907349,794,794.0,True,i,42582.09999990463,1298.4000000953674,1669831685912,1299,HRV,HRV_0115,2022-11-30 18:13:24
23,"[{'imgObject': {}, 'id': 'salmon', 'src': '/static/foodstim60/salmon.jpg', 'key': 'u', 'origWidth': 410, 'origHeight': 409, 'width': 409.95, 'height': 408.9501219512195, 'widthPercent': 0.45, 'rescaleHeight': False, 'trialN': 23, 'loaded': True, 'loadedTime': 8040.099999904633, 'positionName': 'LEFT', 'positionCoords': [28.28, 52], 'bid': 2.94}, {'imgObject': {}, 'id': 'mac & cheese', 'src': '/static/foodstim60/mac & cheese.jpg', 'key': 'i', 'origWidth': 410, 'origHeight': 410, 'width': 409.95, 'height': 409.95, 'widthPercent': 0.45, 'rescaleHeight': False, 'trialN': 23, 'loaded': True, 'loadedTime': 7891, 'positionName': 'RIGHT', 'positionCoords': [473.72, 51.5], 'bid': 1.63}]",42582.299999952316,1669831685912,salmon,mac & cheese,2.94,1.63,-1.31,salmon,1209.5999999046326,1211,1210.8999998569489,True,u,44307.799999952316,1725.5,1669831687637,1725,HRV,HRV_0115,2022-11-30 18:13:24
24,"[{'imgObject': {}, 'id': 'orange slices', 'src': '/static/foodstim60/orange slices.jpg', 'key': 'u', 'origWidth': 409, 'origHeight': 410, 'width': 409, 'height': 410, 'widthPercent': 0.45, 'rescaleHeight': False, 'trialN': 24, 'loaded': True, 'loadedTime': 8079.599999904633, 'positionName': 'LEFT', 'positionCoords': [28.28, 51], 'bid': 9.7}, {'imgObject': {}, 'id': 'cantaloupe', 'src': '/static/foodstim60/cantaloupe.jpg', 'key': 'i', 'origWidth': 409, 'origHeight': 409, 'width': 409, 'height': 409, 'widthPercent': 0.45, 'rescaleHeight': False, 'trialN': 24, 'loaded': True, 'loadedTime': 8047.099999904633, 'positionName': 'RIGHT', 'positionCoords': [473.72, 51.5], 'bid': 9.53}]",44307.89999985695,1669831687638,orange slices,cantaloupe,9.7,9.53,-0.16999999999999993,orange slices,1061.5,1103,1103.2999999523163,True,u,45922.5,1614.6000001430511,1669831689252,1614,HRV,HRV_0115,2022-11-30 18:13:24
25,"[{'imgObject': {}, 'id': 'kiwi', 'src': '/static/foodstim60/kiwi.jpg', 'key': 'u', 'origWidth': 410, 'origHeight': 410, 'width': 409.95, 'height': 409.95, 'widthPercent': 0.45, 'rescaleHeight': False, 'trialN': 25, 'loaded': True, 'loadedTime': 8085.699999809265, 'positionName': 'LEFT', 'positionCoords': [28.28, 51.5], 'bid': 3.54}, {'imgObject': {}, 'id': 'raisin bran w milk', 'src': '/static/foodstim60/raisin bran w milk.jpg', 'key': 'i', 'origWidth': 411, 'origHeight': 411, 'width': 409.95, 'height': 409.95, 'widthPercent': 0.45, 'rescaleHeight': False, 'trialN': 25, 'loaded': True, 'loadedTime': 8102.599999904633, 'positionName': 'RIGHT', 'positionCoords': [473.72, 51.5], 'bid': 1.84}]",45922.699999809265,1669831689252,kiwi,raisin bran w milk,3.54,1.84,-1.7,raisin bran w milk,1021.5,1023,1022.2000000476837,True,i,47453.39999985695,1530.7000000476837,1669831690783,1531,HRV,HRV_0115,2022-11-30 18:13:24
26,"[{'imgObject': {}, 'id': 'seaweed', 'src': '/static/foodstim60/seaweed.jpg', 'key': 'u', 'origWidth': 410, 'origHeight': 410, 'width': 409.95, 'height': 409.95, 'widthPercent': 0.45, 'rescaleHeight': False, 'trialN': 26, 'loaded': True, 'loadedTime': 8114.399999856949, 'positionName': 'LEFT', 'positionCoords': [28.28, 51.5], 'bid': 2.28}, {'imgObject': {}, 'id': 'steak', 'src': '/static/foodstim60/steak.jpg', 'key': 'i', 'origWidth': 410, 'origHeight': 410, 'width': 409.95, 'height': 409.95, 'widthPercent': 0.45, 'rescaleHeight': False, 'trialN': 26, 'loaded': True, 'loadedTime': 7830.599999904633, 'positionName': 'RIGHT', 'positionCoords': [473.72, 51.5], 'bid': 1.05}]",47453.5,1669831690783,seaweed,steak,2.28,1.05,-1.2299999999999998,steak,895.7999999523163,897,896.6999998092651,True,i,48857.199999809265,1403.6999998092651,1669831692187,1404,HRV,HRV_0115,2022-11-30 18:13:24
27,"[{'imgObject': {}, 'id': 'veggieswithdip', 'src': '/static/foodstim60/veggieswithdip.jpg', 'key': 'u', 'origWidth': 409, 'origHeight': 409, 'width': 409, 'height': 409, 'widthPercent': 0.45, 'rescaleHeight': False, 'trialN': 27, 'loaded': True, 'loadedTime': 8161.5, 'positionName': 'LEFT', 'positionCoords': [28.28, 51.5], 'bid': 1.93}, {'imgObject': {}, 'id': 'shreddedwheatwithmilk', 'src': '/static/foodstim60/shreddedwheatwithmilk.jpg', 'key': 'i', 'origWidth': 410, 'origHeight': 410, 'width': 409.95, 'height': 409.95, 'widthPercent': 0.45, 'rescaleHeight': False, 'trialN': 27, 'loaded': True, 'loadedTime': 8136.199999809265, 'positionName': 'RIGHT', 'positionCoords': [473.72, 51.5], 'bid': 2.06}]",48857.39999985695,1669831692187,veggieswithdip,shreddedwheatwithmilk,1.93,2.06,0.13000000000000012,shreddedwheatwithmilk,694.2999999523163,696,696.0,True,i,50073.299999952316,1215.9000000953674,1669831693403,1216,HRV,HRV_0115,2022-11-30 18:13:24
28,"[{'imgObject': {}, 'id': 'banana', 'src': '/static/foodstim60/banana.jpg', 'key': 'u', 'origWidth': 410, 'origHeight': 410, 'width': 409.95, 'height': 409.95, 'widthPercent': 0.45, 'rescaleHeight': False, 'trialN': 28, 'loaded': True, 'loadedTime': 7476.5, 'positionName': 'LEFT', 'positionCoords': [28.28, 51.5], 'bid': 10}, {'imgObject': {}, 'id': 'blackbeanswithrice', 'src': '/static/foodstim60/blackbeanswithrice.jpg', 'key': 'i', 'origWidth': 410, 'origHeight': 410, 'width': 409.95, 'height': 409.95, 'widthPercent': 0.45, 'rescaleHeight': False, 'trialN': 28, 'loaded': True, 'loadedTime': 8164.899999856949, 'positionName': 'RIGHT', 'positionCoords': [473.72, 51.5], 'bid': 3.89}]",50073.699999809265,1669831693403,banana,blackbeanswithrice,10.0,3.89,-6.109999999999999,banana,839.8000001907349,842,841.8000001907349,True,u,51423.09999990463,1349.4000000953674,1669831694753,1350,HRV,HRV_0115,2022-11-30 18:13:24
29,"[{'imgObject': {}, 'id': 'cheerios', 'src': '/static/foodstim60/cheerios.jpg', 'key': 'u', 'origWidth': 409, 'origHeight': 410, 'width': 409, 'height': 410, 'widthPercent': 0.45, 'rescaleHeight': False, 'trialN': 29, 'loaded': True, 'loadedTime': 8175.599999904633, 'positionName': 'LEFT', 'positionCoords': [28.28, 51], 'bid': 1.32}, {'imgObject': {}, 'id': 'turkeysandwich', 'src': '/static/foodstim60/turkeysandwich.jpg', 'key': 'i', 'origWidth': 409, 'origHeight': 409, 'width': 409, 'height': 409, 'widthPercent': 0.45, 'rescaleHeight': False, 'trialN': 29, 'loaded': True, 'loadedTime': 8189.199999809265, 'positionName': 'RIGHT', 'positionCoords': [473.72, 51.5], 'bid': 2.85}]",51423.5,1669831694753,cheerios,turkeysandwich,1.32,2.85,1.53,cheerios,983.1999998092651,984,984.0,True,u,52927.699999809265,1504.1999998092651,1669831696257,1504,HRV,HRV_0115,2022-11-30 18:13:24
30,"[{'imgObject': {}, 'id': 'Grapes', 'src': '/static/foodstim60/Grapes.jpg', 'key': 'u', 'origWidth': 411, 'origHeight': 411, 'width': 409.95, 'height': 409.95, 'widthPercent': 0.45, 'rescaleHeight': False, 'trialN': 30, 'loaded': True, 'loadedTime': 7674.599999904633, 'positionName': 'LEFT', 'positionCoords': [28.28, 51.5], 'bid': 9.59}, {'imgObject': {}, 'id': 'cherry tomato', 'src': '/static/foodstim60/cherry tomato.jpg', 'key': 'i', 'origWidth': 410, 'origHeight': 410, 'width': 409.95, 'height': 409.95, 'widthPercent': 0.45, 'rescaleHeight': False, 'trialN': 30, 'loaded': True, 'loadedTime': 8072.399999856949, 'positionName': 'RIGHT', 'positionCoords': [473.72, 51.5], 'bid': 9.75}]",52928.199999809265,1669831696258,Grapes,cherry tomato,9.59,9.75,0.16000000000000014,Grapes,1090.8000001907349,1094,1093.8000001907349,True,u,54528.39999985695,1600.2000000476837,1669831697858,1600,HRV,HRV_0115,2022-11-30 18:13:24
31,"[{'imgObject': {}, 'id': 'yogurt no spoon', 'src': '/static/foodstim60/yogurt no spoon.jpg', 'key': 'u', 'origWidth': 411, 'origHeight': 410, 'width': 409.95, 'height': 408.95255474452557, 'widthPercent': 0.45, 'rescaleHeight': False, 'trialN': 31, 'loaded': True, 'loadedTime': 8210.099999904633, 'positionName': 'LEFT', 'positionCoords': [28.28, 52], 'bid': 9}, {'imgObject': {}, 'id': 'luckycharms', 'src': '/static/foodstim60/luckycharms.jpg', 'key': 'i', 'origWidth': 410, 'origHeight': 409, 'width': 409.95, 'height': 408.9501219512195, 'widthPercent': 0.45, 'rescaleHeight': False, 'trialN': 31, 'loaded': True, 'loadedTime': 8023, 'positionName': 'RIGHT', 'positionCoords': [473.72, 52], 'bid': 8.65}]",54528.59999990463,1669831697858,yogurt no spoon,luckycharms,9.0,8.65,-0.34999999999999964,yogurt no spoon,1126.2000000476837,1128,1127.2999999523163,True,u,56202.699999809265,1674.0999999046326,1669831699532,1674,HRV,HRV_0115,2022-11-30 18:13:24
32,"[{'imgObject': {}, 'id': 'baked potato', 'src': '/static/foodstim60/baked potato.jpg', 'key': 'u', 'origWidth': 409, 'origHeight': 410, 'width': 409, 'height': 410, 'widthPercent': 0.45, 'rescaleHeight': False, 'trialN': 32, 'loaded': True, 'loadedTime': 7852.799999952316, 'positionName': 'LEFT', 'positionCoords': [28.28, 51], 'bid': 0.8300000000000001}, {'imgObject': {}, 'id': 'mashed potato', 'src': '/static/foodstim60/mashed potato.jpg', 'key': 'i', 'origWidth': 409, 'origHeight': 409, 'width': 409, 'height': 409, 'widthPercent': 0.45, 'rescaleHeight': False, 'trialN': 32, 'loaded': True, 'loadedTime': 8184.799999952316, 'positionName': 'RIGHT', 'positionCoords': [473.72, 51.5], 'bid': 1.78}]",56202.89999985695,1669831699533,baked potato,mashed potato,0.8300000000000001,1.78,0.95,mashed potato,684.7000000476837,685,685.7999999523163,True,i,57403.699999809265,1200.7999999523163,1669831700733,1200,HRV,HRV_0115,2022-11-30 18:13:24
33,"[{'imgObject': {}, 'id': 'roastedpotatoes', 'src': '/static/foodstim60/roastedpotatoes.jpg', 'key': 'u', 'origWidth': 409, 'origHeight': 410, 'width': 409, 'height': 410, 'widthPercent': 0.45, 'rescaleHeight': False, 'trialN': 33, 'loaded': True, 'loadedTime': 8215.5, 'positionName': 'LEFT', 'positionCoords': [28.28, 51], 'bid': 9.75}, {'imgObject': {}, 'id': 'corn cob', 'src': '/static/foodstim60/corn cob.jpg', 'key': 'i', 'origWidth': 411, 'origHeight': 411, 'width': 409.95, 'height': 409.95, 'widthPercent': 0.45, 'rescaleHeight': False, 'trialN': 33, 'loaded': True, 'loadedTime': 7611.199999809265, 'positionName': 'RIGHT', 'positionCoords': [473.72, 51.5], 'bid': 9.86}]",57403.89999985695,1669831700734,roastedpotatoes,corn cob,9.75,9.86,0.10999999999999943,corn cob,652,652,652.9000000953674,True,i,58574.699999809265,1170.7999999523163,1669831701904,1170,HRV,HRV_0115,2022-11-30 18:13:24
34,"[{'imgObject': {}, 'id': 'steak', 'src': '/static/foodstim60/steak.jpg', 'key': 'u', 'origWidth': 410, 'origHeight': 410, 'width': 409.95, 'height': 409.95, 'widthPercent': 0.45, 'rescaleHeight': False, 'trialN': 34, 'loaded': True, 'loadedTime': 7825.399999856949, 'positionName': 'LEFT', 'positionCoords': [28.28, 51.5], 'bid': 1.05}, {'imgObject': {}, 'id': 'bagel plain', 'src': '/static/foodstim60/bagel plain.jpg', 'key': 'i', 'origWidth': 410, 'origHeight': 410, 'width': 409.95, 'height': 409.95, 'widthPercent': 0.45, 'rescaleHeight': False, 'trialN': 34, 'loaded': True, 'loadedTime': 8333.799999952316, 'positionName': 'RIGHT', 'positionCoords': [473.72, 51.5], 'bid': 7.33}]",58574.89999985695,1669831701905,steak,bagel plain,1.05,7.33,6.28,bagel plain,670.7000000476837,671,671.1000001430511,True,i,59749.5,1174.6000001430511,1669831703079,1174,HRV,HRV_0115,2022-11-30 18:13:24
35,"[{'imgObject': {}, 'id': 'lox', 'src': '/static/foodstim60/lox.jpg', 'key': 'u', 'origWidth': 410, 'origHeight': 411, 'width': 409.95, 'height': 410.94987804878053, 'widthPercent': 0.45, 'rescaleHeight': False, 'trialN': 35, 'loaded': True, 'loadedTime': 8337.199999809265, 'positionName': 'LEFT', 'positionCoords': [28.28, 51], 'bid': 1.32}, {'imgObject': {}, 'id': 'burrito', 'src': '/static/foodstim60/burrito.jpg', 'key': 'i', 'origWidth': 410, 'origHeight': 410, 'width': 409.95, 'height': 409.95, 'widthPercent': 0.45, 'rescaleHeight': False, 'trialN': 35, 'loaded': True, 'loadedTime': 7938, 'positionName': 'RIGHT', 'positionCoords': [473.72, 51.5], 'bid': 1.32}]",59749.699999809265,1669831703079,lox,burrito,1.32,1.32,0.0,lox,683.4000000953674,685,684.8000001907349,True,u,60952.199999809265,1202.5,1669831704282,1203,HRV,HRV_0115,2022-11-30 18:13:24
36,"[{'imgObject': {}, 'id': 'blueberries', 'src': '/static/foodstim60/blueberries.jpg', 'key': 'u', 'origWidth': 411, 'origHeight': 411, 'width': 409.95, 'height': 409.95, 'widthPercent': 0.45, 'rescaleHeight': False, 'trialN': 36, 'loaded': True, 'loadedTime': 8060.299999952316, 'positionName': 'LEFT', 'positionCoords': [28.28, 51.5], 'bid': 8.47}, {'imgObject': {}, 'id': 'kiwi', 'src': '/static/foodstim60/kiwi.jpg', 'key': 'i', 'origWidth': 410, 'origHeight': 410, 'width': 409.95, 'height': 409.95, 'widthPercent': 0.45, 'rescaleHeight': False, 'trialN': 36, 'loaded': True, 'loadedTime': 8084.599999904633, 'positionName': 'RIGHT', 'positionCoords': [473.72, 51.5], 'bid': 3.54}]",60952.59999990463,1669831704282,blueberries,kiwi,8.47,3.54,-4.930000000000001,kiwi,738,740,739.2000000476837,True,i,62211.59999990463,1259.0,1669831705541,1259,HRV,HRV_0115,2022-11-30 18:13:24
37,"[{'imgObject': {}, 'id': 'mango', 'src': '/static/foodstim60/mango.jpg', 'key': 'u', 'origWidth': 411, 'origHeight': 411, 'width': 409.95, 'height': 409.95, 'widthPercent': 0.45, 'rescaleHeight': False, 'trialN': 37, 'loaded': True, 'loadedTime': 8345.299999952316, 'positionName': 'LEFT', 'positionCoords': [28.28, 51.5], 'bid': 9.18}, {'imgObject': {}, 'id': 'popsicles', 'src': '/static/foodstim60/popsicles.jpg', 'key': 'i', 'origWidth': 410, 'origHeight': 410, 'width': 409.95, 'height': 409.95, 'widthPercent': 0.45, 'rescaleHeight': False, 'trialN': 37, 'loaded': True, 'loadedTime': 8806, 'positionName': 'RIGHT', 'positionCoords': [473.72, 51.5], 'bid': 9.09}]",62211.799999952316,1669831705541,mango,popsicles,9.18,9.09,-0.08999999999999986,mango,781.2000000476837,783,781.7000000476837,True,u,63512.0,1300.2000000476837,1669831706842,1301,HRV,HRV_0115,2022-11-30 18:13:24
38,"[{'imgObject': {}, 'id': 'rigatoni and sauce', 'src': '/static/foodstim60/rigatoni and sauce.jpg', 'key': 'u', 'origWidth': 410, 'origHeight': 411, 'width': 409.95, 'height': 410.94987804878053, 'widthPercent': 0.45, 'rescaleHeight': False, 'trialN': 38, 'loaded': True, 'loadedTime': 7642.099999904633, 'positionName': 'LEFT', 'positionCoords': [28.28, 51], 'bid': 9.75}, {'imgObject': {}, 'id': 'tacos', 'src': '/static/foodstim60/tacos.jpg', 'key': 'i', 'origWidth': 411, 'origHeight': 411, 'width': 409.95, 'height': 409.95, 'widthPercent': 0.45, 'rescaleHeight': False, 'trialN': 38, 'loaded': True, 'loadedTime': 7731.799999952316, 'positionName': 'RIGHT', 'positionCoords': [473.72, 51.5], 'bid': 3.0700000000000003}]",63512.199999809265,1669831706842,rigatoni and sauce,tacos,9.75,3.0700000000000003,-6.68,tacos,740.1000001430511,741,740.8000001907349,True,i,64763.299999952316,1251.1000001430511,1669831708094,1252,HRV,HRV_0115,2022-11-30 18:13:24
39,"[{'imgObject': {}, 'id': 'sushi w_condiments', 'src': '/static/foodstim60/sushi w_condiments.jpg', 'key': 'u', 'origWidth': 410, 'origHeight': 410, 'width': 409.95, 'height': 409.95, 'widthPercent': 0.45, 'rescaleHeight': False, 'trialN': 39, 'loaded': True, 'loadedTime': 7776.599999904633, 'positionName': 'LEFT', 'positionCoords': [28.28, 51.5], 'bid': 2.28}, {'imgObject': {}, 'id': 'cocktailshrimp', 'src': '/static/foodstim60/cocktailshrimp.jpg', 'key': 'i', 'origWidth': 410, 'origHeight': 410, 'width': 409.95, 'height': 409.95, 'widthPercent': 0.45, 'rescaleHeight': False, 'trialN': 39, 'loaded': True, 'loadedTime': 7646.699999809265, 'positionName': 'RIGHT', 'positionCoords': [473.72, 51.5], 'bid': 2.61}]",64764.699999809265,1669831708095,sushi w_condiments,cocktailshrimp,2.28,2.61,0.33000000000000007,sushi w_condiments,1127.5,1129,1128.9000000953674,True,u,66404.5,1639.8000001907349,1669831709735,1640,HRV,HRV_0115,2022-11-30 18:13:24
40,"[{'imgObject': {}, 'id': 'eggsalad', 'src': '/static/foodstim60/eggsalad.jpg', 'key': 'u', 'origWidth': 410, 'origHeight': 409, 'width': 409.95, 'height': 408.9501219512195, 'widthPercent': 0.45, 'rescaleHeight': False, 'trialN': 40, 'loaded': True, 'loadedTime': 8370, 'positionName': 'LEFT', 'positionCoords': [28.28, 52], 'bid': 8.43}, {'imgObject': {}, 'id': 'burrito', 'src': '/static/foodstim60/burrito.jpg', 'key': 'i', 'origWidth': 410, 'origHeight': 410, 'width': 409.95, 'height': 409.95, 'widthPercent': 0.45, 'rescaleHeight': False, 'trialN': 40, 'loaded': True, 'loadedTime': 7941, 'positionName': 'RIGHT', 'positionCoords': [473.72, 51.5], 'bid': 1.32}]",66404.69999980927,1669831709735,eggsalad,burrito,8.43,1.32,-7.109999999999999,burrito,769.3000001907349,770,770.1000001430511,True,i,67684.19999980927,1279.5,1669831711014,1279,HRV,HRV_0115,2022-11-30 18:13:24
41,"[{'imgObject': {}, 'id': 'fruitsalad', 'src': '/static/foodstim60/fruitsalad.jpg', 'key': 'u', 'origWidth': 410, 'origHeight': 410, 'width': 409.95, 'height': 409.95, 'widthPercent': 0.45, 'rescaleHeight': False, 'trialN': 41, 'loaded': True, 'loadedTime': 8378.399999856949, 'positionName': 'LEFT', 'positionCoords': [28.28, 51.5], 'bid': 9.53}, {'imgObject': {}, 'id': 'pear', 'src': '/static/foodstim60/pear.jpg', 'key': 'i', 'origWidth': 411, 'origHeight': 410, 'width': 409.95, 'height': 408.95255474452557, 'widthPercent': 0.45, 'rescaleHeight': False, 'trialN': 41, 'loaded': True, 'loadedTime': 8400.299999952316, 'positionName': 'RIGHT', 'positionCoords': [473.72, 52], 'bid': 9.95}]",67684.5,1669831711015,fruitsalad,pear,9.53,9.95,0.41999999999999993,pear,1155.1999998092651,1156,1156.3999998569489,True,i,69363.29999995232,1678.7999999523163,1669831712694,1679,HRV,HRV_0115,2022-11-30 18:13:24
42,"[{'imgObject': {}, 'id': 'roastedpotatoes', 'src': '/static/foodstim60/roastedpotatoes.jpg', 'key': 'u', 'origWidth': 409, 'origHeight': 410, 'width': 409, 'height': 410, 'widthPercent': 0.45, 'rescaleHeight': False, 'trialN': 42, 'loaded': True, 'loadedTime': 8214.799999952316, 'positionName': 'LEFT', 'positionCoords': [28.28, 51], 'bid': 9.75}, {'imgObject': {}, 'id': 'cantaloupe', 'src': '/static/foodstim60/cantaloupe.jpg', 'key': 'i', 'origWidth': 409, 'origHeight': 409, 'width': 409, 'height': 409, 'widthPercent': 0.45, 'rescaleHeight': False, 'trialN': 42, 'loaded': True, 'loadedTime': 8048.599999904633, 'positionName': 'RIGHT', 'positionCoords': [473.72, 51.5], 'bid': 9.53}]",69363.59999990463,1669831712694,roastedpotatoes,cantaloupe,9.75,9.53,-0.22000000000000064,cantaloupe,1085.5999999046326,1086,1086.5999999046326,True,i,70956.09999990463,1592.5,1669831714286,1592,HRV,HRV_0115,2022-11-30 18:13:24
43,"[{'imgObject': {}, 'id': 'Grapes', 'src': '/static/foodstim60/Grapes.jpg', 'key': 'u', 'origWidth': 411, 'origHeight': 411, 'width': 409.95, 'height': 409.95, 'widthPercent': 0.45, 'rescaleHeight': False, 'trialN': 43, 'loaded': True, 'loadedTime': 7690.799999952316, 'positionName': 'LEFT', 'positionCoords': [28.28, 51.5], 'bid': 9.59}, {'imgObject': {}, 'id': 'banana', 'src': '/static/foodstim60/banana.jpg', 'key': 'i', 'origWidth': 410, 'origHeight': 410, 'width': 409.95, 'height': 409.95, 'widthPercent': 0.45, 'rescaleHeight': False, 'trialN': 43, 'loaded': True, 'loadedTime': 7469.099999904633, 'positionName': 'RIGHT', 'positionCoords': [473.72, 51.5], 'bid': 10}]",70956.29999995232,1669831714287,Grapes,banana,9.59,10.0,0.41000000000000014,banana,1412.5,1413,1413.7000000476837,True,i,72880.89999985695,1924.5999999046326,1669831716211,1924,HRV,HRV_0115,2022-11-30 18:13:24
44,"[{'imgObject': {}, 'id': 'granola w milk', 'src': '/static/foodstim60/granola w milk.jpg', 'key': 'u', 'origWidth': 410, 'origHeight': 410, 'width': 409.95, 'height': 409.95, 'widthPercent': 0.45, 'rescaleHeight': False, 'trialN': 44, 'loaded': True, 'loadedTime': 8428.199999809265, 'positionName': 'LEFT', 'positionCoords': [28.28, 51.5], 'bid': 3.8}, {'imgObject': {}, 'id': 'chicken nuggets2', 'src': '/static/foodstim60/chicken nuggets2.jpg', 'key': 'i', 'origWidth': 410, 'origHeight': 409, 'width': 409.95, 'height': 408.9501219512195, 'widthPercent': 0.45, 'rescaleHeight': False, 'trialN': 44, 'loaded': True, 'loadedTime': 7815.5, 'positionName': 'RIGHT', 'positionCoords': [473.72, 52], 'bid': 3.34}]",72881.0,1669831716211,granola w milk,chicken nuggets2,3.8,3.34,-0.45999999999999996,chicken nuggets2,1275.6999998092651,1278,1277.8999998569489,True,i,74680.79999995232,1799.7999999523163,1669831718011,1800,HRV,HRV_0115,2022-11-30 18:13:24
45,"[{'imgObject': {}, 'id': 'mashed potato', 'src': '/static/foodstim60/mashed potato.jpg', 'key': 'u', 'origWidth': 409, 'origHeight': 409, 'width': 409, 'height': 409, 'widthPercent': 0.45, 'rescaleHeight': False, 'trialN': 45, 'loaded': True, 'loadedTime': 8182.599999904633, 'positionName': 'LEFT', 'positionCoords': [28.28, 51.5], 'bid': 1.78}, {'imgObject': {}, 'id': 'raisin bran w milk', 'src': '/static/foodstim60/raisin bran w milk.jpg', 'key': 'i', 'origWidth': 411, 'origHeight': 411, 'width': 409.95, 'height': 409.95, 'widthPercent': 0.45, 'rescaleHeight': False, 'trialN': 45, 'loaded': True, 'loadedTime': 8112.5, 'positionName': 'RIGHT', 'positionCoords': [473.72, 51.5], 'bid': 1.84}]",74681.0,1669831718011,mashed potato,raisin bran w milk,1.78,1.84,0.06000000000000005,raisin bran w milk,1958.3999998569489,1960,1959.5,True,i,77157.09999990463,2476.0999999046326,1669831720487,2476,HRV,HRV_0115,2022-11-30 18:13:24
46,"[{'imgObject': {}, 'id': 'omelette', 'src': '/static/foodstim60/omelette.jpg', 'key': 'u', 'origWidth': 410, 'origHeight': 409, 'width': 409.95, 'height': 408.9501219512195, 'widthPercent': 0.45, 'rescaleHeight': False, 'trialN': 46, 'loaded': True, 'loadedTime': 8410, 'positionName': 'LEFT', 'positionCoords': [28.28, 52], 'bid': 1.98}, {'imgObject': {}, 'id': 'hotdog w must', 'src': '/static/foodstim60/hotdog w must.jpg', 'key': 'i', 'origWidth': 409, 'origHeight': 409, 'width': 409, 'height': 409, 'widthPercent': 0.45, 'rescaleHeight': False, 'trialN': 46, 'loaded': True, 'loadedTime': 8418.699999809265, 'positionName': 'RIGHT', 'positionCoords': [473.72, 51.5], 'bid': 2.15}]",77157.19999980927,1669831720487,omelette,hotdog w must,1.98,2.15,0.16999999999999993,hotdog w must,1853.6000001430511,1855,1854.5,True,i,79526.09999990463,2368.9000000953674,1669831722856,2369,HRV,HRV_0115,2022-11-30 18:13:24
47,"[{'imgObject': {}, 'id': 'yogurt no spoon', 'src': '/static/foodstim60/yogurt no spoon.jpg', 'key': 'u', 'origWidth': 411, 'origHeight': 410, 'width': 409.95, 'height': 408.95255474452557, 'widthPercent': 0.45, 'rescaleHeight': False, 'trialN': 47, 'loaded': True, 'loadedTime': 8208.799999952316, 'positionName': 'LEFT', 'positionCoords': [28.28, 52], 'bid': 9}, {'imgObject': {}, 'id': 'blackbeanswithrice', 'src': '/static/foodstim60/blackbeanswithrice.jpg', 'key': 'i', 'origWidth': 410, 'origHeight': 410, 'width': 409.95, 'height': 409.95, 'widthPercent': 0.45, 'rescaleHeight': False, 'trialN': 47, 'loaded': True, 'loadedTime': 8173, 'positionName': 'RIGHT', 'positionCoords': [473.72, 51.5], 'bid': 3.89}]",79526.5,1669831722857,yogurt no spoon,blackbeanswithrice,9.0,3.89,-5.109999999999999,yogurt no spoon,1835.3999998569489,1836,1836.3999998569489,True,u,81871.69999980927,2345.199999809265,1669831725202,2345,HRV,HRV_0115,2022-11-30 18:13:24
48,"[{'imgObject': {}, 'id': 'mango', 'src': '/static/foodstim60/mango.jpg', 'key': 'u', 'origWidth': 411, 'origHeight': 411, 'width': 409.95, 'height': 409.95, 'widthPercent': 0.45, 'rescaleHeight': False, 'trialN': 48, 'loaded': True, 'loadedTime': 8356.799999952316, 'positionName': 'LEFT', 'positionCoords': [28.28, 51.5], 'bid': 9.18}, {'imgObject': {}, 'id': 'ice cream sundae 002', 'src': '/static/foodstim60/ice cream sundae 002.jpg', 'key': 'i', 'origWidth': 409, 'origHeight': 409, 'width': 409, 'height': 409, 'widthPercent': 0.45, 'rescaleHeight': False, 'trialN': 48, 'loaded': True, 'loadedTime': 8452.699999809265, 'positionName': 'RIGHT', 'positionCoords': [473.72, 51.5], 'bid': 9.22}]",81871.89999985695,1669831725202,mango,ice cream sundae 002,9.18,9.22,0.040000000000000924,ice cream sundae 002,840.2000000476837,841,841.2999999523163,True,i,83233.5,1361.6000001430511,1669831726564,1362,HRV,HRV_0115,2022-11-30 18:13:24
49,"[{'imgObject': {}, 'id': 'chicken nuggets2', 'src': '/static/foodstim60/chicken nuggets2.jpg', 'key': 'u', 'origWidth': 410, 'origHeight': 409, 'width': 409.95, 'height': 408.9501219512195, 'widthPercent': 0.45, 'rescaleHeight': False, 'trialN': 49, 'loaded': True, 'loadedTime': 7810.5, 'positionName': 'LEFT', 'positionCoords': [28.28, 52], 'bid': 3.34}, {'imgObject': {}, 'id': 'eggsalad', 'src': '/static/foodstim60/eggsalad.jpg', 'key': 'i', 'origWidth': 410, 'origHeight': 409, 'width': 409.95, 'height': 408.9501219512195, 'widthPercent': 0.45, 'rescaleHeight': False, 'trialN': 49, 'loaded': True, 'loadedTime': 8370.5, 'positionName': 'RIGHT', 'positionCoords': [473.72, 52], 'bid': 8.43}]",83233.69999980927,1669831726564,chicken nuggets2,eggsalad,3.34,8.43,5.09,eggsalad,1023.9000000953674,1025,1024.7000000476837,True,i,84766.59999990463,1532.9000000953674,1669831728097,1533,HRV,HRV_0115,2022-11-30 18:13:24
50,"[{'imgObject': {}, 'id': 'shreddedwheatwithmilk', 'src': '/static/foodstim60/shreddedwheatwithmilk.jpg', 'key': 'u', 'origWidth': 410, 'origHeight': 410, 'width': 409.95, 'height': 409.95, 'widthPercent': 0.45, 'rescaleHeight': False, 'trialN': 50, 'loaded': True, 'loadedTime': 8126.299999952316, 'positionName': 'LEFT', 'positionCoords': [28.28, 51.5], 'bid': 2.06}, {'imgObject': {}, 'id': 'lox', 'src': '/static/foodstim60/lox.jpg', 'key': 'i', 'origWidth': 410, 'origHeight': 411, 'width': 409.95, 'height': 410.94987804878053, 'widthPercent': 0.45, 'rescaleHeight': False, 'trialN': 50, 'loaded': True, 'loadedTime': 8344, 'positionName': 'RIGHT', 'positionCoords': [473.72, 51], 'bid': 1.32}]",84766.79999995232,1669831728097,shreddedwheatwithmilk,lox,2.06,1.32,-0.74,shreddedwheatwithmilk,1093.2999999523163,1094,1094.5,True,u,86387.79999995232,1621.0,1669831729718,1621,HRV,HRV_0115,2022-11-30 18:13:24
51,"[{'imgObject': {}, 'id': 'roastedpotatoes', 'src': '/static/foodstim60/roastedpotatoes.jpg', 'key': 'u', 'origWidth': 409, 'origHeight': 410, 'width': 409, 'height': 410, 'widthPercent': 0.45, 'rescaleHeight': False, 'trialN': 51, 'loaded': True, 'loadedTime': 8216.099999904633, 'positionName': 'LEFT', 'positionCoords': [28.28, 51], 'bid': 9.75}, {'imgObject': {}, 'id': 'yogurt no spoon', 'src': '/static/foodstim60/yogurt no spoon.jpg', 'key': 'i', 'origWidth': 411, 'origHeight': 410, 'width': 409.95, 'height': 408.95255474452557, 'widthPercent': 0.45, 'rescaleHeight': False, 'trialN': 51, 'loaded': True, 'loadedTime': 8206.599999904633, 'positionName': 'RIGHT', 'positionCoords': [473.72, 52], 'bid': 9}]",86388.09999990463,1669831729718,roastedpotatoes,yogurt no spoon,9.75,9.0,-0.75,yogurt no spoon,646.5,648,647.4000000953674,True,i,87539.89999985695,1151.7999999523163,1669831730870,1152,HRV,HRV_0115,2022-11-30 18:13:24
52,"[{'imgObject': {}, 'id': 'cantaloupe', 'src': '/static/foodstim60/cantaloupe.jpg', 'key': 'u', 'origWidth': 409, 'origHeight': 409, 'width': 409, 'height': 409, 'widthPercent': 0.45, 'rescaleHeight': False, 'trialN': 52, 'loaded': True, 'loadedTime': 8043.5, 'positionName': 'LEFT', 'positionCoords': [28.28, 51.5], 'bid': 9.53}, {'imgObject': {}, 'id': 'apple slices', 'src': '/static/foodstim60/apple slices.jpg', 'key': 'i', 'origWidth': 409, 'origHeight': 410, 'width': 409, 'height': 410, 'widthPercent': 0.45, 'rescaleHeight': False, 'trialN': 52, 'loaded': True, 'loadedTime': 7570.199999809265, 'positionName': 'RIGHT', 'positionCoords': [473.72, 51], 'bid': 9.99}]",87540.09999990463,1669831730870,cantaloupe,apple slices,9.53,9.99,0.46000000000000085,apple slices,774,775,774.9000000953674,True,i,88825.69999980927,1285.5999999046326,1669831732156,1286,HRV,HRV_0115,2022-11-30 18:13:24
53,"[{'imgObject': {}, 'id': 'seaweed', 'src': '/static/foodstim60/seaweed.jpg', 'key': 'u', 'origWidth': 410, 'origHeight': 410, 'width': 409.95, 'height': 409.95, 'widthPercent': 0.45, 'rescaleHeight': False, 'trialN': 53, 'loaded': True, 'loadedTime': 8117.899999856949, 'positionName': 'LEFT', 'positionCoords': [28.28, 51.5], 'bid': 2.28}, {'imgObject': {}, 'id': 'avocado', 'src': '/static/foodstim60/avocado.jpg', 'key': 'i', 'origWidth': 409, 'origHeight': 409, 'width': 409, 'height': 409, 'widthPercent': 0.45, 'rescaleHeight': False, 'trialN': 53, 'loaded': True, 'loadedTime': 7994.799999952316, 'positionName': 'RIGHT', 'positionCoords': [473.72, 51.5], 'bid': 9.37}]",88825.89999985695,1669831732156,seaweed,avocado,2.28,9.37,7.09,avocado,783.2000000476837,784,784.2000000476837,True,i,90128.39999985695,1302.5,1669831733459,1303,HRV,HRV_0115,2022-11-30 18:13:24
54,"[{'imgObject': {}, 'id': 'edamame', 'src': '/static/foodstim60/edamame.jpg', 'key': 'u', 'origWidth': 409, 'origHeight': 410, 'width': 409, 'height': 410, 'widthPercent': 0.45, 'rescaleHeight': False, 'trialN': 54, 'loaded': True, 'loadedTime': 7988.5, 'positionName': 'LEFT', 'positionCoords': [28.28, 51], 'bid': 3.84}, {'imgObject': {}, 'id': 'blackbeanswithrice', 'src': '/static/foodstim60/blackbeanswithrice.jpg', 'key': 'i', 'origWidth': 410, 'origHeight': 410, 'width': 409.95, 'height': 409.95, 'widthPercent': 0.45, 'rescaleHeight': False, 'trialN': 54, 'loaded': True, 'loadedTime': 8161.899999856949, 'positionName': 'RIGHT', 'positionCoords': [473.72, 51.5], 'bid': 3.89}]",90128.69999980927,1669831733459,edamame,blackbeanswithrice,3.84,3.89,0.050000000000000266,blackbeanswithrice,1163.7000000476837,1164,1164.2000000476837,True,i,91808.0,1679.3000001907349,1669831735138,1679,HRV,HRV_0115,2022-11-30 18:13:24
55,"[{'imgObject': {}, 'id': 'roastedpotatoes', 'src': '/static/foodstim60/roastedpotatoes.jpg', 'key': 'u', 'origWidth': 409, 'origHeight': 410, 'width': 409, 'height': 410, 'widthPercent': 0.45, 'rescaleHeight': False, 'trialN': 55, 'loaded': True, 'loadedTime': 8211.399999856949, 'positionName': 'LEFT', 'positionCoords': [28.28, 51], 'bid': 9.75}, {'imgObject': {}, 'id': 'burger', 'src': '/static/foodstim60/burger.jpg', 'key': 'i', 'origWidth': 409, 'origHeight': 409, 'width': 409, 'height': 409, 'widthPercent': 0.45, 'rescaleHeight': False, 'trialN': 55, 'loaded': True, 'loadedTime': 8101.199999809265, 'positionName': 'RIGHT', 'positionCoords': [473.72, 51.5], 'bid': 9.31}]",91809.19999980927,1669831735139,roastedpotatoes,burger,9.75,9.31,-0.4399999999999995,roastedpotatoes,742.6000001430511,744,743.6000001430511,True,u,93066.59999990463,1257.4000000953674,1669831736397,1258,HRV,HRV_0115,2022-11-30 18:13:24
56,"[{'imgObject': {}, 'id': 'blackbeanswithrice', 'src': '/static/foodstim60/blackbeanswithrice.jpg', 'key': 'u', 'origWidth': 410, 'origHeight': 410, 'width': 409.95, 'height': 409.95, 'widthPercent': 0.45, 'rescaleHeight': False, 'trialN': 56, 'loaded': True, 'loadedTime': 8166.599999904633, 'positionName': 'LEFT', 'positionCoords': [28.28, 51.5], 'bid': 3.89}, {'imgObject': {}, 'id': 'eggsalad', 'src': '/static/foodstim60/eggsalad.jpg', 'key': 'i', 'origWidth': 410, 'origHeight': 409, 'width': 409.95, 'height': 408.9501219512195, 'widthPercent': 0.45, 'rescaleHeight': False, 'trialN': 56, 'loaded': True, 'loadedTime': 8370.899999856949, 'positionName': 'RIGHT', 'positionCoords': [473.72, 52], 'bid': 8.43}]",93066.89999985695,1669831736397,blackbeanswithrice,eggsalad,3.89,8.43,4.539999999999999,eggsalad,742.2000000476837,743,743.2999999523163,True,i,94373.89999985695,1307.0,1669831737704,1307,HRV,HRV_0115,2022-11-30 18:13:24
57,"[{'imgObject': {}, 'id': 'olives', 'src': '/static/foodstim60/olives.jpg', 'key': 'u', 'origWidth': 410, 'origHeight': 410, 'width': 409.95, 'height': 409.95, 'widthPercent': 0.45, 'rescaleHeight': False, 'trialN': 57, 'loaded': True, 'loadedTime': 7804.399999856949, 'positionName': 'LEFT', 'positionCoords': [28.28, 51.5], 'bid': 4.17}, {'imgObject': {}, 'id': 'salad w chicken', 'src': '/static/foodstim60/salad w chicken.jpg', 'key': 'i', 'origWidth': 411, 'origHeight': 411, 'width': 409.95, 'height': 409.95, 'widthPercent': 0.45, 'rescaleHeight': False, 'trialN': 57, 'loaded': True, 'loadedTime': 8434.799999952316, 'positionName': 'RIGHT', 'positionCoords': [473.72, 51.5], 'bid': 2.77}]",94374.19999980927,1669831737704,olives,salad w chicken,4.17,2.77,-1.4,olives,863.4000000953674,865,864.0,True,u,95750.19999980927,1376.0,1669831739080,1376,HRV,HRV_0115,2022-11-30 18:13:24
58,"[{'imgObject': {}, 'id': 'seaweed', 'src': '/static/foodstim60/seaweed.jpg', 'key': 'u', 'origWidth': 410, 'origHeight': 410, 'width': 409.95, 'height': 409.95, 'widthPercent': 0.45, 'rescaleHeight': False, 'trialN': 58, 'loaded': True, 'loadedTime': 8119.299999952316, 'positionName': 'LEFT', 'positionCoords': [28.28, 51.5], 'bid': 2.28}, {'imgObject': {}, 'id': 'cheerios', 'src': '/static/foodstim60/cheerios.jpg', 'key': 'i', 'origWidth': 409, 'origHeight': 410, 'width': 409, 'height': 410, 'widthPercent': 0.45, 'rescaleHeight': False, 'trialN': 58, 'loaded': True, 'loadedTime': 8182.199999809265, 'positionName': 'RIGHT', 'positionCoords': [473.72, 51], 'bid': 1.32}]",95750.29999995232,1669831739081,seaweed,cheerios,2.28,1.32,-0.9599999999999997,cheerios,756.0999999046326,776,776.5,True,i,97045.39999985695,1295.0999999046326,1669831740376,1295,HRV,HRV_0115,2022-11-30 18:13:24
59,"[{'imgObject': {}, 'id': 'roastedpotatoes', 'src': '/static/foodstim60/roastedpotatoes.jpg', 'key': 'u', 'origWidth': 409, 'origHeight': 410, 'width': 409, 'height': 410, 'widthPercent': 0.45, 'rescaleHeight': False, 'trialN': 59, 'loaded': True, 'loadedTime': 8215.199999809265, 'positionName': 'LEFT', 'positionCoords': [28.28, 51], 'bid': 9.75}, {'imgObject': {}, 'id': 'chickenfingers', 'src': '/static/foodstim60/chickenfingers.jpg', 'key': 'i', 'origWidth': 410, 'origHeight': 410, 'width': 409.95, 'height': 409.95, 'widthPercent': 0.45, 'rescaleHeight': False, 'trialN': 59, 'loaded': True, 'loadedTime': 7777.799999952316, 'positionName': 'RIGHT', 'positionCoords': [473.72, 51.5], 'bid': 3.25}]",97045.89999985695,1669831740376,roastedpotatoes,chickenfingers,9.75,3.25,-6.5,chickenfingers,800.9000000953674,802,801.4000000953674,True,i,98368.79999995232,1322.9000000953674,1669831741699,1323,HRV,HRV_0115,2022-11-30 18:13:24
60,"[{'imgObject': {}, 'id': 'froot loops w milk', 'src': '/static/foodstim60/froot loops w milk.jpg', 'key': 'u', 'origWidth': 410, 'origHeight': 410, 'width': 409.95, 'height': 409.95, 'widthPercent': 0.45, 'rescaleHeight': False, 'trialN': 60, 'loaded': True, 'loadedTime': 8464.899999856949, 'positionName': 'LEFT', 'positionCoords': [28.28, 51.5], 'bid': 8.28}, {'imgObject': {}, 'id': 'Grapes', 'src': '/static/foodstim60/Grapes.jpg', 'key': 'i', 'origWidth': 411, 'origHeight': 411, 'width': 409.95, 'height': 409.95, 'widthPercent': 0.45, 'rescaleHeight': False, 'trialN': 60, 'loaded': True, 'loadedTime': 7681.299999952316, 'positionName': 'RIGHT', 'positionCoords': [473.72, 51.5], 'bid': 9.59}]",98369.0,1669831741699,froot loops w milk,Grapes,8.28,9.59,1.3100000000000005,froot loops w milk,894.0999999046326,895,895.0999999046326,True,u,99771.5,1402.5,1669831743102,1403,HRV,HRV_0115,2022-11-30 18:13:24
61,"[{'imgObject': {}, 'id': 'froot loops w milk', 'src': '/static/foodstim60/froot loops w milk.jpg', 'key': 'u', 'origWidth': 410, 'origHeight': 410, 'width': 409.95, 'height': 409.95, 'widthPercent': 0.45, 'rescaleHeight': False, 'trialN': 61, 'loaded': True, 'loadedTime': 8453.599999904633, 'positionName': 'LEFT', 'positionCoords': [28.28, 51.5], 'bid': 8.28}, {'imgObject': {}, 'id': 'lox', 'src': '/static/foodstim60/lox.jpg', 'key': 'i', 'origWidth': 410, 'origHeight': 411, 'width': 409.95, 'height': 410.94987804878053, 'widthPercent': 0.45, 'rescaleHeight': False, 'trialN': 61, 'loaded': True, 'loadedTime': 8341.5, 'positionName': 'RIGHT', 'positionCoords': [473.72, 51], 'bid': 1.32}]",99771.79999995232,1669831743102,froot loops w milk,lox,8.28,1.32,-6.959999999999999,lox,782.5999999046326,785,784.8999998569489,True,i,101069.29999995232,1297.5,1669831744400,1298,HRV,HRV_0115,2022-11-30 18:13:24
62,"[{'imgObject': {}, 'id': 'mashed potato', 'src': '/static/foodstim60/mashed potato.jpg', 'key': 'u', 'origWidth': 409, 'origHeight': 409, 'width': 409, 'height': 409, 'widthPercent': 0.45, 'rescaleHeight': False, 'trialN': 62, 'loaded': True, 'loadedTime': 8185.199999809265, 'positionName': 'LEFT', 'positionCoords': [28.28, 51.5], 'bid': 1.78}, {'imgObject': {}, 'id': 'lox', 'src': '/static/foodstim60/lox.jpg', 'key': 'i', 'origWidth': 410, 'origHeight': 411, 'width': 409.95, 'height': 410.94987804878053, 'widthPercent': 0.45, 'rescaleHeight': False, 'trialN': 62, 'loaded': True, 'loadedTime': 8340.599999904633, 'positionName': 'RIGHT', 'positionCoords': [473.72, 51], 'bid': 1.32}]",101069.69999980927,1669831744400,mashed potato,lox,1.78,1.32,-0.45999999999999996,lox,792.7000000476837,794,793.6000001430511,True,i,102385.89999985695,1316.2000000476837,1669831745716,1316,HRV,HRV_0115,2022-11-30 18:13:24
63,"[{'imgObject': {}, 'id': 'kiwi', 'src': '/static/foodstim60/kiwi.jpg', 'key': 'u', 'origWidth': 410, 'origHeight': 410, 'width': 409.95, 'height': 409.95, 'widthPercent': 0.45, 'rescaleHeight': False, 'trialN': 63, 'loaded': True, 'loadedTime': 8087.799999952316, 'positionName': 'LEFT', 'positionCoords': [28.28, 51.5], 'bid': 3.54}, {'imgObject': {}, 'id': 'eggs', 'src': '/static/foodstim60/eggs.jpg', 'key': 'i', 'origWidth': 409, 'origHeight': 409, 'width': 409, 'height': 409, 'widthPercent': 0.45, 'rescaleHeight': False, 'trialN': 63, 'loaded': True, 'loadedTime': 7734, 'positionName': 'RIGHT', 'positionCoords': [473.72, 51.5], 'bid': 9.92}]",102386.09999990463,1669831745716,kiwi,eggs,3.54,9.92,6.38,eggs,770.7999999523163,772,771.7000000476837,True,i,103672.0,1285.9000000953674,1669831747002,1286,HRV,HRV_0115,2022-11-30 18:13:24
64,"[{'imgObject': {}, 'id': 'fruitsalad', 'src': '/static/foodstim60/fruitsalad.jpg', 'key': 'u', 'origWidth': 410, 'origHeight': 410, 'width': 409.95, 'height': 409.95, 'widthPercent': 0.45, 'rescaleHeight': False, 'trialN': 64, 'loaded': True, 'loadedTime': 8382.099999904633, 'positionName': 'LEFT', 'positionCoords': [28.28, 51.5], 'bid': 9.53}, {'imgObject': {}, 'id': 'raspberries', 'src': '/static/foodstim60/raspberries.jpg', 'key': 'i', 'origWidth': 411, 'origHeight': 411, 'width': 409.95, 'height': 409.95, 'widthPercent': 0.45, 'rescaleHeight': False, 'trialN': 64, 'loaded': True, 'loadedTime': 7588.399999856949, 'positionName': 'RIGHT', 'positionCoords': [473.72, 51.5], 'bid': 9.13}]",103672.09999990463,1669831747002,fruitsalad,raspberries,9.53,9.13,-0.3999999999999986,raspberries,949.7999999523163,951,950.7999999523163,True,i,105138.39999985695,1466.2999999523163,1669831748469,1467,HRV,HRV_0115,2022-11-30 18:13:24
65,"[{'imgObject': {}, 'id': 'hashbrowns', 'src': '/static/foodstim60/hashbrowns.jpg', 'key': 'u', 'origWidth': 411, 'origHeight': 410, 'width': 409.95, 'height': 408.95255474452557, 'widthPercent': 0.45, 'rescaleHeight': False, 'trialN': 65, 'loaded': True, 'loadedTime': 7911.599999904633, 'positionName': 'LEFT', 'positionCoords': [28.28, 52], 'bid': 2.59}, {'imgObject': {}, 'id': 'seaweed', 'src': '/static/foodstim60/seaweed.jpg', 'key': 'i', 'origWidth': 410, 'origHeight': 410, 'width': 409.95, 'height': 409.95, 'widthPercent': 0.45, 'rescaleHeight': False, 'trialN': 65, 'loaded': True, 'loadedTime': 8123.299999952316, 'positionName': 'RIGHT', 'positionCoords': [473.72, 51.5], 'bid': 2.28}]",105138.69999980927,1669831748469,hashbrowns,seaweed,2.59,2.28,-0.31000000000000005,seaweed,934.7000000476837,936,936.1000001430511,True,i,106589.09999990463,1450.4000000953674,1669831749919,1450,HRV,HRV_0115,2022-11-30 18:13:24
66,"[{'imgObject': {}, 'id': 'sushi w_condiments', 'src': '/static/foodstim60/sushi w_condiments.jpg', 'key': 'u', 'origWidth': 410, 'origHeight': 410, 'width': 409.95, 'height': 409.95, 'widthPercent': 0.45, 'rescaleHeight': False, 'trialN': 66, 'loaded': True, 'loadedTime': 7774.5, 'positionName': 'LEFT', 'positionCoords': [28.28, 51.5], 'bid': 2.28}, {'imgObject': {}, 'id': 'fruitsalad', 'src': '/static/foodstim60/fruitsalad.jpg', 'key': 'i', 'origWidth': 410, 'origHeight': 410, 'width': 409.95, 'height': 409.95, 'widthPercent': 0.45, 'rescaleHeight': False, 'trialN': 66, 'loaded': True, 'loadedTime': 8376.899999856949, 'positionName': 'RIGHT', 'positionCoords': [473.72, 51.5], 'bid': 9.53}]",106589.39999985695,1669831749920,sushi w_condiments,fruitsalad,2.28,9.53,7.25,fruitsalad,1036.4000000953674,1037,1037.0,True,i,108131.89999985695,1542.5,1669831751462,1542,HRV,HRV_0115,2022-11-30 18:13:24
67,"[{'imgObject': {}, 'id': 'edamame', 'src': '/static/foodstim60/edamame.jpg', 'key': 'u', 'origWidth': 409, 'origHeight': 410, 'width': 409, 'height': 410, 'widthPercent': 0.45, 'rescaleHeight': False, 'trialN': 67, 'loaded': True, 'loadedTime': 7983, 'positionName': 'LEFT', 'positionCoords': [28.28, 51], 'bid': 3.84}, {'imgObject': {}, 'id': 'apple slices', 'src': '/static/foodstim60/apple slices.jpg', 'key': 'i', 'origWidth': 409, 'origHeight': 410, 'width': 409, 'height': 410, 'widthPercent': 0.45, 'rescaleHeight': False, 'trialN': 67, 'loaded': True, 'loadedTime': 7571.799999952316, 'positionName': 'RIGHT', 'positionCoords': [473.72, 51], 'bid': 9.99}]",108132.0,1669831751462,edamame,apple slices,3.84,9.99,6.15,edamame,1343.2999999523163,1345,1345.0999999046326,True,u,109994.89999985695,1862.8999998569489,1669831753325,1863,HRV,HRV_0115,2022-11-30 18:13:24
68,"[{'imgObject': {}, 'id': 'edamame', 'src': '/static/foodstim60/edamame.jpg', 'key': 'u', 'origWidth': 409, 'origHeight': 410, 'width': 409, 'height': 410, 'widthPercent': 0.45, 'rescaleHeight': False, 'trialN': 68, 'loaded': True, 'loadedTime': 7987, 'positionName': 'LEFT', 'positionCoords': [28.28, 51], 'bid': 3.84}, {'imgObject': {}, 'id': 'froot loops w milk', 'src': '/static/foodstim60/froot loops w milk.jpg', 'key': 'i', 'origWidth': 410, 'origHeight': 410, 'width': 409.95, 'height': 409.95, 'widthPercent': 0.45, 'rescaleHeight': False, 'trialN': 68, 'loaded': True, 'loadedTime': 8467.699999809265, 'positionName': 'RIGHT', 'positionCoords': [473.72, 51.5], 'bid': 8.28}]",109995.09999990463,1669831753325,edamame,froot loops w milk,3.84,8.28,4.4399999999999995,froot loops w milk,1300.9000000953674,1302,1301.9000000953674,True,i,111812.09999990463,1817.0,1669831755142,1817,HRV,HRV_0115,2022-11-30 18:13:24
69,"[{'imgObject': {}, 'id': 'strawberries', 'src': '/static/foodstim60/strawberries.jpg', 'key': 'u', 'origWidth': 410, 'origHeight': 410, 'width': 409.95, 'height': 409.95, 'widthPercent': 0.45, 'rescaleHeight': False, 'trialN': 69, 'loaded': True, 'loadedTime': 7975.199999809265, 'positionName': 'LEFT', 'positionCoords': [28.28, 51.5], 'bid': 9.75}, {'imgObject': {}, 'id': 'rigatoni and sauce', 'src': '/static/foodstim60/rigatoni and sauce.jpg', 'key': 'i', 'origWidth': 410, 'origHeight': 411, 'width': 409.95, 'height': 410.94987804878053, 'widthPercent': 0.45, 'rescaleHeight': False, 'trialN': 69, 'loaded': True, 'loadedTime': 7634, 'positionName': 'RIGHT', 'positionCoords': [473.72, 51], 'bid': 9.75}]",111812.69999980927,1669831755143,strawberries,rigatoni and sauce,9.75,9.75,0.0,strawberries,864.3000001907349,865,865.1000001430511,True,u,113187.89999985695,1375.2000000476837,1669831756518,1375,HRV,HRV_0115,2022-11-30 18:13:24
70,"[{'imgObject': {}, 'id': 'banana', 'src': '/static/foodstim60/banana.jpg', 'key': 'u', 'origWidth': 410, 'origHeight': 410, 'width': 409.95, 'height': 409.95, 'widthPercent': 0.45, 'rescaleHeight': False, 'trialN': 70, 'loaded': True, 'loadedTime': 7472, 'positionName': 'LEFT', 'positionCoords': [28.28, 51.5], 'bid': 10}, {'imgObject': {}, 'id': 'rigatoni and sauce', 'src': '/static/foodstim60/rigatoni and sauce.jpg', 'key': 'i', 'origWidth': 410, 'origHeight': 411, 'width': 409.95, 'height': 410.94987804878053, 'widthPercent': 0.45, 'rescaleHeight': False, 'trialN': 70, 'loaded': True, 'loadedTime': 7641.599999904633, 'positionName': 'RIGHT', 'positionCoords': [473.72, 51], 'bid': 9.75}]",113188.0,1669831756518,banana,rigatoni and sauce,10.0,9.75,-0.25,banana,791.5,792,792.2999999523163,True,u,114492.69999980927,1304.6999998092651,1669831757823,1305,HRV,HRV_0115,2022-11-30 18:13:24
71,"[{'imgObject': {}, 'id': 'pear', 'src': '/static/foodstim60/pear.jpg', 'key': 'u', 'origWidth': 411, 'origHeight': 410, 'width': 409.95, 'height': 408.95255474452557, 'widthPercent': 0.45, 'rescaleHeight': False, 'trialN': 71, 'loaded': True, 'loadedTime': 8404.699999809265, 'positionName': 'LEFT', 'positionCoords': [28.28, 52], 'bid': 9.95}, {'imgObject': {}, 'id': 'eggs', 'src': '/static/foodstim60/eggs.jpg', 'key': 'i', 'origWidth': 409, 'origHeight': 409, 'width': 409, 'height': 409, 'widthPercent': 0.45, 'rescaleHeight': False, 'trialN': 71, 'loaded': True, 'loadedTime': 7742.5, 'positionName': 'RIGHT', 'positionCoords': [473.72, 51.5], 'bid': 9.92}]",114493.0,1669831757823,pear,eggs,9.95,9.92,-0.02999999999999936,eggs,793.6999998092651,795,794.6999998092651,True,i,115810.5,1317.5,1669831759141,1318,HRV,HRV_0115,2022-11-30 18:13:24
72,"[{'imgObject': {}, 'id': 'shreddedwheatwithmilk', 'src': '/static/foodstim60/shreddedwheatwithmilk.jpg', 'key': 'u', 'origWidth': 410, 'origHeight': 410, 'width': 409.95, 'height': 409.95, 'widthPercent': 0.45, 'rescaleHeight': False, 'trialN': 72, 'loaded': True, 'loadedTime': 8138.899999856949, 'positionName': 'LEFT', 'positionCoords': [28.28, 51.5], 'bid': 2.06}, {'imgObject': {}, 'id': 'salad w chicken', 'src': '/static/foodstim60/salad w chicken.jpg', 'key': 'i', 'origWidth': 411, 'origHeight': 411, 'width': 409.95, 'height': 409.95, 'widthPercent': 0.45, 'rescaleHeight': False, 'trialN': 72, 'loaded': True, 'loadedTime': 8440.599999904633, 'positionName': 'RIGHT', 'positionCoords': [473.72, 51.5], 'bid': 2.77}]",115810.89999985695,1669831759141,shreddedwheatwithmilk,salad w chicken,2.06,2.77,0.71,salad w chicken,782.2000000476837,783,783.2000000476837,True,i,117107.09999990463,1296.2000000476837,1669831760437,1296,HRV,HRV_0115,2022-11-30 18:13:24
73,"[{'imgObject': {}, 'id': 'banana', 'src': '/static/foodstim60/banana.jpg', 'key': 'u', 'origWidth': 410, 'origHeight': 410, 'width': 409.95, 'height': 409.95, 'widthPercent': 0.45, 'rescaleHeight': False, 'trialN': 73, 'loaded': True, 'loadedTime': 7302.399999856949, 'positionName': 'LEFT', 'positionCoords': [28.28, 51.5], 'bid': 10}, {'imgObject': {}, 'id': 'pear', 'src': '/static/foodstim60/pear.jpg', 'key': 'i', 'origWidth': 411, 'origHeight': 410, 'width': 409.95, 'height': 408.95255474452557, 'widthPercent': 0.45, 'rescaleHeight': False, 'trialN': 73, 'loaded': True, 'loadedTime': 8394, 'positionName': 'RIGHT', 'positionCoords': [473.72, 52], 'bid': 9.95}]",117107.19999980927,1669831760437,banana,pear,10.0,9.95,-0.05000000000000071,pear,839.1000001430511,841,840.2000000476837,True,i,118454.79999995232,1347.6000001430511,1669831761785,1348,HRV,HRV_0115,2022-11-30 18:13:24
74,"[{'imgObject': {}, 'id': 'froot loops w milk', 'src': '/static/foodstim60/froot loops w milk.jpg', 'key': 'u', 'origWidth': 410, 'origHeight': 410, 'width': 409.95, 'height': 409.95, 'widthPercent': 0.45, 'rescaleHeight': False, 'trialN': 74, 'loaded': True, 'loadedTime': 8459.699999809265, 'positionName': 'LEFT', 'positionCoords': [28.28, 51.5], 'bid': 8.28}, {'imgObject': {}, 'id': 'chickenfingers', 'src': '/static/foodstim60/chickenfingers.jpg', 'key': 'i', 'origWidth': 410, 'origHeight': 410, 'width': 409.95, 'height': 409.95, 'widthPercent': 0.45, 'rescaleHeight': False, 'trialN': 74, 'loaded': True, 'loadedTime': 7787.399999856949, 'positionName': 'RIGHT', 'positionCoords': [473.72, 51.5], 'bid': 3.25}]",118455.0,1669831761785,froot loops w milk,chickenfingers,8.28,3.25,-5.029999999999999,froot loops w milk,642.1999998092651,643,643.0999999046326,True,u,119610.89999985695,1155.8999998569489,1669831762941,1156,HRV,HRV_0115,2022-11-30 18:13:24
75,"[{'imgObject': {}, 'id': 'shreddedwheatwithmilk', 'src': '/static/foodstim60/shreddedwheatwithmilk.jpg', 'key': 'u', 'origWidth': 410, 'origHeight': 410, 'width': 409.95, 'height': 409.95, 'widthPercent': 0.45, 'rescaleHeight': False, 'trialN': 75, 'loaded': True, 'loadedTime': 8134, 'positionName': 'LEFT', 'positionCoords': [28.28, 51.5], 'bid': 2.06}, {'imgObject': {}, 'id': 'blackbeanswithrice', 'src': '/static/foodstim60/blackbeanswithrice.jpg', 'key': 'i', 'origWidth': 410, 'origHeight': 410, 'width': 409.95, 'height': 409.95, 'widthPercent': 0.45, 'rescaleHeight': False, 'trialN': 75, 'loaded': True, 'loadedTime': 8171.599999904633, 'positionName': 'RIGHT', 'positionCoords': [473.72, 51.5], 'bid': 3.89}]",119611.09999990463,1669831762941,shreddedwheatwithmilk,blackbeanswithrice,2.06,3.89,1.83,blackbeanswithrice,776.7000000476837,778,777.5,True,i,120899.69999980927,1288.5999999046326,1669831764230,1289,HRV,HRV_0115,2022-11-30 18:13:24
76,"[{'imgObject': {}, 'id': 'turkey sandwich', 'src': '/static/foodstim60/turkey sandwich.jpg', 'key': 'u', 'origWidth': 409, 'origHeight': 409, 'width': 409, 'height': 409, 'widthPercent': 0.45, 'rescaleHeight': False, 'trialN': 76, 'loaded': True, 'loadedTime': 8036.799999952316, 'positionName': 'LEFT', 'positionCoords': [28.28, 51.5], 'bid': 8.98}, {'imgObject': {}, 'id': 'rigatoni and sauce', 'src': '/static/foodstim60/rigatoni and sauce.jpg', 'key': 'i', 'origWidth': 410, 'origHeight': 411, 'width': 409.95, 'height': 410.94987804878053, 'widthPercent': 0.45, 'rescaleHeight': False, 'trialN': 76, 'loaded': True, 'loadedTime': 7643.5, 'positionName': 'RIGHT', 'positionCoords': [473.72, 51], 'bid': 9.75}]",120899.89999985695,1669831764230,turkey sandwich,rigatoni and sauce,8.98,9.75,0.7699999999999996,turkey sandwich,1110.1000001430511,1111,1111.0,True,u,122585.09999990463,1685.2000000476837,1669831765915,1685,HRV,HRV_0115,2022-11-30 18:13:24
77,"[{'imgObject': {}, 'id': 'burger', 'src': '/static/foodstim60/burger.jpg', 'key': 'u', 'origWidth': 409, 'origHeight': 409, 'width': 409, 'height': 409, 'widthPercent': 0.45, 'rescaleHeight': False, 'trialN': 77, 'loaded': True, 'loadedTime': 8099.399999856949, 'positionName': 'LEFT', 'positionCoords': [28.28, 51.5], 'bid': 9.31}, {'imgObject': {}, 'id': 'shreddedwheatwithmilk', 'src': '/static/foodstim60/shreddedwheatwithmilk.jpg', 'key': 'i', 'origWidth': 410, 'origHeight': 410, 'width': 409.95, 'height': 409.95, 'widthPercent': 0.45, 'rescaleHeight': False, 'trialN': 77, 'loaded': True, 'loadedTime': 8130.5, 'positionName': 'RIGHT', 'positionCoords': [473.72, 51.5], 'bid': 2.06}]",122585.59999990463,1669831765916,burger,shreddedwheatwithmilk,9.31,2.06,-7.25,burger,840.7999999523163,842,841.7000000476837,True,u,123944.29999995232,1358.7000000476837,1669831767275,1359,HRV,HRV_0115,2022-11-30 18:13:24
78,"[{'imgObject': {}, 'id': 'orange slices', 'src': '/static/foodstim60/orange slices.jpg', 'key': 'u', 'origWidth': 409, 'origHeight': 410, 'width': 409, 'height': 410, 'widthPercent': 0.45, 'rescaleHeight': False, 'trialN': 78, 'loaded': True, 'loadedTime': 8074.5, 'positionName': 'LEFT', 'positionCoords': [28.28, 51], 'bid': 9.7}, {'imgObject': {}, 'id': 'eggsalad', 'src': '/static/foodstim60/eggsalad.jpg', 'key': 'i', 'origWidth': 410, 'origHeight': 409, 'width': 409.95, 'height': 408.9501219512195, 'widthPercent': 0.45, 'rescaleHeight': False, 'trialN': 78, 'loaded': True, 'loadedTime': 8369.099999904633, 'positionName': 'RIGHT', 'positionCoords': [473.72, 52], 'bid': 8.43}]",123944.5,1669831767276,orange slices,eggsalad,9.7,8.43,-1.2699999999999996,eggsalad,1003.6999998092651,1004,1004.6999998092651,True,i,125464.39999985695,1519.8999998569489,1669831768796,1520,HRV,HRV_0115,2022-11-30 18:13:24
79,"[{'imgObject': {}, 'id': 'hotdog w must', 'src': '/static/foodstim60/hotdog w must.jpg', 'key': 'u', 'origWidth': 409, 'origHeight': 409, 'width': 409, 'height': 409, 'widthPercent': 0.45, 'rescaleHeight': False, 'trialN': 79, 'loaded': True, 'loadedTime': 8417.799999952316, 'positionName': 'LEFT', 'positionCoords': [28.28, 51.5], 'bid': 2.15}, {'imgObject': {}, 'id': 'shreddedwheatwithmilk', 'src': '/static/foodstim60/shreddedwheatwithmilk.jpg', 'key': 'i', 'origWidth': 410, 'origHeight': 410, 'width': 409.95, 'height': 409.95, 'widthPercent': 0.45, 'rescaleHeight': False, 'trialN': 79, 'loaded': True, 'loadedTime': 8131.899999856949, 'positionName': 'RIGHT', 'positionCoords': [473.72, 51.5], 'bid': 2.06}]",125464.59999990463,1669831768796,hotdog w must,shreddedwheatwithmilk,2.15,2.06,-0.08999999999999986,hotdog w must,1516.0999999046326,1517,1517.0999999046326,True,u,127495.79999995232,2031.2000000476837,1669831770827,2031,HRV,HRV_0115,2022-11-30 18:13:24
80,"[{'imgObject': {}, 'id': 'turkeysandwich', 'src': '/static/foodstim60/turkeysandwich.jpg', 'key': 'u', 'origWidth': 409, 'origHeight': 409, 'width': 409, 'height': 409, 'widthPercent': 0.45, 'rescaleHeight': False, 'trialN': 80, 'loaded': True, 'loadedTime': 8192.199999809265, 'positionName': 'LEFT', 'positionCoords': [28.28, 51.5], 'bid': 2.85}, {'imgObject': {}, 'id': 'salad w chicken', 'src': '/static/foodstim60/salad w chicken.jpg', 'key': 'i', 'origWidth': 411, 'origHeight': 411, 'width': 409.95, 'height': 409.95, 'widthPercent': 0.45, 'rescaleHeight': False, 'trialN': 80, 'loaded': True, 'loadedTime': 8444.299999952316, 'positionName': 'RIGHT', 'positionCoords': [473.72, 51.5], 'bid': 2.77}]",127496.0,1669831770827,turkeysandwich,salad w chicken,2.85,2.77,-0.08000000000000007,salad w chicken,833.6999998092651,834,834.1999998092651,True,i,128839.29999995232,1343.2999999523163,1669831772170,1343,HRV,HRV_0115,2022-11-30 18:13:24
81,"[{'imgObject': {}, 'id': 'bagel plain', 'src': '/static/foodstim60/bagel plain.jpg', 'key': 'u', 'origWidth': 410, 'origHeight': 410, 'width': 409.95, 'height': 409.95, 'widthPercent': 0.45, 'rescaleHeight': False, 'trialN': 81, 'loaded': True, 'loadedTime': 8335.699999809265, 'positionName': 'LEFT', 'positionCoords': [28.28, 51.5], 'bid': 7.33}, {'imgObject': {}, 'id': 'turkeysandwich', 'src': '/static/foodstim60/turkeysandwich.jpg', 'key': 'i', 'origWidth': 409, 'origHeight': 409, 'width': 409, 'height': 409, 'widthPercent': 0.45, 'rescaleHeight': False, 'trialN': 81, 'loaded': True, 'loadedTime': 8193.399999856949, 'positionName': 'RIGHT', 'positionCoords': [473.72, 51.5], 'bid': 2.85}]",128839.39999985695,1669831772171,bagel plain,turkeysandwich,7.33,2.85,-4.48,bagel plain,797.7999999523163,798,798.7000000476837,True,u,130152.59999990463,1313.2000000476837,1669831773484,1313,HRV,HRV_0115,2022-11-30 18:13:24
82,"[{'imgObject': {}, 'id': 'sweetpotato', 'src': '/static/foodstim60/sweetpotato.jpg', 'key': 'u', 'origWidth': 410, 'origHeight': 410, 'width': 409.95, 'height': 409.95, 'widthPercent': 0.45, 'rescaleHeight': False, 'trialN': 82, 'loaded': True, 'loadedTime': 8479.899999856949, 'positionName': 'LEFT', 'positionCoords': [28.28, 51.5], 'bid': 1.05}, {'imgObject': {}, 'id': 'sushi w_condiments', 'src': '/static/foodstim60/sushi w_condiments.jpg', 'key': 'i', 'origWidth': 410, 'origHeight': 410, 'width': 409.95, 'height': 409.95, 'widthPercent': 0.45, 'rescaleHeight': False, 'trialN': 82, 'loaded': True, 'loadedTime': 7770.799999952316, 'positionName': 'RIGHT', 'positionCoords': [473.72, 51.5], 'bid': 2.28}]",130152.79999995232,1669831773484,sweetpotato,sushi w_condiments,1.05,2.28,1.2299999999999998,sushi w_condiments,822.3999998569489,823,823.0999999046326,True,i,131497.19999980927,1344.3999998569489,1669831774828,1344,HRV,HRV_0115,2022-11-30 18:13:24
83,"[{'imgObject': {}, 'id': 'blueberries', 'src': '/static/foodstim60/blueberries.jpg', 'key': 'u', 'origWidth': 411, 'origHeight': 411, 'width': 409.95, 'height': 409.95, 'widthPercent': 0.45, 'rescaleHeight': False, 'trialN': 83, 'loaded': True, 'loadedTime': 8054.599999904633, 'positionName': 'LEFT', 'positionCoords': [28.28, 51.5], 'bid': 8.47}, {'imgObject': {}, 'id': 'turkey sandwich', 'src': '/static/foodstim60/turkey sandwich.jpg', 'key': 'i', 'origWidth': 409, 'origHeight': 409, 'width': 409, 'height': 409, 'widthPercent': 0.45, 'rescaleHeight': False, 'trialN': 83, 'loaded': True, 'loadedTime': 8037.099999904633, 'positionName': 'RIGHT', 'positionCoords': [473.72, 51.5], 'bid': 8.98}]",131497.39999985695,1669831774828,blueberries,turkey sandwich,8.47,8.98,0.5099999999999998,blueberries,623.7999999523163,625,624.6000001430511,True,u,132638.79999995232,1141.4000000953674,1669831775970,1142,HRV,HRV_0115,2022-11-30 18:13:24
84,"[{'imgObject': {}, 'id': 'bagel and cc', 'src': '/static/foodstim60/bagel and cc.jpg', 'key': 'u', 'origWidth': 410, 'origHeight': 410, 'width': 409.95, 'height': 409.95, 'widthPercent': 0.45, 'rescaleHeight': False, 'trialN': 84, 'loaded': True, 'loadedTime': 7959.099999904633, 'positionName': 'LEFT', 'positionCoords': [28.28, 51.5], 'bid': 7.95}, {'imgObject': {}, 'id': 'cherries', 'src': '/static/foodstim60/cherries.jpg', 'key': 'i', 'origWidth': 410, 'origHeight': 411, 'width': 409.95, 'height': 410.94987804878053, 'widthPercent': 0.45, 'rescaleHeight': False, 'trialN': 84, 'loaded': True, 'loadedTime': 8475.099999904633, 'positionName': 'RIGHT', 'positionCoords': [473.72, 51], 'bid': 7.6}]",132639.09999990463,1669831775970,bagel and cc,cherries,7.95,7.6,-0.35000000000000053,bagel and cc,778.0999999046326,779,779.2999999523163,True,u,133933.0,1293.9000000953674,1669831777264,1294,HRV,HRV_0115,2022-11-30 18:13:24
85,"[{'imgObject': {}, 'id': 'apple slices', 'src': '/static/foodstim60/apple slices.jpg', 'key': 'u', 'origWidth': 409, 'origHeight': 410, 'width': 409, 'height': 410, 'widthPercent': 0.45, 'rescaleHeight': False, 'trialN': 85, 'loaded': True, 'loadedTime': 7575.099999904633, 'positionName': 'LEFT', 'positionCoords': [28.28, 51], 'bid': 9.99}, {'imgObject': {}, 'id': 'ice cream sundae 002', 'src': '/static/foodstim60/ice cream sundae 002.jpg', 'key': 'i', 'origWidth': 409, 'origHeight': 409, 'width': 409, 'height': 409, 'widthPercent': 0.45, 'rescaleHeight': False, 'trialN': 85, 'loaded': True, 'loadedTime': 8453, 'positionName': 'RIGHT', 'positionCoords': [473.72, 51.5], 'bid': 9.22}]",133933.09999990463,1669831777264,apple slices,ice cream sundae 002,9.99,9.22,-0.7699999999999996,apple slices,750.5,752,752.0,True,u,135192.69999980927,1259.5999999046326,1669831778524,1260,HRV,HRV_0115,2022-11-30 18:13:24
86,"[{'imgObject': {}, 'id': 'apple slices', 'src': '/static/foodstim60/apple slices.jpg', 'key': 'u', 'origWidth': 409, 'origHeight': 410, 'width': 409, 'height': 410, 'widthPercent': 0.45, 'rescaleHeight': False, 'trialN': 86, 'loaded': True, 'loadedTime': 7573.299999952316, 'positionName': 'LEFT', 'positionCoords': [28.28, 51], 'bid': 9.99}, {'imgObject': {}, 'id': 'strawberries', 'src': '/static/foodstim60/strawberries.jpg', 'key': 'i', 'origWidth': 410, 'origHeight': 410, 'width': 409.95, 'height': 409.95, 'widthPercent': 0.45, 'rescaleHeight': False, 'trialN': 86, 'loaded': True, 'loadedTime': 7976.699999809265, 'positionName': 'RIGHT', 'positionCoords': [473.72, 51.5], 'bid': 9.75}]",135192.89999985695,1669831778524,apple slices,strawberries,9.99,9.75,-0.2400000000000002,apple slices,942.2999999523163,943,943.2999999523163,True,u,136646.09999990463,1453.2000000476837,1669831779977,1453,HRV,HRV_0115,2022-11-30 18:13:24
87,"[{'imgObject': {}, 'id': 'yogurt no spoon', 'src': '/static/foodstim60/yogurt no spoon.jpg', 'key': 'u', 'origWidth': 411, 'origHeight': 410, 'width': 409.95, 'height': 408.95255474452557, 'widthPercent': 0.45, 'rescaleHeight': False, 'trialN': 87, 'loaded': True, 'loadedTime': 8199.199999809265, 'positionName': 'LEFT', 'positionCoords': [28.28, 52], 'bid': 9}, {'imgObject': {}, 'id': 'fried eggs', 'src': '/static/foodstim60/fried eggs.jpg', 'key': 'i', 'origWidth': 410, 'origHeight': 410, 'width': 409.95, 'height': 409.95, 'widthPercent': 0.45, 'rescaleHeight': False, 'trialN': 87, 'loaded': True, 'loadedTime': 8499.299999952316, 'positionName': 'RIGHT', 'positionCoords': [473.72, 51.5], 'bid': 1.63}]",136646.19999980927,1669831779977,yogurt no spoon,fried eggs,9.0,1.63,-7.37,fried eggs,754,755,754.6000001430511,True,i,137910.59999990463,1264.4000000953674,1669831781242,1265,HRV,HRV_0115,2022-11-30 18:13:24
88,"[{'imgObject': {}, 'id': 'turkeysandwich', 'src': '/static/foodstim60/turkeysandwich.jpg', 'key': 'u', 'origWidth': 409, 'origHeight': 409, 'width': 409, 'height': 409, 'widthPercent': 0.45, 'rescaleHeight': False, 'trialN': 88, 'loaded': True, 'loadedTime': 8191.799999952316, 'positionName': 'LEFT', 'positionCoords': [28.28, 51.5], 'bid': 2.85}, {'imgObject': {}, 'id': 'tacos', 'src': '/static/foodstim60/tacos.jpg', 'key': 'i', 'origWidth': 411, 'origHeight': 411, 'width': 409.95, 'height': 409.95, 'widthPercent': 0.45, 'rescaleHeight': False, 'trialN': 88, 'loaded': True, 'loadedTime': 7722.799999952316, 'positionName': 'RIGHT', 'positionCoords': [473.72, 51.5], 'bid': 3.0700000000000003}]",137910.69999980927,1669831781242,turkeysandwich,tacos,2.85,3.0700000000000003,0.2200000000000002,turkeysandwich,1058.3000001907349,1059,1059.3000001907349,True,u,139487.5,1576.8000001907349,1669831782819,1577,HRV,HRV_0115,2022-11-30 18:13:24
89,"[{'imgObject': {}, 'id': 'raspberries', 'src': '/static/foodstim60/raspberries.jpg', 'key': 'u', 'origWidth': 411, 'origHeight': 411, 'width': 409.95, 'height': 409.95, 'widthPercent': 0.45, 'rescaleHeight': False, 'trialN': 89, 'loaded': True, 'loadedTime': 7594.299999952316, 'positionName': 'LEFT', 'positionCoords': [28.28, 51.5], 'bid': 9.13}, {'imgObject': {}, 'id': 'ice cream sundae 002', 'src': '/static/foodstim60/ice cream sundae 002.jpg', 'key': 'i', 'origWidth': 409, 'origHeight': 409, 'width': 409, 'height': 409, 'widthPercent': 0.45, 'rescaleHeight': False, 'trialN': 89, 'loaded': True, 'loadedTime': 8452.399999856949, 'positionName': 'RIGHT', 'positionCoords': [473.72, 51.5], 'bid': 9.22}]",139487.69999980927,1669831782819,raspberries,ice cream sundae 002,9.13,9.22,0.08999999999999986,ice cream sundae 002,642.3000001907349,643,643.3000001907349,True,i,140643.29999995232,1155.6000001430511,1669831783974,1155,HRV,HRV_0115,2022-11-30 18:13:24
90,"[{'imgObject': {}, 'id': 'steak', 'src': '/static/foodstim60/steak.jpg', 'key': 'u', 'origWidth': 410, 'origHeight': 410, 'width': 409.95, 'height': 409.95, 'widthPercent': 0.45, 'rescaleHeight': False, 'trialN': 90, 'loaded': True, 'loadedTime': 7816.899999856949, 'positionName': 'LEFT', 'positionCoords': [28.28, 51.5], 'bid': 1.05}, {'imgObject': {}, 'id': 'grilled chicken strips', 'src': '/static/foodstim60/grilled chicken strips.jpg', 'key': 'i', 'origWidth': 410, 'origHeight': 411, 'width': 409.95, 'height': 410.94987804878053, 'widthPercent': 0.45, 'rescaleHeight': False, 'trialN': 90, 'loaded': True, 'loadedTime': 7899, 'positionName': 'RIGHT', 'positionCoords': [473.72, 51], 'bid': 1.3}]",214382.29999995232,1669831857718,steak,grilled chicken strips,1.05,1.3,0.25,steak,868.7999999523163,870,869.3999998569489,True,u,215771.29999995232,1389.0,1669831859107,1389,HRV,HRV_0115,2022-11-30 18:13:24
91,"[{'imgObject': {}, 'id': 'veggieswithdip', 'src': '/static/foodstim60/veggieswithdip.jpg', 'key': 'u', 'origWidth': 409, 'origHeight': 409, 'width': 409, 'height': 409, 'widthPercent': 0.45, 'rescaleHeight': False, 'trialN': 91, 'loaded': True, 'loadedTime': 8141.5, 'positionName': 'LEFT', 'positionCoords': [28.28, 51.5], 'bid': 1.93}, {'imgObject': {}, 'id': 'sweetpotato', 'src': '/static/foodstim60/sweetpotato.jpg', 'key': 'i', 'origWidth': 410, 'origHeight': 410, 'width': 409.95, 'height': 409.95, 'widthPercent': 0.45, 'rescaleHeight': False, 'trialN': 91, 'loaded': True, 'loadedTime': 8481.599999904633, 'positionName': 'RIGHT', 'positionCoords': [473.72, 51.5], 'bid': 1.05}]",215772.0,1669831859108,veggieswithdip,sweetpotato,1.93,1.05,-0.8799999999999999,sweetpotato,974.6999998092651,975,975.3999998569489,True,i,217253.89999985695,1481.8999998569489,1669831860590,1482,HRV,HRV_0115,2022-11-30 18:13:24
92,"[{'imgObject': {}, 'id': 'steak', 'src': '/static/foodstim60/steak.jpg', 'key': 'u', 'origWidth': 410, 'origHeight': 410, 'width': 409.95, 'height': 409.95, 'widthPercent': 0.45, 'rescaleHeight': False, 'trialN': 92, 'loaded': True, 'loadedTime': 7821, 'positionName': 'LEFT', 'positionCoords': [28.28, 51.5], 'bid': 1.05}, {'imgObject': {}, 'id': 'mac & cheese', 'src': '/static/foodstim60/mac & cheese.jpg', 'key': 'i', 'origWidth': 410, 'origHeight': 410, 'width': 409.95, 'height': 409.95, 'widthPercent': 0.45, 'rescaleHeight': False, 'trialN': 92, 'loaded': True, 'loadedTime': 7896.099999904633, 'positionName': 'RIGHT', 'positionCoords': [473.72, 51.5], 'bid': 1.63}]",217254.09999990463,1669831860590,steak,mac & cheese,1.05,1.63,0.5799999999999998,mac & cheese,870.2999999523163,871,871.2999999523163,True,i,218632.79999995232,1378.7000000476837,1669831861969,1379,HRV,HRV_0115,2022-11-30 18:13:24
93,"[{'imgObject': {}, 'id': 'burger', 'src': '/static/foodstim60/burger.jpg', 'key': 'u', 'origWidth': 409, 'origHeight': 409, 'width': 409, 'height': 409, 'widthPercent': 0.45, 'rescaleHeight': False, 'trialN': 93, 'loaded': True, 'loadedTime': 8096.799999952316, 'positionName': 'LEFT', 'positionCoords': [28.28, 51.5], 'bid': 9.31}, {'imgObject': {}, 'id': 'turkey sandwich', 'src': '/static/foodstim60/turkey sandwich.jpg', 'key': 'i', 'origWidth': 409, 'origHeight': 409, 'width': 409, 'height': 409, 'widthPercent': 0.45, 'rescaleHeight': False, 'trialN': 93, 'loaded': True, 'loadedTime': 8035.699999809265, 'positionName': 'RIGHT', 'positionCoords': [473.72, 51.5], 'bid': 8.98}]",218633.0,1669831861969,burger,turkey sandwich,9.31,8.98,-0.33000000000000007,turkey sandwich,769.5999999046326,770,770.5999999046326,True,i,219956.29999995232,1323.2999999523163,1669831863292,1323,HRV,HRV_0115,2022-11-30 18:13:24
94,"[{'imgObject': {}, 'id': 'cheerios', 'src': '/static/foodstim60/cheerios.jpg', 'key': 'u', 'origWidth': 409, 'origHeight': 410, 'width': 409, 'height': 410, 'widthPercent': 0.45, 'rescaleHeight': False, 'trialN': 94, 'loaded': True, 'loadedTime': 8179.799999952316, 'positionName': 'LEFT', 'positionCoords': [28.28, 51], 'bid': 1.32}, {'imgObject': {}, 'id': 'baked potato', 'src': '/static/foodstim60/baked potato.jpg', 'key': 'i', 'origWidth': 409, 'origHeight': 410, 'width': 409, 'height': 410, 'widthPercent': 0.45, 'rescaleHeight': False, 'trialN': 94, 'loaded': True, 'loadedTime': 7856.5, 'positionName': 'RIGHT', 'positionCoords': [473.72, 51], 'bid': 0.8300000000000001}]",219957.19999980927,1669831863293,cheerios,baked potato,1.32,0.8300000000000001,-0.49,baked potato,780.2000000476837,781,780.9000000953674,True,i,221257.79999995232,1300.6000001430511,1669831864594,1301,HRV,HRV_0115,2022-11-30 18:13:24
95,"[{'imgObject': {}, 'id': 'avocado', 'src': '/static/foodstim60/avocado.jpg', 'key': 'u', 'origWidth': 409, 'origHeight': 409, 'width': 409, 'height': 409, 'widthPercent': 0.45, 'rescaleHeight': False, 'trialN': 95, 'loaded': True, 'loadedTime': 7998.099999904633, 'positionName': 'LEFT', 'positionCoords': [28.28, 51.5], 'bid': 9.37}, {'imgObject': {}, 'id': 'burger', 'src': '/static/foodstim60/burger.jpg', 'key': 'i', 'origWidth': 409, 'origHeight': 409, 'width': 409, 'height': 409, 'widthPercent': 0.45, 'rescaleHeight': False, 'trialN': 95, 'loaded': True, 'loadedTime': 8102.399999856949, 'positionName': 'RIGHT', 'positionCoords': [473.72, 51.5], 'bid': 9.31}]",221258.0,1669831864594,avocado,burger,9.37,9.31,-0.05999999999999872,burger,831,832,832.0999999046326,True,i,222603.59999990463,1345.5999999046326,1669831865940,1346,HRV,HRV_0115,2022-11-30 18:13:24
96,"[{'imgObject': {}, 'id': 'bagel plain', 'src': '/static/foodstim60/bagel plain.jpg', 'key': 'u', 'origWidth': 410, 'origHeight': 410, 'width': 409.95, 'height': 409.95, 'widthPercent': 0.45, 'rescaleHeight': False, 'trialN': 96, 'loaded': True, 'loadedTime': 8216.399999856949, 'positionName': 'LEFT', 'positionCoords': [28.28, 51.5], 'bid': 7.33}, {'imgObject': {}, 'id': 'chicken nuggets2', 'src': '/static/foodstim60/chicken nuggets2.jpg', 'key': 'i', 'origWidth': 410, 'origHeight': 409, 'width': 409.95, 'height': 408.9501219512195, 'widthPercent': 0.45, 'rescaleHeight': False, 'trialN': 96, 'loaded': True, 'loadedTime': 7812.5, 'positionName': 'RIGHT', 'positionCoords': [473.72, 52], 'bid': 3.34}]",222603.79999995232,1669831865940,bagel plain,chicken nuggets2,7.33,3.34,-3.99,bagel plain,871.5,872,872.5,True,u,223984.79999995232,1381.0,1669831867321,1381,HRV,HRV_0115,2022-11-30 18:13:24
97,"[{'imgObject': {}, 'id': 'avocado', 'src': '/static/foodstim60/avocado.jpg', 'key': 'u', 'origWidth': 409, 'origHeight': 409, 'width': 409, 'height': 409, 'widthPercent': 0.45, 'rescaleHeight': False, 'trialN': 97, 'loaded': True, 'loadedTime': 7999.5, 'positionName': 'LEFT', 'positionCoords': [28.28, 51.5], 'bid': 9.37}, {'imgObject': {}, 'id': 'fruitsalad', 'src': '/static/foodstim60/fruitsalad.jpg', 'key': 'i', 'origWidth': 410, 'origHeight': 410, 'width': 409.95, 'height': 409.95, 'widthPercent': 0.45, 'rescaleHeight': False, 'trialN': 97, 'loaded': True, 'loadedTime': 8371.399999856949, 'positionName': 'RIGHT', 'positionCoords': [473.72, 51.5], 'bid': 9.53}]",223985.0,1669831867321,avocado,fruitsalad,9.37,9.53,0.16000000000000014,avocado,800.6999998092651,802,801.6999998092651,True,u,225297.29999995232,1312.2999999523163,1669831868633,1312,HRV,HRV_0115,2022-11-30 18:13:24
98,"[{'imgObject': {}, 'id': 'blackbeanswithrice', 'src': '/static/foodstim60/blackbeanswithrice.jpg', 'key': 'u', 'origWidth': 410, 'origHeight': 410, 'width': 409.95, 'height': 409.95, 'widthPercent': 0.45, 'rescaleHeight': False, 'trialN': 98, 'loaded': True, 'loadedTime': 8169.299999952316, 'positionName': 'LEFT', 'positionCoords': [28.28, 51.5], 'bid': 3.89}, {'imgObject': {}, 'id': 'bagel plain', 'src': '/static/foodstim60/bagel plain.jpg', 'key': 'i', 'origWidth': 410, 'origHeight': 410, 'width': 409.95, 'height': 409.95, 'widthPercent': 0.45, 'rescaleHeight': False, 'trialN': 98, 'loaded': True, 'loadedTime': 8221.599999904633, 'positionName': 'RIGHT', 'positionCoords': [473.72, 51.5], 'bid': 7.33}]",225297.59999990463,1669831868633,blackbeanswithrice,bagel plain,3.89,7.33,3.44,bagel plain,1056.4000000953674,1058,1057.2999999523163,True,i,226860.59999990463,1563.0,1669831870197,1564,HRV,HRV_0115,2022-11-30 18:13:24
99,"[{'imgObject': {}, 'id': 'hotdog w must', 'src': '/static/foodstim60/hotdog w must.jpg', 'key': 'u', 'origWidth': 409, 'origHeight': 409, 'width': 409, 'height': 409, 'widthPercent': 0.45, 'rescaleHeight': False, 'trialN': 99, 'loaded': True, 'loadedTime': 8418.099999904633, 'positionName': 'LEFT', 'positionCoords': [28.28, 51.5], 'bid': 2.15}, {'imgObject': {}, 'id': 'rigatoni', 'src': '/static/foodstim60/rigatoni.jpg', 'key': 'i', 'origWidth': 411, 'origHeight': 411, 'width': 409.95, 'height': 409.95, 'widthPercent': 0.45, 'rescaleHeight': False, 'trialN': 99, 'loaded': True, 'loadedTime': 7844.599999904633, 'positionName': 'RIGHT', 'positionCoords': [473.72, 51.5], 'bid': 9.33}]",226860.89999985695,1669831870197,hotdog w must,rigatoni,2.15,9.33,7.18,hotdog w must,814.7999999523163,815,815.2999999523163,True,u,228189.19999980927,1328.2999999523163,1669831871525,1328,HRV,HRV_0115,2022-11-30 18:13:24
100,"[{'imgObject': {}, 'id': 'bagel and cc', 'src': '/static/foodstim60/bagel and cc.jpg', 'key': 'u', 'origWidth': 410, 'origHeight': 410, 'width': 409.95, 'height': 409.95, 'widthPercent': 0.45, 'rescaleHeight': False, 'trialN': 100, 'loaded': True, 'loadedTime': 7965.199999809265, 'positionName': 'LEFT', 'positionCoords': [28.28, 51.5], 'bid': 7.95}, {'imgObject': {}, 'id': 'eggsalad', 'src': '/static/foodstim60/eggsalad.jpg', 'key': 'i', 'origWidth': 410, 'origHeight': 409, 'width': 409.95, 'height': 408.9501219512195, 'widthPercent': 0.45, 'rescaleHeight': False, 'trialN': 100, 'loaded': True, 'loadedTime': 8369.599999904633, 'positionName': 'RIGHT', 'positionCoords': [473.72, 52], 'bid': 8.43}]",228189.39999985695,1669831871525,bagel and cc,eggsalad,7.95,8.43,0.47999999999999954,bagel and cc,749.2000000476837,750,750.1000001430511,True,u,229453.69999980927,1264.2999999523163,1669831872790,1265,HRV,HRV_0115,2022-11-30 18:13:24
101,"[{'imgObject': {}, 'id': 'cherry tomato', 'src': '/static/foodstim60/cherry tomato.jpg', 'key': 'u', 'origWidth': 410, 'origHeight': 410, 'width': 409.95, 'height': 409.95, 'widthPercent': 0.45, 'rescaleHeight': False, 'trialN': 101, 'loaded': True, 'loadedTime': 8066.699999809265, 'positionName': 'LEFT', 'positionCoords': [28.28, 51.5], 'bid': 9.75}, {'imgObject': {}, 'id': 'turkeysandwich', 'src': '/static/foodstim60/turkeysandwich.jpg', 'key': 'i', 'origWidth': 409, 'origHeight': 409, 'width': 409, 'height': 409, 'widthPercent': 0.45, 'rescaleHeight': False, 'trialN': 101, 'loaded': True, 'loadedTime': 8191.299999952316, 'positionName': 'RIGHT', 'positionCoords': [473.72, 51.5], 'bid': 2.85}]",229454.0,1669831872790,cherry tomato,turkeysandwich,9.75,2.85,-6.9,cherry tomato,733.5999999046326,735,734.5999999046326,True,u,230702.39999985695,1248.3999998569489,1669831874038,1248,HRV,HRV_0115,2022-11-30 18:13:24
102,"[{'imgObject': {}, 'id': 'froot loops w milk', 'src': '/static/foodstim60/froot loops w milk.jpg', 'key': 'u', 'origWidth': 410, 'origHeight': 410, 'width': 409.95, 'height': 409.95, 'widthPercent': 0.45, 'rescaleHeight': False, 'trialN': 102, 'loaded': True, 'loadedTime': 8461.399999856949, 'positionName': 'LEFT', 'positionCoords': [28.28, 51.5], 'bid': 8.28}, {'imgObject': {}, 'id': 'cherries', 'src': '/static/foodstim60/cherries.jpg', 'key': 'i', 'origWidth': 410, 'origHeight': 411, 'width': 409.95, 'height': 410.94987804878053, 'widthPercent': 0.45, 'rescaleHeight': False, 'trialN': 102, 'loaded': True, 'loadedTime': 8474.199999809265, 'positionName': 'RIGHT', 'positionCoords': [473.72, 51], 'bid': 7.6}]",230702.5,1669831874038,froot loops w milk,cherries,8.28,7.6,-0.6799999999999997,cherries,658.5,660,659.3999998569489,True,i,231881.79999995232,1179.2999999523163,1669831875218,1180,HRV,HRV_0115,2022-11-30 18:13:24
103,"[{'imgObject': {}, 'id': 'rigatoni', 'src': '/static/foodstim60/rigatoni.jpg', 'key': 'u', 'origWidth': 411, 'origHeight': 411, 'width': 409.95, 'height': 409.95, 'widthPercent': 0.45, 'rescaleHeight': False, 'trialN': 103, 'loaded': True, 'loadedTime': 7832.699999809265, 'positionName': 'LEFT', 'positionCoords': [28.28, 51.5], 'bid': 9.33}, {'imgObject': {}, 'id': 'yogurt no spoon', 'src': '/static/foodstim60/yogurt no spoon.jpg', 'key': 'i', 'origWidth': 411, 'origHeight': 410, 'width': 409.95, 'height': 408.95255474452557, 'widthPercent': 0.45, 'rescaleHeight': False, 'trialN': 103, 'loaded': True, 'loadedTime': 8204, 'positionName': 'RIGHT', 'positionCoords': [473.72, 52], 'bid': 9}]",231882.09999990463,1669831875218,rigatoni,yogurt no spoon,9.33,9.0,-0.33000000000000007,rigatoni,1154.4000000953674,1155,1155.2000000476837,True,u,233554.39999985695,1672.2999999523163,1669831876890,1672,HRV,HRV_0115,2022-11-30 18:13:24
104,"[{'imgObject': {}, 'id': 'fried eggs', 'src': '/static/foodstim60/fried eggs.jpg', 'key': 'u', 'origWidth': 410, 'origHeight': 410, 'width': 409.95, 'height': 409.95, 'widthPercent': 0.45, 'rescaleHeight': False, 'trialN': 104, 'loaded': True, 'loadedTime': 8488.399999856949, 'positionName': 'LEFT', 'positionCoords': [28.28, 51.5], 'bid': 1.63}, {'imgObject': {}, 'id': 'raisin bran w milk', 'src': '/static/foodstim60/raisin bran w milk.jpg', 'key': 'i', 'origWidth': 411, 'origHeight': 411, 'width': 409.95, 'height': 409.95, 'widthPercent': 0.45, 'rescaleHeight': False, 'trialN': 104, 'loaded': True, 'loadedTime': 8105.899999856949, 'positionName': 'RIGHT', 'positionCoords': [473.72, 51.5], 'bid': 1.84}]",233554.59999990463,1669831876891,fried eggs,raisin bran w milk,1.63,1.84,0.2100000000000002,fried eggs,936.7000000476837,937,937.5,True,u,235000.59999990463,1446.0,1669831878336,1445,HRV,HRV_0115,2022-11-30 18:13:24
105,"[{'imgObject': {}, 'id': 'salmon', 'src': '/static/foodstim60/salmon.jpg', 'key': 'u', 'origWidth': 410, 'origHeight': 409, 'width': 409.95, 'height': 408.9501219512195, 'widthPercent': 0.45, 'rescaleHeight': False, 'trialN': 105, 'loaded': True, 'loadedTime': 8040.399999856949, 'positionName': 'LEFT', 'positionCoords': [28.28, 52], 'bid': 2.94}, {'imgObject': {}, 'id': 'cherries', 'src': '/static/foodstim60/cherries.jpg', 'key': 'i', 'origWidth': 410, 'origHeight': 411, 'width': 409.95, 'height': 410.94987804878053, 'widthPercent': 0.45, 'rescaleHeight': False, 'trialN': 105, 'loaded': True, 'loadedTime': 8475.5, 'positionName': 'RIGHT', 'positionCoords': [473.72, 51], 'bid': 7.6}]",235000.69999980927,1669831878337,salmon,cherries,2.94,7.6,4.66,cherries,776.6000001430511,777,777.8000001907349,True,i,236297.69999980927,1297.0,1669831879634,1297,HRV,HRV_0115,2022-11-30 18:13:24
106,"[{'imgObject': {}, 'id': 'mango', 'src': '/static/foodstim60/mango.jpg', 'key': 'u', 'origWidth': 411, 'origHeight': 411, 'width': 409.95, 'height': 409.95, 'widthPercent': 0.45, 'rescaleHeight': False, 'trialN': 106, 'loaded': True, 'loadedTime': 8362.699999809265, 'positionName': 'LEFT', 'positionCoords': [28.28, 51.5], 'bid': 9.18}, {'imgObject': {}, 'id': 'veggieswithdip', 'src': '/static/foodstim60/veggieswithdip.jpg', 'key': 'i', 'origWidth': 409, 'origHeight': 409, 'width': 409, 'height': 409, 'widthPercent': 0.45, 'rescaleHeight': False, 'trialN': 106, 'loaded': True, 'loadedTime': 8156.5, 'positionName': 'RIGHT', 'positionCoords': [473.72, 51.5], 'bid': 1.93}]",236297.89999985695,1669831879634,mango,veggieswithdip,9.18,1.93,-7.25,mango,1051,1052,1052.0,True,u,237856.89999985695,1559.0,1669831881193,1559,HRV,HRV_0115,2022-11-30 18:13:24
107,"[{'imgObject': {}, 'id': 'raisin bran w milk', 'src': '/static/foodstim60/raisin bran w milk.jpg', 'key': 'u', 'origWidth': 411, 'origHeight': 411, 'width': 409.95, 'height': 409.95, 'widthPercent': 0.45, 'rescaleHeight': False, 'trialN': 107, 'loaded': True, 'loadedTime': 8111, 'positionName': 'LEFT', 'positionCoords': [28.28, 51.5], 'bid': 1.84}, {'imgObject': {}, 'id': 'burrito', 'src': '/static/foodstim60/burrito.jpg', 'key': 'i', 'origWidth': 410, 'origHeight': 410, 'width': 409.95, 'height': 409.95, 'widthPercent': 0.45, 'rescaleHeight': False, 'trialN': 107, 'loaded': True, 'loadedTime': 7934.5, 'positionName': 'RIGHT', 'positionCoords': [473.72, 51.5], 'bid': 1.32}]",237857.09999990463,1669831881193,raisin bran w milk,burrito,1.84,1.32,-0.52,burrito,854.2000000476837,855,855.0999999046326,True,i,239233.0,1375.9000000953674,1669831882569,1376,HRV,HRV_0115,2022-11-30 18:13:24
