trialN,stimuli,question,trialStartTime,trialStartTime_UNIX,stimulus1,rt,receivedResponse,rating,trialEndTime,trialDuration,stimulus1Loaded,exp,subjectId,date
0,"[{'imgObject': {}, 'id': 'omelette', 'src': '/static/foodstim60/omelette.jpg', 'key': 'NaN', 'origWidth': 410, 'origHeight': 409, 'width': 333.61369193154036, 'height': 332.8, 'widthPercent': 0.8, 'rescaleHeight': True, 'trialN': 0, 'loaded': True, 'loadedTime': 4384.899999856949, 'positionName': 'CENTER', 'positionCoords': [289, 90]}]",Rate how much you want to eat this food from 0 (least) to 10 (most).,9105.299999952316,1669831248293,omelette,6389.599999904633,True,1.56,15494.899999856949,6389.599999904633,True,HRV,HRV_0115,2022-11-30 18:03:10
1,"[{'imgObject': {}, 'id': 'mango', 'src': '/static/foodstim60/mango.jpg', 'key': 'NaN', 'origWidth': 411, 'origHeight': 411, 'width': 332.8, 'height': 332.8, 'widthPercent': 0.8, 'rescaleHeight': True, 'trialN': 1, 'loaded': True, 'loadedTime': 4420.599999904633, 'positionName': 'CENTER', 'positionCoords': [289.5, 90]}]",Rate how much you want to eat this food from 0 (least) to 10 (most).,15497.599999904633,1669831254685,mango,2410.4000000953674,True,8.65,17908.0,2410.4000000953674,True,HRV,HRV_0115,2022-11-30 18:03:10
2,"[{'imgObject': {}, 'id': 'veggieswithdip', 'src': '/static/foodstim60/veggieswithdip.jpg', 'key': 'NaN', 'origWidth': 409, 'origHeight': 409, 'width': 332.8, 'height': 332.8, 'widthPercent': 0.8, 'rescaleHeight': True, 'trialN': 2, 'loaded': True, 'loadedTime': 4481.199999809265, 'positionName': 'CENTER', 'positionCoords': [289.5, 90]}]",Rate how much you want to eat this food from 0 (least) to 10 (most).,17910.0,1669831257098,veggieswithdip,2891.0999999046326,True,1.32,20801.099999904633,2891.0999999046326,True,HRV,HRV_0115,2022-11-30 18:03:10
3,"[{'imgObject': {}, 'id': 'shreddedwheatwithmilk', 'src': '/static/foodstim60/shreddedwheatwithmilk.jpg', 'key': 'NaN', 'origWidth': 410, 'origHeight': 410, 'width': 332.8, 'height': 332.8, 'widthPercent': 0.8, 'rescaleHeight': True, 'trialN': 3, 'loaded': True, 'loadedTime': 4392.799999952316, 'positionName': 'CENTER', 'positionCoords': [289.5, 90]}]",Rate how much you want to eat this food from 0 (least) to 10 (most).,20805.099999904633,1669831259993,shreddedwheatwithmilk,1665.5999999046326,True,1.1,22470.699999809265,1665.5999999046326,True,HRV,HRV_0115,2022-11-30 18:03:10
4,"[{'imgObject': {}, 'id': 'eggs', 'src': '/static/foodstim60/eggs.jpg', 'key': 'NaN', 'origWidth': 409, 'origHeight': 409, 'width': 332.8, 'height': 332.8, 'widthPercent': 0.8, 'rescaleHeight': True, 'trialN': 4, 'loaded': True, 'loadedTime': 4846.599999904633, 'positionName': 'CENTER', 'positionCoords': [289.5, 90]}]",Rate how much you want to eat this food from 0 (least) to 10 (most).,22472.39999985695,1669831261660,eggs,2472.100000143051,True,9.55,24944.5,2472.100000143051,True,HRV,HRV_0115,2022-11-30 18:03:10
5,"[{'imgObject': {}, 'id': 'chicken nuggets2', 'src': '/static/foodstim60/chicken nuggets2.jpg', 'key': 'NaN', 'origWidth': 410, 'origHeight': 409, 'width': 333.61369193154036, 'height': 332.8, 'widthPercent': 0.8, 'rescaleHeight': True, 'trialN': 5, 'loaded': True, 'loadedTime': 4901.199999809265, 'positionName': 'CENTER', 'positionCoords': [289, 90]}]",Rate how much you want to eat this food from 0 (least) to 10 (most).,24946.39999985695,1669831264134,chicken nuggets2,1870.1000001430511,True,5.14,26816.5,1870.1000001430511,True,HRV,HRV_0115,2022-11-30 18:03:10
6,"[{'imgObject': {}, 'id': 'edamame', 'src': '/static/foodstim60/edamame.jpg', 'key': 'NaN', 'origWidth': 409, 'origHeight': 410, 'width': 331.98829268292684, 'height': 332.8, 'widthPercent': 0.8, 'rescaleHeight': True, 'trialN': 6, 'loaded': True, 'loadedTime': 4922.399999856949, 'positionName': 'CENTER', 'positionCoords': [290, 90]}]",Rate how much you want to eat this food from 0 (least) to 10 (most).,26818.099999904633,1669831266006,edamame,2755.2000000476837,True,0.68,29573.299999952316,2755.2000000476837,True,HRV,HRV_0115,2022-11-30 18:03:10
7,"[{'imgObject': {}, 'id': 'salmon', 'src': '/static/foodstim60/salmon.jpg', 'key': 'NaN', 'origWidth': 410, 'origHeight': 409, 'width': 333.61369193154036, 'height': 332.8, 'widthPercent': 0.8, 'rescaleHeight': True, 'trialN': 7, 'loaded': True, 'loadedTime': 5315.799999952316, 'positionName': 'CENTER', 'positionCoords': [289, 90]}]",Rate how much you want to eat this food from 0 (least) to 10 (most).,29576.299999952316,1669831268764,salmon,1663.3999998569489,True,0.7000000000000001,31239.699999809265,1663.3999998569489,True,HRV,HRV_0115,2022-11-30 18:03:10
8,"[{'imgObject': {}, 'id': 'sushi w_condiments', 'src': '/static/foodstim60/sushi w_condiments.jpg', 'key': 'NaN', 'origWidth': 410, 'origHeight': 410, 'width': 332.8, 'height': 332.8, 'widthPercent': 0.8, 'rescaleHeight': True, 'trialN': 8, 'loaded': True, 'loadedTime': 5356.799999952316, 'positionName': 'CENTER', 'positionCoords': [289.5, 90]}]",Rate how much you want to eat this food from 0 (least) to 10 (most).,31241.89999985695,1669831270429,sushi w_condiments,1873.9000000953674,True,1.1400000000000001,33115.799999952316,1873.9000000953674,True,HRV,HRV_0115,2022-11-30 18:03:10
9,"[{'imgObject': {}, 'id': 'avocado', 'src': '/static/foodstim60/avocado.jpg', 'key': 'NaN', 'origWidth': 409, 'origHeight': 409, 'width': 332.8, 'height': 332.8, 'widthPercent': 0.8, 'rescaleHeight': True, 'trialN': 9, 'loaded': True, 'loadedTime': 4893.799999952316, 'positionName': 'CENTER', 'positionCoords': [289.5, 90]}]",Rate how much you want to eat this food from 0 (least) to 10 (most).,33119.39999985695,1669831272307,avocado,2159.100000143051,True,9.16,35278.5,2159.100000143051,True,HRV,HRV_0115,2022-11-30 18:03:10
10,"[{'imgObject': {}, 'id': 'yogurt no spoon', 'src': '/static/foodstim60/yogurt no spoon.jpg', 'key': 'NaN', 'origWidth': 411, 'origHeight': 410, 'width': 333.6117073170732, 'height': 332.8, 'widthPercent': 0.8, 'rescaleHeight': True, 'trialN': 10, 'loaded': True, 'loadedTime': 5336.399999856949, 'positionName': 'CENTER', 'positionCoords': [289, 90]}]",Rate how much you want to eat this food from 0 (least) to 10 (most).,35280.299999952316,1669831274468,yogurt no spoon,2659.399999856949,True,8.69,37939.699999809265,2659.399999856949,True,HRV,HRV_0115,2022-11-30 18:03:10
11,"[{'imgObject': {}, 'id': 'Tribe humus pita', 'src': '/static/foodstim60/Tribe humus pita.jpg', 'key': 'NaN', 'origWidth': 411, 'origHeight': 411, 'width': 332.8, 'height': 332.8, 'widthPercent': 0.8, 'rescaleHeight': True, 'trialN': 11, 'loaded': True, 'loadedTime': 5326.899999856949, 'positionName': 'CENTER', 'positionCoords': [289.5, 90]}]",Rate how much you want to eat this food from 0 (least) to 10 (most).,37942.59999990463,1669831277130,Tribe humus pita,2189.0,True,7.9,40131.59999990463,2189.0,True,HRV,HRV_0115,2022-11-30 18:03:10
12,"[{'imgObject': {}, 'id': 'burrito', 'src': '/static/foodstim60/burrito.jpg', 'key': 'NaN', 'origWidth': 410, 'origHeight': 410, 'width': 332.8, 'height': 332.8, 'widthPercent': 0.8, 'rescaleHeight': True, 'trialN': 12, 'loaded': True, 'loadedTime': 5345.199999809265, 'positionName': 'CENTER', 'positionCoords': [289.5, 90]}]",Rate how much you want to eat this food from 0 (least) to 10 (most).,40134.299999952316,1669831279322,burrito,2301.7999999523163,True,2.66,42436.09999990463,2301.7999999523163,True,HRV,HRV_0115,2022-11-30 18:03:10
13,"[{'imgObject': {}, 'id': 'kiwi', 'src': '/static/foodstim60/kiwi.jpg', 'key': 'NaN', 'origWidth': 410, 'origHeight': 410, 'width': 332.8, 'height': 332.8, 'widthPercent': 0.8, 'rescaleHeight': True, 'trialN': 13, 'loaded': True, 'loadedTime': 5375.399999856949, 'positionName': 'CENTER', 'positionCoords': [289.5, 90]}]",Rate how much you want to eat this food from 0 (least) to 10 (most).,42439.59999990463,1669831281629,kiwi,2169.9000000953674,True,1.6,44609.5,2169.9000000953674,True,HRV,HRV_0115,2022-11-30 18:03:10
14,"[{'imgObject': {}, 'id': 'turkey sandwich', 'src': '/static/foodstim60/turkey sandwich.jpg', 'key': 'NaN', 'origWidth': 409, 'origHeight': 409, 'width': 332.8, 'height': 332.8, 'widthPercent': 0.8, 'rescaleHeight': True, 'trialN': 14, 'loaded': True, 'loadedTime': 5822.799999952316, 'positionName': 'CENTER', 'positionCoords': [289.5, 90]}]",Rate how much you want to eat this food from 0 (least) to 10 (most).,44614.39999985695,1669831283804,turkey sandwich,1690.7000000476837,True,4.8100000000000005,46305.09999990463,1690.7000000476837,True,HRV,HRV_0115,2022-11-30 18:03:10
15,"[{'imgObject': {}, 'id': 'pear', 'src': '/static/foodstim60/pear.jpg', 'key': 'NaN', 'origWidth': 411, 'origHeight': 410, 'width': 333.6117073170732, 'height': 332.8, 'widthPercent': 0.8, 'rescaleHeight': True, 'trialN': 15, 'loaded': True, 'loadedTime': 5789.899999856949, 'positionName': 'CENTER', 'positionCoords': [289, 90]}]",Rate how much you want to eat this food from 0 (least) to 10 (most).,46310.39999985695,1669831285500,pear,1424.0,True,9.13,47734.39999985695,1424.0,True,HRV,HRV_0115,2022-11-30 18:03:10
16,"[{'imgObject': {}, 'id': 'burger', 'src': '/static/foodstim60/burger.jpg', 'key': 'NaN', 'origWidth': 409, 'origHeight': 409, 'width': 332.8, 'height': 332.8, 'widthPercent': 0.8, 'rescaleHeight': True, 'trialN': 16, 'loaded': True, 'loadedTime': 5814.5, 'positionName': 'CENTER', 'positionCoords': [289.5, 90]}]",Rate how much you want to eat this food from 0 (least) to 10 (most).,47736.5,1669831286926,burger,1961.0,True,9.55,49697.5,1961.0,True,HRV,HRV_0115,2022-11-30 18:03:10
17,"[{'imgObject': {}, 'id': 'granola w milk', 'src': '/static/foodstim60/granola w milk.jpg', 'key': 'NaN', 'origWidth': 410, 'origHeight': 410, 'width': 332.8, 'height': 332.8, 'widthPercent': 0.8, 'rescaleHeight': True, 'trialN': 17, 'loaded': True, 'loadedTime': 5805.699999809265, 'positionName': 'CENTER', 'positionCoords': [289.5, 90]}]",Rate how much you want to eat this food from 0 (least) to 10 (most).,49700.89999985695,1669831288890,granola w milk,1790.7000000476837,True,2.15,51491.59999990463,1790.7000000476837,True,HRV,HRV_0115,2022-11-30 18:03:10
18,"[{'imgObject': {}, 'id': 'baked potato', 'src': '/static/foodstim60/baked potato.jpg', 'key': 'NaN', 'origWidth': 409, 'origHeight': 410, 'width': 331.98829268292684, 'height': 332.8, 'widthPercent': 0.8, 'rescaleHeight': True, 'trialN': 18, 'loaded': True, 'loadedTime': 5842.299999952316, 'positionName': 'CENTER', 'positionCoords': [290, 90]}]",Rate how much you want to eat this food from 0 (least) to 10 (most).,51494.0,1669831290683,baked potato,1982.1999998092651,True,0.9400000000000001,53476.199999809265,1982.1999998092651,True,HRV,HRV_0115,2022-11-30 18:03:10
19,"[{'imgObject': {}, 'id': 'hashbrowns', 'src': '/static/foodstim60/hashbrowns.jpg', 'key': 'NaN', 'origWidth': 411, 'origHeight': 410, 'width': 333.6117073170732, 'height': 332.8, 'widthPercent': 0.8, 'rescaleHeight': True, 'trialN': 19, 'loaded': True, 'loadedTime': 5833.5, 'positionName': 'CENTER', 'positionCoords': [289, 90]}]",Rate how much you want to eat this food from 0 (least) to 10 (most).,53481.0,1669831292670,hashbrowns,2061.199999809265,True,5.75,55542.199999809265,2061.199999809265,True,HRV,HRV_0115,2022-11-30 18:03:10
20,"[{'imgObject': {}, 'id': 'banana', 'src': '/static/foodstim60/banana.jpg', 'key': 'NaN', 'origWidth': 410, 'origHeight': 410, 'width': 332.8, 'height': 332.8, 'widthPercent': 0.8, 'rescaleHeight': True, 'trialN': 20, 'loaded': True, 'loadedTime': 6203, 'positionName': 'CENTER', 'positionCoords': [289.5, 90]}]",Rate how much you want to eat this food from 0 (least) to 10 (most).,55546.39999985695,1669831294736,banana,4163.900000095367,True,9.99,59710.299999952316,4163.900000095367,True,HRV,HRV_0115,2022-11-30 18:03:10
21,"[{'imgObject': {}, 'id': 'steak', 'src': '/static/foodstim60/steak.jpg', 'key': 'NaN', 'origWidth': 410, 'origHeight': 410, 'width': 332.8, 'height': 332.8, 'widthPercent': 0.8, 'rescaleHeight': True, 'trialN': 21, 'loaded': True, 'loadedTime': 6278.099999904633, 'positionName': 'CENTER', 'positionCoords': [289.5, 90]}]",Rate how much you want to eat this food from 0 (least) to 10 (most).,59712.5,1669831298902,steak,2573.5,True,1.95,62286.0,2573.5,True,HRV,HRV_0115,2022-11-30 18:03:10
22,"[{'imgObject': {}, 'id': 'rigatoni and sauce', 'src': '/static/foodstim60/rigatoni and sauce.jpg', 'key': 'NaN', 'origWidth': 410, 'origHeight': 411, 'width': 331.9902676399027, 'height': 332.8, 'widthPercent': 0.8, 'rescaleHeight': True, 'trialN': 22, 'loaded': True, 'loadedTime': 6307.899999856949, 'positionName': 'CENTER', 'positionCoords': [290, 90]}]",Rate how much you want to eat this food from 0 (least) to 10 (most).,62288.5,1669831301478,rigatoni and sauce,2577.2999999523163,True,7.79,64865.799999952316,2577.2999999523163,True,HRV,HRV_0115,2022-11-30 18:03:10
23,"[{'imgObject': {}, 'id': 'cantaloupe', 'src': '/static/foodstim60/cantaloupe.jpg', 'key': 'NaN', 'origWidth': 409, 'origHeight': 409, 'width': 332.8, 'height': 332.8, 'widthPercent': 0.8, 'rescaleHeight': True, 'trialN': 23, 'loaded': True, 'loadedTime': 6258.399999856949, 'positionName': 'CENTER', 'positionCoords': [289.5, 90]}]",Rate how much you want to eat this food from 0 (least) to 10 (most).,64868.89999985695,1669831304058,cantaloupe,1773.2000000476837,True,9.51,66642.09999990463,1773.2000000476837,True,HRV,HRV_0115,2022-11-30 18:03:10
24,"[{'imgObject': {}, 'id': 'raisin bran w milk', 'src': '/static/foodstim60/raisin bran w milk.jpg', 'key': 'NaN', 'origWidth': 411, 'origHeight': 411, 'width': 332.8, 'height': 332.8, 'widthPercent': 0.8, 'rescaleHeight': True, 'trialN': 24, 'loaded': True, 'loadedTime': 6328.299999952316, 'positionName': 'CENTER', 'positionCoords': [289.5, 90]}]",Rate how much you want to eat this food from 0 (least) to 10 (most).,66644.89999985695,1669831305834,raisin bran w milk,1800.6000001430511,True,1.78,68445.5,1800.6000001430511,True,HRV,HRV_0115,2022-11-30 18:03:10
25,"[{'imgObject': {}, 'id': 'mashed potato', 'src': '/static/foodstim60/mashed potato.jpg', 'key': 'NaN', 'origWidth': 409, 'origHeight': 409, 'width': 332.8, 'height': 332.8, 'widthPercent': 0.8, 'rescaleHeight': True, 'trialN': 25, 'loaded': True, 'loadedTime': 6269.799999952316, 'positionName': 'CENTER', 'positionCoords': [289.5, 90]}]",Rate how much you want to eat this food from 0 (least) to 10 (most).,68448.09999990463,1669831307637,mashed potato,1843.7000000476837,True,8.120000000000001,70291.79999995232,1843.7000000476837,True,HRV,HRV_0115,2022-11-30 18:03:10
26,"[{'imgObject': {}, 'id': 'blackbeanswithrice', 'src': '/static/foodstim60/blackbeanswithrice.jpg', 'key': 'NaN', 'origWidth': 410, 'origHeight': 410, 'width': 332.8, 'height': 332.8, 'widthPercent': 0.8, 'rescaleHeight': True, 'trialN': 26, 'loaded': True, 'loadedTime': 6685.899999856949, 'positionName': 'CENTER', 'positionCoords': [289.5, 90]}]",Rate how much you want to eat this food from 0 (least) to 10 (most).,70295.69999980927,1669831309485,blackbeanswithrice,2638.300000190735,True,1.54,72934.0,2638.300000190735,True,HRV,HRV_0115,2022-11-30 18:03:10
27,"[{'imgObject': {}, 'id': 'froot loops w milk', 'src': '/static/foodstim60/froot loops w milk.jpg', 'key': 'NaN', 'origWidth': 410, 'origHeight': 410, 'width': 332.8, 'height': 332.8, 'widthPercent': 0.8, 'rescaleHeight': True, 'trialN': 27, 'loaded': True, 'loadedTime': 6716.099999904633, 'positionName': 'CENTER', 'positionCoords': [289.5, 90]}]",Rate how much you want to eat this food from 0 (least) to 10 (most).,72936.69999980927,1669831312126,froot loops w milk,2347.4000000953674,True,9.55,75284.09999990463,2347.4000000953674,True,HRV,HRV_0115,2022-11-30 18:03:10
28,"[{'imgObject': {}, 'id': 'rigatoni', 'src': '/static/foodstim60/rigatoni.jpg', 'key': 'NaN', 'origWidth': 411, 'origHeight': 411, 'width': 332.8, 'height': 332.8, 'widthPercent': 0.8, 'rescaleHeight': True, 'trialN': 28, 'loaded': True, 'loadedTime': 6726.099999904633, 'positionName': 'CENTER', 'positionCoords': [289.5, 90]}]",Rate how much you want to eat this food from 0 (least) to 10 (most).,75286.5,1669831314476,rigatoni,3468.5999999046326,True,6.24,78755.09999990463,3468.5999999046326,True,HRV,HRV_0115,2022-11-30 18:03:10
29,"[{'imgObject': {}, 'id': 'olives', 'src': '/static/foodstim60/olives.jpg', 'key': 'NaN', 'origWidth': 410, 'origHeight': 410, 'width': 332.8, 'height': 332.8, 'widthPercent': 0.8, 'rescaleHeight': True, 'trialN': 29, 'loaded': True, 'loadedTime': 6678, 'positionName': 'CENTER', 'positionCoords': [289.5, 90]}]",Rate how much you want to eat this food from 0 (least) to 10 (most).,78776.89999985695,1669831317966,olives,1925.7000000476837,True,3.0300000000000002,80702.59999990463,1925.7000000476837,True,HRV,HRV_0115,2022-11-30 18:03:10
30,"[{'imgObject': {}, 'id': 'grilled chicken strips', 'src': '/static/foodstim60/grilled chicken strips.jpg', 'key': 'NaN', 'origWidth': 410, 'origHeight': 411, 'width': 331.9902676399027, 'height': 332.8, 'widthPercent': 0.8, 'rescaleHeight': True, 'trialN': 30, 'loaded': True, 'loadedTime': 6737.199999809265, 'positionName': 'CENTER', 'positionCoords': [290, 90]}]",Rate how much you want to eat this food from 0 (least) to 10 (most).,80706.5,1669831319896,grilled chicken strips,4725.599999904633,True,6.5,85432.09999990463,4725.599999904633,True,HRV,HRV_0115,2022-11-30 18:03:10
31,"[{'imgObject': {}, 'id': 'eggsalad', 'src': '/static/foodstim60/eggsalad.jpg', 'key': 'NaN', 'origWidth': 410, 'origHeight': 409, 'width': 333.61369193154036, 'height': 332.8, 'widthPercent': 0.8, 'rescaleHeight': True, 'trialN': 31, 'loaded': True, 'loadedTime': 6766.099999904633, 'positionName': 'CENTER', 'positionCoords': [289, 90]}]",Rate how much you want to eat this food from 0 (least) to 10 (most).,85435.5,1669831324625,eggsalad,2221.7999999523163,True,9.24,87657.29999995232,2221.7999999523163,True,HRV,HRV_0115,2022-11-30 18:03:10
32,"[{'imgObject': {}, 'id': 'luckycharms', 'src': '/static/foodstim60/luckycharms.jpg', 'key': 'NaN', 'origWidth': 410, 'origHeight': 409, 'width': 333.61369193154036, 'height': 332.8, 'widthPercent': 0.8, 'rescaleHeight': True, 'trialN': 32, 'loaded': True, 'loadedTime': 7127.199999809265, 'positionName': 'CENTER', 'positionCoords': [289, 90]}]",Rate how much you want to eat this food from 0 (least) to 10 (most).,87659.5,1669831326849,luckycharms,1925.5999999046326,True,9.57,89585.09999990463,1925.5999999046326,True,HRV,HRV_0115,2022-11-30 18:03:10
33,"[{'imgObject': {}, 'id': 'salad w chicken', 'src': '/static/foodstim60/salad w chicken.jpg', 'key': 'NaN', 'origWidth': 411, 'origHeight': 411, 'width': 332.8, 'height': 332.8, 'widthPercent': 0.8, 'rescaleHeight': True, 'trialN': 33, 'loaded': True, 'loadedTime': 7200.699999809265, 'positionName': 'CENTER', 'positionCoords': [289.5, 90]}]",Rate how much you want to eat this food from 0 (least) to 10 (most).,89588.0,1669831328777,salad w chicken,1868.3999998569489,True,3.23,91456.39999985695,1868.3999998569489,True,HRV,HRV_0115,2022-11-30 18:03:10
34,"[{'imgObject': {}, 'id': 'hotdog w must', 'src': '/static/foodstim60/hotdog w must.jpg', 'key': 'NaN', 'origWidth': 409, 'origHeight': 409, 'width': 332.8, 'height': 332.8, 'widthPercent': 0.8, 'rescaleHeight': True, 'trialN': 34, 'loaded': True, 'loadedTime': 7140.199999809265, 'positionName': 'CENTER', 'positionCoords': [289.5, 90]}]",Rate how much you want to eat this food from 0 (least) to 10 (most).,91459.89999985695,1669831330649,hotdog w must,3986.2999999523163,True,9.31,95446.19999980927,3986.2999999523163,True,HRV,HRV_0115,2022-11-30 18:03:10
35,"[{'imgObject': {}, 'id': 'mac & cheese', 'src': '/static/foodstim60/mac & cheese.jpg', 'key': 'NaN', 'origWidth': 410, 'origHeight': 410, 'width': 332.8, 'height': 332.8, 'widthPercent': 0.8, 'rescaleHeight': True, 'trialN': 35, 'loaded': True, 'loadedTime': 7233.5, 'positionName': 'CENTER', 'positionCoords': [289.5, 90]}]",Rate how much you want to eat this food from 0 (least) to 10 (most).,95449.59999990463,1669831334639,mac & cheese,2301.7999999523163,True,4.44,97751.39999985695,2301.7999999523163,True,HRV,HRV_0115,2022-11-30 18:03:10
36,"[{'imgObject': {}, 'id': 'roastedpotatoes', 'src': '/static/foodstim60/roastedpotatoes.jpg', 'key': 'NaN', 'origWidth': 409, 'origHeight': 410, 'width': 331.98829268292684, 'height': 332.8, 'widthPercent': 0.8, 'rescaleHeight': True, 'trialN': 36, 'loaded': True, 'loadedTime': 7159.399999856949, 'positionName': 'CENTER', 'positionCoords': [290, 90]}]",Rate how much you want to eat this food from 0 (least) to 10 (most).,97753.39999985695,1669831336943,roastedpotatoes,1961.4000000953674,True,1.9100000000000001,99714.79999995232,1961.4000000953674,True,HRV,HRV_0115,2022-11-30 18:03:10
37,"[{'imgObject': {}, 'id': 'seaweed', 'src': '/static/foodstim60/seaweed.jpg', 'key': 'NaN', 'origWidth': 410, 'origHeight': 410, 'width': 332.8, 'height': 332.8, 'widthPercent': 0.8, 'rescaleHeight': True, 'trialN': 37, 'loaded': True, 'loadedTime': 7342.399999856949, 'positionName': 'CENTER', 'positionCoords': [289.5, 90]}]",Rate how much you want to eat this food from 0 (least) to 10 (most).,99718.79999995232,1669831338908,seaweed,2180.5999999046326,True,1.41,101899.39999985695,2180.5999999046326,True,HRV,HRV_0115,2022-11-30 18:03:10
38,"[{'imgObject': {}, 'id': 'orange slices', 'src': '/static/foodstim60/orange slices.jpg', 'key': 'NaN', 'origWidth': 409, 'origHeight': 410, 'width': 331.98829268292684, 'height': 332.8, 'widthPercent': 0.8, 'rescaleHeight': True, 'trialN': 38, 'loaded': True, 'loadedTime': 7619.199999809265, 'positionName': 'CENTER', 'positionCoords': [290, 90]}]",Rate how much you want to eat this food from 0 (least) to 10 (most).,101901.39999985695,1669831341091,orange slices,2155.5,True,9.88,104056.89999985695,2155.5,True,HRV,HRV_0115,2022-11-30 18:03:10
39,"[{'imgObject': {}, 'id': 'corn cob', 'src': '/static/foodstim60/corn cob.jpg', 'key': 'NaN', 'origWidth': 411, 'origHeight': 411, 'width': 332.8, 'height': 332.8, 'widthPercent': 0.8, 'rescaleHeight': True, 'trialN': 39, 'loaded': True, 'loadedTime': 7585.099999904633, 'positionName': 'CENTER', 'positionCoords': [289.5, 90]}]",Rate how much you want to eat this food from 0 (least) to 10 (most).,104059.0,1669831343250,corn cob,2256.5,True,9.75,106315.5,2256.5,True,HRV,HRV_0115,2022-11-30 18:03:10
40,"[{'imgObject': {}, 'id': 'bagel and cc', 'src': '/static/foodstim60/bagel and cc.jpg', 'key': 'NaN', 'origWidth': 410, 'origHeight': 410, 'width': 332.8, 'height': 332.8, 'widthPercent': 0.8, 'rescaleHeight': True, 'trialN': 40, 'loaded': True, 'loadedTime': 7562.199999809265, 'positionName': 'CENTER', 'positionCoords': [289.5, 90]}]",Rate how much you want to eat this food from 0 (least) to 10 (most).,106318.0,1669831345509,bagel and cc,1853.3999998569489,True,8.26,108171.39999985695,1853.3999998569489,True,HRV,HRV_0115,2022-11-30 18:03:10
41,"[{'imgObject': {}, 'id': 'apple slices', 'src': '/static/foodstim60/apple slices.jpg', 'key': 'NaN', 'origWidth': 409, 'origHeight': 410, 'width': 331.98829268292684, 'height': 332.8, 'widthPercent': 0.8, 'rescaleHeight': True, 'trialN': 41, 'loaded': True, 'loadedTime': 7607.299999952316, 'positionName': 'CENTER', 'positionCoords': [290, 90]}]",Rate how much you want to eat this food from 0 (least) to 10 (most).,108173.19999980927,1669831347364,apple slices,2142.7000000476837,True,9.790000000000001,110315.89999985695,2142.7000000476837,True,HRV,HRV_0115,2022-11-30 18:03:10
42,"[{'imgObject': {}, 'id': 'strawberries', 'src': '/static/foodstim60/strawberries.jpg', 'key': 'NaN', 'origWidth': 410, 'origHeight': 410, 'width': 332.8, 'height': 332.8, 'widthPercent': 0.8, 'rescaleHeight': True, 'trialN': 42, 'loaded': True, 'loadedTime': 7683.699999809265, 'positionName': 'CENTER', 'positionCoords': [289.5, 90]}]",Rate how much you want to eat this food from 0 (least) to 10 (most).,110317.5,1669831349508,strawberries,1878.5999999046326,True,9.84,112196.09999990463,1878.5999999046326,True,HRV,HRV_0115,2022-11-30 18:03:10
43,"[{'imgObject': {}, 'id': 'bagel plain', 'src': '/static/foodstim60/bagel plain.jpg', 'key': 'NaN', 'origWidth': 410, 'origHeight': 410, 'width': 332.8, 'height': 332.8, 'widthPercent': 0.8, 'rescaleHeight': True, 'trialN': 43, 'loaded': True, 'loadedTime': 7744.5, 'positionName': 'CENTER', 'positionCoords': [289.5, 90]}]",Rate how much you want to eat this food from 0 (least) to 10 (most).,112198.09999990463,1669831351389,bagel plain,1302.9000000953674,True,9.27,113501.0,1302.9000000953674,True,HRV,HRV_0115,2022-11-30 18:03:10
44,"[{'imgObject': {}, 'id': 'Grapes', 'src': '/static/foodstim60/Grapes.jpg', 'key': 'NaN', 'origWidth': 411, 'origHeight': 411, 'width': 332.8, 'height': 332.8, 'widthPercent': 0.8, 'rescaleHeight': True, 'trialN': 44, 'loaded': True, 'loadedTime': 7986.599999904633, 'positionName': 'CENTER', 'positionCoords': [289.5, 90]}]",Rate how much you want to eat this food from 0 (least) to 10 (most).,113502.59999990463,1669831352694,Grapes,2073.2000000476837,True,9.88,115575.79999995232,2073.2000000476837,True,HRV,HRV_0115,2022-11-30 18:03:10
45,"[{'imgObject': {}, 'id': 'fried eggs', 'src': '/static/foodstim60/fried eggs.jpg', 'key': 'NaN', 'origWidth': 410, 'origHeight': 410, 'width': 332.8, 'height': 332.8, 'widthPercent': 0.8, 'rescaleHeight': True, 'trialN': 45, 'loaded': True, 'loadedTime': 8019.699999809265, 'positionName': 'CENTER', 'positionCoords': [289.5, 90]}]",Rate how much you want to eat this food from 0 (least) to 10 (most).,115579.89999985695,1669831354771,fried eggs,1706.4000000953674,True,1.16,117286.29999995232,1706.4000000953674,True,HRV,HRV_0115,2022-11-30 18:03:10
46,"[{'imgObject': {}, 'id': 'cherry tomato', 'src': '/static/foodstim60/cherry tomato.jpg', 'key': 'NaN', 'origWidth': 410, 'origHeight': 410, 'width': 332.8, 'height': 332.8, 'widthPercent': 0.8, 'rescaleHeight': True, 'trialN': 46, 'loaded': True, 'loadedTime': 8001.199999809265, 'positionName': 'CENTER', 'positionCoords': [289.5, 90]}]",Rate how much you want to eat this food from 0 (least) to 10 (most).,117288.19999980927,1669831356479,cherry tomato,1903.9000000953674,True,2.33,119192.09999990463,1903.9000000953674,True,HRV,HRV_0115,2022-11-30 18:03:10
47,"[{'imgObject': {}, 'id': 'turkeysandwich', 'src': '/static/foodstim60/turkeysandwich.jpg', 'key': 'NaN', 'origWidth': 409, 'origHeight': 409, 'width': 332.8, 'height': 332.8, 'widthPercent': 0.8, 'rescaleHeight': True, 'trialN': 47, 'loaded': True, 'loadedTime': 8049.399999856949, 'positionName': 'CENTER', 'positionCoords': [289.5, 90]}]",Rate how much you want to eat this food from 0 (least) to 10 (most).,119204.09999990463,1669831358395,turkeysandwich,1365.9000000953674,True,1.32,120570.0,1365.9000000953674,True,HRV,HRV_0115,2022-11-30 18:03:10
48,"[{'imgObject': {}, 'id': 'cherries', 'src': '/static/foodstim60/cherries.jpg', 'key': 'NaN', 'origWidth': 410, 'origHeight': 411, 'width': 331.9902676399027, 'height': 332.8, 'widthPercent': 0.8, 'rescaleHeight': True, 'trialN': 48, 'loaded': True, 'loadedTime': 8111.199999809265, 'positionName': 'CENTER', 'positionCoords': [290, 90]}]",Rate how much you want to eat this food from 0 (least) to 10 (most).,120572.39999985695,1669831359763,cherries,1900.6000001430511,True,8.040000000000001,122473.0,1900.6000001430511,True,HRV,HRV_0115,2022-11-30 18:03:10
49,"[{'imgObject': {}, 'id': 'blueberries', 'src': '/static/foodstim60/blueberries.jpg', 'key': 'NaN', 'origWidth': 411, 'origHeight': 411, 'width': 332.8, 'height': 332.8, 'widthPercent': 0.8, 'rescaleHeight': True, 'trialN': 49, 'loaded': True, 'loadedTime': 8182.099999904633, 'positionName': 'CENTER', 'positionCoords': [289.5, 90]}]",Rate how much you want to eat this food from 0 (least) to 10 (most).,122475.19999980927,1669831361666,blueberries,1239.6000001430511,True,6.65,123714.79999995232,1239.6000001430511,True,HRV,HRV_0115,2022-11-30 18:03:10
50,"[{'imgObject': {}, 'id': 'raspberries', 'src': '/static/foodstim60/raspberries.jpg', 'key': 'NaN', 'origWidth': 411, 'origHeight': 411, 'width': 332.8, 'height': 332.8, 'widthPercent': 0.8, 'rescaleHeight': True, 'trialN': 50, 'loaded': True, 'loadedTime': 8555.799999952316, 'positionName': 'CENTER', 'positionCoords': [289.5, 90]}]",Rate how much you want to eat this food from 0 (least) to 10 (most).,123717.59999990463,1669831362908,raspberries,1259.2000000476837,True,8.72,124976.79999995232,1259.2000000476837,True,HRV,HRV_0115,2022-11-30 18:03:10
51,"[{'imgObject': {}, 'id': 'tacos', 'src': '/static/foodstim60/tacos.jpg', 'key': 'NaN', 'origWidth': 411, 'origHeight': 411, 'width': 332.8, 'height': 332.8, 'widthPercent': 0.8, 'rescaleHeight': True, 'trialN': 51, 'loaded': True, 'loadedTime': 8615.299999952316, 'positionName': 'CENTER', 'positionCoords': [289.5, 90]}]",Rate how much you want to eat this food from 0 (least) to 10 (most).,124979.69999980927,1669831364171,tacos,2472.0,True,1.71,127451.69999980927,2472.0,True,HRV,HRV_0115,2022-11-30 18:03:10
52,"[{'imgObject': {}, 'id': 'cheerios', 'src': '/static/foodstim60/cheerios.jpg', 'key': 'NaN', 'origWidth': 409, 'origHeight': 410, 'width': 331.98829268292684, 'height': 332.8, 'widthPercent': 0.8, 'rescaleHeight': True, 'trialN': 52, 'loaded': True, 'loadedTime': 8607.599999904633, 'positionName': 'CENTER', 'positionCoords': [290, 90]}]",Rate how much you want to eat this food from 0 (least) to 10 (most).,127460.0,1669831366651,cheerios,1479.3999998569489,True,2.37,128939.39999985695,1479.3999998569489,True,HRV,HRV_0115,2022-11-30 18:03:10
53,"[{'imgObject': {}, 'id': 'fruitsalad', 'src': '/static/foodstim60/fruitsalad.jpg', 'key': 'NaN', 'origWidth': 410, 'origHeight': 410, 'width': 332.8, 'height': 332.8, 'widthPercent': 0.8, 'rescaleHeight': True, 'trialN': 53, 'loaded': True, 'loadedTime': 8629, 'positionName': 'CENTER', 'positionCoords': [289.5, 90]}]",Rate how much you want to eat this food from 0 (least) to 10 (most).,128944.5,1669831368135,fruitsalad,1246.2999999523163,True,3.64,130190.79999995232,1246.2999999523163,True,HRV,HRV_0115,2022-11-30 18:03:10
54,"[{'imgObject': {}, 'id': 'lox', 'src': '/static/foodstim60/lox.jpg', 'key': 'NaN', 'origWidth': 410, 'origHeight': 411, 'width': 331.9902676399027, 'height': 332.8, 'widthPercent': 0.8, 'rescaleHeight': True, 'trialN': 54, 'loaded': True, 'loadedTime': 8765.899999856949, 'positionName': 'CENTER', 'positionCoords': [290, 90]}]",Rate how much you want to eat this food from 0 (least) to 10 (most).,130192.79999995232,1669831369384,lox,1288.0999999046326,True,1.32,131480.89999985695,1288.0999999046326,True,HRV,HRV_0115,2022-11-30 18:03:10
55,"[{'imgObject': {}, 'id': 'chickenfingers', 'src': '/static/foodstim60/chickenfingers.jpg', 'key': 'NaN', 'origWidth': 410, 'origHeight': 410, 'width': 332.8, 'height': 332.8, 'widthPercent': 0.8, 'rescaleHeight': True, 'trialN': 55, 'loaded': True, 'loadedTime': 8735.699999809265, 'positionName': 'CENTER', 'positionCoords': [289.5, 90]}]",Rate how much you want to eat this food from 0 (least) to 10 (most).,131484.59999990463,1669831370676,chickenfingers,1297.0999999046326,True,3.0100000000000002,132781.69999980927,1297.0999999046326,True,HRV,HRV_0115,2022-11-30 18:03:10
56,"[{'imgObject': {}, 'id': 'popsicles', 'src': '/static/foodstim60/popsicles.jpg', 'key': 'NaN', 'origWidth': 410, 'origHeight': 410, 'width': 332.8, 'height': 332.8, 'widthPercent': 0.8, 'rescaleHeight': True, 'trialN': 56, 'loaded': True, 'loadedTime': 8962.5, 'positionName': 'CENTER', 'positionCoords': [289.5, 90]}]",Rate how much you want to eat this food from 0 (least) to 10 (most).,132783.5,1669831371974,popsicles,2115.5999999046326,True,9.75,134899.09999990463,2115.5999999046326,True,HRV,HRV_0115,2022-11-30 18:03:10
57,"[{'imgObject': {}, 'id': 'sweetpotato', 'src': '/static/foodstim60/sweetpotato.jpg', 'key': 'NaN', 'origWidth': 410, 'origHeight': 410, 'width': 332.8, 'height': 332.8, 'widthPercent': 0.8, 'rescaleHeight': True, 'trialN': 57, 'loaded': True, 'loadedTime': 9083.5, 'positionName': 'CENTER', 'positionCoords': [289.5, 90]}]",Rate how much you want to eat this food from 0 (least) to 10 (most).,134904.89999985695,1669831374096,sweetpotato,5420.900000095367,True,3.4,140325.79999995232,5420.900000095367,True,HRV,HRV_0115,2022-11-30 18:03:10
58,"[{'imgObject': {}, 'id': 'ice cream sundae 002', 'src': '/static/foodstim60/ice cream sundae 002.jpg', 'key': 'NaN', 'origWidth': 409, 'origHeight': 409, 'width': 332.8, 'height': 332.8, 'widthPercent': 0.8, 'rescaleHeight': True, 'trialN': 58, 'loaded': True, 'loadedTime': 9076.5, 'positionName': 'CENTER', 'positionCoords': [289.5, 90]}]",Rate how much you want to eat this food from 0 (least) to 10 (most).,140328.59999990463,1669831379520,ice cream sundae 002,5751.700000047684,True,9.42,146080.29999995232,5751.700000047684,True,HRV,HRV_0115,2022-11-30 18:03:10
59,"[{'imgObject': {}, 'id': 'cocktailshrimp', 'src': '/static/foodstim60/cocktailshrimp.jpg', 'key': 'NaN', 'origWidth': 410, 'origHeight': 410, 'width': 332.8, 'height': 332.8, 'widthPercent': 0.8, 'rescaleHeight': True, 'trialN': 59, 'loaded': True, 'loadedTime': 9103.199999809265, 'positionName': 'CENTER', 'positionCoords': [289.5, 90]}]",Rate how much you want to eat this food from 0 (least) to 10 (most).,146082.29999995232,1669831385273,cocktailshrimp,3989.0999999046326,True,2.99,150071.39999985695,3989.0999999046326,True,HRV,HRV_0115,2022-11-30 18:03:10
