trialN,stimuli,trialStartTime,trialStartTime_UNIX,stimulus1,stimulus2,stimulus1Bid,stimulus2Bid,delta,selected,rt,rt_UNIX,rt_perfnow,receivedResponse,rsp,trialEndTime,trialDuration,trialEndTime_UNIX,trialDuration_UNIX,exp,subjectId,date
0,"[{'imgObject': {}, 'id': 'hashbrowns', 'src': '/static/foodstim60/hashbrowns.jpg', 'key': 'u', 'origWidth': 411, 'origHeight': 410, 'width': 411, 'height': 410, 'widthPercent': 0.45, 'rescaleHeight': False, 'trialN': 0, 'loaded': True, 'loadedTime': 4493.800000000745, 'positionName': 'LEFT', 'positionCoords': [326.28, 227], 'bid': 1.71}, {'imgObject': {}, 'id': 'lox', 'src': '/static/foodstim60/lox.jpg', 'key': 'i', 'origWidth': 410, 'origHeight': 411, 'width': 410, 'height': 411, 'widthPercent': 0.45, 'rescaleHeight': False, 'trialN': 0, 'loaded': True, 'loadedTime': 4524.800000000745, 'positionName': 'RIGHT', 'positionCoords': [798.72, 226.5], 'bid': 1.28}]",5029.4000000003725,1669830380521,hashbrowns,lox,1.71,1.28,-0.42999999999999994,hashbrowns,1908.7000000011176,1910,1910.4000000003725,True,u,7452.700000001118,2423.300000000745,1669830382944,2423,HRV,HRV_0071,2022-11-30 17:52:28
1,"[{'imgObject': {}, 'id': 'Grapes', 'src': '/static/foodstim60/Grapes.jpg', 'key': 'u', 'origWidth': 411, 'origHeight': 411, 'width': 411, 'height': 411, 'widthPercent': 0.45, 'rescaleHeight': False, 'trialN': 1, 'loaded': True, 'loadedTime': 4541.60000000149, 'positionName': 'LEFT', 'positionCoords': [326.28, 226.5], 'bid': 1.66}, {'imgObject': {}, 'id': 'orange slices', 'src': '/static/foodstim60/orange slices.jpg', 'key': 'i', 'origWidth': 409, 'origHeight': 410, 'width': 409, 'height': 410, 'widthPercent': 0.45, 'rescaleHeight': False, 'trialN': 1, 'loaded': True, 'loadedTime': 4557.5, 'positionName': 'RIGHT', 'positionCoords': [798.72, 227], 'bid': 0.95}]",7452.9000000003725,1669830382944,Grapes,orange slices,1.66,0.95,-0.71,orange slices,1644.9000000003725,1646,1645.800000000745,True,i,9602.5,2149.5999999996275,1669830385094,2150,HRV,HRV_0071,2022-11-30 17:52:28
2,"[{'imgObject': {}, 'id': 'chickenfingers', 'src': '/static/foodstim60/chickenfingers.jpg', 'key': 'u', 'origWidth': 410, 'origHeight': 410, 'width': 410, 'height': 410, 'widthPercent': 0.45, 'rescaleHeight': False, 'trialN': 2, 'loaded': True, 'loadedTime': 4569.10000000149, 'positionName': 'LEFT', 'positionCoords': [327.28, 227], 'bid': 7.4}, {'imgObject': {}, 'id': 'luckycharms', 'src': '/static/foodstim60/luckycharms.jpg', 'key': 'i', 'origWidth': 410, 'origHeight': 409, 'width': 410, 'height': 409, 'widthPercent': 0.45, 'rescaleHeight': False, 'trialN': 2, 'loaded': True, 'loadedTime': 4581.800000000745, 'positionName': 'RIGHT', 'positionCoords': [798.72, 227.5], 'bid': 9.21}]",9602.800000000745,1669830385094,chickenfingers,luckycharms,7.4,9.21,1.8100000000000005,luckycharms,2064.699999999255,2066,2065.5999999996275,True,i,12182.10000000149,2579.300000000745,1669830387673,2579,HRV,HRV_0071,2022-11-30 17:52:28
3,"[{'imgObject': {}, 'id': 'bagel and cc', 'src': '/static/foodstim60/bagel and cc.jpg', 'key': 'u', 'origWidth': 410, 'origHeight': 410, 'width': 410, 'height': 410, 'widthPercent': 0.45, 'rescaleHeight': False, 'trialN': 3, 'loaded': True, 'loadedTime': 4597.10000000149, 'positionName': 'LEFT', 'positionCoords': [327.28, 227], 'bid': 9.9}, {'imgObject': {}, 'id': 'Tribe humus pita', 'src': '/static/foodstim60/Tribe humus pita.jpg', 'key': 'i', 'origWidth': 411, 'origHeight': 411, 'width': 411, 'height': 411, 'widthPercent': 0.45, 'rescaleHeight': False, 'trialN': 3, 'loaded': True, 'loadedTime': 4611.700000001118, 'positionName': 'RIGHT', 'positionCoords': [798.72, 226.5], 'bid': 7.74}]",12182.5,1669830387674,bagel and cc,Tribe humus pita,9.9,7.74,-2.16,bagel and cc,1488.4000000003725,1489,1488.800000000745,True,u,14184.60000000149,2002.1000000014901,1669830389676,2002,HRV,HRV_0071,2022-11-30 17:52:28
4,"[{'imgObject': {}, 'id': 'eggsalad', 'src': '/static/foodstim60/eggsalad.jpg', 'key': 'u', 'origWidth': 410, 'origHeight': 409, 'width': 410, 'height': 409, 'widthPercent': 0.45, 'rescaleHeight': False, 'trialN': 4, 'loaded': True, 'loadedTime': 4638.60000000149, 'positionName': 'LEFT', 'positionCoords': [327.28, 227.5], 'bid': 2.85}, {'imgObject': {}, 'id': 'strawberries', 'src': '/static/foodstim60/strawberries.jpg', 'key': 'i', 'origWidth': 410, 'origHeight': 410, 'width': 410, 'height': 410, 'widthPercent': 0.45, 'rescaleHeight': False, 'trialN': 4, 'loaded': True, 'loadedTime': 4650.10000000149, 'positionName': 'RIGHT', 'positionCoords': [798.72, 227], 'bid': 1.13}]",14185.300000000745,1669830389677,eggsalad,strawberries,2.85,1.13,-1.7200000000000002,eggsalad,1990.4000000003725,1992,1992.4000000003725,True,u,16696.0,2510.699999999255,1669830392187,2510,HRV,HRV_0071,2022-11-30 17:52:28
5,"[{'imgObject': {}, 'id': 'burger', 'src': '/static/foodstim60/burger.jpg', 'key': 'u', 'origWidth': 409, 'origHeight': 409, 'width': 409, 'height': 409, 'widthPercent': 0.45, 'rescaleHeight': False, 'trialN': 5, 'loaded': True, 'loadedTime': 4650.5, 'positionName': 'LEFT', 'positionCoords': [328.28, 227.5], 'bid': 3.03}, {'imgObject': {}, 'id': 'hotdog w must', 'src': '/static/foodstim60/hotdog w must.jpg', 'key': 'i', 'origWidth': 409, 'origHeight': 409, 'width': 409, 'height': 409, 'widthPercent': 0.45, 'rescaleHeight': False, 'trialN': 5, 'loaded': True, 'loadedTime': 4666.700000001118, 'positionName': 'RIGHT', 'positionCoords': [798.72, 227.5], 'bid': 5.54}]",16696.300000000745,1669830392188,burger,hotdog w must,3.03,5.54,2.5100000000000002,hotdog w must,1018.5999999996275,1019,1019.3000000007451,True,i,18224.300000000745,1528.0,1669830393716,1528,HRV,HRV_0071,2022-11-30 17:52:28
6,"[{'imgObject': {}, 'id': 'rigatoni and sauce', 'src': '/static/foodstim60/rigatoni and sauce.jpg', 'key': 'u', 'origWidth': 410, 'origHeight': 411, 'width': 410, 'height': 411, 'widthPercent': 0.45, 'rescaleHeight': False, 'trialN': 6, 'loaded': True, 'loadedTime': 4684.4000000003725, 'positionName': 'LEFT', 'positionCoords': [327.28, 226.5], 'bid': 6.58}, {'imgObject': {}, 'id': 'avocado', 'src': '/static/foodstim60/avocado.jpg', 'key': 'i', 'origWidth': 409, 'origHeight': 409, 'width': 409, 'height': 409, 'widthPercent': 0.45, 'rescaleHeight': False, 'trialN': 6, 'loaded': True, 'loadedTime': 4697.60000000149, 'positionName': 'RIGHT', 'positionCoords': [798.72, 227.5], 'bid': 5.8500000000000005}]",18224.700000001118,1669830393716,rigatoni and sauce,avocado,6.58,5.8500000000000005,-0.7299999999999995,rigatoni and sauce,1776.9000000003725,1778,1777.4000000003725,True,u,20513.900000000373,2289.199999999255,1669830396005,2289,HRV,HRV_0071,2022-11-30 17:52:28
7,"[{'imgObject': {}, 'id': 'eggsalad', 'src': '/static/foodstim60/eggsalad.jpg', 'key': 'u', 'origWidth': 410, 'origHeight': 409, 'width': 410, 'height': 409, 'widthPercent': 0.45, 'rescaleHeight': False, 'trialN': 7, 'loaded': True, 'loadedTime': 4638, 'positionName': 'LEFT', 'positionCoords': [327.28, 227.5], 'bid': 2.85}, {'imgObject': {}, 'id': 'froot loops w milk', 'src': '/static/foodstim60/froot loops w milk.jpg', 'key': 'i', 'origWidth': 410, 'origHeight': 410, 'width': 410, 'height': 410, 'widthPercent': 0.45, 'rescaleHeight': False, 'trialN': 7, 'loaded': True, 'loadedTime': 4710.5, 'positionName': 'RIGHT', 'positionCoords': [798.72, 227], 'bid': 8.22}]",20514.200000001118,1669830396006,eggsalad,froot loops w milk,2.85,8.22,5.370000000000001,froot loops w milk,865.4000000003725,866,865.9000000003725,True,i,21886.800000000745,1372.5999999996275,1669830397379,1373,HRV,HRV_0071,2022-11-30 17:52:28
8,"[{'imgObject': {}, 'id': 'seaweed', 'src': '/static/foodstim60/seaweed.jpg', 'key': 'u', 'origWidth': 410, 'origHeight': 410, 'width': 410, 'height': 410, 'widthPercent': 0.45, 'rescaleHeight': False, 'trialN': 8, 'loaded': True, 'loadedTime': 4710.60000000149, 'positionName': 'LEFT', 'positionCoords': [327.28, 227], 'bid': 1.7}, {'imgObject': {}, 'id': 'eggs', 'src': '/static/foodstim60/eggs.jpg', 'key': 'i', 'origWidth': 409, 'origHeight': 409, 'width': 409, 'height': 409, 'widthPercent': 0.45, 'rescaleHeight': False, 'trialN': 8, 'loaded': True, 'loadedTime': 4723.700000001118, 'positionName': 'RIGHT', 'positionCoords': [798.72, 227.5], 'bid': 1.92}]",21887.400000000373,1669830397380,seaweed,eggs,1.7,1.92,0.21999999999999997,eggs,1537.5999999996275,1538,1538.0999999996275,True,i,23942.300000000745,2054.9000000003725,1669830399435,2055,HRV,HRV_0071,2022-11-30 17:52:28
9,"[{'imgObject': {}, 'id': 'bagel and cc', 'src': '/static/foodstim60/bagel and cc.jpg', 'key': 'u', 'origWidth': 410, 'origHeight': 410, 'width': 410, 'height': 410, 'widthPercent': 0.45, 'rescaleHeight': False, 'trialN': 9, 'loaded': True, 'loadedTime': 4608.9000000003725, 'positionName': 'LEFT', 'positionCoords': [327.28, 227], 'bid': 9.9}, {'imgObject': {}, 'id': 'fruitsalad', 'src': '/static/foodstim60/fruitsalad.jpg', 'key': 'i', 'origWidth': 410, 'origHeight': 410, 'width': 410, 'height': 410, 'widthPercent': 0.45, 'rescaleHeight': False, 'trialN': 9, 'loaded': True, 'loadedTime': 4754, 'positionName': 'RIGHT', 'positionCoords': [798.72, 227], 'bid': 6.3500000000000005}]",23942.60000000149,1669830399435,bagel and cc,fruitsalad,9.9,6.3500000000000005,-3.55,bagel and cc,1117.2999999988824,1118,1118.3999999985099,True,u,25571.5,1628.8999999985099,1669830401064,1629,HRV,HRV_0071,2022-11-30 17:52:28
10,"[{'imgObject': {}, 'id': 'burrito', 'src': '/static/foodstim60/burrito.jpg', 'key': 'u', 'origWidth': 410, 'origHeight': 410, 'width': 410, 'height': 410, 'widthPercent': 0.45, 'rescaleHeight': False, 'trialN': 10, 'loaded': True, 'loadedTime': 4754.200000001118, 'positionName': 'LEFT', 'positionCoords': [327.28, 227], 'bid': 8.43}, {'imgObject': {}, 'id': 'mashed potato', 'src': '/static/foodstim60/mashed potato.jpg', 'key': 'i', 'origWidth': 409, 'origHeight': 409, 'width': 409, 'height': 409, 'widthPercent': 0.45, 'rescaleHeight': False, 'trialN': 10, 'loaded': True, 'loadedTime': 4767, 'positionName': 'RIGHT', 'positionCoords': [798.72, 227.5], 'bid': 6.5600000000000005}]",25572.10000000149,1669830401064,burrito,mashed potato,8.43,6.5600000000000005,-1.8699999999999992,burrito,1165.699999999255,1168,1168.0999999996275,True,u,27256.0,1683.8999999985099,1669830402748,1684,HRV,HRV_0071,2022-11-30 17:52:28
11,"[{'imgObject': {}, 'id': 'Tribe humus pita', 'src': '/static/foodstim60/Tribe humus pita.jpg', 'key': 'u', 'origWidth': 411, 'origHeight': 411, 'width': 411, 'height': 411, 'widthPercent': 0.45, 'rescaleHeight': False, 'trialN': 11, 'loaded': True, 'loadedTime': 4610.300000000745, 'positionName': 'LEFT', 'positionCoords': [326.28, 226.5], 'bid': 7.74}, {'imgObject': {}, 'id': 'cheerios', 'src': '/static/foodstim60/cheerios.jpg', 'key': 'i', 'origWidth': 409, 'origHeight': 410, 'width': 409, 'height': 410, 'widthPercent': 0.45, 'rescaleHeight': False, 'trialN': 11, 'loaded': True, 'loadedTime': 4778.300000000745, 'positionName': 'RIGHT', 'positionCoords': [798.72, 227], 'bid': 7.7}]",27256.300000000745,1669830402748,Tribe humus pita,cheerios,7.74,7.7,-0.040000000000000036,cheerios,1705.699999999255,1707,1706.300000000745,True,i,29468.300000000745,2212.0,1669830404960,2212,HRV,HRV_0071,2022-11-30 17:52:28
12,"[{'imgObject': {}, 'id': 'sushi w_condiments', 'src': '/static/foodstim60/sushi w_condiments.jpg', 'key': 'u', 'origWidth': 410, 'origHeight': 410, 'width': 410, 'height': 410, 'widthPercent': 0.45, 'rescaleHeight': False, 'trialN': 12, 'loaded': True, 'loadedTime': 4779.9000000003725, 'positionName': 'LEFT', 'positionCoords': [327.28, 227], 'bid': 1.09}, {'imgObject': {}, 'id': 'salmon', 'src': '/static/foodstim60/salmon.jpg', 'key': 'i', 'origWidth': 410, 'origHeight': 409, 'width': 410, 'height': 409, 'widthPercent': 0.45, 'rescaleHeight': False, 'trialN': 12, 'loaded': True, 'loadedTime': 4790.60000000149, 'positionName': 'RIGHT', 'positionCoords': [798.72, 227.5], 'bid': 1.06}]",29468.700000001118,1669830404961,sushi w_condiments,salmon,1.09,1.06,-0.030000000000000027,salmon,1821.9000000003725,1822,1822.5999999996275,True,i,31796.400000000373,2327.699999999255,1669830407289,2328,HRV,HRV_0071,2022-11-30 17:52:28
13,"[{'imgObject': {}, 'id': 'chicken nuggets2', 'src': '/static/foodstim60/chicken nuggets2.jpg', 'key': 'u', 'origWidth': 410, 'origHeight': 409, 'width': 410, 'height': 409, 'widthPercent': 0.45, 'rescaleHeight': False, 'trialN': 13, 'loaded': True, 'loadedTime': 4806, 'positionName': 'LEFT', 'positionCoords': [327.28, 227.5], 'bid': 6.25}, {'imgObject': {}, 'id': 'cheerios', 'src': '/static/foodstim60/cheerios.jpg', 'key': 'i', 'origWidth': 409, 'origHeight': 410, 'width': 409, 'height': 410, 'widthPercent': 0.45, 'rescaleHeight': False, 'trialN': 13, 'loaded': True, 'loadedTime': 4767, 'positionName': 'RIGHT', 'positionCoords': [798.72, 227], 'bid': 7.7}]",31797.0,1669830407289,chicken nuggets2,cheerios,6.25,7.7,1.4500000000000002,cheerios,1614.300000000745,1615,1614.800000000745,True,i,33918.800000000745,2121.800000000745,1669830409411,2122,HRV,HRV_0071,2022-11-30 17:52:28
14,"[{'imgObject': {}, 'id': 'baked potato', 'src': '/static/foodstim60/baked potato.jpg', 'key': 'u', 'origWidth': 409, 'origHeight': 410, 'width': 409, 'height': 410, 'widthPercent': 0.45, 'rescaleHeight': False, 'trialN': 14, 'loaded': True, 'loadedTime': 4820, 'positionName': 'LEFT', 'positionCoords': [328.28, 227], 'bid': 1.66}, {'imgObject': {}, 'id': 'veggieswithdip', 'src': '/static/foodstim60/veggieswithdip.jpg', 'key': 'i', 'origWidth': 409, 'origHeight': 409, 'width': 409, 'height': 409, 'widthPercent': 0.45, 'rescaleHeight': False, 'trialN': 14, 'loaded': True, 'loadedTime': 4832.700000001118, 'positionName': 'RIGHT', 'positionCoords': [798.72, 227.5], 'bid': 1.35}]",33919.300000000745,1669830409411,baked potato,veggieswithdip,1.66,1.35,-0.30999999999999983,veggieswithdip,1270.300000000745,1271,1270.699999999255,True,i,35701.800000000745,1782.5,1669830411194,1783,HRV,HRV_0071,2022-11-30 17:52:28
15,"[{'imgObject': {}, 'id': 'shreddedwheatwithmilk', 'src': '/static/foodstim60/shreddedwheatwithmilk.jpg', 'key': 'u', 'origWidth': 410, 'origHeight': 410, 'width': 410, 'height': 410, 'widthPercent': 0.45, 'rescaleHeight': False, 'trialN': 15, 'loaded': True, 'loadedTime': 4845, 'positionName': 'LEFT', 'positionCoords': [327.28, 227], 'bid': 6.78}, {'imgObject': {}, 'id': 'bagel plain', 'src': '/static/foodstim60/bagel plain.jpg', 'key': 'i', 'origWidth': 410, 'origHeight': 410, 'width': 410, 'height': 410, 'widthPercent': 0.45, 'rescaleHeight': False, 'trialN': 15, 'loaded': True, 'loadedTime': 4847.60000000149, 'positionName': 'RIGHT', 'positionCoords': [798.72, 227], 'bid': 9.55}]",35702.20000000112,1669830411194,shreddedwheatwithmilk,bagel plain,6.78,9.55,2.7700000000000005,bagel plain,1249.9000000003725,1251,1250.699999999255,True,i,37465.800000000745,1763.5999999996275,1669830412958,1764,HRV,HRV_0071,2022-11-30 17:52:28
16,"[{'imgObject': {}, 'id': 'turkey sandwich', 'src': '/static/foodstim60/turkey sandwich.jpg', 'key': 'u', 'origWidth': 409, 'origHeight': 409, 'width': 409, 'height': 409, 'widthPercent': 0.45, 'rescaleHeight': False, 'trialN': 16, 'loaded': True, 'loadedTime': 4849.200000001118, 'positionName': 'LEFT', 'positionCoords': [328.28, 227.5], 'bid': 6.2700000000000005}, {'imgObject': {}, 'id': 'avocado', 'src': '/static/foodstim60/avocado.jpg', 'key': 'i', 'origWidth': 409, 'origHeight': 409, 'width': 409, 'height': 409, 'widthPercent': 0.45, 'rescaleHeight': False, 'trialN': 16, 'loaded': True, 'loadedTime': 4697.700000001118, 'positionName': 'RIGHT', 'positionCoords': [798.72, 227.5], 'bid': 5.8500000000000005}]",37466.300000000745,1669830412958,turkey sandwich,avocado,6.2700000000000005,5.8500000000000005,-0.41999999999999993,turkey sandwich,1402.5,1403,1403.0,True,u,39385.40000000037,1919.0999999996275,1669830414878,1920,HRV,HRV_0071,2022-11-30 17:52:28
17,"[{'imgObject': {}, 'id': 'raspberries', 'src': '/static/foodstim60/raspberries.jpg', 'key': 'u', 'origWidth': 411, 'origHeight': 411, 'width': 411, 'height': 411, 'widthPercent': 0.45, 'rescaleHeight': False, 'trialN': 17, 'loaded': True, 'loadedTime': 4849.300000000745, 'positionName': 'LEFT', 'positionCoords': [326.28, 226.5], 'bid': 1.58}, {'imgObject': {}, 'id': 'fruitsalad', 'src': '/static/foodstim60/fruitsalad.jpg', 'key': 'i', 'origWidth': 410, 'origHeight': 410, 'width': 410, 'height': 410, 'widthPercent': 0.45, 'rescaleHeight': False, 'trialN': 17, 'loaded': True, 'loadedTime': 4753.5, 'positionName': 'RIGHT', 'positionCoords': [798.72, 227], 'bid': 6.3500000000000005}]",39385.800000000745,1669830414878,raspberries,fruitsalad,1.58,6.3500000000000005,4.7700000000000005,fruitsalad,1267.800000000745,1268,1268.4000000003725,True,i,41155.20000000112,1769.4000000003725,1669830416647,1769,HRV,HRV_0071,2022-11-30 17:52:28
18,"[{'imgObject': {}, 'id': 'ice cream sundae 002', 'src': '/static/foodstim60/ice cream sundae 002.jpg', 'key': 'u', 'origWidth': 409, 'origHeight': 409, 'width': 409, 'height': 409, 'widthPercent': 0.45, 'rescaleHeight': False, 'trialN': 18, 'loaded': True, 'loadedTime': 4860.800000000745, 'positionName': 'LEFT', 'positionCoords': [328.28, 227.5], 'bid': 1.97}, {'imgObject': {}, 'id': 'rigatoni', 'src': '/static/foodstim60/rigatoni.jpg', 'key': 'i', 'origWidth': 411, 'origHeight': 411, 'width': 411, 'height': 411, 'widthPercent': 0.45, 'rescaleHeight': False, 'trialN': 18, 'loaded': True, 'loadedTime': 4872.800000000745, 'positionName': 'RIGHT', 'positionCoords': [798.72, 226.5], 'bid': 2.12}]",41155.60000000149,1669830416648,ice cream sundae 002,rigatoni,1.97,2.12,0.15000000000000013,rigatoni,1173.199999999255,1173,1173.5999999996275,True,i,42841.40000000037,1685.7999999988824,1669830418334,1686,HRV,HRV_0071,2022-11-30 17:52:28
19,"[{'imgObject': {}, 'id': 'seaweed', 'src': '/static/foodstim60/seaweed.jpg', 'key': 'u', 'origWidth': 410, 'origHeight': 410, 'width': 410, 'height': 410, 'widthPercent': 0.45, 'rescaleHeight': False, 'trialN': 19, 'loaded': True, 'loadedTime': 4722.10000000149, 'positionName': 'LEFT', 'positionCoords': [327.28, 227], 'bid': 1.7}, {'imgObject': {}, 'id': 'blackbeanswithrice', 'src': '/static/foodstim60/blackbeanswithrice.jpg', 'key': 'i', 'origWidth': 410, 'origHeight': 410, 'width': 410, 'height': 410, 'widthPercent': 0.45, 'rescaleHeight': False, 'trialN': 19, 'loaded': True, 'loadedTime': 4901.10000000149, 'positionName': 'RIGHT', 'positionCoords': [798.72, 227], 'bid': 0.95}]",42841.60000000149,1669830418334,seaweed,blackbeanswithrice,1.7,0.95,-0.75,blackbeanswithrice,1263.3999999985099,1264,1263.8999999985099,True,i,44622.90000000037,1781.2999999988824,1669830420115,1781,HRV,HRV_0071,2022-11-30 17:52:28
20,"[{'imgObject': {}, 'id': 'ice cream sundae 002', 'src': '/static/foodstim60/ice cream sundae 002.jpg', 'key': 'u', 'origWidth': 409, 'origHeight': 409, 'width': 409, 'height': 409, 'widthPercent': 0.45, 'rescaleHeight': False, 'trialN': 20, 'loaded': True, 'loadedTime': 4861.10000000149, 'positionName': 'LEFT', 'positionCoords': [328.28, 227.5], 'bid': 1.97}, {'imgObject': {}, 'id': 'roastedpotatoes', 'src': '/static/foodstim60/roastedpotatoes.jpg', 'key': 'i', 'origWidth': 409, 'origHeight': 410, 'width': 409, 'height': 410, 'widthPercent': 0.45, 'rescaleHeight': False, 'trialN': 20, 'loaded': True, 'loadedTime': 4902.300000000745, 'positionName': 'RIGHT', 'positionCoords': [798.72, 227], 'bid': 7.05}]",44623.5,1669830420116,ice cream sundae 002,roastedpotatoes,1.97,7.05,5.08,roastedpotatoes,1197.1000000014901,1198,1198.2000000011176,True,i,46322.800000000745,1699.300000000745,1669830421815,1699,HRV,HRV_0071,2022-11-30 17:52:28
21,"[{'imgObject': {}, 'id': 'steak', 'src': '/static/foodstim60/steak.jpg', 'key': 'u', 'origWidth': 410, 'origHeight': 410, 'width': 410, 'height': 410, 'widthPercent': 0.45, 'rescaleHeight': False, 'trialN': 21, 'loaded': True, 'loadedTime': 4890, 'positionName': 'LEFT', 'positionCoords': [327.28, 227], 'bid': 3.03}, {'imgObject': {}, 'id': 'bagel plain', 'src': '/static/foodstim60/bagel plain.jpg', 'key': 'i', 'origWidth': 410, 'origHeight': 410, 'width': 410, 'height': 410, 'widthPercent': 0.45, 'rescaleHeight': False, 'trialN': 21, 'loaded': True, 'loadedTime': 4846, 'positionName': 'RIGHT', 'positionCoords': [798.72, 227], 'bid': 9.55}]",46323.5,1669830421816,steak,bagel plain,3.03,9.55,6.520000000000001,bagel plain,1131.1000000014901,1131,1131.6000000014901,True,i,47966.40000000037,1642.9000000003725,1669830423459,1643,HRV,HRV_0071,2022-11-30 17:52:28
22,"[{'imgObject': {}, 'id': 'baked potato', 'src': '/static/foodstim60/baked potato.jpg', 'key': 'u', 'origWidth': 409, 'origHeight': 410, 'width': 409, 'height': 410, 'widthPercent': 0.45, 'rescaleHeight': False, 'trialN': 22, 'loaded': True, 'loadedTime': 4807.60000000149, 'positionName': 'LEFT', 'positionCoords': [328.28, 227], 'bid': 1.66}, {'imgObject': {}, 'id': 'raspberries', 'src': '/static/foodstim60/raspberries.jpg', 'key': 'i', 'origWidth': 411, 'origHeight': 411, 'width': 411, 'height': 411, 'widthPercent': 0.45, 'rescaleHeight': False, 'trialN': 22, 'loaded': True, 'loadedTime': 4859, 'positionName': 'RIGHT', 'positionCoords': [798.72, 226.5], 'bid': 1.58}]",47966.60000000149,1669830423459,baked potato,raspberries,1.66,1.58,-0.07999999999999985,raspberries,1929.5,1930,1930.0,True,i,50405.10000000149,2438.5,1669830425897,2438,HRV,HRV_0071,2022-11-30 17:52:28
23,"[{'imgObject': {}, 'id': 'apple slices', 'src': '/static/foodstim60/apple slices.jpg', 'key': 'u', 'origWidth': 409, 'origHeight': 410, 'width': 409, 'height': 410, 'widthPercent': 0.45, 'rescaleHeight': False, 'trialN': 23, 'loaded': True, 'loadedTime': 4914.300000000745, 'positionName': 'LEFT', 'positionCoords': [328.28, 227], 'bid': 2.7}, {'imgObject': {}, 'id': 'eggsalad', 'src': '/static/foodstim60/eggsalad.jpg', 'key': 'i', 'origWidth': 410, 'origHeight': 409, 'width': 410, 'height': 409, 'widthPercent': 0.45, 'rescaleHeight': False, 'trialN': 23, 'loaded': True, 'loadedTime': 4623.60000000149, 'positionName': 'RIGHT', 'positionCoords': [798.72, 227.5], 'bid': 2.85}]",50405.40000000037,1669830425898,apple slices,eggsalad,2.7,2.85,0.1499999999999999,apple slices,1739.9000000003725,1740,1740.4000000003725,True,u,52655.5,2250.0999999996275,1669830428148,2250,HRV,HRV_0071,2022-11-30 17:52:28
24,"[{'imgObject': {}, 'id': 'granola w milk', 'src': '/static/foodstim60/granola w milk.jpg', 'key': 'u', 'origWidth': 410, 'origHeight': 410, 'width': 410, 'height': 410, 'widthPercent': 0.45, 'rescaleHeight': False, 'trialN': 24, 'loaded': True, 'loadedTime': 4915.800000000745, 'positionName': 'LEFT', 'positionCoords': [327.28, 227], 'bid': 5.83}, {'imgObject': {}, 'id': 'strawberries', 'src': '/static/foodstim60/strawberries.jpg', 'key': 'i', 'origWidth': 410, 'origHeight': 410, 'width': 410, 'height': 410, 'widthPercent': 0.45, 'rescaleHeight': False, 'trialN': 24, 'loaded': True, 'loadedTime': 4640, 'positionName': 'RIGHT', 'positionCoords': [798.72, 227], 'bid': 1.13}]",52655.90000000037,1669830428148,granola w milk,strawberries,5.83,1.13,-4.7,granola w milk,1407.7000000011176,1408,1408.300000000745,True,u,54579.10000000149,1923.2000000011176,1669830430071,1923,HRV,HRV_0071,2022-11-30 17:52:28
25,"[{'imgObject': {}, 'id': 'blueberries', 'src': '/static/foodstim60/blueberries.jpg', 'key': 'u', 'origWidth': 411, 'origHeight': 411, 'width': 411, 'height': 411, 'widthPercent': 0.45, 'rescaleHeight': False, 'trialN': 25, 'loaded': True, 'loadedTime': 4917.300000000745, 'positionName': 'LEFT', 'positionCoords': [326.28, 226.5], 'bid': 1.13}, {'imgObject': {}, 'id': 'popsicles', 'src': '/static/foodstim60/popsicles.jpg', 'key': 'i', 'origWidth': 410, 'origHeight': 410, 'width': 410, 'height': 410, 'widthPercent': 0.45, 'rescaleHeight': False, 'trialN': 25, 'loaded': True, 'loadedTime': 5028.300000000745, 'positionName': 'RIGHT', 'positionCoords': [798.72, 227], 'bid': 0.8300000000000001}]",54579.40000000037,1669830430072,blueberries,popsicles,1.13,0.8300000000000001,-0.2999999999999998,blueberries,1269.0,1269,1269.5,True,u,56367.60000000149,1788.2000000011176,1669830431860,1788,HRV,HRV_0071,2022-11-30 17:52:28
26,"[{'imgObject': {}, 'id': 'bagel and cc', 'src': '/static/foodstim60/bagel and cc.jpg', 'key': 'u', 'origWidth': 410, 'origHeight': 410, 'width': 410, 'height': 410, 'widthPercent': 0.45, 'rescaleHeight': False, 'trialN': 26, 'loaded': True, 'loadedTime': 4609.60000000149, 'positionName': 'LEFT', 'positionCoords': [327.28, 227], 'bid': 9.9}, {'imgObject': {}, 'id': 'mac & cheese', 'src': '/static/foodstim60/mac & cheese.jpg', 'key': 'i', 'origWidth': 410, 'origHeight': 410, 'width': 410, 'height': 410, 'widthPercent': 0.45, 'rescaleHeight': False, 'trialN': 26, 'loaded': True, 'loadedTime': 4930.300000000745, 'positionName': 'RIGHT', 'positionCoords': [798.72, 227], 'bid': 6.97}]",56368.0,1669830431860,bagel and cc,mac & cheese,9.9,6.97,-2.9300000000000006,mac & cheese,847.3000000007451,848,848.3000000007451,True,i,57736.20000000112,1368.2000000011176,1669830433228,1368,HRV,HRV_0071,2022-11-30 17:52:28
27,"[{'imgObject': {}, 'id': 'rigatoni', 'src': '/static/foodstim60/rigatoni.jpg', 'key': 'u', 'origWidth': 411, 'origHeight': 411, 'width': 411, 'height': 411, 'widthPercent': 0.45, 'rescaleHeight': False, 'trialN': 27, 'loaded': True, 'loadedTime': 4874.200000001118, 'positionName': 'LEFT', 'positionCoords': [326.28, 226.5], 'bid': 2.12}, {'imgObject': {}, 'id': 'sweetpotato', 'src': '/static/foodstim60/sweetpotato.jpg', 'key': 'i', 'origWidth': 410, 'origHeight': 410, 'width': 410, 'height': 410, 'widthPercent': 0.45, 'rescaleHeight': False, 'trialN': 27, 'loaded': True, 'loadedTime': 4931.4000000003725, 'positionName': 'RIGHT', 'positionCoords': [798.72, 227], 'bid': 2.65}]",57736.40000000037,1669830433229,rigatoni,sweetpotato,2.12,2.65,0.5299999999999998,rigatoni,2465.7000000011176,2466,2466.2000000011176,True,u,60713.40000000037,2977.0,1669830436206,2977,HRV,HRV_0071,2022-11-30 17:52:28
28,"[{'imgObject': {}, 'id': 'raisin bran w milk', 'src': '/static/foodstim60/raisin bran w milk.jpg', 'key': 'u', 'origWidth': 411, 'origHeight': 411, 'width': 411, 'height': 411, 'widthPercent': 0.45, 'rescaleHeight': False, 'trialN': 28, 'loaded': True, 'loadedTime': 4932.9000000003725, 'positionName': 'LEFT', 'positionCoords': [326.28, 226.5], 'bid': 7.92}, {'imgObject': {}, 'id': 'froot loops w milk', 'src': '/static/foodstim60/froot loops w milk.jpg', 'key': 'i', 'origWidth': 410, 'origHeight': 410, 'width': 410, 'height': 410, 'widthPercent': 0.45, 'rescaleHeight': False, 'trialN': 28, 'loaded': True, 'loadedTime': 4710.300000000745, 'positionName': 'RIGHT', 'positionCoords': [798.72, 227], 'bid': 8.22}]",60713.70000000112,1669830436206,raisin bran w milk,froot loops w milk,7.92,8.22,0.3000000000000007,froot loops w milk,1630.2999999988824,1631,1631.0,True,i,62856.10000000149,2142.4000000003725,1669830438348,2142,HRV,HRV_0071,2022-11-30 17:52:28
29,"[{'imgObject': {}, 'id': 'turkeysandwich', 'src': '/static/foodstim60/turkeysandwich.jpg', 'key': 'u', 'origWidth': 409, 'origHeight': 409, 'width': 409, 'height': 409, 'widthPercent': 0.45, 'rescaleHeight': False, 'trialN': 29, 'loaded': True, 'loadedTime': 4944.800000000745, 'positionName': 'LEFT', 'positionCoords': [328.28, 227.5], 'bid': 6.48}, {'imgObject': {}, 'id': 'baked potato', 'src': '/static/foodstim60/baked potato.jpg', 'key': 'i', 'origWidth': 409, 'origHeight': 410, 'width': 409, 'height': 410, 'widthPercent': 0.45, 'rescaleHeight': False, 'trialN': 29, 'loaded': True, 'loadedTime': 4820.200000001118, 'positionName': 'RIGHT', 'positionCoords': [798.72, 227], 'bid': 1.66}]",62856.40000000037,1669830438349,turkeysandwich,baked potato,6.48,1.66,-4.82,turkeysandwich,1037.2000000011176,1037,1037.800000000745,True,u,64400.5,1544.0999999996275,1669830439893,1544,HRV,HRV_0071,2022-11-30 17:52:28
30,"[{'imgObject': {}, 'id': 'tacos', 'src': '/static/foodstim60/tacos.jpg', 'key': 'u', 'origWidth': 411, 'origHeight': 411, 'width': 411, 'height': 411, 'widthPercent': 0.45, 'rescaleHeight': False, 'trialN': 30, 'loaded': True, 'loadedTime': 4946.60000000149, 'positionName': 'LEFT', 'positionCoords': [326.28, 226.5], 'bid': 5.2}, {'imgObject': {}, 'id': 'popsicles', 'src': '/static/foodstim60/popsicles.jpg', 'key': 'i', 'origWidth': 410, 'origHeight': 410, 'width': 410, 'height': 410, 'widthPercent': 0.45, 'rescaleHeight': False, 'trialN': 30, 'loaded': True, 'loadedTime': 5027.300000000745, 'positionName': 'RIGHT', 'positionCoords': [798.72, 227], 'bid': 0.8300000000000001}]",64400.800000000745,1669830439893,tacos,popsicles,5.2,0.8300000000000001,-4.37,tacos,1340.699999999255,1341,1341.199999999255,True,u,66249.40000000037,1848.5999999996275,1669830441742,1849,HRV,HRV_0071,2022-11-30 17:52:28
31,"[{'imgObject': {}, 'id': 'cherry tomato', 'src': '/static/foodstim60/cherry tomato.jpg', 'key': 'u', 'origWidth': 410, 'origHeight': 410, 'width': 410, 'height': 410, 'widthPercent': 0.45, 'rescaleHeight': False, 'trialN': 31, 'loaded': True, 'loadedTime': 4958.10000000149, 'positionName': 'LEFT', 'positionCoords': [327.28, 227], 'bid': 3.02}, {'imgObject': {}, 'id': 'grilled chicken strips', 'src': '/static/foodstim60/grilled chicken strips.jpg', 'key': 'i', 'origWidth': 410, 'origHeight': 411, 'width': 410, 'height': 411, 'widthPercent': 0.45, 'rescaleHeight': False, 'trialN': 31, 'loaded': True, 'loadedTime': 4960.200000001118, 'positionName': 'RIGHT', 'positionCoords': [798.72, 226.5], 'bid': 3.91}]",66249.90000000037,1669830441742,cherry tomato,grilled chicken strips,3.02,3.91,0.8900000000000001,grilled chicken strips,2121.800000000745,2123,2123.0,True,i,68875.40000000037,2625.5,1669830444368,2626,HRV,HRV_0071,2022-11-30 17:52:28
32,"[{'imgObject': {}, 'id': 'salmon', 'src': '/static/foodstim60/salmon.jpg', 'key': 'u', 'origWidth': 410, 'origHeight': 409, 'width': 410, 'height': 409, 'widthPercent': 0.45, 'rescaleHeight': False, 'trialN': 32, 'loaded': True, 'loadedTime': 4791.800000000745, 'positionName': 'LEFT', 'positionCoords': [327.28, 227.5], 'bid': 1.06}, {'imgObject': {}, 'id': 'sweetpotato', 'src': '/static/foodstim60/sweetpotato.jpg', 'key': 'i', 'origWidth': 410, 'origHeight': 410, 'width': 410, 'height': 410, 'widthPercent': 0.45, 'rescaleHeight': False, 'trialN': 32, 'loaded': True, 'loadedTime': 4931.60000000149, 'positionName': 'RIGHT', 'positionCoords': [798.72, 227], 'bid': 2.65}]",68875.80000000075,1669830444368,salmon,sweetpotato,1.06,2.65,1.5899999999999999,sweetpotato,1608.300000000745,1610,1609.9000000003725,True,i,70997.80000000075,2122.0,1669830446490,2122,HRV,HRV_0071,2022-11-30 17:52:28
33,"[{'imgObject': {}, 'id': 'corn cob', 'src': '/static/foodstim60/corn cob.jpg', 'key': 'u', 'origWidth': 411, 'origHeight': 411, 'width': 411, 'height': 411, 'widthPercent': 0.45, 'rescaleHeight': False, 'trialN': 33, 'loaded': True, 'loadedTime': 4970.9000000003725, 'positionName': 'LEFT', 'positionCoords': [326.28, 226.5], 'bid': 0.32}, {'imgObject': {}, 'id': 'grilled chicken strips', 'src': '/static/foodstim60/grilled chicken strips.jpg', 'key': 'i', 'origWidth': 410, 'origHeight': 411, 'width': 410, 'height': 411, 'widthPercent': 0.45, 'rescaleHeight': False, 'trialN': 33, 'loaded': True, 'loadedTime': 4960.300000000745, 'positionName': 'RIGHT', 'positionCoords': [798.72, 226.5], 'bid': 3.91}]",70998.10000000149,1669830446490,corn cob,grilled chicken strips,0.32,3.91,3.5900000000000003,grilled chicken strips,1016.2999999988824,1017,1016.6999999992549,True,i,72528.5,1530.3999999985099,1669830448021,1531,HRV,HRV_0071,2022-11-30 17:52:28
34,"[{'imgObject': {}, 'id': 'kiwi', 'src': '/static/foodstim60/kiwi.jpg', 'key': 'u', 'origWidth': 410, 'origHeight': 410, 'width': 410, 'height': 410, 'widthPercent': 0.45, 'rescaleHeight': False, 'trialN': 34, 'loaded': True, 'loadedTime': 4973.300000000745, 'positionName': 'LEFT', 'positionCoords': [327.28, 227], 'bid': 2.09}, {'imgObject': {}, 'id': 'chickenfingers', 'src': '/static/foodstim60/chickenfingers.jpg', 'key': 'i', 'origWidth': 410, 'origHeight': 410, 'width': 410, 'height': 410, 'widthPercent': 0.45, 'rescaleHeight': False, 'trialN': 34, 'loaded': True, 'loadedTime': 4568.700000001118, 'positionName': 'RIGHT', 'positionCoords': [798.72, 227], 'bid': 7.4}]",72528.80000000075,1669830448021,kiwi,chickenfingers,2.09,7.4,5.3100000000000005,chickenfingers,1086.9000000003725,1087,1087.5,True,i,74136.70000000112,1607.9000000003725,1669830449629,1608,HRV,HRV_0071,2022-11-30 17:52:28
35,"[{'imgObject': {}, 'id': 'fruitsalad', 'src': '/static/foodstim60/fruitsalad.jpg', 'key': 'u', 'origWidth': 410, 'origHeight': 410, 'width': 410, 'height': 410, 'widthPercent': 0.45, 'rescaleHeight': False, 'trialN': 35, 'loaded': True, 'loadedTime': 4739.200000001118, 'positionName': 'LEFT', 'positionCoords': [327.28, 227], 'bid': 6.3500000000000005}, {'imgObject': {}, 'id': 'raisin bran w milk', 'src': '/static/foodstim60/raisin bran w milk.jpg', 'key': 'i', 'origWidth': 411, 'origHeight': 411, 'width': 411, 'height': 411, 'widthPercent': 0.45, 'rescaleHeight': False, 'trialN': 35, 'loaded': True, 'loadedTime': 4933, 'positionName': 'RIGHT', 'positionCoords': [798.72, 226.5], 'bid': 7.92}]",74136.90000000037,1669830449629,fruitsalad,raisin bran w milk,6.3500000000000005,7.92,1.5699999999999994,raisin bran w milk,1147.5999999996275,1149,1149.0999999996275,True,i,75793.10000000149,1656.2000000011176,1669830451285,1656,HRV,HRV_0071,2022-11-30 17:52:28
36,"[{'imgObject': {}, 'id': 'olives', 'src': '/static/foodstim60/olives.jpg', 'key': 'u', 'origWidth': 410, 'origHeight': 410, 'width': 410, 'height': 410, 'widthPercent': 0.45, 'rescaleHeight': False, 'trialN': 36, 'loaded': True, 'loadedTime': 4975.10000000149, 'positionName': 'LEFT', 'positionCoords': [327.28, 227], 'bid': 3.67}, {'imgObject': {}, 'id': 'cantaloupe', 'src': '/static/foodstim60/cantaloupe.jpg', 'key': 'i', 'origWidth': 409, 'origHeight': 409, 'width': 409, 'height': 409, 'widthPercent': 0.45, 'rescaleHeight': False, 'trialN': 36, 'loaded': True, 'loadedTime': 4989.4000000003725, 'positionName': 'RIGHT', 'positionCoords': [798.72, 227.5], 'bid': 3.72}]",75793.5,1669830451286,olives,cantaloupe,3.67,3.72,0.050000000000000266,cantaloupe,1285.800000000745,1286,1286.300000000745,True,i,77590.80000000075,1797.300000000745,1669830453083,1797,HRV,HRV_0071,2022-11-30 17:52:28
37,"[{'imgObject': {}, 'id': 'granola w milk', 'src': '/static/foodstim60/granola w milk.jpg', 'key': 'u', 'origWidth': 410, 'origHeight': 410, 'width': 410, 'height': 410, 'widthPercent': 0.45, 'rescaleHeight': False, 'trialN': 37, 'loaded': True, 'loadedTime': 4915.700000001118, 'positionName': 'LEFT', 'positionCoords': [327.28, 227], 'bid': 5.83}, {'imgObject': {}, 'id': 'roastedpotatoes', 'src': '/static/foodstim60/roastedpotatoes.jpg', 'key': 'i', 'origWidth': 409, 'origHeight': 410, 'width': 409, 'height': 410, 'widthPercent': 0.45, 'rescaleHeight': False, 'trialN': 37, 'loaded': True, 'loadedTime': 4902.700000001118, 'positionName': 'RIGHT', 'positionCoords': [798.72, 227], 'bid': 7.05}]",77591.40000000037,1669830453084,granola w milk,roastedpotatoes,5.83,7.05,1.2199999999999998,granola w milk,1678.0999999996275,1680,1680.4000000003725,True,u,79787.20000000112,2195.800000000745,1669830455279,2195,HRV,HRV_0071,2022-11-30 17:52:28
38,"[{'imgObject': {}, 'id': 'raspberries', 'src': '/static/foodstim60/raspberries.jpg', 'key': 'u', 'origWidth': 411, 'origHeight': 411, 'width': 411, 'height': 411, 'widthPercent': 0.45, 'rescaleHeight': False, 'trialN': 38, 'loaded': True, 'loadedTime': 4850.10000000149, 'positionName': 'LEFT', 'positionCoords': [326.28, 226.5], 'bid': 1.58}, {'imgObject': {}, 'id': 'edamame', 'src': '/static/foodstim60/edamame.jpg', 'key': 'i', 'origWidth': 409, 'origHeight': 410, 'width': 409, 'height': 410, 'widthPercent': 0.45, 'rescaleHeight': False, 'trialN': 38, 'loaded': True, 'loadedTime': 4992.5, 'positionName': 'RIGHT', 'positionCoords': [798.72, 227], 'bid': 0.78}]",79787.60000000149,1669830455280,raspberries,edamame,1.58,0.78,-0.8,raspberries,1659.0,1660,1660.3999999985099,True,u,81963.10000000149,2175.5,1669830457455,2175,HRV,HRV_0071,2022-11-30 17:52:28
39,"[{'imgObject': {}, 'id': 'strawberries', 'src': '/static/foodstim60/strawberries.jpg', 'key': 'u', 'origWidth': 410, 'origHeight': 410, 'width': 410, 'height': 410, 'widthPercent': 0.45, 'rescaleHeight': False, 'trialN': 39, 'loaded': True, 'loadedTime': 4650.200000001118, 'positionName': 'LEFT', 'positionCoords': [327.28, 227], 'bid': 1.13}, {'imgObject': {}, 'id': 'edamame', 'src': '/static/foodstim60/edamame.jpg', 'key': 'i', 'origWidth': 409, 'origHeight': 410, 'width': 409, 'height': 410, 'widthPercent': 0.45, 'rescaleHeight': False, 'trialN': 39, 'loaded': True, 'loadedTime': 4992.60000000149, 'positionName': 'RIGHT', 'positionCoords': [798.72, 227], 'bid': 0.78}]",81963.40000000037,1669830457455,strawberries,edamame,1.13,0.78,-0.34999999999999987,edamame,1833.0999999996275,1834,1833.5999999996275,True,i,84311.90000000037,2348.5,1669830459804,2349,HRV,HRV_0071,2022-11-30 17:52:28
40,"[{'imgObject': {}, 'id': 'rigatoni', 'src': '/static/foodstim60/rigatoni.jpg', 'key': 'u', 'origWidth': 411, 'origHeight': 411, 'width': 411, 'height': 411, 'widthPercent': 0.45, 'rescaleHeight': False, 'trialN': 40, 'loaded': True, 'loadedTime': 4874.9000000003725, 'positionName': 'LEFT', 'positionCoords': [326.28, 226.5], 'bid': 2.12}, {'imgObject': {}, 'id': 'cheerios', 'src': '/static/foodstim60/cheerios.jpg', 'key': 'i', 'origWidth': 409, 'origHeight': 410, 'width': 409, 'height': 410, 'widthPercent': 0.45, 'rescaleHeight': False, 'trialN': 40, 'loaded': True, 'loadedTime': 4777, 'positionName': 'RIGHT', 'positionCoords': [798.72, 227], 'bid': 7.7}]",84312.40000000037,1669830459804,rigatoni,cheerios,2.12,7.7,5.58,cheerios,973.0,974,973.5999999996275,True,i,85800.80000000075,1488.4000000003725,1669830461293,1489,HRV,HRV_0071,2022-11-30 17:52:28
41,"[{'imgObject': {}, 'id': 'fruitsalad', 'src': '/static/foodstim60/fruitsalad.jpg', 'key': 'u', 'origWidth': 410, 'origHeight': 410, 'width': 410, 'height': 410, 'widthPercent': 0.45, 'rescaleHeight': False, 'trialN': 41, 'loaded': True, 'loadedTime': 4754.10000000149, 'positionName': 'LEFT', 'positionCoords': [327.28, 227], 'bid': 6.3500000000000005}, {'imgObject': {}, 'id': 'turkeysandwich', 'src': '/static/foodstim60/turkeysandwich.jpg', 'key': 'i', 'origWidth': 409, 'origHeight': 409, 'width': 409, 'height': 409, 'widthPercent': 0.45, 'rescaleHeight': False, 'trialN': 41, 'loaded': True, 'loadedTime': 4933.300000000745, 'positionName': 'RIGHT', 'positionCoords': [798.72, 227.5], 'bid': 6.48}]",85801.10000000149,1669830461293,fruitsalad,turkeysandwich,6.3500000000000005,6.48,0.1299999999999999,turkeysandwich,1194.199999999255,1195,1194.5999999996275,True,i,87505.20000000112,1704.0999999996275,1669830462997,1704,HRV,HRV_0071,2022-11-30 17:52:28
42,"[{'imgObject': {}, 'id': 'burrito', 'src': '/static/foodstim60/burrito.jpg', 'key': 'u', 'origWidth': 410, 'origHeight': 410, 'width': 410, 'height': 410, 'widthPercent': 0.45, 'rescaleHeight': False, 'trialN': 42, 'loaded': True, 'loadedTime': 4756, 'positionName': 'LEFT', 'positionCoords': [327.28, 227], 'bid': 8.43}, {'imgObject': {}, 'id': 'roastedpotatoes', 'src': '/static/foodstim60/roastedpotatoes.jpg', 'key': 'i', 'origWidth': 409, 'origHeight': 410, 'width': 409, 'height': 410, 'widthPercent': 0.45, 'rescaleHeight': False, 'trialN': 42, 'loaded': True, 'loadedTime': 4901.10000000149, 'positionName': 'RIGHT', 'positionCoords': [798.72, 227], 'bid': 7.05}]",87505.70000000112,1669830462998,burrito,roastedpotatoes,8.43,7.05,-1.38,burrito,1236.5999999996275,1237,1237.2999999988824,True,u,89255.80000000075,1750.0999999996275,1669830464748,1750,HRV,HRV_0071,2022-11-30 17:52:28
43,"[{'imgObject': {}, 'id': 'olives', 'src': '/static/foodstim60/olives.jpg', 'key': 'u', 'origWidth': 410, 'origHeight': 410, 'width': 410, 'height': 410, 'widthPercent': 0.45, 'rescaleHeight': False, 'trialN': 43, 'loaded': True, 'loadedTime': 4976.5, 'positionName': 'LEFT', 'positionCoords': [327.28, 227], 'bid': 3.67}, {'imgObject': {}, 'id': 'steak', 'src': '/static/foodstim60/steak.jpg', 'key': 'i', 'origWidth': 410, 'origHeight': 410, 'width': 410, 'height': 410, 'widthPercent': 0.45, 'rescaleHeight': False, 'trialN': 43, 'loaded': True, 'loadedTime': 4888, 'positionName': 'RIGHT', 'positionCoords': [798.72, 227], 'bid': 3.03}]",89256.10000000149,1669830464748,olives,steak,3.67,3.03,-0.6400000000000001,steak,1112.199999999255,1113,1113.0999999996275,True,i,90874.5,1618.3999999985099,1669830466366,1618,HRV,HRV_0071,2022-11-30 17:52:28
44,"[{'imgObject': {}, 'id': 'turkey sandwich', 'src': '/static/foodstim60/turkey sandwich.jpg', 'key': 'u', 'origWidth': 409, 'origHeight': 409, 'width': 409, 'height': 409, 'widthPercent': 0.45, 'rescaleHeight': False, 'trialN': 44, 'loaded': True, 'loadedTime': 4847.800000000745, 'positionName': 'LEFT', 'positionCoords': [328.28, 227.5], 'bid': 6.2700000000000005}, {'imgObject': {}, 'id': 'hotdog w must', 'src': '/static/foodstim60/hotdog w must.jpg', 'key': 'i', 'origWidth': 409, 'origHeight': 409, 'width': 409, 'height': 409, 'widthPercent': 0.45, 'rescaleHeight': False, 'trialN': 44, 'loaded': True, 'loadedTime': 4666.700000001118, 'positionName': 'RIGHT', 'positionCoords': [798.72, 227.5], 'bid': 5.54}]",90875.0,1669830466367,turkey sandwich,hotdog w must,6.2700000000000005,5.54,-0.7300000000000004,turkey sandwich,1634.2000000011176,1635,1634.7000000011176,True,u,93012.90000000037,2137.9000000003725,1669830468505,2138,HRV,HRV_0071,2022-11-30 17:52:28
45,"[{'imgObject': {}, 'id': 'blueberries', 'src': '/static/foodstim60/blueberries.jpg', 'key': 'u', 'origWidth': 411, 'origHeight': 411, 'width': 411, 'height': 411, 'widthPercent': 0.45, 'rescaleHeight': False, 'trialN': 45, 'loaded': True, 'loadedTime': 4917.4000000003725, 'positionName': 'LEFT', 'positionCoords': [326.28, 226.5], 'bid': 1.13}, {'imgObject': {}, 'id': 'cherry tomato', 'src': '/static/foodstim60/cherry tomato.jpg', 'key': 'i', 'origWidth': 410, 'origHeight': 410, 'width': 410, 'height': 410, 'widthPercent': 0.45, 'rescaleHeight': False, 'trialN': 45, 'loaded': True, 'loadedTime': 4956.5, 'positionName': 'RIGHT', 'positionCoords': [798.72, 227], 'bid': 3.02}]",93013.20000000112,1669830468505,blueberries,cherry tomato,1.13,3.02,1.8900000000000001,cherry tomato,1396.2999999988824,1397,1396.7999999988824,True,i,94915.90000000037,1902.699999999255,1669830470408,1903,HRV,HRV_0071,2022-11-30 17:52:28
46,"[{'imgObject': {}, 'id': 'roastedpotatoes', 'src': '/static/foodstim60/roastedpotatoes.jpg', 'key': 'u', 'origWidth': 409, 'origHeight': 410, 'width': 409, 'height': 410, 'widthPercent': 0.45, 'rescaleHeight': False, 'trialN': 46, 'loaded': True, 'loadedTime': 4903, 'positionName': 'LEFT', 'positionCoords': [328.28, 227], 'bid': 7.05}, {'imgObject': {}, 'id': 'shreddedwheatwithmilk', 'src': '/static/foodstim60/shreddedwheatwithmilk.jpg', 'key': 'i', 'origWidth': 410, 'origHeight': 410, 'width': 410, 'height': 410, 'widthPercent': 0.45, 'rescaleHeight': False, 'trialN': 46, 'loaded': True, 'loadedTime': 4845.700000001118, 'positionName': 'RIGHT', 'positionCoords': [798.72, 227], 'bid': 6.78}]",94916.20000000112,1669830470408,roastedpotatoes,shreddedwheatwithmilk,7.05,6.78,-0.2699999999999996,shreddedwheatwithmilk,1486.9000000003725,1488,1487.4000000003725,True,i,96915.10000000149,1998.9000000003725,1669830472407,1999,HRV,HRV_0071,2022-11-30 17:52:28
47,"[{'imgObject': {}, 'id': 'blueberries', 'src': '/static/foodstim60/blueberries.jpg', 'key': 'u', 'origWidth': 411, 'origHeight': 411, 'width': 411, 'height': 411, 'widthPercent': 0.45, 'rescaleHeight': False, 'trialN': 47, 'loaded': True, 'loadedTime': 4916.10000000149, 'positionName': 'LEFT', 'positionCoords': [326.28, 226.5], 'bid': 1.13}, {'imgObject': {}, 'id': 'cherries', 'src': '/static/foodstim60/cherries.jpg', 'key': 'i', 'origWidth': 410, 'origHeight': 411, 'width': 410, 'height': 411, 'widthPercent': 0.45, 'rescaleHeight': False, 'trialN': 47, 'loaded': True, 'loadedTime': 5002.9000000003725, 'positionName': 'RIGHT', 'positionCoords': [798.72, 226.5], 'bid': 0.27}]",96915.60000000149,1669830472408,blueberries,cherries,1.13,0.27,-0.8599999999999999,blueberries,1379.5,1380,1380.2999999988824,True,u,98806.30000000075,1890.699999999255,1669830474298,1890,HRV,HRV_0071,2022-11-30 17:52:28
48,"[{'imgObject': {}, 'id': 'bagel plain', 'src': '/static/foodstim60/bagel plain.jpg', 'key': 'u', 'origWidth': 410, 'origHeight': 410, 'width': 410, 'height': 410, 'widthPercent': 0.45, 'rescaleHeight': False, 'trialN': 48, 'loaded': True, 'loadedTime': 4847.700000001118, 'positionName': 'LEFT', 'positionCoords': [327.28, 227], 'bid': 9.55}, {'imgObject': {}, 'id': 'bagel and cc', 'src': '/static/foodstim60/bagel and cc.jpg', 'key': 'i', 'origWidth': 410, 'origHeight': 410, 'width': 410, 'height': 410, 'widthPercent': 0.45, 'rescaleHeight': False, 'trialN': 48, 'loaded': True, 'loadedTime': 4597.5, 'positionName': 'RIGHT', 'positionCoords': [798.72, 227], 'bid': 9.9}]",98806.80000000075,1669830474299,bagel plain,bagel and cc,9.55,9.9,0.34999999999999964,bagel and cc,1026.4000000003725,1027,1026.800000000745,True,i,100344.90000000037,1538.0999999996275,1669830475837,1538,HRV,HRV_0071,2022-11-30 17:52:28
49,"[{'imgObject': {}, 'id': 'fruitsalad', 'src': '/static/foodstim60/fruitsalad.jpg', 'key': 'u', 'origWidth': 410, 'origHeight': 410, 'width': 410, 'height': 410, 'widthPercent': 0.45, 'rescaleHeight': False, 'trialN': 49, 'loaded': True, 'loadedTime': 4740.4000000003725, 'positionName': 'LEFT', 'positionCoords': [327.28, 227], 'bid': 6.3500000000000005}, {'imgObject': {}, 'id': 'fried eggs', 'src': '/static/foodstim60/fried eggs.jpg', 'key': 'i', 'origWidth': 410, 'origHeight': 410, 'width': 410, 'height': 410, 'widthPercent': 0.45, 'rescaleHeight': False, 'trialN': 49, 'loaded': True, 'loadedTime': 5005, 'positionName': 'RIGHT', 'positionCoords': [798.72, 227], 'bid': 5.61}]",100345.20000000112,1669830475837,fruitsalad,fried eggs,6.3500000000000005,5.61,-0.7400000000000002,fried eggs,1132.0999999996275,1133,1132.5,True,i,101990.10000000149,1644.9000000003725,1669830477482,1645,HRV,HRV_0071,2022-11-30 17:52:28
50,"[{'imgObject': {}, 'id': 'Grapes', 'src': '/static/foodstim60/Grapes.jpg', 'key': 'u', 'origWidth': 411, 'origHeight': 411, 'width': 411, 'height': 411, 'widthPercent': 0.45, 'rescaleHeight': False, 'trialN': 50, 'loaded': True, 'loadedTime': 4541.4000000003725, 'positionName': 'LEFT', 'positionCoords': [326.28, 226.5], 'bid': 1.66}, {'imgObject': {}, 'id': 'mashed potato', 'src': '/static/foodstim60/mashed potato.jpg', 'key': 'i', 'origWidth': 409, 'origHeight': 409, 'width': 409, 'height': 409, 'widthPercent': 0.45, 'rescaleHeight': False, 'trialN': 50, 'loaded': True, 'loadedTime': 4766.9000000003725, 'positionName': 'RIGHT', 'positionCoords': [798.72, 227.5], 'bid': 6.5600000000000005}]",101990.5,1669830477482,Grapes,mashed potato,1.66,6.5600000000000005,4.9,mashed potato,2078.9000000003725,2080,2079.800000000745,True,i,104574.30000000075,2583.800000000745,1669830480066,2584,HRV,HRV_0071,2022-11-30 17:52:28
51,"[{'imgObject': {}, 'id': 'seaweed', 'src': '/static/foodstim60/seaweed.jpg', 'key': 'u', 'origWidth': 410, 'origHeight': 410, 'width': 410, 'height': 410, 'widthPercent': 0.45, 'rescaleHeight': False, 'trialN': 51, 'loaded': True, 'loadedTime': 4721.700000001118, 'positionName': 'LEFT', 'positionCoords': [327.28, 227], 'bid': 1.7}, {'imgObject': {}, 'id': 'Grapes', 'src': '/static/foodstim60/Grapes.jpg', 'key': 'i', 'origWidth': 411, 'origHeight': 411, 'width': 411, 'height': 411, 'widthPercent': 0.45, 'rescaleHeight': False, 'trialN': 51, 'loaded': True, 'loadedTime': 4540.300000000745, 'positionName': 'RIGHT', 'positionCoords': [798.72, 226.5], 'bid': 1.66}]",104574.70000000112,1669830480067,seaweed,Grapes,1.7,1.66,-0.040000000000000036,Grapes,1210.5,1211,1211.0,True,i,106303.70000000112,1729.0,1669830481796,1729,HRV,HRV_0071,2022-11-30 17:52:28
52,"[{'imgObject': {}, 'id': 'turkey sandwich', 'src': '/static/foodstim60/turkey sandwich.jpg', 'key': 'u', 'origWidth': 409, 'origHeight': 409, 'width': 409, 'height': 409, 'widthPercent': 0.45, 'rescaleHeight': False, 'trialN': 52, 'loaded': True, 'loadedTime': 4849, 'positionName': 'LEFT', 'positionCoords': [328.28, 227.5], 'bid': 6.2700000000000005}, {'imgObject': {}, 'id': 'bagel plain', 'src': '/static/foodstim60/bagel plain.jpg', 'key': 'i', 'origWidth': 410, 'origHeight': 410, 'width': 410, 'height': 410, 'widthPercent': 0.45, 'rescaleHeight': False, 'trialN': 52, 'loaded': True, 'loadedTime': 4847.4000000003725, 'positionName': 'RIGHT', 'positionCoords': [798.72, 227], 'bid': 9.55}]",106304.10000000149,1669830481796,turkey sandwich,bagel plain,6.2700000000000005,9.55,3.2800000000000002,bagel plain,1403.0999999996275,1404,1403.7999999988824,True,i,108217.10000000149,1913.0,1669830483709,1913,HRV,HRV_0071,2022-11-30 17:52:28
53,"[{'imgObject': {}, 'id': 'chickenfingers', 'src': '/static/foodstim60/chickenfingers.jpg', 'key': 'u', 'origWidth': 410, 'origHeight': 410, 'width': 410, 'height': 410, 'widthPercent': 0.45, 'rescaleHeight': False, 'trialN': 53, 'loaded': True, 'loadedTime': 4569, 'positionName': 'LEFT', 'positionCoords': [327.28, 227], 'bid': 7.4}, {'imgObject': {}, 'id': 'mango', 'src': '/static/foodstim60/mango.jpg', 'key': 'i', 'origWidth': 411, 'origHeight': 411, 'width': 411, 'height': 411, 'widthPercent': 0.45, 'rescaleHeight': False, 'trialN': 53, 'loaded': True, 'loadedTime': 5006.10000000149, 'positionName': 'RIGHT', 'positionCoords': [798.72, 226.5], 'bid': 5.3500000000000005}]",108217.5,1669830483709,chickenfingers,mango,7.4,5.3500000000000005,-2.05,chickenfingers,2020.800000000745,2022,2021.4000000003725,True,u,110754.70000000112,2537.2000000011176,1669830486247,2538,HRV,HRV_0071,2022-11-30 17:52:28
54,"[{'imgObject': {}, 'id': 'ice cream sundae 002', 'src': '/static/foodstim60/ice cream sundae 002.jpg', 'key': 'u', 'origWidth': 409, 'origHeight': 409, 'width': 409, 'height': 409, 'widthPercent': 0.45, 'rescaleHeight': False, 'trialN': 54, 'loaded': True, 'loadedTime': 4872.60000000149, 'positionName': 'LEFT', 'positionCoords': [328.28, 227.5], 'bid': 1.97}, {'imgObject': {}, 'id': 'kiwi', 'src': '/static/foodstim60/kiwi.jpg', 'key': 'i', 'origWidth': 410, 'origHeight': 410, 'width': 410, 'height': 410, 'widthPercent': 0.45, 'rescaleHeight': False, 'trialN': 54, 'loaded': True, 'loadedTime': 4974.800000000745, 'positionName': 'RIGHT', 'positionCoords': [798.72, 227], 'bid': 2.09}]",110755.0,1669830486247,ice cream sundae 002,kiwi,1.97,2.09,0.11999999999999988,kiwi,1653.9000000003725,1654,1654.5,True,i,112929.80000000075,2174.800000000745,1669830488422,2175,HRV,HRV_0071,2022-11-30 17:52:28
55,"[{'imgObject': {}, 'id': 'steak', 'src': '/static/foodstim60/steak.jpg', 'key': 'u', 'origWidth': 410, 'origHeight': 410, 'width': 410, 'height': 410, 'widthPercent': 0.45, 'rescaleHeight': False, 'trialN': 55, 'loaded': True, 'loadedTime': 4890.5, 'positionName': 'LEFT', 'positionCoords': [327.28, 227], 'bid': 3.03}, {'imgObject': {}, 'id': 'yogurt no spoon', 'src': '/static/foodstim60/yogurt no spoon.jpg', 'key': 'i', 'origWidth': 411, 'origHeight': 410, 'width': 411, 'height': 410, 'widthPercent': 0.45, 'rescaleHeight': False, 'trialN': 55, 'loaded': True, 'loadedTime': 5007.700000001118, 'positionName': 'RIGHT', 'positionCoords': [798.72, 227], 'bid': 3.0500000000000003}]",112930.60000000149,1669830488423,steak,yogurt no spoon,3.03,3.0500000000000003,0.020000000000000462,yogurt no spoon,1525.5999999996275,1526,1526.0999999996275,True,i,114975.70000000112,2045.0999999996275,1669830490468,2045,HRV,HRV_0071,2022-11-30 17:52:28
56,"[{'imgObject': {}, 'id': 'yogurt no spoon', 'src': '/static/foodstim60/yogurt no spoon.jpg', 'key': 'u', 'origWidth': 411, 'origHeight': 410, 'width': 411, 'height': 410, 'widthPercent': 0.45, 'rescaleHeight': False, 'trialN': 56, 'loaded': True, 'loadedTime': 5007.60000000149, 'positionName': 'LEFT', 'positionCoords': [326.28, 227], 'bid': 3.0500000000000003}, {'imgObject': {}, 'id': 'bagel and cc', 'src': '/static/foodstim60/bagel and cc.jpg', 'key': 'i', 'origWidth': 410, 'origHeight': 410, 'width': 410, 'height': 410, 'widthPercent': 0.45, 'rescaleHeight': False, 'trialN': 56, 'loaded': True, 'loadedTime': 4597.60000000149, 'positionName': 'RIGHT', 'positionCoords': [798.72, 227], 'bid': 9.9}]",114976.20000000112,1669830490468,yogurt no spoon,bagel and cc,3.0500000000000003,9.9,6.85,bagel and cc,1062.4000000003725,1064,1063.2999999988824,True,i,116560.20000000112,1584.0,1669830492052,1584,HRV,HRV_0071,2022-11-30 17:52:28
57,"[{'imgObject': {}, 'id': 'mac & cheese', 'src': '/static/foodstim60/mac & cheese.jpg', 'key': 'u', 'origWidth': 410, 'origHeight': 410, 'width': 410, 'height': 410, 'widthPercent': 0.45, 'rescaleHeight': False, 'trialN': 57, 'loaded': True, 'loadedTime': 4930.4000000003725, 'positionName': 'LEFT', 'positionCoords': [327.28, 227], 'bid': 6.97}, {'imgObject': {}, 'id': 'banana', 'src': '/static/foodstim60/banana.jpg', 'key': 'i', 'origWidth': 410, 'origHeight': 410, 'width': 410, 'height': 410, 'widthPercent': 0.45, 'rescaleHeight': False, 'trialN': 57, 'loaded': True, 'loadedTime': 5009.300000000745, 'positionName': 'RIGHT', 'positionCoords': [798.72, 227], 'bid': 4.07}]",116560.80000000075,1669830492053,mac & cheese,banana,6.97,4.07,-2.8999999999999995,mac & cheese,1085.4000000003725,1086,1086.0999999996275,True,u,118157.90000000037,1597.0999999996275,1669830493650,1597,HRV,HRV_0071,2022-11-30 17:52:28
58,"[{'imgObject': {}, 'id': 'banana', 'src': '/static/foodstim60/banana.jpg', 'key': 'u', 'origWidth': 410, 'origHeight': 410, 'width': 410, 'height': 410, 'widthPercent': 0.45, 'rescaleHeight': False, 'trialN': 58, 'loaded': True, 'loadedTime': 5008.10000000149, 'positionName': 'LEFT', 'positionCoords': [327.28, 227], 'bid': 4.07}, {'imgObject': {}, 'id': 'grilled chicken strips', 'src': '/static/foodstim60/grilled chicken strips.jpg', 'key': 'i', 'origWidth': 410, 'origHeight': 411, 'width': 410, 'height': 411, 'widthPercent': 0.45, 'rescaleHeight': False, 'trialN': 58, 'loaded': True, 'loadedTime': 4958.5, 'positionName': 'RIGHT', 'positionCoords': [798.72, 226.5], 'bid': 3.91}]",118158.70000000112,1669830493651,banana,grilled chicken strips,4.07,3.91,-0.16000000000000014,grilled chicken strips,2024.0999999996275,2024,2024.5999999996275,True,i,120694.20000000112,2535.5,1669830496186,2535,HRV,HRV_0071,2022-11-30 17:52:28
59,"[{'imgObject': {}, 'id': 'Tribe humus pita', 'src': '/static/foodstim60/Tribe humus pita.jpg', 'key': 'u', 'origWidth': 411, 'origHeight': 411, 'width': 411, 'height': 411, 'widthPercent': 0.45, 'rescaleHeight': False, 'trialN': 59, 'loaded': True, 'loadedTime': 4611.5, 'positionName': 'LEFT', 'positionCoords': [326.28, 226.5], 'bid': 7.74}, {'imgObject': {}, 'id': 'fried eggs', 'src': '/static/foodstim60/fried eggs.jpg', 'key': 'i', 'origWidth': 410, 'origHeight': 410, 'width': 410, 'height': 410, 'widthPercent': 0.45, 'rescaleHeight': False, 'trialN': 59, 'loaded': True, 'loadedTime': 5004.4000000003725, 'positionName': 'RIGHT', 'positionCoords': [798.72, 227], 'bid': 5.61}]",120694.60000000149,1669830496187,Tribe humus pita,fried eggs,7.74,5.61,-2.13,Tribe humus pita,1371.8999999985099,1372,1372.5,True,u,122572.5,1877.8999999985099,1669830498065,1878,HRV,HRV_0071,2022-11-30 17:52:28
60,"[{'imgObject': {}, 'id': 'turkey sandwich', 'src': '/static/foodstim60/turkey sandwich.jpg', 'key': 'u', 'origWidth': 409, 'origHeight': 409, 'width': 409, 'height': 409, 'widthPercent': 0.45, 'rescaleHeight': False, 'trialN': 60, 'loaded': True, 'loadedTime': 4848.9000000003725, 'positionName': 'LEFT', 'positionCoords': [328.28, 227.5], 'bid': 6.2700000000000005}, {'imgObject': {}, 'id': 'veggieswithdip', 'src': '/static/foodstim60/veggieswithdip.jpg', 'key': 'i', 'origWidth': 409, 'origHeight': 409, 'width': 409, 'height': 409, 'widthPercent': 0.45, 'rescaleHeight': False, 'trialN': 60, 'loaded': True, 'loadedTime': 4832.60000000149, 'positionName': 'RIGHT', 'positionCoords': [798.72, 227.5], 'bid': 1.35}]",122572.90000000037,1669830498065,turkey sandwich,veggieswithdip,6.2700000000000005,1.35,-4.92,turkey sandwich,1125.7000000011176,1126,1126.5,True,u,124212.10000000149,1639.2000000011176,1669830499704,1639,HRV,HRV_0071,2022-11-30 17:52:28
61,"[{'imgObject': {}, 'id': 'rigatoni and sauce', 'src': '/static/foodstim60/rigatoni and sauce.jpg', 'key': 'u', 'origWidth': 410, 'origHeight': 411, 'width': 410, 'height': 411, 'widthPercent': 0.45, 'rescaleHeight': False, 'trialN': 61, 'loaded': True, 'loadedTime': 4683.9000000003725, 'positionName': 'LEFT', 'positionCoords': [327.28, 226.5], 'bid': 6.58}, {'imgObject': {}, 'id': 'luckycharms', 'src': '/static/foodstim60/luckycharms.jpg', 'key': 'i', 'origWidth': 410, 'origHeight': 409, 'width': 410, 'height': 409, 'widthPercent': 0.45, 'rescaleHeight': False, 'trialN': 61, 'loaded': True, 'loadedTime': 4595.700000001118, 'positionName': 'RIGHT', 'positionCoords': [798.72, 227.5], 'bid': 9.21}]",124212.70000000112,1669830499705,rigatoni and sauce,luckycharms,6.58,9.21,2.630000000000001,luckycharms,1146.5999999996275,1147,1147.199999999255,True,i,125869.5,1656.7999999988824,1669830501361,1656,HRV,HRV_0071,2022-11-30 17:52:28
62,"[{'imgObject': {}, 'id': 'luckycharms', 'src': '/static/foodstim60/luckycharms.jpg', 'key': 'u', 'origWidth': 410, 'origHeight': 409, 'width': 410, 'height': 409, 'widthPercent': 0.45, 'rescaleHeight': False, 'trialN': 62, 'loaded': True, 'loadedTime': 4595, 'positionName': 'LEFT', 'positionCoords': [327.28, 227.5], 'bid': 9.21}, {'imgObject': {}, 'id': 'chicken nuggets2', 'src': '/static/foodstim60/chicken nuggets2.jpg', 'key': 'i', 'origWidth': 410, 'origHeight': 409, 'width': 410, 'height': 409, 'widthPercent': 0.45, 'rescaleHeight': False, 'trialN': 62, 'loaded': True, 'loadedTime': 4805.60000000149, 'positionName': 'RIGHT', 'positionCoords': [798.72, 227.5], 'bid': 6.25}]",125869.80000000075,1669830501362,luckycharms,chicken nuggets2,9.21,6.25,-2.960000000000001,luckycharms,1199.0,1200,1200.199999999255,True,u,127576.20000000112,1706.4000000003725,1669830503068,1706,HRV,HRV_0071,2022-11-30 17:52:28
63,"[{'imgObject': {}, 'id': 'orange slices', 'src': '/static/foodstim60/orange slices.jpg', 'key': 'u', 'origWidth': 409, 'origHeight': 410, 'width': 409, 'height': 410, 'widthPercent': 0.45, 'rescaleHeight': False, 'trialN': 63, 'loaded': True, 'loadedTime': 4557.60000000149, 'positionName': 'LEFT', 'positionCoords': [328.28, 227], 'bid': 0.95}, {'imgObject': {}, 'id': 'cocktailshrimp', 'src': '/static/foodstim60/cocktailshrimp.jpg', 'key': 'i', 'origWidth': 410, 'origHeight': 410, 'width': 410, 'height': 410, 'widthPercent': 0.45, 'rescaleHeight': False, 'trialN': 63, 'loaded': True, 'loadedTime': 5010.4000000003725, 'positionName': 'RIGHT', 'positionCoords': [798.72, 227], 'bid': 0.22}]",127576.70000000112,1669830503069,orange slices,cocktailshrimp,0.95,0.22,-0.73,orange slices,1694.699999999255,1695,1695.199999999255,True,u,129792.40000000037,2215.699999999255,1669830505284,2215,HRV,HRV_0071,2022-11-30 17:52:28
64,"[{'imgObject': {}, 'id': 'turkeysandwich', 'src': '/static/foodstim60/turkeysandwich.jpg', 'key': 'u', 'origWidth': 409, 'origHeight': 409, 'width': 409, 'height': 409, 'widthPercent': 0.45, 'rescaleHeight': False, 'trialN': 64, 'loaded': True, 'loadedTime': 4944.200000001118, 'positionName': 'LEFT', 'positionCoords': [328.28, 227.5], 'bid': 6.48}, {'imgObject': {}, 'id': 'salad w chicken', 'src': '/static/foodstim60/salad w chicken.jpg', 'key': 'i', 'origWidth': 411, 'origHeight': 411, 'width': 411, 'height': 411, 'widthPercent': 0.45, 'rescaleHeight': False, 'trialN': 64, 'loaded': True, 'loadedTime': 5010.800000000745, 'positionName': 'RIGHT', 'positionCoords': [798.72, 226.5], 'bid': 5.72}]",129792.60000000149,1669830505285,turkeysandwich,salad w chicken,6.48,5.72,-0.7600000000000007,salad w chicken,1839.7999999988824,1841,1841.5999999996275,True,i,132147.5,2354.89999999851,1669830507639,2354,HRV,HRV_0071,2022-11-30 17:52:28
65,"[{'imgObject': {}, 'id': 'Grapes', 'src': '/static/foodstim60/Grapes.jpg', 'key': 'u', 'origWidth': 411, 'origHeight': 411, 'width': 411, 'height': 411, 'widthPercent': 0.45, 'rescaleHeight': False, 'trialN': 65, 'loaded': True, 'loadedTime': 4555.60000000149, 'positionName': 'LEFT', 'positionCoords': [326.28, 226.5], 'bid': 1.66}, {'imgObject': {}, 'id': 'rigatoni', 'src': '/static/foodstim60/rigatoni.jpg', 'key': 'i', 'origWidth': 411, 'origHeight': 411, 'width': 411, 'height': 411, 'widthPercent': 0.45, 'rescaleHeight': False, 'trialN': 65, 'loaded': True, 'loadedTime': 4887.4000000003725, 'positionName': 'RIGHT', 'positionCoords': [798.72, 226.5], 'bid': 2.12}]",132148.0,1669830507640,Grapes,rigatoni,1.66,2.12,0.4600000000000002,rigatoni,1196.9000000003725,1197,1197.5,True,i,133851.6000000015,1703.6000000014901,1669830509344,1704,HRV,HRV_0071,2022-11-30 17:52:28
66,"[{'imgObject': {}, 'id': 'seaweed', 'src': '/static/foodstim60/seaweed.jpg', 'key': 'u', 'origWidth': 410, 'origHeight': 410, 'width': 410, 'height': 410, 'widthPercent': 0.45, 'rescaleHeight': False, 'trialN': 66, 'loaded': True, 'loadedTime': 4722.5, 'positionName': 'LEFT', 'positionCoords': [327.28, 227], 'bid': 1.7}, {'imgObject': {}, 'id': 'corn cob', 'src': '/static/foodstim60/corn cob.jpg', 'key': 'i', 'origWidth': 411, 'origHeight': 411, 'width': 411, 'height': 411, 'widthPercent': 0.45, 'rescaleHeight': False, 'trialN': 66, 'loaded': True, 'loadedTime': 4973, 'positionName': 'RIGHT', 'positionCoords': [798.72, 226.5], 'bid': 0.32}]",133851.90000000037,1669830509344,seaweed,corn cob,1.7,0.32,-1.38,seaweed,1572.0,1572,1572.5999999996275,True,u,135931.80000000075,2079.9000000003725,1669830511424,2080,HRV,HRV_0071,2022-11-30 17:52:28
67,"[{'imgObject': {}, 'id': 'corn cob', 'src': '/static/foodstim60/corn cob.jpg', 'key': 'u', 'origWidth': 411, 'origHeight': 411, 'width': 411, 'height': 411, 'widthPercent': 0.45, 'rescaleHeight': False, 'trialN': 67, 'loaded': True, 'loadedTime': 4972.4000000003725, 'positionName': 'LEFT', 'positionCoords': [326.28, 226.5], 'bid': 0.32}, {'imgObject': {}, 'id': 'cocktailshrimp', 'src': '/static/foodstim60/cocktailshrimp.jpg', 'key': 'i', 'origWidth': 410, 'origHeight': 410, 'width': 410, 'height': 410, 'widthPercent': 0.45, 'rescaleHeight': False, 'trialN': 67, 'loaded': True, 'loadedTime': 5009.4000000003725, 'positionName': 'RIGHT', 'positionCoords': [798.72, 227], 'bid': 0.22}]",135932.20000000112,1669830511424,corn cob,cocktailshrimp,0.32,0.22,-0.1,corn cob,1747.699999999255,1749,1748.9000000003725,True,u,138197.40000000037,2265.199999999255,1669830513689,2265,HRV,HRV_0071,2022-11-30 17:52:28
68,"[{'imgObject': {}, 'id': 'burger', 'src': '/static/foodstim60/burger.jpg', 'key': 'u', 'origWidth': 409, 'origHeight': 409, 'width': 409, 'height': 409, 'widthPercent': 0.45, 'rescaleHeight': False, 'trialN': 68, 'loaded': True, 'loadedTime': 4651.9000000003725, 'positionName': 'LEFT', 'positionCoords': [328.28, 227.5], 'bid': 3.03}, {'imgObject': {}, 'id': 'lox', 'src': '/static/foodstim60/lox.jpg', 'key': 'i', 'origWidth': 410, 'origHeight': 411, 'width': 410, 'height': 411, 'widthPercent': 0.45, 'rescaleHeight': False, 'trialN': 68, 'loaded': True, 'loadedTime': 4539.700000001118, 'positionName': 'RIGHT', 'positionCoords': [798.72, 226.5], 'bid': 1.28}]",138197.90000000037,1669830513690,burger,lox,3.03,1.28,-1.7499999999999998,burger,1360.5,1361,1361.0999999996275,True,u,140079.30000000075,1881.4000000003725,1669830515571,1881,HRV,HRV_0071,2022-11-30 17:52:28
69,"[{'imgObject': {}, 'id': 'rigatoni and sauce', 'src': '/static/foodstim60/rigatoni and sauce.jpg', 'key': 'u', 'origWidth': 410, 'origHeight': 411, 'width': 410, 'height': 411, 'widthPercent': 0.45, 'rescaleHeight': False, 'trialN': 69, 'loaded': True, 'loadedTime': 4695.60000000149, 'positionName': 'LEFT', 'positionCoords': [327.28, 226.5], 'bid': 6.58}, {'imgObject': {}, 'id': 'seaweed', 'src': '/static/foodstim60/seaweed.jpg', 'key': 'i', 'origWidth': 410, 'origHeight': 410, 'width': 410, 'height': 410, 'widthPercent': 0.45, 'rescaleHeight': False, 'trialN': 69, 'loaded': True, 'loadedTime': 4722.60000000149, 'positionName': 'RIGHT', 'positionCoords': [798.72, 227], 'bid': 1.7}]",140079.80000000075,1669830515572,rigatoni and sauce,seaweed,6.58,1.7,-4.88,rigatoni and sauce,1174.0,1175,1174.800000000745,True,u,141757.30000000075,1677.5,1669830517250,1678,HRV,HRV_0071,2022-11-30 17:52:28
70,"[{'imgObject': {}, 'id': 'rigatoni and sauce', 'src': '/static/foodstim60/rigatoni and sauce.jpg', 'key': 'u', 'origWidth': 410, 'origHeight': 411, 'width': 410, 'height': 411, 'widthPercent': 0.45, 'rescaleHeight': False, 'trialN': 70, 'loaded': True, 'loadedTime': 4684, 'positionName': 'LEFT', 'positionCoords': [327.28, 226.5], 'bid': 6.58}, {'imgObject': {}, 'id': 'turkeysandwich', 'src': '/static/foodstim60/turkeysandwich.jpg', 'key': 'i', 'origWidth': 409, 'origHeight': 409, 'width': 409, 'height': 409, 'widthPercent': 0.45, 'rescaleHeight': False, 'trialN': 70, 'loaded': True, 'loadedTime': 4934.4000000003725, 'positionName': 'RIGHT', 'positionCoords': [798.72, 227.5], 'bid': 6.48}]",141757.6000000015,1669830517250,rigatoni and sauce,turkeysandwich,6.58,6.48,-0.09999999999999964,rigatoni and sauce,1662.199999999255,1663,1663.0,True,u,143924.30000000075,2166.699999999255,1669830519416,2166,HRV,HRV_0071,2022-11-30 17:52:28
71,"[{'imgObject': {}, 'id': 'apple slices', 'src': '/static/foodstim60/apple slices.jpg', 'key': 'u', 'origWidth': 409, 'origHeight': 410, 'width': 409, 'height': 410, 'widthPercent': 0.45, 'rescaleHeight': False, 'trialN': 71, 'loaded': True, 'loadedTime': 4914.300000000745, 'positionName': 'LEFT', 'positionCoords': [328.28, 227], 'bid': 2.7}, {'imgObject': {}, 'id': 'olives', 'src': '/static/foodstim60/olives.jpg', 'key': 'i', 'origWidth': 410, 'origHeight': 410, 'width': 410, 'height': 410, 'widthPercent': 0.45, 'rescaleHeight': False, 'trialN': 71, 'loaded': True, 'loadedTime': 4976.300000000745, 'positionName': 'RIGHT', 'positionCoords': [798.72, 227], 'bid': 3.67}]",143924.5,1669830519417,apple slices,olives,2.7,3.67,0.9699999999999998,olives,1635.800000000745,1637,1637.6000000014901,True,i,146087.70000000112,2163.2000000011176,1669830521580,2163,HRV,HRV_0071,2022-11-30 17:52:28
72,"[{'imgObject': {}, 'id': 'rigatoni and sauce', 'src': '/static/foodstim60/rigatoni and sauce.jpg', 'key': 'u', 'origWidth': 410, 'origHeight': 411, 'width': 410, 'height': 411, 'widthPercent': 0.45, 'rescaleHeight': False, 'trialN': 72, 'loaded': True, 'loadedTime': 4684.200000001118, 'positionName': 'LEFT', 'positionCoords': [327.28, 226.5], 'bid': 6.58}, {'imgObject': {}, 'id': 'grilled chicken strips', 'src': '/static/foodstim60/grilled chicken strips.jpg', 'key': 'i', 'origWidth': 410, 'origHeight': 411, 'width': 410, 'height': 411, 'widthPercent': 0.45, 'rescaleHeight': False, 'trialN': 72, 'loaded': True, 'loadedTime': 4959.700000001118, 'positionName': 'RIGHT', 'positionCoords': [798.72, 226.5], 'bid': 3.91}]",146088.20000000112,1669830521580,rigatoni and sauce,grilled chicken strips,6.58,3.91,-2.67,rigatoni and sauce,1635.9000000003725,1637,1636.699999999255,True,u,148236.30000000075,2148.0999999996275,1669830523728,2148,HRV,HRV_0071,2022-11-30 17:52:28
73,"[{'imgObject': {}, 'id': 'pear', 'src': '/static/foodstim60/pear.jpg', 'key': 'u', 'origWidth': 411, 'origHeight': 410, 'width': 411, 'height': 410, 'widthPercent': 0.45, 'rescaleHeight': False, 'trialN': 73, 'loaded': True, 'loadedTime': 5013.700000001118, 'positionName': 'LEFT', 'positionCoords': [326.28, 227], 'bid': 0.45}, {'imgObject': {}, 'id': 'corn cob', 'src': '/static/foodstim60/corn cob.jpg', 'key': 'i', 'origWidth': 411, 'origHeight': 411, 'width': 411, 'height': 411, 'widthPercent': 0.45, 'rescaleHeight': False, 'trialN': 73, 'loaded': True, 'loadedTime': 4973, 'positionName': 'RIGHT', 'positionCoords': [798.72, 226.5], 'bid': 0.32}]",148236.80000000075,1669830523729,pear,corn cob,0.45,0.32,-0.13,corn cob,1414.699999999255,1416,1416.4000000003725,True,i,150170.0,1933.199999999255,1669830525662,1933,HRV,HRV_0071,2022-11-30 17:52:28
74,"[{'imgObject': {}, 'id': 'baked potato', 'src': '/static/foodstim60/baked potato.jpg', 'key': 'u', 'origWidth': 409, 'origHeight': 410, 'width': 409, 'height': 410, 'widthPercent': 0.45, 'rescaleHeight': False, 'trialN': 74, 'loaded': True, 'loadedTime': 4806.4000000003725, 'positionName': 'LEFT', 'positionCoords': [328.28, 227], 'bid': 1.66}, {'imgObject': {}, 'id': 'cocktailshrimp', 'src': '/static/foodstim60/cocktailshrimp.jpg', 'key': 'i', 'origWidth': 410, 'origHeight': 410, 'width': 410, 'height': 410, 'widthPercent': 0.45, 'rescaleHeight': False, 'trialN': 74, 'loaded': True, 'loadedTime': 5010.5, 'positionName': 'RIGHT', 'positionCoords': [798.72, 227], 'bid': 0.22}]",150170.30000000075,1669830525662,baked potato,cocktailshrimp,1.66,0.22,-1.44,baked potato,2324.800000000745,2326,2325.5,True,u,153009.20000000112,2838.9000000003725,1669830528501,2839,HRV,HRV_0071,2022-11-30 17:52:28
75,"[{'imgObject': {}, 'id': 'omelette', 'src': '/static/foodstim60/omelette.jpg', 'key': 'u', 'origWidth': 410, 'origHeight': 409, 'width': 410, 'height': 409, 'widthPercent': 0.45, 'rescaleHeight': False, 'trialN': 75, 'loaded': True, 'loadedTime': 5025.9000000003725, 'positionName': 'LEFT', 'positionCoords': [327.28, 227.5], 'bid': 3.94}, {'imgObject': {}, 'id': 'sweetpotato', 'src': '/static/foodstim60/sweetpotato.jpg', 'key': 'i', 'origWidth': 410, 'origHeight': 410, 'width': 410, 'height': 410, 'widthPercent': 0.45, 'rescaleHeight': False, 'trialN': 75, 'loaded': True, 'loadedTime': 4931.800000000745, 'positionName': 'RIGHT', 'positionCoords': [798.72, 227], 'bid': 2.65}]",153009.6000000015,1669830528502,omelette,sweetpotato,3.94,2.65,-1.29,omelette,1727.699999999255,1728,1728.2999999988824,True,u,155253.1000000015,2243.5,1669830530745,2243,HRV,HRV_0071,2022-11-30 17:52:28
76,"[{'imgObject': {}, 'id': 'shreddedwheatwithmilk', 'src': '/static/foodstim60/shreddedwheatwithmilk.jpg', 'key': 'u', 'origWidth': 410, 'origHeight': 410, 'width': 410, 'height': 410, 'widthPercent': 0.45, 'rescaleHeight': False, 'trialN': 76, 'loaded': True, 'loadedTime': 4834, 'positionName': 'LEFT', 'positionCoords': [327.28, 227], 'bid': 6.78}, {'imgObject': {}, 'id': 'raisin bran w milk', 'src': '/static/foodstim60/raisin bran w milk.jpg', 'key': 'i', 'origWidth': 411, 'origHeight': 411, 'width': 411, 'height': 411, 'widthPercent': 0.45, 'rescaleHeight': False, 'trialN': 76, 'loaded': True, 'loadedTime': 4933.300000000745, 'positionName': 'RIGHT', 'positionCoords': [798.72, 226.5], 'bid': 7.92}]",155253.30000000075,1669830530745,shreddedwheatwithmilk,raisin bran w milk,6.78,7.92,1.1399999999999997,raisin bran w milk,1606.800000000745,1608,1607.4000000003725,True,i,157367.90000000037,2114.5999999996275,1669830532860,2115,HRV,HRV_0071,2022-11-30 17:52:28
77,"[{'imgObject': {}, 'id': 'luckycharms', 'src': '/static/foodstim60/luckycharms.jpg', 'key': 'u', 'origWidth': 410, 'origHeight': 409, 'width': 410, 'height': 409, 'widthPercent': 0.45, 'rescaleHeight': False, 'trialN': 77, 'loaded': True, 'loadedTime': 4582.9000000003725, 'positionName': 'LEFT', 'positionCoords': [327.28, 227.5], 'bid': 9.21}, {'imgObject': {}, 'id': 'burrito', 'src': '/static/foodstim60/burrito.jpg', 'key': 'i', 'origWidth': 410, 'origHeight': 410, 'width': 410, 'height': 410, 'widthPercent': 0.45, 'rescaleHeight': False, 'trialN': 77, 'loaded': True, 'loadedTime': 4756, 'positionName': 'RIGHT', 'positionCoords': [798.72, 227], 'bid': 8.43}]",157368.6000000015,1669830532861,luckycharms,burrito,9.21,8.43,-0.7800000000000011,luckycharms,1457.699999999255,1458,1458.2999999988824,True,u,159336.6000000015,1968.0,1669830534829,1968,HRV,HRV_0071,2022-11-30 17:52:28
78,"[{'imgObject': {}, 'id': 'eggs', 'src': '/static/foodstim60/eggs.jpg', 'key': 'u', 'origWidth': 409, 'origHeight': 409, 'width': 409, 'height': 409, 'widthPercent': 0.45, 'rescaleHeight': False, 'trialN': 78, 'loaded': True, 'loadedTime': 4738.700000001118, 'positionName': 'LEFT', 'positionCoords': [328.28, 227.5], 'bid': 1.92}, {'imgObject': {}, 'id': 'mac & cheese', 'src': '/static/foodstim60/mac & cheese.jpg', 'key': 'i', 'origWidth': 410, 'origHeight': 410, 'width': 410, 'height': 410, 'widthPercent': 0.45, 'rescaleHeight': False, 'trialN': 78, 'loaded': True, 'loadedTime': 4930.10000000149, 'positionName': 'RIGHT', 'positionCoords': [798.72, 227], 'bid': 6.97}]",159337.0,1669830534829,eggs,mac & cheese,1.92,6.97,5.05,mac & cheese,1206.2000000011176,1207,1206.800000000745,True,i,161057.90000000037,1720.9000000003725,1669830536550,1721,HRV,HRV_0071,2022-11-30 17:52:28
79,"[{'imgObject': {}, 'id': 'veggieswithdip', 'src': '/static/foodstim60/veggieswithdip.jpg', 'key': 'u', 'origWidth': 409, 'origHeight': 409, 'width': 409, 'height': 409, 'widthPercent': 0.45, 'rescaleHeight': False, 'trialN': 79, 'loaded': True, 'loadedTime': 4820.300000000745, 'positionName': 'LEFT', 'positionCoords': [328.28, 227.5], 'bid': 1.35}, {'imgObject': {}, 'id': 'pear', 'src': '/static/foodstim60/pear.jpg', 'key': 'i', 'origWidth': 411, 'origHeight': 410, 'width': 411, 'height': 410, 'widthPercent': 0.45, 'rescaleHeight': False, 'trialN': 79, 'loaded': True, 'loadedTime': 5012.700000001118, 'positionName': 'RIGHT', 'positionCoords': [798.72, 227], 'bid': 0.45}]",161058.40000000037,1669830536551,veggieswithdip,pear,1.35,0.45,-0.9000000000000001,veggieswithdip,1516.0999999996275,1516,1516.7000000011176,True,u,163093.5,2035.0999999996275,1669830538586,2035,HRV,HRV_0071,2022-11-30 17:52:28
80,"[{'imgObject': {}, 'id': 'blueberries', 'src': '/static/foodstim60/blueberries.jpg', 'key': 'u', 'origWidth': 411, 'origHeight': 411, 'width': 411, 'height': 411, 'widthPercent': 0.45, 'rescaleHeight': False, 'trialN': 80, 'loaded': True, 'loadedTime': 4917.200000001118, 'positionName': 'LEFT', 'positionCoords': [326.28, 226.5], 'bid': 1.13}, {'imgObject': {}, 'id': 'sushi w_condiments', 'src': '/static/foodstim60/sushi w_condiments.jpg', 'key': 'i', 'origWidth': 410, 'origHeight': 410, 'width': 410, 'height': 410, 'widthPercent': 0.45, 'rescaleHeight': False, 'trialN': 80, 'loaded': True, 'loadedTime': 4778.4000000003725, 'positionName': 'RIGHT', 'positionCoords': [798.72, 227], 'bid': 1.09}]",163093.90000000037,1669830538586,blueberries,sushi w_condiments,1.13,1.09,-0.039999999999999813,blueberries,1453.800000000745,1455,1454.5,True,u,165063.40000000037,1969.5,1669830540556,1970,HRV,HRV_0071,2022-11-30 17:52:28
81,"[{'imgObject': {}, 'id': 'blackbeanswithrice', 'src': '/static/foodstim60/blackbeanswithrice.jpg', 'key': 'u', 'origWidth': 410, 'origHeight': 410, 'width': 410, 'height': 410, 'widthPercent': 0.45, 'rescaleHeight': False, 'trialN': 81, 'loaded': True, 'loadedTime': 4900.700000001118, 'positionName': 'LEFT', 'positionCoords': [327.28, 227], 'bid': 0.95}, {'imgObject': {}, 'id': 'popsicles', 'src': '/static/foodstim60/popsicles.jpg', 'key': 'i', 'origWidth': 410, 'origHeight': 410, 'width': 410, 'height': 410, 'widthPercent': 0.45, 'rescaleHeight': False, 'trialN': 81, 'loaded': True, 'loadedTime': 5028.700000001118, 'positionName': 'RIGHT', 'positionCoords': [798.72, 227], 'bid': 0.8300000000000001}]",165064.5,1669830540557,blackbeanswithrice,popsicles,0.95,0.8300000000000001,-0.11999999999999988,blackbeanswithrice,1233.6000000014901,1234,1234.5,True,u,166811.80000000075,1747.300000000745,1669830542304,1747,HRV,HRV_0071,2022-11-30 17:52:28
82,"[{'imgObject': {}, 'id': 'pear', 'src': '/static/foodstim60/pear.jpg', 'key': 'u', 'origWidth': 411, 'origHeight': 410, 'width': 411, 'height': 410, 'widthPercent': 0.45, 'rescaleHeight': False, 'trialN': 82, 'loaded': True, 'loadedTime': 5013.9000000003725, 'positionName': 'LEFT', 'positionCoords': [326.28, 227], 'bid': 0.45}, {'imgObject': {}, 'id': 'sushi w_condiments', 'src': '/static/foodstim60/sushi w_condiments.jpg', 'key': 'i', 'origWidth': 410, 'origHeight': 410, 'width': 410, 'height': 410, 'widthPercent': 0.45, 'rescaleHeight': False, 'trialN': 82, 'loaded': True, 'loadedTime': 4789.300000000745, 'positionName': 'RIGHT', 'positionCoords': [798.72, 227], 'bid': 1.09}]",166812.1000000015,1669830542304,pear,sushi w_condiments,0.45,1.09,0.6400000000000001,sushi w_condiments,1857.7999999988824,1859,1858.3999999985099,True,i,169173.90000000037,2361.7999999988824,1669830544666,2362,HRV,HRV_0071,2022-11-30 17:52:28
83,"[{'imgObject': {}, 'id': 'mango', 'src': '/static/foodstim60/mango.jpg', 'key': 'u', 'origWidth': 411, 'origHeight': 411, 'width': 411, 'height': 411, 'widthPercent': 0.45, 'rescaleHeight': False, 'trialN': 83, 'loaded': True, 'loadedTime': 5006.4000000003725, 'positionName': 'LEFT', 'positionCoords': [326.28, 226.5], 'bid': 5.3500000000000005}, {'imgObject': {}, 'id': 'hotdog w must', 'src': '/static/foodstim60/hotdog w must.jpg', 'key': 'i', 'origWidth': 409, 'origHeight': 409, 'width': 409, 'height': 409, 'widthPercent': 0.45, 'rescaleHeight': False, 'trialN': 83, 'loaded': True, 'loadedTime': 4664.9000000003725, 'positionName': 'RIGHT', 'positionCoords': [798.72, 227.5], 'bid': 5.54}]",169174.20000000112,1669830544666,mango,hotdog w must,5.3500000000000005,5.54,0.1899999999999995,mango,1170.0999999996275,1172,1171.9000000003725,True,u,170860.30000000075,1686.0999999996275,1669830546352,1686,HRV,HRV_0071,2022-11-30 17:52:28
84,"[{'imgObject': {}, 'id': 'cantaloupe', 'src': '/static/foodstim60/cantaloupe.jpg', 'key': 'u', 'origWidth': 409, 'origHeight': 409, 'width': 409, 'height': 409, 'widthPercent': 0.45, 'rescaleHeight': False, 'trialN': 84, 'loaded': True, 'loadedTime': 4991.200000001118, 'positionName': 'LEFT', 'positionCoords': [328.28, 227.5], 'bid': 3.72}, {'imgObject': {}, 'id': 'mashed potato', 'src': '/static/foodstim60/mashed potato.jpg', 'key': 'i', 'origWidth': 409, 'origHeight': 409, 'width': 409, 'height': 409, 'widthPercent': 0.45, 'rescaleHeight': False, 'trialN': 84, 'loaded': True, 'loadedTime': 4765.200000001118, 'positionName': 'RIGHT', 'positionCoords': [798.72, 227.5], 'bid': 6.5600000000000005}]",170860.80000000075,1669830546353,cantaloupe,mashed potato,3.72,6.5600000000000005,2.8400000000000003,mashed potato,1137.800000000745,1138,1138.4000000003725,True,i,172513.70000000112,1652.9000000003725,1669830548006,1653,HRV,HRV_0071,2022-11-30 17:52:28
85,"[{'imgObject': {}, 'id': 'eggsalad', 'src': '/static/foodstim60/eggsalad.jpg', 'key': 'u', 'origWidth': 410, 'origHeight': 409, 'width': 410, 'height': 409, 'widthPercent': 0.45, 'rescaleHeight': False, 'trialN': 85, 'loaded': True, 'loadedTime': 4621.10000000149, 'positionName': 'LEFT', 'positionCoords': [327.28, 227.5], 'bid': 2.85}, {'imgObject': {}, 'id': 'burger', 'src': '/static/foodstim60/burger.jpg', 'key': 'i', 'origWidth': 409, 'origHeight': 409, 'width': 409, 'height': 409, 'widthPercent': 0.45, 'rescaleHeight': False, 'trialN': 85, 'loaded': True, 'loadedTime': 4651.700000001118, 'positionName': 'RIGHT', 'positionCoords': [798.72, 227.5], 'bid': 3.03}]",172514.1000000015,1669830548006,eggsalad,burger,2.85,3.03,0.17999999999999972,burger,1261.5999999996275,1263,1262.3999999985099,True,i,174290.6000000015,1776.5,1669830549783,1777,HRV,HRV_0071,2022-11-30 17:52:28
86,"[{'imgObject': {}, 'id': 'lox', 'src': '/static/foodstim60/lox.jpg', 'key': 'u', 'origWidth': 410, 'origHeight': 411, 'width': 410, 'height': 411, 'widthPercent': 0.45, 'rescaleHeight': False, 'trialN': 86, 'loaded': True, 'loadedTime': 4526, 'positionName': 'LEFT', 'positionCoords': [327.28, 226.5], 'bid': 1.28}, {'imgObject': {}, 'id': 'chicken nuggets2', 'src': '/static/foodstim60/chicken nuggets2.jpg', 'key': 'i', 'origWidth': 410, 'origHeight': 409, 'width': 410, 'height': 409, 'widthPercent': 0.45, 'rescaleHeight': False, 'trialN': 86, 'loaded': True, 'loadedTime': 4803.9000000003725, 'positionName': 'RIGHT', 'positionCoords': [798.72, 227.5], 'bid': 6.25}]",174291.1000000015,1669830549783,lox,chicken nuggets2,1.28,6.25,4.97,chicken nuggets2,1161.5,1162,1162.0,True,i,175970.0,1678.8999999985099,1669830551462,1679,HRV,HRV_0071,2022-11-30 17:52:28
87,"[{'imgObject': {}, 'id': 'orange slices', 'src': '/static/foodstim60/orange slices.jpg', 'key': 'u', 'origWidth': 409, 'origHeight': 410, 'width': 409, 'height': 410, 'widthPercent': 0.45, 'rescaleHeight': False, 'trialN': 87, 'loaded': True, 'loadedTime': 4557.9000000003725, 'positionName': 'LEFT', 'positionCoords': [328.28, 227], 'bid': 0.95}, {'imgObject': {}, 'id': 'mango', 'src': '/static/foodstim60/mango.jpg', 'key': 'i', 'origWidth': 411, 'origHeight': 411, 'width': 411, 'height': 411, 'widthPercent': 0.45, 'rescaleHeight': False, 'trialN': 87, 'loaded': True, 'loadedTime': 5006.4000000003725, 'positionName': 'RIGHT', 'positionCoords': [798.72, 226.5], 'bid': 5.3500000000000005}]",175970.1000000015,1669830551462,orange slices,mango,0.95,5.3500000000000005,4.4,mango,1068.7999999988824,1071,1070.5,True,i,177559.70000000112,1589.5999999996275,1669830553052,1590,HRV,HRV_0071,2022-11-30 17:52:28
88,"[{'imgObject': {}, 'id': 'mashed potato', 'src': '/static/foodstim60/mashed potato.jpg', 'key': 'u', 'origWidth': 409, 'origHeight': 409, 'width': 409, 'height': 409, 'widthPercent': 0.45, 'rescaleHeight': False, 'trialN': 88, 'loaded': True, 'loadedTime': 4766.4000000003725, 'positionName': 'LEFT', 'positionCoords': [328.28, 227.5], 'bid': 6.5600000000000005}, {'imgObject': {}, 'id': 'fruitsalad', 'src': '/static/foodstim60/fruitsalad.jpg', 'key': 'i', 'origWidth': 410, 'origHeight': 410, 'width': 410, 'height': 410, 'widthPercent': 0.45, 'rescaleHeight': False, 'trialN': 88, 'loaded': True, 'loadedTime': 4740.60000000149, 'positionName': 'RIGHT', 'positionCoords': [798.72, 227], 'bid': 6.3500000000000005}]",177560.0,1669830553052,mashed potato,fruitsalad,6.5600000000000005,6.3500000000000005,-0.20999999999999996,mashed potato,1515.300000000745,1516,1515.9000000003725,True,u,179589.40000000037,2029.4000000003725,1669830555082,2030,HRV,HRV_0071,2022-11-30 17:52:28
89,"[{'imgObject': {}, 'id': 'chicken nuggets2', 'src': '/static/foodstim60/chicken nuggets2.jpg', 'key': 'u', 'origWidth': 410, 'origHeight': 409, 'width': 410, 'height': 409, 'widthPercent': 0.45, 'rescaleHeight': False, 'trialN': 89, 'loaded': True, 'loadedTime': 4805.800000000745, 'positionName': 'LEFT', 'positionCoords': [327.28, 227.5], 'bid': 6.25}, {'imgObject': {}, 'id': 'granola w milk', 'src': '/static/foodstim60/granola w milk.jpg', 'key': 'i', 'origWidth': 410, 'origHeight': 410, 'width': 410, 'height': 410, 'widthPercent': 0.45, 'rescaleHeight': False, 'trialN': 89, 'loaded': True, 'loadedTime': 4915.9000000003725, 'positionName': 'RIGHT', 'positionCoords': [798.72, 227], 'bid': 5.83}]",179589.80000000075,1669830555082,chicken nuggets2,granola w milk,6.25,5.83,-0.41999999999999993,granola w milk,1378.800000000745,1380,1379.699999999255,True,i,181487.30000000075,1897.5,1669830556979,1897,HRV,HRV_0071,2022-11-30 17:52:28
90,"[{'imgObject': {}, 'id': 'kiwi', 'src': '/static/foodstim60/kiwi.jpg', 'key': 'u', 'origWidth': 410, 'origHeight': 410, 'width': 410, 'height': 410, 'widthPercent': 0.45, 'rescaleHeight': False, 'trialN': 90, 'loaded': True, 'loadedTime': 4974.60000000149, 'positionName': 'LEFT', 'positionCoords': [327.28, 227], 'bid': 2.09}, {'imgObject': {}, 'id': 'cantaloupe', 'src': '/static/foodstim60/cantaloupe.jpg', 'key': 'i', 'origWidth': 409, 'origHeight': 409, 'width': 409, 'height': 409, 'widthPercent': 0.45, 'rescaleHeight': False, 'trialN': 90, 'loaded': True, 'loadedTime': 4991.200000001118, 'positionName': 'RIGHT', 'positionCoords': [798.72, 227.5], 'bid': 3.72}]",187290.90000000037,1669830562783,kiwi,cantaloupe,2.09,3.72,1.6300000000000003,cantaloupe,2042.9000000003725,2043,2043.4000000003725,True,i,189847.80000000075,2556.9000000003725,1669830565340,2557,HRV,HRV_0071,2022-11-30 17:52:28
91,"[{'imgObject': {}, 'id': 'corn cob', 'src': '/static/foodstim60/corn cob.jpg', 'key': 'u', 'origWidth': 411, 'origHeight': 411, 'width': 411, 'height': 411, 'widthPercent': 0.45, 'rescaleHeight': False, 'trialN': 91, 'loaded': True, 'loadedTime': 4972.800000000745, 'positionName': 'LEFT', 'positionCoords': [326.28, 226.5], 'bid': 0.32}, {'imgObject': {}, 'id': 'salmon', 'src': '/static/foodstim60/salmon.jpg', 'key': 'i', 'origWidth': 410, 'origHeight': 409, 'width': 410, 'height': 409, 'widthPercent': 0.45, 'rescaleHeight': False, 'trialN': 91, 'loaded': True, 'loadedTime': 4792.300000000745, 'positionName': 'RIGHT', 'positionCoords': [798.72, 227.5], 'bid': 1.06}]",189848.0,1669830565340,corn cob,salmon,0.32,1.06,0.74,salmon,1308.4000000003725,1309,1309.1000000014901,True,i,191670.6000000015,1822.6000000014901,1669830567163,1823,HRV,HRV_0071,2022-11-30 17:52:28
92,"[{'imgObject': {}, 'id': 'cheerios', 'src': '/static/foodstim60/cheerios.jpg', 'key': 'u', 'origWidth': 409, 'origHeight': 410, 'width': 409, 'height': 410, 'widthPercent': 0.45, 'rescaleHeight': False, 'trialN': 92, 'loaded': True, 'loadedTime': 4777.60000000149, 'positionName': 'LEFT', 'positionCoords': [328.28, 227], 'bid': 7.7}, {'imgObject': {}, 'id': 'bagel plain', 'src': '/static/foodstim60/bagel plain.jpg', 'key': 'i', 'origWidth': 410, 'origHeight': 410, 'width': 410, 'height': 410, 'widthPercent': 0.45, 'rescaleHeight': False, 'trialN': 92, 'loaded': True, 'loadedTime': 4847.200000001118, 'positionName': 'RIGHT', 'positionCoords': [798.72, 227], 'bid': 9.55}]",191671.0,1669830567163,cheerios,bagel plain,7.7,9.55,1.8500000000000005,cheerios,1467.800000000745,1469,1468.5,True,u,193645.70000000112,1974.7000000011176,1669830569138,1975,HRV,HRV_0071,2022-11-30 17:52:28
93,"[{'imgObject': {}, 'id': 'sushi w_condiments', 'src': '/static/foodstim60/sushi w_condiments.jpg', 'key': 'u', 'origWidth': 410, 'origHeight': 410, 'width': 410, 'height': 410, 'widthPercent': 0.45, 'rescaleHeight': False, 'trialN': 93, 'loaded': True, 'loadedTime': 4779.60000000149, 'positionName': 'LEFT', 'positionCoords': [327.28, 227], 'bid': 1.09}, {'imgObject': {}, 'id': 'eggs', 'src': '/static/foodstim60/eggs.jpg', 'key': 'i', 'origWidth': 409, 'origHeight': 409, 'width': 409, 'height': 409, 'widthPercent': 0.45, 'rescaleHeight': False, 'trialN': 93, 'loaded': True, 'loadedTime': 4724.700000001118, 'positionName': 'RIGHT', 'positionCoords': [798.72, 227.5], 'bid': 1.92}]",193645.80000000075,1669830569138,sushi w_condiments,eggs,1.09,1.92,0.8299999999999998,eggs,2243.5,2244,2244.0,True,i,196405.6000000015,2759.800000000745,1669830571898,2760,HRV,HRV_0071,2022-11-30 17:52:28
94,"[{'imgObject': {}, 'id': 'banana', 'src': '/static/foodstim60/banana.jpg', 'key': 'u', 'origWidth': 410, 'origHeight': 410, 'width': 410, 'height': 410, 'widthPercent': 0.45, 'rescaleHeight': False, 'trialN': 94, 'loaded': True, 'loadedTime': 5009.300000000745, 'positionName': 'LEFT', 'positionCoords': [327.28, 227], 'bid': 4.07}, {'imgObject': {}, 'id': 'tacos', 'src': '/static/foodstim60/tacos.jpg', 'key': 'i', 'origWidth': 411, 'origHeight': 411, 'width': 411, 'height': 411, 'widthPercent': 0.45, 'rescaleHeight': False, 'trialN': 94, 'loaded': True, 'loadedTime': 4947.200000001118, 'positionName': 'RIGHT', 'positionCoords': [798.72, 226.5], 'bid': 5.2}]",196406.1000000015,1669830571898,banana,tacos,4.07,5.2,1.13,tacos,1038.199999999255,1039,1038.699999999255,True,i,197953.0,1546.8999999985099,1669830573445,1547,HRV,HRV_0071,2022-11-30 17:52:28
95,"[{'imgObject': {}, 'id': 'Grapes', 'src': '/static/foodstim60/Grapes.jpg', 'key': 'u', 'origWidth': 411, 'origHeight': 411, 'width': 411, 'height': 411, 'widthPercent': 0.45, 'rescaleHeight': False, 'trialN': 95, 'loaded': True, 'loadedTime': 4541.800000000745, 'positionName': 'LEFT', 'positionCoords': [326.28, 226.5], 'bid': 1.66}, {'imgObject': {}, 'id': 'cherries', 'src': '/static/foodstim60/cherries.jpg', 'key': 'i', 'origWidth': 410, 'origHeight': 411, 'width': 410, 'height': 411, 'widthPercent': 0.45, 'rescaleHeight': False, 'trialN': 95, 'loaded': True, 'loadedTime': 5003.200000001118, 'positionName': 'RIGHT', 'positionCoords': [798.72, 226.5], 'bid': 0.27}]",197953.30000000075,1669830573446,Grapes,cherries,1.66,0.27,-1.39,Grapes,945.5,946,946.0999999996275,True,u,199404.70000000112,1451.4000000003725,1669830574897,1451,HRV,HRV_0071,2022-11-30 17:52:28
96,"[{'imgObject': {}, 'id': 'fried eggs', 'src': '/static/foodstim60/fried eggs.jpg', 'key': 'u', 'origWidth': 410, 'origHeight': 410, 'width': 410, 'height': 410, 'widthPercent': 0.45, 'rescaleHeight': False, 'trialN': 96, 'loaded': True, 'loadedTime': 5004.700000001118, 'positionName': 'LEFT', 'positionCoords': [327.28, 227], 'bid': 5.61}, {'imgObject': {}, 'id': 'mango', 'src': '/static/foodstim60/mango.jpg', 'key': 'i', 'origWidth': 411, 'origHeight': 411, 'width': 411, 'height': 411, 'widthPercent': 0.45, 'rescaleHeight': False, 'trialN': 96, 'loaded': True, 'loadedTime': 5005, 'positionName': 'RIGHT', 'positionCoords': [798.72, 226.5], 'bid': 5.3500000000000005}]",199405.30000000075,1669830574897,fried eggs,mango,5.61,5.3500000000000005,-0.2599999999999998,fried eggs,951.9000000003725,953,952.5999999996275,True,u,200861.80000000075,1456.5,1669830576354,1457,HRV,HRV_0071,2022-11-30 17:52:28
97,"[{'imgObject': {}, 'id': 'salad w chicken', 'src': '/static/foodstim60/salad w chicken.jpg', 'key': 'u', 'origWidth': 411, 'origHeight': 411, 'width': 411, 'height': 411, 'widthPercent': 0.45, 'rescaleHeight': False, 'trialN': 97, 'loaded': True, 'loadedTime': 5012.60000000149, 'positionName': 'LEFT', 'positionCoords': [326.28, 226.5], 'bid': 5.72}, {'imgObject': {}, 'id': 'fried eggs', 'src': '/static/foodstim60/fried eggs.jpg', 'key': 'i', 'origWidth': 410, 'origHeight': 410, 'width': 410, 'height': 410, 'widthPercent': 0.45, 'rescaleHeight': False, 'trialN': 97, 'loaded': True, 'loadedTime': 5004.9000000003725, 'positionName': 'RIGHT', 'positionCoords': [798.72, 227], 'bid': 5.61}]",200862.20000000112,1669830576354,salad w chicken,fried eggs,5.72,5.61,-0.10999999999999943,salad w chicken,1191.7999999988824,1193,1192.2999999988824,True,u,202563.30000000075,1701.0999999996275,1669830578056,1702,HRV,HRV_0071,2022-11-30 17:52:28
98,"[{'imgObject': {}, 'id': 'chickenfingers', 'src': '/static/foodstim60/chickenfingers.jpg', 'key': 'u', 'origWidth': 410, 'origHeight': 410, 'width': 410, 'height': 410, 'widthPercent': 0.45, 'rescaleHeight': False, 'trialN': 98, 'loaded': True, 'loadedTime': 4567.4000000003725, 'positionName': 'LEFT', 'positionCoords': [327.28, 227], 'bid': 7.4}, {'imgObject': {}, 'id': 'roastedpotatoes', 'src': '/static/foodstim60/roastedpotatoes.jpg', 'key': 'i', 'origWidth': 409, 'origHeight': 410, 'width': 409, 'height': 410, 'widthPercent': 0.45, 'rescaleHeight': False, 'trialN': 98, 'loaded': True, 'loadedTime': 4902.700000001118, 'positionName': 'RIGHT', 'positionCoords': [798.72, 227], 'bid': 7.05}]",202563.6000000015,1669830578056,chickenfingers,roastedpotatoes,7.4,7.05,-0.35000000000000053,roastedpotatoes,1690.7999999988824,1691,1691.199999999255,True,i,204775.80000000075,2212.199999999255,1669830580268,2212,HRV,HRV_0071,2022-11-30 17:52:28
99,"[{'imgObject': {}, 'id': 'cherry tomato', 'src': '/static/foodstim60/cherry tomato.jpg', 'key': 'u', 'origWidth': 410, 'origHeight': 410, 'width': 410, 'height': 410, 'widthPercent': 0.45, 'rescaleHeight': False, 'trialN': 99, 'loaded': True, 'loadedTime': 4957.9000000003725, 'positionName': 'LEFT', 'positionCoords': [327.28, 227], 'bid': 3.02}, {'imgObject': {}, 'id': 'burrito', 'src': '/static/foodstim60/burrito.jpg', 'key': 'i', 'origWidth': 410, 'origHeight': 410, 'width': 410, 'height': 410, 'widthPercent': 0.45, 'rescaleHeight': False, 'trialN': 99, 'loaded': True, 'loadedTime': 4755.60000000149, 'positionName': 'RIGHT', 'positionCoords': [798.72, 227], 'bid': 8.43}]",204776.30000000075,1669830580269,cherry tomato,burrito,3.02,8.43,5.41,burrito,1012.3000000007451,1013,1013.0,True,i,206305.6000000015,1529.300000000745,1669830581798,1529,HRV,HRV_0071,2022-11-30 17:52:28
100,"[{'imgObject': {}, 'id': 'tacos', 'src': '/static/foodstim60/tacos.jpg', 'key': 'u', 'origWidth': 411, 'origHeight': 411, 'width': 411, 'height': 411, 'widthPercent': 0.45, 'rescaleHeight': False, 'trialN': 100, 'loaded': True, 'loadedTime': 4947.10000000149, 'positionName': 'LEFT', 'positionCoords': [326.28, 226.5], 'bid': 5.2}, {'imgObject': {}, 'id': 'eggsalad', 'src': '/static/foodstim60/eggsalad.jpg', 'key': 'i', 'origWidth': 410, 'origHeight': 409, 'width': 410, 'height': 409, 'widthPercent': 0.45, 'rescaleHeight': False, 'trialN': 100, 'loaded': True, 'loadedTime': 4638.700000001118, 'positionName': 'RIGHT', 'positionCoords': [798.72, 227.5], 'bid': 2.85}]",206305.90000000037,1669830581798,tacos,eggsalad,5.2,2.85,-2.35,tacos,1107.4000000003725,1108,1108.2000000011176,True,u,207916.40000000037,1610.5,1669830583409,1611,HRV,HRV_0071,2022-11-30 17:52:28
101,"[{'imgObject': {}, 'id': 'raspberries', 'src': '/static/foodstim60/raspberries.jpg', 'key': 'u', 'origWidth': 411, 'origHeight': 411, 'width': 411, 'height': 411, 'widthPercent': 0.45, 'rescaleHeight': False, 'trialN': 101, 'loaded': True, 'loadedTime': 4859.10000000149, 'positionName': 'LEFT', 'positionCoords': [326.28, 226.5], 'bid': 1.58}, {'imgObject': {}, 'id': 'yogurt no spoon', 'src': '/static/foodstim60/yogurt no spoon.jpg', 'key': 'i', 'origWidth': 411, 'origHeight': 410, 'width': 411, 'height': 410, 'widthPercent': 0.45, 'rescaleHeight': False, 'trialN': 101, 'loaded': True, 'loadedTime': 5007.9000000003725, 'positionName': 'RIGHT', 'positionCoords': [798.72, 227], 'bid': 3.0500000000000003}]",207917.0,1669830583409,raspberries,yogurt no spoon,1.58,3.0500000000000003,1.4700000000000002,yogurt no spoon,1121.5,1123,1122.300000000745,True,i,209552.30000000075,1635.300000000745,1669830585045,1636,HRV,HRV_0071,2022-11-30 17:52:28
102,"[{'imgObject': {}, 'id': 'veggieswithdip', 'src': '/static/foodstim60/veggieswithdip.jpg', 'key': 'u', 'origWidth': 409, 'origHeight': 409, 'width': 409, 'height': 409, 'widthPercent': 0.45, 'rescaleHeight': False, 'trialN': 102, 'loaded': True, 'loadedTime': 4832.300000000745, 'positionName': 'LEFT', 'positionCoords': [328.28, 227.5], 'bid': 1.35}, {'imgObject': {}, 'id': 'lox', 'src': '/static/foodstim60/lox.jpg', 'key': 'i', 'origWidth': 410, 'origHeight': 411, 'width': 410, 'height': 411, 'widthPercent': 0.45, 'rescaleHeight': False, 'trialN': 102, 'loaded': True, 'loadedTime': 4526.4000000003725, 'positionName': 'RIGHT', 'positionCoords': [798.72, 226.5], 'bid': 1.28}]",209552.70000000112,1669830585045,veggieswithdip,lox,1.35,1.28,-0.07000000000000006,veggieswithdip,1037.699999999255,1038,1038.0999999996275,True,u,211103.90000000037,1551.199999999255,1669830586596,1551,HRV,HRV_0071,2022-11-30 17:52:28
103,"[{'imgObject': {}, 'id': 'salad w chicken', 'src': '/static/foodstim60/salad w chicken.jpg', 'key': 'u', 'origWidth': 411, 'origHeight': 411, 'width': 411, 'height': 411, 'widthPercent': 0.45, 'rescaleHeight': False, 'trialN': 103, 'loaded': True, 'loadedTime': 5012.4000000003725, 'positionName': 'LEFT', 'positionCoords': [326.28, 226.5], 'bid': 5.72}, {'imgObject': {}, 'id': 'yogurt no spoon', 'src': '/static/foodstim60/yogurt no spoon.jpg', 'key': 'i', 'origWidth': 411, 'origHeight': 410, 'width': 411, 'height': 410, 'widthPercent': 0.45, 'rescaleHeight': False, 'trialN': 103, 'loaded': True, 'loadedTime': 5007.700000001118, 'positionName': 'RIGHT', 'positionCoords': [798.72, 227], 'bid': 3.0500000000000003}]",211104.1000000015,1669830586596,salad w chicken,yogurt no spoon,5.72,3.0500000000000003,-2.6699999999999995,salad w chicken,1100.199999999255,1101,1100.8999999985099,True,u,212715.90000000037,1611.7999999988824,1669830588208,1612,HRV,HRV_0071,2022-11-30 17:52:28
104,"[{'imgObject': {}, 'id': 'veggieswithdip', 'src': '/static/foodstim60/veggieswithdip.jpg', 'key': 'u', 'origWidth': 409, 'origHeight': 409, 'width': 409, 'height': 409, 'widthPercent': 0.45, 'rescaleHeight': False, 'trialN': 104, 'loaded': True, 'loadedTime': 4832.4000000003725, 'positionName': 'LEFT', 'positionCoords': [328.28, 227.5], 'bid': 1.35}, {'imgObject': {}, 'id': 'steak', 'src': '/static/foodstim60/steak.jpg', 'key': 'i', 'origWidth': 410, 'origHeight': 410, 'width': 410, 'height': 410, 'widthPercent': 0.45, 'rescaleHeight': False, 'trialN': 104, 'loaded': True, 'loadedTime': 4890.4000000003725, 'positionName': 'RIGHT', 'positionCoords': [798.72, 227], 'bid': 3.03}]",212716.40000000037,1669830588209,veggieswithdip,steak,1.35,3.03,1.6799999999999997,steak,1049.5999999996275,1050,1050.4000000003725,True,i,214281.5,1565.0999999996275,1669830589774,1565,HRV,HRV_0071,2022-11-30 17:52:28
105,"[{'imgObject': {}, 'id': 'bagel plain', 'src': '/static/foodstim60/bagel plain.jpg', 'key': 'u', 'origWidth': 410, 'origHeight': 410, 'width': 410, 'height': 410, 'widthPercent': 0.45, 'rescaleHeight': False, 'trialN': 105, 'loaded': True, 'loadedTime': 4847.700000001118, 'positionName': 'LEFT', 'positionCoords': [327.28, 227], 'bid': 9.55}, {'imgObject': {}, 'id': 'burrito', 'src': '/static/foodstim60/burrito.jpg', 'key': 'i', 'origWidth': 410, 'origHeight': 410, 'width': 410, 'height': 410, 'widthPercent': 0.45, 'rescaleHeight': False, 'trialN': 105, 'loaded': True, 'loadedTime': 4764.700000001118, 'positionName': 'RIGHT', 'positionCoords': [798.72, 227], 'bid': 8.43}]",214281.90000000037,1669830589774,bagel plain,burrito,9.55,8.43,-1.120000000000001,bagel plain,1426.5999999996275,1427,1427.300000000745,True,u,216212.20000000112,1930.300000000745,1669830591704,1930,HRV,HRV_0071,2022-11-30 17:52:28
106,"[{'imgObject': {}, 'id': 'edamame', 'src': '/static/foodstim60/edamame.jpg', 'key': 'u', 'origWidth': 409, 'origHeight': 410, 'width': 409, 'height': 410, 'widthPercent': 0.45, 'rescaleHeight': False, 'trialN': 106, 'loaded': True, 'loadedTime': 4991.4000000003725, 'positionName': 'LEFT', 'positionCoords': [328.28, 227], 'bid': 0.78}, {'imgObject': {}, 'id': 'popsicles', 'src': '/static/foodstim60/popsicles.jpg', 'key': 'i', 'origWidth': 410, 'origHeight': 410, 'width': 410, 'height': 410, 'widthPercent': 0.45, 'rescaleHeight': False, 'trialN': 106, 'loaded': True, 'loadedTime': 5028.60000000149, 'positionName': 'RIGHT', 'positionCoords': [798.72, 227], 'bid': 0.8300000000000001}]",216212.70000000112,1669830591705,edamame,popsicles,0.78,0.8300000000000001,0.050000000000000044,edamame,1423.9000000003725,1424,1424.2999999988824,True,u,218143.5,1930.7999999988824,1669830593636,1931,HRV,HRV_0071,2022-11-30 17:52:28
107,"[{'imgObject': {}, 'id': 'cheerios', 'src': '/static/foodstim60/cheerios.jpg', 'key': 'u', 'origWidth': 409, 'origHeight': 410, 'width': 409, 'height': 410, 'widthPercent': 0.45, 'rescaleHeight': False, 'trialN': 107, 'loaded': True, 'loadedTime': 4778.10000000149, 'positionName': 'LEFT', 'positionCoords': [328.28, 227], 'bid': 7.7}, {'imgObject': {}, 'id': 'hotdog w must', 'src': '/static/foodstim60/hotdog w must.jpg', 'key': 'i', 'origWidth': 409, 'origHeight': 409, 'width': 409, 'height': 409, 'widthPercent': 0.45, 'rescaleHeight': False, 'trialN': 107, 'loaded': True, 'loadedTime': 4666.800000000745, 'positionName': 'RIGHT', 'positionCoords': [798.72, 227.5], 'bid': 5.54}]",218144.0,1669830593636,cheerios,hotdog w must,7.7,5.54,-2.16,cheerios,1158.7000000011176,1160,1159.5,True,u,219815.5,1671.5,1669830595308,1672,HRV,HRV_0071,2022-11-30 17:52:28
