success,trial_type,trial_index,time_elapsed,internal_node_id,Block,TrialNumber,TrialTime,trialTimeDiff,FPS_avg,FPS_med,FPS_mode,TrialDur,winResizeTime,rt,block,button_pressed,MotCoh,MotDir,ColCoh,Color,ChoiceKey,Choice,Accuracy,RT,nFrames,FPS,PPD,missTrial,missTrialMsg,onsetDelay,fullScreenExitTime,canvCenter,TrialType,Score,BlockTrial,stimulus,button_labels,exp,subjectId,date
True,fullscreen,0,2607,0.0-0.0,0.0,1.0,,,,,,,,,,,,,,,,,,,,,,,,,,,,,,,,HRV,HRV_0071,2022-11-30 18:05:02
,wl-check-fps,1,7611,0.0-1.0,0.0,2.0,"[3028.4, 3039.6, 3056.3, 3072.9, 3089.4, 3109.5, 3126.4, 3143.5, 3159.8, 3176.1, 3192.7, 3209.5, 3226.1, 3241.5, 3258.5, 3274.8, 3291.6, 3308.5, 3325.1, 3341.5, 3358.3, 3375, 3391.8, 3408.1, 3425, 3441.8, 3458.3, 3474.9, 3491.7, 3508.8, 3525.1, 3541.8, 3558.5, 3575.1, 3591.8, 3608.3, 3625.2, 3641.6, 3658.3, 3675.2, 3691.8, 3708.3, 3725.2, 3741.7, 3758.4, 3775.2, 3791.8, 3808.5, 3824.3, 3841.7, 3858.7, 3875.1, 3891.7, 3908.8, 3925.1, 3941.9, 3958.5, 3975, 3991.8, 4008.3, 4025, 4043.1, 4058.6, 4075.2, 4092.1, 4108.5, 4125.2, 4142, 4158.6, 4175.3, 4191.8, 4208.6, 4225.4, 4241.7, 4258.6, 4275.4, 4291.9, 4308.8, 4325.7, 4341.8, 4358.5, 4375.4, 4392, 4408.8, 4424.7, 4441.9, 4458.8, 4475.4, 4491.8, 4509.2, 4525.3, 4542.1, 4559.1, 4575.4, 4591.9, 4608.9, 4625.4, 4642.1, 4658.7, 4675.4, 4692.2, 4708.8, 4725.5, 4742.3, 4758.6, 4775.4, 4792.1, 4809.4, 4825.3, 4841.7, 4858.7, 4875.5, 4892.2, 4908.8, 4925.7, 4942.3, 4958.8, 4975.9, 4992.3, 5008.7, 5025.4, 5042.2, 5058.9, 5075.4, 5092.4, 5108.9, 5125.4, 5142.6, 5159.1, 5175.8, 5192.2, 5209.1, 5225.4, 5242.3, 5259.2, 5275.7, 5292.3, 5308.8, 5325.6, 5342.5, 5358.9, 5375.7, 5392.6, 5409.1, 5425.6, 5442.5, 5459, 5475.7, 5492.2, 5509, 5526, 5542.4, 5559.1, 5576, 5592.5, 5609.1, 5626.1, 5642.7, 5659.2, 5676.8, 5692.6, 5709.3, 5726.3, 5742.8, 5759.3, 5776.1, 5792.6, 5809.4, 5825.6, 5842.9, 5859.3, 5876.6, 5892.6, 5909.3, 5926.2, 5943.1, 5960.1, 5976.1, 5993.1, 6009.7, 6026.5, 6043.4, 6059.8, 6076.5, 6093, 6109.6, 6126.8, 6143.1, 6159.9, 6176.9, 6193.4, 6209.6, 6226.7, 6242.9, 6259.7, 6277, 6293, 6309.8, 6326.9, 6343, 6359.8, 6375.8, 6392.9, 6410.1, 6426.7, 6443.1, 6460, 6476.7, 6493.1, 6509.9, 6526.6, 6543.2, 6560, 6577, 6593.2, 6610.3, 6626.8, 6643.2, 6660, 6678.2, 6694.9, 6711.7, 6730, 6744.3, 6761.7, 6778.3, 6795.1, 6811.4, 6828.4, 6843.3, 6861.6, 6878.1, 6893.2, 6911.3, 6928, 6944.9, 6961, 6978, 6994.4, 7009.6, 7028.1, 7044.5, 7060.1, 7077.9, 7094.6, 7111.7, 7128, 7144.6, 7161.4, 7178.1, 7194.6, 7211.4, 7226.4, 7244.8, 7261.3, 7276.4, 7295, 7311.4, 7326.7, 7345.5, 7361.1, 7376.7, 7392.8, 7409.6, 7426.6, 7443.2, 7459.6, 7476.5, 7493.1, 7509.7, 7526.5, 7542.9, 7559.8, 7576.7, 7593, 7610.1, 7627.6, 7644.3, 7661.3, 7677.1, 7693.4, 7710, 7727.1, 7743.4, 7759.9, 7777.6, 7793.4, 7810.2, 7827.3, 7843.2, 7860, 7877.2, 7893.2, 7909.9, 7926.7, 7943.2, 7959.8, 7976.7, 7993.2, 8009.8]","[1.9, 11.2, 16.7, 16.6, 16.5, 20.1, 16.9, 17.1, 16.3, 16.3, 16.6, 16.8, 16.6, 15.4, 17, 16.3, 16.8, 16.9, 16.6, 16.4, 16.8, 16.7, 16.8, 16.3, 16.9, 16.8, 16.5, 16.6, 16.8, 17.1, 16.3, 16.7, 16.7, 16.6, 16.7, 16.5, 16.9, 16.4, 16.7, 16.9, 16.6, 16.5, 16.9, 16.5, 16.7, 16.8, 16.6, 16.7, 15.8, 17.4, 17, 16.4, 16.6, 17.1, 16.3, 16.8, 16.6, 16.5, 16.8, 16.5, 16.7, 18.1, 15.5, 16.6, 16.9, 16.4, 16.7, 16.8, 16.6, 16.7, 16.5, 16.8, 16.8, 16.3, 16.9, 16.8, 16.5, 16.9, 16.9, 16.1, 16.7, 16.9, 16.6, 16.8, 15.9, 17.2, 16.9, 16.6, 16.4, 17.4, 16.1, 16.8, 17, 16.3, 16.5, 17, 16.5, 16.7, 16.6, 16.7, 16.8, 16.6, 16.7, 16.8, 16.3, 16.8, 16.7, 17.3, 15.9, 16.4, 17, 16.8, 16.7, 16.6, 16.9, 16.6, 16.5, 17.1, 16.4, 16.4, 16.7, 16.8, 16.7, 16.5, 17, 16.5, 16.5, 17.2, 16.5, 16.7, 16.4, 16.9, 16.3, 16.9, 16.9, 16.5, 16.6, 16.5, 16.8, 16.9, 16.4, 16.8, 16.9, 16.5, 16.5, 16.9, 16.5, 16.7, 16.5, 16.8, 17, 16.4, 16.7, 16.9, 16.5, 16.6, 17, 16.6, 16.5, 17.6, 15.8, 16.7, 17, 16.5, 16.5, 16.8, 16.5, 16.8, 16.2, 17.3, 16.4, 17.3, 16, 16.7, 16.9, 16.9, 17, 16, 17, 16.6, 16.8, 16.9, 16.4, 16.7, 16.5, 16.6, 17.2, 16.3, 16.8, 17, 16.5, 16.2, 17.1, 16.2, 16.8, 17.3, 16, 16.8, 17.1, 16.1, 16.8, 16, 17.1, 17.2, 16.6, 16.4, 16.9, 16.7, 16.4, 16.8, 16.7, 16.6, 16.8, 17, 16.2, 17.1, 16.5, 16.4, 16.8, 18.2, 16.7, 16.8, 18.3, 14.3, 17.4, 16.6, 16.8, 16.3, 17, 14.9, 18.3, 16.5, 15.1, 18.1, 16.7, 16.9, 16.1, 17, 16.4, 15.2, 18.5, 16.4, 15.6, 17.8, 16.7, 17.1, 16.3, 16.6, 16.8, 16.7, 16.5, 16.8, 15, 18.4, 16.5, 15.1, 18.6, 16.4, 15.3, 18.8, 15.6, 15.6, 16.1, 16.8, 17, 16.6, 16.4, 16.9, 16.6, 16.6, 16.8, 16.4, 16.9, 16.9, 16.3, 17.1, 17.5, 16.7, 17, 15.8, 16.3, 16.6, 17.1, 16.3, 16.5, 17.7, 15.8, 16.8, 17.1, 15.9, 16.8, 17.2, 16, 16.7, 16.8, 16.5, 16.6, 16.9, 16.5, 16.6]",60.0,59.0,60.0,5000.4,[],,,,,,,,,,,,,,,,,,,,,,,,,HRV,HRV_0071,2022-11-30 18:05:02
,wl-html-keyboard-response,2,20769,0.0-2.0-0.0,0.0,3.0,,,,,,,,11146.799999998882,0.0,0,,,,,,,,,,,,,,,,,,,,,,HRV,HRV_0071,2022-11-30 18:05:02
,wl-rdm,3,28717,0.0-3.0-0.0,0.0,4.0,,,,,,,[],,,,0.0,0.0,87.9,0.0,u,0.0,True,2372.7999999988824,143.0,60.0,40.0,False,,3000.0,[],"[768, 432]",ColorTask_Demo,,,,,HRV,HRV_0071,2022-11-30 18:05:02
,wl-rdm,4,34919,0.0-3.0-1.0,0.0,5.0,,,,,,,[],,,,0.0,0.0,87.9,1.0,i,1.0,True,2141.699999999255,129.0,60.0,40.0,False,,2000.0,[],"[768, 432]",ColorTask_Demo,,,,,HRV,HRV_0071,2022-11-30 18:05:02
,wl-html-keyboard-response,5,41720,0.0-3.0-2.0,0.0,6.0,,,,,,,,4796.0,0.0,1,,,,,,,,,,,,,,,,,,,,,,HRV,HRV_0071,2022-11-30 18:05:02
,wl-html-keyboard-response,6,82144,0.0-4.0-0.0,0.0,7.0,,,,,,,,38413.0,0.0,0,,,,,,,,,,,,,,,,,,,,,,HRV,HRV_0071,2022-11-30 18:05:02
,wl-html-keyboard-response,7,99577,0.0-5.0-0.0,0.0,8.0,,,,,,,,15426.199999999255,0.0,0,,,,,,,,,,,,,,,,,,,,,,HRV,HRV_0071,2022-11-30 18:05:02
,wl-rdm,8,103012,0.0-6.0-0.0,0.0,9.0,,,,,,,[],,,,,,62.5,1.0,i,1.0,True,2057.89999999851,124.0,60.0,40.0,False,,311.14088270791694,[],"[768, 432]",ColorTask,1.0,1.0,,,HRV,HRV_0071,2022-11-30 18:05:02
,wl-rdm,9,106864,0.0-6.1-0.1,0.0,10.0,,,,,,,[],,,,,,50.0,1.0,i,1.0,True,2468.4000000003725,149.0,60.0,40.0,False,,302.4097431442798,[],"[768, 432]",ColorTask,2.0,2.0,,,HRV,HRV_0071,2022-11-30 18:05:02
,wl-rdm,10,110748,0.0-6.2-0.2,0.0,11.0,,,,,,,[],,,,,,53.2,0.0,i,1.0,False,2578.5999999996275,155.0,60.0,40.0,False,,244.25708512408656,[],"[768, 432]",ColorTask,1.0,3.0,,,HRV,HRV_0071,2022-11-30 18:05:02
,wl-rdm,11,114616,0.0-6.3-0.3,0.0,12.0,,,,,,,[],,,,,,50.0,0.0,u,0.0,True,2544.5999999996275,153.0,60.0,40.0,False,,251.77053217805408,[],"[768, 432]",ColorTask,2.0,4.0,,,HRV,HRV_0071,2022-11-30 18:05:02
,wl-rdm,12,117250,0.0-6.4-0.4,0.0,13.0,,,,,,,[],,,,,,73.6,0.0,u,0.0,True,1314.800000000745,79.0,60.0,40.0,False,,263.06200924530646,[],"[768, 432]",ColorTask,3.0,5.0,,,HRV,HRV_0071,2022-11-30 18:05:02
,wl-rdm,13,120501,0.0-6.5-0.5,0.0,14.0,,,,,,,[],,,,,,53.2,0.0,u,0.0,True,1887.0999999996275,114.0,60.0,40.0,False,,298.12975786030574,[],"[768, 432]",ColorTask,4.0,6.0,,,HRV,HRV_0071,2022-11-30 18:05:02
,wl-rdm,14,124936,0.0-6.6-0.6,0.0,14.0,,,,,,,[],,,,,,50.0,0.0,,,,,179.0,60.0,40.0,True,RT_timeout ,359.9332455003561,[],"[768, 432]",ColorTask,3.0,7.0,,,HRV,HRV_0071,2022-11-30 18:05:02
,wl-rdm,15,128121,0.0-6.7-0.7,0.0,15.0,,,,,,,[],,,,,,53.2,1.0,i,1.0,True,1870.0000000018626,113.0,60.0,40.0,False,,244.52116714471205,[],"[768, 432]",ColorTask,4.0,8.0,,,HRV,HRV_0071,2022-11-30 18:05:02
,wl-rdm,16,130655,0.0-6.8-0.8,0.0,16.0,,,,,,,[],,,,,,62.5,0.0,u,0.0,True,1235.300000000745,75.0,60.0,40.0,False,,230.05615234076208,[],"[768, 432]",ColorTask,5.0,9.0,,,HRV,HRV_0071,2022-11-30 18:05:02
,wl-rdm,17,132872,0.0-6.9-0.9,0.0,17.0,,,,,,,[],,,,,,87.9,1.0,i,1.0,True,872.5999999996275,53.0,60.0,40.0,False,,280.7935672195444,[],"[768, 432]",ColorTask,6.0,10.0,,,HRV,HRV_0071,2022-11-30 18:05:02
,wl-rdm,18,135006,0.0-6.10-0.10,0.0,18.0,,,,,,,[],,,,,,87.9,1.0,i,1.0,True,769.4000000022352,47.0,60.0,40.0,False,,281.2872830867001,[],"[768, 432]",ColorTask,7.0,11.0,,,HRV,HRV_0071,2022-11-30 18:05:02
,wl-rdm,19,137991,0.0-6.11-0.11,0.0,19.0,,,,,,,[],,,,,,56.4,0.0,u,0.0,True,1602.4000000003725,97.0,60.0,40.0,False,,309.52416949385025,[],"[768, 432]",ColorTask,8.0,12.0,,,HRV,HRV_0071,2022-11-30 18:05:02
,wl-rdm,20,140942,0.0-6.12-0.12,0.0,20.0,,,,,,,[],,,,,,53.2,0.0,u,0.0,True,1603.699999999255,97.0,60.0,40.0,False,,280.4437596207111,[],"[768, 432]",ColorTask,9.0,13.0,,,HRV,HRV_0071,2022-11-30 18:05:02
,wl-rdm,21,143176,0.0-6.13-0.13,0.0,21.0,,,,,,,[],,,,,,87.9,0.0,u,0.0,True,895.4000000003725,54.0,60.0,40.0,False,,275.23134348008705,[],"[768, 432]",ColorTask,10.0,14.0,,,HRV,HRV_0071,2022-11-30 18:05:02
,wl-rdm,22,145444,0.0-6.14-0.14,0.0,22.0,,,,,,,[],,,,,,73.6,1.0,i,1.0,True,946.5999999996275,57.0,60.0,40.0,False,,263.8815048695426,[],"[768, 432]",ColorTask,11.0,15.0,,,HRV,HRV_0071,2022-11-30 18:05:02
,wl-rdm,23,148028,0.0-6.15-0.15,0.0,23.0,,,,,,,[],,,,,,73.6,0.0,u,0.0,True,1316.0999999996275,79.0,60.0,40.0,False,,206.36063387285003,[],"[768, 432]",ColorTask,12.0,16.0,,,HRV,HRV_0071,2022-11-30 18:05:02
,wl-rdm,24,150879,0.0-6.16-0.16,0.0,24.0,,,,,,,[],,,,,,56.4,0.0,u,0.0,True,1580.0,95.0,60.0,40.0,False,,210.7247701794296,[],"[768, 432]",ColorTask,13.0,17.0,,,HRV,HRV_0071,2022-11-30 18:05:02
,wl-rdm,25,153313,0.0-6.17-0.17,0.0,25.0,,,,,,,[],,,,,,87.9,0.0,u,0.0,True,1079.7000000011176,65.0,60.0,40.0,False,,291.54346962470834,[],"[768, 432]",ColorTask,14.0,18.0,,,HRV,HRV_0071,2022-11-30 18:05:02
,wl-rdm,26,155714,0.0-6.18-0.18,0.0,26.0,,,,,,,[],,,,,,87.9,0.0,u,0.0,True,1053.699999999255,64.0,60.0,40.0,False,,253.99706746890408,[],"[768, 432]",ColorTask,15.0,19.0,,,HRV,HRV_0071,2022-11-30 18:05:02
,wl-rdm,27,158899,0.0-6.19-0.19,0.0,27.0,,,,,,,[],,,,,,50.0,1.0,i,1.0,True,1788.199999999255,108.0,60.0,40.0,False,,321.02520242076986,[],"[768, 432]",ColorTask,16.0,20.0,,,HRV,HRV_0071,2022-11-30 18:05:02
,wl-rdm,28,162067,0.0-6.20-0.20,0.0,28.0,,,,,,,[],,,,,,50.0,1.0,u,0.0,False,1851.5,112.0,60.0,40.0,False,,225.85921966698393,[],"[768, 432]",ColorTask,15.0,21.0,,,HRV,HRV_0071,2022-11-30 18:05:02
,wl-rdm,29,165434,0.0-6.21-0.21,0.0,29.0,,,,,,,[],,,,,,50.0,1.0,u,0.0,False,1964.7000000011176,118.0,60.0,40.0,False,,335.045709209816,[],"[768, 432]",ColorTask,14.0,22.0,,,HRV,HRV_0071,2022-11-30 18:05:02
,wl-rdm,30,168019,0.0-6.22-0.22,0.0,30.0,,,,,,,[],,,,,,73.6,0.0,u,0.0,True,1246.199999999255,75.0,60.0,40.0,False,,278.54659541268086,[],"[768, 432]",ColorTask,15.0,23.0,,,HRV,HRV_0071,2022-11-30 18:05:02
,wl-rdm,31,171386,0.0-6.23-0.23,0.0,31.0,,,,,,,[],,,,,,50.0,1.0,i,1.0,True,2074.199999999255,125.0,60.0,40.0,False,,224.76800948146948,[],"[768, 432]",ColorTask,16.0,24.0,,,HRV,HRV_0071,2022-11-30 18:05:02
,wl-rdm,32,174805,0.0-6.24-0.24,0.0,32.0,,,,,,,[],,,,,,56.4,0.0,u,0.0,True,2100.199999999255,126.0,60.0,40.0,False,,255.54432475616738,[],"[768, 432]",ColorTask,17.0,25.0,,,HRV,HRV_0071,2022-11-30 18:05:02
,wl-rdm,33,178223,0.0-6.25-0.25,0.0,33.0,,,,,,,[],,,,,,53.2,1.0,u,0.0,False,2102.0,127.0,60.0,40.0,False,,233.45484349892482,[],"[768, 432]",ColorTask,16.0,26.0,,,HRV,HRV_0071,2022-11-30 18:05:02
,wl-rdm,34,181574,0.0-6.26-0.26,0.0,34.0,,,,,,,[],,,,,,56.4,0.0,u,0.0,True,2068.89999999851,125.0,60.0,40.0,False,,210.07479079057376,[],"[768, 432]",ColorTask,17.0,27.0,,,HRV,HRV_0071,2022-11-30 18:05:02
,wl-rdm,35,185109,0.0-6.27-0.27,0.0,35.0,,,,,,,[],,,,,,56.4,0.0,u,0.0,True,2080.5999999996275,125.0,60.0,40.0,False,,397.3798310356938,[],"[768, 432]",ColorTask,18.0,28.0,,,HRV,HRV_0071,2022-11-30 18:05:02
,wl-rdm,36,188026,0.0-6.28-0.28,0.0,36.0,,,,,,,[],,,,,,87.9,0.0,u,0.0,True,1570.5,95.0,60.0,40.0,False,,262.4991962582026,[],"[768, 432]",ColorTask,19.0,29.0,,,HRV,HRV_0071,2022-11-30 18:05:02
,wl-rdm,37,190794,0.0-6.29-0.29,0.0,37.0,,,,,,,[],,,,,,73.6,0.0,u,0.0,True,1455.7999999988824,88.0,60.0,40.0,False,,222.76931574399595,[],"[768, 432]",ColorTask,20.0,30.0,,,HRV,HRV_0071,2022-11-30 18:05:02
,wl-rdm,38,193479,0.0-6.30-0.30,0.0,38.0,,,,,,,[],,,,,,62.5,1.0,i,1.0,True,1340.7999999988824,81.0,60.0,40.0,False,,271.48590969582744,[],"[768, 432]",ColorTask,21.0,31.0,,,HRV,HRV_0071,2022-11-30 18:05:02
,wl-rdm,39,196530,0.0-6.31-0.31,0.0,39.0,,,,,,,[],,,,,,73.6,0.0,u,0.0,True,1711.0,103.0,60.0,40.0,False,,256.40013973564163,[],"[768, 432]",ColorTask,22.0,32.0,,,HRV,HRV_0071,2022-11-30 18:05:02
,wl-rdm,40,198948,0.0-6.32-0.32,0.0,40.0,,,,,,,[],,,,,,53.2,1.0,i,1.0,True,1091.2999999988824,66.0,60.0,40.0,False,,242.67664609619794,[],"[768, 432]",ColorTask,23.0,33.0,,,HRV,HRV_0071,2022-11-30 18:05:02
,wl-rdm,41,202116,0.0-6.33-0.33,0.0,41.0,,,,,,,[],,,,,,56.4,0.0,i,1.0,False,1795.3999999985099,108.0,60.0,40.0,False,,294.1476997828632,[],"[768, 432]",ColorTask,22.0,34.0,,,HRV,HRV_0071,2022-11-30 18:05:02
,wl-rdm,42,205284,0.0-6.34-0.34,0.0,42.0,,,,,,,[],,,,,,56.4,0.0,u,0.0,True,1856.5,112.0,60.0,40.0,False,,223.7479163800687,[],"[768, 432]",ColorTask,23.0,35.0,,,HRV,HRV_0071,2022-11-30 18:05:02
,wl-rdm,43,207719,0.0-6.35-0.35,0.0,43.0,,,,,,,[],,,,,,73.6,0.0,u,0.0,True,1111.9000000003725,67.0,60.0,40.0,False,,255.9706225417267,[],"[768, 432]",ColorTask,24.0,36.0,,,HRV,HRV_0071,2022-11-30 18:05:02
,wl-rdm,44,209986,0.0-6.36-0.36,0.0,44.0,,,,,,,[],,,,,,87.9,0.0,u,0.0,True,938.7000000011176,57.0,60.0,40.0,False,,241.68080584396046,[],"[768, 432]",ColorTask,25.0,37.0,,,HRV,HRV_0071,2022-11-30 18:05:02
,wl-rdm,45,212320,0.0-6.37-0.37,0.0,45.0,,,,,,,[],,,,,,87.9,0.0,u,0.0,True,855.5,52.0,60.0,40.0,False,,385.474078796948,[],"[768, 432]",ColorTask,26.0,38.0,,,HRV,HRV_0071,2022-11-30 18:05:02
,wl-rdm,46,215688,0.0-6.38-0.38,0.0,46.0,,,,,,,[],,,,,,62.5,0.0,u,0.0,True,2020.4000000003725,122.0,60.0,40.0,False,,275.9804711503185,[],"[768, 432]",ColorTask,27.0,39.0,,,HRV,HRV_0071,2022-11-30 18:05:02
,wl-rdm,47,218272,0.0-6.39-0.39,0.0,47.0,,,,,,,[],,,,,,87.9,0.0,u,0.0,True,1134.9000000003725,69.0,60.0,40.0,False,,382.5234819305273,[],"[768, 432]",ColorTask,28.0,40.0,,,HRV,HRV_0071,2022-11-30 18:05:02
,wl-rdm,48,221590,0.0-6.40-0.40,0.0,48.0,,,,,,,[],,,,,,62.5,1.0,i,1.0,True,1903.5,115.0,60.0,40.0,False,,333.39197061734626,[],"[768, 432]",ColorTask,29.0,41.0,,,HRV,HRV_0071,2022-11-30 18:05:02
,wl-rdm,49,224408,0.0-6.41-0.41,0.0,49.0,,,,,,,[],,,,,,62.5,1.0,i,1.0,True,1375.4000000003725,83.0,60.0,40.0,False,,366.4281679291345,[],"[768, 432]",ColorTask,30.0,42.0,,,HRV,HRV_0071,2022-11-30 18:05:02
,wl-rdm,50,226542,0.0-6.42-0.42,0.0,50.0,,,,,,,[],,,,,,73.6,1.0,i,1.0,True,836.4000000003725,51.0,60.0,40.0,False,,221.90117480969565,[],"[768, 432]",ColorTask,31.0,43.0,,,HRV,HRV_0071,2022-11-30 18:05:02
,wl-rdm,51,228726,0.0-6.43-0.43,0.0,51.0,,,,,,,[],,,,,,73.6,1.0,i,1.0,True,836.4000000003725,51.0,60.0,40.0,False,,253.84301141983548,[],"[768, 432]",ColorTask,32.0,44.0,,,HRV,HRV_0071,2022-11-30 18:05:02
,wl-rdm,52,232027,0.0-6.44-0.44,0.0,52.0,,,,,,,[],,,,,,53.2,0.0,i,1.0,False,1820.0,110.0,60.0,40.0,False,,390.0541323168303,[],"[768, 432]",ColorTask,31.0,45.0,,,HRV,HRV_0071,2022-11-30 18:05:02
,wl-rdm,53,235162,0.0-6.45-0.45,0.0,53.0,,,,,,,[],,,,,,50.0,1.0,u,0.0,False,1778.5999999996275,107.0,60.0,40.0,False,,282.3548564186585,[],"[768, 432]",ColorTask,30.0,46.0,,,HRV,HRV_0071,2022-11-30 18:05:02
,wl-rdm,54,238397,0.0-6.46-0.46,0.0,54.0,,,,,,,[],,,,,,50.0,1.0,i,1.0,True,1776.2000000011176,107.0,60.0,40.0,False,,392.6181670991965,[],"[768, 432]",ColorTask,31.0,47.0,,,HRV,HRV_0071,2022-11-30 18:05:02
,wl-rdm,55,241648,0.0-6.47-0.47,0.0,55.0,,,,,,,[],,,,,,56.4,0.0,u,0.0,True,1869.7999999988824,113.0,60.0,40.0,False,,308.2661468055019,[],"[768, 432]",ColorTask,32.0,48.0,,,HRV,HRV_0071,2022-11-30 18:05:02
,wl-rdm,56,243816,0.0-6.48-0.48,0.0,56.0,,,,,,,[],,,,,,73.6,1.0,i,1.0,True,892.5,54.0,60.0,40.0,False,,202.73385560084617,[],"[768, 432]",ColorTask,33.0,49.0,,,HRV,HRV_0071,2022-11-30 18:05:02
,wl-rdm,57,246550,0.0-6.49-0.49,0.0,57.0,,,,,,,[],,,,,,53.2,0.0,u,0.0,True,1442.8999999985099,87.0,60.0,40.0,False,,206.11602240233825,[],"[768, 432]",ColorTask,34.0,50.0,,,HRV,HRV_0071,2022-11-30 18:05:02
,wl-rdm,58,249584,0.0-6.50-0.50,0.0,58.0,,,,,,,[],,,,,,56.4,1.0,i,1.0,True,1609.699999999255,97.0,60.0,40.0,False,,355.89489394849574,[],"[768, 432]",ColorTask,35.0,51.0,,,HRV,HRV_0071,2022-11-30 18:05:02
,wl-rdm,59,252568,0.0-6.51-0.51,0.0,59.0,,,,,,,[],,,,,,56.4,1.0,i,1.0,True,1563.4999999981374,94.0,60.0,40.0,False,,354.8878540520053,[],"[768, 432]",ColorTask,36.0,52.0,,,HRV,HRV_0071,2022-11-30 18:05:02
,wl-rdm,60,255670,0.0-6.52-0.52,0.0,60.0,,,,,,,[],,,,,,53.2,0.0,u,0.0,True,1788.0,108.0,60.0,40.0,False,,234.78087506469095,[],"[768, 432]",ColorTask,37.0,53.0,,,HRV,HRV_0071,2022-11-30 18:05:02
,wl-rdm,61,258921,0.0-6.53-0.53,0.0,61.0,,,,,,,[],,,,,,50.0,0.0,u,0.0,True,1912.5,115.0,60.0,40.0,False,,266.751722036293,[],"[768, 432]",ColorTask,38.0,54.0,,,HRV,HRV_0071,2022-11-30 18:05:02
,wl-rdm,62,261472,0.0-6.54-0.54,0.0,62.0,,,,,,,[],,,,,,62.5,0.0,u,0.0,True,1234.0999999996275,75.0,60.0,40.0,False,,238.32947928123374,[],"[768, 432]",ColorTask,39.0,55.0,,,HRV,HRV_0071,2022-11-30 18:05:02
,wl-rdm,63,263622,0.0-6.55-0.55,0.0,63.0,,,,,,,[],,,,,,87.9,0.0,u,0.0,True,824.9000000003725,50.0,60.0,40.0,False,,261.32325098055037,[],"[768, 432]",ColorTask,40.0,56.0,,,HRV,HRV_0071,2022-11-30 18:05:02
,wl-rdm,64,266808,0.0-6.56-0.56,0.0,64.0,,,,,,,[],,,,,,53.2,0.0,u,0.0,True,1837.5,111.0,60.0,40.0,False,,266.4117543542845,[],"[768, 432]",ColorTask,41.0,57.0,,,HRV,HRV_0071,2022-11-30 18:05:02
,wl-rdm,65,269809,0.0-6.57-0.57,0.0,65.0,,,,,,,[],,,,,,53.2,1.0,i,1.0,True,1686.7999999988824,102.0,60.0,40.0,False,,244.40751413664765,[],"[768, 432]",ColorTask,42.0,58.0,,,HRV,HRV_0071,2022-11-30 18:05:02
,wl-rdm,66,272676,0.0-6.58-0.58,0.0,66.0,,,,,,,[],,,,,,53.2,1.0,i,1.0,True,1599.0,95.0,60.0,40.0,False,,202.44765855484624,[],"[768, 432]",ColorTask,43.0,59.0,,,HRV,HRV_0071,2022-11-30 18:05:02
,wl-rdm,67,274894,0.0-6.59-0.59,0.0,67.0,,,,,,,[],,,,,,87.9,1.0,i,1.0,True,751.0,46.0,60.0,40.0,False,,369.7802555444497,[],"[768, 432]",ColorTask,44.0,60.0,,,HRV,HRV_0071,2022-11-30 18:05:02
,wl-rdm,68,278045,0.0-6.60-0.60,0.0,68.0,,,,,,,[],,,,,,50.0,1.0,u,0.0,False,1744.800000000745,105.0,60.0,40.0,False,,345.48315569261,[],"[768, 432]",ColorTask,43.0,61.0,,,HRV,HRV_0071,2022-11-30 18:05:02
,wl-rdm,69,281212,0.0-6.61-0.61,0.0,69.0,,,,,,,[],,,,,,56.4,1.0,i,1.0,True,1770.6000000014901,107.0,60.0,40.0,False,,311.9233297166571,[],"[768, 432]",ColorTask,44.0,62.0,,,HRV,HRV_0071,2022-11-30 18:05:02
,wl-rdm,70,284397,0.0-6.62-0.62,0.0,70.0,,,,,,,[],,,,,,53.2,0.0,u,0.0,True,1896.7999999988824,114.0,60.0,40.0,False,,203.44390694276262,[],"[768, 432]",ColorTask,45.0,63.0,,,HRV,HRV_0071,2022-11-30 18:05:02
,wl-rdm,71,287616,0.0-6.63-0.63,0.0,71.0,,,,,,,[],,,,,,62.5,0.0,u,0.0,True,1904.8999999985099,115.0,60.0,40.0,False,,238.73878726468752,[],"[768, 432]",ColorTask,46.0,64.0,,,HRV,HRV_0071,2022-11-30 18:05:02
,wl-rdm,72,290483,0.0-6.64-0.64,0.0,72.0,,,,,,,[],,,,,,62.5,0.0,u,0.0,True,1407.199999999255,85.0,60.0,40.0,False,,390.0205665595809,[],"[768, 432]",ColorTask,47.0,65.0,,,HRV,HRV_0071,2022-11-30 18:05:02
,wl-rdm,73,293084,0.0-6.65-0.65,0.0,73.0,,,,,,,[],,,,,,62.5,0.0,u,0.0,True,1259.5,76.0,60.0,40.0,False,,277.904235814148,[],"[768, 432]",ColorTask,48.0,66.0,,,HRV,HRV_0071,2022-11-30 18:05:02
,wl-rdm,74,296335,0.0-6.66-0.66,0.0,74.0,,,,,,,[],,,,,,53.2,1.0,i,1.0,True,1856.6000000014901,112.0,60.0,40.0,False,,330.1292814842778,[],"[768, 432]",ColorTask,49.0,67.0,,,HRV,HRV_0071,2022-11-30 18:05:02
,wl-rdm,75,299903,0.0-6.67-0.67,0.0,75.0,,,,,,,[],,,,,,50.0,0.0,u,0.0,True,2202.5,133.0,60.0,40.0,False,,299.72680442641564,[],"[768, 432]",ColorTask,50.0,68.0,,,HRV,HRV_0071,2022-11-30 18:05:02
,wl-rdm,76,302654,0.0-6.68-0.68,0.0,76.0,,,,,,,[],,,,,,56.4,1.0,i,1.0,True,1358.5999999996275,82.0,60.0,40.0,False,,317.89961940040934,[],"[768, 432]",ColorTask,51.0,69.0,,,HRV,HRV_0071,2022-11-30 18:05:02
,wl-rdm,77,305839,0.0-6.69-0.69,0.0,77.0,,,,,,,[],,,,,,50.0,0.0,i,1.0,False,1766.0,106.0,60.0,40.0,False,,361.75191901674305,[],"[768, 432]",ColorTask,50.0,70.0,,,HRV,HRV_0071,2022-11-30 18:05:02
,wl-rdm,78,309524,0.0-6.70-0.70,0.0,78.0,,,,,,,[],,,,,,56.4,0.0,u,0.0,True,2279.0999999996275,137.0,60.0,40.0,False,,346.50876214303577,[],"[768, 432]",ColorTask,51.0,71.0,,,HRV,HRV_0071,2022-11-30 18:05:02
,wl-rdm,79,313007,0.0-6.71-0.71,0.0,79.0,,,,,,,[],,,,,,53.2,1.0,i,1.0,True,2120.4000000003725,128.0,60.0,40.0,False,,297.4853083614614,[],"[768, 432]",ColorTask,52.0,72.0,,,HRV,HRV_0071,2022-11-30 18:05:02
,wl-rdm,80,315108,0.0-6.72-0.72,0.0,80.0,,,,,,,[],,,,,,56.4,1.0,i,1.0,True,791.7999999988824,48.0,60.0,40.0,False,,230.4472791658801,[],"[768, 432]",ColorTask,53.0,73.0,,,HRV,HRV_0071,2022-11-30 18:05:02
,wl-rdm,81,318076,0.0-6.73-0.73,0.0,81.0,,,,,,,[],,,,,,73.6,0.0,u,0.0,True,1681.0999999996275,101.0,60.0,40.0,False,,232.35399514604174,[],"[768, 432]",ColorTask,54.0,74.0,,,HRV,HRV_0071,2022-11-30 18:05:02
,wl-rdm,82,320426,0.0-6.74-0.74,0.0,82.0,,,,,,,[],,,,,,73.6,1.0,i,1.0,True,918.3000000007451,56.0,60.0,40.0,False,,346.47028206088567,[],"[768, 432]",ColorTask,55.0,75.0,,,HRV,HRV_0071,2022-11-30 18:05:02
,wl-rdm,83,324011,0.0-6.75-0.75,0.0,83.0,,,,,,,[],,,,,,62.5,0.0,u,0.0,True,2299.7999999988824,138.0,60.0,40.0,False,,228.28789487192725,[],"[768, 432]",ColorTask,56.0,76.0,,,HRV,HRV_0071,2022-11-30 18:05:02
,wl-rdm,84,327196,0.0-6.76-0.76,0.0,84.0,,,,,,,[],,,,,,56.4,1.0,i,1.0,True,1775.699999999255,107.0,60.0,40.0,False,,325.8930119096147,[],"[768, 432]",ColorTask,57.0,77.0,,,HRV,HRV_0071,2022-11-30 18:05:02
,wl-rdm,85,329664,0.0-6.77-0.77,0.0,85.0,,,,,,,[],,,,,,56.4,1.0,i,1.0,True,1036.4000000003725,63.0,60.0,40.0,False,,339.8295571525374,[],"[768, 432]",ColorTask,58.0,78.0,,,HRV,HRV_0071,2022-11-30 18:05:02
,wl-rdm,86,331681,0.0-6.78-0.78,0.0,86.0,,,,,,,[],,,,,,87.9,1.0,i,1.0,True,635.7999999988824,39.0,60.0,40.0,False,,288.83160904450125,[],"[768, 432]",ColorTask,59.0,79.0,,,HRV,HRV_0071,2022-11-30 18:05:02
,wl-rdm,87,334832,0.0-6.79-0.79,0.0,87.0,,,,,,,[],,,,,,50.0,1.0,i,1.0,True,1742.2000000011176,105.0,60.0,40.0,False,,338.9829998108696,[],"[768, 432]",ColorTask,60.0,80.0,,,HRV,HRV_0071,2022-11-30 18:05:02
,wl-rdm,88,338116,0.0-6.80-0.80,0.0,88.0,,,,,,,[],,,,,,56.4,1.0,u,0.0,False,1944.5,117.0,60.0,40.0,False,,280.1564788227679,[],"[768, 432]",ColorTask,59.0,81.0,,,HRV,HRV_0071,2022-11-30 18:05:02
,wl-rdm,89,340267,0.0-6.81-0.81,0.0,89.0,,,,,,,[],,,,,,87.9,1.0,i,1.0,True,760.0,46.0,60.0,40.0,False,,300.86873273923004,[],"[768, 432]",ColorTask,60.0,82.0,,,HRV,HRV_0071,2022-11-30 18:05:02
,wl-rdm,90,342335,0.0-6.82-0.82,0.0,90.0,,,,,,,[],,,,,,87.9,1.0,i,1.0,True,689.4000000003725,42.0,60.0,40.0,False,,299.17869691285165,[],"[768, 432]",ColorTask,61.0,83.0,,,HRV,HRV_0071,2022-11-30 18:05:02
,wl-rdm,91,345969,0.0-6.83-0.83,0.0,91.0,,,,,,,[],,,,,,50.0,0.0,u,0.0,True,2330.2000000011176,140.0,60.0,40.0,False,,234.07363200026256,[],"[768, 432]",ColorTask,62.0,84.0,,,HRV,HRV_0071,2022-11-30 18:05:02
,wl-rdm,92,349288,0.0-6.84-0.84,0.0,92.0,,,,,,,[],,,,,,50.0,0.0,i,1.0,False,1858.2999999988824,112.0,60.0,40.0,False,,393.34939631678674,[],"[768, 432]",ColorTask,61.0,85.0,,,HRV,HRV_0071,2022-11-30 18:05:02
,wl-rdm,93,351388,0.0-6.85-0.85,0.0,93.0,,,,,,,[],,,,,,73.6,1.0,i,1.0,True,811.5999999996275,49.0,60.0,40.0,False,,227.94956490127822,[],"[768, 432]",ColorTask,62.0,86.0,,,HRV,HRV_0071,2022-11-30 18:05:02
,wl-rdm,94,354189,0.0-6.86-0.86,0.0,94.0,,,,,,,[],,,,,,62.5,1.0,i,1.0,True,1351.4000000003725,82.0,60.0,40.0,False,,371.26296336898235,[],"[768, 432]",ColorTask,63.0,87.0,,,HRV,HRV_0071,2022-11-30 18:05:02
,wl-rdm,95,356940,0.0-6.87-0.87,0.0,95.0,,,,,,,[],,,,,,62.5,0.0,u,0.0,True,1391.800000000745,84.0,60.0,40.0,False,,289.0955332987314,[],"[768, 432]",ColorTask,64.0,88.0,,,HRV,HRV_0071,2022-11-30 18:05:02
,wl-rdm,96,360742,0.0-6.88-0.88,0.0,96.0,,,,,,,[],,,,,,53.2,1.0,u,0.0,False,2520.5,152.0,60.0,40.0,False,,202.888561382413,[],"[768, 432]",ColorTask,63.0,89.0,,,HRV,HRV_0071,2022-11-30 18:05:02
,wl-rdm,97,362959,0.0-6.89-0.89,0.0,97.0,,,,,,,[],,,,,,73.6,1.0,i,1.0,True,944.1999999992549,57.0,60.0,40.0,False,,205.70671775059188,[],"[768, 432]",ColorTask,64.0,90.0,,,HRV,HRV_0071,2022-11-30 18:05:02
,wl-rdm,98,365910,0.0-6.90-0.90,0.0,98.0,,,,,,,[],,,,,,53.2,1.0,u,0.0,False,1637.9000000022352,99.0,60.0,40.0,False,,233.8379621036914,[],"[768, 432]",ColorTask,63.0,91.0,,,HRV,HRV_0071,2022-11-30 18:05:02
,wl-rdm,99,369095,0.0-6.91-0.91,0.0,99.0,,,,,,,[],,,,,,53.2,0.0,i,1.0,False,1852.5999999996275,112.0,60.0,40.0,False,,243.4531842664788,[],"[768, 432]",ColorTask,62.0,92.0,,,HRV,HRV_0071,2022-11-30 18:05:02
,wl-rdm,100,372514,0.0-6.92-0.92,0.0,100.0,,,,,,,[],,,,,,62.5,1.0,i,1.0,True,2117.2999999988824,127.0,60.0,40.0,False,,246.31321441940565,[],"[768, 432]",ColorTask,63.0,93.0,,,HRV,HRV_0071,2022-11-30 18:05:02
,wl-rdm,101,374698,0.0-6.93-0.93,0.0,101.0,,,,,,,[],,,,,,87.9,1.0,i,1.0,True,861.7999999988824,52.0,60.0,40.0,False,,252.59294637663544,[],"[768, 432]",ColorTask,64.0,94.0,,,HRV,HRV_0071,2022-11-30 18:05:02
,wl-rdm,102,378099,0.0-6.94-0.94,0.0,102.0,,,,,,,[],,,,,,50.0,0.0,i,1.0,False,2106.5999999996275,127.0,60.0,40.0,False,,231.46713351214277,[],"[768, 432]",ColorTask,63.0,95.0,,,HRV,HRV_0071,2022-11-30 18:05:02
,wl-rdm,103,380266,0.0-6.95-0.95,0.0,103.0,,,,,,,[],,,,,,73.6,0.0,u,0.0,True,791.0,48.0,60.0,40.0,False,,303.7374656701725,[],"[768, 432]",ColorTask,64.0,96.0,,,HRV,HRV_0071,2022-11-30 18:05:02
,wl-rdm,104,383535,0.0-6.96-0.96,0.0,104.0,,,,,,,[],,,,,,62.5,1.0,i,1.0,True,1923.5,116.0,60.0,40.0,False,,270.36578193767633,[],"[768, 432]",ColorTask,65.0,97.0,,,HRV,HRV_0071,2022-11-30 18:05:02
,wl-rdm,105,386286,0.0-6.97-0.97,0.0,105.0,,,,,,,[],,,,,,73.6,1.0,i,1.0,True,1464.4000000003725,88.0,60.0,40.0,False,,228.10191392647545,[],"[768, 432]",ColorTask,66.0,98.0,,,HRV,HRV_0071,2022-11-30 18:05:02
,wl-rdm,106,389603,0.0-6.98-0.98,0.0,106.0,,,,,,,[],,,,,,56.4,1.0,i,1.0,True,1992.2999999988824,120.0,60.0,40.0,False,,261.65232171287056,[],"[768, 432]",ColorTask,67.0,99.0,,,HRV,HRV_0071,2022-11-30 18:05:02
,wl-rdm,107,392088,0.0-6.99-0.99,0.0,107.0,,,,,,,[],,,,,,73.6,1.0,i,1.0,True,1102.0,67.0,60.0,40.0,False,,310.72151459950857,[],"[768, 432]",ColorTask,68.0,100.0,,,HRV,HRV_0071,2022-11-30 18:05:02
,wl-rdm,108,394272,0.0-6.100-0.100,0.0,108.0,,,,,,,[],,,,,,87.9,1.0,i,1.0,True,756.0999999996275,46.0,60.0,40.0,False,,365.8025712127494,[],"[768, 432]",ColorTask,69.0,101.0,,,HRV,HRV_0071,2022-11-30 18:05:02
,wl-rdm,109,396506,0.0-6.101-0.101,0.0,109.0,,,,,,,[],,,,,,73.6,0.0,u,0.0,True,863.5,52.0,60.0,40.0,False,,294.03488129625856,[],"[768, 432]",ColorTask,70.0,102.0,,,HRV,HRV_0071,2022-11-30 18:05:02
,wl-rdm,110,399224,0.0-6.102-0.102,0.0,110.0,,,,,,,[],,,,,,62.5,1.0,i,1.0,True,1448.5,87.0,60.0,40.0,False,,202.0586174418498,[],"[768, 432]",ColorTask,71.0,103.0,,,HRV,HRV_0071,2022-11-30 18:05:02
,wl-rdm,111,401308,0.0-6.103-0.103,0.0,111.0,,,,,,,[],,,,,,87.9,0.0,u,0.0,True,793.3000000007451,48.0,60.0,40.0,False,,202.12273439233104,[],"[768, 432]",ColorTask,72.0,104.0,,,HRV,HRV_0071,2022-11-30 18:05:02
,wl-rdm,112,404309,0.0-6.104-0.104,0.0,112.0,,,,,,,[],,,,,,50.0,0.0,i,1.0,False,1690.2999999988824,102.0,60.0,40.0,False,,232.7753432254683,[],"[768, 432]",ColorTask,71.0,105.0,,,HRV,HRV_0071,2022-11-30 18:05:02
,wl-rdm,113,406627,0.0-6.105-0.105,0.0,113.0,,,,,,,[],,,,,,62.5,0.0,u,0.0,True,913.0,55.0,60.0,40.0,False,,321.44338844448,[],"[768, 432]",ColorTask,72.0,106.0,,,HRV,HRV_0071,2022-11-30 18:05:02
,wl-rdm,114,409611,0.0-6.106-0.106,0.0,114.0,,,,,,,[],,,,,,50.0,0.0,u,0.0,True,1667.300000000745,100.0,60.0,40.0,False,,255.74232909005403,[],"[768, 432]",ColorTask,73.0,107.0,,,HRV,HRV_0071,2022-11-30 18:05:02
,wl-rdm,115,411845,0.0-6.107-0.107,0.0,115.0,,,,,,,[],,,,,,87.9,1.0,i,1.0,True,837.3000000007451,51.0,60.0,40.0,False,,325.581842184097,[],"[768, 432]",ColorTask,74.0,108.0,,,HRV,HRV_0071,2022-11-30 18:05:02
,wl-rdm,116,414513,0.0-6.108-0.108,0.0,116.0,,,,,,,[],,,,,,62.5,1.0,i,1.0,True,1364.8999999985099,82.0,60.0,40.0,False,,237.7985974006537,[],"[768, 432]",ColorTask,75.0,109.0,,,HRV,HRV_0071,2022-11-30 18:05:02
,wl-html-keyboard-response,117,421695,0.0-7.0-0.0,1.0,117.0,,,,,,,,5175.300000000745,1.0,0,,,,,,,,,,,,,,,,,,,,,,HRV,HRV_0071,2022-11-30 18:05:02
,wl-rdm,118,424767,0.0-8.0-0.0,1.0,118.0,,,,,,,[],,,,,,53.2,1.0,u,0.0,False,1781.0,107.0,60.0,40.0,False,,244.7326726506481,[],"[768, 432]",ColorTask,74.0,1.0,,,HRV,HRV_0071,2022-11-30 18:05:02
,wl-rdm,119,427518,0.0-8.1-0.1,1.0,119.0,,,,,,,[],,,,,,53.2,0.0,u,0.0,True,1335.199999999255,81.0,60.0,40.0,False,,347.2090583739189,[],"[768, 432]",ColorTask,75.0,2.0,,,HRV,HRV_0071,2022-11-30 18:05:02
,wl-rdm,120,430469,0.0-8.2-0.2,1.0,120.0,,,,,,,[],,,,,,56.4,1.0,i,1.0,True,1683.0,101.0,60.0,40.0,False,,206.1210100621073,[],"[768, 432]",ColorTask,76.0,3.0,,,HRV,HRV_0071,2022-11-30 18:05:02
,wl-rdm,121,433371,0.0-8.3-0.3,1.0,121.0,,,,,,,[],,,,,,53.2,1.0,i,1.0,True,1452.4000000003725,88.0,60.0,40.0,False,,382.33418262003073,[],"[768, 432]",ColorTask,77.0,4.0,,,HRV,HRV_0071,2022-11-30 18:05:02
,wl-rdm,122,435655,0.0-8.4-0.4,1.0,122.0,,,,,,,[],,,,,,73.6,0.0,u,0.0,True,951.3000000007451,58.0,60.0,40.0,False,,265.3061388273404,[],"[768, 432]",ColorTask,78.0,5.0,,,HRV,HRV_0071,2022-11-30 18:05:02
,wl-rdm,123,438889,0.0-8.5-0.5,1.0,123.0,,,,,,,[],,,,,,56.4,0.0,u,0.0,True,1889.199999999255,114.0,60.0,40.0,False,,277.8043864450383,[],"[768, 432]",ColorTask,79.0,6.0,,,HRV,HRV_0071,2022-11-30 18:05:02
,wl-rdm,124,441207,0.0-8.6-0.6,1.0,124.0,,,,,,,[],,,,,,73.6,0.0,u,0.0,True,925.5,56.0,60.0,40.0,False,,321.2520309816226,[],"[768, 432]",ColorTask,80.0,7.0,,,HRV,HRV_0071,2022-11-30 18:05:02
,wl-rdm,125,443808,0.0-8.7-0.7,1.0,125.0,,,,,,,[],,,,,,62.5,0.0,u,0.0,True,1164.800000000745,70.0,60.0,40.0,False,,381.5708871759192,[],"[768, 432]",ColorTask,81.0,8.0,,,HRV,HRV_0071,2022-11-30 18:05:02
,wl-rdm,126,445909,0.0-8.8-0.8,1.0,126.0,,,,,,,[],,,,,,87.9,0.0,u,0.0,True,760.5999999996275,46.0,60.0,40.0,False,,267.98662859919676,[],"[768, 432]",ColorTask,82.0,9.0,,,HRV,HRV_0071,2022-11-30 18:05:02
,wl-rdm,127,448710,0.0-8.9-0.9,1.0,127.0,,,,,,,[],,,,,,50.0,1.0,i,1.0,True,1499.5,90.0,60.0,40.0,False,,240.1976104380816,[],"[768, 432]",ColorTask,83.0,10.0,,,HRV,HRV_0071,2022-11-30 18:05:02
,wl-rdm,128,451094,0.0-8.10-0.10,1.0,128.0,,,,,,,[],,,,,,73.6,0.0,u,0.0,True,1007.5999999996275,61.0,60.0,40.0,False,,290.62242626453565,[],"[768, 432]",ColorTask,84.0,11.0,,,HRV,HRV_0071,2022-11-30 18:05:02
,wl-rdm,129,454029,0.0-8.11-0.11,1.0,129.0,,,,,,,[],,,,,,56.4,0.0,u,0.0,True,1540.199999999255,93.0,60.0,40.0,False,,303.9193059711175,[],"[768, 432]",ColorTask,85.0,12.0,,,HRV,HRV_0071,2022-11-30 18:05:02
,wl-rdm,130,456446,0.0-8.12-0.12,1.0,130.0,,,,,,,[],,,,,,73.6,1.0,i,1.0,True,1039.2999999988824,63.0,60.0,40.0,False,,306.3749154102868,[],"[768, 432]",ColorTask,86.0,13.0,,,HRV,HRV_0071,2022-11-30 18:05:02
,wl-rdm,131,459464,0.0-8.13-0.13,1.0,131.0,,,,,,,[],,,,,,53.2,1.0,i,1.0,True,1608.2999999988824,97.0,60.0,40.0,False,,336.9083074662145,[],"[768, 432]",ColorTask,87.0,14.0,,,HRV,HRV_0071,2022-11-30 18:05:02
,wl-rdm,132,462432,0.0-8.14-0.14,1.0,132.0,,,,,,,[],,,,,,53.2,0.0,i,1.0,False,1612.7999999988824,97.0,60.0,40.0,False,,284.8111881147532,[],"[768, 432]",ColorTask,86.0,15.0,,,HRV,HRV_0071,2022-11-30 18:05:02
,wl-rdm,133,465250,0.0-8.15-0.15,1.0,133.0,,,,,,,[],,,,,,62.5,0.0,u,0.0,True,1428.9000000003725,86.0,60.0,40.0,False,,330.1253385340334,[],"[768, 432]",ColorTask,87.0,16.0,,,HRV,HRV_0071,2022-11-30 18:05:02
,wl-rdm,134,468201,0.0-8.16-0.16,1.0,134.0,,,,,,,[],,,,,,53.2,0.0,u,0.0,True,1609.7000000011176,97.0,60.0,40.0,False,,265.05707918288925,[],"[768, 432]",ColorTask,88.0,17.0,,,HRV,HRV_0071,2022-11-30 18:05:02
,wl-rdm,135,470418,0.0-8.17-0.17,1.0,135.0,,,,,,,[],,,,,,87.9,0.0,u,0.0,True,772.0999999996275,47.0,60.0,40.0,False,,378.754319779599,[],"[768, 432]",ColorTask,89.0,18.0,,,HRV,HRV_0071,2022-11-30 18:05:02
,wl-rdm,136,472469,0.0-8.18-0.18,1.0,136.0,,,,,,,[],,,,,,73.6,1.0,i,1.0,True,765.9000000003725,46.0,60.0,40.0,False,,224.2559912667065,[],"[768, 432]",ColorTask,90.0,19.0,,,HRV,HRV_0071,2022-11-30 18:05:02
,wl-rdm,137,475537,0.0-8.19-0.19,1.0,137.0,,,,,,,[],,,,,,50.0,1.0,u,0.0,False,1773.7000000011176,107.0,60.0,40.0,False,,209.2497879964375,[],"[768, 432]",ColorTask,89.0,20.0,,,HRV,HRV_0071,2022-11-30 18:05:02
,wl-rdm,138,478488,0.0-8.20-0.20,1.0,138.0,,,,,,,[],,,,,,53.2,1.0,u,0.0,False,1622.5999999996275,98.0,60.0,40.0,False,,255.51451882382895,[],"[768, 432]",ColorTask,88.0,21.0,,,HRV,HRV_0071,2022-11-30 18:05:02
,wl-rdm,139,480672,0.0-8.21-0.21,1.0,139.0,,,,,,,[],,,,,,50.0,0.0,u,0.0,True,911.6999999992549,55.0,60.0,40.0,False,,208.06790440054158,[],"[768, 432]",ColorTask,89.0,22.0,,,HRV,HRV_0071,2022-11-30 18:05:02
,wl-rdm,140,482956,0.0-8.22-0.22,1.0,140.0,,,,,,,[],,,,,,73.6,1.0,i,1.0,True,987.2000000011176,60.0,60.0,40.0,False,,208.07049336451718,[],"[768, 432]",ColorTask,90.0,23.0,,,HRV,HRV_0071,2022-11-30 18:05:02
,wl-rdm,141,485174,0.0-8.23-0.23,1.0,141.0,,,,,,,[],,,,,,87.9,1.0,i,1.0,True,903.9000000003725,55.0,60.0,40.0,False,,239.1174509117454,[],"[768, 432]",ColorTask,91.0,24.0,,,HRV,HRV_0071,2022-11-30 18:05:02
,wl-rdm,142,488075,0.0-8.24-0.24,1.0,142.0,,,,,,,[],,,,,,53.2,1.0,i,1.0,True,1465.4000000003725,88.0,60.0,40.0,False,,366.9821722935067,[],"[768, 432]",ColorTask,92.0,25.0,,,HRV,HRV_0071,2022-11-30 18:05:02
,wl-rdm,143,491110,0.0-8.25-0.25,1.0,143.0,,,,,,,[],,,,,,56.4,1.0,i,1.0,True,1754.2999999988824,105.0,60.0,40.0,False,,207.97568245557224,[],"[768, 432]",ColorTask,93.0,26.0,,,HRV,HRV_0071,2022-11-30 18:05:02
,wl-rdm,144,493710,0.0-8.26-0.26,1.0,144.0,,,,,,,[],,,,,,62.5,1.0,i,1.0,True,1261.199999999255,76.0,60.0,40.0,False,,253.71619498952015,[],"[768, 432]",ColorTask,94.0,27.0,,,HRV,HRV_0071,2022-11-30 18:05:02
,wl-rdm,145,496628,0.0-8.27-0.27,1.0,145.0,,,,,,,[],,,,,,50.0,1.0,u,0.0,False,1564.4000000003725,94.0,60.0,40.0,False,,290.25469197114865,[],"[768, 432]",ColorTask,93.0,28.0,,,HRV,HRV_0071,2022-11-30 18:05:02
,wl-rdm,146,499980,0.0-8.28-0.28,1.0,146.0,,,,,,,[],,,,,,62.5,0.0,u,0.0,True,1912.7999999988824,115.0,60.0,40.0,False,,374.8872965810382,[],"[768, 432]",ColorTask,94.0,29.0,,,HRV,HRV_0071,2022-11-30 18:05:02
,wl-rdm,147,502997,0.0-8.29-0.29,1.0,147.0,,,,,,,[],,,,,,50.0,0.0,u,0.0,True,1652.5,100.0,60.0,40.0,False,,296.94954466609835,[],"[768, 432]",ColorTask,95.0,30.0,,,HRV,HRV_0071,2022-11-30 18:05:02
,wl-rdm,148,506066,0.0-8.30-0.30,1.0,148.0,,,,,,,[],,,,,,87.9,0.0,u,0.0,True,1735.199999999255,105.0,60.0,40.0,False,,258.90971579839373,[],"[768, 432]",ColorTask,96.0,31.0,,,HRV,HRV_0071,2022-11-30 18:05:02
,wl-rdm,149,509149,0.0-8.31-0.31,1.0,149.0,,,,,,,[],,,,,,56.4,1.0,i,1.0,True,1694.699999999255,102.0,60.0,40.0,False,,326.83770935694224,[],"[768, 432]",ColorTask,97.0,32.0,,,HRV,HRV_0071,2022-11-30 18:05:02
,wl-rdm,150,512218,0.0-8.32-0.32,1.0,150.0,,,,,,,[],,,,,,62.5,1.0,i,1.0,True,1719.4000000003725,104.0,60.0,40.0,False,,263.8405119911689,[],"[768, 432]",ColorTask,98.0,33.0,,,HRV,HRV_0071,2022-11-30 18:05:02
,wl-rdm,151,515302,0.0-8.33-0.33,1.0,151.0,,,,,,,[],,,,,,56.4,0.0,u,0.0,True,1681.0,101.0,60.0,40.0,False,,347.1144540906332,[],"[768, 432]",ColorTask,99.0,34.0,,,HRV,HRV_0071,2022-11-30 18:05:02
,wl-rdm,152,518420,0.0-8.34-0.34,1.0,152.0,,,,,,,[],,,,,,56.4,0.0,u,0.0,True,1809.6000000014901,109.0,60.0,40.0,False,,218.92474923856838,[],"[768, 432]",ColorTask,100.0,35.0,,,HRV,HRV_0071,2022-11-30 18:05:02
,wl-rdm,153,520604,0.0-8.35-0.35,1.0,153.0,,,,,,,[],,,,,,53.2,0.0,i,1.0,False,894.9000000003725,54.0,60.0,40.0,False,,221.69851318767655,[],"[768, 432]",ColorTask,99.0,36.0,,,HRV,HRV_0071,2022-11-30 18:05:02
,wl-rdm,154,523805,0.0-8.36-0.36,1.0,154.0,,,,,,,[],,,,,,53.2,1.0,i,1.0,True,1828.0999999996275,110.0,60.0,40.0,False,,302.92365394654433,[],"[768, 432]",ColorTask,100.0,37.0,,,HRV,HRV_0071,2022-11-30 18:05:02
,wl-rdm,155,527156,0.0-8.37-0.37,1.0,155.0,,,,,,,[],,,,,,50.0,1.0,u,0.0,False,1897.4000000003725,114.0,60.0,40.0,False,,375.93024167078926,[],"[768, 432]",ColorTask,99.0,38.0,,,HRV,HRV_0071,2022-11-30 18:05:02
,wl-rdm,156,529174,0.0-8.38-0.38,1.0,156.0,,,,,,,[],,,,,,87.9,0.0,u,0.0,True,706.8999999985099,43.0,60.0,40.0,False,,239.47688829941416,[],"[768, 432]",ColorTask,100.0,39.0,,,HRV,HRV_0071,2022-11-30 18:05:02
,wl-rdm,157,532809,0.0-8.39-0.39,1.0,157.0,,,,,,,[],,,,,,50.0,0.0,u,0.0,True,2287.7000000011176,138.0,60.0,40.0,False,,280.4500763315607,[],"[768, 432]",ColorTask,101.0,40.0,,,HRV,HRV_0071,2022-11-30 18:05:02
,wl-rdm,158,536010,0.0-8.40-0.40,1.0,158.0,,,,,,,[],,,,,,53.2,1.0,i,1.0,True,1875.5,113.0,60.0,40.0,False,,245.87941726793943,[],"[768, 432]",ColorTask,102.0,41.0,,,HRV,HRV_0071,2022-11-30 18:05:02
,wl-rdm,159,539077,0.0-8.41-0.41,1.0,159.0,,,,,,,[],,,,,,62.5,0.0,u,0.0,True,1779.5999999996275,107.0,60.0,40.0,False,,210.98930415336184,[],"[768, 432]",ColorTask,103.0,42.0,,,HRV,HRV_0071,2022-11-30 18:05:02
,wl-rdm,160,542296,0.0-8.42-0.42,1.0,160.0,,,,,,,[],,,,,,56.4,0.0,i,1.0,False,1925.1000000014901,116.0,60.0,40.0,False,,219.80339107289993,[],"[768, 432]",ColorTask,102.0,43.0,,,HRV,HRV_0071,2022-11-30 18:05:02
,wl-rdm,161,545664,0.0-8.43-0.43,1.0,161.0,,,,,,,[],,,,,,50.0,0.0,i,1.0,False,1977.699999999255,119.0,60.0,40.0,False,,322.85999033905205,[],"[768, 432]",ColorTask,101.0,44.0,,,HRV,HRV_0071,2022-11-30 18:05:02
,wl-rdm,162,548198,0.0-8.44-0.44,1.0,162.0,,,,,,,[],,,,,,87.9,1.0,i,1.0,True,1185.0,72.0,60.0,40.0,False,,259.23716598254697,[],"[768, 432]",ColorTask,102.0,45.0,,,HRV,HRV_0071,2022-11-30 18:05:02
,wl-rdm,163,551016,0.0-8.45-0.45,1.0,163.0,,,,,,,[],,,,,,50.0,1.0,u,0.0,False,1499.5000000018626,90.0,60.0,40.0,False,,262.40737656685275,[],"[768, 432]",ColorTask,101.0,46.0,,,HRV,HRV_0071,2022-11-30 18:05:02
,wl-rdm,164,553749,0.0-8.46-0.46,1.0,164.0,,,,,,,[],,,,,,87.9,1.0,i,1.0,True,1427.2999999988824,86.0,60.0,40.0,False,,237.05518393929736,[],"[768, 432]",ColorTask,102.0,47.0,,,HRV,HRV_0071,2022-11-30 18:05:02
,wl-rdm,165,555950,0.0-8.47-0.47,1.0,165.0,,,,,,,[],,,,,,87.9,0.0,u,0.0,True,820.1999999992549,50.0,60.0,40.0,False,,312.9118282362707,[],"[768, 432]",ColorTask,103.0,48.0,,,HRV,HRV_0071,2022-11-30 18:05:02
,wl-rdm,166,559135,0.0-8.48-0.48,1.0,166.0,,,,,,,[],,,,,,53.2,0.0,i,1.0,False,1820.699999999255,110.0,60.0,40.0,False,,298.2698913677323,[],"[768, 432]",ColorTask,102.0,49.0,,,HRV,HRV_0071,2022-11-30 18:05:02
,wl-rdm,167,562203,0.0-8.49-0.49,1.0,167.0,,,,,,,[],,,,,,62.5,0.0,u,0.0,True,1763.3999999985099,106.0,60.0,40.0,False,,231.89910770646853,[],"[768, 432]",ColorTask,103.0,50.0,,,HRV,HRV_0071,2022-11-30 18:05:02
,wl-rdm,168,565387,0.0-8.50-0.50,1.0,168.0,,,,,,,[],,,,,,53.2,0.0,i,1.0,False,1895.4000000003725,114.0,60.0,40.0,False,,214.7695938346245,[],"[768, 432]",ColorTask,102.0,51.0,,,HRV,HRV_0071,2022-11-30 18:05:02
,wl-rdm,169,568155,0.0-8.51-0.51,1.0,169.0,,,,,,,[],,,,,,87.9,0.0,u,0.0,True,1393.2999999988824,84.0,60.0,40.0,False,,284.31620629741536,[],"[768, 432]",ColorTask,103.0,52.0,,,HRV,HRV_0071,2022-11-30 18:05:02
,wl-rdm,170,570122,0.0-8.52-0.52,1.0,170.0,,,,,,,[],,,,,,87.9,1.0,i,1.0,True,671.2000000011176,41.0,60.0,40.0,False,,230.10831139274396,[],"[768, 432]",ColorTask,104.0,53.0,,,HRV,HRV_0071,2022-11-30 18:05:02
,wl-rdm,171,573157,0.0-8.53-0.53,1.0,171.0,,,,,,,[],,,,,,56.4,1.0,i,1.0,True,1748.5,105.0,60.0,40.0,False,,232.75307527719337,[],"[768, 432]",ColorTask,105.0,54.0,,,HRV,HRV_0071,2022-11-30 18:05:02
,wl-rdm,172,576325,0.0-8.54-0.54,1.0,172.0,,,,,,,[],,,,,,62.5,1.0,i,1.0,True,1870.699999999255,113.0,60.0,40.0,False,,211.39703712170254,[],"[768, 432]",ColorTask,106.0,55.0,,,HRV,HRV_0071,2022-11-30 18:05:02
,wl-rdm,173,579392,0.0-8.55-0.55,1.0,173.0,,,,,,,[],,,,,,56.4,0.0,u,0.0,True,1708.4000000003725,103.0,60.0,40.0,False,,279.92067192532835,[],"[768, 432]",ColorTask,107.0,56.0,,,HRV,HRV_0071,2022-11-30 18:05:02
,wl-rdm,174,582210,0.0-8.56-0.56,1.0,174.0,,,,,,,[],,,,,,73.6,0.0,u,0.0,True,1513.2000000011176,91.0,60.0,40.0,False,,231.2666523626123,[],"[768, 432]",ColorTask,108.0,57.0,,,HRV,HRV_0071,2022-11-30 18:05:02
,wl-rdm,175,584311,0.0-8.57-0.57,1.0,175.0,,,,,,,[],,,,,,87.9,1.0,i,1.0,True,810.0999999996275,49.0,60.0,40.0,False,,229.80259381973696,[],"[768, 432]",ColorTask,109.0,58.0,,,HRV,HRV_0071,2022-11-30 18:05:02
,wl-rdm,176,586429,0.0-8.58-0.58,1.0,176.0,,,,,,,[],,,,,,73.6,1.0,i,1.0,True,733.2000000011176,44.0,60.0,40.0,False,,316.5004108429504,[],"[768, 432]",ColorTask,110.0,59.0,,,HRV,HRV_0071,2022-11-30 18:05:02
,wl-rdm,177,588746,0.0-8.59-0.59,1.0,177.0,,,,,,,[],,,,,,87.9,0.0,u,0.0,True,934.2000000011176,57.0,60.0,40.0,False,,312.68763544599744,[],"[768, 432]",ColorTask,111.0,60.0,,,HRV,HRV_0071,2022-11-30 18:05:02
,wl-rdm,178,592081,0.0-8.60-0.60,1.0,178.0,,,,,,,[],,,,,,73.6,0.0,u,0.0,True,2004.5999999996275,121.0,60.0,40.0,False,,264.8169729761762,[],"[768, 432]",ColorTask,112.0,61.0,,,HRV,HRV_0071,2022-11-30 18:05:02
,wl-rdm,179,595182,0.0-8.61-0.61,1.0,179.0,,,,,,,[],,,,,,53.2,0.0,u,0.0,True,1781.5,107.0,60.0,40.0,False,,264.8597434204894,[],"[768, 432]",ColorTask,113.0,62.0,,,HRV,HRV_0071,2022-11-30 18:05:02
,wl-rdm,180,598666,0.0-8.62-0.62,1.0,180.0,,,,,,,[],,,,,,56.4,1.0,u,0.0,False,2166.0,130.0,60.0,40.0,False,,251.84190715057593,[],"[768, 432]",ColorTask,112.0,63.0,,,HRV,HRV_0071,2022-11-30 18:05:02
,wl-rdm,181,601701,0.0-8.63-0.63,1.0,181.0,,,,,,,[],,,,,,62.5,1.0,i,1.0,True,1623.800000000745,98.0,60.0,40.0,False,,343.036035620731,[],"[768, 432]",ColorTask,113.0,64.0,,,HRV,HRV_0071,2022-11-30 18:05:02
,wl-rdm,182,603835,0.0-8.64-0.64,1.0,182.0,,,,,,,[],,,,,,87.9,1.0,i,1.0,True,669.0,41.0,60.0,40.0,False,,396.9784153323044,[],"[768, 432]",ColorTask,114.0,65.0,,,HRV,HRV_0071,2022-11-30 18:05:02
,wl-rdm,183,606169,0.0-8.65-0.65,1.0,183.0,,,,,,,[],,,,,,73.6,1.0,i,1.0,True,1018.0,62.0,60.0,40.0,False,,227.39521531977468,[],"[768, 432]",ColorTask,115.0,66.0,,,HRV,HRV_0071,2022-11-30 18:05:02
,wl-rdm,184,609604,0.0-8.66-0.66,1.0,184.0,,,,,,,[],,,,,,56.4,0.0,u,0.0,True,2145.0,129.0,60.0,40.0,False,,232.37423457124598,[],"[768, 432]",ColorTask,116.0,67.0,,,HRV,HRV_0071,2022-11-30 18:05:02
,wl-rdm,185,612955,0.0-8.67-0.67,1.0,185.0,,,,,,,[],,,,,,62.5,1.0,i,1.0,True,2076.9000000003725,125.0,60.0,40.0,False,,215.05699046988747,[],"[768, 432]",ColorTask,117.0,68.0,,,HRV,HRV_0071,2022-11-30 18:05:02
,wl-rdm,186,615573,0.0-8.68-0.68,1.0,186.0,,,,,,,[],,,,,,73.6,1.0,i,1.0,True,1292.9000000003725,78.0,60.0,40.0,False,,263.04097320677414,[],"[768, 432]",ColorTask,118.0,69.0,,,HRV,HRV_0071,2022-11-30 18:05:02
,wl-rdm,187,618941,0.0-8.69-0.69,1.0,187.0,,,,,,,[],,,,,,53.2,0.0,u,0.0,True,2011.0000000018626,121.0,60.0,40.0,False,,285.0210364653535,[],"[768, 432]",ColorTask,119.0,70.0,,,HRV,HRV_0071,2022-11-30 18:05:02
,wl-rdm,188,622159,0.0-8.70-0.70,1.0,188.0,,,,,,,[],,,,,,62.5,0.0,u,0.0,True,1882.199999999255,113.0,60.0,40.0,False,,280.9783089144775,[],"[768, 432]",ColorTask,120.0,71.0,,,HRV,HRV_0071,2022-11-30 18:05:02
,wl-rdm,189,624277,0.0-8.71-0.71,1.0,189.0,,,,,,,[],,,,,,87.9,1.0,i,1.0,True,799.8999999985099,48.0,60.0,40.0,False,,266.5368331213325,[],"[768, 432]",ColorTask,121.0,72.0,,,HRV,HRV_0071,2022-11-30 18:05:02
,wl-rdm,190,626377,0.0-8.72-0.72,1.0,190.0,,,,,,,[],,,,,,87.9,0.0,u,0.0,True,777.2000000011176,47.0,60.0,40.0,False,,247.65440969598757,[],"[768, 432]",ColorTask,122.0,73.0,,,HRV,HRV_0071,2022-11-30 18:05:02
,wl-rdm,191,629695,0.0-8.73-0.73,1.0,191.0,,,,,,,[],,,,,,62.5,1.0,i,1.0,True,1948.800000000745,117.0,60.0,40.0,False,,304.2534215292137,[],"[768, 432]",ColorTask,123.0,74.0,,,HRV,HRV_0071,2022-11-30 18:05:02
,wl-rdm,192,632696,0.0-8.74-0.74,1.0,192.0,,,,,,,[],,,,,,53.2,1.0,i,1.0,True,1697.699999999255,102.0,60.0,40.0,False,,246.83904875207116,[],"[768, 432]",ColorTask,124.0,75.0,,,HRV,HRV_0071,2022-11-30 18:05:02
,wl-rdm,193,635630,0.0-8.75-0.75,1.0,193.0,,,,,,,[],,,,,,73.6,0.0,u,0.0,True,1561.300000000745,94.0,60.0,40.0,False,,290.8548169286647,[],"[768, 432]",ColorTask,125.0,76.0,,,HRV,HRV_0071,2022-11-30 18:05:02
,wl-rdm,194,638716,0.0-8.76-0.76,1.0,194.0,,,,,,,[],,,,,,73.6,1.0,i,1.0,True,1658.8999999985099,100.0,60.0,40.0,False,,338.8285693930145,[],"[768, 432]",ColorTask,126.0,77.0,,,HRV,HRV_0071,2022-11-30 18:05:02
,wl-rdm,195,641850,0.0-8.77-0.77,1.0,195.0,,,,,,,[],,,,,,50.0,0.0,u,0.0,True,1802.6000000014901,109.0,60.0,40.0,False,,239.98873531228662,[],"[768, 432]",ColorTask,127.0,78.0,,,HRV,HRV_0071,2022-11-30 18:05:02
,wl-rdm,196,645268,0.0-8.78-0.78,1.0,196.0,,,,,,,[],,,,,,50.0,1.0,u,0.0,False,2094.5,126.0,60.0,40.0,False,,244.2574973461415,[],"[768, 432]",ColorTask,126.0,79.0,,,HRV,HRV_0071,2022-11-30 18:05:02
,wl-rdm,197,648452,0.0-8.79-0.79,1.0,197.0,,,,,,,[],,,,,,50.0,0.0,u,0.0,True,1913.2000000011176,115.0,60.0,40.0,False,,214.59334439832062,[],"[768, 432]",ColorTask,127.0,80.0,,,HRV,HRV_0071,2022-11-30 18:05:02
,wl-rdm,198,651670,0.0-8.80-0.80,1.0,198.0,,,,,,,[],,,,,,53.2,0.0,i,1.0,False,1793.0999999996275,108.0,60.0,40.0,False,,359.54246764506684,[],"[768, 432]",ColorTask,126.0,81.0,,,HRV,HRV_0071,2022-11-30 18:05:02
,wl-rdm,199,654738,0.0-8.81-0.81,1.0,199.0,,,,,,,[],,,,,,56.4,1.0,i,1.0,True,1686.699999999255,102.0,60.0,40.0,False,,285.5890655670228,[],"[768, 432]",ColorTask,127.0,82.0,,,HRV,HRV_0071,2022-11-30 18:05:02
,wl-rdm,200,657872,0.0-8.82-0.82,1.0,200.0,,,,,,,[],,,,,,50.0,1.0,i,1.0,True,1704.4000000003725,103.0,60.0,40.0,False,,350.647630895616,[],"[768, 432]",ColorTask,128.0,83.0,,,HRV,HRV_0071,2022-11-30 18:05:02
,wl-rdm,201,660824,0.0-8.83-0.83,1.0,201.0,,,,,,,[],,,,,,73.6,0.0,u,0.0,True,1618.300000000745,98.0,60.0,40.0,False,,252.79813665446747,[],"[768, 432]",ColorTask,129.0,84.0,,,HRV,HRV_0071,2022-11-30 18:05:02
,wl-rdm,202,664308,0.0-8.84-0.84,1.0,202.0,,,,,,,[],,,,,,62.5,0.0,u,0.0,True,2191.0,132.0,60.0,40.0,False,,231.14700419210575,[],"[768, 432]",ColorTask,130.0,85.0,,,HRV,HRV_0071,2022-11-30 18:05:02
,wl-rdm,203,667843,0.0-8.85-0.85,1.0,203.0,,,,,,,[],,,,,,62.5,1.0,i,1.0,True,2174.5999999996275,131.0,60.0,40.0,False,,289.4432788235382,[],"[768, 432]",ColorTask,131.0,86.0,,,HRV,HRV_0071,2022-11-30 18:05:02
,wl-rdm,204,671111,0.0-8.86-0.86,1.0,204.0,,,,,,,[],,,,,,50.0,0.0,i,1.0,False,1906.800000000745,115.0,60.0,40.0,False,,293.61913572772903,[],"[768, 432]",ColorTask,130.0,87.0,,,HRV,HRV_0071,2022-11-30 18:05:02
,wl-rdm,205,674229,0.0-8.87-0.87,1.0,205.0,,,,,,,[],,,,,,87.9,0.0,u,0.0,True,1812.5,109.0,60.0,40.0,False,,223.96960862373305,[],"[768, 432]",ColorTask,131.0,88.0,,,HRV,HRV_0071,2022-11-30 18:05:02
,wl-rdm,206,676864,0.0-8.88-0.88,1.0,206.0,,,,,,,[],,,,,,62.5,1.0,i,1.0,True,1344.5,81.0,60.0,40.0,False,,203.13482652883673,[],"[768, 432]",ColorTask,132.0,89.0,,,HRV,HRV_0071,2022-11-30 18:05:02
,wl-rdm,207,679815,0.0-8.89-0.89,1.0,207.0,,,,,,,[],,,,,,56.4,0.0,u,0.0,True,1681.8000000026077,101.0,60.0,40.0,False,,204.03058465924232,[],"[768, 432]",ColorTask,133.0,90.0,,,HRV,HRV_0071,2022-11-30 18:05:02
,wl-rdm,208,682866,0.0-8.90-0.90,1.0,208.0,,,,,,,[],,,,,,62.5,1.0,i,1.0,True,1598.800000000745,96.0,60.0,40.0,False,,394.9258035392767,[],"[768, 432]",ColorTask,134.0,91.0,,,HRV,HRV_0071,2022-11-30 18:05:02
,wl-rdm,209,685500,0.0-8.91-0.91,1.0,209.0,,,,,,,[],,,,,,73.6,0.0,u,0.0,True,1265.1000000014901,76.0,60.0,40.0,False,,307.67777936691556,[],"[768, 432]",ColorTask,135.0,92.0,,,HRV,HRV_0071,2022-11-30 18:05:02
,wl-rdm,210,689135,0.0-8.92-0.92,1.0,210.0,,,,,,,[],,,,,,50.0,1.0,u,0.0,False,2185.5999999996275,132.0,60.0,40.0,False,,382.05581312758187,[],"[768, 432]",ColorTask,134.0,93.0,,,HRV,HRV_0071,2022-11-30 18:05:02
,wl-rdm,211,691552,0.0-8.93-0.93,1.0,211.0,,,,,,,[],,,,,,73.6,1.0,i,1.0,True,1104.300000000745,67.0,60.0,40.0,False,,238.9654988299062,[],"[768, 432]",ColorTask,135.0,94.0,,,HRV,HRV_0071,2022-11-30 18:05:02
,wl-rdm,212,694087,0.0-8.94-0.94,1.0,212.0,,,,,,,[],,,,,,50.0,1.0,u,0.0,False,1250.3999999985099,75.0,60.0,40.0,False,,221.07338448187124,[],"[768, 432]",ColorTask,134.0,95.0,,,HRV,HRV_0071,2022-11-30 18:05:02
,wl-rdm,213,697088,0.0-8.95-0.95,1.0,213.0,,,,,,,[],,,,,,56.4,0.0,i,1.0,False,1547.6000000014901,93.0,60.0,40.0,False,,375.2446618960961,[],"[768, 432]",ColorTask,133.0,96.0,,,HRV,HRV_0071,2022-11-30 18:05:02
,wl-rdm,214,699872,0.0-8.96-0.96,1.0,214.0,,,,,,,[],,,,,,73.6,0.0,u,0.0,True,1362.300000000745,82.0,60.0,40.0,False,,359.6589969573514,[],"[768, 432]",ColorTask,134.0,97.0,,,HRV,HRV_0071,2022-11-30 18:05:02
,wl-rdm,215,703090,0.0-8.97-0.97,1.0,215.0,,,,,,,[],,,,,,53.2,1.0,i,1.0,True,1812.8999999985099,109.0,60.0,40.0,False,,320.7638980045021,[],"[768, 432]",ColorTask,135.0,98.0,,,HRV,HRV_0071,2022-11-30 18:05:02
,wl-rdm,216,706258,0.0-8.98-0.98,1.0,216.0,,,,,,,[],,,,,,73.6,1.0,i,1.0,True,1774.7999999988824,107.0,60.0,40.0,False,,304.58319539058806,[],"[768, 432]",ColorTask,136.0,99.0,,,HRV,HRV_0071,2022-11-30 18:05:02
,wl-rdm,217,710077,0.0-8.99-0.99,1.0,217.0,,,,,,,[],,,,,,56.4,1.0,u,0.0,False,2418.5,146.0,60.0,40.0,False,,327.16047708195424,[],"[768, 432]",ColorTask,135.0,100.0,,,HRV,HRV_0071,2022-11-30 18:05:02
,wl-rdm,218,712561,0.0-8.100-0.100,1.0,218.0,,,,,,,[],,,,,,87.9,1.0,i,1.0,True,1052.300000000745,64.0,60.0,40.0,False,,344.5734234587744,[],"[768, 432]",ColorTask,136.0,101.0,,,HRV,HRV_0071,2022-11-30 18:05:02
,wl-rdm,219,715678,0.0-8.101-0.101,1.0,219.0,,,,,,,[],,,,,,87.9,1.0,i,1.0,True,1850.5,111.0,60.0,40.0,False,,204.84845810147996,[],"[768, 432]",ColorTask,137.0,102.0,,,HRV,HRV_0071,2022-11-30 18:05:02
,wl-rdm,220,718929,0.0-8.102-0.102,1.0,220.0,,,,,,,[],,,,,,56.4,1.0,i,1.0,True,1952.3999999985099,118.0,60.0,40.0,False,,212.75446733020274,[],"[768, 432]",ColorTask,138.0,103.0,,,HRV,HRV_0071,2022-11-30 18:05:02
,wl-rdm,221,722248,0.0-8.103-0.103,1.0,221.0,,,,,,,[],,,,,,62.5,0.0,u,0.0,True,1853.5999999996275,112.0,60.0,40.0,False,,370.2975614442953,[],"[768, 432]",ColorTask,139.0,104.0,,,HRV,HRV_0071,2022-11-30 18:05:02
,wl-rdm,222,726416,0.0-8.104-0.104,1.0,222.0,,,,,,,[],,,,,,56.4,1.0,i,1.0,True,2708.89999999851,163.0,60.0,40.0,False,,394.53563030541034,[],"[768, 432]",ColorTask,140.0,105.0,,,HRV,HRV_0071,2022-11-30 18:05:02
,wl-rdm,223,730400,0.0-8.105-0.105,1.0,223.0,,,,,,,[],,,,,,50.0,0.0,i,1.0,False,2626.10000000149,158.0,60.0,40.0,False,,286.79695865353034,[],"[768, 432]",ColorTask,139.0,106.0,,,HRV,HRV_0071,2022-11-30 18:05:02
,wl-rdm,224,733718,0.0-8.106-0.106,1.0,224.0,,,,,,,[],,,,,,50.0,0.0,i,1.0,False,1978.5,119.0,60.0,40.0,False,,256.9668519964256,[],"[768, 432]",ColorTask,138.0,107.0,,,HRV,HRV_0071,2022-11-30 18:05:02
,wl-rdm,225,736252,0.0-8.107-0.107,1.0,225.0,,,,,,,[],,,,,,62.5,0.0,u,0.0,True,1219.199999999255,74.0,60.0,40.0,False,,242.45816553435753,[],"[768, 432]",ColorTask,139.0,108.0,,,HRV,HRV_0071,2022-11-30 18:05:02
,wl-html-button-response,226,739654,0.0-9.0-0.0,,,,,,,,,,3399.39999999851,,0,,,,,,,,,,,,,,,,,,,,<h3>End of this session. Thank you!</h3><br>,['Close window'],HRV,HRV_0071,2022-11-30 18:05:02
