trialN,stimuli,trialStartTime,trialStartTime_UNIX,stimulus1,stimulus2,stimulus1Bid,stimulus2Bid,delta,selected,rt,rt_UNIX,rt_perfnow,receivedResponse,rsp,trialEndTime,trialDuration,trialEndTime_UNIX,trialDuration_UNIX,exp,subjectId,date
0,"[{'imgObject': {}, 'id': 'fried eggs', 'src': '/static/foodstim60/fried eggs.jpg', 'key': 'u', 'origWidth': 410, 'origHeight': 410, 'width': 410, 'height': 410, 'widthPercent': 0.45, 'rescaleHeight': False, 'trialN': 0, 'loaded': True, 'loadedTime': 2180.2999999523163, 'positionName': 'LEFT', 'positionCoords': [511.6, 395], 'bid': 1.12}, {'imgObject': {}, 'id': 'bagel plain', 'src': '/static/foodstim60/bagel plain.jpg', 'key': 'i', 'origWidth': 410, 'origHeight': 410, 'width': 410, 'height': 410, 'widthPercent': 0.45, 'rescaleHeight': False, 'trialN': 0, 'loaded': True, 'loadedTime': 2193.5999999046326, 'positionName': 'RIGHT', 'positionCoords': [998.4, 395], 'bid': 5.98}]",2694.5,1669835760379,fried eggs,bagel plain,1.12,5.98,4.86,bagel plain,2456.7000000476837,2458,2457.5999999046326,True,i,5656.700000047684,2962.2000000476837,1669835763341,2962,HRV,HRV_0250,2022-11-30 19:20:26
1,"[{'imgObject': {}, 'id': 'olives', 'src': '/static/foodstim60/olives.jpg', 'key': 'u', 'origWidth': 410, 'origHeight': 410, 'width': 410, 'height': 410, 'widthPercent': 0.45, 'rescaleHeight': False, 'trialN': 1, 'loaded': True, 'loadedTime': 2195.0999999046326, 'positionName': 'LEFT', 'positionCoords': [511.6, 395], 'bid': 0.11}, {'imgObject': {}, 'id': 'seaweed', 'src': '/static/foodstim60/seaweed.jpg', 'key': 'i', 'origWidth': 410, 'origHeight': 410, 'width': 410, 'height': 410, 'widthPercent': 0.45, 'rescaleHeight': False, 'trialN': 1, 'loaded': True, 'loadedTime': 2197.7000000476837, 'positionName': 'RIGHT', 'positionCoords': [998.4, 395], 'bid': 0.07}]",5657.0,1669835763342,olives,seaweed,0.11,0.07,-0.039999999999999994,seaweed,725.7999999523163,726,726.2000000476837,True,i,6895.0,1238.0,1669835764580,1238,HRV,HRV_0250,2022-11-30 19:20:26
2,"[{'imgObject': {}, 'id': 'yogurt no spoon', 'src': '/static/foodstim60/yogurt no spoon.jpg', 'key': 'u', 'origWidth': 411, 'origHeight': 410, 'width': 411, 'height': 410, 'widthPercent': 0.45, 'rescaleHeight': False, 'trialN': 2, 'loaded': True, 'loadedTime': 2200.0999999046326, 'positionName': 'LEFT', 'positionCoords': [510.6, 395], 'bid': 5.7}, {'imgObject': {}, 'id': 'cherries', 'src': '/static/foodstim60/cherries.jpg', 'key': 'i', 'origWidth': 410, 'origHeight': 411, 'width': 410, 'height': 411, 'widthPercent': 0.45, 'rescaleHeight': False, 'trialN': 2, 'loaded': True, 'loadedTime': 2203, 'positionName': 'RIGHT', 'positionCoords': [998.4, 394.5], 'bid': 6.38}]",6895.099999904633,1669835764580,yogurt no spoon,cherries,5.7,6.38,0.6799999999999997,yogurt no spoon,991.7000000476837,992,992.2000000476837,True,u,8393.899999856949,1498.7999999523163,1669835766079,1499,HRV,HRV_0250,2022-11-30 19:20:26
3,"[{'imgObject': {}, 'id': 'hotdog w must', 'src': '/static/foodstim60/hotdog w must.jpg', 'key': 'u', 'origWidth': 409, 'origHeight': 409, 'width': 409, 'height': 409, 'widthPercent': 0.45, 'rescaleHeight': False, 'trialN': 3, 'loaded': True, 'loadedTime': 2235.5, 'positionName': 'LEFT', 'positionCoords': [512.6, 395.5], 'bid': 5.95}, {'imgObject': {}, 'id': 'raisin bran w milk', 'src': '/static/foodstim60/raisin bran w milk.jpg', 'key': 'i', 'origWidth': 411, 'origHeight': 411, 'width': 411, 'height': 411, 'widthPercent': 0.45, 'rescaleHeight': False, 'trialN': 3, 'loaded': True, 'loadedTime': 2236.7000000476837, 'positionName': 'RIGHT', 'positionCoords': [998.4, 394.5], 'bid': 1.01}]",8394.099999904633,1669835766079,hotdog w must,raisin bran w milk,5.95,1.01,-4.94,hotdog w must,964.6000001430511,965,965.0,True,u,9878.200000047684,1484.1000001430511,1669835767563,1484,HRV,HRV_0250,2022-11-30 19:20:26
4,"[{'imgObject': {}, 'id': 'omelette', 'src': '/static/foodstim60/omelette.jpg', 'key': 'u', 'origWidth': 410, 'origHeight': 409, 'width': 410, 'height': 409, 'widthPercent': 0.45, 'rescaleHeight': False, 'trialN': 4, 'loaded': True, 'loadedTime': 2264.0999999046326, 'positionName': 'LEFT', 'positionCoords': [511.6, 395.5], 'bid': 6.26}, {'imgObject': {}, 'id': 'apple slices', 'src': '/static/foodstim60/apple slices.jpg', 'key': 'i', 'origWidth': 409, 'origHeight': 410, 'width': 409, 'height': 410, 'widthPercent': 0.45, 'rescaleHeight': False, 'trialN': 4, 'loaded': True, 'loadedTime': 2299.7000000476837, 'positionName': 'RIGHT', 'positionCoords': [998.4, 395], 'bid': 7.51}]",9878.299999952316,1669835767563,omelette,apple slices,6.26,7.51,1.25,omelette,1032.7999999523163,1033,1033.0999999046326,True,u,11425.399999856949,1547.0999999046326,1669835769110,1547,HRV,HRV_0250,2022-11-30 19:20:26
5,"[{'imgObject': {}, 'id': 'blackbeanswithrice', 'src': '/static/foodstim60/blackbeanswithrice.jpg', 'key': 'u', 'origWidth': 410, 'origHeight': 410, 'width': 410, 'height': 410, 'widthPercent': 0.45, 'rescaleHeight': False, 'trialN': 5, 'loaded': True, 'loadedTime': 2311, 'positionName': 'LEFT', 'positionCoords': [511.6, 395], 'bid': 9.26}, {'imgObject': {}, 'id': 'tacos', 'src': '/static/foodstim60/tacos.jpg', 'key': 'i', 'origWidth': 411, 'origHeight': 411, 'width': 411, 'height': 411, 'widthPercent': 0.45, 'rescaleHeight': False, 'trialN': 5, 'loaded': True, 'loadedTime': 2357.7999999523163, 'positionName': 'RIGHT', 'positionCoords': [998.4, 394.5], 'bid': 9.86}]",11425.5,1669835769110,blackbeanswithrice,tacos,9.26,9.86,0.5999999999999996,tacos,605.3999998569489,606,605.7999999523163,True,i,12536.599999904633,1111.0999999046326,1669835770221,1111,HRV,HRV_0250,2022-11-30 19:20:26
6,"[{'imgObject': {}, 'id': 'rigatoni and sauce', 'src': '/static/foodstim60/rigatoni and sauce.jpg', 'key': 'u', 'origWidth': 410, 'origHeight': 411, 'width': 410, 'height': 411, 'widthPercent': 0.45, 'rescaleHeight': False, 'trialN': 6, 'loaded': True, 'loadedTime': 2371.7000000476837, 'positionName': 'LEFT', 'positionCoords': [511.6, 394.5], 'bid': 9.36}, {'imgObject': {}, 'id': 'bagel and cc', 'src': '/static/foodstim60/bagel and cc.jpg', 'key': 'i', 'origWidth': 410, 'origHeight': 410, 'width': 410, 'height': 410, 'widthPercent': 0.45, 'rescaleHeight': False, 'trialN': 6, 'loaded': True, 'loadedTime': 2382.2999999523163, 'positionName': 'RIGHT', 'positionCoords': [998.4, 395], 'bid': 8.59}]",12536.799999952316,1669835770221,rigatoni and sauce,bagel and cc,9.36,8.59,-0.7699999999999996,bagel and cc,1061.9000000953674,1063,1062.2000000476837,True,i,14115.299999952316,1578.5,1669835771800,1579,HRV,HRV_0250,2022-11-30 19:20:26
7,"[{'imgObject': {}, 'id': 'roastedpotatoes', 'src': '/static/foodstim60/roastedpotatoes.jpg', 'key': 'u', 'origWidth': 409, 'origHeight': 410, 'width': 409, 'height': 410, 'widthPercent': 0.45, 'rescaleHeight': False, 'trialN': 7, 'loaded': True, 'loadedTime': 2385.5999999046326, 'positionName': 'LEFT', 'positionCoords': [512.6, 395], 'bid': 7.07}, {'imgObject': {}, 'id': 'grilled chicken strips', 'src': '/static/foodstim60/grilled chicken strips.jpg', 'key': 'i', 'origWidth': 410, 'origHeight': 411, 'width': 410, 'height': 411, 'widthPercent': 0.45, 'rescaleHeight': False, 'trialN': 7, 'loaded': True, 'loadedTime': 2399.899999856949, 'positionName': 'RIGHT', 'positionCoords': [998.4, 394.5], 'bid': 6.9}]",14115.599999904633,1669835771800,roastedpotatoes,grilled chicken strips,7.07,6.9,-0.16999999999999993,grilled chicken strips,1035.0,1035,1035.2999999523163,True,i,15659.299999952316,1543.7000000476837,1669835773344,1544,HRV,HRV_0250,2022-11-30 19:20:26
8,"[{'imgObject': {}, 'id': 'bagel and cc', 'src': '/static/foodstim60/bagel and cc.jpg', 'key': 'u', 'origWidth': 410, 'origHeight': 410, 'width': 410, 'height': 410, 'widthPercent': 0.45, 'rescaleHeight': False, 'trialN': 8, 'loaded': True, 'loadedTime': 2379.7000000476837, 'positionName': 'LEFT', 'positionCoords': [511.6, 395], 'bid': 8.59}, {'imgObject': {}, 'id': 'shreddedwheatwithmilk', 'src': '/static/foodstim60/shreddedwheatwithmilk.jpg', 'key': 'i', 'origWidth': 410, 'origHeight': 410, 'width': 410, 'height': 410, 'widthPercent': 0.45, 'rescaleHeight': False, 'trialN': 8, 'loaded': True, 'loadedTime': 2204.399999856949, 'positionName': 'RIGHT', 'positionCoords': [998.4, 395], 'bid': 1.93}]",15659.399999856949,1669835773344,bagel and cc,shreddedwheatwithmilk,8.59,1.93,-6.66,bagel and cc,883.4000000953674,884,883.8000001907349,True,u,17048.200000047684,1388.8000001907349,1669835774733,1389,HRV,HRV_0250,2022-11-30 19:20:26
9,"[{'imgObject': {}, 'id': 'blackbeanswithrice', 'src': '/static/foodstim60/blackbeanswithrice.jpg', 'key': 'u', 'origWidth': 410, 'origHeight': 410, 'width': 410, 'height': 410, 'widthPercent': 0.45, 'rescaleHeight': False, 'trialN': 9, 'loaded': True, 'loadedTime': 2320.7000000476837, 'positionName': 'LEFT', 'positionCoords': [511.6, 395], 'bid': 9.26}, {'imgObject': {}, 'id': 'eggsalad', 'src': '/static/foodstim60/eggsalad.jpg', 'key': 'i', 'origWidth': 410, 'origHeight': 409, 'width': 410, 'height': 409, 'widthPercent': 0.45, 'rescaleHeight': False, 'trialN': 9, 'loaded': True, 'loadedTime': 2345.2000000476837, 'positionName': 'RIGHT', 'positionCoords': [998.4, 395.5], 'bid': 5.65}]",17048.200000047684,1669835774733,blackbeanswithrice,eggsalad,9.26,5.65,-3.6099999999999994,blackbeanswithrice,1062.6999998092651,1063,1063.0999999046326,True,u,18627.799999952316,1579.5999999046326,1669835776312,1579,HRV,HRV_0250,2022-11-30 19:20:26
10,"[{'imgObject': {}, 'id': 'raisin bran w milk', 'src': '/static/foodstim60/raisin bran w milk.jpg', 'key': 'u', 'origWidth': 411, 'origHeight': 411, 'width': 411, 'height': 411, 'widthPercent': 0.45, 'rescaleHeight': False, 'trialN': 10, 'loaded': True, 'loadedTime': 2235.7000000476837, 'positionName': 'LEFT', 'positionCoords': [510.6, 394.5], 'bid': 1.01}, {'imgObject': {}, 'id': 'olives', 'src': '/static/foodstim60/olives.jpg', 'key': 'i', 'origWidth': 410, 'origHeight': 410, 'width': 410, 'height': 410, 'widthPercent': 0.45, 'rescaleHeight': False, 'trialN': 10, 'loaded': True, 'loadedTime': 2195.2999999523163, 'positionName': 'RIGHT', 'positionCoords': [998.4, 395], 'bid': 0.11}]",18627.89999985695,1669835776313,raisin bran w milk,olives,1.01,0.11,-0.9,raisin bran w milk,794.9000000953674,795,795.3000001907349,True,u,19940.39999985695,1312.5,1669835777625,1312,HRV,HRV_0250,2022-11-30 19:20:26
11,"[{'imgObject': {}, 'id': 'sweetpotato', 'src': '/static/foodstim60/sweetpotato.jpg', 'key': 'u', 'origWidth': 410, 'origHeight': 410, 'width': 410, 'height': 410, 'widthPercent': 0.45, 'rescaleHeight': False, 'trialN': 11, 'loaded': True, 'loadedTime': 2385.7999999523163, 'positionName': 'LEFT', 'positionCoords': [511.6, 395], 'bid': 0.23}, {'imgObject': {}, 'id': 'luckycharms', 'src': '/static/foodstim60/luckycharms.jpg', 'key': 'i', 'origWidth': 410, 'origHeight': 409, 'width': 410, 'height': 409, 'widthPercent': 0.45, 'rescaleHeight': False, 'trialN': 11, 'loaded': True, 'loadedTime': 2421.2000000476837, 'positionName': 'RIGHT', 'positionCoords': [998.4, 395.5], 'bid': 3.22}]",19940.599999904633,1669835777625,sweetpotato,luckycharms,0.23,3.22,2.99,luckycharms,1114.4000000953674,1115,1114.7000000476837,True,i,21559.700000047684,1619.1000001430511,1669835779244,1619,HRV,HRV_0250,2022-11-30 19:20:26
12,"[{'imgObject': {}, 'id': 'froot loops w milk', 'src': '/static/foodstim60/froot loops w milk.jpg', 'key': 'u', 'origWidth': 410, 'origHeight': 410, 'width': 410, 'height': 410, 'widthPercent': 0.45, 'rescaleHeight': False, 'trialN': 12, 'loaded': True, 'loadedTime': 2435.0999999046326, 'positionName': 'LEFT', 'positionCoords': [511.6, 395], 'bid': 6.86}, {'imgObject': {}, 'id': 'roastedpotatoes', 'src': '/static/foodstim60/roastedpotatoes.jpg', 'key': 'i', 'origWidth': 409, 'origHeight': 410, 'width': 409, 'height': 410, 'widthPercent': 0.45, 'rescaleHeight': False, 'trialN': 12, 'loaded': True, 'loadedTime': 2385.0999999046326, 'positionName': 'RIGHT', 'positionCoords': [998.4, 395], 'bid': 7.07}]",21559.799999952316,1669835779244,froot loops w milk,roastedpotatoes,6.86,7.07,0.20999999999999996,froot loops w milk,1319.2999999523163,1320,1319.9000000953674,True,u,23383.700000047684,1823.9000000953674,1669835781068,1824,HRV,HRV_0250,2022-11-30 19:20:26
13,"[{'imgObject': {}, 'id': 'shreddedwheatwithmilk', 'src': '/static/foodstim60/shreddedwheatwithmilk.jpg', 'key': 'u', 'origWidth': 410, 'origHeight': 410, 'width': 410, 'height': 410, 'widthPercent': 0.45, 'rescaleHeight': False, 'trialN': 13, 'loaded': True, 'loadedTime': 2204.0999999046326, 'positionName': 'LEFT', 'positionCoords': [511.6, 395], 'bid': 1.93}, {'imgObject': {}, 'id': 'avocado', 'src': '/static/foodstim60/avocado.jpg', 'key': 'i', 'origWidth': 409, 'origHeight': 409, 'width': 409, 'height': 409, 'widthPercent': 0.45, 'rescaleHeight': False, 'trialN': 13, 'loaded': True, 'loadedTime': 2435.399999856949, 'positionName': 'RIGHT', 'positionCoords': [998.4, 395.5], 'bid': 1.81}]",23383.799999952316,1669835781068,shreddedwheatwithmilk,avocado,1.93,1.81,-0.11999999999999988,shreddedwheatwithmilk,807.0,808,807.2999999523163,True,u,24706.89999985695,1323.0999999046326,1669835782391,1323,HRV,HRV_0250,2022-11-30 19:20:26
14,"[{'imgObject': {}, 'id': 'edamame', 'src': '/static/foodstim60/edamame.jpg', 'key': 'u', 'origWidth': 409, 'origHeight': 410, 'width': 409, 'height': 410, 'widthPercent': 0.45, 'rescaleHeight': False, 'trialN': 14, 'loaded': True, 'loadedTime': 2456.399999856949, 'positionName': 'LEFT', 'positionCoords': [512.6, 395], 'bid': 6.36}, {'imgObject': {}, 'id': 'popsicles', 'src': '/static/foodstim60/popsicles.jpg', 'key': 'i', 'origWidth': 410, 'origHeight': 410, 'width': 410, 'height': 410, 'widthPercent': 0.45, 'rescaleHeight': False, 'trialN': 14, 'loaded': True, 'loadedTime': 2471.899999856949, 'positionName': 'RIGHT', 'positionCoords': [998.4, 395], 'bid': 6.41}]",24707.0,1669835782392,edamame,popsicles,6.36,6.41,0.04999999999999982,edamame,987.5999999046326,988,988.0999999046326,True,u,26206.099999904633,1499.0999999046326,1669835783891,1499,HRV,HRV_0250,2022-11-30 19:20:26
15,"[{'imgObject': {}, 'id': 'baked potato', 'src': '/static/foodstim60/baked potato.jpg', 'key': 'u', 'origWidth': 409, 'origHeight': 410, 'width': 409, 'height': 410, 'widthPercent': 0.45, 'rescaleHeight': False, 'trialN': 15, 'loaded': True, 'loadedTime': 2475.5, 'positionName': 'LEFT', 'positionCoords': [512.6, 395], 'bid': 6.13}, {'imgObject': {}, 'id': 'omelette', 'src': '/static/foodstim60/omelette.jpg', 'key': 'i', 'origWidth': 410, 'origHeight': 409, 'width': 410, 'height': 409, 'widthPercent': 0.45, 'rescaleHeight': False, 'trialN': 15, 'loaded': True, 'loadedTime': 2288, 'positionName': 'RIGHT', 'positionCoords': [998.4, 395.5], 'bid': 6.26}]",26206.200000047684,1669835783891,baked potato,omelette,6.13,6.26,0.1299999999999999,omelette,912.3999998569489,913,912.6999998092651,True,i,27624.099999904633,1417.8999998569489,1669835785309,1418,HRV,HRV_0250,2022-11-30 19:20:26
16,"[{'imgObject': {}, 'id': 'chicken nuggets2', 'src': '/static/foodstim60/chicken nuggets2.jpg', 'key': 'u', 'origWidth': 410, 'origHeight': 409, 'width': 410, 'height': 409, 'widthPercent': 0.45, 'rescaleHeight': False, 'trialN': 16, 'loaded': True, 'loadedTime': 2478.5, 'positionName': 'LEFT', 'positionCoords': [511.6, 395.5], 'bid': 9.11}, {'imgObject': {}, 'id': 'mac & cheese', 'src': '/static/foodstim60/mac & cheese.jpg', 'key': 'i', 'origWidth': 410, 'origHeight': 410, 'width': 410, 'height': 410, 'widthPercent': 0.45, 'rescaleHeight': False, 'trialN': 16, 'loaded': True, 'loadedTime': 2482.2000000476837, 'positionName': 'RIGHT', 'positionCoords': [998.4, 395], 'bid': 9.05}]",27624.299999952316,1669835785309,chicken nuggets2,mac & cheese,9.11,9.05,-0.05999999999999872,mac & cheese,1174.5,1175,1174.9000000953674,True,i,29304.39999985695,1680.0999999046326,1669835786989,1680,HRV,HRV_0250,2022-11-30 19:20:26
17,"[{'imgObject': {}, 'id': 'ice cream sundae 002', 'src': '/static/foodstim60/ice cream sundae 002.jpg', 'key': 'u', 'origWidth': 409, 'origHeight': 409, 'width': 409, 'height': 409, 'widthPercent': 0.45, 'rescaleHeight': False, 'trialN': 17, 'loaded': True, 'loadedTime': 2506.5999999046326, 'positionName': 'LEFT', 'positionCoords': [512.6, 395.5], 'bid': 9.46}, {'imgObject': {}, 'id': 'apple slices', 'src': '/static/foodstim60/apple slices.jpg', 'key': 'i', 'origWidth': 409, 'origHeight': 410, 'width': 409, 'height': 410, 'widthPercent': 0.45, 'rescaleHeight': False, 'trialN': 17, 'loaded': True, 'loadedTime': 2299.2999999523163, 'positionName': 'RIGHT', 'positionCoords': [998.4, 395], 'bid': 7.51}]",29304.5,1669835786989,ice cream sundae 002,apple slices,9.46,7.51,-1.950000000000001,ice cream sundae 002,918.2000000476837,919,918.5,True,u,30737.099999904633,1432.5999999046326,1669835788422,1433,HRV,HRV_0250,2022-11-30 19:20:26
18,"[{'imgObject': {}, 'id': 'fruitsalad', 'src': '/static/foodstim60/fruitsalad.jpg', 'key': 'u', 'origWidth': 410, 'origHeight': 410, 'width': 410, 'height': 410, 'widthPercent': 0.45, 'rescaleHeight': False, 'trialN': 18, 'loaded': True, 'loadedTime': 2523.7000000476837, 'positionName': 'LEFT', 'positionCoords': [511.6, 395], 'bid': 8.33}, {'imgObject': {}, 'id': 'burger', 'src': '/static/foodstim60/burger.jpg', 'key': 'i', 'origWidth': 409, 'origHeight': 409, 'width': 409, 'height': 409, 'widthPercent': 0.45, 'rescaleHeight': False, 'trialN': 18, 'loaded': True, 'loadedTime': 2538.2000000476837, 'positionName': 'RIGHT', 'positionCoords': [998.4, 395.5], 'bid': 9.35}]",30737.299999952316,1669835788422,fruitsalad,burger,8.33,9.35,1.0199999999999996,burger,925.7000000476837,926,926.0,True,i,32175.099999904633,1437.7999999523163,1669835789860,1438,HRV,HRV_0250,2022-11-30 19:20:26
19,"[{'imgObject': {}, 'id': 'avocado', 'src': '/static/foodstim60/avocado.jpg', 'key': 'u', 'origWidth': 409, 'origHeight': 409, 'width': 409, 'height': 409, 'widthPercent': 0.45, 'rescaleHeight': False, 'trialN': 19, 'loaded': True, 'loadedTime': 2447, 'positionName': 'LEFT', 'positionCoords': [512.6, 395.5], 'bid': 1.81}, {'imgObject': {}, 'id': 'fruitsalad', 'src': '/static/foodstim60/fruitsalad.jpg', 'key': 'i', 'origWidth': 410, 'origHeight': 410, 'width': 410, 'height': 410, 'widthPercent': 0.45, 'rescaleHeight': False, 'trialN': 19, 'loaded': True, 'loadedTime': 2512.2999999523163, 'positionName': 'RIGHT', 'positionCoords': [998.4, 395], 'bid': 8.33}]",32175.200000047684,1669835789860,avocado,fruitsalad,1.81,8.33,6.52,fruitsalad,959.5999999046326,960,960.0999999046326,True,i,33645.39999985695,1470.1999998092651,1669835791330,1470,HRV,HRV_0250,2022-11-30 19:20:26
20,"[{'imgObject': {}, 'id': 'hashbrowns', 'src': '/static/foodstim60/hashbrowns.jpg', 'key': 'u', 'origWidth': 411, 'origHeight': 410, 'width': 411, 'height': 410, 'widthPercent': 0.45, 'rescaleHeight': False, 'trialN': 20, 'loaded': True, 'loadedTime': 2548.399999856949, 'positionName': 'LEFT', 'positionCoords': [510.6, 395], 'bid': 1.75}, {'imgObject': {}, 'id': 'shreddedwheatwithmilk', 'src': '/static/foodstim60/shreddedwheatwithmilk.jpg', 'key': 'i', 'origWidth': 410, 'origHeight': 410, 'width': 410, 'height': 410, 'widthPercent': 0.45, 'rescaleHeight': False, 'trialN': 20, 'loaded': True, 'loadedTime': 2204.2000000476837, 'positionName': 'RIGHT', 'positionCoords': [998.4, 395], 'bid': 1.93}]",33645.5,1669835791330,hashbrowns,shreddedwheatwithmilk,1.75,1.93,0.17999999999999994,shreddedwheatwithmilk,1041.8999998569489,1042,1042.2999999523163,True,i,35192.200000047684,1546.7000000476837,1669835792877,1547,HRV,HRV_0250,2022-11-30 19:20:26
21,"[{'imgObject': {}, 'id': 'cantaloupe', 'src': '/static/foodstim60/cantaloupe.jpg', 'key': 'u', 'origWidth': 409, 'origHeight': 409, 'width': 409, 'height': 409, 'widthPercent': 0.45, 'rescaleHeight': False, 'trialN': 21, 'loaded': True, 'loadedTime': 2560, 'positionName': 'LEFT', 'positionCoords': [512.6, 395.5], 'bid': 9.84}, {'imgObject': {}, 'id': 'Grapes', 'src': '/static/foodstim60/Grapes.jpg', 'key': 'i', 'origWidth': 411, 'origHeight': 411, 'width': 411, 'height': 411, 'widthPercent': 0.45, 'rescaleHeight': False, 'trialN': 21, 'loaded': True, 'loadedTime': 2570.899999856949, 'positionName': 'RIGHT', 'positionCoords': [998.4, 394.5], 'bid': 8.950000000000001}]",35192.299999952316,1669835792877,cantaloupe,Grapes,9.84,8.950000000000001,-0.8899999999999988,cantaloupe,1078.4000000953674,1079,1078.7000000476837,True,u,36775.799999952316,1583.5,1669835794460,1583,HRV,HRV_0250,2022-11-30 19:20:26
22,"[{'imgObject': {}, 'id': 'fried eggs', 'src': '/static/foodstim60/fried eggs.jpg', 'key': 'u', 'origWidth': 410, 'origHeight': 410, 'width': 410, 'height': 410, 'widthPercent': 0.45, 'rescaleHeight': False, 'trialN': 22, 'loaded': True, 'loadedTime': 2177.7999999523163, 'positionName': 'LEFT', 'positionCoords': [511.6, 395], 'bid': 1.12}, {'imgObject': {}, 'id': 'hashbrowns', 'src': '/static/foodstim60/hashbrowns.jpg', 'key': 'i', 'origWidth': 411, 'origHeight': 410, 'width': 411, 'height': 410, 'widthPercent': 0.45, 'rescaleHeight': False, 'trialN': 22, 'loaded': True, 'loadedTime': 2538.5999999046326, 'positionName': 'RIGHT', 'positionCoords': [998.4, 395], 'bid': 1.75}]",36775.799999952316,1669835794460,fried eggs,hashbrowns,1.12,1.75,0.6299999999999999,fried eggs,919.0,920,919.4000000953674,True,u,38213.39999985695,1437.5999999046326,1669835795898,1438,HRV,HRV_0250,2022-11-30 19:20:26
23,"[{'imgObject': {}, 'id': 'raspberries', 'src': '/static/foodstim60/raspberries.jpg', 'key': 'u', 'origWidth': 411, 'origHeight': 411, 'width': 411, 'height': 411, 'widthPercent': 0.45, 'rescaleHeight': False, 'trialN': 23, 'loaded': True, 'loadedTime': 2571.7999999523163, 'positionName': 'LEFT', 'positionCoords': [510.6, 394.5], 'bid': 3.6}, {'imgObject': {}, 'id': 'cheerios', 'src': '/static/foodstim60/cheerios.jpg', 'key': 'i', 'origWidth': 409, 'origHeight': 410, 'width': 409, 'height': 410, 'widthPercent': 0.45, 'rescaleHeight': False, 'trialN': 23, 'loaded': True, 'loadedTime': 2592, 'positionName': 'RIGHT', 'positionCoords': [998.4, 395], 'bid': 3.65}]",38213.39999985695,1669835795898,raspberries,cheerios,3.6,3.65,0.04999999999999982,cheerios,1145.3000001907349,1146,1145.8000001907349,True,i,39878.200000047684,1664.8000001907349,1669835797563,1665,HRV,HRV_0250,2022-11-30 19:20:26
24,"[{'imgObject': {}, 'id': 'sweetpotato', 'src': '/static/foodstim60/sweetpotato.jpg', 'key': 'u', 'origWidth': 410, 'origHeight': 410, 'width': 410, 'height': 410, 'widthPercent': 0.45, 'rescaleHeight': False, 'trialN': 24, 'loaded': True, 'loadedTime': 2389.2999999523163, 'positionName': 'LEFT', 'positionCoords': [511.6, 395], 'bid': 0.23}, {'imgObject': {}, 'id': 'froot loops w milk', 'src': '/static/foodstim60/froot loops w milk.jpg', 'key': 'i', 'origWidth': 410, 'origHeight': 410, 'width': 410, 'height': 410, 'widthPercent': 0.45, 'rescaleHeight': False, 'trialN': 24, 'loaded': True, 'loadedTime': 2434.899999856949, 'positionName': 'RIGHT', 'positionCoords': [998.4, 395], 'bid': 6.86}]",39878.299999952316,1669835797563,sweetpotato,froot loops w milk,0.23,6.86,6.63,froot loops w milk,824.5,825,825.0,True,i,41207.89999985695,1329.5999999046326,1669835798893,1330,HRV,HRV_0250,2022-11-30 19:20:26
25,"[{'imgObject': {}, 'id': 'steak', 'src': '/static/foodstim60/steak.jpg', 'key': 'u', 'origWidth': 410, 'origHeight': 410, 'width': 410, 'height': 410, 'widthPercent': 0.45, 'rescaleHeight': False, 'trialN': 25, 'loaded': True, 'loadedTime': 2593.2000000476837, 'positionName': 'LEFT', 'positionCoords': [511.6, 395], 'bid': 9.66}, {'imgObject': {}, 'id': 'baked potato', 'src': '/static/foodstim60/baked potato.jpg', 'key': 'i', 'origWidth': 409, 'origHeight': 410, 'width': 409, 'height': 410, 'widthPercent': 0.45, 'rescaleHeight': False, 'trialN': 25, 'loaded': True, 'loadedTime': 2475.5999999046326, 'positionName': 'RIGHT', 'positionCoords': [998.4, 395], 'bid': 6.13}]",41208.0,1669835798893,steak,baked potato,9.66,6.13,-3.5300000000000002,steak,886.8999998569489,887,887.3999998569489,True,u,42597.0,1389.0,1669835800282,1389,HRV,HRV_0250,2022-11-30 19:20:26
26,"[{'imgObject': {}, 'id': 'popsicles', 'src': '/static/foodstim60/popsicles.jpg', 'key': 'u', 'origWidth': 410, 'origHeight': 410, 'width': 410, 'height': 410, 'widthPercent': 0.45, 'rescaleHeight': False, 'trialN': 26, 'loaded': True, 'loadedTime': 2472.7000000476837, 'positionName': 'LEFT', 'positionCoords': [511.6, 395], 'bid': 6.41}, {'imgObject': {}, 'id': 'cherries', 'src': '/static/foodstim60/cherries.jpg', 'key': 'i', 'origWidth': 410, 'origHeight': 411, 'width': 410, 'height': 411, 'widthPercent': 0.45, 'rescaleHeight': False, 'trialN': 26, 'loaded': True, 'loadedTime': 2202.399999856949, 'positionName': 'RIGHT', 'positionCoords': [998.4, 394.5], 'bid': 6.38}]",42597.200000047684,1669835800282,popsicles,cherries,6.41,6.38,-0.03000000000000025,cherries,905.5,906,905.7999999523163,True,i,44018.799999952316,1421.5999999046326,1669835801703,1421,HRV,HRV_0250,2022-11-30 19:20:26
27,"[{'imgObject': {}, 'id': 'mango', 'src': '/static/foodstim60/mango.jpg', 'key': 'u', 'origWidth': 411, 'origHeight': 411, 'width': 411, 'height': 411, 'widthPercent': 0.45, 'rescaleHeight': False, 'trialN': 27, 'loaded': True, 'loadedTime': 2603.2000000476837, 'positionName': 'LEFT', 'positionCoords': [510.6, 394.5], 'bid': 6.34}, {'imgObject': {}, 'id': 'grilled chicken strips', 'src': '/static/foodstim60/grilled chicken strips.jpg', 'key': 'i', 'origWidth': 410, 'origHeight': 411, 'width': 410, 'height': 411, 'widthPercent': 0.45, 'rescaleHeight': False, 'trialN': 27, 'loaded': True, 'loadedTime': 2410.7999999523163, 'positionName': 'RIGHT', 'positionCoords': [998.4, 394.5], 'bid': 6.9}]",44018.89999985695,1669835801704,mango,grilled chicken strips,6.34,6.9,0.5600000000000005,grilled chicken strips,859.9000000953674,860,860.5,True,i,45393.700000047684,1374.8000001907349,1669835803078,1374,HRV,HRV_0250,2022-11-30 19:20:26
28,"[{'imgObject': {}, 'id': 'roastedpotatoes', 'src': '/static/foodstim60/roastedpotatoes.jpg', 'key': 'u', 'origWidth': 409, 'origHeight': 410, 'width': 409, 'height': 410, 'widthPercent': 0.45, 'rescaleHeight': False, 'trialN': 28, 'loaded': True, 'loadedTime': 2385.399999856949, 'positionName': 'LEFT', 'positionCoords': [512.6, 395], 'bid': 7.07}, {'imgObject': {}, 'id': 'edamame', 'src': '/static/foodstim60/edamame.jpg', 'key': 'i', 'origWidth': 409, 'origHeight': 410, 'width': 409, 'height': 410, 'widthPercent': 0.45, 'rescaleHeight': False, 'trialN': 28, 'loaded': True, 'loadedTime': 2468, 'positionName': 'RIGHT', 'positionCoords': [998.4, 395], 'bid': 6.36}]",45393.799999952316,1669835803078,roastedpotatoes,edamame,7.07,6.36,-0.71,edamame,1116.7999999523163,1118,1117.2000000476837,True,i,47020.09999990463,1626.2999999523163,1669835804705,1627,HRV,HRV_0250,2022-11-30 19:20:26
29,"[{'imgObject': {}, 'id': 'granola w milk', 'src': '/static/foodstim60/granola w milk.jpg', 'key': 'u', 'origWidth': 410, 'origHeight': 410, 'width': 410, 'height': 410, 'widthPercent': 0.45, 'rescaleHeight': False, 'trialN': 29, 'loaded': True, 'loadedTime': 2604.0999999046326, 'positionName': 'LEFT', 'positionCoords': [511.6, 395], 'bid': 0.87}, {'imgObject': {}, 'id': 'raisin bran w milk', 'src': '/static/foodstim60/raisin bran w milk.jpg', 'key': 'i', 'origWidth': 411, 'origHeight': 411, 'width': 411, 'height': 411, 'widthPercent': 0.45, 'rescaleHeight': False, 'trialN': 29, 'loaded': True, 'loadedTime': 2251.5999999046326, 'positionName': 'RIGHT', 'positionCoords': [998.4, 394.5], 'bid': 1.01}]",47020.09999990463,1669835804705,granola w milk,raisin bran w milk,0.87,1.01,0.14,granola w milk,754.7000000476837,755,755.0,True,u,48281.59999990463,1261.5,1669835805966,1261,HRV,HRV_0250,2022-11-30 19:20:26
30,"[{'imgObject': {}, 'id': 'seaweed', 'src': '/static/foodstim60/seaweed.jpg', 'key': 'u', 'origWidth': 410, 'origHeight': 410, 'width': 410, 'height': 410, 'widthPercent': 0.45, 'rescaleHeight': False, 'trialN': 30, 'loaded': True, 'loadedTime': 2195.5999999046326, 'positionName': 'LEFT', 'positionCoords': [511.6, 395], 'bid': 0.07}, {'imgObject': {}, 'id': 'sushi w_condiments', 'src': '/static/foodstim60/sushi w_condiments.jpg', 'key': 'i', 'origWidth': 410, 'origHeight': 410, 'width': 410, 'height': 410, 'widthPercent': 0.45, 'rescaleHeight': False, 'trialN': 30, 'loaded': True, 'loadedTime': 2617.0999999046326, 'positionName': 'RIGHT', 'positionCoords': [998.4, 395], 'bid': 0.19}]",48281.799999952316,1669835805966,seaweed,sushi w_condiments,0.07,0.19,0.12,sushi w_condiments,1189.0999999046326,1190,1189.4000000953674,True,i,49980.09999990463,1698.2999999523163,1669835807665,1699,HRV,HRV_0250,2022-11-30 19:20:26
31,"[{'imgObject': {}, 'id': 'lox', 'src': '/static/foodstim60/lox.jpg', 'key': 'u', 'origWidth': 410, 'origHeight': 411, 'width': 410, 'height': 411, 'widthPercent': 0.45, 'rescaleHeight': False, 'trialN': 31, 'loaded': True, 'loadedTime': 2617.7000000476837, 'positionName': 'LEFT', 'positionCoords': [511.6, 394.5], 'bid': 0.29}, {'imgObject': {}, 'id': 'salmon', 'src': '/static/foodstim60/salmon.jpg', 'key': 'i', 'origWidth': 410, 'origHeight': 409, 'width': 410, 'height': 409, 'widthPercent': 0.45, 'rescaleHeight': False, 'trialN': 31, 'loaded': True, 'loadedTime': 2620.0999999046326, 'positionName': 'RIGHT', 'positionCoords': [998.4, 395.5], 'bid': 0.25}]",49980.299999952316,1669835807665,lox,salmon,0.29,0.25,-0.03999999999999998,salmon,930.2999999523163,930,930.5,True,i,51426.0,1445.7000000476837,1669835809111,1446,HRV,HRV_0250,2022-11-30 19:20:26
32,"[{'imgObject': {}, 'id': 'edamame', 'src': '/static/foodstim60/edamame.jpg', 'key': 'u', 'origWidth': 409, 'origHeight': 410, 'width': 409, 'height': 410, 'widthPercent': 0.45, 'rescaleHeight': False, 'trialN': 32, 'loaded': True, 'loadedTime': 2468.399999856949, 'positionName': 'LEFT', 'positionCoords': [512.6, 395], 'bid': 6.36}, {'imgObject': {}, 'id': 'mashed potato', 'src': '/static/foodstim60/mashed potato.jpg', 'key': 'i', 'origWidth': 409, 'origHeight': 409, 'width': 409, 'height': 409, 'widthPercent': 0.45, 'rescaleHeight': False, 'trialN': 32, 'loaded': True, 'loadedTime': 2621.2999999523163, 'positionName': 'RIGHT', 'positionCoords': [998.4, 395.5], 'bid': 7.87}]",51426.200000047684,1669835809111,edamame,mashed potato,6.36,7.87,1.5099999999999998,edamame,1212.6999998092651,1213,1213.0999999046326,True,u,53153.59999990463,1727.3999998569489,1669835810838,1727,HRV,HRV_0250,2022-11-30 19:20:26
33,"[{'imgObject': {}, 'id': 'tacos', 'src': '/static/foodstim60/tacos.jpg', 'key': 'u', 'origWidth': 411, 'origHeight': 411, 'width': 411, 'height': 411, 'widthPercent': 0.45, 'rescaleHeight': False, 'trialN': 33, 'loaded': True, 'loadedTime': 2358.399999856949, 'positionName': 'LEFT', 'positionCoords': [510.6, 394.5], 'bid': 9.86}, {'imgObject': {}, 'id': 'mac & cheese', 'src': '/static/foodstim60/mac & cheese.jpg', 'key': 'i', 'origWidth': 410, 'origHeight': 410, 'width': 410, 'height': 410, 'widthPercent': 0.45, 'rescaleHeight': False, 'trialN': 33, 'loaded': True, 'loadedTime': 2482.2000000476837, 'positionName': 'RIGHT', 'positionCoords': [998.4, 395], 'bid': 9.05}]",53153.700000047684,1669835810838,tacos,mac & cheese,9.86,9.05,-0.8099999999999987,tacos,957.0,958,957.2999999523163,True,u,54616.0,1462.2999999523163,1669835812301,1463,HRV,HRV_0250,2022-11-30 19:20:26
34,"[{'imgObject': {}, 'id': 'hotdog w must', 'src': '/static/foodstim60/hotdog w must.jpg', 'key': 'u', 'origWidth': 409, 'origHeight': 409, 'width': 409, 'height': 409, 'widthPercent': 0.45, 'rescaleHeight': False, 'trialN': 34, 'loaded': True, 'loadedTime': 2205.2999999523163, 'positionName': 'LEFT', 'positionCoords': [512.6, 395.5], 'bid': 5.95}, {'imgObject': {}, 'id': 'yogurt no spoon', 'src': '/static/foodstim60/yogurt no spoon.jpg', 'key': 'i', 'origWidth': 411, 'origHeight': 410, 'width': 411, 'height': 410, 'widthPercent': 0.45, 'rescaleHeight': False, 'trialN': 34, 'loaded': True, 'loadedTime': 2197.899999856949, 'positionName': 'RIGHT', 'positionCoords': [998.4, 395], 'bid': 5.7}]",54616.200000047684,1669835812301,hotdog w must,yogurt no spoon,5.95,5.7,-0.25,yogurt no spoon,950.5999999046326,951,950.7999999523163,True,i,56081.700000047684,1465.5,1669835813766,1465,HRV,HRV_0250,2022-11-30 19:20:26
35,"[{'imgObject': {}, 'id': 'omelette', 'src': '/static/foodstim60/omelette.jpg', 'key': 'u', 'origWidth': 410, 'origHeight': 409, 'width': 410, 'height': 409, 'widthPercent': 0.45, 'rescaleHeight': False, 'trialN': 35, 'loaded': True, 'loadedTime': 2275.5999999046326, 'positionName': 'LEFT', 'positionCoords': [511.6, 395.5], 'bid': 6.26}, {'imgObject': {}, 'id': 'eggs', 'src': '/static/foodstim60/eggs.jpg', 'key': 'i', 'origWidth': 409, 'origHeight': 409, 'width': 409, 'height': 409, 'widthPercent': 0.45, 'rescaleHeight': False, 'trialN': 35, 'loaded': True, 'loadedTime': 2621.7999999523163, 'positionName': 'RIGHT', 'positionCoords': [998.4, 395.5], 'bid': 3.13}]",56081.700000047684,1669835813766,omelette,eggs,6.26,3.13,-3.13,omelette,893.0,894,893.5,True,u,57487.799999952316,1406.0999999046326,1669835815172,1406,HRV,HRV_0250,2022-11-30 19:20:26
36,"[{'imgObject': {}, 'id': 'ice cream sundae 002', 'src': '/static/foodstim60/ice cream sundae 002.jpg', 'key': 'u', 'origWidth': 409, 'origHeight': 409, 'width': 409, 'height': 409, 'widthPercent': 0.45, 'rescaleHeight': False, 'trialN': 36, 'loaded': True, 'loadedTime': 2506.2999999523163, 'positionName': 'LEFT', 'positionCoords': [512.6, 395.5], 'bid': 9.46}, {'imgObject': {}, 'id': 'strawberries', 'src': '/static/foodstim60/strawberries.jpg', 'key': 'i', 'origWidth': 410, 'origHeight': 410, 'width': 410, 'height': 410, 'widthPercent': 0.45, 'rescaleHeight': False, 'trialN': 36, 'loaded': True, 'loadedTime': 2624.2999999523163, 'positionName': 'RIGHT', 'positionCoords': [998.4, 395], 'bid': 8.84}]",57487.89999985695,1669835815173,ice cream sundae 002,strawberries,9.46,8.84,-0.620000000000001,ice cream sundae 002,894.9000000953674,895,895.1000001430511,True,u,58888.200000047684,1400.3000001907349,1669835816573,1400,HRV,HRV_0250,2022-11-30 19:20:26
37,"[{'imgObject': {}, 'id': 'Grapes', 'src': '/static/foodstim60/Grapes.jpg', 'key': 'u', 'origWidth': 411, 'origHeight': 411, 'width': 411, 'height': 411, 'widthPercent': 0.45, 'rescaleHeight': False, 'trialN': 37, 'loaded': True, 'loadedTime': 2570.5, 'positionName': 'LEFT', 'positionCoords': [510.6, 394.5], 'bid': 8.950000000000001}, {'imgObject': {}, 'id': 'apple slices', 'src': '/static/foodstim60/apple slices.jpg', 'key': 'i', 'origWidth': 409, 'origHeight': 410, 'width': 409, 'height': 410, 'widthPercent': 0.45, 'rescaleHeight': False, 'trialN': 37, 'loaded': True, 'loadedTime': 2288.399999856949, 'positionName': 'RIGHT', 'positionCoords': [998.4, 395], 'bid': 7.51}]",58888.299999952316,1669835816573,Grapes,apple slices,8.950000000000001,7.51,-1.4400000000000013,Grapes,838.2000000476837,838,838.5,True,u,60246.39999985695,1358.0999999046326,1669835817931,1358,HRV,HRV_0250,2022-11-30 19:20:26
38,"[{'imgObject': {}, 'id': 'blueberries', 'src': '/static/foodstim60/blueberries.jpg', 'key': 'u', 'origWidth': 411, 'origHeight': 411, 'width': 411, 'height': 411, 'widthPercent': 0.45, 'rescaleHeight': False, 'trialN': 38, 'loaded': True, 'loadedTime': 2626.899999856949, 'positionName': 'LEFT', 'positionCoords': [510.6, 394.5], 'bid': 6.25}, {'imgObject': {}, 'id': 'shreddedwheatwithmilk', 'src': '/static/foodstim60/shreddedwheatwithmilk.jpg', 'key': 'i', 'origWidth': 410, 'origHeight': 410, 'width': 410, 'height': 410, 'widthPercent': 0.45, 'rescaleHeight': False, 'trialN': 38, 'loaded': True, 'loadedTime': 2204, 'positionName': 'RIGHT', 'positionCoords': [998.4, 395], 'bid': 1.93}]",60246.59999990463,1669835817931,blueberries,shreddedwheatwithmilk,6.25,1.93,-4.32,blueberries,888.1000001430511,889,888.4000000953674,True,u,61643.299999952316,1396.7000000476837,1669835819328,1397,HRV,HRV_0250,2022-11-30 19:20:26
39,"[{'imgObject': {}, 'id': 'bagel and cc', 'src': '/static/foodstim60/bagel and cc.jpg', 'key': 'u', 'origWidth': 410, 'origHeight': 410, 'width': 410, 'height': 410, 'widthPercent': 0.45, 'rescaleHeight': False, 'trialN': 39, 'loaded': True, 'loadedTime': 2382.399999856949, 'positionName': 'LEFT', 'positionCoords': [511.6, 395], 'bid': 8.59}, {'imgObject': {}, 'id': 'banana', 'src': '/static/foodstim60/banana.jpg', 'key': 'i', 'origWidth': 410, 'origHeight': 410, 'width': 410, 'height': 410, 'widthPercent': 0.45, 'rescaleHeight': False, 'trialN': 39, 'loaded': True, 'loadedTime': 2628.5999999046326, 'positionName': 'RIGHT', 'positionCoords': [998.4, 395], 'bid': 9.75}]",61643.39999985695,1669835819328,bagel and cc,banana,8.59,9.75,1.1600000000000001,bagel and cc,1091.4000000953674,1092,1091.9000000953674,True,u,63244.700000047684,1601.3000001907349,1669835820929,1601,HRV,HRV_0250,2022-11-30 19:20:26
40,"[{'imgObject': {}, 'id': 'blueberries', 'src': '/static/foodstim60/blueberries.jpg', 'key': 'u', 'origWidth': 411, 'origHeight': 411, 'width': 411, 'height': 411, 'widthPercent': 0.45, 'rescaleHeight': False, 'trialN': 40, 'loaded': True, 'loadedTime': 2626.399999856949, 'positionName': 'LEFT', 'positionCoords': [510.6, 394.5], 'bid': 6.25}, {'imgObject': {}, 'id': 'omelette', 'src': '/static/foodstim60/omelette.jpg', 'key': 'i', 'origWidth': 410, 'origHeight': 409, 'width': 410, 'height': 409, 'widthPercent': 0.45, 'rescaleHeight': False, 'trialN': 40, 'loaded': True, 'loadedTime': 2265.5999999046326, 'positionName': 'RIGHT', 'positionCoords': [998.4, 395.5], 'bid': 6.26}]",63245.5,1669835820930,blueberries,omelette,6.25,6.26,0.009999999999999787,blueberries,1313.2000000476837,1314,1313.5999999046326,True,u,65066.799999952316,1821.2999999523163,1669835822751,1821,HRV,HRV_0250,2022-11-30 19:20:26
41,"[{'imgObject': {}, 'id': 'cherries', 'src': '/static/foodstim60/cherries.jpg', 'key': 'u', 'origWidth': 410, 'origHeight': 411, 'width': 410, 'height': 411, 'widthPercent': 0.45, 'rescaleHeight': False, 'trialN': 41, 'loaded': True, 'loadedTime': 2202, 'positionName': 'LEFT', 'positionCoords': [511.6, 394.5], 'bid': 6.38}, {'imgObject': {}, 'id': 'mango', 'src': '/static/foodstim60/mango.jpg', 'key': 'i', 'origWidth': 411, 'origHeight': 411, 'width': 411, 'height': 411, 'widthPercent': 0.45, 'rescaleHeight': False, 'trialN': 41, 'loaded': True, 'loadedTime': 2603.2999999523163, 'positionName': 'RIGHT', 'positionCoords': [998.4, 394.5], 'bid': 6.34}]",65066.799999952316,1669835822751,cherries,mango,6.38,6.34,-0.040000000000000036,mango,1155.7999999523163,1156,1156.0999999046326,True,i,66728.09999990463,1661.2999999523163,1669835824413,1662,HRV,HRV_0250,2022-11-30 19:20:26
42,"[{'imgObject': {}, 'id': 'orange slices', 'src': '/static/foodstim60/orange slices.jpg', 'key': 'u', 'origWidth': 409, 'origHeight': 410, 'width': 409, 'height': 410, 'widthPercent': 0.45, 'rescaleHeight': False, 'trialN': 42, 'loaded': True, 'loadedTime': 2633.899999856949, 'positionName': 'LEFT', 'positionCoords': [512.6, 395], 'bid': 6.08}, {'imgObject': {}, 'id': 'grilled chicken strips', 'src': '/static/foodstim60/grilled chicken strips.jpg', 'key': 'i', 'origWidth': 410, 'origHeight': 411, 'width': 410, 'height': 411, 'widthPercent': 0.45, 'rescaleHeight': False, 'trialN': 42, 'loaded': True, 'loadedTime': 2400.7000000476837, 'positionName': 'RIGHT', 'positionCoords': [998.4, 394.5], 'bid': 6.9}]",66728.20000004768,1669835824413,orange slices,grilled chicken strips,6.08,6.9,0.8200000000000003,grilled chicken strips,1126.5999999046326,1127,1127.0,True,i,68359.89999985695,1631.6999998092651,1669835826045,1632,HRV,HRV_0250,2022-11-30 19:20:26
43,"[{'imgObject': {}, 'id': 'turkey sandwich', 'src': '/static/foodstim60/turkey sandwich.jpg', 'key': 'u', 'origWidth': 409, 'origHeight': 409, 'width': 409, 'height': 409, 'widthPercent': 0.45, 'rescaleHeight': False, 'trialN': 43, 'loaded': True, 'loadedTime': 2634.2000000476837, 'positionName': 'LEFT', 'positionCoords': [512.6, 395.5], 'bid': 9.82}, {'imgObject': {}, 'id': 'tacos', 'src': '/static/foodstim60/tacos.jpg', 'key': 'i', 'origWidth': 411, 'origHeight': 411, 'width': 411, 'height': 411, 'widthPercent': 0.45, 'rescaleHeight': False, 'trialN': 43, 'loaded': True, 'loadedTime': 2358.5, 'positionName': 'RIGHT', 'positionCoords': [998.4, 394.5], 'bid': 9.86}]",68360.09999990463,1669835826045,turkey sandwich,tacos,9.82,9.86,0.03999999999999915,tacos,662.7000000476837,663,663.0,True,i,69534.70000004768,1174.6000001430511,1669835827219,1174,HRV,HRV_0250,2022-11-30 19:20:26
44,"[{'imgObject': {}, 'id': 'blackbeanswithrice', 'src': '/static/foodstim60/blackbeanswithrice.jpg', 'key': 'u', 'origWidth': 410, 'origHeight': 410, 'width': 410, 'height': 410, 'widthPercent': 0.45, 'rescaleHeight': False, 'trialN': 44, 'loaded': True, 'loadedTime': 2300.399999856949, 'positionName': 'LEFT', 'positionCoords': [511.6, 395], 'bid': 9.26}, {'imgObject': {}, 'id': 'rigatoni and sauce', 'src': '/static/foodstim60/rigatoni and sauce.jpg', 'key': 'i', 'origWidth': 410, 'origHeight': 411, 'width': 410, 'height': 411, 'widthPercent': 0.45, 'rescaleHeight': False, 'trialN': 44, 'loaded': True, 'loadedTime': 2375.7000000476837, 'positionName': 'RIGHT', 'positionCoords': [998.4, 394.5], 'bid': 9.36}]",69534.89999985695,1669835827220,blackbeanswithrice,rigatoni and sauce,9.26,9.36,0.09999999999999964,blackbeanswithrice,991.7000000476837,990,992.1000001430511,True,u,71046.89999985695,1512.0,1669835828730,1510,HRV,HRV_0250,2022-11-30 19:20:26
45,"[{'imgObject': {}, 'id': 'luckycharms', 'src': '/static/foodstim60/luckycharms.jpg', 'key': 'u', 'origWidth': 410, 'origHeight': 409, 'width': 410, 'height': 409, 'widthPercent': 0.45, 'rescaleHeight': False, 'trialN': 45, 'loaded': True, 'loadedTime': 2421.5999999046326, 'positionName': 'LEFT', 'positionCoords': [511.6, 395.5], 'bid': 3.22}, {'imgObject': {}, 'id': 'eggs', 'src': '/static/foodstim60/eggs.jpg', 'key': 'i', 'origWidth': 409, 'origHeight': 409, 'width': 409, 'height': 409, 'widthPercent': 0.45, 'rescaleHeight': False, 'trialN': 45, 'loaded': True, 'loadedTime': 2623, 'positionName': 'RIGHT', 'positionCoords': [998.4, 395.5], 'bid': 3.13}]",71046.89999985695,1669835828730,luckycharms,eggs,3.22,3.13,-0.0900000000000003,luckycharms,807.8000001907349,808,808.1000001430511,True,u,72359.89999985695,1313.0,1669835830043,1313,HRV,HRV_0250,2022-11-30 19:20:26
46,"[{'imgObject': {}, 'id': 'eggs', 'src': '/static/foodstim60/eggs.jpg', 'key': 'u', 'origWidth': 409, 'origHeight': 409, 'width': 409, 'height': 409, 'widthPercent': 0.45, 'rescaleHeight': False, 'trialN': 46, 'loaded': True, 'loadedTime': 2623, 'positionName': 'LEFT', 'positionCoords': [512.6, 395.5], 'bid': 3.13}, {'imgObject': {}, 'id': 'strawberries', 'src': '/static/foodstim60/strawberries.jpg', 'key': 'i', 'origWidth': 410, 'origHeight': 410, 'width': 410, 'height': 410, 'widthPercent': 0.45, 'rescaleHeight': False, 'trialN': 46, 'loaded': True, 'loadedTime': 2624.399999856949, 'positionName': 'RIGHT', 'positionCoords': [998.4, 395], 'bid': 8.84}]",72360.0,1669835830043,eggs,strawberries,3.13,8.84,5.71,strawberries,774.8999998569489,775,775.2999999523163,True,i,73640.09999990463,1280.0999999046326,1669835831323,1280,HRV,HRV_0250,2022-11-30 19:20:26
47,"[{'imgObject': {}, 'id': 'cocktailshrimp', 'src': '/static/foodstim60/cocktailshrimp.jpg', 'key': 'u', 'origWidth': 410, 'origHeight': 410, 'width': 410, 'height': 410, 'widthPercent': 0.45, 'rescaleHeight': False, 'trialN': 47, 'loaded': True, 'loadedTime': 2645, 'positionName': 'LEFT', 'positionCoords': [511.6, 395], 'bid': 4.0200000000000005}, {'imgObject': {}, 'id': 'eggsalad', 'src': '/static/foodstim60/eggsalad.jpg', 'key': 'i', 'origWidth': 410, 'origHeight': 409, 'width': 410, 'height': 409, 'widthPercent': 0.45, 'rescaleHeight': False, 'trialN': 47, 'loaded': True, 'loadedTime': 2344.7999999523163, 'positionName': 'RIGHT', 'positionCoords': [998.4, 395.5], 'bid': 5.65}]",73640.20000004768,1669835831323,cocktailshrimp,eggsalad,4.0200000000000005,5.65,1.63,eggsalad,982.5999999046326,984,983.0999999046326,True,i,75128.5,1488.2999999523163,1669835832812,1489,HRV,HRV_0250,2022-11-30 19:20:26
48,"[{'imgObject': {}, 'id': 'chicken nuggets2', 'src': '/static/foodstim60/chicken nuggets2.jpg', 'key': 'u', 'origWidth': 410, 'origHeight': 409, 'width': 410, 'height': 409, 'widthPercent': 0.45, 'rescaleHeight': False, 'trialN': 48, 'loaded': True, 'loadedTime': 2478.2000000476837, 'positionName': 'LEFT', 'positionCoords': [511.6, 395.5], 'bid': 9.11}, {'imgObject': {}, 'id': 'cheerios', 'src': '/static/foodstim60/cheerios.jpg', 'key': 'i', 'origWidth': 409, 'origHeight': 410, 'width': 409, 'height': 410, 'widthPercent': 0.45, 'rescaleHeight': False, 'trialN': 48, 'loaded': True, 'loadedTime': 2581.7000000476837, 'positionName': 'RIGHT', 'positionCoords': [998.4, 395], 'bid': 3.65}]",75128.59999990463,1669835832812,chicken nuggets2,cheerios,9.11,3.65,-5.459999999999999,chicken nuggets2,758.0,758,758.4000000953674,True,u,76400.20000004768,1271.6000001430511,1669835834083,1271,HRV,HRV_0250,2022-11-30 19:20:26
49,"[{'imgObject': {}, 'id': 'turkey sandwich', 'src': '/static/foodstim60/turkey sandwich.jpg', 'key': 'u', 'origWidth': 409, 'origHeight': 409, 'width': 409, 'height': 409, 'widthPercent': 0.45, 'rescaleHeight': False, 'trialN': 49, 'loaded': True, 'loadedTime': 2634.899999856949, 'positionName': 'LEFT', 'positionCoords': [512.6, 395.5], 'bid': 9.82}, {'imgObject': {}, 'id': 'turkeysandwich', 'src': '/static/foodstim60/turkeysandwich.jpg', 'key': 'i', 'origWidth': 409, 'origHeight': 409, 'width': 409, 'height': 409, 'widthPercent': 0.45, 'rescaleHeight': False, 'trialN': 49, 'loaded': True, 'loadedTime': 2645.399999856949, 'positionName': 'RIGHT', 'positionCoords': [998.4, 395.5], 'bid': 9.14}]",76400.29999995232,1669835834083,turkey sandwich,turkeysandwich,9.82,9.14,-0.6799999999999997,turkey sandwich,974.4000000953674,975,974.7000000476837,True,u,77894.20000004768,1493.9000000953674,1669835835577,1494,HRV,HRV_0250,2022-11-30 19:20:26
50,"[{'imgObject': {}, 'id': 'corn cob', 'src': '/static/foodstim60/corn cob.jpg', 'key': 'u', 'origWidth': 411, 'origHeight': 411, 'width': 411, 'height': 411, 'widthPercent': 0.45, 'rescaleHeight': False, 'trialN': 50, 'loaded': True, 'loadedTime': 2657.399999856949, 'positionName': 'LEFT', 'positionCoords': [510.6, 394.5], 'bid': 5.55}, {'imgObject': {}, 'id': 'sweetpotato', 'src': '/static/foodstim60/sweetpotato.jpg', 'key': 'i', 'origWidth': 410, 'origHeight': 410, 'width': 410, 'height': 410, 'widthPercent': 0.45, 'rescaleHeight': False, 'trialN': 50, 'loaded': True, 'loadedTime': 2389.399999856949, 'positionName': 'RIGHT', 'positionCoords': [998.4, 395], 'bid': 0.23}]",77894.39999985695,1669835835578,corn cob,sweetpotato,5.55,0.23,-5.319999999999999,corn cob,776.3000001907349,776,776.6000001430511,True,u,79190.5,1296.1000001430511,1669835836874,1296,HRV,HRV_0250,2022-11-30 19:20:26
51,"[{'imgObject': {}, 'id': 'raisin bran w milk', 'src': '/static/foodstim60/raisin bran w milk.jpg', 'key': 'u', 'origWidth': 411, 'origHeight': 411, 'width': 411, 'height': 411, 'widthPercent': 0.45, 'rescaleHeight': False, 'trialN': 51, 'loaded': True, 'loadedTime': 2252.0999999046326, 'positionName': 'LEFT', 'positionCoords': [510.6, 394.5], 'bid': 1.01}, {'imgObject': {}, 'id': 'apple slices', 'src': '/static/foodstim60/apple slices.jpg', 'key': 'i', 'origWidth': 409, 'origHeight': 410, 'width': 409, 'height': 410, 'widthPercent': 0.45, 'rescaleHeight': False, 'trialN': 51, 'loaded': True, 'loadedTime': 2299.7999999523163, 'positionName': 'RIGHT', 'positionCoords': [998.4, 395], 'bid': 7.51}]",79190.59999990463,1669835836874,raisin bran w milk,apple slices,1.01,7.51,6.5,apple slices,808.2999999523163,808,808.6000001430511,True,i,80504.20000004768,1313.6000001430511,1669835838187,1313,HRV,HRV_0250,2022-11-30 19:20:26
52,"[{'imgObject': {}, 'id': 'Tribe humus pita', 'src': '/static/foodstim60/Tribe humus pita.jpg', 'key': 'u', 'origWidth': 411, 'origHeight': 411, 'width': 411, 'height': 411, 'widthPercent': 0.45, 'rescaleHeight': False, 'trialN': 52, 'loaded': True, 'loadedTime': 2658.7000000476837, 'positionName': 'LEFT', 'positionCoords': [510.6, 394.5], 'bid': 3.66}, {'imgObject': {}, 'id': 'cocktailshrimp', 'src': '/static/foodstim60/cocktailshrimp.jpg', 'key': 'i', 'origWidth': 410, 'origHeight': 410, 'width': 410, 'height': 410, 'widthPercent': 0.45, 'rescaleHeight': False, 'trialN': 52, 'loaded': True, 'loadedTime': 2645.2000000476837, 'positionName': 'RIGHT', 'positionCoords': [998.4, 395], 'bid': 4.0200000000000005}]",80504.20000004768,1669835838187,Tribe humus pita,cocktailshrimp,3.66,4.0200000000000005,0.3600000000000003,cocktailshrimp,822.5999999046326,823,822.8999998569489,True,i,81846.70000004768,1342.5,1669835839530,1343,HRV,HRV_0250,2022-11-30 19:20:26
53,"[{'imgObject': {}, 'id': 'pear', 'src': '/static/foodstim60/pear.jpg', 'key': 'u', 'origWidth': 411, 'origHeight': 410, 'width': 411, 'height': 410, 'widthPercent': 0.45, 'rescaleHeight': False, 'trialN': 53, 'loaded': True, 'loadedTime': 2671.5, 'positionName': 'LEFT', 'positionCoords': [510.6, 395], 'bid': 7.54}, {'imgObject': {}, 'id': 'mango', 'src': '/static/foodstim60/mango.jpg', 'key': 'i', 'origWidth': 411, 'origHeight': 411, 'width': 411, 'height': 411, 'widthPercent': 0.45, 'rescaleHeight': False, 'trialN': 53, 'loaded': True, 'loadedTime': 2593.5999999046326, 'positionName': 'RIGHT', 'positionCoords': [998.4, 394.5], 'bid': 6.34}]",81846.79999995232,1669835839530,pear,mango,7.54,6.34,-1.2000000000000002,pear,1015.7999999523163,1016,1016.2000000476837,True,u,83378.59999990463,1531.7999999523163,1669835841062,1532,HRV,HRV_0250,2022-11-30 19:20:26
54,"[{'imgObject': {}, 'id': 'luckycharms', 'src': '/static/foodstim60/luckycharms.jpg', 'key': 'u', 'origWidth': 410, 'origHeight': 409, 'width': 410, 'height': 409, 'widthPercent': 0.45, 'rescaleHeight': False, 'trialN': 54, 'loaded': True, 'loadedTime': 2421.899999856949, 'positionName': 'LEFT', 'positionCoords': [511.6, 395.5], 'bid': 3.22}, {'imgObject': {}, 'id': 'cheerios', 'src': '/static/foodstim60/cheerios.jpg', 'key': 'i', 'origWidth': 409, 'origHeight': 410, 'width': 409, 'height': 410, 'widthPercent': 0.45, 'rescaleHeight': False, 'trialN': 54, 'loaded': True, 'loadedTime': 2582.5, 'positionName': 'RIGHT', 'positionCoords': [998.4, 395], 'bid': 3.65}]",83378.70000004768,1669835841062,luckycharms,cheerios,3.22,3.65,0.4299999999999997,cheerios,1436.0999999046326,1436,1436.3999998569489,True,i,85331.0,1952.2999999523163,1669835843014,1952,HRV,HRV_0250,2022-11-30 19:20:26
55,"[{'imgObject': {}, 'id': 'mashed potato', 'src': '/static/foodstim60/mashed potato.jpg', 'key': 'u', 'origWidth': 409, 'origHeight': 409, 'width': 409, 'height': 409, 'widthPercent': 0.45, 'rescaleHeight': False, 'trialN': 55, 'loaded': True, 'loadedTime': 2620.2000000476837, 'positionName': 'LEFT', 'positionCoords': [512.6, 395.5], 'bid': 7.87}, {'imgObject': {}, 'id': 'pear', 'src': '/static/foodstim60/pear.jpg', 'key': 'i', 'origWidth': 411, 'origHeight': 410, 'width': 411, 'height': 410, 'widthPercent': 0.45, 'rescaleHeight': False, 'trialN': 55, 'loaded': True, 'loadedTime': 2671.5999999046326, 'positionName': 'RIGHT', 'positionCoords': [998.4, 395], 'bid': 7.54}]",85331.0,1669835843014,mashed potato,pear,7.87,7.54,-0.33000000000000007,mashed potato,971.7000000476837,972,972.2000000476837,True,u,86808.89999985695,1477.8999998569489,1669835844492,1478,HRV,HRV_0250,2022-11-30 19:20:26
56,"[{'imgObject': {}, 'id': 'kiwi', 'src': '/static/foodstim60/kiwi.jpg', 'key': 'u', 'origWidth': 410, 'origHeight': 410, 'width': 410, 'height': 410, 'widthPercent': 0.45, 'rescaleHeight': False, 'trialN': 56, 'loaded': True, 'loadedTime': 2672.5999999046326, 'positionName': 'LEFT', 'positionCoords': [511.6, 395], 'bid': 6.7700000000000005}, {'imgObject': {}, 'id': 'froot loops w milk', 'src': '/static/foodstim60/froot loops w milk.jpg', 'key': 'i', 'origWidth': 410, 'origHeight': 410, 'width': 410, 'height': 410, 'widthPercent': 0.45, 'rescaleHeight': False, 'trialN': 56, 'loaded': True, 'loadedTime': 2435, 'positionName': 'RIGHT', 'positionCoords': [998.4, 395], 'bid': 6.86}]",86808.89999985695,1669835844492,kiwi,froot loops w milk,6.7700000000000005,6.86,0.08999999999999986,froot loops w milk,901.8000001907349,902,902.2000000476837,True,i,88221.09999990463,1412.2000000476837,1669835845904,1412,HRV,HRV_0250,2022-11-30 19:20:26
57,"[{'imgObject': {}, 'id': 'veggieswithdip', 'src': '/static/foodstim60/veggieswithdip.jpg', 'key': 'u', 'origWidth': 409, 'origHeight': 409, 'width': 409, 'height': 409, 'widthPercent': 0.45, 'rescaleHeight': False, 'trialN': 57, 'loaded': True, 'loadedTime': 2672.7000000476837, 'positionName': 'LEFT', 'positionCoords': [512.6, 395.5], 'bid': 9.11}, {'imgObject': {}, 'id': 'turkeysandwich', 'src': '/static/foodstim60/turkeysandwich.jpg', 'key': 'i', 'origWidth': 409, 'origHeight': 409, 'width': 409, 'height': 409, 'widthPercent': 0.45, 'rescaleHeight': False, 'trialN': 57, 'loaded': True, 'loadedTime': 2646.399999856949, 'positionName': 'RIGHT', 'positionCoords': [998.4, 395.5], 'bid': 9.14}]",88221.29999995232,1669835845904,veggieswithdip,turkeysandwich,9.11,9.14,0.030000000000001137,veggieswithdip,1041.0999999046326,1042,1041.5999999046326,True,u,89768.5,1547.2000000476837,1669835847452,1548,HRV,HRV_0250,2022-11-30 19:20:26
58,"[{'imgObject': {}, 'id': 'sweetpotato', 'src': '/static/foodstim60/sweetpotato.jpg', 'key': 'u', 'origWidth': 410, 'origHeight': 410, 'width': 410, 'height': 410, 'widthPercent': 0.45, 'rescaleHeight': False, 'trialN': 58, 'loaded': True, 'loadedTime': 2399.5, 'positionName': 'LEFT', 'positionCoords': [511.6, 395], 'bid': 0.23}, {'imgObject': {}, 'id': 'sushi w_condiments', 'src': '/static/foodstim60/sushi w_condiments.jpg', 'key': 'i', 'origWidth': 410, 'origHeight': 410, 'width': 410, 'height': 410, 'widthPercent': 0.45, 'rescaleHeight': False, 'trialN': 58, 'loaded': True, 'loadedTime': 2617.5999999046326, 'positionName': 'RIGHT', 'positionCoords': [998.4, 395], 'bid': 0.19}]",89768.59999990463,1669835847452,sweetpotato,sushi w_condiments,0.23,0.19,-0.04000000000000001,sweetpotato,902.1000001430511,902,902.2999999523163,True,u,91185.70000004768,1417.1000001430511,1669835848869,1417,HRV,HRV_0250,2022-11-30 19:20:26
59,"[{'imgObject': {}, 'id': 'cherries', 'src': '/static/foodstim60/cherries.jpg', 'key': 'u', 'origWidth': 410, 'origHeight': 411, 'width': 410, 'height': 411, 'widthPercent': 0.45, 'rescaleHeight': False, 'trialN': 59, 'loaded': True, 'loadedTime': 2200.7999999523163, 'positionName': 'LEFT', 'positionCoords': [511.6, 394.5], 'bid': 6.38}, {'imgObject': {}, 'id': 'chicken nuggets2', 'src': '/static/foodstim60/chicken nuggets2.jpg', 'key': 'i', 'origWidth': 410, 'origHeight': 409, 'width': 410, 'height': 409, 'widthPercent': 0.45, 'rescaleHeight': False, 'trialN': 59, 'loaded': True, 'loadedTime': 2478.399999856949, 'positionName': 'RIGHT', 'positionCoords': [998.4, 395.5], 'bid': 9.11}]",91185.79999995232,1669835848869,cherries,chicken nuggets2,6.38,9.11,2.7299999999999995,chicken nuggets2,716.9000000953674,717,717.2000000476837,True,i,92408.89999985695,1223.0999999046326,1669835850092,1223,HRV,HRV_0250,2022-11-30 19:20:26
60,"[{'imgObject': {}, 'id': 'salad w chicken', 'src': '/static/foodstim60/salad w chicken.jpg', 'key': 'u', 'origWidth': 411, 'origHeight': 411, 'width': 411, 'height': 411, 'widthPercent': 0.45, 'rescaleHeight': False, 'trialN': 60, 'loaded': True, 'loadedTime': 2673.7000000476837, 'positionName': 'LEFT', 'positionCoords': [510.6, 394.5], 'bid': 9.55}, {'imgObject': {}, 'id': 'bagel plain', 'src': '/static/foodstim60/bagel plain.jpg', 'key': 'i', 'origWidth': 410, 'origHeight': 410, 'width': 410, 'height': 410, 'widthPercent': 0.45, 'rescaleHeight': False, 'trialN': 60, 'loaded': True, 'loadedTime': 2193.899999856949, 'positionName': 'RIGHT', 'positionCoords': [998.4, 395], 'bid': 5.98}]",92408.89999985695,1669835850092,salad w chicken,bagel plain,9.55,5.98,-3.5700000000000003,salad w chicken,1077.5,1078,1078.1000001430511,True,u,94003.39999985695,1594.5,1669835851686,1594,HRV,HRV_0250,2022-11-30 19:20:26
61,"[{'imgObject': {}, 'id': 'cherries', 'src': '/static/foodstim60/cherries.jpg', 'key': 'u', 'origWidth': 410, 'origHeight': 411, 'width': 410, 'height': 411, 'widthPercent': 0.45, 'rescaleHeight': False, 'trialN': 61, 'loaded': True, 'loadedTime': 2202.5, 'positionName': 'LEFT', 'positionCoords': [511.6, 394.5], 'bid': 6.38}, {'imgObject': {}, 'id': 'orange slices', 'src': '/static/foodstim60/orange slices.jpg', 'key': 'i', 'origWidth': 409, 'origHeight': 410, 'width': 409, 'height': 410, 'widthPercent': 0.45, 'rescaleHeight': False, 'trialN': 61, 'loaded': True, 'loadedTime': 2634.0999999046326, 'positionName': 'RIGHT', 'positionCoords': [998.4, 395], 'bid': 6.08}]",94003.5,1669835851687,cherries,orange slices,6.38,6.08,-0.2999999999999998,cherries,875.3999998569489,875,875.7000000476837,True,u,95385.29999995232,1381.7999999523163,1669835853068,1381,HRV,HRV_0250,2022-11-30 19:20:26
62,"[{'imgObject': {}, 'id': 'cherry tomato', 'src': '/static/foodstim60/cherry tomato.jpg', 'key': 'u', 'origWidth': 410, 'origHeight': 410, 'width': 410, 'height': 410, 'widthPercent': 0.45, 'rescaleHeight': False, 'trialN': 62, 'loaded': True, 'loadedTime': 2675.2000000476837, 'positionName': 'LEFT', 'positionCoords': [511.6, 395], 'bid': 7.2}, {'imgObject': {}, 'id': 'pear', 'src': '/static/foodstim60/pear.jpg', 'key': 'i', 'origWidth': 411, 'origHeight': 410, 'width': 411, 'height': 410, 'widthPercent': 0.45, 'rescaleHeight': False, 'trialN': 62, 'loaded': True, 'loadedTime': 2671.5999999046326, 'positionName': 'RIGHT', 'positionCoords': [998.4, 395], 'bid': 7.54}]",95385.39999985695,1669835853068,cherry tomato,pear,7.2,7.54,0.33999999999999986,cherry tomato,997.2000000476837,998,997.5,True,u,96893.39999985695,1508.0,1669835854577,1509,HRV,HRV_0250,2022-11-30 19:20:26
63,"[{'imgObject': {}, 'id': 'burger', 'src': '/static/foodstim60/burger.jpg', 'key': 'u', 'origWidth': 409, 'origHeight': 409, 'width': 409, 'height': 409, 'widthPercent': 0.45, 'rescaleHeight': False, 'trialN': 63, 'loaded': True, 'loadedTime': 2538.2999999523163, 'positionName': 'LEFT', 'positionCoords': [512.6, 395.5], 'bid': 9.35}, {'imgObject': {}, 'id': 'banana', 'src': '/static/foodstim60/banana.jpg', 'key': 'i', 'origWidth': 410, 'origHeight': 410, 'width': 410, 'height': 410, 'widthPercent': 0.45, 'rescaleHeight': False, 'trialN': 63, 'loaded': True, 'loadedTime': 2628.7000000476837, 'positionName': 'RIGHT', 'positionCoords': [998.4, 395], 'bid': 9.75}]",96893.5,1669835854577,burger,banana,9.35,9.75,0.40000000000000036,burger,913.2999999523163,913,913.5999999046326,True,u,98318.59999990463,1425.0999999046326,1669835856002,1425,HRV,HRV_0250,2022-11-30 19:20:26
64,"[{'imgObject': {}, 'id': 'lox', 'src': '/static/foodstim60/lox.jpg', 'key': 'u', 'origWidth': 410, 'origHeight': 411, 'width': 410, 'height': 411, 'widthPercent': 0.45, 'rescaleHeight': False, 'trialN': 64, 'loaded': True, 'loadedTime': 2618.899999856949, 'positionName': 'LEFT', 'positionCoords': [511.6, 394.5], 'bid': 0.29}, {'imgObject': {}, 'id': 'cheerios', 'src': '/static/foodstim60/cheerios.jpg', 'key': 'i', 'origWidth': 409, 'origHeight': 410, 'width': 409, 'height': 410, 'widthPercent': 0.45, 'rescaleHeight': False, 'trialN': 64, 'loaded': True, 'loadedTime': 2582.2999999523163, 'positionName': 'RIGHT', 'positionCoords': [998.4, 395], 'bid': 3.65}]",98318.70000004768,1669835856002,lox,cheerios,0.29,3.65,3.36,cheerios,847.8999998569489,848,848.2999999523163,True,i,99678.09999990463,1359.3999998569489,1669835857361,1359,HRV,HRV_0250,2022-11-30 19:20:26
65,"[{'imgObject': {}, 'id': 'eggsalad', 'src': '/static/foodstim60/eggsalad.jpg', 'key': 'u', 'origWidth': 410, 'origHeight': 409, 'width': 410, 'height': 409, 'widthPercent': 0.45, 'rescaleHeight': False, 'trialN': 65, 'loaded': True, 'loadedTime': 2334, 'positionName': 'LEFT', 'positionCoords': [511.6, 395.5], 'bid': 5.65}, {'imgObject': {}, 'id': 'salmon', 'src': '/static/foodstim60/salmon.jpg', 'key': 'i', 'origWidth': 410, 'origHeight': 409, 'width': 410, 'height': 409, 'widthPercent': 0.45, 'rescaleHeight': False, 'trialN': 65, 'loaded': True, 'loadedTime': 2619, 'positionName': 'RIGHT', 'positionCoords': [998.4, 395.5], 'bid': 0.25}]",99678.29999995232,1669835857361,eggsalad,salmon,5.65,0.25,-5.4,eggsalad,736.2999999523163,737,736.7000000476837,True,u,100919.79999995232,1241.5,1669835858603,1242,HRV,HRV_0250,2022-11-30 19:20:26
66,"[{'imgObject': {}, 'id': 'turkeysandwich', 'src': '/static/foodstim60/turkeysandwich.jpg', 'key': 'u', 'origWidth': 409, 'origHeight': 409, 'width': 409, 'height': 409, 'widthPercent': 0.45, 'rescaleHeight': False, 'trialN': 66, 'loaded': True, 'loadedTime': 2646.2000000476837, 'positionName': 'LEFT', 'positionCoords': [512.6, 395.5], 'bid': 9.14}, {'imgObject': {}, 'id': 'kiwi', 'src': '/static/foodstim60/kiwi.jpg', 'key': 'i', 'origWidth': 410, 'origHeight': 410, 'width': 410, 'height': 410, 'widthPercent': 0.45, 'rescaleHeight': False, 'trialN': 66, 'loaded': True, 'loadedTime': 2672.5, 'positionName': 'RIGHT', 'positionCoords': [998.4, 395], 'bid': 6.7700000000000005}]",100919.89999985695,1669835858603,turkeysandwich,kiwi,9.14,6.7700000000000005,-2.37,turkeysandwich,982.8000001907349,983,983.2000000476837,True,u,102420.89999985695,1501.0,1669835860104,1501,HRV,HRV_0250,2022-11-30 19:20:26
67,"[{'imgObject': {}, 'id': 'fried eggs', 'src': '/static/foodstim60/fried eggs.jpg', 'key': 'u', 'origWidth': 410, 'origHeight': 410, 'width': 410, 'height': 410, 'widthPercent': 0.45, 'rescaleHeight': False, 'trialN': 67, 'loaded': True, 'loadedTime': 2178.5999999046326, 'positionName': 'LEFT', 'positionCoords': [511.6, 395], 'bid': 1.12}, {'imgObject': {}, 'id': 'sushi w_condiments', 'src': '/static/foodstim60/sushi w_condiments.jpg', 'key': 'i', 'origWidth': 410, 'origHeight': 410, 'width': 410, 'height': 410, 'widthPercent': 0.45, 'rescaleHeight': False, 'trialN': 67, 'loaded': True, 'loadedTime': 2617, 'positionName': 'RIGHT', 'positionCoords': [998.4, 395], 'bid': 0.19}]",102421.0,1669835860104,fried eggs,sushi w_condiments,1.12,0.19,-0.9300000000000002,fried eggs,1065.7999999523163,1066,1066.0999999046326,True,u,103992.5,1571.5,1669835861676,1572,HRV,HRV_0250,2022-11-30 19:20:26
68,"[{'imgObject': {}, 'id': 'mac & cheese', 'src': '/static/foodstim60/mac & cheese.jpg', 'key': 'u', 'origWidth': 410, 'origHeight': 410, 'width': 410, 'height': 410, 'widthPercent': 0.45, 'rescaleHeight': False, 'trialN': 68, 'loaded': True, 'loadedTime': 2492.5, 'positionName': 'LEFT', 'positionCoords': [511.6, 395], 'bid': 9.05}, {'imgObject': {}, 'id': 'veggieswithdip', 'src': '/static/foodstim60/veggieswithdip.jpg', 'key': 'i', 'origWidth': 409, 'origHeight': 409, 'width': 409, 'height': 409, 'widthPercent': 0.45, 'rescaleHeight': False, 'trialN': 68, 'loaded': True, 'loadedTime': 2673.399999856949, 'positionName': 'RIGHT', 'positionCoords': [998.4, 395.5], 'bid': 9.11}]",103992.59999990463,1669835861676,mac & cheese,veggieswithdip,9.05,9.11,0.05999999999999872,veggieswithdip,1078.0,1078,1078.4000000953674,True,i,105580.0,1587.4000000953674,1669835863263,1587,HRV,HRV_0250,2022-11-30 19:20:26
69,"[{'imgObject': {}, 'id': 'fruitsalad', 'src': '/static/foodstim60/fruitsalad.jpg', 'key': 'u', 'origWidth': 410, 'origHeight': 410, 'width': 410, 'height': 410, 'widthPercent': 0.45, 'rescaleHeight': False, 'trialN': 69, 'loaded': True, 'loadedTime': 2513, 'positionName': 'LEFT', 'positionCoords': [511.6, 395], 'bid': 8.33}, {'imgObject': {}, 'id': 'strawberries', 'src': '/static/foodstim60/strawberries.jpg', 'key': 'i', 'origWidth': 410, 'origHeight': 410, 'width': 410, 'height': 410, 'widthPercent': 0.45, 'rescaleHeight': False, 'trialN': 69, 'loaded': True, 'loadedTime': 2623.5, 'positionName': 'RIGHT', 'positionCoords': [998.4, 395], 'bid': 8.84}]",105580.09999990463,1669835863263,fruitsalad,strawberries,8.33,8.84,0.5099999999999998,fruitsalad,1506.5,1507,1506.9000000953674,True,u,107597.20000004768,2017.1000001430511,1669835865280,2017,HRV,HRV_0250,2022-11-30 19:20:26
70,"[{'imgObject': {}, 'id': 'cherry tomato', 'src': '/static/foodstim60/cherry tomato.jpg', 'key': 'u', 'origWidth': 410, 'origHeight': 410, 'width': 410, 'height': 410, 'widthPercent': 0.45, 'rescaleHeight': False, 'trialN': 70, 'loaded': True, 'loadedTime': 2675.2000000476837, 'positionName': 'LEFT', 'positionCoords': [511.6, 395], 'bid': 7.2}, {'imgObject': {}, 'id': 'granola w milk', 'src': '/static/foodstim60/granola w milk.jpg', 'key': 'i', 'origWidth': 410, 'origHeight': 410, 'width': 410, 'height': 410, 'widthPercent': 0.45, 'rescaleHeight': False, 'trialN': 70, 'loaded': True, 'loadedTime': 2614.5, 'positionName': 'RIGHT', 'positionCoords': [998.4, 395], 'bid': 0.87}]",107597.29999995232,1669835865280,cherry tomato,granola w milk,7.2,0.87,-6.33,cherry tomato,993.4000000953674,994,993.7000000476837,True,u,109096.59999990463,1499.2999999523163,1669835866780,1500,HRV,HRV_0250,2022-11-30 19:20:26
71,"[{'imgObject': {}, 'id': 'omelette', 'src': '/static/foodstim60/omelette.jpg', 'key': 'u', 'origWidth': 410, 'origHeight': 409, 'width': 410, 'height': 409, 'widthPercent': 0.45, 'rescaleHeight': False, 'trialN': 71, 'loaded': True, 'loadedTime': 2265.5, 'positionName': 'LEFT', 'positionCoords': [511.6, 395.5], 'bid': 6.26}, {'imgObject': {}, 'id': 'turkey sandwich', 'src': '/static/foodstim60/turkey sandwich.jpg', 'key': 'i', 'origWidth': 409, 'origHeight': 409, 'width': 409, 'height': 409, 'widthPercent': 0.45, 'rescaleHeight': False, 'trialN': 71, 'loaded': True, 'loadedTime': 2634.899999856949, 'positionName': 'RIGHT', 'positionCoords': [998.4, 395.5], 'bid': 9.82}]",109096.70000004768,1669835866780,omelette,turkey sandwich,6.26,9.82,3.5600000000000005,turkey sandwich,774.0999999046326,774,774.3999998569489,True,i,110375.29999995232,1278.5999999046326,1669835868058,1278,HRV,HRV_0250,2022-11-30 19:20:26
72,"[{'imgObject': {}, 'id': 'tacos', 'src': '/static/foodstim60/tacos.jpg', 'key': 'u', 'origWidth': 411, 'origHeight': 411, 'width': 411, 'height': 411, 'widthPercent': 0.45, 'rescaleHeight': False, 'trialN': 72, 'loaded': True, 'loadedTime': 2370.2999999523163, 'positionName': 'LEFT', 'positionCoords': [510.6, 394.5], 'bid': 9.86}, {'imgObject': {}, 'id': 'edamame', 'src': '/static/foodstim60/edamame.jpg', 'key': 'i', 'origWidth': 409, 'origHeight': 410, 'width': 409, 'height': 410, 'widthPercent': 0.45, 'rescaleHeight': False, 'trialN': 72, 'loaded': True, 'loadedTime': 2468.5999999046326, 'positionName': 'RIGHT', 'positionCoords': [998.4, 395], 'bid': 6.36}]",110375.5,1669835868059,tacos,edamame,9.86,6.36,-3.499999999999999,tacos,791.2000000476837,791,791.5999999046326,True,u,111677.29999995232,1301.7999999523163,1669835869360,1301,HRV,HRV_0250,2022-11-30 19:20:26
73,"[{'imgObject': {}, 'id': 'fried eggs', 'src': '/static/foodstim60/fried eggs.jpg', 'key': 'u', 'origWidth': 410, 'origHeight': 410, 'width': 410, 'height': 410, 'widthPercent': 0.45, 'rescaleHeight': False, 'trialN': 73, 'loaded': True, 'loadedTime': 2178.5, 'positionName': 'LEFT', 'positionCoords': [511.6, 395], 'bid': 1.12}, {'imgObject': {}, 'id': 'pear', 'src': '/static/foodstim60/pear.jpg', 'key': 'i', 'origWidth': 411, 'origHeight': 410, 'width': 411, 'height': 410, 'widthPercent': 0.45, 'rescaleHeight': False, 'trialN': 73, 'loaded': True, 'loadedTime': 2671.2999999523163, 'positionName': 'RIGHT', 'positionCoords': [998.4, 395], 'bid': 7.54}]",111677.5,1669835869361,fried eggs,pear,1.12,7.54,6.42,pear,657.0,657,657.2999999523163,True,i,112846.79999995232,1169.2999999523163,1669835870530,1169,HRV,HRV_0250,2022-11-30 19:20:26
74,"[{'imgObject': {}, 'id': 'turkeysandwich', 'src': '/static/foodstim60/turkeysandwich.jpg', 'key': 'u', 'origWidth': 409, 'origHeight': 409, 'width': 409, 'height': 409, 'widthPercent': 0.45, 'rescaleHeight': False, 'trialN': 74, 'loaded': True, 'loadedTime': 2646.2999999523163, 'positionName': 'LEFT', 'positionCoords': [512.6, 395.5], 'bid': 9.14}, {'imgObject': {}, 'id': 'chicken nuggets2', 'src': '/static/foodstim60/chicken nuggets2.jpg', 'key': 'i', 'origWidth': 410, 'origHeight': 409, 'width': 410, 'height': 409, 'widthPercent': 0.45, 'rescaleHeight': False, 'trialN': 74, 'loaded': True, 'loadedTime': 2478.7999999523163, 'positionName': 'RIGHT', 'positionCoords': [998.4, 395.5], 'bid': 9.11}]",112846.89999985695,1669835870530,turkeysandwich,chicken nuggets2,9.14,9.11,-0.030000000000001137,chicken nuggets2,943.8000001907349,944,944.4000000953674,True,i,114295.39999985695,1448.5,1669835871979,1449,HRV,HRV_0250,2022-11-30 19:20:26
75,"[{'imgObject': {}, 'id': 'baked potato', 'src': '/static/foodstim60/baked potato.jpg', 'key': 'u', 'origWidth': 409, 'origHeight': 410, 'width': 409, 'height': 410, 'widthPercent': 0.45, 'rescaleHeight': False, 'trialN': 75, 'loaded': True, 'loadedTime': 2475.5, 'positionName': 'LEFT', 'positionCoords': [512.6, 395], 'bid': 6.13}, {'imgObject': {}, 'id': 'popsicles', 'src': '/static/foodstim60/popsicles.jpg', 'key': 'i', 'origWidth': 410, 'origHeight': 410, 'width': 410, 'height': 410, 'widthPercent': 0.45, 'rescaleHeight': False, 'trialN': 75, 'loaded': True, 'loadedTime': 2472.7000000476837, 'positionName': 'RIGHT', 'positionCoords': [998.4, 395], 'bid': 6.41}]",114295.39999985695,1669835871979,baked potato,popsicles,6.13,6.41,0.28000000000000025,baked potato,631.2000000476837,631,631.5,True,u,115441.0,1145.6000001430511,1669835873124,1145,HRV,HRV_0250,2022-11-30 19:20:26
76,"[{'imgObject': {}, 'id': 'edamame', 'src': '/static/foodstim60/edamame.jpg', 'key': 'u', 'origWidth': 409, 'origHeight': 410, 'width': 409, 'height': 410, 'widthPercent': 0.45, 'rescaleHeight': False, 'trialN': 76, 'loaded': True, 'loadedTime': 2455.5999999046326, 'positionName': 'LEFT', 'positionCoords': [512.6, 395], 'bid': 6.36}, {'imgObject': {}, 'id': 'raspberries', 'src': '/static/foodstim60/raspberries.jpg', 'key': 'i', 'origWidth': 411, 'origHeight': 411, 'width': 411, 'height': 411, 'widthPercent': 0.45, 'rescaleHeight': False, 'trialN': 76, 'loaded': True, 'loadedTime': 2572, 'positionName': 'RIGHT', 'positionCoords': [998.4, 394.5], 'bid': 3.6}]",115441.09999990463,1669835873124,edamame,raspberries,6.36,3.6,-2.7600000000000002,edamame,733.7000000476837,734,734.0,True,u,116692.79999995232,1251.7000000476837,1669835874376,1252,HRV,HRV_0250,2022-11-30 19:20:26
77,"[{'imgObject': {}, 'id': 'mashed potato', 'src': '/static/foodstim60/mashed potato.jpg', 'key': 'u', 'origWidth': 409, 'origHeight': 409, 'width': 409, 'height': 409, 'widthPercent': 0.45, 'rescaleHeight': False, 'trialN': 77, 'loaded': True, 'loadedTime': 2621.2000000476837, 'positionName': 'LEFT', 'positionCoords': [512.6, 395.5], 'bid': 7.87}, {'imgObject': {}, 'id': 'hashbrowns', 'src': '/static/foodstim60/hashbrowns.jpg', 'key': 'i', 'origWidth': 411, 'origHeight': 410, 'width': 411, 'height': 410, 'widthPercent': 0.45, 'rescaleHeight': False, 'trialN': 77, 'loaded': True, 'loadedTime': 2539.0999999046326, 'positionName': 'RIGHT', 'positionCoords': [998.4, 395], 'bid': 1.75}]",116692.89999985695,1669835874376,mashed potato,hashbrowns,7.87,1.75,-6.12,mashed potato,857.8000001907349,858,858.2000000476837,True,u,118056.39999985695,1363.5,1669835875740,1364,HRV,HRV_0250,2022-11-30 19:20:26
78,"[{'imgObject': {}, 'id': 'cherry tomato', 'src': '/static/foodstim60/cherry tomato.jpg', 'key': 'u', 'origWidth': 410, 'origHeight': 410, 'width': 410, 'height': 410, 'widthPercent': 0.45, 'rescaleHeight': False, 'trialN': 78, 'loaded': True, 'loadedTime': 2675.0999999046326, 'positionName': 'LEFT', 'positionCoords': [511.6, 395], 'bid': 7.2}, {'imgObject': {}, 'id': 'rigatoni and sauce', 'src': '/static/foodstim60/rigatoni and sauce.jpg', 'key': 'i', 'origWidth': 410, 'origHeight': 411, 'width': 410, 'height': 411, 'widthPercent': 0.45, 'rescaleHeight': False, 'trialN': 78, 'loaded': True, 'loadedTime': 2378.399999856949, 'positionName': 'RIGHT', 'positionCoords': [998.4, 394.5], 'bid': 9.36}]",118056.5,1669835875740,cherry tomato,rigatoni and sauce,7.2,9.36,2.1599999999999993,rigatoni and sauce,678.2000000476837,678,678.5,True,i,119247.89999985695,1191.3999998569489,1669835876931,1191,HRV,HRV_0250,2022-11-30 19:20:26
79,"[{'imgObject': {}, 'id': 'cherry tomato', 'src': '/static/foodstim60/cherry tomato.jpg', 'key': 'u', 'origWidth': 410, 'origHeight': 410, 'width': 410, 'height': 410, 'widthPercent': 0.45, 'rescaleHeight': False, 'trialN': 79, 'loaded': True, 'loadedTime': 2674.5999999046326, 'positionName': 'LEFT', 'positionCoords': [511.6, 395], 'bid': 7.2}, {'imgObject': {}, 'id': 'apple slices', 'src': '/static/foodstim60/apple slices.jpg', 'key': 'i', 'origWidth': 409, 'origHeight': 410, 'width': 409, 'height': 410, 'widthPercent': 0.45, 'rescaleHeight': False, 'trialN': 79, 'loaded': True, 'loadedTime': 2299.5999999046326, 'positionName': 'RIGHT', 'positionCoords': [998.4, 395], 'bid': 7.51}]",119248.09999990463,1669835876931,cherry tomato,apple slices,7.2,7.51,0.3099999999999996,apple slices,878.4000000953674,879,878.7000000476837,True,i,120646.70000004768,1398.6000001430511,1669835878330,1399,HRV,HRV_0250,2022-11-30 19:20:26
80,"[{'imgObject': {}, 'id': 'rigatoni and sauce', 'src': '/static/foodstim60/rigatoni and sauce.jpg', 'key': 'u', 'origWidth': 410, 'origHeight': 411, 'width': 410, 'height': 411, 'widthPercent': 0.45, 'rescaleHeight': False, 'trialN': 80, 'loaded': True, 'loadedTime': 2379.0999999046326, 'positionName': 'LEFT', 'positionCoords': [511.6, 394.5], 'bid': 9.36}, {'imgObject': {}, 'id': 'turkey sandwich', 'src': '/static/foodstim60/turkey sandwich.jpg', 'key': 'i', 'origWidth': 409, 'origHeight': 409, 'width': 409, 'height': 409, 'widthPercent': 0.45, 'rescaleHeight': False, 'trialN': 80, 'loaded': True, 'loadedTime': 2634.7999999523163, 'positionName': 'RIGHT', 'positionCoords': [998.4, 395.5], 'bid': 9.82}]",120646.70000004768,1669835878330,rigatoni and sauce,turkey sandwich,9.36,9.82,0.46000000000000085,turkey sandwich,1272.0999999046326,1272,1272.5,True,i,122444.09999990463,1797.3999998569489,1669835880127,1797,HRV,HRV_0250,2022-11-30 19:20:26
81,"[{'imgObject': {}, 'id': 'roastedpotatoes', 'src': '/static/foodstim60/roastedpotatoes.jpg', 'key': 'u', 'origWidth': 409, 'origHeight': 410, 'width': 409, 'height': 410, 'widthPercent': 0.45, 'rescaleHeight': False, 'trialN': 81, 'loaded': True, 'loadedTime': 2383, 'positionName': 'LEFT', 'positionCoords': [512.6, 395], 'bid': 7.07}, {'imgObject': {}, 'id': 'lox', 'src': '/static/foodstim60/lox.jpg', 'key': 'i', 'origWidth': 410, 'origHeight': 411, 'width': 410, 'height': 411, 'widthPercent': 0.45, 'rescaleHeight': False, 'trialN': 81, 'loaded': True, 'loadedTime': 2618.7000000476837, 'positionName': 'RIGHT', 'positionCoords': [998.4, 394.5], 'bid': 0.29}]",122444.20000004768,1669835880127,roastedpotatoes,lox,7.07,0.29,-6.78,roastedpotatoes,690.5,691,690.7999999523163,True,u,123643.59999990463,1199.3999998569489,1669835881327,1200,HRV,HRV_0250,2022-11-30 19:20:26
82,"[{'imgObject': {}, 'id': 'yogurt no spoon', 'src': '/static/foodstim60/yogurt no spoon.jpg', 'key': 'u', 'origWidth': 411, 'origHeight': 410, 'width': 411, 'height': 410, 'widthPercent': 0.45, 'rescaleHeight': False, 'trialN': 82, 'loaded': True, 'loadedTime': 2200.399999856949, 'positionName': 'LEFT', 'positionCoords': [510.6, 395], 'bid': 5.7}, {'imgObject': {}, 'id': 'burger', 'src': '/static/foodstim60/burger.jpg', 'key': 'i', 'origWidth': 409, 'origHeight': 409, 'width': 409, 'height': 409, 'widthPercent': 0.45, 'rescaleHeight': False, 'trialN': 82, 'loaded': True, 'loadedTime': 2538.5, 'positionName': 'RIGHT', 'positionCoords': [998.4, 395.5], 'bid': 9.35}]",123643.79999995232,1669835881327,yogurt no spoon,burger,5.7,9.35,3.6499999999999995,burger,882.7999999523163,883,883.0,True,i,125031.79999995232,1388.0,1669835882715,1388,HRV,HRV_0250,2022-11-30 19:20:26
83,"[{'imgObject': {}, 'id': 'veggieswithdip', 'src': '/static/foodstim60/veggieswithdip.jpg', 'key': 'u', 'origWidth': 409, 'origHeight': 409, 'width': 409, 'height': 409, 'widthPercent': 0.45, 'rescaleHeight': False, 'trialN': 83, 'loaded': True, 'loadedTime': 2673.399999856949, 'positionName': 'LEFT', 'positionCoords': [512.6, 395.5], 'bid': 9.11}, {'imgObject': {}, 'id': 'Tribe humus pita', 'src': '/static/foodstim60/Tribe humus pita.jpg', 'key': 'i', 'origWidth': 411, 'origHeight': 411, 'width': 411, 'height': 411, 'widthPercent': 0.45, 'rescaleHeight': False, 'trialN': 83, 'loaded': True, 'loadedTime': 2658.7999999523163, 'positionName': 'RIGHT', 'positionCoords': [998.4, 394.5], 'bid': 3.66}]",125031.89999985695,1669835882715,veggieswithdip,Tribe humus pita,9.11,3.66,-5.449999999999999,veggieswithdip,790.9000000953674,791,791.3000001907349,True,u,126328.0,1296.1000001430511,1669835884011,1296,HRV,HRV_0250,2022-11-30 19:20:26
84,"[{'imgObject': {}, 'id': 'veggieswithdip', 'src': '/static/foodstim60/veggieswithdip.jpg', 'key': 'u', 'origWidth': 409, 'origHeight': 409, 'width': 409, 'height': 409, 'widthPercent': 0.45, 'rescaleHeight': False, 'trialN': 84, 'loaded': True, 'loadedTime': 2673.5, 'positionName': 'LEFT', 'positionCoords': [512.6, 395.5], 'bid': 9.11}, {'imgObject': {}, 'id': 'banana', 'src': '/static/foodstim60/banana.jpg', 'key': 'i', 'origWidth': 410, 'origHeight': 410, 'width': 410, 'height': 410, 'widthPercent': 0.45, 'rescaleHeight': False, 'trialN': 84, 'loaded': True, 'loadedTime': 2628.899999856949, 'positionName': 'RIGHT', 'positionCoords': [998.4, 395], 'bid': 9.75}]",126328.20000004768,1669835884011,veggieswithdip,banana,9.11,9.75,0.6400000000000006,veggieswithdip,854.5999999046326,855,854.7999999523163,True,u,127688.20000004768,1360.0,1669835885371,1360,HRV,HRV_0250,2022-11-30 19:20:26
85,"[{'imgObject': {}, 'id': 'granola w milk', 'src': '/static/foodstim60/granola w milk.jpg', 'key': 'u', 'origWidth': 410, 'origHeight': 410, 'width': 410, 'height': 410, 'widthPercent': 0.45, 'rescaleHeight': False, 'trialN': 85, 'loaded': True, 'loadedTime': 2603.2999999523163, 'positionName': 'LEFT', 'positionCoords': [511.6, 395], 'bid': 0.87}, {'imgObject': {}, 'id': 'rigatoni', 'src': '/static/foodstim60/rigatoni.jpg', 'key': 'i', 'origWidth': 411, 'origHeight': 411, 'width': 411, 'height': 411, 'widthPercent': 0.45, 'rescaleHeight': False, 'trialN': 85, 'loaded': True, 'loadedTime': 2676.399999856949, 'positionName': 'RIGHT', 'positionCoords': [998.4, 394.5], 'bid': 5.83}]",127688.29999995232,1669835885371,granola w milk,rigatoni,0.87,5.83,4.96,rigatoni,1334.0999999046326,1335,1334.4000000953674,True,i,129534.79999995232,1846.5,1669835887218,1847,HRV,HRV_0250,2022-11-30 19:20:26
86,"[{'imgObject': {}, 'id': 'sweetpotato', 'src': '/static/foodstim60/sweetpotato.jpg', 'key': 'u', 'origWidth': 410, 'origHeight': 410, 'width': 410, 'height': 410, 'widthPercent': 0.45, 'rescaleHeight': False, 'trialN': 86, 'loaded': True, 'loadedTime': 2389.399999856949, 'positionName': 'LEFT', 'positionCoords': [511.6, 395], 'bid': 0.23}, {'imgObject': {}, 'id': 'olives', 'src': '/static/foodstim60/olives.jpg', 'key': 'i', 'origWidth': 410, 'origHeight': 410, 'width': 410, 'height': 410, 'widthPercent': 0.45, 'rescaleHeight': False, 'trialN': 86, 'loaded': True, 'loadedTime': 2194.5, 'positionName': 'RIGHT', 'positionCoords': [998.4, 395], 'bid': 0.11}]",129534.89999985695,1669835887218,sweetpotato,olives,0.23,0.11,-0.12000000000000001,sweetpotato,671.5,672,671.8000001907349,True,u,130722.09999990463,1187.2000000476837,1669835888407,1189,HRV,HRV_0250,2022-11-30 19:20:26
87,"[{'imgObject': {}, 'id': 'orange slices', 'src': '/static/foodstim60/orange slices.jpg', 'key': 'u', 'origWidth': 409, 'origHeight': 410, 'width': 409, 'height': 410, 'widthPercent': 0.45, 'rescaleHeight': False, 'trialN': 87, 'loaded': True, 'loadedTime': 2633.899999856949, 'positionName': 'LEFT', 'positionCoords': [512.6, 395], 'bid': 6.08}, {'imgObject': {}, 'id': 'chickenfingers', 'src': '/static/foodstim60/chickenfingers.jpg', 'key': 'i', 'origWidth': 410, 'origHeight': 410, 'width': 410, 'height': 410, 'widthPercent': 0.45, 'rescaleHeight': False, 'trialN': 87, 'loaded': True, 'loadedTime': 2677.5, 'positionName': 'RIGHT', 'positionCoords': [998.4, 395], 'bid': 9.58}]",130722.20000004768,1669835888407,orange slices,chickenfingers,6.08,9.58,3.5,chickenfingers,748.5999999046326,749,748.8999998569489,True,i,131990.79999995232,1268.5999999046326,1669835889676,1269,HRV,HRV_0250,2022-11-30 19:20:26
88,"[{'imgObject': {}, 'id': 'burrito', 'src': '/static/foodstim60/burrito.jpg', 'key': 'u', 'origWidth': 410, 'origHeight': 410, 'width': 410, 'height': 410, 'widthPercent': 0.45, 'rescaleHeight': False, 'trialN': 88, 'loaded': True, 'loadedTime': 2689.899999856949, 'positionName': 'LEFT', 'positionCoords': [511.6, 395], 'bid': 9.19}, {'imgObject': {}, 'id': 'froot loops w milk', 'src': '/static/foodstim60/froot loops w milk.jpg', 'key': 'i', 'origWidth': 410, 'origHeight': 410, 'width': 410, 'height': 410, 'widthPercent': 0.45, 'rescaleHeight': False, 'trialN': 88, 'loaded': True, 'loadedTime': 2434.7000000476837, 'positionName': 'RIGHT', 'positionCoords': [998.4, 395], 'bid': 6.86}]",131991.09999990463,1669835889676,burrito,froot loops w milk,9.19,6.86,-2.329999999999999,burrito,887.4000000953674,888,887.7000000476837,True,u,133393.70000004768,1402.6000001430511,1669835891078,1402,HRV,HRV_0250,2022-11-30 19:20:26
89,"[{'imgObject': {}, 'id': 'raspberries', 'src': '/static/foodstim60/raspberries.jpg', 'key': 'u', 'origWidth': 411, 'origHeight': 411, 'width': 411, 'height': 411, 'widthPercent': 0.45, 'rescaleHeight': False, 'trialN': 89, 'loaded': True, 'loadedTime': 2571.0999999046326, 'positionName': 'LEFT', 'positionCoords': [510.6, 394.5], 'bid': 3.6}, {'imgObject': {}, 'id': 'mac & cheese', 'src': '/static/foodstim60/mac & cheese.jpg', 'key': 'i', 'origWidth': 410, 'origHeight': 410, 'width': 410, 'height': 410, 'widthPercent': 0.45, 'rescaleHeight': False, 'trialN': 89, 'loaded': True, 'loadedTime': 2482.399999856949, 'positionName': 'RIGHT', 'positionCoords': [998.4, 395], 'bid': 9.05}]",133393.79999995232,1669835891078,raspberries,mac & cheese,3.6,9.05,5.450000000000001,mac & cheese,652.7000000476837,654,653.0999999046326,True,i,134565.39999985695,1171.5999999046326,1669835892250,1172,HRV,HRV_0250,2022-11-30 19:20:26
90,"[{'imgObject': {}, 'id': 'luckycharms', 'src': '/static/foodstim60/luckycharms.jpg', 'key': 'u', 'origWidth': 410, 'origHeight': 409, 'width': 410, 'height': 409, 'widthPercent': 0.45, 'rescaleHeight': False, 'trialN': 90, 'loaded': True, 'loadedTime': 2421.7999999523163, 'positionName': 'LEFT', 'positionCoords': [511.6, 395.5], 'bid': 3.22}, {'imgObject': {}, 'id': 'eggsalad', 'src': '/static/foodstim60/eggsalad.jpg', 'key': 'i', 'origWidth': 410, 'origHeight': 409, 'width': 410, 'height': 409, 'widthPercent': 0.45, 'rescaleHeight': False, 'trialN': 90, 'loaded': True, 'loadedTime': 2333, 'positionName': 'RIGHT', 'positionCoords': [998.4, 395.5], 'bid': 5.65}]",139686.20000004768,1669835897371,luckycharms,eggsalad,3.22,5.65,2.43,eggsalad,1384.5,1385,1384.6999998092651,True,i,141581.70000004768,1895.5,1669835899266,1895,HRV,HRV_0250,2022-11-30 19:20:26
91,"[{'imgObject': {}, 'id': 'cherry tomato', 'src': '/static/foodstim60/cherry tomato.jpg', 'key': 'u', 'origWidth': 410, 'origHeight': 410, 'width': 410, 'height': 410, 'widthPercent': 0.45, 'rescaleHeight': False, 'trialN': 91, 'loaded': True, 'loadedTime': 2675.2000000476837, 'positionName': 'LEFT', 'positionCoords': [511.6, 395], 'bid': 7.2}, {'imgObject': {}, 'id': 'blueberries', 'src': '/static/foodstim60/blueberries.jpg', 'key': 'i', 'origWidth': 411, 'origHeight': 411, 'width': 411, 'height': 411, 'widthPercent': 0.45, 'rescaleHeight': False, 'trialN': 91, 'loaded': True, 'loadedTime': 2627.2999999523163, 'positionName': 'RIGHT', 'positionCoords': [998.4, 394.5], 'bid': 6.25}]",141581.70000004768,1669835899267,cherry tomato,blueberries,7.2,6.25,-0.9500000000000002,cherry tomato,768.6999998092651,769,769.0999999046326,True,u,142857.89999985695,1276.1999998092651,1669835900543,1276,HRV,HRV_0250,2022-11-30 19:20:26
92,"[{'imgObject': {}, 'id': 'kiwi', 'src': '/static/foodstim60/kiwi.jpg', 'key': 'u', 'origWidth': 410, 'origHeight': 410, 'width': 410, 'height': 410, 'widthPercent': 0.45, 'rescaleHeight': False, 'trialN': 92, 'loaded': True, 'loadedTime': 2671.7999999523163, 'positionName': 'LEFT', 'positionCoords': [511.6, 395], 'bid': 6.7700000000000005}, {'imgObject': {}, 'id': 'grilled chicken strips', 'src': '/static/foodstim60/grilled chicken strips.jpg', 'key': 'i', 'origWidth': 410, 'origHeight': 411, 'width': 410, 'height': 411, 'widthPercent': 0.45, 'rescaleHeight': False, 'trialN': 92, 'loaded': True, 'loadedTime': 2400.5999999046326, 'positionName': 'RIGHT', 'positionCoords': [998.4, 394.5], 'bid': 6.9}]",142858.0,1669835900543,kiwi,grilled chicken strips,6.7700000000000005,6.9,0.1299999999999999,grilled chicken strips,740.7000000476837,741,741.0999999046326,True,i,144104.79999995232,1246.7999999523163,1669835901790,1247,HRV,HRV_0250,2022-11-30 19:20:26
93,"[{'imgObject': {}, 'id': 'salmon', 'src': '/static/foodstim60/salmon.jpg', 'key': 'u', 'origWidth': 410, 'origHeight': 409, 'width': 410, 'height': 409, 'widthPercent': 0.45, 'rescaleHeight': False, 'trialN': 93, 'loaded': True, 'loadedTime': 2619.7999999523163, 'positionName': 'LEFT', 'positionCoords': [511.6, 395.5], 'bid': 0.25}, {'imgObject': {}, 'id': 'raspberries', 'src': '/static/foodstim60/raspberries.jpg', 'key': 'i', 'origWidth': 411, 'origHeight': 411, 'width': 411, 'height': 411, 'widthPercent': 0.45, 'rescaleHeight': False, 'trialN': 93, 'loaded': True, 'loadedTime': 2572, 'positionName': 'RIGHT', 'positionCoords': [998.4, 394.5], 'bid': 3.6}]",144105.0,1669835901790,salmon,raspberries,0.25,3.6,3.35,raspberries,693.7000000476837,694,693.8999998569489,True,i,145315.59999990463,1210.5999999046326,1669835903000,1210,HRV,HRV_0250,2022-11-30 19:20:26
94,"[{'imgObject': {}, 'id': 'hashbrowns', 'src': '/static/foodstim60/hashbrowns.jpg', 'key': 'u', 'origWidth': 411, 'origHeight': 410, 'width': 411, 'height': 410, 'widthPercent': 0.45, 'rescaleHeight': False, 'trialN': 94, 'loaded': True, 'loadedTime': 2548.7999999523163, 'positionName': 'LEFT', 'positionCoords': [510.6, 395], 'bid': 1.75}, {'imgObject': {}, 'id': 'orange slices', 'src': '/static/foodstim60/orange slices.jpg', 'key': 'i', 'origWidth': 409, 'origHeight': 410, 'width': 409, 'height': 410, 'widthPercent': 0.45, 'rescaleHeight': False, 'trialN': 94, 'loaded': True, 'loadedTime': 2632.7000000476837, 'positionName': 'RIGHT', 'positionCoords': [998.4, 395], 'bid': 6.08}]",145315.70000004768,1669835903000,hashbrowns,orange slices,1.75,6.08,4.33,orange slices,810.7999999523163,812,811.0999999046326,True,i,146641.5,1325.7999999523163,1669835904326,1326,HRV,HRV_0250,2022-11-30 19:20:26
95,"[{'imgObject': {}, 'id': 'seaweed', 'src': '/static/foodstim60/seaweed.jpg', 'key': 'u', 'origWidth': 410, 'origHeight': 410, 'width': 410, 'height': 410, 'widthPercent': 0.45, 'rescaleHeight': False, 'trialN': 95, 'loaded': True, 'loadedTime': 2197.0999999046326, 'positionName': 'LEFT', 'positionCoords': [511.6, 395], 'bid': 0.07}, {'imgObject': {}, 'id': 'cherries', 'src': '/static/foodstim60/cherries.jpg', 'key': 'i', 'origWidth': 410, 'origHeight': 411, 'width': 410, 'height': 411, 'widthPercent': 0.45, 'rescaleHeight': False, 'trialN': 95, 'loaded': True, 'loadedTime': 2202.2999999523163, 'positionName': 'RIGHT', 'positionCoords': [998.4, 394.5], 'bid': 6.38}]",146641.59999990463,1669835904326,seaweed,cherries,0.07,6.38,6.31,cherries,637.2000000476837,638,637.7000000476837,True,i,147784.70000004768,1143.1000001430511,1669835905470,1144,HRV,HRV_0250,2022-11-30 19:20:26
96,"[{'imgObject': {}, 'id': 'banana', 'src': '/static/foodstim60/banana.jpg', 'key': 'u', 'origWidth': 410, 'origHeight': 410, 'width': 410, 'height': 410, 'widthPercent': 0.45, 'rescaleHeight': False, 'trialN': 96, 'loaded': True, 'loadedTime': 2628.7999999523163, 'positionName': 'LEFT', 'positionCoords': [511.6, 395], 'bid': 9.75}, {'imgObject': {}, 'id': 'blueberries', 'src': '/static/foodstim60/blueberries.jpg', 'key': 'i', 'origWidth': 411, 'origHeight': 411, 'width': 411, 'height': 411, 'widthPercent': 0.45, 'rescaleHeight': False, 'trialN': 96, 'loaded': True, 'loadedTime': 2626.5, 'positionName': 'RIGHT', 'positionCoords': [998.4, 394.5], 'bid': 6.25}]",147784.79999995232,1669835905470,banana,blueberries,9.75,6.25,-3.5,banana,965.7999999523163,966,966.0999999046326,True,u,149260.09999990463,1475.2999999523163,1669835906945,1475,HRV,HRV_0250,2022-11-30 19:20:26
97,"[{'imgObject': {}, 'id': 'blackbeanswithrice', 'src': '/static/foodstim60/blackbeanswithrice.jpg', 'key': 'u', 'origWidth': 410, 'origHeight': 410, 'width': 410, 'height': 410, 'widthPercent': 0.45, 'rescaleHeight': False, 'trialN': 97, 'loaded': True, 'loadedTime': 2310.5, 'positionName': 'LEFT', 'positionCoords': [511.6, 395], 'bid': 9.26}, {'imgObject': {}, 'id': 'grilled chicken strips', 'src': '/static/foodstim60/grilled chicken strips.jpg', 'key': 'i', 'origWidth': 410, 'origHeight': 411, 'width': 410, 'height': 411, 'widthPercent': 0.45, 'rescaleHeight': False, 'trialN': 97, 'loaded': True, 'loadedTime': 2400.5999999046326, 'positionName': 'RIGHT', 'positionCoords': [998.4, 394.5], 'bid': 6.9}]",149260.20000004768,1669835906945,blackbeanswithrice,grilled chicken strips,9.26,6.9,-2.3599999999999994,grilled chicken strips,626.5999999046326,627,626.8999998569489,True,i,150395.0,1134.7999999523163,1669835908080,1135,HRV,HRV_0250,2022-11-30 19:20:26
98,"[{'imgObject': {}, 'id': 'yogurt no spoon', 'src': '/static/foodstim60/yogurt no spoon.jpg', 'key': 'u', 'origWidth': 411, 'origHeight': 410, 'width': 411, 'height': 410, 'widthPercent': 0.45, 'rescaleHeight': False, 'trialN': 98, 'loaded': True, 'loadedTime': 2199.2999999523163, 'positionName': 'LEFT', 'positionCoords': [510.6, 395], 'bid': 5.7}, {'imgObject': {}, 'id': 'rigatoni', 'src': '/static/foodstim60/rigatoni.jpg', 'key': 'i', 'origWidth': 411, 'origHeight': 411, 'width': 411, 'height': 411, 'widthPercent': 0.45, 'rescaleHeight': False, 'trialN': 98, 'loaded': True, 'loadedTime': 2676.2000000476837, 'positionName': 'RIGHT', 'positionCoords': [998.4, 394.5], 'bid': 5.83}]",150395.09999990463,1669835908080,yogurt no spoon,rigatoni,5.7,5.83,0.1299999999999999,rigatoni,883.5,884,883.9000000953674,True,i,151784.70000004768,1389.6000001430511,1669835909469,1389,HRV,HRV_0250,2022-11-30 19:20:26
99,"[{'imgObject': {}, 'id': 'bagel plain', 'src': '/static/foodstim60/bagel plain.jpg', 'key': 'u', 'origWidth': 410, 'origHeight': 410, 'width': 410, 'height': 410, 'widthPercent': 0.45, 'rescaleHeight': False, 'trialN': 99, 'loaded': True, 'loadedTime': 2194.2000000476837, 'positionName': 'LEFT', 'positionCoords': [511.6, 395], 'bid': 5.98}, {'imgObject': {}, 'id': 'froot loops w milk', 'src': '/static/foodstim60/froot loops w milk.jpg', 'key': 'i', 'origWidth': 410, 'origHeight': 410, 'width': 410, 'height': 410, 'widthPercent': 0.45, 'rescaleHeight': False, 'trialN': 99, 'loaded': True, 'loadedTime': 2434.899999856949, 'positionName': 'RIGHT', 'positionCoords': [998.4, 395], 'bid': 6.86}]",151784.89999985695,1669835909470,bagel plain,froot loops w milk,5.98,6.86,0.8799999999999999,bagel plain,1221.5,1222,1221.9000000953674,True,u,153518.70000004768,1733.8000001907349,1669835911203,1733,HRV,HRV_0250,2022-11-30 19:20:26
100,"[{'imgObject': {}, 'id': 'chicken nuggets2', 'src': '/static/foodstim60/chicken nuggets2.jpg', 'key': 'u', 'origWidth': 410, 'origHeight': 409, 'width': 410, 'height': 409, 'widthPercent': 0.45, 'rescaleHeight': False, 'trialN': 100, 'loaded': True, 'loadedTime': 2479, 'positionName': 'LEFT', 'positionCoords': [511.6, 395.5], 'bid': 9.11}, {'imgObject': {}, 'id': 'mashed potato', 'src': '/static/foodstim60/mashed potato.jpg', 'key': 'i', 'origWidth': 409, 'origHeight': 409, 'width': 409, 'height': 409, 'widthPercent': 0.45, 'rescaleHeight': False, 'trialN': 100, 'loaded': True, 'loadedTime': 2621.399999856949, 'positionName': 'RIGHT', 'positionCoords': [998.4, 395.5], 'bid': 7.87}]",153518.79999995232,1669835911204,chicken nuggets2,mashed potato,9.11,7.87,-1.2399999999999993,chicken nuggets2,671.7000000476837,672,672.0,True,u,154710.89999985695,1192.0999999046326,1669835912396,1192,HRV,HRV_0250,2022-11-30 19:20:26
101,"[{'imgObject': {}, 'id': 'seaweed', 'src': '/static/foodstim60/seaweed.jpg', 'key': 'u', 'origWidth': 410, 'origHeight': 410, 'width': 410, 'height': 410, 'widthPercent': 0.45, 'rescaleHeight': False, 'trialN': 101, 'loaded': True, 'loadedTime': 2196.7999999523163, 'positionName': 'LEFT', 'positionCoords': [511.6, 395], 'bid': 0.07}, {'imgObject': {}, 'id': 'granola w milk', 'src': '/static/foodstim60/granola w milk.jpg', 'key': 'i', 'origWidth': 410, 'origHeight': 410, 'width': 410, 'height': 410, 'widthPercent': 0.45, 'rescaleHeight': False, 'trialN': 101, 'loaded': True, 'loadedTime': 2614.2999999523163, 'positionName': 'RIGHT', 'positionCoords': [998.4, 395], 'bid': 0.87}]",154710.89999985695,1669835912396,seaweed,granola w milk,0.07,0.87,0.8,granola w milk,615.8000001907349,616,616.2000000476837,True,i,155846.5,1135.6000001430511,1669835913531,1135,HRV,HRV_0250,2022-11-30 19:20:26
102,"[{'imgObject': {}, 'id': 'corn cob', 'src': '/static/foodstim60/corn cob.jpg', 'key': 'u', 'origWidth': 411, 'origHeight': 411, 'width': 411, 'height': 411, 'widthPercent': 0.45, 'rescaleHeight': False, 'trialN': 102, 'loaded': True, 'loadedTime': 2656.2999999523163, 'positionName': 'LEFT', 'positionCoords': [510.6, 394.5], 'bid': 5.55}, {'imgObject': {}, 'id': 'burrito', 'src': '/static/foodstim60/burrito.jpg', 'key': 'i', 'origWidth': 410, 'origHeight': 410, 'width': 410, 'height': 410, 'widthPercent': 0.45, 'rescaleHeight': False, 'trialN': 102, 'loaded': True, 'loadedTime': 2691, 'positionName': 'RIGHT', 'positionCoords': [998.4, 395], 'bid': 9.19}]",155846.59999990463,1669835913531,corn cob,burrito,5.55,9.19,3.6399999999999997,burrito,775.7999999523163,776,776.1000001430511,True,i,157143.59999990463,1297.0,1669835914828,1297,HRV,HRV_0250,2022-11-30 19:20:26
103,"[{'imgObject': {}, 'id': 'chickenfingers', 'src': '/static/foodstim60/chickenfingers.jpg', 'key': 'u', 'origWidth': 410, 'origHeight': 410, 'width': 410, 'height': 410, 'widthPercent': 0.45, 'rescaleHeight': False, 'trialN': 103, 'loaded': True, 'loadedTime': 2677.5999999046326, 'positionName': 'LEFT', 'positionCoords': [511.6, 395], 'bid': 9.58}, {'imgObject': {}, 'id': 'burrito', 'src': '/static/foodstim60/burrito.jpg', 'key': 'i', 'origWidth': 410, 'origHeight': 410, 'width': 410, 'height': 410, 'widthPercent': 0.45, 'rescaleHeight': False, 'trialN': 103, 'loaded': True, 'loadedTime': 2691.2000000476837, 'positionName': 'RIGHT', 'positionCoords': [998.4, 395], 'bid': 9.19}]",157143.70000004768,1669835914828,chickenfingers,burrito,9.58,9.19,-0.39000000000000057,chickenfingers,1159.0,1160,1159.5,True,u,158808.79999995232,1665.0999999046326,1669835916494,1666,HRV,HRV_0250,2022-11-30 19:20:26
104,"[{'imgObject': {}, 'id': 'cheerios', 'src': '/static/foodstim60/cheerios.jpg', 'key': 'u', 'origWidth': 409, 'origHeight': 410, 'width': 409, 'height': 410, 'widthPercent': 0.45, 'rescaleHeight': False, 'trialN': 104, 'loaded': True, 'loadedTime': 2582.5, 'positionName': 'LEFT', 'positionCoords': [512.6, 395], 'bid': 3.65}, {'imgObject': {}, 'id': 'rigatoni', 'src': '/static/foodstim60/rigatoni.jpg', 'key': 'i', 'origWidth': 411, 'origHeight': 411, 'width': 411, 'height': 411, 'widthPercent': 0.45, 'rescaleHeight': False, 'trialN': 104, 'loaded': True, 'loadedTime': 2676.2999999523163, 'positionName': 'RIGHT', 'positionCoords': [998.4, 394.5], 'bid': 5.83}]",158809.0,1669835916494,cheerios,rigatoni,3.65,5.83,2.18,rigatoni,581.3999998569489,582,581.7999999523163,True,i,159900.5,1091.5,1669835917585,1091,HRV,HRV_0250,2022-11-30 19:20:26
105,"[{'imgObject': {}, 'id': 'chickenfingers', 'src': '/static/foodstim60/chickenfingers.jpg', 'key': 'u', 'origWidth': 410, 'origHeight': 410, 'width': 410, 'height': 410, 'widthPercent': 0.45, 'rescaleHeight': False, 'trialN': 105, 'loaded': True, 'loadedTime': 2677.5, 'positionName': 'LEFT', 'positionCoords': [511.6, 395], 'bid': 9.58}, {'imgObject': {}, 'id': 'mac & cheese', 'src': '/static/foodstim60/mac & cheese.jpg', 'key': 'i', 'origWidth': 410, 'origHeight': 410, 'width': 410, 'height': 410, 'widthPercent': 0.45, 'rescaleHeight': False, 'trialN': 105, 'loaded': True, 'loadedTime': 2482.2999999523163, 'positionName': 'RIGHT', 'positionCoords': [998.4, 395], 'bid': 9.05}]",159900.59999990463,1669835917585,chickenfingers,mac & cheese,9.58,9.05,-0.5299999999999994,chickenfingers,1058.2000000476837,1059,1058.5,True,u,161468.79999995232,1568.2000000476837,1669835919154,1569,HRV,HRV_0250,2022-11-30 19:20:26
106,"[{'imgObject': {}, 'id': 'cocktailshrimp', 'src': '/static/foodstim60/cocktailshrimp.jpg', 'key': 'u', 'origWidth': 410, 'origHeight': 410, 'width': 410, 'height': 410, 'widthPercent': 0.45, 'rescaleHeight': False, 'trialN': 106, 'loaded': True, 'loadedTime': 2645.0999999046326, 'positionName': 'LEFT', 'positionCoords': [511.6, 395], 'bid': 4.0200000000000005}, {'imgObject': {}, 'id': 'bagel plain', 'src': '/static/foodstim60/bagel plain.jpg', 'key': 'i', 'origWidth': 410, 'origHeight': 410, 'width': 410, 'height': 410, 'widthPercent': 0.45, 'rescaleHeight': False, 'trialN': 106, 'loaded': True, 'loadedTime': 2194, 'positionName': 'RIGHT', 'positionCoords': [998.4, 395], 'bid': 5.98}]",161468.89999985695,1669835919154,cocktailshrimp,bagel plain,4.0200000000000005,5.98,1.96,bagel plain,1089.5,1089,1089.8000001907349,True,i,163064.39999985695,1595.5,1669835920749,1595,HRV,HRV_0250,2022-11-30 19:20:26
107,"[{'imgObject': {}, 'id': 'edamame', 'src': '/static/foodstim60/edamame.jpg', 'key': 'u', 'origWidth': 409, 'origHeight': 410, 'width': 409, 'height': 410, 'widthPercent': 0.45, 'rescaleHeight': False, 'trialN': 107, 'loaded': True, 'loadedTime': 2456.5, 'positionName': 'LEFT', 'positionCoords': [512.6, 395], 'bid': 6.36}, {'imgObject': {}, 'id': 'mango', 'src': '/static/foodstim60/mango.jpg', 'key': 'i', 'origWidth': 411, 'origHeight': 411, 'width': 411, 'height': 411, 'widthPercent': 0.45, 'rescaleHeight': False, 'trialN': 107, 'loaded': True, 'loadedTime': 2602.7999999523163, 'positionName': 'RIGHT', 'positionCoords': [998.4, 394.5], 'bid': 6.34}]",163064.5,1669835920749,edamame,mango,6.36,6.34,-0.020000000000000462,edamame,838.0999999046326,839,838.5999999046326,True,u,164407.79999995232,1343.2999999523163,1669835922093,1344,HRV,HRV_0250,2022-11-30 19:20:26
108,"[{'imgObject': {}, 'id': 'burger', 'src': '/static/foodstim60/burger.jpg', 'key': 'u', 'origWidth': 409, 'origHeight': 409, 'width': 409, 'height': 409, 'widthPercent': 0.45, 'rescaleHeight': False, 'trialN': 108, 'loaded': True, 'loadedTime': 2538.399999856949, 'positionName': 'LEFT', 'positionCoords': [512.6, 395.5], 'bid': 9.35}, {'imgObject': {}, 'id': 'burrito', 'src': '/static/foodstim60/burrito.jpg', 'key': 'i', 'origWidth': 410, 'origHeight': 410, 'width': 410, 'height': 410, 'widthPercent': 0.45, 'rescaleHeight': False, 'trialN': 108, 'loaded': True, 'loadedTime': 2691.2000000476837, 'positionName': 'RIGHT', 'positionCoords': [998.4, 395], 'bid': 9.19}]",164407.89999985695,1669835922093,burger,burrito,9.35,9.19,-0.16000000000000014,burrito,998.8000001907349,999,999.3000001907349,True,i,165912.70000004768,1504.8000001907349,1669835923597,1504,HRV,HRV_0250,2022-11-30 19:20:26
