success,trial_type,trial_index,time_elapsed,internal_node_id,Block,TrialNumber,TrialTime,trialTimeDiff,FPS_avg,FPS_med,FPS_mode,TrialDur,winResizeTime,rt,block,button_pressed,MotCoh,MotDir,ColCoh,Color,ChoiceKey,Choice,Accuracy,RT,nFrames,FPS,PPD,missTrial,missTrialMsg,onsetDelay,fullScreenExitTime,canvCenter,TrialType,Score,BlockTrial,stimulus,button_labels,exp,subjectId,date
True,fullscreen,0,2093,0.0-0.0,0.0,1.0,,,,,,,,,,,,,,,,,,,,,,,,,,,,,,,,HRV,HRV_0250,2022-11-30 19:44:26
,wl-check-fps,1,7084,0.0-1.0,0.0,2.0,"[2419.7, 2420.3, 2436.1, 2452.9, 2469.7, 2486.5, 2503.2, 2519.7, 2536.1, 2552.9, 2569.7, 2586.5, 2603, 2619.9, 2636.5, 2653.2, 2669.8, 2686.4, 2703, 2719.7, 2736.5, 2753.3, 2769.8, 2786.4, 2803.3, 2819.9, 2836.4, 2853.3, 2869.9, 2886.5, 2903.3, 2919.9, 2936.6, 2953.5, 2969.9, 2986.6, 3003.5, 3020.1, 3036.7, 3053.5, 3070.2, 3086.7, 3103.5, 3120.2, 3136.8, 3153.4, 3170.2, 3186.7, 3203.6, 3220.2, 3237, 3253.6, 3270.2, 3286.8, 3303.5, 3320.3, 3337, 3353.6, 3370.3, 3386.9, 3403.6, 3420.4, 3437.1, 3453.9, 3470.4, 3487.3, 3503.8, 3520.5, 3537, 3553.9, 3570.7, 3587.2, 3604, 3620.4, 3638.1, 3653.8, 3670.6, 3687.4, 3703.8, 3720.5, 3737.2, 3753.9, 3770.7, 3787.5, 3804, 3820.7, 3837.2, 3853.9, 3870.7, 3887.3, 3904, 3920.8, 3937.5, 3954.1, 3970.9, 3987.6, 4004.1, 4020.9, 4037.6, 4054.2, 4070.9, 4087.6, 4104.2, 4121, 4137.7, 4154.3, 4171, 4187.6, 4204.3, 4221.1, 4237.8, 4254.4, 4271, 4287.9, 4304.5, 4321.1, 4337.7, 4354.6, 4371.2, 4387.9, 4404.5, 4421.2, 4437.7, 4454.5, 4471.3, 4487.9, 4504.5, 4521.3, 4538.1, 4554.7, 4571.3, 4588, 4604.7, 4621.5, 4638, 4654.7, 4671.4, 4688.1, 4704.7, 4721.5, 4738.1, 4754.6, 4771.4, 4788.1, 4804.9, 4821.4, 4838.3, 4854.9, 4871.7, 4888.2, 4904.9, 4921.7, 4938.3, 4954.8, 4971.5, 4988.5, 5005, 5021.8, 5038.4, 5054.9, 5071.7, 5088.5, 5105, 5121.8, 5138.6, 5155.1, 5171.9, 5188.5, 5205.2, 5221.9, 5238.5, 5255.3, 5271.9, 5288.7, 5305.2, 5321.9, 5347.1, 5355.1, 5371.9, 5388.6, 5405.4, 5422.2, 5438.6, 5455.3, 5472.1, 5488.8, 5505.5, 5522.2, 5538.9, 5555.6, 5572.2, 5588.9, 5605.7, 5622.4, 5639, 5655.6, 5672.2, 5688.9, 5705.6, 5722.3, 5739, 5755.7, 5772.4, 5789.1, 5805.8, 5822.2, 5839.2, 5855.6, 5872.4, 5889.1, 5905.8, 5922.4, 5939.1, 5955.9, 5972.5, 5989.2, 6005.9, 6022.7, 6039.2, 6056, 6072.6, 6089.5, 6106.2, 6122.8, 6139.3, 6156, 6172.9, 6189.4, 6206.1, 6222.9, 6239.4, 6256, 6272.6, 6289.5, 6306.2, 6322.7, 6339.5, 6356.1, 6372.8, 6389.5, 6406.3, 6423, 6439.5, 6456.3, 6473.1, 6489.6, 6506.3, 6523.3, 6539.8, 6556.4, 6573.1, 6589.8, 6606.3, 6623.3, 6639.7, 6656.5, 6673.2, 6689.7, 6706.4, 6723.2, 6739.9, 6756.5, 6773.2, 6789.7, 6806.5, 6823.2, 6839.9, 6856.5, 6873.3, 6890, 6906.6, 6923.3, 6940, 6956.7, 6973.3, 6990, 7006.8, 7023.3, 7040.1, 7056.6, 7073.4, 7090.2, 7106.8, 7123.7, 7140.2, 7156.9, 7173.7, 7190.1, 7206.8, 7223.4, 7240.3, 7256.8, 7273.6, 7290.2, 7307, 7323.6, 7341.6, 7357.1, 7373.7, 7390.2]","[1.4, 0.6, 15.8, 16.8, 16.8, 16.8, 16.7, 16.5, 16.4, 16.8, 16.8, 16.8, 16.5, 16.9, 16.6, 16.7, 16.6, 16.6, 16.6, 16.7, 16.8, 16.8, 16.5, 16.6, 16.9, 16.6, 16.5, 16.9, 16.6, 16.6, 16.8, 16.6, 16.7, 16.9, 16.4, 16.7, 16.9, 16.6, 16.6, 16.8, 16.7, 16.5, 16.8, 16.7, 16.6, 16.6, 16.8, 16.5, 16.9, 16.6, 16.8, 16.6, 16.6, 16.6, 16.7, 16.8, 16.7, 16.6, 16.7, 16.6, 16.7, 16.8, 16.7, 16.8, 16.5, 16.9, 16.5, 16.7, 16.5, 16.9, 16.8, 16.5, 16.8, 16.4, 17.7, 15.7, 16.8, 16.8, 16.4, 16.7, 16.7, 16.7, 16.8, 16.8, 16.5, 16.7, 16.5, 16.7, 16.8, 16.6, 16.7, 16.8, 16.7, 16.6, 16.8, 16.7, 16.5, 16.8, 16.7, 16.6, 16.7, 16.7, 16.6, 16.8, 16.7, 16.6, 16.7, 16.6, 16.7, 16.8, 16.7, 16.6, 16.6, 16.9, 16.6, 16.6, 16.6, 16.9, 16.6, 16.7, 16.6, 16.7, 16.5, 16.8, 16.8, 16.6, 16.6, 16.8, 16.8, 16.6, 16.6, 16.7, 16.7, 16.8, 16.5, 16.7, 16.7, 16.7, 16.6, 16.8, 16.6, 16.5, 16.8, 16.7, 16.8, 16.5, 16.9, 16.6, 16.8, 16.5, 16.7, 16.8, 16.6, 16.5, 16.7, 17, 16.5, 16.8, 16.6, 16.5, 16.8, 16.8, 16.5, 16.8, 16.8, 16.5, 16.8, 16.6, 16.7, 16.7, 16.6, 16.8, 16.6, 16.8, 16.5, 16.7, 25.2, 8, 16.8, 16.7, 16.8, 16.8, 16.4, 16.7, 16.8, 16.7, 16.7, 16.7, 16.7, 16.7, 16.6, 16.7, 16.8, 16.7, 16.6, 16.6, 16.6, 16.7, 16.7, 16.7, 16.7, 16.7, 16.7, 16.7, 16.7, 16.4, 17, 16.4, 16.8, 16.7, 16.7, 16.6, 16.7, 16.8, 16.6, 16.7, 16.7, 16.8, 16.5, 16.8, 16.6, 16.9, 16.7, 16.6, 16.5, 16.7, 16.9, 16.5, 16.7, 16.8, 16.5, 16.6, 16.6, 16.9, 16.7, 16.5, 16.8, 16.6, 16.7, 16.7, 16.8, 16.7, 16.5, 16.8, 16.8, 16.5, 16.7, 17, 16.5, 16.6, 16.7, 16.7, 16.5, 17, 16.4, 16.8, 16.7, 16.5, 16.7, 16.8, 16.7, 16.6, 16.7, 16.5, 16.8, 16.7, 16.7, 16.6, 16.8, 16.7, 16.6, 16.7, 16.7, 16.7, 16.6, 16.7, 16.8, 16.5, 16.8, 16.5, 16.8, 16.8, 16.6, 16.9, 16.5, 16.7, 16.8, 16.4, 16.7, 16.6, 16.9, 16.5, 16.8, 16.6, 16.8, 16.6, 18, 15.5, 16.6, 16.5]",60.0,60.0,60.0,4988.8,[],,,,,,,,,,,,,,,,,,,,,,,,,HRV,HRV_0250,2022-11-30 19:44:26
,wl-html-keyboard-response,2,21422,0.0-2.0-0.0,0.0,3.0,,,,,,,,12317.099999904633,0.0,0,,,,,,,,,,,,,,,,,,,,,,HRV,HRV_0250,2022-11-30 19:44:26
,wl-rdm,3,27884,0.0-3.0-0.0,0.0,4.0,,,,,,,[],,,,0.0,0.0,87.9,0.0,u,0.0,True,903.7999999523163,55.0,60.0,40.0,False,,3000.0,[],"[960, 600]",ColorTask_Demo,,,,,HRV,HRV_0250,2022-11-30 19:44:26
,wl-rdm,4,32421,0.0-3.0-1.0,0.0,5.0,,,,,,,[],,,,0.0,0.0,87.9,1.0,i,1.0,True,471.89999985694885,29.0,60.0,40.0,False,,2000.0,[],"[960, 600]",ColorTask_Demo,,,,,HRV,HRV_0250,2022-11-30 19:44:26
,wl-html-keyboard-response,5,37741,0.0-3.0-2.0,0.0,6.0,,,,,,,,3315.7999999523163,0.0,1,,,,,,,,,,,,,,,,,,,,,,HRV,HRV_0250,2022-11-30 19:44:26
,wl-html-keyboard-response,6,45485,0.0-4.0-0.0,0.0,7.0,,,,,,,,5741.299999952316,0.0,0,,,,,,,,,,,,,,,,,,,,,,HRV,HRV_0250,2022-11-30 19:44:26
,wl-html-keyboard-response,7,58541,0.0-5.0-0.0,0.0,8.0,,,,,,,,11053.5,0.0,0,,,,,,,,,,,,,,,,,,,,,,HRV,HRV_0250,2022-11-30 19:44:26
,wl-rdm,8,60628,0.0-6.0-0.0,0.0,9.0,,,,,,,[],,,,,,62.5,0.0,u,0.0,True,797.0999999046326,48.0,60.0,40.0,False,,233.10368207887132,[],"[960, 600]",ColorTask,1.0,1.0,,,HRV,HRV_0250,2022-11-30 19:44:26
,wl-rdm,9,62513,0.0-6.1-0.1,0.0,10.0,,,,,,,[],,,,,,62.5,1.0,i,1.0,True,535.0,33.0,60.0,40.0,False,,269.37150479824,[],"[960, 600]",ColorTask,2.0,2.0,,,HRV,HRV_0250,2022-11-30 19:44:26
,wl-rdm,10,64297,0.0-6.2-0.2,0.0,11.0,,,,,,,[],,,,,,56.4,0.0,u,0.0,True,474.7999999523163,29.0,60.0,40.0,False,,243.28165537994235,[],"[960, 600]",ColorTask,3.0,3.0,,,HRV,HRV_0250,2022-11-30 19:44:26
,wl-rdm,11,66099,0.0-6.3-0.3,0.0,12.0,,,,,,,[],,,,,,73.6,0.0,u,0.0,True,464.5,28.0,60.0,40.0,False,,276.40760776084034,[],"[960, 600]",ColorTask,4.0,4.0,,,HRV,HRV_0250,2022-11-30 19:44:26
,wl-rdm,12,67834,0.0-6.4-0.4,0.0,13.0,,,,,,,[],,,,,,62.5,1.0,i,1.0,True,441.5,27.0,60.0,40.0,False,,217.06574700526363,[],"[960, 600]",ColorTask,5.0,5.0,,,HRV,HRV_0250,2022-11-30 19:44:26
,wl-rdm,13,69552,0.0-6.5-0.5,0.0,14.0,,,,,,,[],,,,,,87.9,0.0,u,0.0,True,435.2000000476837,27.0,60.0,40.0,False,,214.3372123988669,[],"[960, 600]",ColorTask,6.0,6.0,,,HRV,HRV_0250,2022-11-30 19:44:26
,wl-rdm,14,71286,0.0-6.6-0.6,0.0,15.0,,,,,,,[],,,,,,87.9,0.0,u,0.0,True,411.09999990463257,25.0,60.0,40.0,False,,252.86555575555218,[],"[960, 600]",ColorTask,7.0,7.0,,,HRV,HRV_0250,2022-11-30 19:44:26
,wl-rdm,15,73021,0.0-6.7-0.7,0.0,16.0,,,,,,,[],,,,,,73.6,0.0,i,1.0,False,437.60000014305115,27.0,60.0,40.0,False,,217.2590905183519,[],"[960, 600]",ColorTask,6.0,8.0,,,HRV,HRV_0250,2022-11-30 19:44:26
,wl-rdm,16,74823,0.0-6.8-0.8,0.0,17.0,,,,,,,[],,,,,,73.6,1.0,i,1.0,True,427.30000019073486,26.0,60.0,40.0,False,,313.3770375841031,[],"[960, 600]",ColorTask,7.0,9.0,,,HRV,HRV_0250,2022-11-30 19:44:26
,wl-rdm,17,76641,0.0-6.9-0.9,0.0,18.0,,,,,,,[],,,,,,87.9,0.0,u,0.0,True,449.59999990463257,27.0,60.0,40.0,False,,313.3529758216527,[],"[960, 600]",ColorTask,8.0,10.0,,,HRV,HRV_0250,2022-11-30 19:44:26
,wl-rdm,18,78459,0.0-6.10-0.10,0.0,19.0,,,,,,,[],,,,,,53.2,0.0,i,1.0,False,473.10000014305115,29.0,60.0,40.0,False,,270.4663232262377,[],"[960, 600]",ColorTask,7.0,11.0,,,HRV,HRV_0250,2022-11-30 19:44:26
,wl-rdm,19,80511,0.0-6.11-0.11,0.0,20.0,,,,,,,[],,,,,,50.0,0.0,i,1.0,False,752.5,46.0,60.0,40.0,False,,217.4448508946715,[],"[960, 600]",ColorTask,6.0,12.0,,,HRV,HRV_0250,2022-11-30 19:44:26
,wl-rdm,20,82212,0.0-6.12-0.12,0.0,21.0,,,,,,,[],,,,,,56.4,1.0,u,0.0,False,412.60000014305115,25.0,60.0,40.0,False,,218.47956747543958,[],"[960, 600]",ColorTask,5.0,13.0,,,HRV,HRV_0250,2022-11-30 19:44:26
,wl-rdm,21,83964,0.0-6.13-0.13,0.0,22.0,,,,,,,[],,,,,,56.4,0.0,u,0.0,True,355.5,22.0,60.0,40.0,False,,322.3220561854831,[],"[960, 600]",ColorTask,6.0,14.0,,,HRV,HRV_0250,2022-11-30 19:44:26
,wl-rdm,22,85582,0.0-6.14-0.14,0.0,23.0,,,,,,,[],,,,,,62.5,0.0,u,0.0,True,320.5,20.0,60.0,40.0,False,,223.9158691153434,[],"[960, 600]",ColorTask,7.0,15.0,,,HRV,HRV_0250,2022-11-30 19:44:26
,wl-rdm,23,87383,0.0-6.15-0.15,0.0,24.0,,,,,,,[],,,,,,87.9,0.0,u,0.0,True,343.40000009536743,21.0,60.0,40.0,False,,387.75206867182203,[],"[960, 600]",ColorTask,8.0,16.0,,,HRV,HRV_0250,2022-11-30 19:44:26
,wl-rdm,24,89168,0.0-6.16-0.16,0.0,25.0,,,,,,,[],,,,,,62.5,0.0,u,0.0,True,485.7000000476837,30.0,60.0,40.0,False,,224.93082571415346,[],"[960, 600]",ColorTask,9.0,17.0,,,HRV,HRV_0250,2022-11-30 19:44:26
,wl-rdm,25,91003,0.0-6.17-0.17,0.0,26.0,,,,,,,[],,,,,,50.0,1.0,i,1.0,True,423.0,26.0,60.0,40.0,False,,349.6756625406413,[],"[960, 600]",ColorTask,10.0,18.0,,,HRV,HRV_0250,2022-11-30 19:44:26
,wl-rdm,26,92838,0.0-6.18-0.18,0.0,27.0,,,,,,,[],,,,,,56.4,0.0,u,0.0,True,528.2000000476837,32.0,60.0,40.0,False,,247.59491808164395,[],"[960, 600]",ColorTask,11.0,19.0,,,HRV,HRV_0250,2022-11-30 19:44:26
,wl-rdm,27,94672,0.0-6.19-0.19,0.0,28.0,,,,,,,[],,,,,,56.4,1.0,u,0.0,False,400.2999999523163,24.0,60.0,40.0,False,,368.09815757671197,[],"[960, 600]",ColorTask,10.0,20.0,,,HRV,HRV_0250,2022-11-30 19:44:26
,wl-rdm,28,96457,0.0-6.20-0.20,0.0,29.0,,,,,,,[],,,,,,87.9,0.0,i,1.0,False,357.40000009536743,22.0,60.0,40.0,False,,361.20419159900166,[],"[960, 600]",ColorTask,9.0,21.0,,,HRV,HRV_0250,2022-11-30 19:44:26
,wl-rdm,29,98525,0.0-6.21-0.21,0.0,30.0,,,,,,,[],,,,,,87.9,1.0,i,1.0,True,720.2000000476837,44.0,60.0,40.0,False,,274.7362117971315,[],"[960, 600]",ColorTask,10.0,22.0,,,HRV,HRV_0250,2022-11-30 19:44:26
,wl-rdm,30,100611,0.0-6.22-0.22,0.0,31.0,,,,,,,[],,,,,,73.6,1.0,i,1.0,True,814.9000000953674,49.0,60.0,40.0,False,,202.9585072917648,[],"[960, 600]",ColorTask,11.0,23.0,,,HRV,HRV_0250,2022-11-30 19:44:26
,wl-rdm,31,102879,0.0-6.23-0.23,0.0,32.0,,,,,,,[],,,,,,50.0,1.0,u,0.0,False,820.2000000476837,50.0,60.0,40.0,False,,367.594113434096,[],"[960, 600]",ColorTask,10.0,24.0,,,HRV,HRV_0250,2022-11-30 19:44:26
,wl-rdm,32,104814,0.0-6.24-0.24,0.0,33.0,,,,,,,[],,,,,,50.0,1.0,i,1.0,True,636.3999998569489,39.0,60.0,40.0,False,,217.67138260789167,[],"[960, 600]",ColorTask,11.0,25.0,,,HRV,HRV_0250,2022-11-30 19:44:26
,wl-rdm,33,106682,0.0-6.25-0.25,0.0,34.0,,,,,,,[],,,,,,87.9,1.0,i,1.0,True,574.1999998092651,35.0,60.0,40.0,False,,223.82247307418396,[],"[960, 600]",ColorTask,12.0,26.0,,,HRV,HRV_0250,2022-11-30 19:44:26
,wl-rdm,34,108851,0.0-6.26-0.26,0.0,35.0,,,,,,,[],,,,,,53.2,0.0,u,0.0,True,714.5,43.0,60.0,40.0,False,,392.8594369650715,[],"[960, 600]",ColorTask,13.0,27.0,,,HRV,HRV_0250,2022-11-30 19:44:26
,wl-rdm,35,110919,0.0-6.27-0.27,0.0,36.0,,,,,,,[],,,,,,53.2,0.0,u,0.0,True,760.3999998569489,46.0,60.0,40.0,False,,247.43155650819747,[],"[960, 600]",ColorTask,14.0,28.0,,,HRV,HRV_0250,2022-11-30 19:44:26
,wl-rdm,36,112805,0.0-6.28-0.28,0.0,37.0,,,,,,,[],,,,,,73.6,1.0,i,1.0,True,596.2999999523163,36.0,60.0,40.0,False,,219.5021120497699,[],"[960, 600]",ColorTask,15.0,29.0,,,HRV,HRV_0250,2022-11-30 19:44:26
,wl-rdm,37,114672,0.0-6.29-0.29,0.0,38.0,,,,,,,[],,,,,,62.5,0.0,i,1.0,False,502.59999990463257,31.0,60.0,40.0,False,,288.33830002125785,[],"[960, 600]",ColorTask,14.0,30.0,,,HRV,HRV_0250,2022-11-30 19:44:26
,wl-rdm,38,116440,0.0-6.30-0.30,0.0,39.0,,,,,,,[],,,,,,50.0,1.0,i,1.0,True,475.30000019073486,29.0,60.0,40.0,False,,224.60925059242828,[],"[960, 600]",ColorTask,15.0,31.0,,,HRV,HRV_0250,2022-11-30 19:44:26
,wl-rdm,39,118442,0.0-6.31-0.31,0.0,40.0,,,,,,,[],,,,,,56.4,0.0,u,0.0,True,590.4000000953674,36.0,60.0,40.0,False,,342.84072328447576,[],"[960, 600]",ColorTask,16.0,32.0,,,HRV,HRV_0250,2022-11-30 19:44:26
,wl-rdm,40,120227,0.0-6.32-0.32,0.0,41.0,,,,,,,[],,,,,,87.9,0.0,u,0.0,True,464.2000002861023,28.0,60.0,40.0,False,,251.6482429721047,[],"[960, 600]",ColorTask,17.0,33.0,,,HRV,HRV_0250,2022-11-30 19:44:26
,wl-rdm,41,122429,0.0-6.33-0.33,0.0,42.0,,,,,,,[],,,,,,50.0,0.0,i,1.0,False,754.7000000476837,46.0,60.0,40.0,False,,375.0839931526204,[],"[960, 600]",ColorTask,16.0,34.0,,,HRV,HRV_0250,2022-11-30 19:44:26
,wl-rdm,42,124330,0.0-6.34-0.34,0.0,43.0,,,,,,,[],,,,,,56.4,1.0,i,1.0,True,489.89999985694885,30.0,60.0,40.0,False,,348.4416403735852,[],"[960, 600]",ColorTask,17.0,35.0,,,HRV,HRV_0250,2022-11-30 19:44:26
,wl-rdm,43,126198,0.0-6.35-0.35,0.0,44.0,,,,,,,[],,,,,,73.6,0.0,i,1.0,False,560.8000001907349,34.0,60.0,40.0,False,,236.61657997069088,[],"[960, 600]",ColorTask,16.0,36.0,,,HRV,HRV_0250,2022-11-30 19:44:26
,wl-rdm,44,128050,0.0-6.36-0.36,0.0,45.0,,,,,,,[],,,,,,73.6,0.0,u,0.0,True,581.5999999046326,35.0,60.0,40.0,False,,209.3208515775695,[],"[960, 600]",ColorTask,17.0,37.0,,,HRV,HRV_0250,2022-11-30 19:44:26
,wl-rdm,45,130102,0.0-6.37-0.37,0.0,46.0,,,,,,,[],,,,,,62.5,1.0,i,1.0,True,628.2000000476837,38.0,60.0,40.0,False,,351.48508959749313,[],"[960, 600]",ColorTask,18.0,38.0,,,HRV,HRV_0250,2022-11-30 19:44:26
,wl-rdm,46,131987,0.0-6.38-0.38,0.0,47.0,,,,,,,[],,,,,,73.6,1.0,i,1.0,True,531.2000002861023,32.0,60.0,40.0,False,,286.21282263820206,[],"[960, 600]",ColorTask,19.0,39.0,,,HRV,HRV_0250,2022-11-30 19:44:26
,wl-rdm,47,133905,0.0-6.39-0.39,0.0,48.0,,,,,,,[],,,,,,50.0,0.0,i,1.0,False,618.9000000953674,38.0,60.0,40.0,False,,227.89484475529017,[],"[960, 600]",ColorTask,18.0,40.0,,,HRV,HRV_0250,2022-11-30 19:44:26
,wl-rdm,48,135990,0.0-6.40-0.40,0.0,49.0,,,,,,,[],,,,,,50.0,0.0,i,1.0,False,644.5,39.0,60.0,40.0,False,,380.7475405603267,[],"[960, 600]",ColorTask,17.0,41.0,,,HRV,HRV_0250,2022-11-30 19:44:26
,wl-rdm,49,137975,0.0-6.41-0.41,0.0,50.0,,,,,,,[],,,,,,73.6,1.0,i,1.0,True,576.7000000476837,35.0,60.0,40.0,False,,344.0311721421162,[],"[960, 600]",ColorTask,18.0,42.0,,,HRV,HRV_0250,2022-11-30 19:44:26
,wl-rdm,50,139943,0.0-6.42-0.42,0.0,51.0,,,,,,,[],,,,,,53.2,0.0,u,0.0,True,643.2999999523163,39.0,60.0,40.0,False,,256.958043739618,[],"[960, 600]",ColorTask,19.0,43.0,,,HRV,HRV_0250,2022-11-30 19:44:26
,wl-rdm,51,141962,0.0-6.43-0.43,0.0,52.0,,,,,,,[],,,,,,53.2,1.0,i,1.0,True,707.4000000953674,43.0,60.0,40.0,False,,241.5728128681009,[],"[960, 600]",ColorTask,20.0,44.0,,,HRV,HRV_0250,2022-11-30 19:44:26
,wl-rdm,52,143913,0.0-6.44-0.44,0.0,53.0,,,,,,,[],,,,,,53.2,1.0,i,1.0,True,642.2000000476837,39.0,60.0,40.0,False,,237.97607374341135,[],"[960, 600]",ColorTask,21.0,45.0,,,HRV,HRV_0250,2022-11-30 19:44:26
,wl-rdm,53,145865,0.0-6.45-0.45,0.0,54.0,,,,,,,[],,,,,,53.2,0.0,u,0.0,True,675.0,41.0,60.0,40.0,False,,203.6987329460128,[],"[960, 600]",ColorTask,22.0,46.0,,,HRV,HRV_0250,2022-11-30 19:44:26
,wl-rdm,54,147917,0.0-6.46-0.46,0.0,55.0,,,,,,,[],,,,,,62.5,1.0,i,1.0,True,738.7000000476837,45.0,60.0,40.0,False,,236.00597671816692,[],"[960, 600]",ColorTask,23.0,47.0,,,HRV,HRV_0250,2022-11-30 19:44:26
,wl-rdm,55,149835,0.0-6.47-0.47,0.0,56.0,,,,,,,[],,,,,,53.2,1.0,i,1.0,True,606.1999998092651,37.0,60.0,40.0,False,,243.88285169820665,[],"[960, 600]",ColorTask,24.0,48.0,,,HRV,HRV_0250,2022-11-30 19:44:26
,wl-rdm,56,151937,0.0-6.48-0.48,0.0,57.0,,,,,,,[],,,,,,50.0,0.0,u,0.0,True,719.8000001907349,44.0,60.0,40.0,False,,301.5506119406455,[],"[960, 600]",ColorTask,25.0,49.0,,,HRV,HRV_0250,2022-11-30 19:44:26
,wl-rdm,57,153972,0.0-6.49-0.49,0.0,58.0,,,,,,,[],,,,,,53.2,1.0,i,1.0,True,664.0999999046326,40.0,60.0,40.0,False,,300.2923127142405,[],"[960, 600]",ColorTask,26.0,50.0,,,HRV,HRV_0250,2022-11-30 19:44:26
,wl-rdm,58,156040,0.0-6.50-0.50,0.0,59.0,,,,,,,[],,,,,,56.4,0.0,i,1.0,False,692.4000000953674,42.0,60.0,40.0,False,,310.7728742913218,[],"[960, 600]",ColorTask,25.0,51.0,,,HRV,HRV_0250,2022-11-30 19:44:26
,wl-rdm,59,158109,0.0-6.51-0.51,0.0,60.0,,,,,,,[],,,,,,73.6,0.0,u,0.0,True,621.5999999046326,38.0,60.0,40.0,False,,377.4332909499684,[],"[960, 600]",ColorTask,26.0,52.0,,,HRV,HRV_0250,2022-11-30 19:44:26
,wl-rdm,60,160077,0.0-6.52-0.52,0.0,61.0,,,,,,,[],,,,,,73.6,1.0,i,1.0,True,587.7000000476837,36.0,60.0,40.0,False,,312.41821905684196,[],"[960, 600]",ColorTask,27.0,53.0,,,HRV,HRV_0250,2022-11-30 19:44:26
,wl-rdm,61,162195,0.0-6.53-0.53,0.0,62.0,,,,,,,[],,,,,,73.6,1.0,u,0.0,False,763.9000000953674,46.0,60.0,40.0,False,,294.42315749199827,[],"[960, 600]",ColorTask,26.0,54.0,,,HRV,HRV_0250,2022-11-30 19:44:26
,wl-rdm,62,164147,0.0-6.54-0.54,0.0,63.0,,,,,,,[],,,,,,73.6,0.0,i,1.0,False,647.9000000953674,39.0,60.0,40.0,False,,248.62925681006394,[],"[960, 600]",ColorTask,25.0,55.0,,,HRV,HRV_0250,2022-11-30 19:44:26
,wl-rdm,63,166232,0.0-6.55-0.55,0.0,64.0,,,,,,,[],,,,,,53.2,0.0,i,1.0,False,659.4000000953674,40.0,60.0,40.0,False,,358.28865516317614,[],"[960, 600]",ColorTask,24.0,56.0,,,HRV,HRV_0250,2022-11-30 19:44:26
,wl-rdm,64,168067,0.0-6.56-0.56,0.0,65.0,,,,,,,[],,,,,,50.0,1.0,u,0.0,False,464.2999999523163,28.0,60.0,40.0,False,,306.5145170340526,[],"[960, 600]",ColorTask,23.0,57.0,,,HRV,HRV_0250,2022-11-30 19:44:26
,wl-rdm,65,170185,0.0-6.57-0.57,0.0,66.0,,,,,,,[],,,,,,56.4,1.0,i,1.0,True,775.1000001430511,47.0,60.0,40.0,False,,270.0802285072293,[],"[960, 600]",ColorTask,24.0,58.0,,,HRV,HRV_0250,2022-11-30 19:44:26
,wl-rdm,66,172070,0.0-6.58-0.58,0.0,67.0,,,,,,,[],,,,,,62.5,0.0,i,1.0,False,594.6000001430511,36.0,60.0,40.0,False,,223.66605464026512,[],"[960, 600]",ColorTask,23.0,59.0,,,HRV,HRV_0250,2022-11-30 19:44:26
,wl-rdm,67,174172,0.0-6.59-0.59,0.0,68.0,,,,,,,[],,,,,,50.0,1.0,i,1.0,True,688.7000000476837,42.0,60.0,40.0,False,,341.16571788532156,[],"[960, 600]",ColorTask,24.0,60.0,,,HRV,HRV_0250,2022-11-30 19:44:26
,wl-rdm,68,176374,0.0-6.60-0.60,0.0,69.0,,,,,,,[],,,,,,62.5,1.0,i,1.0,True,828.6000001430511,50.0,60.0,40.0,False,,302.4473672889079,[],"[960, 600]",ColorTask,25.0,61.0,,,HRV,HRV_0250,2022-11-30 19:44:26
,wl-rdm,69,178392,0.0-6.61-0.61,0.0,70.0,,,,,,,[],,,,,,53.2,1.0,i,1.0,True,659.3999998569489,40.0,60.0,40.0,False,,284.89164940232456,[],"[960, 600]",ColorTask,26.0,62.0,,,HRV,HRV_0250,2022-11-30 19:44:26
,wl-rdm,70,180461,0.0-6.62-0.62,0.0,71.0,,,,,,,[],,,,,,73.6,0.0,u,0.0,True,754.8999998569489,46.0,60.0,40.0,False,,236.9557216907544,[],"[960, 600]",ColorTask,27.0,63.0,,,HRV,HRV_0250,2022-11-30 19:44:26
,wl-rdm,71,182546,0.0-6.63-0.63,0.0,72.0,,,,,,,[],,,,,,62.5,0.0,i,1.0,False,732.4000000953674,44.0,60.0,40.0,False,,289.90520972930136,[],"[960, 600]",ColorTask,26.0,64.0,,,HRV,HRV_0250,2022-11-30 19:44:26
,wl-rdm,72,184514,0.0-6.64-0.64,0.0,73.0,,,,,,,[],,,,,,50.0,1.0,i,1.0,True,682.5,41.0,60.0,40.0,False,,220.60100032749028,[],"[960, 600]",ColorTask,27.0,65.0,,,HRV,HRV_0250,2022-11-30 19:44:26
,wl-rdm,73,186315,0.0-6.65-0.65,0.0,74.0,,,,,,,[],,,,,,50.0,1.0,u,0.0,False,406.0,25.0,60.0,40.0,False,,318.0203450289543,[],"[960, 600]",ColorTask,26.0,66.0,,,HRV,HRV_0250,2022-11-30 19:44:26
,wl-rdm,74,188117,0.0-6.66-0.66,0.0,75.0,,,,,,,[],,,,,,87.9,1.0,u,0.0,False,529.2000000476837,32.0,60.0,40.0,False,,200.4061167048996,[],"[960, 600]",ColorTask,25.0,67.0,,,HRV,HRV_0250,2022-11-30 19:44:26
,wl-rdm,75,190068,0.0-6.67-0.67,0.0,76.0,,,,,,,[],,,,,,73.6,0.0,u,0.0,True,646.3000001907349,39.0,60.0,40.0,False,,249.99417291578868,[],"[960, 600]",ColorTask,26.0,68.0,,,HRV,HRV_0250,2022-11-30 19:44:26
,wl-rdm,76,192003,0.0-6.68-0.68,0.0,77.0,,,,,,,[],,,,,,87.9,0.0,u,0.0,True,597.2000000476837,36.0,60.0,40.0,False,,269.11346516018307,[],"[960, 600]",ColorTask,27.0,69.0,,,HRV,HRV_0250,2022-11-30 19:44:26
,wl-rdm,77,194038,0.0-6.69-0.69,0.0,78.0,,,,,,,[],,,,,,62.5,0.0,u,0.0,True,744.4000000953674,45.0,60.0,40.0,False,,224.80273990886923,[],"[960, 600]",ColorTask,28.0,70.0,,,HRV,HRV_0250,2022-11-30 19:44:26
,wl-rdm,78,196073,0.0-6.70-0.70,0.0,79.0,,,,,,,[],,,,,,56.4,0.0,u,0.0,True,691.3000001907349,42.0,60.0,40.0,False,,276.51037349051774,[],"[960, 600]",ColorTask,29.0,71.0,,,HRV,HRV_0250,2022-11-30 19:44:26
,wl-rdm,79,197942,0.0-6.71-0.71,0.0,80.0,,,,,,,[],,,,,,73.6,0.0,u,0.0,True,562.4000000953674,34.0,60.0,40.0,False,,220.76298866902903,[],"[960, 600]",ColorTask,30.0,72.0,,,HRV,HRV_0250,2022-11-30 19:44:26
,wl-rdm,80,199843,0.0-6.72-0.72,0.0,81.0,,,,,,,[],,,,,,62.5,1.0,u,0.0,False,614.5,37.0,60.0,40.0,False,,224.16416345318012,[],"[960, 600]",ColorTask,29.0,73.0,,,HRV,HRV_0250,2022-11-30 19:44:26
,wl-rdm,81,202112,0.0-6.73-0.73,0.0,82.0,,,,,,,[],,,,,,50.0,0.0,u,0.0,True,953.0,58.0,60.0,40.0,False,,238.56557893482554,[],"[960, 600]",ColorTask,30.0,74.0,,,HRV,HRV_0250,2022-11-30 19:44:26
,wl-rdm,82,204581,0.0-6.74-0.74,0.0,83.0,,,,,,,[],,,,,,53.2,0.0,u,0.0,True,1029.8000001907349,62.0,60.0,40.0,False,,372.43417483344047,[],"[960, 600]",ColorTask,31.0,75.0,,,HRV,HRV_0250,2022-11-30 19:44:26
,wl-rdm,83,206532,0.0-6.75-0.75,0.0,84.0,,,,,,,[],,,,,,56.4,1.0,i,1.0,True,630.5999999046326,38.0,60.0,40.0,False,,258.2504823026013,[],"[960, 600]",ColorTask,32.0,76.0,,,HRV,HRV_0250,2022-11-30 19:44:26
,wl-rdm,84,208701,0.0-6.76-0.76,0.0,85.0,,,,,,,[],,,,,,62.5,0.0,i,1.0,False,788.1000001430511,48.0,60.0,40.0,False,,306.41974304554174,[],"[960, 600]",ColorTask,31.0,77.0,,,HRV,HRV_0250,2022-11-30 19:44:26
,wl-rdm,85,210669,0.0-6.77-0.77,0.0,86.0,,,,,,,[],,,,,,56.4,1.0,i,1.0,True,621.0,38.0,60.0,40.0,False,,280.9276420762439,[],"[960, 600]",ColorTask,32.0,78.0,,,HRV,HRV_0250,2022-11-30 19:44:26
,wl-rdm,86,212787,0.0-6.78-0.78,0.0,87.0,,,,,,,[],,,,,,62.5,1.0,i,1.0,True,847.7999999523163,51.0,60.0,40.0,False,,210.6348826712246,[],"[960, 600]",ColorTask,33.0,79.0,,,HRV,HRV_0250,2022-11-30 19:44:26
,wl-rdm,87,214855,0.0-6.79-0.79,0.0,88.0,,,,,,,[],,,,,,62.5,0.0,i,1.0,False,776.3999998569489,47.0,60.0,40.0,False,,229.6867878875744,[],"[960, 600]",ColorTask,32.0,80.0,,,HRV,HRV_0250,2022-11-30 19:44:26
,wl-rdm,88,216557,0.0-6.80-0.80,0.0,89.0,,,,,,,[],,,,,,53.2,1.0,u,0.0,False,437.40000009536743,27.0,60.0,40.0,False,,200.00633913307982,[],"[960, 600]",ColorTask,31.0,81.0,,,HRV,HRV_0250,2022-11-30 19:44:26
,wl-rdm,89,218458,0.0-6.81-0.81,0.0,90.0,,,,,,,[],,,,,,87.9,0.0,u,0.0,True,590.2000000476837,36.0,60.0,40.0,False,,248.122298685002,[],"[960, 600]",ColorTask,32.0,82.0,,,HRV,HRV_0250,2022-11-30 19:44:26
,wl-rdm,90,220560,0.0-6.82-0.82,0.0,91.0,,,,,,,[],,,,,,53.2,1.0,i,1.0,True,667.2000000476837,40.0,60.0,40.0,False,,376.096146150712,[],"[960, 600]",ColorTask,33.0,83.0,,,HRV,HRV_0250,2022-11-30 19:44:26
,wl-rdm,91,222645,0.0-6.83-0.83,0.0,92.0,,,,,,,[],,,,,,56.4,0.0,i,1.0,False,695.2000000476837,42.0,60.0,40.0,False,,322.36898144654674,[],"[960, 600]",ColorTask,32.0,84.0,,,HRV,HRV_0250,2022-11-30 19:44:26
,wl-rdm,92,224580,0.0-6.84-0.84,0.0,93.0,,,,,,,[],,,,,,87.9,1.0,i,1.0,True,646.0999999046326,39.0,60.0,40.0,False,,223.04810833452547,[],"[960, 600]",ColorTask,33.0,85.0,,,HRV,HRV_0250,2022-11-30 19:44:26
,wl-rdm,93,226532,0.0-6.85-0.85,0.0,94.0,,,,,,,[],,,,,,50.0,0.0,u,0.0,True,546.6000001430511,33.0,60.0,40.0,False,,336.6884902512038,[],"[960, 600]",ColorTask,34.0,86.0,,,HRV,HRV_0250,2022-11-30 19:44:26
,wl-rdm,94,228550,0.0-6.86-0.86,0.0,95.0,,,,,,,[],,,,,,53.2,0.0,i,1.0,False,627.7999999523163,38.0,60.0,40.0,False,,328.74095605866535,[],"[960, 600]",ColorTask,33.0,87.0,,,HRV,HRV_0250,2022-11-30 19:44:26
,wl-rdm,95,230585,0.0-6.87-0.87,0.0,96.0,,,,,,,[],,,,,,73.6,1.0,i,1.0,True,657.7000000476837,40.0,60.0,40.0,False,,308.56171566089733,[],"[960, 600]",ColorTask,34.0,88.0,,,HRV,HRV_0250,2022-11-30 19:44:26
,wl-rdm,96,232587,0.0-6.88-0.88,0.0,97.0,,,,,,,[],,,,,,50.0,1.0,i,1.0,True,656.2999999523163,40.0,60.0,40.0,False,,277.8142318069949,[],"[960, 600]",ColorTask,35.0,89.0,,,HRV,HRV_0250,2022-11-30 19:44:26
,wl-rdm,97,234572,0.0-6.89-0.89,0.0,98.0,,,,,,,[],,,,,,53.2,1.0,i,1.0,True,705.3999998569489,43.0,60.0,40.0,False,,214.3962931943509,[],"[960, 600]",ColorTask,36.0,90.0,,,HRV,HRV_0250,2022-11-30 19:44:26
,wl-rdm,98,236540,0.0-6.90-0.90,0.0,99.0,,,,,,,[],,,,,,87.9,1.0,i,1.0,True,571.4999997615814,35.0,60.0,40.0,False,,323.7887679730728,[],"[960, 600]",ColorTask,37.0,91.0,,,HRV,HRV_0250,2022-11-30 19:44:26
,wl-rdm,99,238341,0.0-6.91-0.91,0.0,100.0,,,,,,,[],,,,,,87.9,1.0,i,1.0,True,477.7999999523163,29.0,60.0,40.0,False,,255.37185286719617,[],"[960, 600]",ColorTask,38.0,92.0,,,HRV,HRV_0250,2022-11-30 19:44:26
,wl-rdm,100,240143,0.0-6.92-0.92,0.0,101.0,,,,,,,[],,,,,,87.9,1.0,i,1.0,True,503.5000002384186,31.0,60.0,40.0,False,,224.24075313420803,[],"[960, 600]",ColorTask,39.0,93.0,,,HRV,HRV_0250,2022-11-30 19:44:26
,wl-rdm,101,242144,0.0-6.93-0.93,0.0,102.0,,,,,,,[],,,,,,56.4,1.0,u,0.0,False,716.7000000476837,43.0,60.0,40.0,False,,217.39724698628282,[],"[960, 600]",ColorTask,38.0,94.0,,,HRV,HRV_0250,2022-11-30 19:44:26
,wl-rdm,102,244113,0.0-6.94-0.94,0.0,103.0,,,,,,,[],,,,,,53.2,0.0,i,1.0,False,549.2000000476837,33.0,60.0,40.0,False,,358.0239039834397,[],"[960, 600]",ColorTask,37.0,95.0,,,HRV,HRV_0250,2022-11-30 19:44:26
,wl-rdm,103,246031,0.0-6.95-0.95,0.0,104.0,,,,,,,[],,,,,,53.2,1.0,i,1.0,True,603.2000000476837,37.0,60.0,40.0,False,,239.4746926726782,[],"[960, 600]",ColorTask,38.0,96.0,,,HRV,HRV_0250,2022-11-30 19:44:26
,wl-rdm,104,247849,0.0-6.96-0.96,0.0,105.0,,,,,,,[],,,,,,56.4,0.0,i,1.0,False,507.59999990463257,31.0,60.0,40.0,False,,236.3718814125503,[],"[960, 600]",ColorTask,37.0,97.0,,,HRV,HRV_0250,2022-11-30 19:44:26
,wl-rdm,105,249784,0.0-6.97-0.97,0.0,106.0,,,,,,,[],,,,,,87.9,1.0,u,0.0,False,508.7000000476837,31.0,60.0,40.0,False,,364.9381826704763,[],"[960, 600]",ColorTask,36.0,98.0,,,HRV,HRV_0250,2022-11-30 19:44:26
,wl-rdm,106,251669,0.0-6.98-0.98,0.0,107.0,,,,,,,[],,,,,,87.9,0.0,u,0.0,True,494.90000009536743,30.0,60.0,40.0,False,,318.94761461450713,[],"[960, 600]",ColorTask,37.0,99.0,,,HRV,HRV_0250,2022-11-30 19:44:26
,wl-rdm,107,253504,0.0-6.99-0.99,0.0,108.0,,,,,,,[],,,,,,87.9,1.0,i,1.0,True,500.2000000476837,30.0,60.0,40.0,False,,282.1527520355923,[],"[960, 600]",ColorTask,38.0,100.0,,,HRV,HRV_0250,2022-11-30 19:44:26
,wl-rdm,108,255439,0.0-6.100-0.100,0.0,109.0,,,,,,,[],,,,,,50.0,0.0,u,0.0,True,652.5999999046326,40.0,60.0,40.0,False,,212.4668886657509,[],"[960, 600]",ColorTask,39.0,101.0,,,HRV,HRV_0250,2022-11-30 19:44:26
,wl-rdm,109,257357,0.0-6.101-0.101,0.0,110.0,,,,,,,[],,,,,,62.5,1.0,i,1.0,True,636.7999999523163,39.0,60.0,40.0,False,,211.35357823152924,[],"[960, 600]",ColorTask,40.0,102.0,,,HRV,HRV_0250,2022-11-30 19:44:26
,wl-rdm,110,259275,0.0-6.102-0.102,0.0,111.0,,,,,,,[],,,,,,73.6,1.0,i,1.0,True,521.8999998569489,32.0,60.0,40.0,False,,323.98657101408986,[],"[960, 600]",ColorTask,41.0,103.0,,,HRV,HRV_0250,2022-11-30 19:44:26
,wl-rdm,111,261160,0.0-6.103-0.103,0.0,112.0,,,,,,,[],,,,,,56.4,1.0,i,1.0,True,525.7999999523163,32.0,60.0,40.0,False,,288.99882240453036,[],"[960, 600]",ColorTask,42.0,104.0,,,HRV,HRV_0250,2022-11-30 19:44:26
,wl-rdm,112,262928,0.0-6.104-0.104,0.0,113.0,,,,,,,[],,,,,,62.5,1.0,i,1.0,True,468.7999997138977,29.0,60.0,40.0,False,,217.8234516678931,[],"[960, 600]",ColorTask,43.0,105.0,,,HRV,HRV_0250,2022-11-30 19:44:26
,wl-rdm,113,264880,0.0-6.105-0.105,0.0,114.0,,,,,,,[],,,,,,50.0,0.0,i,1.0,False,519.0000002384186,32.0,60.0,40.0,False,,355.534616065547,[],"[960, 600]",ColorTask,42.0,106.0,,,HRV,HRV_0250,2022-11-30 19:44:26
,wl-rdm,114,266815,0.0-6.106-0.106,0.0,115.0,,,,,,,[],,,,,,56.4,0.0,u,0.0,True,503.10000014305115,31.0,60.0,40.0,False,,359.5125714088572,[],"[960, 600]",ColorTask,43.0,107.0,,,HRV,HRV_0250,2022-11-30 19:44:26
,wl-rdm,115,268650,0.0-6.107-0.107,0.0,116.0,,,,,,,[],,,,,,56.4,1.0,i,1.0,True,556.9000000953674,34.0,60.0,40.0,False,,205.6467812531304,[],"[960, 600]",ColorTask,44.0,108.0,,,HRV,HRV_0250,2022-11-30 19:44:26
,wl-html-keyboard-response,116,275726,0.0-7.0-0.0,1.0,117.0,,,,,,,,5070.199999809265,1.0,0,,,,,,,,,,,,,,,,,,,,,,HRV,HRV_0250,2022-11-30 19:44:26
,wl-rdm,117,277524,0.0-8.0-0.0,1.0,118.0,,,,,,,[],,,,,,56.4,1.0,i,1.0,True,429.5,26.0,60.0,40.0,False,,316.4752378962231,[],"[960, 600]",ColorTask,45.0,1.0,,,HRV,HRV_0250,2022-11-30 19:44:26
,wl-rdm,118,279375,0.0-8.1-0.1,1.0,119.0,,,,,,,[],,,,,,50.0,0.0,i,1.0,False,534.8999998569489,33.0,60.0,40.0,False,,247.64318750601814,[],"[960, 600]",ColorTask,44.0,2.0,,,HRV,HRV_0250,2022-11-30 19:44:26
,wl-rdm,119,281177,0.0-8.2-0.2,1.0,120.0,,,,,,,[],,,,,,53.2,0.0,i,1.0,False,490.90000009536743,30.0,60.0,40.0,False,,243.8350912913475,[],"[960, 600]",ColorTask,43.0,3.0,,,HRV,HRV_0250,2022-11-30 19:44:26
,wl-rdm,120,283045,0.0-8.3-0.3,1.0,121.0,,,,,,,[],,,,,,73.6,1.0,i,1.0,True,428.19999980926514,26.0,60.0,40.0,False,,381.0168918190493,[],"[960, 600]",ColorTask,44.0,4.0,,,HRV,HRV_0250,2022-11-30 19:44:26
,wl-rdm,121,284929,0.0-8.4-0.4,1.0,122.0,,,,,,,[],,,,,,50.0,0.0,u,0.0,True,531.2999999523163,32.0,60.0,40.0,False,,297.5946002392395,[],"[960, 600]",ColorTask,45.0,5.0,,,HRV,HRV_0250,2022-11-30 19:44:26
,wl-rdm,122,286748,0.0-8.5-0.5,1.0,123.0,,,,,,,[],,,,,,56.4,0.0,u,0.0,True,487.69999980926514,30.0,60.0,40.0,False,,261.20729024734925,[],"[960, 600]",ColorTask,46.0,6.0,,,HRV,HRV_0250,2022-11-30 19:44:26
,wl-rdm,123,288666,0.0-8.6-0.6,1.0,124.0,,,,,,,[],,,,,,53.2,1.0,u,0.0,False,489.5,30.0,60.0,40.0,False,,358.48951896888696,[],"[960, 600]",ColorTask,45.0,7.0,,,HRV,HRV_0250,2022-11-30 19:44:26
,wl-rdm,124,290368,0.0-8.7-0.7,1.0,125.0,,,,,,,[],,,,,,53.2,1.0,i,1.0,True,419.39999985694885,26.0,60.0,40.0,False,,216.64458932264202,[],"[960, 600]",ColorTask,46.0,8.0,,,HRV,HRV_0250,2022-11-30 19:44:26
,wl-rdm,125,292086,0.0-8.8-0.8,1.0,126.0,,,,,,,[],,,,,,62.5,1.0,i,1.0,True,393.7999999523163,24.0,60.0,40.0,False,,254.3071142400579,[],"[960, 600]",ColorTask,47.0,9.0,,,HRV,HRV_0250,2022-11-30 19:44:26
,wl-rdm,126,293887,0.0-8.9-0.9,1.0,127.0,,,,,,,[],,,,,,56.4,1.0,i,1.0,True,452.5,28.0,60.0,40.0,False,,273.3046191733241,[],"[960, 600]",ColorTask,48.0,10.0,,,HRV,HRV_0250,2022-11-30 19:44:26
,wl-rdm,127,295605,0.0-8.10-0.10,1.0,128.0,,,,,,,[],,,,,,87.9,1.0,i,1.0,True,444.5,27.0,60.0,40.0,False,,212.09140887319998,[],"[960, 600]",ColorTask,49.0,11.0,,,HRV,HRV_0250,2022-11-30 19:44:26
,wl-rdm,128,297474,0.0-8.11-0.11,1.0,129.0,,,,,,,[],,,,,,87.9,1.0,i,1.0,True,431.2999999523163,26.0,60.0,40.0,False,,377.5343296870631,[],"[960, 600]",ColorTask,50.0,12.0,,,HRV,HRV_0250,2022-11-30 19:44:26
,wl-rdm,129,299175,0.0-8.12-0.12,1.0,130.0,,,,,,,[],,,,,,87.9,1.0,i,1.0,True,392.60000014305115,24.0,60.0,40.0,False,,234.81520693399435,[],"[960, 600]",ColorTask,51.0,13.0,,,HRV,HRV_0250,2022-11-30 19:44:26
,wl-rdm,130,300860,0.0-8.13-0.13,1.0,131.0,,,,,,,[],,,,,,73.6,1.0,i,1.0,True,404.5,25.0,60.0,40.0,False,,208.36275374696123,[],"[960, 600]",ColorTask,52.0,14.0,,,HRV,HRV_0250,2022-11-30 19:44:26
,wl-rdm,131,302545,0.0-8.14-0.14,1.0,132.0,,,,,,,[],,,,,,56.4,1.0,i,1.0,True,365.7999999523163,22.0,60.0,40.0,False,,262.0460585116661,[],"[960, 600]",ColorTask,53.0,15.0,,,HRV,HRV_0250,2022-11-30 19:44:26
,wl-rdm,132,304429,0.0-8.15-0.15,1.0,133.0,,,,,,,[],,,,,,53.2,0.0,i,1.0,False,436.39999985694885,27.0,60.0,40.0,False,,374.1270286365627,[],"[960, 600]",ColorTask,52.0,16.0,,,HRV,HRV_0250,2022-11-30 19:44:26
,wl-rdm,133,306264,0.0-8.16-0.16,1.0,134.0,,,,,,,[],,,,,,62.5,1.0,i,1.0,True,425.09999990463257,26.0,60.0,40.0,False,,334.7803936846456,[],"[960, 600]",ColorTask,53.0,17.0,,,HRV,HRV_0250,2022-11-30 19:44:26
,wl-rdm,134,308032,0.0-8.17-0.17,1.0,135.0,,,,,,,[],,,,,,87.9,0.0,u,0.0,True,466.2000000476837,28.0,60.0,40.0,False,,239.1298639517596,[],"[960, 600]",ColorTask,54.0,18.0,,,HRV,HRV_0250,2022-11-30 19:44:26
,wl-rdm,135,309867,0.0-8.18-0.18,1.0,136.0,,,,,,,[],,,,,,62.5,1.0,u,0.0,False,488.4999997615814,30.0,60.0,40.0,False,,280.38113378588434,[],"[960, 600]",ColorTask,53.0,19.0,,,HRV,HRV_0250,2022-11-30 19:44:26
,wl-rdm,136,311485,0.0-8.19-0.19,1.0,137.0,,,,,,,[],,,,,,50.0,1.0,i,1.0,True,336.19999980926514,21.0,60.0,40.0,False,,210.72407224744578,[],"[960, 600]",ColorTask,54.0,20.0,,,HRV,HRV_0250,2022-11-30 19:44:26
,wl-rdm,137,313170,0.0-8.20-0.20,1.0,138.0,,,,,,,[],,,,,,62.5,0.0,i,1.0,False,314.2999999523163,19.0,60.0,40.0,False,,303.2786861465713,[],"[960, 600]",ColorTask,53.0,21.0,,,HRV,HRV_0250,2022-11-30 19:44:26
,wl-rdm,138,314821,0.0-8.21-0.21,1.0,139.0,,,,,,,[],,,,,,50.0,1.0,u,0.0,False,377.40000009536743,23.0,60.0,40.0,False,,202.90894801906575,[],"[960, 600]",ColorTask,52.0,22.0,,,HRV,HRV_0250,2022-11-30 19:44:26
,wl-rdm,139,316606,0.0-8.22-0.22,1.0,140.0,,,,,,,[],,,,,,56.4,1.0,i,1.0,True,486.2000002861023,30.0,60.0,40.0,False,,216.77705274227546,[],"[960, 600]",ColorTask,53.0,23.0,,,HRV,HRV_0250,2022-11-30 19:44:26
,wl-rdm,140,318424,0.0-8.23-0.23,1.0,141.0,,,,,,,[],,,,,,73.6,1.0,i,1.0,True,491.40000009536743,30.0,60.0,40.0,False,,255.14198631476893,[],"[960, 600]",ColorTask,54.0,24.0,,,HRV,HRV_0250,2022-11-30 19:44:26
,wl-rdm,141,320259,0.0-8.24-0.24,1.0,142.0,,,,,,,[],,,,,,53.2,0.0,u,0.0,True,496.59999990463257,30.0,60.0,40.0,False,,266.93819139484856,[],"[960, 600]",ColorTask,55.0,25.0,,,HRV,HRV_0250,2022-11-30 19:44:26
,wl-rdm,142,321910,0.0-8.25-0.25,1.0,143.0,,,,,,,[],,,,,,73.6,1.0,i,1.0,True,326.2999999523163,20.0,60.0,40.0,False,,261.92628686899167,[],"[960, 600]",ColorTask,56.0,26.0,,,HRV,HRV_0250,2022-11-30 19:44:26
,wl-rdm,143,323729,0.0-8.26-0.26,1.0,144.0,,,,,,,[],,,,,,62.5,0.0,i,1.0,False,415.59999990463257,25.0,60.0,40.0,False,,341.4254506445935,[],"[960, 600]",ColorTask,55.0,27.0,,,HRV,HRV_0250,2022-11-30 19:44:26
,wl-rdm,144,325664,0.0-8.27-0.27,1.0,145.0,,,,,,,[],,,,,,87.9,0.0,u,0.0,True,535.2999999523163,33.0,60.0,40.0,False,,332.1137541710176,[],"[960, 600]",ColorTask,56.0,28.0,,,HRV,HRV_0250,2022-11-30 19:44:26
,wl-rdm,145,327632,0.0-8.28-0.28,1.0,146.0,,,,,,,[],,,,,,56.4,1.0,i,1.0,True,502.39999985694885,31.0,60.0,40.0,False,,392.3271883700974,[],"[960, 600]",ColorTask,57.0,29.0,,,HRV,HRV_0250,2022-11-30 19:44:26
,wl-rdm,146,329634,0.0-8.29-0.29,1.0,147.0,,,,,,,[],,,,,,53.2,1.0,i,1.0,True,648.0999999046326,39.0,60.0,40.0,False,,296.7699837967694,[],"[960, 600]",ColorTask,58.0,30.0,,,HRV,HRV_0250,2022-11-30 19:44:26
,wl-rdm,147,331519,0.0-8.30-0.30,1.0,148.0,,,,,,,[],,,,,,56.4,1.0,i,1.0,True,586.4000000953674,36.0,60.0,40.0,False,,228.25794416807992,[],"[960, 600]",ColorTask,59.0,31.0,,,HRV,HRV_0250,2022-11-30 19:44:26
,wl-rdm,148,333354,0.0-8.31-0.31,1.0,149.0,,,,,,,[],,,,,,53.2,0.0,i,1.0,False,424.7999999523163,26.0,60.0,40.0,False,,346.6511614361161,[],"[960, 600]",ColorTask,58.0,32.0,,,HRV,HRV_0250,2022-11-30 19:44:26
,wl-rdm,149,335305,0.0-8.32-0.32,1.0,150.0,,,,,,,[],,,,,,87.9,1.0,i,1.0,True,541.0000002384186,33.0,60.0,40.0,False,,344.7737713402885,[],"[960, 600]",ColorTask,59.0,33.0,,,HRV,HRV_0250,2022-11-30 19:44:26
,wl-rdm,150,337307,0.0-8.33-0.33,1.0,151.0,,,,,,,[],,,,,,50.0,1.0,i,1.0,True,555.6999998092651,34.0,60.0,40.0,False,,377.27262878898796,[],"[960, 600]",ColorTask,60.0,34.0,,,HRV,HRV_0250,2022-11-30 19:44:26
,wl-rdm,151,339059,0.0-8.34-0.34,1.0,152.0,,,,,,,[],,,,,,62.5,0.0,u,0.0,True,397.7000000476837,24.0,60.0,40.0,False,,298.3051896336561,[],"[960, 600]",ColorTask,61.0,35.0,,,HRV,HRV_0250,2022-11-30 19:44:26
,wl-rdm,152,340727,0.0-8.35-0.35,1.0,153.0,,,,,,,[],,,,,,87.9,0.0,i,1.0,False,326.7000000476837,20.0,60.0,40.0,False,,279.8855977915056,[],"[960, 600]",ColorTask,60.0,36.0,,,HRV,HRV_0250,2022-11-30 19:44:26
,wl-rdm,153,342528,0.0-8.36-0.36,1.0,154.0,,,,,,,[],,,,,,56.4,0.0,i,1.0,False,519.4000000953674,32.0,60.0,40.0,False,,205.00596303982485,[],"[960, 600]",ColorTask,59.0,37.0,,,HRV,HRV_0250,2022-11-30 19:44:26
,wl-rdm,154,344496,0.0-8.37-0.37,1.0,155.0,,,,,,,[],,,,,,62.5,1.0,i,1.0,True,602.4000000953674,37.0,60.0,40.0,False,,294.28264796661006,[],"[960, 600]",ColorTask,60.0,38.0,,,HRV,HRV_0250,2022-11-30 19:44:26
,wl-rdm,155,346181,0.0-8.38-0.38,1.0,156.0,,,,,,,[],,,,,,73.6,0.0,u,0.0,True,395.09999990463257,24.0,60.0,40.0,False,,224.99433345318596,[],"[960, 600]",ColorTask,61.0,39.0,,,HRV,HRV_0250,2022-11-30 19:44:26
,wl-rdm,156,347882,0.0-8.39-0.39,1.0,157.0,,,,,,,[],,,,,,87.9,0.0,u,0.0,True,339.40000009536743,21.0,60.0,40.0,False,,294.04428635341606,[],"[960, 600]",ColorTask,62.0,40.0,,,HRV,HRV_0250,2022-11-30 19:44:26
,wl-rdm,157,349751,0.0-8.40-0.40,1.0,158.0,,,,,,,[],,,,,,50.0,1.0,u,0.0,False,493.5,30.0,60.0,40.0,False,,306.5399586936717,[],"[960, 600]",ColorTask,61.0,41.0,,,HRV,HRV_0250,2022-11-30 19:44:26
,wl-rdm,158,351552,0.0-8.41-0.41,1.0,159.0,,,,,,,[],,,,,,50.0,0.0,u,0.0,True,449.9999997615814,27.0,60.0,40.0,False,,298.3444568987127,[],"[960, 600]",ColorTask,62.0,42.0,,,HRV,HRV_0250,2022-11-30 19:44:26
,wl-rdm,159,353320,0.0-8.42-0.42,1.0,160.0,,,,,,,[],,,,,,50.0,1.0,i,1.0,True,408.40000009536743,25.0,60.0,40.0,False,,288.9761986594192,[],"[960, 600]",ColorTask,63.0,43.0,,,HRV,HRV_0250,2022-11-30 19:44:26
,wl-rdm,160,355205,0.0-8.43-0.43,1.0,161.0,,,,,,,[],,,,,,73.6,0.0,i,1.0,False,595.2000000476837,36.0,60.0,40.0,False,,226.06048681719813,[],"[960, 600]",ColorTask,62.0,44.0,,,HRV,HRV_0250,2022-11-30 19:44:26
,wl-rdm,161,357123,0.0-8.44-0.44,1.0,162.0,,,,,,,[],,,,,,50.0,0.0,u,0.0,True,463.39999985694885,28.0,60.0,40.0,False,,390.7996630231145,[],"[960, 600]",ColorTask,63.0,45.0,,,HRV,HRV_0250,2022-11-30 19:44:26
,wl-rdm,162,358892,0.0-8.45-0.45,1.0,163.0,,,,,,,[],,,,,,62.5,0.0,u,0.0,True,404.90000009536743,25.0,60.0,40.0,False,,286.85321214119625,[],"[960, 600]",ColorTask,64.0,46.0,,,HRV,HRV_0250,2022-11-30 19:44:26
,wl-rdm,163,360626,0.0-8.46-0.46,1.0,164.0,,,,,,,[],,,,,,73.6,1.0,u,0.0,False,414.39999985694885,25.0,60.0,40.0,False,,260.1557196309739,[],"[960, 600]",ColorTask,63.0,47.0,,,HRV,HRV_0250,2022-11-30 19:44:26
,wl-rdm,164,362528,0.0-8.47-0.47,1.0,165.0,,,,,,,[],,,,,,56.4,0.0,u,0.0,True,567.0999999046326,34.0,60.0,40.0,False,,273.2841561285437,[],"[960, 600]",ColorTask,64.0,48.0,,,HRV,HRV_0250,2022-11-30 19:44:26
,wl-rdm,165,364230,0.0-8.48-0.48,1.0,166.0,,,,,,,[],,,,,,62.5,0.0,i,1.0,False,344.60000014305115,21.0,60.0,40.0,False,,297.4961035159033,[],"[960, 600]",ColorTask,63.0,49.0,,,HRV,HRV_0250,2022-11-30 19:44:26
,wl-rdm,166,365964,0.0-8.49-0.49,1.0,167.0,,,,,,,[],,,,,,73.6,0.0,u,0.0,True,371.2000000476837,23.0,60.0,40.0,False,,298.47166365955513,[],"[960, 600]",ColorTask,64.0,50.0,,,HRV,HRV_0250,2022-11-30 19:44:26
,wl-rdm,167,367849,0.0-8.50-0.50,1.0,168.0,,,,,,,[],,,,,,53.2,1.0,i,1.0,True,607.4000000953674,37.0,60.0,40.0,False,,216.32076565171266,[],"[960, 600]",ColorTask,65.0,51.0,,,HRV,HRV_0250,2022-11-30 19:44:26
,wl-rdm,168,369601,0.0-8.51-0.51,1.0,169.0,,,,,,,[],,,,,,73.6,0.0,i,1.0,False,469.39999985694885,29.0,60.0,40.0,False,,205.19305529726597,[],"[960, 600]",ColorTask,64.0,52.0,,,HRV,HRV_0250,2022-11-30 19:44:26
,wl-rdm,169,371502,0.0-8.52-0.52,1.0,170.0,,,,,,,[],,,,,,73.6,1.0,i,1.0,True,486.7000002861023,30.0,60.0,40.0,False,,346.22989469747176,[],"[960, 600]",ColorTask,65.0,53.0,,,HRV,HRV_0250,2022-11-30 19:44:26
,wl-rdm,170,373254,0.0-8.53-0.53,1.0,171.0,,,,,,,[],,,,,,53.2,1.0,u,0.0,False,461.10000014305115,28.0,60.0,40.0,False,,220.4449566203383,[],"[960, 600]",ColorTask,64.0,54.0,,,HRV,HRV_0250,2022-11-30 19:44:26
,wl-rdm,171,374988,0.0-8.54-0.54,1.0,172.0,,,,,,,[],,,,,,56.4,0.0,i,1.0,False,404.09999990463257,25.0,60.0,40.0,False,,258.64692134030395,[],"[960, 600]",ColorTask,63.0,55.0,,,HRV,HRV_0250,2022-11-30 19:44:26
,wl-rdm,172,376840,0.0-8.55-0.55,1.0,173.0,,,,,,,[],,,,,,62.5,0.0,i,1.0,False,475.7000000476837,29.0,60.0,40.0,False,,314.56802137982777,[],"[960, 600]",ColorTask,62.0,56.0,,,HRV,HRV_0250,2022-11-30 19:44:26
,wl-rdm,173,378792,0.0-8.56-0.56,1.0,174.0,,,,,,,[],,,,,,50.0,0.0,i,1.0,False,659.5,40.0,60.0,40.0,False,,228.67424082052264,[],"[960, 600]",ColorTask,61.0,57.0,,,HRV,HRV_0250,2022-11-30 19:44:26
,wl-rdm,174,380610,0.0-8.57-0.57,1.0,175.0,,,,,,,[],,,,,,62.5,1.0,i,1.0,True,531.7000000476837,32.0,60.0,40.0,False,,222.557908321775,[],"[960, 600]",ColorTask,62.0,58.0,,,HRV,HRV_0250,2022-11-30 19:44:26
,wl-rdm,175,382712,0.0-8.58-0.58,1.0,176.0,,,,,,,[],,,,,,56.4,0.0,i,1.0,False,826.4000000953674,50.0,60.0,40.0,False,,203.9408687951158,[],"[960, 600]",ColorTask,61.0,59.0,,,HRV,HRV_0250,2022-11-30 19:44:26
,wl-rdm,176,384580,0.0-8.59-0.59,1.0,177.0,,,,,,,[],,,,,,73.6,0.0,u,0.0,True,596.5,36.0,60.0,40.0,False,,208.48284290241938,[],"[960, 600]",ColorTask,62.0,60.0,,,HRV,HRV_0250,2022-11-30 19:44:26
,wl-rdm,177,386315,0.0-8.60-0.60,1.0,178.0,,,,,,,[],,,,,,87.9,1.0,u,0.0,False,289.2000000476837,18.0,60.0,40.0,False,,370.87445003485755,[],"[960, 600]",ColorTask,61.0,61.0,,,HRV,HRV_0250,2022-11-30 19:44:26
,wl-rdm,178,388016,0.0-8.61-0.61,1.0,179.0,,,,,,,[],,,,,,50.0,1.0,u,0.0,False,402.7000000476837,25.0,60.0,40.0,False,,218.58569135917202,[],"[960, 600]",ColorTask,60.0,62.0,,,HRV,HRV_0250,2022-11-30 19:44:26
,wl-rdm,179,389701,0.0-8.62-0.62,1.0,180.0,,,,,,,[],,,,,,53.2,1.0,i,1.0,True,345.39999985694885,21.0,60.0,40.0,False,,273.41839000816236,[],"[960, 600]",ColorTask,61.0,63.0,,,HRV,HRV_0250,2022-11-30 19:44:26
,wl-rdm,180,391452,0.0-8.63-0.63,1.0,181.0,,,,,,,[],,,,,,50.0,0.0,i,1.0,False,304.39999985694885,19.0,60.0,40.0,False,,380.53642958766545,[],"[960, 600]",ColorTask,60.0,64.0,,,HRV,HRV_0250,2022-11-30 19:44:26
,wl-rdm,181,393137,0.0-8.64-0.64,1.0,182.0,,,,,,,[],,,,,,62.5,0.0,i,1.0,False,415.7999999523163,25.0,60.0,40.0,False,,202.60694985989792,[],"[960, 600]",ColorTask,59.0,65.0,,,HRV,HRV_0250,2022-11-30 19:44:26
,wl-rdm,182,395355,0.0-8.65-0.65,1.0,183.0,,,,,,,[],,,,,,56.4,1.0,i,1.0,True,839.0999999046326,51.0,60.0,40.0,False,,306.99127753981935,[],"[960, 600]",ColorTask,60.0,66.0,,,HRV,HRV_0250,2022-11-30 19:44:26
,wl-rdm,183,397374,0.0-8.66-0.66,1.0,184.0,,,,,,,[],,,,,,62.5,0.0,u,0.0,True,669.7999999523163,41.0,60.0,40.0,False,,269.09632753238344,[],"[960, 600]",ColorTask,61.0,67.0,,,HRV,HRV_0250,2022-11-30 19:44:26
,wl-rdm,184,399192,0.0-8.67-0.67,1.0,185.0,,,,,,,[],,,,,,87.9,1.0,i,1.0,True,508.9999997615814,31.0,60.0,40.0,False,,240.025084785764,[],"[960, 600]",ColorTask,62.0,68.0,,,HRV,HRV_0250,2022-11-30 19:44:26
,wl-rdm,185,401144,0.0-8.68-0.68,1.0,186.0,,,,,,,[],,,,,,87.9,0.0,u,0.0,True,575.9000000953674,35.0,60.0,40.0,False,,312.37772238958695,[],"[960, 600]",ColorTask,63.0,69.0,,,HRV,HRV_0250,2022-11-30 19:44:26
,wl-rdm,186,403112,0.0-8.69-0.69,1.0,187.0,,,,,,,[],,,,,,62.5,1.0,i,1.0,True,625.7000000476837,38.0,60.0,40.0,False,,273.81667724889894,[],"[960, 600]",ColorTask,64.0,70.0,,,HRV,HRV_0250,2022-11-30 19:44:26
,wl-rdm,187,404980,0.0-8.70-0.70,1.0,188.0,,,,,,,[],,,,,,53.2,0.0,i,1.0,False,545.7999999523163,33.0,60.0,40.0,False,,257.49836597553775,[],"[960, 600]",ColorTask,63.0,71.0,,,HRV,HRV_0250,2022-11-30 19:44:26
,wl-rdm,188,407132,0.0-8.71-0.71,1.0,189.0,,,,,,,[],,,,,,87.9,0.0,u,0.0,True,738.5,45.0,60.0,40.0,False,,334.75522945954697,[],"[960, 600]",ColorTask,64.0,72.0,,,HRV,HRV_0250,2022-11-30 19:44:26
,wl-rdm,189,409050,0.0-8.72-0.72,1.0,190.0,,,,,,,[],,,,,,73.6,0.0,u,0.0,True,523.5,32.0,60.0,40.0,False,,332.1352632943202,[],"[960, 600]",ColorTask,65.0,73.0,,,HRV,HRV_0250,2022-11-30 19:44:26
,wl-rdm,190,410768,0.0-8.73-0.73,1.0,191.0,,,,,,,[],,,,,,62.5,0.0,u,0.0,True,316.7000000476837,19.0,60.0,40.0,False,,343.485888494035,[],"[960, 600]",ColorTask,66.0,74.0,,,HRV,HRV_0250,2022-11-30 19:44:26
,wl-rdm,191,412570,0.0-8.74-0.74,1.0,192.0,,,,,,,[],,,,,,87.9,1.0,i,1.0,True,340.40000009536743,21.0,60.0,40.0,False,,398.48566566382533,[],"[960, 600]",ColorTask,67.0,75.0,,,HRV,HRV_0250,2022-11-30 19:44:26
,wl-rdm,192,414254,0.0-8.75-0.75,1.0,193.0,,,,,,,[],,,,,,50.0,0.0,i,1.0,False,369.10000014305115,23.0,60.0,40.0,False,,235.2404071653827,[],"[960, 600]",ColorTask,66.0,76.0,,,HRV,HRV_0250,2022-11-30 19:44:26
,wl-rdm,193,416323,0.0-8.76-0.76,1.0,194.0,,,,,,,[],,,,,,73.6,1.0,u,0.0,False,681.0,41.0,60.0,40.0,False,,328.3128974706601,[],"[960, 600]",ColorTask,65.0,77.0,,,HRV,HRV_0250,2022-11-30 19:44:26
,wl-rdm,194,418275,0.0-8.77-0.77,1.0,195.0,,,,,,,[],,,,,,56.4,0.0,i,1.0,False,530.7000000476837,32.0,60.0,40.0,False,,361.6868203841997,[],"[960, 600]",ColorTask,64.0,78.0,,,HRV,HRV_0250,2022-11-30 19:44:26
,wl-rdm,195,420276,0.0-8.78-0.78,1.0,196.0,,,,,,,[],,,,,,73.6,0.0,i,1.0,False,562.7000000476837,34.0,60.0,40.0,False,,375.66358465946007,[],"[960, 600]",ColorTask,63.0,79.0,,,HRV,HRV_0250,2022-11-30 19:44:26
,wl-rdm,196,422345,0.0-8.79-0.79,1.0,197.0,,,,,,,[],,,,,,50.0,1.0,u,0.0,False,691.7999999523163,42.0,60.0,40.0,False,,315.873830360278,[],"[960, 600]",ColorTask,62.0,80.0,,,HRV,HRV_0250,2022-11-30 19:44:26
,wl-rdm,197,424179,0.0-8.80-0.80,1.0,198.0,,,,,,,[],,,,,,87.9,0.0,u,0.0,True,496.89999985694885,30.0,60.0,40.0,False,,278.1263658115037,[],"[960, 600]",ColorTask,63.0,81.0,,,HRV,HRV_0250,2022-11-30 19:44:26
,wl-rdm,198,426481,0.0-8.81-0.81,1.0,199.0,,,,,,,[],,,,,,53.2,0.0,u,0.0,True,899.5,54.0,60.0,40.0,False,,342.2539831333096,[],"[960, 600]",ColorTask,64.0,82.0,,,HRV,HRV_0250,2022-11-30 19:44:26
,wl-rdm,199,428416,0.0-8.82-0.82,1.0,200.0,,,,,,,[],,,,,,53.2,0.0,i,1.0,False,500.2000000476837,30.0,60.0,40.0,False,,382.95411196896873,[],"[960, 600]",ColorTask,63.0,83.0,,,HRV,HRV_0250,2022-11-30 19:44:26
,wl-rdm,200,430168,0.0-8.83-0.83,1.0,201.0,,,,,,,[],,,,,,50.0,0.0,u,0.0,True,458.90000009536743,28.0,60.0,40.0,False,,224.15072968261643,[],"[960, 600]",ColorTask,64.0,84.0,,,HRV,HRV_0250,2022-11-30 19:44:26
,wl-rdm,201,431986,0.0-8.84-0.84,1.0,202.0,,,,,,,[],,,,,,56.4,0.0,u,0.0,True,464.89999985694885,28.0,60.0,40.0,False,,284.60532214097105,[],"[960, 600]",ColorTask,65.0,85.0,,,HRV,HRV_0250,2022-11-30 19:44:26
,wl-rdm,202,433721,0.0-8.85-0.85,1.0,203.0,,,,,,,[],,,,,,87.9,0.0,u,0.0,True,391.10000014305115,24.0,60.0,40.0,False,,283.6476679068239,[],"[960, 600]",ColorTask,66.0,86.0,,,HRV,HRV_0250,2022-11-30 19:44:26
,wl-rdm,203,435522,0.0-8.86-0.86,1.0,204.0,,,,,,,[],,,,,,53.2,1.0,u,0.0,False,431.40000009536743,26.0,60.0,40.0,False,,312.875900784084,[],"[960, 600]",ColorTask,65.0,87.0,,,HRV,HRV_0250,2022-11-30 19:44:26
,wl-rdm,204,437274,0.0-8.87-0.87,1.0,205.0,,,,,,,[],,,,,,73.6,0.0,i,1.0,False,357.2000000476837,22.0,60.0,40.0,False,,327.22973024508036,[],"[960, 600]",ColorTask,64.0,88.0,,,HRV,HRV_0250,2022-11-30 19:44:26
,wl-rdm,205,439158,0.0-8.88-0.88,1.0,206.0,,,,,,,[],,,,,,62.5,1.0,i,1.0,True,593.7999999523163,36.0,60.0,40.0,False,,225.37817491735194,[],"[960, 600]",ColorTask,65.0,89.0,,,HRV,HRV_0250,2022-11-30 19:44:26
,wl-rdm,206,440993,0.0-8.89-0.89,1.0,207.0,,,,,,,[],,,,,,53.2,1.0,u,0.0,False,382.2999999523163,23.0,60.0,40.0,False,,397.6296835502702,[],"[960, 600]",ColorTask,64.0,90.0,,,HRV,HRV_0250,2022-11-30 19:44:26
,wl-rdm,207,442611,0.0-8.90-0.90,1.0,208.0,,,,,,,[],,,,,,87.9,0.0,i,1.0,False,296.60000014305115,18.0,60.0,40.0,False,,259.86381042011305,[],"[960, 600]",ColorTask,63.0,91.0,,,HRV,HRV_0250,2022-11-30 19:44:26
,wl-rdm,208,444463,0.0-8.91-0.91,1.0,209.0,,,,,,,[],,,,,,56.4,1.0,i,1.0,True,569.5,35.0,60.0,40.0,False,,210.30877734576296,[],"[960, 600]",ColorTask,64.0,92.0,,,HRV,HRV_0250,2022-11-30 19:44:26
,wl-rdm,209,446481,0.0-8.92-0.92,1.0,210.0,,,,,,,[],,,,,,87.9,1.0,i,1.0,True,732.6999998092651,44.0,60.0,40.0,False,,228.49751636635975,[],"[960, 600]",ColorTask,65.0,93.0,,,HRV,HRV_0250,2022-11-30 19:44:26
,wl-rdm,210,448433,0.0-8.93-0.93,1.0,211.0,,,,,,,[],,,,,,73.6,1.0,i,1.0,True,615.7999999523163,37.0,60.0,40.0,False,,279.3850802715308,[],"[960, 600]",ColorTask,66.0,94.0,,,HRV,HRV_0250,2022-11-30 19:44:26
,wl-rdm,211,450368,0.0-8.94-0.94,1.0,212.0,,,,,,,[],,,,,,56.4,1.0,i,1.0,True,619.5,38.0,60.0,40.0,False,,235.43358858279572,[],"[960, 600]",ColorTask,67.0,95.0,,,HRV,HRV_0250,2022-11-30 19:44:26
,wl-rdm,212,452153,0.0-8.95-0.95,1.0,213.0,,,,,,,[],,,,,,73.6,1.0,i,1.0,True,458.4999997615814,28.0,60.0,40.0,False,,254.7593710457984,[],"[960, 600]",ColorTask,68.0,96.0,,,HRV,HRV_0250,2022-11-30 19:44:26
,wl-rdm,213,454138,0.0-8.96-0.96,1.0,214.0,,,,,,,[],,,,,,73.6,0.0,u,0.0,True,674.3999998569489,41.0,60.0,40.0,False,,233.49762877852154,[],"[960, 600]",ColorTask,69.0,97.0,,,HRV,HRV_0250,2022-11-30 19:44:26
,wl-rdm,214,456173,0.0-8.97-0.97,1.0,215.0,,,,,,,[],,,,,,56.4,0.0,u,0.0,True,754.2000000476837,46.0,60.0,40.0,False,,216.2626941889832,[],"[960, 600]",ColorTask,70.0,98.0,,,HRV,HRV_0250,2022-11-30 19:44:26
,wl-rdm,215,458091,0.0-8.98-0.98,1.0,216.0,,,,,,,[],,,,,,56.4,0.0,u,0.0,True,639.2999999523163,39.0,60.0,40.0,False,,212.70631502818586,[],"[960, 600]",ColorTask,71.0,99.0,,,HRV,HRV_0250,2022-11-30 19:44:26
,wl-rdm,216,459993,0.0-8.99-0.99,1.0,217.0,,,,,,,[],,,,,,50.0,0.0,u,0.0,True,525.2999999523163,32.0,60.0,40.0,False,,305.76253996453806,[],"[960, 600]",ColorTask,72.0,100.0,,,HRV,HRV_0250,2022-11-30 19:44:26
,wl-rdm,217,461761,0.0-8.100-0.100,1.0,218.0,,,,,,,[],,,,,,62.5,1.0,u,0.0,False,399.40000009536743,24.0,60.0,40.0,False,,316.3061781118015,[],"[960, 600]",ColorTask,71.0,101.0,,,HRV,HRV_0250,2022-11-30 19:44:26
,wl-rdm,218,463796,0.0-8.101-0.101,1.0,219.0,,,,,,,[],,,,,,50.0,1.0,u,0.0,False,696.7999999523163,42.0,60.0,40.0,False,,282.09821097361754,[],"[960, 600]",ColorTask,70.0,102.0,,,HRV,HRV_0250,2022-11-30 19:44:26
,wl-rdm,219,465914,0.0-8.102-0.102,1.0,220.0,,,,,,,[],,,,,,62.5,1.0,u,0.0,False,740.2999999523163,45.0,60.0,40.0,False,,302.0426853254862,[],"[960, 600]",ColorTask,69.0,103.0,,,HRV,HRV_0250,2022-11-30 19:44:26
,wl-rdm,220,467849,0.0-8.103-0.103,1.0,221.0,,,,,,,[],,,,,,53.2,0.0,i,1.0,False,491.2999999523163,30.0,60.0,40.0,False,,373.1018836542038,[],"[960, 600]",ColorTask,68.0,104.0,,,HRV,HRV_0250,2022-11-30 19:44:26
,wl-rdm,221,469934,0.0-8.104-0.104,1.0,222.0,,,,,,,[],,,,,,53.2,0.0,u,0.0,True,786.5,48.0,60.0,40.0,False,,224.72254651224023,[],"[960, 600]",ColorTask,69.0,105.0,,,HRV,HRV_0250,2022-11-30 19:44:26
,wl-rdm,222,471869,0.0-8.105-0.105,1.0,223.0,,,,,,,[],,,,,,53.2,1.0,u,0.0,False,537.2999999523163,33.0,60.0,40.0,False,,321.7929272076192,[],"[960, 600]",ColorTask,68.0,106.0,,,HRV,HRV_0250,2022-11-30 19:44:26
,wl-rdm,223,473587,0.0-8.106-0.106,1.0,224.0,,,,,,,[],,,,,,50.0,1.0,i,1.0,True,296.5,18.0,60.0,40.0,False,,356.2752212206136,[],"[960, 600]",ColorTask,69.0,107.0,,,HRV,HRV_0250,2022-11-30 19:44:26
,wl-rdm,224,475372,0.0-8.107-0.107,1.0,225.0,,,,,,,[],,,,,,87.9,1.0,i,1.0,True,438.30000019073486,27.0,60.0,40.0,False,,281.5096130902374,[],"[960, 600]",ColorTask,70.0,108.0,,,HRV,HRV_0250,2022-11-30 19:44:26
,wl-html-button-response,225,478460,0.0-9.0-0.0,,,,,,,,,,3085.2000000476837,,0,,,,,,,,,,,,,,,,,,,,<h3>End of this session. Thank you!</h3><br>,['Close window'],HRV,HRV_0250,2022-11-30 19:44:26
