trialN,stimuli,trialStartTime,trialStartTime_UNIX,stimulus1,stimulus2,stimulus1Bid,stimulus2Bid,delta,selected,rt,rt_UNIX,rt_perfnow,receivedResponse,rsp,trialEndTime,trialDuration,trialEndTime_UNIX,trialDuration_UNIX,exp,subjectId,date
0,"[{'imgObject': {}, 'id': 'Grapes', 'src': '/static/foodstim60/Grapes.jpg', 'key': 'u', 'origWidth': 411, 'origHeight': 411, 'width': 411, 'height': 411, 'widthPercent': 0.45, 'rescaleHeight': False, 'trialN': 0, 'loaded': True, 'loadedTime': 2515, 'positionName': 'LEFT', 'positionCoords': [510.6, 334.5], 'bid': 1.15}, {'imgObject': {}, 'id': 'banana', 'src': '/static/foodstim60/banana.jpg', 'key': 'i', 'origWidth': 410, 'origHeight': 410, 'width': 410, 'height': 410, 'widthPercent': 0.45, 'rescaleHeight': False, 'trialN': 0, 'loaded': True, 'loadedTime': 2533.5999999046326, 'positionName': 'RIGHT', 'positionCoords': [998.4, 335], 'bid': 1.23}]",2717.4000000953674,1669829092940,Grapes,banana,1.15,1.23,0.08000000000000007,banana,1332.0999999046326,1333,1332.5999999046326,True,i,4553.5,1836.0999999046326,1669829094776,1836,HRV,HRV_0006,2022-11-30 17:29:34
1,"[{'imgObject': {}, 'id': 'roastedpotatoes', 'src': '/static/foodstim60/roastedpotatoes.jpg', 'key': 'u', 'origWidth': 409, 'origHeight': 410, 'width': 409, 'height': 410, 'widthPercent': 0.45, 'rescaleHeight': False, 'trialN': 1, 'loaded': True, 'loadedTime': 2547.7999999523163, 'positionName': 'LEFT', 'positionCoords': [512.6, 335], 'bid': 5.73}, {'imgObject': {}, 'id': 'turkey sandwich', 'src': '/static/foodstim60/turkey sandwich.jpg', 'key': 'i', 'origWidth': 409, 'origHeight': 409, 'width': 409, 'height': 409, 'widthPercent': 0.45, 'rescaleHeight': False, 'trialN': 1, 'loaded': True, 'loadedTime': 2551, 'positionName': 'RIGHT', 'positionCoords': [998.4, 335.5], 'bid': 7.44}]",4554.0,1669829094777,roastedpotatoes,turkey sandwich,5.73,7.44,1.71,turkey sandwich,1127.7999999523163,1128,1128.2999999523163,True,i,6198.400000095367,1644.4000000953674,1669829096421,1644,HRV,HRV_0006,2022-11-30 17:29:34
2,"[{'imgObject': {}, 'id': 'apple slices', 'src': '/static/foodstim60/apple slices.jpg', 'key': 'u', 'origWidth': 409, 'origHeight': 410, 'width': 409, 'height': 410, 'widthPercent': 0.45, 'rescaleHeight': False, 'trialN': 2, 'loaded': True, 'loadedTime': 2552.9000000953674, 'positionName': 'LEFT', 'positionCoords': [512.6, 335], 'bid': 0.94}, {'imgObject': {}, 'id': 'lox', 'src': '/static/foodstim60/lox.jpg', 'key': 'i', 'origWidth': 410, 'origHeight': 411, 'width': 410, 'height': 411, 'widthPercent': 0.45, 'rescaleHeight': False, 'trialN': 2, 'loaded': True, 'loadedTime': 2555.2000000476837, 'positionName': 'RIGHT', 'positionCoords': [998.4, 334.5], 'bid': 5.45}]",6198.799999952316,1669829096421,apple slices,lox,0.94,5.45,4.51,lox,746.0,747,746.2000000476837,True,i,7459.799999952316,1261.0,1669829097682,1261,HRV,HRV_0006,2022-11-30 17:29:34
3,"[{'imgObject': {}, 'id': 'seaweed', 'src': '/static/foodstim60/seaweed.jpg', 'key': 'u', 'origWidth': 410, 'origHeight': 410, 'width': 410, 'height': 410, 'widthPercent': 0.45, 'rescaleHeight': False, 'trialN': 3, 'loaded': True, 'loadedTime': 2557.2000000476837, 'positionName': 'LEFT', 'positionCoords': [511.6, 335], 'bid': 4.8}, {'imgObject': {}, 'id': 'raspberries', 'src': '/static/foodstim60/raspberries.jpg', 'key': 'i', 'origWidth': 411, 'origHeight': 411, 'width': 411, 'height': 411, 'widthPercent': 0.45, 'rescaleHeight': False, 'trialN': 3, 'loaded': True, 'loadedTime': 2557.4000000953674, 'positionName': 'RIGHT', 'positionCoords': [998.4, 334.5], 'bid': 1.23}]",7459.900000095367,1669829097683,seaweed,raspberries,4.8,1.23,-3.57,seaweed,820.5999999046326,820,820.8999998569489,True,u,8793.5,1333.5999999046326,1669829099016,1333,HRV,HRV_0006,2022-11-30 17:29:34
4,"[{'imgObject': {}, 'id': 'steak', 'src': '/static/foodstim60/steak.jpg', 'key': 'u', 'origWidth': 410, 'origHeight': 410, 'width': 410, 'height': 410, 'widthPercent': 0.45, 'rescaleHeight': False, 'trialN': 4, 'loaded': True, 'loadedTime': 2561.2000000476837, 'positionName': 'LEFT', 'positionCoords': [511.6, 335], 'bid': 8.56}, {'imgObject': {}, 'id': 'burrito', 'src': '/static/foodstim60/burrito.jpg', 'key': 'i', 'origWidth': 410, 'origHeight': 410, 'width': 410, 'height': 410, 'widthPercent': 0.45, 'rescaleHeight': False, 'trialN': 4, 'loaded': True, 'loadedTime': 2561.5999999046326, 'positionName': 'RIGHT', 'positionCoords': [998.4, 335], 'bid': 7.1000000000000005}]",8794.400000095367,1669829099017,steak,burrito,8.56,7.1000000000000005,-1.46,steak,1038.0999999046326,1038,1038.2999999523163,True,u,10349.400000095367,1555.0,1669829100572,1555,HRV,HRV_0006,2022-11-30 17:29:34
5,"[{'imgObject': {}, 'id': 'turkeysandwich', 'src': '/static/foodstim60/turkeysandwich.jpg', 'key': 'u', 'origWidth': 409, 'origHeight': 409, 'width': 409, 'height': 409, 'widthPercent': 0.45, 'rescaleHeight': False, 'trialN': 5, 'loaded': True, 'loadedTime': 2562.7000000476837, 'positionName': 'LEFT', 'positionCoords': [512.6, 335.5], 'bid': 8.69}, {'imgObject': {}, 'id': 'chickenfingers', 'src': '/static/foodstim60/chickenfingers.jpg', 'key': 'i', 'origWidth': 410, 'origHeight': 410, 'width': 410, 'height': 410, 'widthPercent': 0.45, 'rescaleHeight': False, 'trialN': 5, 'loaded': True, 'loadedTime': 2565.0999999046326, 'positionName': 'RIGHT', 'positionCoords': [998.4, 335], 'bid': 6.76}]",10349.599999904633,1669829100572,turkeysandwich,chickenfingers,8.69,6.76,-1.9299999999999997,chickenfingers,1163.8000001907349,1164,1164.0,True,i,12025.200000047684,1675.6000001430511,1669829102248,1676,HRV,HRV_0006,2022-11-30 17:29:34
6,"[{'imgObject': {}, 'id': 'Tribe humus pita', 'src': '/static/foodstim60/Tribe humus pita.jpg', 'key': 'u', 'origWidth': 411, 'origHeight': 411, 'width': 411, 'height': 411, 'widthPercent': 0.45, 'rescaleHeight': False, 'trialN': 6, 'loaded': True, 'loadedTime': 2565.5999999046326, 'positionName': 'LEFT', 'positionCoords': [510.6, 334.5], 'bid': 7.22}, {'imgObject': {}, 'id': 'bagel and cc', 'src': '/static/foodstim60/bagel and cc.jpg', 'key': 'i', 'origWidth': 410, 'origHeight': 410, 'width': 410, 'height': 410, 'widthPercent': 0.45, 'rescaleHeight': False, 'trialN': 6, 'loaded': True, 'loadedTime': 2567.4000000953674, 'positionName': 'RIGHT', 'positionCoords': [998.4, 335], 'bid': 1.38}]",12025.400000095367,1669829102248,Tribe humus pita,bagel and cc,7.22,1.38,-5.84,Tribe humus pita,999.3999998569489,1000,999.5999999046326,True,u,13538.599999904633,1513.1999998092651,1669829103761,1513,HRV,HRV_0006,2022-11-30 17:29:34
7,"[{'imgObject': {}, 'id': 'raspberries', 'src': '/static/foodstim60/raspberries.jpg', 'key': 'u', 'origWidth': 411, 'origHeight': 411, 'width': 411, 'height': 411, 'widthPercent': 0.45, 'rescaleHeight': False, 'trialN': 7, 'loaded': True, 'loadedTime': 2558.7000000476837, 'positionName': 'LEFT', 'positionCoords': [510.6, 334.5], 'bid': 1.23}, {'imgObject': {}, 'id': 'eggs', 'src': '/static/foodstim60/eggs.jpg', 'key': 'i', 'origWidth': 409, 'origHeight': 409, 'width': 409, 'height': 409, 'widthPercent': 0.45, 'rescaleHeight': False, 'trialN': 7, 'loaded': True, 'loadedTime': 2570.2999999523163, 'positionName': 'RIGHT', 'positionCoords': [998.4, 335.5], 'bid': 6.62}]",13538.700000047684,1669829103761,raspberries,eggs,1.23,6.62,5.390000000000001,eggs,773.8999998569489,775,774.2000000476837,True,i,14829.5,1290.7999999523163,1669829105052,1291,HRV,HRV_0006,2022-11-30 17:29:34
8,"[{'imgObject': {}, 'id': 'cocktailshrimp', 'src': '/static/foodstim60/cocktailshrimp.jpg', 'key': 'u', 'origWidth': 410, 'origHeight': 410, 'width': 410, 'height': 410, 'widthPercent': 0.45, 'rescaleHeight': False, 'trialN': 8, 'loaded': True, 'loadedTime': 2572.5, 'positionName': 'LEFT', 'positionCoords': [511.6, 335], 'bid': 9.3}, {'imgObject': {}, 'id': 'mac & cheese', 'src': '/static/foodstim60/mac & cheese.jpg', 'key': 'i', 'origWidth': 410, 'origHeight': 410, 'width': 410, 'height': 410, 'widthPercent': 0.45, 'rescaleHeight': False, 'trialN': 8, 'loaded': True, 'loadedTime': 2573.5, 'positionName': 'RIGHT', 'positionCoords': [998.4, 335], 'bid': 9.58}]",14830.099999904633,1669829105053,cocktailshrimp,mac & cheese,9.3,9.58,0.27999999999999936,mac & cheese,723.4000000953674,724,724.3000001907349,True,i,16065.599999904633,1235.5,1669829106288,1235,HRV,HRV_0006,2022-11-30 17:29:34
9,"[{'imgObject': {}, 'id': 'fruitsalad', 'src': '/static/foodstim60/fruitsalad.jpg', 'key': 'u', 'origWidth': 410, 'origHeight': 410, 'width': 410, 'height': 410, 'widthPercent': 0.45, 'rescaleHeight': False, 'trialN': 9, 'loaded': True, 'loadedTime': 2574.7999999523163, 'positionName': 'LEFT', 'positionCoords': [511.6, 335], 'bid': 1.13}, {'imgObject': {}, 'id': 'orange slices', 'src': '/static/foodstim60/orange slices.jpg', 'key': 'i', 'origWidth': 409, 'origHeight': 410, 'width': 409, 'height': 410, 'widthPercent': 0.45, 'rescaleHeight': False, 'trialN': 9, 'loaded': True, 'loadedTime': 2518.2000000476837, 'positionName': 'RIGHT', 'positionCoords': [998.4, 335], 'bid': 1.37}]",16066.0,1669829106289,fruitsalad,orange slices,1.13,1.37,0.2400000000000002,fruitsalad,1598.9000000953674,1599,1599.4000000953674,True,u,18170.900000095367,2104.9000000953674,1669829108394,2105,HRV,HRV_0006,2022-11-30 17:29:34
10,"[{'imgObject': {}, 'id': 'raisin bran w milk', 'src': '/static/foodstim60/raisin bran w milk.jpg', 'key': 'u', 'origWidth': 411, 'origHeight': 411, 'width': 411, 'height': 411, 'widthPercent': 0.45, 'rescaleHeight': False, 'trialN': 10, 'loaded': True, 'loadedTime': 2520.7000000476837, 'positionName': 'LEFT', 'positionCoords': [510.6, 334.5], 'bid': 5.8}, {'imgObject': {}, 'id': 'veggieswithdip', 'src': '/static/foodstim60/veggieswithdip.jpg', 'key': 'i', 'origWidth': 409, 'origHeight': 409, 'width': 409, 'height': 409, 'widthPercent': 0.45, 'rescaleHeight': False, 'trialN': 10, 'loaded': True, 'loadedTime': 2522.2999999523163, 'positionName': 'RIGHT', 'positionCoords': [998.4, 335.5], 'bid': 6.19}]",18171.700000047684,1669829108394,raisin bran w milk,veggieswithdip,5.8,6.19,0.39000000000000057,veggieswithdip,1342.2000000476837,1343,1342.7000000476837,True,i,20021.400000095367,1849.7000000476837,1669829110244,1850,HRV,HRV_0006,2022-11-30 17:29:34
11,"[{'imgObject': {}, 'id': 'banana', 'src': '/static/foodstim60/banana.jpg', 'key': 'u', 'origWidth': 410, 'origHeight': 410, 'width': 410, 'height': 410, 'widthPercent': 0.45, 'rescaleHeight': False, 'trialN': 11, 'loaded': True, 'loadedTime': 2546.0999999046326, 'positionName': 'LEFT', 'positionCoords': [511.6, 335], 'bid': 1.23}, {'imgObject': {}, 'id': 'ice cream sundae 002', 'src': '/static/foodstim60/ice cream sundae 002.jpg', 'key': 'i', 'origWidth': 409, 'origHeight': 409, 'width': 409, 'height': 409, 'widthPercent': 0.45, 'rescaleHeight': False, 'trialN': 11, 'loaded': True, 'loadedTime': 2531.2999999523163, 'positionName': 'RIGHT', 'positionCoords': [998.4, 335.5], 'bid': 3.69}]",20021.5,1669829110244,banana,ice cream sundae 002,1.23,3.69,2.46,ice cream sundae 002,1355.5,1355,1355.7000000476837,True,i,21887.5,1866.0,1669829112109,1865,HRV,HRV_0006,2022-11-30 17:29:34
12,"[{'imgObject': {}, 'id': 'banana', 'src': '/static/foodstim60/banana.jpg', 'key': 'u', 'origWidth': 410, 'origHeight': 410, 'width': 410, 'height': 410, 'widthPercent': 0.45, 'rescaleHeight': False, 'trialN': 12, 'loaded': True, 'loadedTime': 2544.0999999046326, 'positionName': 'LEFT', 'positionCoords': [511.6, 335], 'bid': 1.23}, {'imgObject': {}, 'id': 'apple slices', 'src': '/static/foodstim60/apple slices.jpg', 'key': 'i', 'origWidth': 409, 'origHeight': 410, 'width': 409, 'height': 410, 'widthPercent': 0.45, 'rescaleHeight': False, 'trialN': 12, 'loaded': True, 'loadedTime': 2553.5999999046326, 'positionName': 'RIGHT', 'positionCoords': [998.4, 335], 'bid': 0.94}]",21887.599999904633,1669829112109,banana,apple slices,1.23,0.94,-0.29000000000000004,banana,697.7000000476837,698,697.9000000953674,True,u,23089.599999904633,1202.0,1669829113311,1202,HRV,HRV_0006,2022-11-30 17:29:34
13,"[{'imgObject': {}, 'id': 'hashbrowns', 'src': '/static/foodstim60/hashbrowns.jpg', 'key': 'u', 'origWidth': 411, 'origHeight': 410, 'width': 411, 'height': 410, 'widthPercent': 0.45, 'rescaleHeight': False, 'trialN': 13, 'loaded': True, 'loadedTime': 2559.9000000953674, 'positionName': 'LEFT', 'positionCoords': [510.6, 335], 'bid': 6.8}, {'imgObject': {}, 'id': 'fried eggs', 'src': '/static/foodstim60/fried eggs.jpg', 'key': 'i', 'origWidth': 410, 'origHeight': 410, 'width': 410, 'height': 410, 'widthPercent': 0.45, 'rescaleHeight': False, 'trialN': 13, 'loaded': True, 'loadedTime': 2568.2999999523163, 'positionName': 'RIGHT', 'positionCoords': [998.4, 335], 'bid': 8}]",23089.700000047684,1669829113311,hashbrowns,fried eggs,6.8,8.0,1.2000000000000002,fried eggs,1175.7000000476837,1176,1175.8999998569489,True,i,24769.299999952316,1679.5999999046326,1669829114991,1680,HRV,HRV_0006,2022-11-30 17:29:34
14,"[{'imgObject': {}, 'id': 'corn cob', 'src': '/static/foodstim60/corn cob.jpg', 'key': 'u', 'origWidth': 411, 'origHeight': 411, 'width': 411, 'height': 411, 'widthPercent': 0.45, 'rescaleHeight': False, 'trialN': 14, 'loaded': True, 'loadedTime': 2571.4000000953674, 'positionName': 'LEFT', 'positionCoords': [510.6, 334.5], 'bid': 4.94}, {'imgObject': {}, 'id': 'seaweed', 'src': '/static/foodstim60/seaweed.jpg', 'key': 'i', 'origWidth': 410, 'origHeight': 410, 'width': 410, 'height': 410, 'widthPercent': 0.45, 'rescaleHeight': False, 'trialN': 14, 'loaded': True, 'loadedTime': 2555.5, 'positionName': 'RIGHT', 'positionCoords': [998.4, 335], 'bid': 4.8}]",24769.5,1669829114991,corn cob,seaweed,4.94,4.8,-0.14000000000000057,seaweed,1495.7000000476837,1496,1496.0,True,i,26775.400000095367,2005.9000000953674,1669829116997,2006,HRV,HRV_0006,2022-11-30 17:29:34
15,"[{'imgObject': {}, 'id': 'Tribe humus pita', 'src': '/static/foodstim60/Tribe humus pita.jpg', 'key': 'u', 'origWidth': 411, 'origHeight': 411, 'width': 411, 'height': 411, 'widthPercent': 0.45, 'rescaleHeight': False, 'trialN': 15, 'loaded': True, 'loadedTime': 2566.2000000476837, 'positionName': 'LEFT', 'positionCoords': [510.6, 334.5], 'bid': 7.22}, {'imgObject': {}, 'id': 'turkey sandwich', 'src': '/static/foodstim60/turkey sandwich.jpg', 'key': 'i', 'origWidth': 409, 'origHeight': 409, 'width': 409, 'height': 409, 'widthPercent': 0.45, 'rescaleHeight': False, 'trialN': 15, 'loaded': True, 'loadedTime': 2548.7000000476837, 'positionName': 'RIGHT', 'positionCoords': [998.4, 335.5], 'bid': 7.44}]",26775.900000095367,1669829116997,Tribe humus pita,turkey sandwich,7.22,7.44,0.22000000000000064,turkey sandwich,1010.5999999046326,1011,1011.1999998092651,True,i,28298.599999904633,1522.6999998092651,1669829118520,1523,HRV,HRV_0006,2022-11-30 17:29:34
16,"[{'imgObject': {}, 'id': 'blueberries', 'src': '/static/foodstim60/blueberries.jpg', 'key': 'u', 'origWidth': 411, 'origHeight': 411, 'width': 411, 'height': 411, 'widthPercent': 0.45, 'rescaleHeight': False, 'trialN': 16, 'loaded': True, 'loadedTime': 2575.9000000953674, 'positionName': 'LEFT', 'positionCoords': [510.6, 334.5], 'bid': 1.29}, {'imgObject': {}, 'id': 'hashbrowns', 'src': '/static/foodstim60/hashbrowns.jpg', 'key': 'i', 'origWidth': 411, 'origHeight': 410, 'width': 411, 'height': 410, 'widthPercent': 0.45, 'rescaleHeight': False, 'trialN': 16, 'loaded': True, 'loadedTime': 2558.9000000953674, 'positionName': 'RIGHT', 'positionCoords': [998.4, 335], 'bid': 6.8}]",28299.400000095367,1669829118521,blueberries,hashbrowns,1.29,6.8,5.51,hashbrowns,782.2999999523163,783,782.8999998569489,True,i,29589.400000095367,1290.0,1669829119811,1290,HRV,HRV_0006,2022-11-30 17:29:34
17,"[{'imgObject': {}, 'id': 'fruitsalad', 'src': '/static/foodstim60/fruitsalad.jpg', 'key': 'u', 'origWidth': 410, 'origHeight': 410, 'width': 410, 'height': 410, 'widthPercent': 0.45, 'rescaleHeight': False, 'trialN': 17, 'loaded': True, 'loadedTime': 2574.9000000953674, 'positionName': 'LEFT', 'positionCoords': [511.6, 335], 'bid': 1.13}, {'imgObject': {}, 'id': 'granola w milk', 'src': '/static/foodstim60/granola w milk.jpg', 'key': 'i', 'origWidth': 410, 'origHeight': 410, 'width': 410, 'height': 410, 'widthPercent': 0.45, 'rescaleHeight': False, 'trialN': 17, 'loaded': True, 'loadedTime': 2579.4000000953674, 'positionName': 'RIGHT', 'positionCoords': [998.4, 335], 'bid': 5.86}]",29589.5,1669829119811,fruitsalad,granola w milk,1.13,5.86,4.73,granola w milk,868.0999999046326,868,868.5999999046326,True,i,30964.599999904633,1375.0999999046326,1669829121186,1375,HRV,HRV_0006,2022-11-30 17:29:34
18,"[{'imgObject': {}, 'id': 'blueberries', 'src': '/static/foodstim60/blueberries.jpg', 'key': 'u', 'origWidth': 411, 'origHeight': 411, 'width': 411, 'height': 411, 'widthPercent': 0.45, 'rescaleHeight': False, 'trialN': 18, 'loaded': True, 'loadedTime': 2575.9000000953674, 'positionName': 'LEFT', 'positionCoords': [510.6, 334.5], 'bid': 1.29}, {'imgObject': {}, 'id': 'apple slices', 'src': '/static/foodstim60/apple slices.jpg', 'key': 'i', 'origWidth': 409, 'origHeight': 410, 'width': 409, 'height': 410, 'widthPercent': 0.45, 'rescaleHeight': False, 'trialN': 18, 'loaded': True, 'loadedTime': 2553.7000000476837, 'positionName': 'RIGHT', 'positionCoords': [998.4, 335], 'bid': 0.94}]",30965.099999904633,1669829121186,blueberries,apple slices,1.29,0.94,-0.3500000000000001,blueberries,1348.8000001907349,1350,1349.2000000476837,True,u,32819.40000009537,1854.3000001907349,1669829123041,1855,HRV,HRV_0006,2022-11-30 17:29:34
19,"[{'imgObject': {}, 'id': 'tacos', 'src': '/static/foodstim60/tacos.jpg', 'key': 'u', 'origWidth': 411, 'origHeight': 411, 'width': 411, 'height': 411, 'widthPercent': 0.45, 'rescaleHeight': False, 'trialN': 19, 'loaded': True, 'loadedTime': 2593.9000000953674, 'positionName': 'LEFT', 'positionCoords': [510.6, 334.5], 'bid': 7.98}, {'imgObject': {}, 'id': 'fried eggs', 'src': '/static/foodstim60/fried eggs.jpg', 'key': 'i', 'origWidth': 410, 'origHeight': 410, 'width': 410, 'height': 410, 'widthPercent': 0.45, 'rescaleHeight': False, 'trialN': 19, 'loaded': True, 'loadedTime': 2568.7999999523163, 'positionName': 'RIGHT', 'positionCoords': [998.4, 335], 'bid': 8}]",32819.59999990463,1669829123041,tacos,fried eggs,7.98,8.0,0.019999999999999574,tacos,1254.7000000476837,1255,1255.3000001907349,True,u,34591.200000047684,1771.6000001430511,1669829124812,1771,HRV,HRV_0006,2022-11-30 17:29:34
20,"[{'imgObject': {}, 'id': 'cherries', 'src': '/static/foodstim60/cherries.jpg', 'key': 'u', 'origWidth': 410, 'origHeight': 411, 'width': 410, 'height': 411, 'widthPercent': 0.45, 'rescaleHeight': False, 'trialN': 20, 'loaded': True, 'loadedTime': 2598.9000000953674, 'positionName': 'LEFT', 'positionCoords': [511.6, 334.5], 'bid': 1.28}, {'imgObject': {}, 'id': 'cherry tomato', 'src': '/static/foodstim60/cherry tomato.jpg', 'key': 'i', 'origWidth': 410, 'origHeight': 410, 'width': 410, 'height': 410, 'widthPercent': 0.45, 'rescaleHeight': False, 'trialN': 20, 'loaded': True, 'loadedTime': 2601.2000000476837, 'positionName': 'RIGHT', 'positionCoords': [998.4, 335], 'bid': 0.4}]",34591.59999990463,1669829124813,cherries,cherry tomato,1.28,0.4,-0.88,cherry tomato,1769.0,1769,1769.3000001907349,True,i,36873.40000009537,2281.800000190735,1669829127095,2282,HRV,HRV_0006,2022-11-30 17:29:34
21,"[{'imgObject': {}, 'id': 'salmon', 'src': '/static/foodstim60/salmon.jpg', 'key': 'u', 'origWidth': 410, 'origHeight': 409, 'width': 410, 'height': 409, 'widthPercent': 0.45, 'rescaleHeight': False, 'trialN': 21, 'loaded': True, 'loadedTime': 2603.0999999046326, 'positionName': 'LEFT', 'positionCoords': [511.6, 335.5], 'bid': 6.890000000000001}, {'imgObject': {}, 'id': 'rigatoni', 'src': '/static/foodstim60/rigatoni.jpg', 'key': 'i', 'origWidth': 411, 'origHeight': 411, 'width': 411, 'height': 411, 'widthPercent': 0.45, 'rescaleHeight': False, 'trialN': 21, 'loaded': True, 'loadedTime': 2604.9000000953674, 'positionName': 'RIGHT', 'positionCoords': [998.4, 334.5], 'bid': 7.0600000000000005}]",36874.0,1669829127095,salmon,rigatoni,6.890000000000001,7.0600000000000005,0.16999999999999993,rigatoni,1671.7999999523163,1673,1672.2999999523163,True,i,39056.59999990463,2182.5999999046326,1669829129278,2183,HRV,HRV_0006,2022-11-30 17:29:34
22,"[{'imgObject': {}, 'id': 'mac & cheese', 'src': '/static/foodstim60/mac & cheese.jpg', 'key': 'u', 'origWidth': 410, 'origHeight': 410, 'width': 410, 'height': 410, 'widthPercent': 0.45, 'rescaleHeight': False, 'trialN': 22, 'loaded': True, 'loadedTime': 2573.7000000476837, 'positionName': 'LEFT', 'positionCoords': [511.6, 335], 'bid': 9.58}, {'imgObject': {}, 'id': 'sushi w_condiments', 'src': '/static/foodstim60/sushi w_condiments.jpg', 'key': 'i', 'origWidth': 410, 'origHeight': 410, 'width': 410, 'height': 410, 'widthPercent': 0.45, 'rescaleHeight': False, 'trialN': 22, 'loaded': True, 'loadedTime': 2607.7000000476837, 'positionName': 'RIGHT', 'positionCoords': [998.4, 335], 'bid': 9.46}]",39056.799999952316,1669829129278,mac & cheese,sushi w_condiments,9.58,9.46,-0.11999999999999922,mac & cheese,1144.9000000953674,1145,1145.2000000476837,True,u,40713.700000047684,1656.9000000953674,1669829130935,1657,HRV,HRV_0006,2022-11-30 17:29:34
23,"[{'imgObject': {}, 'id': 'turkeysandwich', 'src': '/static/foodstim60/turkeysandwich.jpg', 'key': 'u', 'origWidth': 409, 'origHeight': 409, 'width': 409, 'height': 409, 'widthPercent': 0.45, 'rescaleHeight': False, 'trialN': 23, 'loaded': True, 'loadedTime': 2563.7000000476837, 'positionName': 'LEFT', 'positionCoords': [512.6, 335.5], 'bid': 8.69}, {'imgObject': {}, 'id': 'luckycharms', 'src': '/static/foodstim60/luckycharms.jpg', 'key': 'i', 'origWidth': 410, 'origHeight': 409, 'width': 410, 'height': 409, 'widthPercent': 0.45, 'rescaleHeight': False, 'trialN': 23, 'loaded': True, 'loadedTime': 2622.2999999523163, 'positionName': 'RIGHT', 'positionCoords': [998.4, 335.5], 'bid': 4.92}]",40714.40000009537,1669829130936,turkeysandwich,luckycharms,8.69,4.92,-3.7699999999999996,turkeysandwich,1142.3999998569489,1142,1142.5999999046326,True,u,42362.59999990463,1648.1999998092651,1669829132584,1648,HRV,HRV_0006,2022-11-30 17:29:34
24,"[{'imgObject': {}, 'id': 'cocktailshrimp', 'src': '/static/foodstim60/cocktailshrimp.jpg', 'key': 'u', 'origWidth': 410, 'origHeight': 410, 'width': 410, 'height': 410, 'widthPercent': 0.45, 'rescaleHeight': False, 'trialN': 24, 'loaded': True, 'loadedTime': 2572.4000000953674, 'positionName': 'LEFT', 'positionCoords': [511.6, 335], 'bid': 9.3}, {'imgObject': {}, 'id': 'fried eggs', 'src': '/static/foodstim60/fried eggs.jpg', 'key': 'i', 'origWidth': 410, 'origHeight': 410, 'width': 410, 'height': 410, 'widthPercent': 0.45, 'rescaleHeight': False, 'trialN': 24, 'loaded': True, 'loadedTime': 2568.5999999046326, 'positionName': 'RIGHT', 'positionCoords': [998.4, 335], 'bid': 8}]",42362.90000009537,1669829132584,cocktailshrimp,fried eggs,9.3,8.0,-1.3000000000000007,fried eggs,1063.5,1064,1064.1999998092651,True,i,43929.59999990463,1566.6999998092651,1669829134151,1567,HRV,HRV_0006,2022-11-30 17:29:34
25,"[{'imgObject': {}, 'id': 'raspberries', 'src': '/static/foodstim60/raspberries.jpg', 'key': 'u', 'origWidth': 411, 'origHeight': 411, 'width': 411, 'height': 411, 'widthPercent': 0.45, 'rescaleHeight': False, 'trialN': 25, 'loaded': True, 'loadedTime': 2558.5999999046326, 'positionName': 'LEFT', 'positionCoords': [510.6, 334.5], 'bid': 1.23}, {'imgObject': {}, 'id': 'cheerios', 'src': '/static/foodstim60/cheerios.jpg', 'key': 'i', 'origWidth': 409, 'origHeight': 410, 'width': 409, 'height': 410, 'widthPercent': 0.45, 'rescaleHeight': False, 'trialN': 25, 'loaded': True, 'loadedTime': 2624.2000000476837, 'positionName': 'RIGHT', 'positionCoords': [998.4, 335], 'bid': 1.97}]",43930.299999952316,1669829134152,raspberries,cheerios,1.23,1.97,0.74,cheerios,1287.0,1287,1287.6000001430511,True,i,45721.700000047684,1791.4000000953674,1669829135943,1791,HRV,HRV_0006,2022-11-30 17:29:34
26,"[{'imgObject': {}, 'id': 'salad w chicken', 'src': '/static/foodstim60/salad w chicken.jpg', 'key': 'u', 'origWidth': 411, 'origHeight': 411, 'width': 411, 'height': 411, 'widthPercent': 0.45, 'rescaleHeight': False, 'trialN': 26, 'loaded': True, 'loadedTime': 2626.5, 'positionName': 'LEFT', 'positionCoords': [510.6, 334.5], 'bid': 8.3}, {'imgObject': {}, 'id': 'chicken nuggets2', 'src': '/static/foodstim60/chicken nuggets2.jpg', 'key': 'i', 'origWidth': 410, 'origHeight': 409, 'width': 410, 'height': 409, 'widthPercent': 0.45, 'rescaleHeight': False, 'trialN': 26, 'loaded': True, 'loadedTime': 2628.4000000953674, 'positionName': 'RIGHT', 'positionCoords': [998.4, 335.5], 'bid': 8.38}]",45721.799999952316,1669829135943,salad w chicken,chicken nuggets2,8.3,8.38,0.08000000000000007,salad w chicken,1223.7000000476837,1224,1224.2000000476837,True,u,47452.0,1730.2000000476837,1669829137673,1730,HRV,HRV_0006,2022-11-30 17:29:34
27,"[{'imgObject': {}, 'id': 'blueberries', 'src': '/static/foodstim60/blueberries.jpg', 'key': 'u', 'origWidth': 411, 'origHeight': 411, 'width': 411, 'height': 411, 'widthPercent': 0.45, 'rescaleHeight': False, 'trialN': 27, 'loaded': True, 'loadedTime': 2575.7999999523163, 'positionName': 'LEFT', 'positionCoords': [510.6, 334.5], 'bid': 1.29}, {'imgObject': {}, 'id': 'Grapes', 'src': '/static/foodstim60/Grapes.jpg', 'key': 'i', 'origWidth': 411, 'origHeight': 411, 'width': 411, 'height': 411, 'widthPercent': 0.45, 'rescaleHeight': False, 'trialN': 27, 'loaded': True, 'loadedTime': 2514.0999999046326, 'positionName': 'RIGHT', 'positionCoords': [998.4, 334.5], 'bid': 1.15}]",47452.200000047684,1669829137673,blueberries,Grapes,1.29,1.15,-0.14000000000000012,blueberries,996.7000000476837,997,996.8999998569489,True,u,48955.40000009537,1503.2000000476837,1669829139177,1504,HRV,HRV_0006,2022-11-30 17:29:34
28,"[{'imgObject': {}, 'id': 'froot loops w milk', 'src': '/static/foodstim60/froot loops w milk.jpg', 'key': 'u', 'origWidth': 410, 'origHeight': 410, 'width': 410, 'height': 410, 'widthPercent': 0.45, 'rescaleHeight': False, 'trialN': 28, 'loaded': True, 'loadedTime': 2628.7000000476837, 'positionName': 'LEFT', 'positionCoords': [511.6, 335], 'bid': 5.29}, {'imgObject': {}, 'id': 'eggs', 'src': '/static/foodstim60/eggs.jpg', 'key': 'i', 'origWidth': 409, 'origHeight': 409, 'width': 409, 'height': 409, 'widthPercent': 0.45, 'rescaleHeight': False, 'trialN': 28, 'loaded': True, 'loadedTime': 2570, 'positionName': 'RIGHT', 'positionCoords': [998.4, 335.5], 'bid': 6.62}]",48955.700000047684,1669829139177,froot loops w milk,eggs,5.29,6.62,1.33,eggs,1061.7999999523163,1062,1062.5,True,i,50532.200000047684,1576.5,1669829140753,1576,HRV,HRV_0006,2022-11-30 17:29:34
29,"[{'imgObject': {}, 'id': 'burrito', 'src': '/static/foodstim60/burrito.jpg', 'key': 'u', 'origWidth': 410, 'origHeight': 410, 'width': 410, 'height': 410, 'widthPercent': 0.45, 'rescaleHeight': False, 'trialN': 29, 'loaded': True, 'loadedTime': 2562.7000000476837, 'positionName': 'LEFT', 'positionCoords': [511.6, 335], 'bid': 7.1000000000000005}, {'imgObject': {}, 'id': 'omelette', 'src': '/static/foodstim60/omelette.jpg', 'key': 'i', 'origWidth': 410, 'origHeight': 409, 'width': 410, 'height': 409, 'widthPercent': 0.45, 'rescaleHeight': False, 'trialN': 29, 'loaded': True, 'loadedTime': 2632.2999999523163, 'positionName': 'RIGHT', 'positionCoords': [998.4, 335.5], 'bid': 6.53}]",50532.59999990463,1669829140754,burrito,omelette,7.1000000000000005,6.53,-0.5700000000000003,omelette,1100.8000001907349,1101,1101.1000001430511,True,i,52141.40000009537,1608.8000001907349,1669829142363,1609,HRV,HRV_0006,2022-11-30 17:29:34
30,"[{'imgObject': {}, 'id': 'banana', 'src': '/static/foodstim60/banana.jpg', 'key': 'u', 'origWidth': 410, 'origHeight': 410, 'width': 410, 'height': 410, 'widthPercent': 0.45, 'rescaleHeight': False, 'trialN': 30, 'loaded': True, 'loadedTime': 2534.4000000953674, 'positionName': 'LEFT', 'positionCoords': [511.6, 335], 'bid': 1.23}, {'imgObject': {}, 'id': 'pear', 'src': '/static/foodstim60/pear.jpg', 'key': 'i', 'origWidth': 411, 'origHeight': 410, 'width': 411, 'height': 410, 'widthPercent': 0.45, 'rescaleHeight': False, 'trialN': 30, 'loaded': True, 'loadedTime': 2632.7999999523163, 'positionName': 'RIGHT', 'positionCoords': [998.4, 335], 'bid': 1.69}]",52141.799999952316,1669829142363,banana,pear,1.23,1.69,0.45999999999999996,banana,922.9000000953674,923,923.2000000476837,True,u,53569.299999952316,1427.5,1669829143791,1428,HRV,HRV_0006,2022-11-30 17:29:34
31,"[{'imgObject': {}, 'id': 'tacos', 'src': '/static/foodstim60/tacos.jpg', 'key': 'u', 'origWidth': 411, 'origHeight': 411, 'width': 411, 'height': 411, 'widthPercent': 0.45, 'rescaleHeight': False, 'trialN': 31, 'loaded': True, 'loadedTime': 2592, 'positionName': 'LEFT', 'positionCoords': [510.6, 334.5], 'bid': 7.98}, {'imgObject': {}, 'id': 'yogurt no spoon', 'src': '/static/foodstim60/yogurt no spoon.jpg', 'key': 'i', 'origWidth': 411, 'origHeight': 410, 'width': 411, 'height': 410, 'widthPercent': 0.45, 'rescaleHeight': False, 'trialN': 31, 'loaded': True, 'loadedTime': 2651.5, 'positionName': 'RIGHT', 'positionCoords': [998.4, 335], 'bid': 2.87}]",53569.59999990463,1669829143791,tacos,yogurt no spoon,7.98,2.87,-5.11,tacos,1136.1000001430511,1136,1136.6000001430511,True,u,55215.799999952316,1646.2000000476837,1669829145437,1646,HRV,HRV_0006,2022-11-30 17:29:34
32,"[{'imgObject': {}, 'id': 'cheerios', 'src': '/static/foodstim60/cheerios.jpg', 'key': 'u', 'origWidth': 409, 'origHeight': 410, 'width': 409, 'height': 410, 'widthPercent': 0.45, 'rescaleHeight': False, 'trialN': 32, 'loaded': True, 'loadedTime': 2623.2999999523163, 'positionName': 'LEFT', 'positionCoords': [512.6, 335], 'bid': 1.97}, {'imgObject': {}, 'id': 'fruitsalad', 'src': '/static/foodstim60/fruitsalad.jpg', 'key': 'i', 'origWidth': 410, 'origHeight': 410, 'width': 410, 'height': 410, 'widthPercent': 0.45, 'rescaleHeight': False, 'trialN': 32, 'loaded': True, 'loadedTime': 2574.7999999523163, 'positionName': 'RIGHT', 'positionCoords': [998.4, 335], 'bid': 1.13}]",55216.40000009537,1669829145438,cheerios,fruitsalad,1.97,1.13,-0.8400000000000001,cheerios,1305.7999999523163,1306,1306.5,True,u,57024.299999952316,1807.8999998569489,1669829147246,1808,HRV,HRV_0006,2022-11-30 17:29:34
33,"[{'imgObject': {}, 'id': 'bagel plain', 'src': '/static/foodstim60/bagel plain.jpg', 'key': 'u', 'origWidth': 410, 'origHeight': 410, 'width': 410, 'height': 410, 'widthPercent': 0.45, 'rescaleHeight': False, 'trialN': 33, 'loaded': True, 'loadedTime': 2652.5, 'positionName': 'LEFT', 'positionCoords': [511.6, 335], 'bid': 1.23}, {'imgObject': {}, 'id': 'popsicles', 'src': '/static/foodstim60/popsicles.jpg', 'key': 'i', 'origWidth': 410, 'origHeight': 410, 'width': 410, 'height': 410, 'widthPercent': 0.45, 'rescaleHeight': False, 'trialN': 33, 'loaded': True, 'loadedTime': 2661.2999999523163, 'positionName': 'RIGHT', 'positionCoords': [998.4, 335], 'bid': 1.95}]",57024.5,1669829147246,bagel plain,popsicles,1.23,1.95,0.72,popsicles,1057.2000000476837,1057,1057.5999999046326,True,i,58592.59999990463,1568.0999999046326,1669829148814,1568,HRV,HRV_0006,2022-11-30 17:29:34
34,"[{'imgObject': {}, 'id': 'raisin bran w milk', 'src': '/static/foodstim60/raisin bran w milk.jpg', 'key': 'u', 'origWidth': 411, 'origHeight': 411, 'width': 411, 'height': 411, 'widthPercent': 0.45, 'rescaleHeight': False, 'trialN': 34, 'loaded': True, 'loadedTime': 2521.7999999523163, 'positionName': 'LEFT', 'positionCoords': [510.6, 334.5], 'bid': 5.8}, {'imgObject': {}, 'id': 'grilled chicken strips', 'src': '/static/foodstim60/grilled chicken strips.jpg', 'key': 'i', 'origWidth': 410, 'origHeight': 411, 'width': 410, 'height': 411, 'widthPercent': 0.45, 'rescaleHeight': False, 'trialN': 34, 'loaded': True, 'loadedTime': 2678.2000000476837, 'positionName': 'RIGHT', 'positionCoords': [998.4, 334.5], 'bid': 4.95}]",58593.200000047684,1669829148814,raisin bran w milk,grilled chicken strips,5.8,4.95,-0.8499999999999996,grilled chicken strips,1151.7000000476837,1152,1152.0,True,i,60255.299999952316,1662.0999999046326,1669829150477,1663,HRV,HRV_0006,2022-11-30 17:29:34
35,"[{'imgObject': {}, 'id': 'edamame', 'src': '/static/foodstim60/edamame.jpg', 'key': 'u', 'origWidth': 409, 'origHeight': 410, 'width': 409, 'height': 410, 'widthPercent': 0.45, 'rescaleHeight': False, 'trialN': 35, 'loaded': True, 'loadedTime': 2679.5, 'positionName': 'LEFT', 'positionCoords': [512.6, 335], 'bid': 1.05}, {'imgObject': {}, 'id': 'strawberries', 'src': '/static/foodstim60/strawberries.jpg', 'key': 'i', 'origWidth': 410, 'origHeight': 410, 'width': 410, 'height': 410, 'widthPercent': 0.45, 'rescaleHeight': False, 'trialN': 35, 'loaded': True, 'loadedTime': 2688, 'positionName': 'RIGHT', 'positionCoords': [998.4, 335], 'bid': 1.34}]",60255.40000009537,1669829150477,edamame,strawberries,1.05,1.34,0.29000000000000004,edamame,1602.0,1602,1602.5,True,u,62364.09999990463,2108.699999809265,1669829152585,2108,HRV,HRV_0006,2022-11-30 17:29:34
36,"[{'imgObject': {}, 'id': 'blueberries', 'src': '/static/foodstim60/blueberries.jpg', 'key': 'u', 'origWidth': 411, 'origHeight': 411, 'width': 411, 'height': 411, 'widthPercent': 0.45, 'rescaleHeight': False, 'trialN': 36, 'loaded': True, 'loadedTime': 2575.7000000476837, 'positionName': 'LEFT', 'positionCoords': [510.6, 334.5], 'bid': 1.29}, {'imgObject': {}, 'id': 'cherries', 'src': '/static/foodstim60/cherries.jpg', 'key': 'i', 'origWidth': 410, 'origHeight': 411, 'width': 410, 'height': 411, 'widthPercent': 0.45, 'rescaleHeight': False, 'trialN': 36, 'loaded': True, 'loadedTime': 2597, 'positionName': 'RIGHT', 'positionCoords': [998.4, 334.5], 'bid': 1.28}]",62364.5,1669829152586,blueberries,cherries,1.29,1.28,-0.010000000000000009,blueberries,781.5999999046326,782,782.2000000476837,True,u,63651.90000009537,1287.4000000953674,1669829153873,1287,HRV,HRV_0006,2022-11-30 17:29:34
37,"[{'imgObject': {}, 'id': 'turkey sandwich', 'src': '/static/foodstim60/turkey sandwich.jpg', 'key': 'u', 'origWidth': 409, 'origHeight': 409, 'width': 409, 'height': 409, 'widthPercent': 0.45, 'rescaleHeight': False, 'trialN': 37, 'loaded': True, 'loadedTime': 2550.2000000476837, 'positionName': 'LEFT', 'positionCoords': [512.6, 335.5], 'bid': 7.44}, {'imgObject': {}, 'id': 'rigatoni and sauce', 'src': '/static/foodstim60/rigatoni and sauce.jpg', 'key': 'i', 'origWidth': 410, 'origHeight': 411, 'width': 410, 'height': 411, 'widthPercent': 0.45, 'rescaleHeight': False, 'trialN': 37, 'loaded': True, 'loadedTime': 2689.0999999046326, 'positionName': 'RIGHT', 'positionCoords': [998.4, 334.5], 'bid': 7.37}]",63652.200000047684,1669829153873,turkey sandwich,rigatoni and sauce,7.44,7.37,-0.07000000000000028,turkey sandwich,1076.5999999046326,1077,1076.8999998569489,True,u,65235.299999952316,1583.0999999046326,1669829155457,1584,HRV,HRV_0006,2022-11-30 17:29:34
38,"[{'imgObject': {}, 'id': 'roastedpotatoes', 'src': '/static/foodstim60/roastedpotatoes.jpg', 'key': 'u', 'origWidth': 409, 'origHeight': 410, 'width': 409, 'height': 410, 'widthPercent': 0.45, 'rescaleHeight': False, 'trialN': 38, 'loaded': True, 'loadedTime': 2546.4000000953674, 'positionName': 'LEFT', 'positionCoords': [512.6, 335], 'bid': 5.73}, {'imgObject': {}, 'id': 'mango', 'src': '/static/foodstim60/mango.jpg', 'key': 'i', 'origWidth': 411, 'origHeight': 411, 'width': 411, 'height': 411, 'widthPercent': 0.45, 'rescaleHeight': False, 'trialN': 38, 'loaded': True, 'loadedTime': 2699.5, 'positionName': 'RIGHT', 'positionCoords': [998.4, 334.5], 'bid': 1.01}]",65235.5,1669829155457,roastedpotatoes,mango,5.73,1.01,-4.720000000000001,roastedpotatoes,1069.0999999046326,1069,1069.4000000953674,True,u,66819.09999990463,1583.5999999046326,1669829157040,1583,HRV,HRV_0006,2022-11-30 17:29:34
39,"[{'imgObject': {}, 'id': 'eggsalad', 'src': '/static/foodstim60/eggsalad.jpg', 'key': 'u', 'origWidth': 410, 'origHeight': 409, 'width': 410, 'height': 409, 'widthPercent': 0.45, 'rescaleHeight': False, 'trialN': 39, 'loaded': True, 'loadedTime': 2700.7000000476837, 'positionName': 'LEFT', 'positionCoords': [511.6, 335.5], 'bid': 8.870000000000001}, {'imgObject': {}, 'id': 'tacos', 'src': '/static/foodstim60/tacos.jpg', 'key': 'i', 'origWidth': 411, 'origHeight': 411, 'width': 411, 'height': 411, 'widthPercent': 0.45, 'rescaleHeight': False, 'trialN': 39, 'loaded': True, 'loadedTime': 2580.7000000476837, 'positionName': 'RIGHT', 'positionCoords': [998.4, 334.5], 'bid': 7.98}]",66819.09999990463,1669829157040,eggsalad,tacos,8.870000000000001,7.98,-0.8900000000000006,eggsalad,846.2000000476837,847,846.5,True,u,68171.40000009537,1352.3000001907349,1669829158393,1353,HRV,HRV_0006,2022-11-30 17:29:34
40,"[{'imgObject': {}, 'id': 'turkey sandwich', 'src': '/static/foodstim60/turkey sandwich.jpg', 'key': 'u', 'origWidth': 409, 'origHeight': 409, 'width': 409, 'height': 409, 'widthPercent': 0.45, 'rescaleHeight': False, 'trialN': 40, 'loaded': True, 'loadedTime': 2549.7999999523163, 'positionName': 'LEFT', 'positionCoords': [512.6, 335.5], 'bid': 7.44}, {'imgObject': {}, 'id': 'pear', 'src': '/static/foodstim60/pear.jpg', 'key': 'i', 'origWidth': 411, 'origHeight': 410, 'width': 411, 'height': 410, 'widthPercent': 0.45, 'rescaleHeight': False, 'trialN': 40, 'loaded': True, 'loadedTime': 2642.7000000476837, 'positionName': 'RIGHT', 'positionCoords': [998.4, 335], 'bid': 1.69}]",68171.5,1669829158393,turkey sandwich,pear,7.44,1.69,-5.75,turkey sandwich,933.2000000476837,933,933.4000000953674,True,u,69612.40000009537,1440.9000000953674,1669829159834,1441,HRV,HRV_0006,2022-11-30 17:29:34
41,"[{'imgObject': {}, 'id': 'corn cob', 'src': '/static/foodstim60/corn cob.jpg', 'key': 'u', 'origWidth': 411, 'origHeight': 411, 'width': 411, 'height': 411, 'widthPercent': 0.45, 'rescaleHeight': False, 'trialN': 41, 'loaded': True, 'loadedTime': 2571, 'positionName': 'LEFT', 'positionCoords': [510.6, 334.5], 'bid': 4.94}, {'imgObject': {}, 'id': 'blueberries', 'src': '/static/foodstim60/blueberries.jpg', 'key': 'i', 'origWidth': 411, 'origHeight': 411, 'width': 411, 'height': 411, 'widthPercent': 0.45, 'rescaleHeight': False, 'trialN': 41, 'loaded': True, 'loadedTime': 2575.9000000953674, 'positionName': 'RIGHT', 'positionCoords': [998.4, 334.5], 'bid': 1.29}]",69612.70000004768,1669829159834,corn cob,blueberries,4.94,1.29,-3.6500000000000004,corn cob,925.2000000476837,926,925.7999999523163,True,u,71039.70000004768,1427.0,1669829161261,1427,HRV,HRV_0006,2022-11-30 17:29:34
42,"[{'imgObject': {}, 'id': 'veggieswithdip', 'src': '/static/foodstim60/veggieswithdip.jpg', 'key': 'u', 'origWidth': 409, 'origHeight': 409, 'width': 409, 'height': 409, 'widthPercent': 0.45, 'rescaleHeight': False, 'trialN': 42, 'loaded': True, 'loadedTime': 2523.4000000953674, 'positionName': 'LEFT', 'positionCoords': [512.6, 335.5], 'bid': 6.19}, {'imgObject': {}, 'id': 'froot loops w milk', 'src': '/static/foodstim60/froot loops w milk.jpg', 'key': 'i', 'origWidth': 410, 'origHeight': 410, 'width': 410, 'height': 410, 'widthPercent': 0.45, 'rescaleHeight': False, 'trialN': 42, 'loaded': True, 'loadedTime': 2629.4000000953674, 'positionName': 'RIGHT', 'positionCoords': [998.4, 335], 'bid': 5.29}]",71040.40000009537,1669829161262,veggieswithdip,froot loops w milk,6.19,5.29,-0.9000000000000004,froot loops w milk,1280.2999999523163,1280,1280.5,True,i,72825.40000009537,1785.0,1669829163047,1785,HRV,HRV_0006,2022-11-30 17:29:34
43,"[{'imgObject': {}, 'id': 'strawberries', 'src': '/static/foodstim60/strawberries.jpg', 'key': 'u', 'origWidth': 410, 'origHeight': 410, 'width': 410, 'height': 410, 'widthPercent': 0.45, 'rescaleHeight': False, 'trialN': 43, 'loaded': True, 'loadedTime': 2688.2000000476837, 'positionName': 'LEFT', 'positionCoords': [511.6, 335], 'bid': 1.34}, {'imgObject': {}, 'id': 'shreddedwheatwithmilk', 'src': '/static/foodstim60/shreddedwheatwithmilk.jpg', 'key': 'i', 'origWidth': 410, 'origHeight': 410, 'width': 410, 'height': 410, 'widthPercent': 0.45, 'rescaleHeight': False, 'trialN': 43, 'loaded': True, 'loadedTime': 2701.5, 'positionName': 'RIGHT', 'positionCoords': [998.4, 335], 'bid': 5.13}]",72825.5,1669829163047,strawberries,shreddedwheatwithmilk,1.34,5.13,3.79,shreddedwheatwithmilk,975.2000000476837,975,975.5,True,i,74314.59999990463,1489.0999999046326,1669829164536,1489,HRV,HRV_0006,2022-11-30 17:29:34
44,"[{'imgObject': {}, 'id': 'bagel plain', 'src': '/static/foodstim60/bagel plain.jpg', 'key': 'u', 'origWidth': 410, 'origHeight': 410, 'width': 410, 'height': 410, 'widthPercent': 0.45, 'rescaleHeight': False, 'trialN': 44, 'loaded': True, 'loadedTime': 2651.7999999523163, 'positionName': 'LEFT', 'positionCoords': [511.6, 335], 'bid': 1.23}, {'imgObject': {}, 'id': 'raspberries', 'src': '/static/foodstim60/raspberries.jpg', 'key': 'i', 'origWidth': 411, 'origHeight': 411, 'width': 411, 'height': 411, 'widthPercent': 0.45, 'rescaleHeight': False, 'trialN': 44, 'loaded': True, 'loadedTime': 2558.7999999523163, 'positionName': 'RIGHT', 'positionCoords': [998.4, 334.5], 'bid': 1.23}]",74314.70000004768,1669829164536,bagel plain,raspberries,1.23,1.23,0.0,bagel plain,1286.0999999046326,1286,1286.2000000476837,True,u,76115.79999995232,1801.0999999046326,1669829166337,1801,HRV,HRV_0006,2022-11-30 17:29:34
45,"[{'imgObject': {}, 'id': 'rigatoni and sauce', 'src': '/static/foodstim60/rigatoni and sauce.jpg', 'key': 'u', 'origWidth': 410, 'origHeight': 411, 'width': 410, 'height': 411, 'widthPercent': 0.45, 'rescaleHeight': False, 'trialN': 45, 'loaded': True, 'loadedTime': 2689.2000000476837, 'positionName': 'LEFT', 'positionCoords': [511.6, 334.5], 'bid': 7.37}, {'imgObject': {}, 'id': 'eggsalad', 'src': '/static/foodstim60/eggsalad.jpg', 'key': 'i', 'origWidth': 410, 'origHeight': 409, 'width': 410, 'height': 409, 'widthPercent': 0.45, 'rescaleHeight': False, 'trialN': 45, 'loaded': True, 'loadedTime': 2701.4000000953674, 'positionName': 'RIGHT', 'positionCoords': [998.4, 335.5], 'bid': 8.870000000000001}]",76116.59999990463,1669829166338,rigatoni and sauce,eggsalad,7.37,8.870000000000001,1.5000000000000009,eggsalad,996.1000001430511,996,996.4000000953674,True,i,77629.70000004768,1513.1000001430511,1669829167851,1513,HRV,HRV_0006,2022-11-30 17:29:34
46,"[{'imgObject': {}, 'id': 'luckycharms', 'src': '/static/foodstim60/luckycharms.jpg', 'key': 'u', 'origWidth': 410, 'origHeight': 409, 'width': 410, 'height': 409, 'widthPercent': 0.45, 'rescaleHeight': False, 'trialN': 46, 'loaded': True, 'loadedTime': 2621.7999999523163, 'positionName': 'LEFT', 'positionCoords': [511.6, 335.5], 'bid': 4.92}, {'imgObject': {}, 'id': 'lox', 'src': '/static/foodstim60/lox.jpg', 'key': 'i', 'origWidth': 410, 'origHeight': 411, 'width': 410, 'height': 411, 'widthPercent': 0.45, 'rescaleHeight': False, 'trialN': 46, 'loaded': True, 'loadedTime': 2555.2999999523163, 'positionName': 'RIGHT', 'positionCoords': [998.4, 334.5], 'bid': 5.45}]",77630.09999990463,1669829167851,luckycharms,lox,4.92,5.45,0.5300000000000002,lox,1227.5,1228,1227.8000001907349,True,i,79368.90000009537,1738.8000001907349,1669829169590,1739,HRV,HRV_0006,2022-11-30 17:29:34
47,"[{'imgObject': {}, 'id': 'baked potato', 'src': '/static/foodstim60/baked potato.jpg', 'key': 'u', 'origWidth': 409, 'origHeight': 410, 'width': 409, 'height': 410, 'widthPercent': 0.45, 'rescaleHeight': False, 'trialN': 47, 'loaded': True, 'loadedTime': 2703.2000000476837, 'positionName': 'LEFT', 'positionCoords': [512.6, 335], 'bid': 6.36}, {'imgObject': {}, 'id': 'sweetpotato', 'src': '/static/foodstim60/sweetpotato.jpg', 'key': 'i', 'origWidth': 410, 'origHeight': 410, 'width': 410, 'height': 410, 'widthPercent': 0.45, 'rescaleHeight': False, 'trialN': 47, 'loaded': True, 'loadedTime': 2705.0999999046326, 'positionName': 'RIGHT', 'positionCoords': [998.4, 335], 'bid': 6.34}]",79369.09999990463,1669829169590,baked potato,sweetpotato,6.36,6.34,-0.020000000000000462,sweetpotato,1375.6000001430511,1376,1375.8000001907349,True,i,81255.70000004768,1886.6000001430511,1669829171477,1887,HRV,HRV_0006,2022-11-30 17:29:34
48,"[{'imgObject': {}, 'id': 'rigatoni and sauce', 'src': '/static/foodstim60/rigatoni and sauce.jpg', 'key': 'u', 'origWidth': 410, 'origHeight': 411, 'width': 410, 'height': 411, 'widthPercent': 0.45, 'rescaleHeight': False, 'trialN': 48, 'loaded': True, 'loadedTime': 2696, 'positionName': 'LEFT', 'positionCoords': [511.6, 334.5], 'bid': 7.37}, {'imgObject': {}, 'id': 'cantaloupe', 'src': '/static/foodstim60/cantaloupe.jpg', 'key': 'i', 'origWidth': 409, 'origHeight': 409, 'width': 409, 'height': 409, 'widthPercent': 0.45, 'rescaleHeight': False, 'trialN': 48, 'loaded': True, 'loadedTime': 2705.5, 'positionName': 'RIGHT', 'positionCoords': [998.4, 335.5], 'bid': 1.43}]",81255.79999995232,1669829171477,rigatoni and sauce,cantaloupe,7.37,1.43,-5.94,rigatoni and sauce,808.7999999523163,808,808.9000000953674,True,u,82576.5,1320.7000000476837,1669829172797,1320,HRV,HRV_0006,2022-11-30 17:29:34
49,"[{'imgObject': {}, 'id': 'chickenfingers', 'src': '/static/foodstim60/chickenfingers.jpg', 'key': 'u', 'origWidth': 410, 'origHeight': 410, 'width': 410, 'height': 410, 'widthPercent': 0.45, 'rescaleHeight': False, 'trialN': 49, 'loaded': True, 'loadedTime': 2564.7000000476837, 'positionName': 'LEFT', 'positionCoords': [511.6, 335], 'bid': 6.76}, {'imgObject': {}, 'id': 'salmon', 'src': '/static/foodstim60/salmon.jpg', 'key': 'i', 'origWidth': 410, 'origHeight': 409, 'width': 410, 'height': 409, 'widthPercent': 0.45, 'rescaleHeight': False, 'trialN': 49, 'loaded': True, 'loadedTime': 2602.5, 'positionName': 'RIGHT', 'positionCoords': [998.4, 335.5], 'bid': 6.890000000000001}]",82576.70000004768,1669829172797,chickenfingers,salmon,6.76,6.890000000000001,0.13000000000000078,chickenfingers,992.0,992,992.2999999523163,True,u,84082.5,1505.7999999523163,1669829174303,1506,HRV,HRV_0006,2022-11-30 17:29:34
50,"[{'imgObject': {}, 'id': 'ice cream sundae 002', 'src': '/static/foodstim60/ice cream sundae 002.jpg', 'key': 'u', 'origWidth': 409, 'origHeight': 409, 'width': 409, 'height': 409, 'widthPercent': 0.45, 'rescaleHeight': False, 'trialN': 50, 'loaded': True, 'loadedTime': 2531, 'positionName': 'LEFT', 'positionCoords': [512.6, 335.5], 'bid': 3.69}, {'imgObject': {}, 'id': 'salad w chicken', 'src': '/static/foodstim60/salad w chicken.jpg', 'key': 'i', 'origWidth': 411, 'origHeight': 411, 'width': 411, 'height': 411, 'widthPercent': 0.45, 'rescaleHeight': False, 'trialN': 50, 'loaded': True, 'loadedTime': 2627, 'positionName': 'RIGHT', 'positionCoords': [998.4, 334.5], 'bid': 8.3}]",84082.70000004768,1669829174303,ice cream sundae 002,salad w chicken,3.69,8.3,4.610000000000001,salad w chicken,878.2999999523163,878,878.3999998569489,True,i,85475.5,1392.7999999523163,1669829175696,1393,HRV,HRV_0006,2022-11-30 17:29:34
51,"[{'imgObject': {}, 'id': 'steak', 'src': '/static/foodstim60/steak.jpg', 'key': 'u', 'origWidth': 410, 'origHeight': 410, 'width': 410, 'height': 410, 'widthPercent': 0.45, 'rescaleHeight': False, 'trialN': 51, 'loaded': True, 'loadedTime': 2561.2999999523163, 'positionName': 'LEFT', 'positionCoords': [511.6, 335], 'bid': 8.56}, {'imgObject': {}, 'id': 'turkeysandwich', 'src': '/static/foodstim60/turkeysandwich.jpg', 'key': 'i', 'origWidth': 409, 'origHeight': 409, 'width': 409, 'height': 409, 'widthPercent': 0.45, 'rescaleHeight': False, 'trialN': 51, 'loaded': True, 'loadedTime': 2563.4000000953674, 'positionName': 'RIGHT', 'positionCoords': [998.4, 335.5], 'bid': 8.69}]",85475.59999990463,1669829175696,steak,turkeysandwich,8.56,8.69,0.129999999999999,steak,813.1000001430511,813,813.3000001907349,True,u,86803.79999995232,1328.2000000476837,1669829177024,1328,HRV,HRV_0006,2022-11-30 17:29:34
52,"[{'imgObject': {}, 'id': 'bagel plain', 'src': '/static/foodstim60/bagel plain.jpg', 'key': 'u', 'origWidth': 410, 'origHeight': 410, 'width': 410, 'height': 410, 'widthPercent': 0.45, 'rescaleHeight': False, 'trialN': 52, 'loaded': True, 'loadedTime': 2652.5999999046326, 'positionName': 'LEFT', 'positionCoords': [511.6, 335], 'bid': 1.23}, {'imgObject': {}, 'id': 'blackbeanswithrice', 'src': '/static/foodstim60/blackbeanswithrice.jpg', 'key': 'i', 'origWidth': 410, 'origHeight': 410, 'width': 410, 'height': 410, 'widthPercent': 0.45, 'rescaleHeight': False, 'trialN': 52, 'loaded': True, 'loadedTime': 2707.0999999046326, 'positionName': 'RIGHT', 'positionCoords': [998.4, 335], 'bid': 4.5600000000000005}]",86804.5,1669829177025,bagel plain,blackbeanswithrice,1.23,4.5600000000000005,3.3300000000000005,blackbeanswithrice,1404.2000000476837,1404,1404.4000000953674,True,i,88714.5,1910.0,1669829178935,1910,HRV,HRV_0006,2022-11-30 17:29:34
53,"[{'imgObject': {}, 'id': 'salad w chicken', 'src': '/static/foodstim60/salad w chicken.jpg', 'key': 'u', 'origWidth': 411, 'origHeight': 411, 'width': 411, 'height': 411, 'widthPercent': 0.45, 'rescaleHeight': False, 'trialN': 53, 'loaded': True, 'loadedTime': 2626.5, 'positionName': 'LEFT', 'positionCoords': [510.6, 334.5], 'bid': 8.3}, {'imgObject': {}, 'id': 'salmon', 'src': '/static/foodstim60/salmon.jpg', 'key': 'i', 'origWidth': 410, 'origHeight': 409, 'width': 410, 'height': 409, 'widthPercent': 0.45, 'rescaleHeight': False, 'trialN': 53, 'loaded': True, 'loadedTime': 2602.5999999046326, 'positionName': 'RIGHT', 'positionCoords': [998.4, 335.5], 'bid': 6.890000000000001}]",88714.59999990463,1669829178935,salad w chicken,salmon,8.3,6.890000000000001,-1.4100000000000001,salad w chicken,743.1000001430511,743,743.6000001430511,True,u,89971.29999995232,1256.7000000476837,1669829180192,1257,HRV,HRV_0006,2022-11-30 17:29:34
54,"[{'imgObject': {}, 'id': 'avocado', 'src': '/static/foodstim60/avocado.jpg', 'key': 'u', 'origWidth': 409, 'origHeight': 409, 'width': 409, 'height': 409, 'widthPercent': 0.45, 'rescaleHeight': False, 'trialN': 54, 'loaded': True, 'loadedTime': 2708.4000000953674, 'positionName': 'LEFT', 'positionCoords': [512.6, 335.5], 'bid': 5.37}, {'imgObject': {}, 'id': 'Tribe humus pita', 'src': '/static/foodstim60/Tribe humus pita.jpg', 'key': 'i', 'origWidth': 411, 'origHeight': 411, 'width': 411, 'height': 411, 'widthPercent': 0.45, 'rescaleHeight': False, 'trialN': 54, 'loaded': True, 'loadedTime': 2566.2000000476837, 'positionName': 'RIGHT', 'positionCoords': [998.4, 334.5], 'bid': 7.22}]",89971.5,1669829180192,avocado,Tribe humus pita,5.37,7.22,1.8499999999999996,Tribe humus pita,1678.2999999523163,1679,1678.7000000476837,True,i,92155.40000009537,2183.9000000953674,1669829182376,2184,HRV,HRV_0006,2022-11-30 17:29:34
55,"[{'imgObject': {}, 'id': 'lox', 'src': '/static/foodstim60/lox.jpg', 'key': 'u', 'origWidth': 410, 'origHeight': 411, 'width': 410, 'height': 411, 'widthPercent': 0.45, 'rescaleHeight': False, 'trialN': 55, 'loaded': True, 'loadedTime': 2554.7999999523163, 'positionName': 'LEFT', 'positionCoords': [511.6, 334.5], 'bid': 5.45}, {'imgObject': {}, 'id': 'froot loops w milk', 'src': '/static/foodstim60/froot loops w milk.jpg', 'key': 'i', 'origWidth': 410, 'origHeight': 410, 'width': 410, 'height': 410, 'widthPercent': 0.45, 'rescaleHeight': False, 'trialN': 55, 'loaded': True, 'loadedTime': 2629.2999999523163, 'positionName': 'RIGHT', 'positionCoords': [998.4, 335], 'bid': 5.29}]",92155.90000009537,1669829182376,lox,froot loops w milk,5.45,5.29,-0.16000000000000014,lox,1196.6999998092651,1197,1197.0,True,u,93861.5,1705.5999999046326,1669829184082,1706,HRV,HRV_0006,2022-11-30 17:29:34
56,"[{'imgObject': {}, 'id': 'bagel plain', 'src': '/static/foodstim60/bagel plain.jpg', 'key': 'u', 'origWidth': 410, 'origHeight': 410, 'width': 410, 'height': 410, 'widthPercent': 0.45, 'rescaleHeight': False, 'trialN': 56, 'loaded': True, 'loadedTime': 2660, 'positionName': 'LEFT', 'positionCoords': [511.6, 335], 'bid': 1.23}, {'imgObject': {}, 'id': 'mango', 'src': '/static/foodstim60/mango.jpg', 'key': 'i', 'origWidth': 411, 'origHeight': 411, 'width': 411, 'height': 411, 'widthPercent': 0.45, 'rescaleHeight': False, 'trialN': 56, 'loaded': True, 'loadedTime': 2699, 'positionName': 'RIGHT', 'positionCoords': [998.4, 334.5], 'bid': 1.01}]",93861.79999995232,1669829184082,bagel plain,mango,1.23,1.01,-0.21999999999999997,bagel plain,867.9000000953674,869,868.5,True,u,95236.29999995232,1374.5,1669829185457,1375,HRV,HRV_0006,2022-11-30 17:29:34
57,"[{'imgObject': {}, 'id': 'seaweed', 'src': '/static/foodstim60/seaweed.jpg', 'key': 'u', 'origWidth': 410, 'origHeight': 410, 'width': 410, 'height': 410, 'widthPercent': 0.45, 'rescaleHeight': False, 'trialN': 57, 'loaded': True, 'loadedTime': 2557, 'positionName': 'LEFT', 'positionCoords': [511.6, 335], 'bid': 4.8}, {'imgObject': {}, 'id': 'steak', 'src': '/static/foodstim60/steak.jpg', 'key': 'i', 'origWidth': 410, 'origHeight': 410, 'width': 410, 'height': 410, 'widthPercent': 0.45, 'rescaleHeight': False, 'trialN': 57, 'loaded': True, 'loadedTime': 2560.2999999523163, 'positionName': 'RIGHT', 'positionCoords': [998.4, 335], 'bid': 8.56}]",95236.70000004768,1669829185457,seaweed,steak,4.8,8.56,3.7600000000000007,steak,1019.8999998569489,1020,1020.2000000476837,True,i,96763.59999990463,1526.8999998569489,1669829186984,1527,HRV,HRV_0006,2022-11-30 17:29:34
58,"[{'imgObject': {}, 'id': 'luckycharms', 'src': '/static/foodstim60/luckycharms.jpg', 'key': 'u', 'origWidth': 410, 'origHeight': 409, 'width': 410, 'height': 409, 'widthPercent': 0.45, 'rescaleHeight': False, 'trialN': 58, 'loaded': True, 'loadedTime': 2622.4000000953674, 'positionName': 'LEFT', 'positionCoords': [511.6, 335.5], 'bid': 4.92}, {'imgObject': {}, 'id': 'seaweed', 'src': '/static/foodstim60/seaweed.jpg', 'key': 'i', 'origWidth': 410, 'origHeight': 410, 'width': 410, 'height': 410, 'widthPercent': 0.45, 'rescaleHeight': False, 'trialN': 58, 'loaded': True, 'loadedTime': 2556.9000000953674, 'positionName': 'RIGHT', 'positionCoords': [998.4, 335], 'bid': 4.8}]",96763.90000009537,1669829186984,luckycharms,seaweed,4.92,4.8,-0.1200000000000001,seaweed,1180.8999998569489,1182,1181.1999998092651,True,i,98459.5,1695.5999999046326,1669829188680,1696,HRV,HRV_0006,2022-11-30 17:29:34
59,"[{'imgObject': {}, 'id': 'apple slices', 'src': '/static/foodstim60/apple slices.jpg', 'key': 'u', 'origWidth': 409, 'origHeight': 410, 'width': 409, 'height': 410, 'widthPercent': 0.45, 'rescaleHeight': False, 'trialN': 59, 'loaded': True, 'loadedTime': 2551.5, 'positionName': 'LEFT', 'positionCoords': [512.6, 335], 'bid': 0.94}, {'imgObject': {}, 'id': 'cherry tomato', 'src': '/static/foodstim60/cherry tomato.jpg', 'key': 'i', 'origWidth': 410, 'origHeight': 410, 'width': 410, 'height': 410, 'widthPercent': 0.45, 'rescaleHeight': False, 'trialN': 59, 'loaded': True, 'loadedTime': 2601.2999999523163, 'positionName': 'RIGHT', 'positionCoords': [998.4, 335], 'bid': 0.4}]",98460.09999990463,1669829188680,apple slices,cherry tomato,0.94,0.4,-0.5399999999999999,cherry tomato,1316.8000001907349,1317,1317.0,True,i,100290.40000009537,1830.3000001907349,1669829190511,1831,HRV,HRV_0006,2022-11-30 17:29:34
60,"[{'imgObject': {}, 'id': 'kiwi', 'src': '/static/foodstim60/kiwi.jpg', 'key': 'u', 'origWidth': 410, 'origHeight': 410, 'width': 410, 'height': 410, 'widthPercent': 0.45, 'rescaleHeight': False, 'trialN': 60, 'loaded': True, 'loadedTime': 2709.5, 'positionName': 'LEFT', 'positionCoords': [511.6, 335], 'bid': 1.16}, {'imgObject': {}, 'id': 'cherry tomato', 'src': '/static/foodstim60/cherry tomato.jpg', 'key': 'i', 'origWidth': 410, 'origHeight': 410, 'width': 410, 'height': 410, 'widthPercent': 0.45, 'rescaleHeight': False, 'trialN': 60, 'loaded': True, 'loadedTime': 2601.5999999046326, 'positionName': 'RIGHT', 'positionCoords': [998.4, 335], 'bid': 0.4}]",100290.5,1669829190511,kiwi,cherry tomato,1.16,0.4,-0.7599999999999999,cherry tomato,639.9000000953674,640,640.5,True,i,101433.79999995232,1143.2999999523163,1669829191654,1143,HRV,HRV_0006,2022-11-30 17:29:34
61,"[{'imgObject': {}, 'id': 'grilled chicken strips', 'src': '/static/foodstim60/grilled chicken strips.jpg', 'key': 'u', 'origWidth': 410, 'origHeight': 411, 'width': 410, 'height': 411, 'widthPercent': 0.45, 'rescaleHeight': False, 'trialN': 61, 'loaded': True, 'loadedTime': 2669.4000000953674, 'positionName': 'LEFT', 'positionCoords': [511.6, 334.5], 'bid': 4.95}, {'imgObject': {}, 'id': 'mashed potato', 'src': '/static/foodstim60/mashed potato.jpg', 'key': 'i', 'origWidth': 409, 'origHeight': 409, 'width': 409, 'height': 409, 'widthPercent': 0.45, 'rescaleHeight': False, 'trialN': 61, 'loaded': True, 'loadedTime': 2710.5, 'positionName': 'RIGHT', 'positionCoords': [998.4, 335.5], 'bid': 1.32}]",101434.0,1669829191654,grilled chicken strips,mashed potato,4.95,1.32,-3.63,grilled chicken strips,1022.7999999523163,1023,1023.0,True,u,102964.40000009537,1530.4000000953674,1669829193185,1531,HRV,HRV_0006,2022-11-30 17:29:34
62,"[{'imgObject': {}, 'id': 'shreddedwheatwithmilk', 'src': '/static/foodstim60/shreddedwheatwithmilk.jpg', 'key': 'u', 'origWidth': 410, 'origHeight': 410, 'width': 410, 'height': 410, 'widthPercent': 0.45, 'rescaleHeight': False, 'trialN': 62, 'loaded': True, 'loadedTime': 2702.4000000953674, 'positionName': 'LEFT', 'positionCoords': [511.6, 335], 'bid': 5.13}, {'imgObject': {}, 'id': 'froot loops w milk', 'src': '/static/foodstim60/froot loops w milk.jpg', 'key': 'i', 'origWidth': 410, 'origHeight': 410, 'width': 410, 'height': 410, 'widthPercent': 0.45, 'rescaleHeight': False, 'trialN': 62, 'loaded': True, 'loadedTime': 2629.5999999046326, 'positionName': 'RIGHT', 'positionCoords': [998.4, 335], 'bid': 5.29}]",102964.59999990463,1669829193185,shreddedwheatwithmilk,froot loops w milk,5.13,5.29,0.16000000000000014,froot loops w milk,1836.1000001430511,1836,1836.3000001907349,True,i,105311.5,2346.9000000953674,1669829195532,2347,HRV,HRV_0006,2022-11-30 17:29:34
63,"[{'imgObject': {}, 'id': 'olives', 'src': '/static/foodstim60/olives.jpg', 'key': 'u', 'origWidth': 410, 'origHeight': 410, 'width': 410, 'height': 410, 'widthPercent': 0.45, 'rescaleHeight': False, 'trialN': 63, 'loaded': True, 'loadedTime': 2711.2000000476837, 'positionName': 'LEFT', 'positionCoords': [511.6, 335], 'bid': 7.56}, {'imgObject': {}, 'id': 'tacos', 'src': '/static/foodstim60/tacos.jpg', 'key': 'i', 'origWidth': 411, 'origHeight': 411, 'width': 411, 'height': 411, 'widthPercent': 0.45, 'rescaleHeight': False, 'trialN': 63, 'loaded': True, 'loadedTime': 2579.7000000476837, 'positionName': 'RIGHT', 'positionCoords': [998.4, 334.5], 'bid': 7.98}]",105311.79999995232,1669829195532,olives,tacos,7.56,7.98,0.4200000000000008,tacos,825.7999999523163,827,826.2999999523163,True,i,106641.29999995232,1329.5,1669829196862,1330,HRV,HRV_0006,2022-11-30 17:29:34
64,"[{'imgObject': {}, 'id': 'salmon', 'src': '/static/foodstim60/salmon.jpg', 'key': 'u', 'origWidth': 410, 'origHeight': 409, 'width': 410, 'height': 409, 'widthPercent': 0.45, 'rescaleHeight': False, 'trialN': 64, 'loaded': True, 'loadedTime': 2603.2000000476837, 'positionName': 'LEFT', 'positionCoords': [511.6, 335.5], 'bid': 6.890000000000001}, {'imgObject': {}, 'id': 'sweetpotato', 'src': '/static/foodstim60/sweetpotato.jpg', 'key': 'i', 'origWidth': 410, 'origHeight': 410, 'width': 410, 'height': 410, 'widthPercent': 0.45, 'rescaleHeight': False, 'trialN': 64, 'loaded': True, 'loadedTime': 2704.5999999046326, 'positionName': 'RIGHT', 'positionCoords': [998.4, 335], 'bid': 6.34}]",106641.59999990463,1669829196862,salmon,sweetpotato,6.890000000000001,6.34,-0.5500000000000007,salmon,1112.8000001907349,1113,1113.3000001907349,True,u,108256.0,1614.4000000953674,1669829198476,1614,HRV,HRV_0006,2022-11-30 17:29:34
65,"[{'imgObject': {}, 'id': 'luckycharms', 'src': '/static/foodstim60/luckycharms.jpg', 'key': 'u', 'origWidth': 410, 'origHeight': 409, 'width': 410, 'height': 409, 'widthPercent': 0.45, 'rescaleHeight': False, 'trialN': 65, 'loaded': True, 'loadedTime': 2622.5, 'positionName': 'LEFT', 'positionCoords': [511.6, 335.5], 'bid': 4.92}, {'imgObject': {}, 'id': 'veggieswithdip', 'src': '/static/foodstim60/veggieswithdip.jpg', 'key': 'i', 'origWidth': 409, 'origHeight': 409, 'width': 409, 'height': 409, 'widthPercent': 0.45, 'rescaleHeight': False, 'trialN': 65, 'loaded': True, 'loadedTime': 2523.2999999523163, 'positionName': 'RIGHT', 'positionCoords': [998.4, 335.5], 'bid': 6.19}]",108256.59999990463,1669829198477,luckycharms,veggieswithdip,4.92,6.19,1.2700000000000005,luckycharms,1097.1000001430511,1098,1097.7000000476837,True,u,109860.40000009537,1603.8000001907349,1669829200081,1604,HRV,HRV_0006,2022-11-30 17:29:34
66,"[{'imgObject': {}, 'id': 'bagel and cc', 'src': '/static/foodstim60/bagel and cc.jpg', 'key': 'u', 'origWidth': 410, 'origHeight': 410, 'width': 410, 'height': 410, 'widthPercent': 0.45, 'rescaleHeight': False, 'trialN': 66, 'loaded': True, 'loadedTime': 2567.2000000476837, 'positionName': 'LEFT', 'positionCoords': [511.6, 335], 'bid': 1.38}, {'imgObject': {}, 'id': 'strawberries', 'src': '/static/foodstim60/strawberries.jpg', 'key': 'i', 'origWidth': 410, 'origHeight': 410, 'width': 410, 'height': 410, 'widthPercent': 0.45, 'rescaleHeight': False, 'trialN': 66, 'loaded': True, 'loadedTime': 2688.0999999046326, 'positionName': 'RIGHT', 'positionCoords': [998.4, 335], 'bid': 1.34}]",109860.70000004768,1669829200081,bagel and cc,strawberries,1.38,1.34,-0.039999999999999813,bagel and cc,1404.0999999046326,1404,1404.2999999523163,True,u,111774.5,1913.7999999523163,1669829201995,1914,HRV,HRV_0006,2022-11-30 17:29:34
67,"[{'imgObject': {}, 'id': 'sweetpotato', 'src': '/static/foodstim60/sweetpotato.jpg', 'key': 'u', 'origWidth': 410, 'origHeight': 410, 'width': 410, 'height': 410, 'widthPercent': 0.45, 'rescaleHeight': False, 'trialN': 67, 'loaded': True, 'loadedTime': 2705.5, 'positionName': 'LEFT', 'positionCoords': [511.6, 335], 'bid': 6.34}, {'imgObject': {}, 'id': 'omelette', 'src': '/static/foodstim60/omelette.jpg', 'key': 'i', 'origWidth': 410, 'origHeight': 409, 'width': 410, 'height': 409, 'widthPercent': 0.45, 'rescaleHeight': False, 'trialN': 67, 'loaded': True, 'loadedTime': 2629.7999999523163, 'positionName': 'RIGHT', 'positionCoords': [998.4, 335.5], 'bid': 6.53}]",111775.0,1669829201995,sweetpotato,omelette,6.34,6.53,0.1900000000000004,omelette,873.9000000953674,875,874.0999999046326,True,i,113157.40000009537,1382.4000000953674,1669829203378,1383,HRV,HRV_0006,2022-11-30 17:29:34
68,"[{'imgObject': {}, 'id': 'grilled chicken strips', 'src': '/static/foodstim60/grilled chicken strips.jpg', 'key': 'u', 'origWidth': 410, 'origHeight': 411, 'width': 410, 'height': 411, 'widthPercent': 0.45, 'rescaleHeight': False, 'trialN': 68, 'loaded': True, 'loadedTime': 2678.7000000476837, 'positionName': 'LEFT', 'positionCoords': [511.6, 334.5], 'bid': 4.95}, {'imgObject': {}, 'id': 'corn cob', 'src': '/static/foodstim60/corn cob.jpg', 'key': 'i', 'origWidth': 411, 'origHeight': 411, 'width': 411, 'height': 411, 'widthPercent': 0.45, 'rescaleHeight': False, 'trialN': 68, 'loaded': True, 'loadedTime': 2571.2000000476837, 'positionName': 'RIGHT', 'positionCoords': [998.4, 334.5], 'bid': 4.94}]",113157.90000009537,1669829203378,grilled chicken strips,corn cob,4.95,4.94,-0.009999999999999787,corn cob,1044.1999998092651,1045,1044.7999999523163,True,i,114708.5,1550.5999999046326,1669829204929,1551,HRV,HRV_0006,2022-11-30 17:29:34
69,"[{'imgObject': {}, 'id': 'blackbeanswithrice', 'src': '/static/foodstim60/blackbeanswithrice.jpg', 'key': 'u', 'origWidth': 410, 'origHeight': 410, 'width': 410, 'height': 410, 'widthPercent': 0.45, 'rescaleHeight': False, 'trialN': 69, 'loaded': True, 'loadedTime': 2707.2000000476837, 'positionName': 'LEFT', 'positionCoords': [511.6, 335], 'bid': 4.5600000000000005}, {'imgObject': {}, 'id': 'raisin bran w milk', 'src': '/static/foodstim60/raisin bran w milk.jpg', 'key': 'i', 'origWidth': 411, 'origHeight': 411, 'width': 411, 'height': 411, 'widthPercent': 0.45, 'rescaleHeight': False, 'trialN': 69, 'loaded': True, 'loadedTime': 2521.5, 'positionName': 'RIGHT', 'positionCoords': [998.4, 334.5], 'bid': 5.8}]",114709.0,1669829204929,blackbeanswithrice,raisin bran w milk,4.5600000000000005,5.8,1.2399999999999993,raisin bran w milk,861.0,862,861.5999999046326,True,i,116080.40000009537,1371.4000000953674,1669829206301,1372,HRV,HRV_0006,2022-11-30 17:29:34
70,"[{'imgObject': {}, 'id': 'Tribe humus pita', 'src': '/static/foodstim60/Tribe humus pita.jpg', 'key': 'u', 'origWidth': 411, 'origHeight': 411, 'width': 411, 'height': 411, 'widthPercent': 0.45, 'rescaleHeight': False, 'trialN': 70, 'loaded': True, 'loadedTime': 2565.7999999523163, 'positionName': 'LEFT', 'positionCoords': [510.6, 334.5], 'bid': 7.22}, {'imgObject': {}, 'id': 'burrito', 'src': '/static/foodstim60/burrito.jpg', 'key': 'i', 'origWidth': 410, 'origHeight': 410, 'width': 410, 'height': 410, 'widthPercent': 0.45, 'rescaleHeight': False, 'trialN': 70, 'loaded': True, 'loadedTime': 2562.5, 'positionName': 'RIGHT', 'positionCoords': [998.4, 335], 'bid': 7.1000000000000005}]",116081.0,1669829206301,Tribe humus pita,burrito,7.22,7.1000000000000005,-0.11999999999999922,burrito,912.7000000476837,913,913.0999999046326,True,i,117499.29999995232,1418.2999999523163,1669829207720,1419,HRV,HRV_0006,2022-11-30 17:29:34
71,"[{'imgObject': {}, 'id': 'blackbeanswithrice', 'src': '/static/foodstim60/blackbeanswithrice.jpg', 'key': 'u', 'origWidth': 410, 'origHeight': 410, 'width': 410, 'height': 410, 'widthPercent': 0.45, 'rescaleHeight': False, 'trialN': 71, 'loaded': True, 'loadedTime': 2707.4000000953674, 'positionName': 'LEFT', 'positionCoords': [511.6, 335], 'bid': 4.5600000000000005}, {'imgObject': {}, 'id': 'hotdog w must', 'src': '/static/foodstim60/hotdog w must.jpg', 'key': 'i', 'origWidth': 409, 'origHeight': 409, 'width': 409, 'height': 409, 'widthPercent': 0.45, 'rescaleHeight': False, 'trialN': 71, 'loaded': True, 'loadedTime': 2712.0999999046326, 'positionName': 'RIGHT', 'positionCoords': [998.4, 335.5], 'bid': 3.37}]",117499.90000009537,1669829207720,blackbeanswithrice,hotdog w must,4.5600000000000005,3.37,-1.1900000000000004,blackbeanswithrice,1332.7999999523163,1333,1333.0,True,u,119339.40000009537,1839.5,1669829209560,1840,HRV,HRV_0006,2022-11-30 17:29:34
72,"[{'imgObject': {}, 'id': 'raisin bran w milk', 'src': '/static/foodstim60/raisin bran w milk.jpg', 'key': 'u', 'origWidth': 411, 'origHeight': 411, 'width': 411, 'height': 411, 'widthPercent': 0.45, 'rescaleHeight': False, 'trialN': 72, 'loaded': True, 'loadedTime': 2521.5, 'positionName': 'LEFT', 'positionCoords': [510.6, 334.5], 'bid': 5.8}, {'imgObject': {}, 'id': 'roastedpotatoes', 'src': '/static/foodstim60/roastedpotatoes.jpg', 'key': 'i', 'origWidth': 409, 'origHeight': 410, 'width': 409, 'height': 410, 'widthPercent': 0.45, 'rescaleHeight': False, 'trialN': 72, 'loaded': True, 'loadedTime': 2548.5999999046326, 'positionName': 'RIGHT', 'positionCoords': [998.4, 335], 'bid': 5.73}]",119339.5,1669829209560,raisin bran w milk,roastedpotatoes,5.8,5.73,-0.0699999999999994,roastedpotatoes,838.0,838,838.5999999046326,True,i,120685.40000009537,1345.9000000953674,1669829210906,1346,HRV,HRV_0006,2022-11-30 17:29:34
73,"[{'imgObject': {}, 'id': 'kiwi', 'src': '/static/foodstim60/kiwi.jpg', 'key': 'u', 'origWidth': 410, 'origHeight': 410, 'width': 410, 'height': 410, 'widthPercent': 0.45, 'rescaleHeight': False, 'trialN': 73, 'loaded': True, 'loadedTime': 2709.2000000476837, 'positionName': 'LEFT', 'positionCoords': [511.6, 335], 'bid': 1.16}, {'imgObject': {}, 'id': 'hotdog w must', 'src': '/static/foodstim60/hotdog w must.jpg', 'key': 'i', 'origWidth': 409, 'origHeight': 409, 'width': 409, 'height': 409, 'widthPercent': 0.45, 'rescaleHeight': False, 'trialN': 73, 'loaded': True, 'loadedTime': 2712.2000000476837, 'positionName': 'RIGHT', 'positionCoords': [998.4, 335.5], 'bid': 3.37}]",120685.5,1669829210906,kiwi,hotdog w must,1.16,3.37,2.21,hotdog w must,1340.0999999046326,1340,1340.5,True,i,122528.29999995232,1842.7999999523163,1669829212749,1843,HRV,HRV_0006,2022-11-30 17:29:34
74,"[{'imgObject': {}, 'id': 'burrito', 'src': '/static/foodstim60/burrito.jpg', 'key': 'u', 'origWidth': 410, 'origHeight': 410, 'width': 410, 'height': 410, 'widthPercent': 0.45, 'rescaleHeight': False, 'trialN': 74, 'loaded': True, 'loadedTime': 2562.2999999523163, 'positionName': 'LEFT', 'positionCoords': [511.6, 335], 'bid': 7.1000000000000005}, {'imgObject': {}, 'id': 'mac & cheese', 'src': '/static/foodstim60/mac & cheese.jpg', 'key': 'i', 'origWidth': 410, 'origHeight': 410, 'width': 410, 'height': 410, 'widthPercent': 0.45, 'rescaleHeight': False, 'trialN': 74, 'loaded': True, 'loadedTime': 2573.9000000953674, 'positionName': 'RIGHT', 'positionCoords': [998.4, 335], 'bid': 9.58}]",122528.70000004768,1669829212749,burrito,mac & cheese,7.1000000000000005,9.58,2.4799999999999995,mac & cheese,985.3999998569489,986,985.8999998569489,True,i,124025.0,1496.2999999523163,1669829214245,1496,HRV,HRV_0006,2022-11-30 17:29:34
75,"[{'imgObject': {}, 'id': 'eggs', 'src': '/static/foodstim60/eggs.jpg', 'key': 'u', 'origWidth': 409, 'origHeight': 409, 'width': 409, 'height': 409, 'widthPercent': 0.45, 'rescaleHeight': False, 'trialN': 75, 'loaded': True, 'loadedTime': 2569, 'positionName': 'LEFT', 'positionCoords': [512.6, 335.5], 'bid': 6.62}, {'imgObject': {}, 'id': 'baked potato', 'src': '/static/foodstim60/baked potato.jpg', 'key': 'i', 'origWidth': 409, 'origHeight': 410, 'width': 409, 'height': 410, 'widthPercent': 0.45, 'rescaleHeight': False, 'trialN': 75, 'loaded': True, 'loadedTime': 2704.5, 'positionName': 'RIGHT', 'positionCoords': [998.4, 335], 'bid': 6.36}]",124025.20000004768,1669829214246,eggs,baked potato,6.62,6.36,-0.2599999999999998,eggs,912.2999999523163,912,912.5999999046326,True,u,125449.09999990463,1423.8999998569489,1669829215669,1423,HRV,HRV_0006,2022-11-30 17:29:34
76,"[{'imgObject': {}, 'id': 'hashbrowns', 'src': '/static/foodstim60/hashbrowns.jpg', 'key': 'u', 'origWidth': 411, 'origHeight': 410, 'width': 411, 'height': 410, 'widthPercent': 0.45, 'rescaleHeight': False, 'trialN': 76, 'loaded': True, 'loadedTime': 2559.7000000476837, 'positionName': 'LEFT', 'positionCoords': [510.6, 335], 'bid': 6.8}, {'imgObject': {}, 'id': 'rigatoni', 'src': '/static/foodstim60/rigatoni.jpg', 'key': 'i', 'origWidth': 411, 'origHeight': 411, 'width': 411, 'height': 411, 'widthPercent': 0.45, 'rescaleHeight': False, 'trialN': 76, 'loaded': True, 'loadedTime': 2604.5999999046326, 'positionName': 'RIGHT', 'positionCoords': [998.4, 334.5], 'bid': 7.0600000000000005}]",125449.29999995232,1669829215670,hashbrowns,rigatoni,6.8,7.0600000000000005,0.2600000000000007,rigatoni,1264.4000000953674,1265,1264.9000000953674,True,i,127227.0,1777.7000000476837,1669829217447,1777,HRV,HRV_0006,2022-11-30 17:29:34
77,"[{'imgObject': {}, 'id': 'pear', 'src': '/static/foodstim60/pear.jpg', 'key': 'u', 'origWidth': 411, 'origHeight': 410, 'width': 411, 'height': 410, 'widthPercent': 0.45, 'rescaleHeight': False, 'trialN': 77, 'loaded': True, 'loadedTime': 2642.5, 'positionName': 'LEFT', 'positionCoords': [510.6, 335], 'bid': 1.69}, {'imgObject': {}, 'id': 'cantaloupe', 'src': '/static/foodstim60/cantaloupe.jpg', 'key': 'i', 'origWidth': 409, 'origHeight': 409, 'width': 409, 'height': 409, 'widthPercent': 0.45, 'rescaleHeight': False, 'trialN': 77, 'loaded': True, 'loadedTime': 2706.2000000476837, 'positionName': 'RIGHT', 'positionCoords': [998.4, 335.5], 'bid': 1.43}]",127227.5,1669829217448,pear,cantaloupe,1.69,1.43,-0.26,pear,1886.9000000953674,1887,1887.5999999046326,True,u,129625.59999990463,2398.0999999046326,1669829219846,2398,HRV,HRV_0006,2022-11-30 17:29:34
78,"[{'imgObject': {}, 'id': 'ice cream sundae 002', 'src': '/static/foodstim60/ice cream sundae 002.jpg', 'key': 'u', 'origWidth': 409, 'origHeight': 409, 'width': 409, 'height': 409, 'widthPercent': 0.45, 'rescaleHeight': False, 'trialN': 78, 'loaded': True, 'loadedTime': 2531.2000000476837, 'positionName': 'LEFT', 'positionCoords': [512.6, 335.5], 'bid': 3.69}, {'imgObject': {}, 'id': 'cantaloupe', 'src': '/static/foodstim60/cantaloupe.jpg', 'key': 'i', 'origWidth': 409, 'origHeight': 409, 'width': 409, 'height': 409, 'widthPercent': 0.45, 'rescaleHeight': False, 'trialN': 78, 'loaded': True, 'loadedTime': 2706.5, 'positionName': 'RIGHT', 'positionCoords': [998.4, 335.5], 'bid': 1.43}]",129626.0,1669829219846,ice cream sundae 002,cantaloupe,3.69,1.43,-2.26,ice cream sundae 002,888.5999999046326,890,889.2000000476837,True,u,131022.40000009537,1396.4000000953674,1669829221243,1397,HRV,HRV_0006,2022-11-30 17:29:34
79,"[{'imgObject': {}, 'id': 'cheerios', 'src': '/static/foodstim60/cheerios.jpg', 'key': 'u', 'origWidth': 409, 'origHeight': 410, 'width': 409, 'height': 410, 'widthPercent': 0.45, 'rescaleHeight': False, 'trialN': 79, 'loaded': True, 'loadedTime': 2624.2000000476837, 'positionName': 'LEFT', 'positionCoords': [512.6, 335], 'bid': 1.97}, {'imgObject': {}, 'id': 'strawberries', 'src': '/static/foodstim60/strawberries.jpg', 'key': 'i', 'origWidth': 410, 'origHeight': 410, 'width': 410, 'height': 410, 'widthPercent': 0.45, 'rescaleHeight': False, 'trialN': 79, 'loaded': True, 'loadedTime': 2687.2999999523163, 'positionName': 'RIGHT', 'positionCoords': [998.4, 335], 'bid': 1.34}]",131022.59999990463,1669829221243,cheerios,strawberries,1.97,1.34,-0.6299999999999999,cheerios,883.1000001430511,884,883.6000001430511,True,u,132418.29999995232,1395.7000000476837,1669829222639,1396,HRV,HRV_0006,2022-11-30 17:29:34
80,"[{'imgObject': {}, 'id': 'sweetpotato', 'src': '/static/foodstim60/sweetpotato.jpg', 'key': 'u', 'origWidth': 410, 'origHeight': 410, 'width': 410, 'height': 410, 'widthPercent': 0.45, 'rescaleHeight': False, 'trialN': 80, 'loaded': True, 'loadedTime': 2705.2000000476837, 'positionName': 'LEFT', 'positionCoords': [511.6, 335], 'bid': 6.34}, {'imgObject': {}, 'id': 'kiwi', 'src': '/static/foodstim60/kiwi.jpg', 'key': 'i', 'origWidth': 410, 'origHeight': 410, 'width': 410, 'height': 410, 'widthPercent': 0.45, 'rescaleHeight': False, 'trialN': 80, 'loaded': True, 'loadedTime': 2708.5, 'positionName': 'RIGHT', 'positionCoords': [998.4, 335], 'bid': 1.16}]",132418.79999995232,1669829222639,sweetpotato,kiwi,6.34,1.16,-5.18,sweetpotato,886.0,886,886.2000000476837,True,u,133813.59999990463,1394.7999999523163,1669829224034,1395,HRV,HRV_0006,2022-11-30 17:29:34
81,"[{'imgObject': {}, 'id': 'baked potato', 'src': '/static/foodstim60/baked potato.jpg', 'key': 'u', 'origWidth': 409, 'origHeight': 410, 'width': 409, 'height': 410, 'widthPercent': 0.45, 'rescaleHeight': False, 'trialN': 81, 'loaded': True, 'loadedTime': 2704.5, 'positionName': 'LEFT', 'positionCoords': [512.6, 335], 'bid': 6.36}, {'imgObject': {}, 'id': 'grilled chicken strips', 'src': '/static/foodstim60/grilled chicken strips.jpg', 'key': 'i', 'origWidth': 410, 'origHeight': 411, 'width': 410, 'height': 411, 'widthPercent': 0.45, 'rescaleHeight': False, 'trialN': 81, 'loaded': True, 'loadedTime': 2678.5, 'positionName': 'RIGHT', 'positionCoords': [998.4, 334.5], 'bid': 4.95}]",133814.20000004768,1669829224035,baked potato,grilled chicken strips,6.36,4.95,-1.4100000000000001,grilled chicken strips,819.8999998569489,820,820.5,True,i,135149.5,1335.2999999523163,1669829225370,1335,HRV,HRV_0006,2022-11-30 17:29:34
82,"[{'imgObject': {}, 'id': 'blackbeanswithrice', 'src': '/static/foodstim60/blackbeanswithrice.jpg', 'key': 'u', 'origWidth': 410, 'origHeight': 410, 'width': 410, 'height': 410, 'widthPercent': 0.45, 'rescaleHeight': False, 'trialN': 82, 'loaded': True, 'loadedTime': 2707.2000000476837, 'positionName': 'LEFT', 'positionCoords': [511.6, 335], 'bid': 4.5600000000000005}, {'imgObject': {}, 'id': 'ice cream sundae 002', 'src': '/static/foodstim60/ice cream sundae 002.jpg', 'key': 'i', 'origWidth': 409, 'origHeight': 409, 'width': 409, 'height': 409, 'widthPercent': 0.45, 'rescaleHeight': False, 'trialN': 82, 'loaded': True, 'loadedTime': 2530.2999999523163, 'positionName': 'RIGHT', 'positionCoords': [998.4, 335.5], 'bid': 3.69}]",135149.90000009537,1669829225370,blackbeanswithrice,ice cream sundae 002,4.5600000000000005,3.69,-0.8700000000000006,ice cream sundae 002,1282.6999998092651,1283,1283.0,True,i,136939.40000009537,1789.5,1669829227160,1790,HRV,HRV_0006,2022-11-30 17:29:34
83,"[{'imgObject': {}, 'id': 'grilled chicken strips', 'src': '/static/foodstim60/grilled chicken strips.jpg', 'key': 'u', 'origWidth': 410, 'origHeight': 411, 'width': 410, 'height': 411, 'widthPercent': 0.45, 'rescaleHeight': False, 'trialN': 83, 'loaded': True, 'loadedTime': 2678.9000000953674, 'positionName': 'LEFT', 'positionCoords': [511.6, 334.5], 'bid': 4.95}, {'imgObject': {}, 'id': 'luckycharms', 'src': '/static/foodstim60/luckycharms.jpg', 'key': 'i', 'origWidth': 410, 'origHeight': 409, 'width': 410, 'height': 409, 'widthPercent': 0.45, 'rescaleHeight': False, 'trialN': 83, 'loaded': True, 'loadedTime': 2618.2999999523163, 'positionName': 'RIGHT', 'positionCoords': [998.4, 335.5], 'bid': 4.92}]",136939.5,1669829227160,grilled chicken strips,luckycharms,4.95,4.92,-0.03000000000000025,luckycharms,725.4000000953674,726,725.7000000476837,True,i,138179.20000004768,1239.7000000476837,1669829228400,1240,HRV,HRV_0006,2022-11-30 17:29:34
84,"[{'imgObject': {}, 'id': 'mango', 'src': '/static/foodstim60/mango.jpg', 'key': 'u', 'origWidth': 411, 'origHeight': 411, 'width': 411, 'height': 411, 'widthPercent': 0.45, 'rescaleHeight': False, 'trialN': 84, 'loaded': True, 'loadedTime': 2699.5, 'positionName': 'LEFT', 'positionCoords': [510.6, 334.5], 'bid': 1.01}, {'imgObject': {}, 'id': 'pear', 'src': '/static/foodstim60/pear.jpg', 'key': 'i', 'origWidth': 411, 'origHeight': 410, 'width': 411, 'height': 410, 'widthPercent': 0.45, 'rescaleHeight': False, 'trialN': 84, 'loaded': True, 'loadedTime': 2642.2000000476837, 'positionName': 'RIGHT', 'positionCoords': [998.4, 335], 'bid': 1.69}]",138179.5,1669829228400,mango,pear,1.01,1.69,0.6799999999999999,pear,2029.2999999523163,2029,2029.4000000953674,True,i,140722.70000004768,2543.2000000476837,1669829230943,2543,HRV,HRV_0006,2022-11-30 17:29:34
85,"[{'imgObject': {}, 'id': 'fruitsalad', 'src': '/static/foodstim60/fruitsalad.jpg', 'key': 'u', 'origWidth': 410, 'origHeight': 410, 'width': 410, 'height': 410, 'widthPercent': 0.45, 'rescaleHeight': False, 'trialN': 85, 'loaded': True, 'loadedTime': 2574.5999999046326, 'positionName': 'LEFT', 'positionCoords': [511.6, 335], 'bid': 1.13}, {'imgObject': {}, 'id': 'kiwi', 'src': '/static/foodstim60/kiwi.jpg', 'key': 'i', 'origWidth': 410, 'origHeight': 410, 'width': 410, 'height': 410, 'widthPercent': 0.45, 'rescaleHeight': False, 'trialN': 85, 'loaded': True, 'loadedTime': 2709.5, 'positionName': 'RIGHT', 'positionCoords': [998.4, 335], 'bid': 1.16}]",140723.0,1669829230943,fruitsalad,kiwi,1.13,1.16,0.030000000000000027,fruitsalad,1310.4000000953674,1311,1310.7999999523163,True,u,142535.40000009537,1812.4000000953674,1669829232758,1815,HRV,HRV_0006,2022-11-30 17:29:34
86,"[{'imgObject': {}, 'id': 'tacos', 'src': '/static/foodstim60/tacos.jpg', 'key': 'u', 'origWidth': 411, 'origHeight': 411, 'width': 411, 'height': 411, 'widthPercent': 0.45, 'rescaleHeight': False, 'trialN': 86, 'loaded': True, 'loadedTime': 2594.2999999523163, 'positionName': 'LEFT', 'positionCoords': [510.6, 334.5], 'bid': 7.98}, {'imgObject': {}, 'id': 'chickenfingers', 'src': '/static/foodstim60/chickenfingers.jpg', 'key': 'i', 'origWidth': 410, 'origHeight': 410, 'width': 410, 'height': 410, 'widthPercent': 0.45, 'rescaleHeight': False, 'trialN': 86, 'loaded': True, 'loadedTime': 2564.7999999523163, 'positionName': 'RIGHT', 'positionCoords': [998.4, 335], 'bid': 6.76}]",142536.0,1669829232759,tacos,chickenfingers,7.98,6.76,-1.2200000000000006,chickenfingers,1208.7999999523163,1209,1209.0,True,i,144258.40000009537,1722.4000000953674,1669829234481,1722,HRV,HRV_0006,2022-11-30 17:29:34
87,"[{'imgObject': {}, 'id': 'olives', 'src': '/static/foodstim60/olives.jpg', 'key': 'u', 'origWidth': 410, 'origHeight': 410, 'width': 410, 'height': 410, 'widthPercent': 0.45, 'rescaleHeight': False, 'trialN': 87, 'loaded': True, 'loadedTime': 2711.2000000476837, 'positionName': 'LEFT', 'positionCoords': [511.6, 335], 'bid': 7.56}, {'imgObject': {}, 'id': 'steak', 'src': '/static/foodstim60/steak.jpg', 'key': 'i', 'origWidth': 410, 'origHeight': 410, 'width': 410, 'height': 410, 'widthPercent': 0.45, 'rescaleHeight': False, 'trialN': 87, 'loaded': True, 'loadedTime': 2561.0999999046326, 'positionName': 'RIGHT', 'positionCoords': [998.4, 335], 'bid': 8.56}]",144258.59999990463,1669829234481,olives,steak,7.56,8.56,1.0000000000000009,steak,910.6000001430511,911,910.9000000953674,True,i,145672.5,1413.9000000953674,1669829235895,1414,HRV,HRV_0006,2022-11-30 17:29:34
88,"[{'imgObject': {}, 'id': 'veggieswithdip', 'src': '/static/foodstim60/veggieswithdip.jpg', 'key': 'u', 'origWidth': 409, 'origHeight': 409, 'width': 409, 'height': 409, 'widthPercent': 0.45, 'rescaleHeight': False, 'trialN': 88, 'loaded': True, 'loadedTime': 2522.9000000953674, 'positionName': 'LEFT', 'positionCoords': [512.6, 335.5], 'bid': 6.19}, {'imgObject': {}, 'id': 'granola w milk', 'src': '/static/foodstim60/granola w milk.jpg', 'key': 'i', 'origWidth': 410, 'origHeight': 410, 'width': 410, 'height': 410, 'widthPercent': 0.45, 'rescaleHeight': False, 'trialN': 88, 'loaded': True, 'loadedTime': 2576.5999999046326, 'positionName': 'RIGHT', 'positionCoords': [998.4, 335], 'bid': 5.86}]",145672.59999990463,1669829235895,veggieswithdip,granola w milk,6.19,5.86,-0.33000000000000007,granola w milk,1936.4000000953674,1937,1936.7000000476837,True,i,148120.40000009537,2447.800000190735,1669829238343,2448,HRV,HRV_0006,2022-11-30 17:29:34
89,"[{'imgObject': {}, 'id': 'mango', 'src': '/static/foodstim60/mango.jpg', 'key': 'u', 'origWidth': 411, 'origHeight': 411, 'width': 411, 'height': 411, 'widthPercent': 0.45, 'rescaleHeight': False, 'trialN': 89, 'loaded': True, 'loadedTime': 2699.2000000476837, 'positionName': 'LEFT', 'positionCoords': [510.6, 334.5], 'bid': 1.01}, {'imgObject': {}, 'id': 'edamame', 'src': '/static/foodstim60/edamame.jpg', 'key': 'i', 'origWidth': 409, 'origHeight': 410, 'width': 409, 'height': 410, 'widthPercent': 0.45, 'rescaleHeight': False, 'trialN': 89, 'loaded': True, 'loadedTime': 2678.9000000953674, 'positionName': 'RIGHT', 'positionCoords': [998.4, 335], 'bid': 1.05}]",148120.79999995232,1669829238344,mango,edamame,1.01,1.05,0.040000000000000036,edamame,1592.6000001430511,1593,1593.0,True,i,150222.5,2101.7000000476837,1669829240445,2101,HRV,HRV_0006,2022-11-30 17:29:34
90,"[{'imgObject': {}, 'id': 'Grapes', 'src': '/static/foodstim60/Grapes.jpg', 'key': 'u', 'origWidth': 411, 'origHeight': 411, 'width': 411, 'height': 411, 'widthPercent': 0.45, 'rescaleHeight': False, 'trialN': 90, 'loaded': True, 'loadedTime': 2514.5999999046326, 'positionName': 'LEFT', 'positionCoords': [510.6, 334.5], 'bid': 1.15}, {'imgObject': {}, 'id': 'bagel and cc', 'src': '/static/foodstim60/bagel and cc.jpg', 'key': 'i', 'origWidth': 410, 'origHeight': 410, 'width': 410, 'height': 410, 'widthPercent': 0.45, 'rescaleHeight': False, 'trialN': 90, 'loaded': True, 'loadedTime': 2567.0999999046326, 'positionName': 'RIGHT', 'positionCoords': [998.4, 335], 'bid': 1.38}]",153009.40000009537,1669829243232,Grapes,bagel and cc,1.15,1.38,0.22999999999999998,bagel and cc,1232.3999998569489,1233,1232.5999999046326,True,i,154755.59999990463,1746.1999998092651,1669829244979,1747,HRV,HRV_0006,2022-11-30 17:29:34
91,"[{'imgObject': {}, 'id': 'orange slices', 'src': '/static/foodstim60/orange slices.jpg', 'key': 'u', 'origWidth': 409, 'origHeight': 410, 'width': 409, 'height': 410, 'widthPercent': 0.45, 'rescaleHeight': False, 'trialN': 91, 'loaded': True, 'loadedTime': 2520.4000000953674, 'positionName': 'LEFT', 'positionCoords': [512.6, 335], 'bid': 1.37}, {'imgObject': {}, 'id': 'bagel and cc', 'src': '/static/foodstim60/bagel and cc.jpg', 'key': 'i', 'origWidth': 410, 'origHeight': 410, 'width': 410, 'height': 410, 'widthPercent': 0.45, 'rescaleHeight': False, 'trialN': 91, 'loaded': True, 'loadedTime': 2566.4000000953674, 'positionName': 'RIGHT', 'positionCoords': [998.4, 335], 'bid': 1.38}]",154756.0,1669829244979,orange slices,bagel and cc,1.37,1.38,0.009999999999999787,bagel and cc,629.7999999523163,630,630.4000000953674,True,i,155895.09999990463,1139.0999999046326,1669829246118,1139,HRV,HRV_0006,2022-11-30 17:29:34
92,"[{'imgObject': {}, 'id': 'fruitsalad', 'src': '/static/foodstim60/fruitsalad.jpg', 'key': 'u', 'origWidth': 410, 'origHeight': 410, 'width': 410, 'height': 410, 'widthPercent': 0.45, 'rescaleHeight': False, 'trialN': 92, 'loaded': True, 'loadedTime': 2575, 'positionName': 'LEFT', 'positionCoords': [511.6, 335], 'bid': 1.13}, {'imgObject': {}, 'id': 'Grapes', 'src': '/static/foodstim60/Grapes.jpg', 'key': 'i', 'origWidth': 411, 'origHeight': 411, 'width': 411, 'height': 411, 'widthPercent': 0.45, 'rescaleHeight': False, 'trialN': 92, 'loaded': True, 'loadedTime': 2514.7999999523163, 'positionName': 'RIGHT', 'positionCoords': [998.4, 334.5], 'bid': 1.15}]",155895.79999995232,1669829246119,fruitsalad,Grapes,1.13,1.15,0.020000000000000018,fruitsalad,786.0,786,786.5,True,u,157189.29999995232,1293.5,1669829247412,1293,HRV,HRV_0006,2022-11-30 17:29:34
93,"[{'imgObject': {}, 'id': 'avocado', 'src': '/static/foodstim60/avocado.jpg', 'key': 'u', 'origWidth': 409, 'origHeight': 409, 'width': 409, 'height': 409, 'widthPercent': 0.45, 'rescaleHeight': False, 'trialN': 93, 'loaded': True, 'loadedTime': 2708.2000000476837, 'positionName': 'LEFT', 'positionCoords': [512.6, 335.5], 'bid': 5.37}, {'imgObject': {}, 'id': 'shreddedwheatwithmilk', 'src': '/static/foodstim60/shreddedwheatwithmilk.jpg', 'key': 'i', 'origWidth': 410, 'origHeight': 410, 'width': 410, 'height': 410, 'widthPercent': 0.45, 'rescaleHeight': False, 'trialN': 93, 'loaded': True, 'loadedTime': 2702.7000000476837, 'positionName': 'RIGHT', 'positionCoords': [998.4, 335], 'bid': 5.13}]",157189.29999995232,1669829247412,avocado,shreddedwheatwithmilk,5.37,5.13,-0.2400000000000002,shreddedwheatwithmilk,620.5,621,621.0,True,i,158327.09999990463,1137.7999999523163,1669829248550,1138,HRV,HRV_0006,2022-11-30 17:29:34
94,"[{'imgObject': {}, 'id': 'froot loops w milk', 'src': '/static/foodstim60/froot loops w milk.jpg', 'key': 'u', 'origWidth': 410, 'origHeight': 410, 'width': 410, 'height': 410, 'widthPercent': 0.45, 'rescaleHeight': False, 'trialN': 94, 'loaded': True, 'loadedTime': 2629.5, 'positionName': 'LEFT', 'positionCoords': [511.6, 335], 'bid': 5.29}, {'imgObject': {}, 'id': 'mac & cheese', 'src': '/static/foodstim60/mac & cheese.jpg', 'key': 'i', 'origWidth': 410, 'origHeight': 410, 'width': 410, 'height': 410, 'widthPercent': 0.45, 'rescaleHeight': False, 'trialN': 94, 'loaded': True, 'loadedTime': 2572.5999999046326, 'positionName': 'RIGHT', 'positionCoords': [998.4, 335], 'bid': 9.58}]",158327.70000004768,1669829248551,froot loops w milk,mac & cheese,5.29,9.58,4.29,mac & cheese,617.7000000476837,618,618.2000000476837,True,i,159459.5,1131.7999999523163,1669829249682,1131,HRV,HRV_0006,2022-11-30 17:29:34
95,"[{'imgObject': {}, 'id': 'cocktailshrimp', 'src': '/static/foodstim60/cocktailshrimp.jpg', 'key': 'u', 'origWidth': 410, 'origHeight': 410, 'width': 410, 'height': 410, 'widthPercent': 0.45, 'rescaleHeight': False, 'trialN': 95, 'loaded': True, 'loadedTime': 2571.5, 'positionName': 'LEFT', 'positionCoords': [511.6, 335], 'bid': 9.3}, {'imgObject': {}, 'id': 'eggsalad', 'src': '/static/foodstim60/eggsalad.jpg', 'key': 'i', 'origWidth': 410, 'origHeight': 409, 'width': 410, 'height': 409, 'widthPercent': 0.45, 'rescaleHeight': False, 'trialN': 95, 'loaded': True, 'loadedTime': 2700.5999999046326, 'positionName': 'RIGHT', 'positionCoords': [998.4, 335.5], 'bid': 8.870000000000001}]",159459.59999990463,1669829249683,cocktailshrimp,eggsalad,9.3,8.870000000000001,-0.4299999999999997,eggsalad,949.0,949,949.2000000476837,True,i,160915.20000004768,1455.6000001430511,1669829251138,1455,HRV,HRV_0006,2022-11-30 17:29:34
96,"[{'imgObject': {}, 'id': 'hashbrowns', 'src': '/static/foodstim60/hashbrowns.jpg', 'key': 'u', 'origWidth': 411, 'origHeight': 410, 'width': 411, 'height': 410, 'widthPercent': 0.45, 'rescaleHeight': False, 'trialN': 96, 'loaded': True, 'loadedTime': 2560.0999999046326, 'positionName': 'LEFT', 'positionCoords': [510.6, 335], 'bid': 6.8}, {'imgObject': {}, 'id': 'eggsalad', 'src': '/static/foodstim60/eggsalad.jpg', 'key': 'i', 'origWidth': 410, 'origHeight': 409, 'width': 410, 'height': 409, 'widthPercent': 0.45, 'rescaleHeight': False, 'trialN': 96, 'loaded': True, 'loadedTime': 2700.7999999523163, 'positionName': 'RIGHT', 'positionCoords': [998.4, 335.5], 'bid': 8.870000000000001}]",160915.59999990463,1669829251138,hashbrowns,eggsalad,6.8,8.870000000000001,2.070000000000001,eggsalad,805.8000001907349,807,806.4000000953674,True,i,162234.0,1318.4000000953674,1669829252457,1319,HRV,HRV_0006,2022-11-30 17:29:34
97,"[{'imgObject': {}, 'id': 'popsicles', 'src': '/static/foodstim60/popsicles.jpg', 'key': 'u', 'origWidth': 410, 'origHeight': 410, 'width': 410, 'height': 410, 'widthPercent': 0.45, 'rescaleHeight': False, 'trialN': 97, 'loaded': True, 'loadedTime': 2669.2999999523163, 'positionName': 'LEFT', 'positionCoords': [511.6, 335], 'bid': 1.95}, {'imgObject': {}, 'id': 'mashed potato', 'src': '/static/foodstim60/mashed potato.jpg', 'key': 'i', 'origWidth': 409, 'origHeight': 409, 'width': 409, 'height': 409, 'widthPercent': 0.45, 'rescaleHeight': False, 'trialN': 97, 'loaded': True, 'loadedTime': 2709.5, 'positionName': 'RIGHT', 'positionCoords': [998.4, 335.5], 'bid': 1.32}]",162234.40000009537,1669829252457,popsicles,mashed potato,1.95,1.32,-0.6299999999999999,mashed potato,870.6999998092651,871,871.0,True,i,163611.40000009537,1377.0,1669829253834,1377,HRV,HRV_0006,2022-11-30 17:29:34
98,"[{'imgObject': {}, 'id': 'mango', 'src': '/static/foodstim60/mango.jpg', 'key': 'u', 'origWidth': 411, 'origHeight': 411, 'width': 411, 'height': 411, 'widthPercent': 0.45, 'rescaleHeight': False, 'trialN': 98, 'loaded': True, 'loadedTime': 2698, 'positionName': 'LEFT', 'positionCoords': [510.6, 334.5], 'bid': 1.01}, {'imgObject': {}, 'id': 'cherry tomato', 'src': '/static/foodstim60/cherry tomato.jpg', 'key': 'i', 'origWidth': 410, 'origHeight': 410, 'width': 410, 'height': 410, 'widthPercent': 0.45, 'rescaleHeight': False, 'trialN': 98, 'loaded': True, 'loadedTime': 2600.2999999523163, 'positionName': 'RIGHT', 'positionCoords': [998.4, 335], 'bid': 0.4}]",163611.70000004768,1669829253835,mango,cherry tomato,1.01,0.4,-0.61,cherry tomato,741.5,741,741.7000000476837,True,i,164870.59999990463,1258.8999998569489,1669829255094,1259,HRV,HRV_0006,2022-11-30 17:29:34
99,"[{'imgObject': {}, 'id': 'yogurt no spoon', 'src': '/static/foodstim60/yogurt no spoon.jpg', 'key': 'u', 'origWidth': 411, 'origHeight': 410, 'width': 411, 'height': 410, 'widthPercent': 0.45, 'rescaleHeight': False, 'trialN': 99, 'loaded': True, 'loadedTime': 2651.2000000476837, 'positionName': 'LEFT', 'positionCoords': [510.6, 335], 'bid': 2.87}, {'imgObject': {}, 'id': 'Grapes', 'src': '/static/foodstim60/Grapes.jpg', 'key': 'i', 'origWidth': 411, 'origHeight': 411, 'width': 411, 'height': 411, 'widthPercent': 0.45, 'rescaleHeight': False, 'trialN': 99, 'loaded': True, 'loadedTime': 2465.0999999046326, 'positionName': 'RIGHT', 'positionCoords': [998.4, 334.5], 'bid': 1.15}]",164870.70000004768,1669829255094,yogurt no spoon,Grapes,2.87,1.15,-1.7200000000000002,yogurt no spoon,1394.3999998569489,1394,1394.5999999046326,True,u,166774.40000009537,1903.7000000476837,1669829256997,1903,HRV,HRV_0006,2022-11-30 17:29:34
100,"[{'imgObject': {}, 'id': 'fried eggs', 'src': '/static/foodstim60/fried eggs.jpg', 'key': 'u', 'origWidth': 410, 'origHeight': 410, 'width': 410, 'height': 410, 'widthPercent': 0.45, 'rescaleHeight': False, 'trialN': 100, 'loaded': True, 'loadedTime': 2568.7999999523163, 'positionName': 'LEFT', 'positionCoords': [511.6, 335], 'bid': 8}, {'imgObject': {}, 'id': 'hotdog w must', 'src': '/static/foodstim60/hotdog w must.jpg', 'key': 'i', 'origWidth': 409, 'origHeight': 409, 'width': 409, 'height': 409, 'widthPercent': 0.45, 'rescaleHeight': False, 'trialN': 100, 'loaded': True, 'loadedTime': 2712.2000000476837, 'positionName': 'RIGHT', 'positionCoords': [998.4, 335.5], 'bid': 3.37}]",166774.79999995232,1669829256998,fried eggs,hotdog w must,8.0,3.37,-4.63,fried eggs,810.7999999523163,811,811.2999999523163,True,u,168094.29999995232,1319.5,1669829258317,1319,HRV,HRV_0006,2022-11-30 17:29:34
101,"[{'imgObject': {}, 'id': 'popsicles', 'src': '/static/foodstim60/popsicles.jpg', 'key': 'u', 'origWidth': 410, 'origHeight': 410, 'width': 410, 'height': 410, 'widthPercent': 0.45, 'rescaleHeight': False, 'trialN': 101, 'loaded': True, 'loadedTime': 2661.4000000953674, 'positionName': 'LEFT', 'positionCoords': [511.6, 335], 'bid': 1.95}, {'imgObject': {}, 'id': 'cheerios', 'src': '/static/foodstim60/cheerios.jpg', 'key': 'i', 'origWidth': 409, 'origHeight': 410, 'width': 409, 'height': 410, 'widthPercent': 0.45, 'rescaleHeight': False, 'trialN': 101, 'loaded': True, 'loadedTime': 2623.9000000953674, 'positionName': 'RIGHT', 'positionCoords': [998.4, 335], 'bid': 1.97}]",168094.40000009537,1669829258317,popsicles,cheerios,1.95,1.97,0.020000000000000018,cheerios,707.3999998569489,708,707.7999999523163,True,i,169304.5,1210.0999999046326,1669829259527,1210,HRV,HRV_0006,2022-11-30 17:29:34
102,"[{'imgObject': {}, 'id': 'popsicles', 'src': '/static/foodstim60/popsicles.jpg', 'key': 'u', 'origWidth': 410, 'origHeight': 410, 'width': 410, 'height': 410, 'widthPercent': 0.45, 'rescaleHeight': False, 'trialN': 102, 'loaded': True, 'loadedTime': 2661.5, 'positionName': 'LEFT', 'positionCoords': [511.6, 335], 'bid': 1.95}, {'imgObject': {}, 'id': 'olives', 'src': '/static/foodstim60/olives.jpg', 'key': 'i', 'origWidth': 410, 'origHeight': 410, 'width': 410, 'height': 410, 'widthPercent': 0.45, 'rescaleHeight': False, 'trialN': 102, 'loaded': True, 'loadedTime': 2711.0999999046326, 'positionName': 'RIGHT', 'positionCoords': [998.4, 335], 'bid': 7.56}]",169304.90000009537,1669829259528,popsicles,olives,1.95,7.56,5.609999999999999,olives,608.7999999523163,609,609.3999998569489,True,i,170422.29999995232,1117.3999998569489,1669829260645,1117,HRV,HRV_0006,2022-11-30 17:29:34
103,"[{'imgObject': {}, 'id': 'cherries', 'src': '/static/foodstim60/cherries.jpg', 'key': 'u', 'origWidth': 410, 'origHeight': 411, 'width': 410, 'height': 411, 'widthPercent': 0.45, 'rescaleHeight': False, 'trialN': 103, 'loaded': True, 'loadedTime': 2594.5, 'positionName': 'LEFT', 'positionCoords': [511.6, 334.5], 'bid': 1.28}, {'imgObject': {}, 'id': 'fruitsalad', 'src': '/static/foodstim60/fruitsalad.jpg', 'key': 'i', 'origWidth': 410, 'origHeight': 410, 'width': 410, 'height': 410, 'widthPercent': 0.45, 'rescaleHeight': False, 'trialN': 103, 'loaded': True, 'loadedTime': 2573.9000000953674, 'positionName': 'RIGHT', 'positionCoords': [998.4, 335], 'bid': 1.13}]",170422.5,1669829260646,cherries,fruitsalad,1.28,1.13,-0.15000000000000013,cherries,1090.7999999523163,1091,1091.0999999046326,True,u,172024.59999990463,1602.0999999046326,1669829262247,1601,HRV,HRV_0006,2022-11-30 17:29:34
104,"[{'imgObject': {}, 'id': 'cherries', 'src': '/static/foodstim60/cherries.jpg', 'key': 'u', 'origWidth': 410, 'origHeight': 411, 'width': 410, 'height': 411, 'widthPercent': 0.45, 'rescaleHeight': False, 'trialN': 104, 'loaded': True, 'loadedTime': 2599.9000000953674, 'positionName': 'LEFT', 'positionCoords': [511.6, 334.5], 'bid': 1.28}, {'imgObject': {}, 'id': 'chickenfingers', 'src': '/static/foodstim60/chickenfingers.jpg', 'key': 'i', 'origWidth': 410, 'origHeight': 410, 'width': 410, 'height': 410, 'widthPercent': 0.45, 'rescaleHeight': False, 'trialN': 104, 'loaded': True, 'loadedTime': 2564, 'positionName': 'RIGHT', 'positionCoords': [998.4, 335], 'bid': 6.76}]",172025.0,1669829262248,cherries,chickenfingers,1.28,6.76,5.4799999999999995,chickenfingers,617.4000000953674,618,617.9000000953674,True,i,173149.40000009537,1124.4000000953674,1669829263372,1124,HRV,HRV_0006,2022-11-30 17:29:34
105,"[{'imgObject': {}, 'id': 'popsicles', 'src': '/static/foodstim60/popsicles.jpg', 'key': 'u', 'origWidth': 410, 'origHeight': 410, 'width': 410, 'height': 410, 'widthPercent': 0.45, 'rescaleHeight': False, 'trialN': 105, 'loaded': True, 'loadedTime': 2669.0999999046326, 'positionName': 'LEFT', 'positionCoords': [511.6, 335], 'bid': 1.95}, {'imgObject': {}, 'id': 'edamame', 'src': '/static/foodstim60/edamame.jpg', 'key': 'i', 'origWidth': 409, 'origHeight': 410, 'width': 409, 'height': 410, 'widthPercent': 0.45, 'rescaleHeight': False, 'trialN': 105, 'loaded': True, 'loadedTime': 2687, 'positionName': 'RIGHT', 'positionCoords': [998.4, 335], 'bid': 1.05}]",173149.70000004768,1669829263373,popsicles,edamame,1.95,1.05,-0.8999999999999999,edamame,810.7999999523163,811,811.0,True,i,174464.5,1314.7999999523163,1669829264687,1314,HRV,HRV_0006,2022-11-30 17:29:34
106,"[{'imgObject': {}, 'id': 'burger', 'src': '/static/foodstim60/burger.jpg', 'key': 'u', 'origWidth': 409, 'origHeight': 409, 'width': 409, 'height': 409, 'widthPercent': 0.45, 'rescaleHeight': False, 'trialN': 106, 'loaded': True, 'loadedTime': 2712.9000000953674, 'positionName': 'LEFT', 'positionCoords': [512.6, 335.5], 'bid': 7.84}, {'imgObject': {}, 'id': 'turkeysandwich', 'src': '/static/foodstim60/turkeysandwich.jpg', 'key': 'i', 'origWidth': 409, 'origHeight': 409, 'width': 409, 'height': 409, 'widthPercent': 0.45, 'rescaleHeight': False, 'trialN': 106, 'loaded': True, 'loadedTime': 2563.7999999523163, 'positionName': 'RIGHT', 'positionCoords': [998.4, 335.5], 'bid': 8.69}]",174465.29999995232,1669829264688,burger,turkeysandwich,7.84,8.69,0.8499999999999996,turkeysandwich,648.7999999523163,650,649.2999999523163,True,i,175626.5,1161.2000000476837,1669829265849,1161,HRV,HRV_0006,2022-11-30 17:29:34
107,"[{'imgObject': {}, 'id': 'burger', 'src': '/static/foodstim60/burger.jpg', 'key': 'u', 'origWidth': 409, 'origHeight': 409, 'width': 409, 'height': 409, 'widthPercent': 0.45, 'rescaleHeight': False, 'trialN': 107, 'loaded': True, 'loadedTime': 2712.7999999523163, 'positionName': 'LEFT', 'positionCoords': [512.6, 335.5], 'bid': 7.84}, {'imgObject': {}, 'id': 'olives', 'src': '/static/foodstim60/olives.jpg', 'key': 'i', 'origWidth': 410, 'origHeight': 410, 'width': 410, 'height': 410, 'widthPercent': 0.45, 'rescaleHeight': False, 'trialN': 107, 'loaded': True, 'loadedTime': 2711.2999999523163, 'positionName': 'RIGHT', 'positionCoords': [998.4, 335], 'bid': 7.56}]",175626.59999990463,1669829265850,burger,olives,7.84,7.56,-0.28000000000000025,olives,703.1000001430511,703,703.5,True,i,176833.70000004768,1207.1000001430511,1669829267057,1207,HRV,HRV_0006,2022-11-30 17:29:34
108,"[{'imgObject': {}, 'id': 'turkey sandwich', 'src': '/static/foodstim60/turkey sandwich.jpg', 'key': 'u', 'origWidth': 409, 'origHeight': 409, 'width': 409, 'height': 409, 'widthPercent': 0.45, 'rescaleHeight': False, 'trialN': 108, 'loaded': True, 'loadedTime': 2550.5999999046326, 'positionName': 'LEFT', 'positionCoords': [512.6, 335.5], 'bid': 7.44}, {'imgObject': {}, 'id': 'cocktailshrimp', 'src': '/static/foodstim60/cocktailshrimp.jpg', 'key': 'i', 'origWidth': 410, 'origHeight': 410, 'width': 410, 'height': 410, 'widthPercent': 0.45, 'rescaleHeight': False, 'trialN': 108, 'loaded': True, 'loadedTime': 2572, 'positionName': 'RIGHT', 'positionCoords': [998.4, 335], 'bid': 9.3}]",176834.40000009537,1669829267057,turkey sandwich,cocktailshrimp,7.44,9.3,1.8600000000000003,cocktailshrimp,1112.5999999046326,1114,1113.1999998092651,True,i,178470.59999990463,1636.1999998092651,1669829268694,1637,HRV,HRV_0006,2022-11-30 17:29:34
