success,trial_type,trial_index,time_elapsed,internal_node_id,Block,TrialNumber,TrialTime,trialTimeDiff,FPS_avg,FPS_med,FPS_mode,TrialDur,winResizeTime,rt,block,button_pressed,missTrial,missTrialMsg,MotCoh,MotDir,ColCoh,Color,ChoiceKey,Choice,Accuracy,RT,nFrames,FPS,PPD,onsetDelay,fullScreenExitTime,canvCenter,TrialType,Score,BlockTrial,stimulus,button_labels,exp,subjectId,date
True,fullscreen,0,1636,0.0-0.0,0.0,1.0,,,,,,,,,,,,,,,,,,,,,,,,,,,,,,,,HRV,HRV_0006,2022-07-11 15:44:18
,wl-check-fps,1,6639,0.0-1.0,0.0,2.0,"[1924, 1934.6, 1950.9, 1968, 1984.5, 2001.3, 2018, 2034.6, 2051.1, 2067.9, 2087, 2101.3, 2117.9, 2134.5, 2151.4, 2167.7, 2184.5, 2201.4, 2217.4, 2234.4, 2250.9, 2267.5, 2284.2, 2301.4, 2317.8, 2334.5, 2351.4, 2368, 2384.5, 2401.1, 2417.7, 2434.5, 2451.4, 2467.9, 2484.6, 2501.3, 2517.7, 2534.4, 2551.4, 2568, 2584.7, 2601.4, 2617.8, 2634.5, 2651.3, 2668, 2684.7, 2701.1, 2718, 2734.9, 2751.4, 2768, 2784.3, 2801.1, 2817.9, 2834.3, 2851.1, 2867.9, 2884.5, 2901.1, 2917.6, 2934.6, 2951.3, 2968.5, 2984.5, 3001.3, 3017.8, 3034.5, 3051.2, 3068, 3084.4, 3101.2, 3117.8, 3134.5, 3151.4, 3168.5, 3184.5, 3201.5, 3217.7, 3234.7, 3251.3, 3267.6, 3284.2, 3301.1, 3317.9, 3334.5, 3351.3, 3367.9, 3384.5, 3401.2, 3418.1, 3434.6, 3451.3, 3468.1, 3484.6, 3501.2, 3517.7, 3534.5, 3551.3, 3568.1, 3584.5, 3601.5, 3617.8, 3634.5, 3651.3, 3667.9, 3684.4, 3701.2, 3717.9, 3734.6, 3751.2, 3768, 3784.6, 3801.4, 3817.7, 3834.4, 3851.4, 3867.9, 3884.2, 3900.8, 3917.7, 3934.6, 3951.2, 3967.9, 3984.3, 4001.5, 4017.9, 4034.6, 4051.3, 4068.1, 4084.5, 4101.2, 4117.8, 4134.5, 4151.2, 4168.1, 4184.2, 4201.4, 4217.7, 4234.4, 4251.2, 4267.5, 4284, 4301.1, 4317.4, 4334.2, 4350.9, 4367.8, 4384.6, 4401.4, 4417.9, 4434.6, 4451.2, 4468, 4484.3, 4501.2, 4518.1, 4534.3, 4551.7, 4568, 4584.1, 4601.2, 4618.6, 4634.8, 4651.2, 4667.9, 4684.7, 4701.5, 4718, 4734.4, 4751.4, 4768, 4784.5, 4801.4, 4818, 4834.5, 4851.3, 4867.9, 4884.8, 4901.3, 4917.9, 4934.7, 4951.3, 4968, 4984.5, 5001.3, 5017.9, 5034.6, 5051.2, 5068, 5084.4, 5101.1, 5117.9, 5134.4, 5151.4, 5168, 5184.7, 5201.2, 5218, 5234.5, 5251.3, 5268, 5284.5, 5301.3, 5317.9, 5334.7, 5351.4, 5367.7, 5384.1, 5400.9, 5418, 5434.6, 5451.1, 5468, 5484.4, 5501.2, 5517.9, 5534.7, 5551.3, 5567.8, 5584.6, 5601.4, 5617.9, 5634.5, 5651.3, 5667.9, 5684.5, 5701.4, 5717.9, 5734.5, 5751.4, 5767.9, 5784.7, 5801.5, 5818, 5834.6, 5851.2, 5868, 5884.5, 5901.3, 5917.7, 5934.7, 5951.4, 5967.8, 5984.6, 6001.3, 6018.1, 6034.5, 6051.4, 6067.7, 6084.5, 6101.3, 6117.9, 6134.5, 6151.2, 6168, 6184.6, 6201.3, 6218.4, 6234.6, 6251.2, 6267.7, 6284.6, 6301.5, 6317.9, 6334.4, 6351.4, 6368, 6384.5, 6401.1, 6417.5, 6434.3, 6451.2, 6468.1, 6484.4, 6501.2, 6517.9, 6534.4, 6551.4, 6568, 6584.8, 6601, 6617.8, 6634.4, 6651.5, 6668, 6684.5, 6701.4, 6717.7, 6734.6, 6751.3, 6768.1, 6784.3, 6801.4, 6817.9, 6834.6, 6851.1, 6867.8, 6884.7, 6901.2]","[4.3, 10.6, 16.3, 17.1, 16.5, 16.8, 16.7, 16.6, 16.5, 16.8, 19.1, 14.3, 16.6, 16.6, 16.9, 16.3, 16.8, 16.9, 16, 17, 16.5, 16.6, 16.7, 17.2, 16.4, 16.7, 16.9, 16.6, 16.5, 16.6, 16.6, 16.8, 16.9, 16.5, 16.7, 16.7, 16.4, 16.7, 17, 16.6, 16.7, 16.7, 16.4, 16.7, 16.8, 16.7, 16.7, 16.4, 16.9, 16.9, 16.5, 16.6, 16.3, 16.8, 16.8, 16.4, 16.8, 16.8, 16.6, 16.6, 16.5, 17, 16.7, 17.2, 16, 16.8, 16.5, 16.7, 16.7, 16.8, 16.4, 16.8, 16.6, 16.7, 16.9, 17.1, 16, 17, 16.2, 17, 16.6, 16.3, 16.6, 16.9, 16.8, 16.6, 16.8, 16.6, 16.6, 16.7, 16.9, 16.5, 16.7, 16.8, 16.5, 16.6, 16.5, 16.8, 16.8, 16.8, 16.4, 17, 16.3, 16.7, 16.8, 16.6, 16.5, 16.8, 16.7, 16.7, 16.6, 16.8, 16.6, 16.8, 16.3, 16.7, 17, 16.5, 16.3, 16.6, 16.9, 16.9, 16.6, 16.7, 16.4, 17.2, 16.4, 16.7, 16.7, 16.8, 16.4, 16.7, 16.6, 16.7, 16.7, 16.9, 16.1, 17.2, 16.3, 16.7, 16.8, 16.3, 16.5, 17.1, 16.3, 16.8, 16.7, 16.9, 16.8, 16.8, 16.5, 16.7, 16.6, 16.8, 16.3, 16.9, 16.9, 16.2, 17.4, 16.3, 16.1, 17.1, 17.4, 16.2, 16.4, 16.7, 16.8, 16.8, 16.5, 16.4, 17, 16.6, 16.5, 16.9, 16.6, 16.5, 16.8, 16.6, 16.9, 16.5, 16.6, 16.8, 16.6, 16.7, 16.5, 16.8, 16.6, 16.7, 16.6, 16.8, 16.4, 16.7, 16.8, 16.5, 17, 16.6, 16.7, 16.5, 16.8, 16.5, 16.8, 16.7, 16.5, 16.8, 16.6, 16.8, 16.7, 16.3, 16.4, 16.8, 17.1, 16.6, 16.5, 16.9, 16.4, 16.8, 16.7, 16.8, 16.6, 16.5, 16.8, 16.8, 16.5, 16.6, 16.8, 16.6, 16.6, 16.9, 16.5, 16.6, 16.9, 16.5, 16.8, 16.8, 16.5, 16.6, 16.6, 16.8, 16.5, 16.8, 16.4, 17, 16.7, 16.4, 16.8, 16.7, 16.8, 16.4, 16.9, 16.3, 16.8, 16.8, 16.6, 16.6, 16.7, 16.8, 16.6, 16.7, 17.1, 16.2, 16.6, 16.5, 16.9, 16.9, 16.4, 16.5, 17, 16.6, 16.5, 16.6, 16.4, 16.8, 16.9, 16.9, 16.3, 16.8, 16.7, 16.5, 17, 16.6, 16.8, 16.2, 16.8, 16.6, 17.1, 16.5, 16.5, 16.9, 16.3, 16.9, 16.7, 16.8, 16.2, 17.1, 16.5, 16.7, 16.5, 16.7, 16.9, 16.5]",60.0,60.0,60.0,4998.3,[],,,,,,,,,,,,,,,,,,,,,,,,,HRV,HRV_0006,2022-07-11 15:44:18
,wl-html-keyboard-response,2,1914788,0.0-2.0-0.0,0.0,2.0,,,,,,,,1906141.7999999821,0.0,0,True,undefinedblurEvent ,,,,,,,,,,,,,,,,,,,,HRV,HRV_0006,2022-07-11 15:44:18
,wl-rdm,3,1946692,0.0-3.0-0.0,0.0,3.0,,,,,,,[],,,,False,RT_timeout ,0.0,0.0,87.9,0.0,u,0.0,True,6271.4000000059605,377.0,60.0,40.0,3000.0,[],"[960, 540]",ColorTask_Demo,,,,,HRV,HRV_0006,2022-07-11 15:44:18
,wl-rdm,4,1952841,0.0-3.0-1.0,0.0,4.0,,,,,,,[],,,,False,,0.0,0.0,87.9,1.0,i,1.0,True,2072.0,125.0,60.0,40.0,2000.0,[],"[960, 540]",ColorTask_Demo,,,,,HRV,HRV_0006,2022-07-11 15:44:18
,wl-html-keyboard-response,5,1957141,0.0-3.0-2.0,0.0,5.0,,,,,,,,2294.2999999821186,0.0,1,,,,,,,,,,,,,,,,,,,,,,HRV,HRV_0006,2022-07-11 15:44:18
,wl-html-keyboard-response,6,1964931,0.0-4.0-0.0,0.0,6.0,,,,,,,,5787.0999999940395,0.0,0,,,,,,,,,,,,,,,,,,,,,,HRV,HRV_0006,2022-07-11 15:44:18
,wl-html-keyboard-response,7,1977285,0.0-5.0-0.0,0.0,7.0,,,,,,,,10350.700000017881,0.0,0,,,,,,,,,,,,,,,,,,,,,,HRV,HRV_0006,2022-07-11 15:44:18
,wl-rdm,8,1981623,0.0-6.0-0.0,0.0,7.0,,,,,,,[],,,,True,RT_timeout ,,,62.5,0.0,,,,,179.0,60.0,40.0,222.27478050784964,[],"[960, 540]",ColorTask,-1.0,1.0,,,HRV,HRV_0006,2022-07-11 15:44:18
,wl-rdm,9,1985989,0.0-6.1-0.1,0.0,7.0,,,,,,,[],,,,True,RT_timeout ,,,50.0,1.0,,,,,179.0,60.0,40.0,262.6933842423505,[],"[960, 540]",ColorTask,-2.0,2.0,,,HRV,HRV_0006,2022-07-11 15:44:18
,wl-rdm,10,1990289,0.0-6.2-0.2,0.0,7.0,,,,,,,[],,,,True,RT_timeout ,,,56.4,0.0,,,,,179.0,60.0,40.0,208.63648291648585,[],"[960, 540]",ColorTask,-3.0,3.0,,,HRV,HRV_0006,2022-07-11 15:44:18
,wl-rdm,11,1994672,0.0-6.3-0.3,0.0,7.0,,,,,,,[],,,,True,RT_timeout ,,,87.9,0.0,,,,,179.0,60.0,40.0,297.94116472011353,[],"[960, 540]",ColorTask,-4.0,4.0,,,HRV,HRV_0006,2022-07-11 15:44:18
,wl-rdm,12,1999039,0.0-6.4-0.4,0.0,7.0,,,,,,,[],,,,True,RT_timeout ,,,62.5,1.0,,,,,179.0,60.0,40.0,272.1270068099904,[],"[960, 540]",ColorTask,-5.0,5.0,,,HRV,HRV_0006,2022-07-11 15:44:18
,wl-rdm,13,2003373,0.0-6.5-0.5,0.0,7.0,,,,,,,[],,,,True,RT_timeout ,,,62.5,1.0,,,,,179.0,60.0,40.0,240.65641146777278,[],"[960, 540]",ColorTask,-6.0,6.0,,,HRV,HRV_0006,2022-07-11 15:44:18
,wl-rdm,14,2007756,0.0-6.6-0.6,0.0,7.0,,,,,,,[],,,,True,RT_timeout ,,,50.0,0.0,,,,,179.0,60.0,40.0,267.6605663099698,[],"[960, 540]",ColorTask,-7.0,7.0,,,HRV,HRV_0006,2022-07-11 15:44:18
,wl-rdm,15,2012073,0.0-6.7-0.7,0.0,7.0,,,,,,,[],,,,True,RT_timeout ,,,50.0,1.0,,,,,179.0,60.0,40.0,229.54826721707664,[],"[960, 540]",ColorTask,-8.0,8.0,,,HRV,HRV_0006,2022-07-11 15:44:18
,wl-rdm,16,2016456,0.0-6.8-0.8,0.0,7.0,,,,,,,[],,,,True,RT_timeout ,,,87.9,1.0,,,,,179.0,60.0,40.0,294.1150260370067,[],"[960, 540]",ColorTask,-9.0,9.0,,,HRV,HRV_0006,2022-07-11 15:44:18
,wl-rdm,17,2020789,0.0-6.9-0.9,0.0,7.0,,,,,,,[],,,,True,RT_timeout warning ,,,62.5,0.0,,,,,179.0,60.0,40.0,249.8482453397095,[],"[960, 540]",ColorTask,-10.0,10.0,,,HRV,HRV_0006,2022-07-11 15:44:18
,wl-rdm,18,2020823,0.0-6.10-0.10,0.0,7.0,,,,,,,[28],,,,True,exitFullScreen ,,,87.9,1.0,,,,,0.0,60.0,40.0,347.8408471404181,[],"[None, None]",ColorTask,-11.0,11.0,,,HRV,HRV_0006,2022-07-11 15:44:18
,wl-rdm,19,2070067,0.0-6.11-0.11,0.0,7.0,,,,,,,[],,,,True,enterFullScreen ,,,62.5,1.0,,,,,0.0,60.0,40.0,241.63744553718982,[],"[None, None]",ColorTask,-12.0,12.0,,,HRV,HRV_0006,2022-07-11 15:44:18
,wl-rdm,20,2072423,0.0-6.12-0.12,0.0,8.0,,,,,,,[],,,,False,,,,56.4,0.0,u,0.0,True,1011.8999999761581,61.0,60.0,40.0,296.5757539784339,[],"[960, 540]",ColorTask,-11.0,13.0,,,HRV,HRV_0006,2022-07-11 15:44:18
,wl-rdm,21,2074423,0.0-6.13-0.13,0.0,9.0,,,,,,,[],,,,False,,,,87.9,0.0,i,1.0,False,548.9000000059605,33.0,60.0,40.0,396.3946075443099,[],"[960, 540]",ColorTask,-12.0,14.0,,,HRV,HRV_0006,2022-07-11 15:44:18
,wl-rdm,22,2076506,0.0-6.14-0.14,0.0,10.0,,,,,,,[],,,,False,,,,87.9,1.0,i,1.0,True,741.4000000357628,45.0,60.0,40.0,260.820024976191,[],"[960, 540]",ColorTask,-11.0,15.0,,,HRV,HRV_0006,2022-07-11 15:44:18
,wl-rdm,23,2078322,0.0-6.15-0.15,0.0,11.0,,,,,,,[],,,,False,,,,53.2,0.0,u,0.0,True,518.3000000119209,32.0,60.0,40.0,215.24177614863714,[],"[960, 540]",ColorTask,-10.0,16.0,,,HRV,HRV_0006,2022-07-11 15:44:18
,wl-rdm,24,2080489,0.0-6.16-0.16,0.0,12.0,,,,,,,[],,,,False,,,,62.5,1.0,i,1.0,True,806.2000000178814,49.0,60.0,40.0,291.64916147974486,[],"[960, 540]",ColorTask,-9.0,17.0,,,HRV,HRV_0006,2022-07-11 15:44:18
,wl-rdm,25,2084272,0.0-6.17-0.17,0.0,13.0,,,,,,,[],,,,False,,,,73.6,0.0,u,0.0,True,2448.2999999821186,147.0,60.0,40.0,252.20684575907836,[],"[960, 540]",ColorTask,-8.0,18.0,,,HRV,HRV_0006,2022-07-11 15:44:18
,wl-rdm,26,2086956,0.0-6.18-0.18,0.0,14.0,,,,,,,[],,,,False,,,,62.5,0.0,u,0.0,True,1293.699999988079,78.0,60.0,40.0,308.4030356495845,[],"[960, 540]",ColorTask,-7.0,19.0,,,HRV,HRV_0006,2022-07-11 15:44:18
,wl-rdm,27,2088989,0.0-6.19-0.19,0.0,15.0,,,,,,,[],,,,False,,,,73.6,1.0,u,0.0,False,576.0,35.0,60.0,40.0,373.3304339485185,[],"[960, 540]",ColorTask,-8.0,20.0,,,HRV,HRV_0006,2022-07-11 15:44:18
,wl-rdm,28,2092573,0.0-6.20-0.20,0.0,16.0,,,,,,,[],,,,False,,,,50.0,1.0,u,0.0,False,2195.7000000178814,132.0,60.0,40.0,314.80203632572795,[],"[960, 540]",ColorTask,-9.0,21.0,,,HRV,HRV_0006,2022-07-11 15:44:18
,wl-rdm,29,2094722,0.0-6.21-0.21,0.0,17.0,,,,,,,[],,,,False,,,,73.6,1.0,i,1.0,True,714.8000000119209,43.0,60.0,40.0,362.34312093767767,[],"[960, 540]",ColorTask,-8.0,22.0,,,HRV,HRV_0006,2022-07-11 15:44:18
,wl-rdm,30,2098040,0.0-6.22-0.22,0.0,18.0,,,,,,,[],,,,False,,,,62.5,1.0,u,0.0,False,1990.5,120.0,60.0,40.0,243.99673459980448,[],"[960, 540]",ColorTask,-9.0,23.0,,,HRV,HRV_0006,2022-07-11 15:44:18
,wl-rdm,31,2102139,0.0-6.23-0.23,0.0,19.0,,,,,,,[],,,,False,,,,53.2,1.0,u,0.0,False,2801.399999976158,169.0,60.0,40.0,227.15039608708,[],"[960, 540]",ColorTask,-10.0,24.0,,,HRV,HRV_0006,2022-07-11 15:44:18
,wl-rdm,32,2105839,0.0-6.24-0.24,0.0,20.0,,,,,,,[],,,,False,,,,53.2,0.0,i,1.0,False,2309.0,139.0,60.0,40.0,317.8719399344292,[],"[960, 540]",ColorTask,-11.0,25.0,,,HRV,HRV_0006,2022-07-11 15:44:18
,wl-rdm,33,2108139,0.0-6.25-0.25,0.0,21.0,,,,,,,[],,,,False,,,,73.6,1.0,u,0.0,False,1001.5,61.0,60.0,40.0,206.63568895551097,[],"[960, 540]",ColorTask,-12.0,26.0,,,HRV,HRV_0006,2022-07-11 15:44:18
,wl-rdm,34,2110472,0.0-6.26-0.26,0.0,22.0,,,,,,,[],,,,False,,,,73.6,1.0,i,1.0,True,1023.0,62.0,60.0,40.0,239.19182163569627,[],"[960, 540]",ColorTask,-11.0,27.0,,,HRV,HRV_0006,2022-07-11 15:44:18
,wl-rdm,35,2112623,0.0-6.27-0.27,0.0,23.0,,,,,,,[],,,,False,,,,87.9,1.0,i,1.0,True,689.4000000357628,42.0,60.0,40.0,369.7629276041176,[],"[960, 540]",ColorTask,-10.0,28.0,,,HRV,HRV_0006,2022-07-11 15:44:18
,wl-rdm,36,2114922,0.0-6.28-0.28,0.0,24.0,,,,,,,[],,,,False,,,,62.5,0.0,i,1.0,False,873.5,53.0,60.0,40.0,340.75256744700823,[],"[960, 540]",ColorTask,-11.0,29.0,,,HRV,HRV_0006,2022-07-11 15:44:18
,wl-rdm,37,2116922,0.0-6.29-0.29,0.0,25.0,,,,,,,[],,,,False,,,,87.9,1.0,u,0.0,False,711.6999999880791,43.0,60.0,40.0,202.44978571235265,[],"[960, 540]",ColorTask,-12.0,30.0,,,HRV,HRV_0006,2022-07-11 15:44:18
,wl-rdm,38,2118773,0.0-6.30-0.30,0.0,26.0,,,,,,,[],,,,False,,,,73.6,0.0,u,0.0,True,551.5,34.0,60.0,40.0,213.08349569365822,[],"[960, 540]",ColorTask,-11.0,31.0,,,HRV,HRV_0006,2022-07-11 15:44:18
,wl-rdm,39,2120623,0.0-6.31-0.31,0.0,27.0,,,,,,,[],,,,False,,,,56.4,1.0,i,1.0,True,406.39999997615814,25.0,60.0,40.0,352.9083020983827,[],"[960, 540]",ColorTask,-10.0,32.0,,,HRV,HRV_0006,2022-07-11 15:44:18
,wl-rdm,40,2122756,0.0-6.32-0.32,0.0,28.0,,,,,,,[],,,,False,,,,73.6,1.0,i,1.0,True,670.6999999880791,41.0,60.0,40.0,367.86673937075494,[],"[960, 540]",ColorTask,-9.0,33.0,,,HRV,HRV_0006,2022-07-11 15:44:18
,wl-rdm,41,2124606,0.0-6.33-0.33,0.0,29.0,,,,,,,[],,,,False,,,,73.6,1.0,i,1.0,True,406.5,25.0,60.0,40.0,365.5302616762196,[],"[960, 540]",ColorTask,-8.0,34.0,,,HRV,HRV_0006,2022-07-11 15:44:18
,wl-rdm,42,2127173,0.0-6.34-0.34,0.0,30.0,,,,,,,[],,,,False,,,,50.0,1.0,i,1.0,True,1102.8999999761581,67.0,60.0,40.0,397.138239721732,[],"[960, 540]",ColorTask,-7.0,35.0,,,HRV,HRV_0006,2022-07-11 15:44:18
,wl-rdm,43,2129256,0.0-6.35-0.35,0.0,31.0,,,,,,,[],,,,False,,,,50.0,0.0,i,1.0,False,639.5999999940395,39.0,60.0,40.0,375.73085945640923,[],"[960, 540]",ColorTask,-8.0,36.0,,,HRV,HRV_0006,2022-07-11 15:44:18
,wl-rdm,44,2131789,0.0-6.36-0.36,0.0,32.0,,,,,,,[],,,,False,,,,53.2,0.0,i,1.0,False,1174.699999988079,71.0,60.0,40.0,272.3246549416544,[],"[960, 540]",ColorTask,-9.0,37.0,,,HRV,HRV_0006,2022-07-11 15:44:18
,wl-rdm,45,2134656,0.0-6.37-0.37,0.0,33.0,,,,,,,[],,,,False,,,,53.2,1.0,i,1.0,True,1498.0999999940395,90.0,60.0,40.0,289.62993066207247,[],"[960, 540]",ColorTask,-8.0,38.0,,,HRV,HRV_0006,2022-07-11 15:44:18
,wl-rdm,46,2137073,0.0-6.38-0.38,0.0,34.0,,,,,,,[],,,,False,,,,56.4,0.0,i,1.0,False,1021.8999999761581,62.0,60.0,40.0,302.65427951527425,[],"[960, 540]",ColorTask,-9.0,39.0,,,HRV,HRV_0006,2022-07-11 15:44:18
,wl-rdm,47,2140290,0.0-6.39-0.39,0.0,35.0,,,,,,,[],,,,False,,,,56.4,1.0,i,1.0,True,1931.2999999821186,116.0,60.0,40.0,231.6760635071198,[],"[960, 540]",ColorTask,-8.0,40.0,,,HRV,HRV_0006,2022-07-11 15:44:18
,wl-rdm,48,2143173,0.0-6.40-0.40,0.0,36.0,,,,,,,[],,,,False,,,,53.2,0.0,i,1.0,False,1614.5999999940395,97.0,60.0,40.0,208.251331571469,[],"[960, 540]",ColorTask,-9.0,41.0,,,HRV,HRV_0006,2022-07-11 15:44:18
,wl-rdm,49,2145723,0.0-6.41-0.41,0.0,37.0,,,,,,,[],,,,False,,,,53.2,1.0,i,1.0,True,1175.3999999761581,71.0,60.0,40.0,283.5958525857743,[],"[960, 540]",ColorTask,-8.0,42.0,,,HRV,HRV_0006,2022-07-11 15:44:18
,wl-rdm,50,2147923,0.0-6.42-0.42,0.0,38.0,,,,,,,[],,,,False,,,,50.0,1.0,i,1.0,True,908.0,55.0,60.0,40.0,215.67068126250996,[],"[960, 540]",ColorTask,-7.0,43.0,,,HRV,HRV_0006,2022-07-11 15:44:18
,wl-rdm,51,2150289,0.0-6.43-0.43,0.0,39.0,,,,,,,[],,,,False,,,,87.9,0.0,i,1.0,False,997.3000000119209,60.0,60.0,40.0,311.7257131535815,[],"[960, 540]",ColorTask,-8.0,44.0,,,HRV,HRV_0006,2022-07-11 15:44:18
,wl-rdm,52,2153573,0.0-6.44-0.44,0.0,40.0,,,,,,,[],,,,False,,,,56.4,1.0,i,1.0,True,1883.2999999821186,113.0,60.0,40.0,325.44708793282416,[],"[960, 540]",ColorTask,-7.0,45.0,,,HRV,HRV_0006,2022-07-11 15:44:18
,wl-rdm,53,2155556,0.0-6.45-0.45,0.0,41.0,,,,,,,[],,,,False,,,,87.9,1.0,i,1.0,True,712.2000000178814,43.0,60.0,40.0,207.21708254039868,[],"[960, 540]",ColorTask,-6.0,46.0,,,HRV,HRV_0006,2022-07-11 15:44:18
,wl-rdm,54,2157906,0.0-6.46-0.46,0.0,42.0,,,,,,,[],,,,False,,,,87.9,1.0,i,1.0,True,1025.6000000238419,62.0,60.0,40.0,248.32150326273373,[],"[960, 540]",ColorTask,-5.0,47.0,,,HRV,HRV_0006,2022-07-11 15:44:18
,wl-rdm,55,2160456,0.0-6.47-0.47,0.0,43.0,,,,,,,[],,,,False,,,,53.2,0.0,i,1.0,False,1217.9000000059605,74.0,60.0,40.0,234.76507901646383,[],"[960, 540]",ColorTask,-6.0,48.0,,,HRV,HRV_0006,2022-07-11 15:44:18
,wl-rdm,56,2162823,0.0-6.48-0.48,0.0,44.0,,,,,,,[],,,,False,,,,62.5,0.0,i,1.0,False,994.0999999642372,60.0,60.0,40.0,299.0453976194152,[],"[960, 540]",ColorTask,-7.0,49.0,,,HRV,HRV_0006,2022-07-11 15:44:18
,wl-rdm,57,2165406,0.0-6.49-0.49,0.0,45.0,,,,,,,[],,,,False,,,,62.5,0.0,u,0.0,True,1193.199999988079,72.0,60.0,40.0,303.34923451467245,[],"[960, 540]",ColorTask,-6.0,50.0,,,HRV,HRV_0006,2022-07-11 15:44:18
,wl-rdm,58,2167806,0.0-6.50-0.50,0.0,46.0,,,,,,,[],,,,False,,,,87.9,0.0,u,0.0,True,1066.0,64.0,60.0,40.0,282.65488019652315,[],"[960, 540]",ColorTask,-5.0,51.0,,,HRV,HRV_0006,2022-07-11 15:44:18
,wl-rdm,59,2169956,0.0-6.51-0.51,0.0,47.0,,,,,,,[],,,,False,,,,87.9,0.0,i,1.0,False,774.0,47.0,60.0,40.0,288.7411099641412,[],"[960, 540]",ColorTask,-6.0,52.0,,,HRV,HRV_0006,2022-07-11 15:44:18
,wl-rdm,60,2172273,0.0-6.52-0.52,0.0,48.0,,,,,,,[],,,,False,,,,56.4,0.0,i,1.0,False,1005.6999999880791,61.0,60.0,40.0,234.63067714917548,[],"[960, 540]",ColorTask,-7.0,53.0,,,HRV,HRV_0006,2022-07-11 15:44:18
,wl-rdm,61,2174289,0.0-6.53-0.53,0.0,49.0,,,,,,,[],,,,False,,,,87.9,0.0,i,1.0,False,627.0,38.0,60.0,40.0,307.3862967221035,[],"[960, 540]",ColorTask,-8.0,54.0,,,HRV,HRV_0006,2022-07-11 15:44:18
,wl-rdm,62,2176473,0.0-6.54-0.54,0.0,50.0,,,,,,,[],,,,False,,,,50.0,1.0,i,1.0,True,833.9999999701977,51.0,60.0,40.0,261.1570845494021,[],"[960, 540]",ColorTask,-7.0,55.0,,,HRV,HRV_0006,2022-07-11 15:44:18
,wl-rdm,63,2179806,0.0-6.55-0.55,0.0,51.0,,,,,,,[],,,,False,,,,73.6,0.0,u,0.0,True,1911.8999999761581,115.0,60.0,40.0,357.28195822097643,[],"[960, 540]",ColorTask,-6.0,56.0,,,HRV,HRV_0006,2022-07-11 15:44:18
,wl-rdm,64,2183106,0.0-6.56-0.56,0.0,52.0,,,,,,,[],,,,False,,,,73.6,0.0,i,1.0,False,1931.9000000059605,116.0,60.0,40.0,303.1552738262953,[],"[960, 540]",ColorTask,-7.0,57.0,,,HRV,HRV_0006,2022-07-11 15:44:18
,wl-rdm,65,2187573,0.0-6.57-0.57,0.0,52.0,,,,,,,[],,,,True,RT_timeout ,,,62.5,0.0,,,,,179.0,60.0,40.0,370.15222978125246,[],"[960, 540]",ColorTask,-8.0,58.0,,,HRV,HRV_0006,2022-07-11 15:44:18
,wl-rdm,66,2190773,0.0-6.58-0.58,0.0,53.0,,,,,,,[],,,,False,,,,56.4,1.0,u,0.0,False,1832.9999999701977,110.0,60.0,40.0,287.7830755490587,[],"[960, 540]",ColorTask,-9.0,59.0,,,HRV,HRV_0006,2022-07-11 15:44:18
,wl-rdm,67,2195189,0.0-6.59-0.59,0.0,53.0,,,,,,,[],,,,True,RT_timeout ,,,53.2,0.0,,,,,179.0,60.0,40.0,349.82583614683415,[],"[960, 540]",ColorTask,-10.0,60.0,,,HRV,HRV_0006,2022-07-11 15:44:18
,wl-rdm,68,2196256,0.0-6.60-0.60,0.0,53.0,,,,,,,[],,,,True,too_early ,,,53.2,1.0,i,,,171.90000000596046,0.0,60.0,40.0,239.55211208523966,[],"[960, 540]",ColorTask,-11.0,61.0,,,HRV,HRV_0006,2022-07-11 15:44:18
,wl-rdm,69,2199073,0.0-6.61-0.61,0.0,54.0,,,,,,,[],,,,False,,,,56.4,1.0,i,1.0,True,1471.0,89.0,60.0,40.0,269.2607674172676,[],"[960, 540]",ColorTask,-10.0,62.0,,,HRV,HRV_0006,2022-07-11 15:44:18
,wl-rdm,70,2201973,0.0-6.62-0.62,0.0,55.0,,,,,,,[],,,,False,,,,62.5,0.0,i,1.0,False,1466.0,88.0,60.0,40.0,367.4855375725473,[],"[960, 540]",ColorTask,-11.0,63.0,,,HRV,HRV_0006,2022-07-11 15:44:18
,wl-rdm,71,2204539,0.0-6.63-0.63,0.0,56.0,,,,,,,[],,,,False,,,,50.0,0.0,u,0.0,True,1147.699999988079,69.0,60.0,40.0,348.6343522109803,[],"[960, 540]",ColorTask,-10.0,64.0,,,HRV,HRV_0006,2022-07-11 15:44:18
,wl-rdm,72,2207123,0.0-6.64-0.64,0.0,57.0,,,,,,,[],,,,False,,,,53.2,1.0,u,0.0,False,1232.8999999761581,74.0,60.0,40.0,286.76675179856295,[],"[960, 540]",ColorTask,-11.0,65.0,,,HRV,HRV_0006,2022-07-11 15:44:18
,wl-rdm,73,2210189,0.0-6.65-0.65,0.0,58.0,,,,,,,[],,,,False,,,,62.5,0.0,u,0.0,True,1673.199999988079,101.0,60.0,40.0,310.58984109889195,[],"[960, 540]",ColorTask,-10.0,66.0,,,HRV,HRV_0006,2022-07-11 15:44:18
,wl-rdm,74,2212473,0.0-6.66-0.66,0.0,59.0,,,,,,,[],,,,False,,,,62.5,0.0,i,1.0,False,918.5999999940395,56.0,60.0,40.0,279.3278563876465,[],"[960, 540]",ColorTask,-11.0,67.0,,,HRV,HRV_0006,2022-07-11 15:44:18
,wl-rdm,75,2214356,0.0-6.67-0.67,0.0,60.0,,,,,,,[],,,,False,,,,50.0,0.0,u,0.0,True,414.2999999821186,25.0,60.0,40.0,398.59262872658337,[],"[960, 540]",ColorTask,-10.0,68.0,,,HRV,HRV_0006,2022-07-11 15:44:18
,wl-rdm,76,2216023,0.0-6.68-0.68,0.0,61.0,,,,,,,[],,,,False,,,,73.6,0.0,i,1.0,False,361.30000001192093,22.0,60.0,40.0,225.25808203039736,[],"[960, 540]",ColorTask,-11.0,69.0,,,HRV,HRV_0006,2022-07-11 15:44:18
,wl-rdm,77,2218073,0.0-6.69-0.69,0.0,62.0,,,,,,,[],,,,False,,,,53.2,0.0,u,0.0,True,599.5999999940395,36.0,60.0,40.0,395.5434078605181,[],"[960, 540]",ColorTask,-10.0,70.0,,,HRV,HRV_0006,2022-07-11 15:44:18
,wl-rdm,78,2219773,0.0-6.70-0.70,0.0,63.0,,,,,,,[],,,,False,,,,62.5,1.0,i,1.0,True,432.2999999821186,26.0,60.0,40.0,213.4831713967851,[],"[960, 540]",ColorTask,-9.0,71.0,,,HRV,HRV_0006,2022-07-11 15:44:18
,wl-rdm,79,2221573,0.0-6.71-0.71,0.0,64.0,,,,,,,[],,,,False,,,,73.6,0.0,u,0.0,True,507.5,31.0,60.0,40.0,225.70893311515326,[],"[960, 540]",ColorTask,-8.0,72.0,,,HRV,HRV_0006,2022-07-11 15:44:18
,wl-rdm,80,2223473,0.0-6.72-0.72,0.0,65.0,,,,,,,[],,,,False,,,,87.9,1.0,i,1.0,True,418.09999999403954,26.0,60.0,40.0,394.871931716359,[],"[960, 540]",ColorTask,-7.0,73.0,,,HRV,HRV_0006,2022-07-11 15:44:18
,wl-rdm,81,2225106,0.0-6.73-0.73,0.0,66.0,,,,,,,[],,,,False,,,,62.5,0.0,u,0.0,True,210.4000000357628,13.0,60.0,40.0,341.3171304520513,[],"[960, 540]",ColorTask,-6.0,74.0,,,HRV,HRV_0006,2022-07-11 15:44:18
,wl-rdm,82,2227289,0.0-6.74-0.74,0.0,67.0,,,,,,,[],,,,False,,,,53.2,1.0,u,0.0,False,793.0,48.0,60.0,40.0,315.7665074827639,[],"[960, 540]",ColorTask,-7.0,75.0,,,HRV,HRV_0006,2022-07-11 15:44:18
,wl-rdm,83,2229140,0.0-6.75-0.75,0.0,68.0,,,,,,,[],,,,False,,,,73.6,0.0,i,1.0,False,523.3999999761581,32.0,60.0,40.0,260.811265401724,[],"[960, 540]",ColorTask,-8.0,76.0,,,HRV,HRV_0006,2022-07-11 15:44:18
,wl-rdm,84,2231073,0.0-6.76-0.76,0.0,69.0,,,,,,,[],,,,False,,,,87.9,1.0,u,0.0,False,601.0,37.0,60.0,40.0,250.02371177948,[],"[960, 540]",ColorTask,-9.0,77.0,,,HRV,HRV_0006,2022-07-11 15:44:18
,wl-rdm,85,2233056,0.0-6.77-0.77,0.0,70.0,,,,,,,[],,,,False,,,,56.4,0.0,i,1.0,False,665.0999999940395,40.0,60.0,40.0,251.52885154004588,[],"[960, 540]",ColorTask,-10.0,78.0,,,HRV,HRV_0006,2022-07-11 15:44:18
,wl-rdm,86,2234939,0.0-6.78-0.78,0.0,71.0,,,,,,,[],,,,False,,,,53.2,0.0,u,0.0,True,465.59999999403954,28.0,60.0,40.0,338.98465945951205,[],"[960, 540]",ColorTask,-9.0,79.0,,,HRV,HRV_0006,2022-07-11 15:44:18
,wl-rdm,87,2236906,0.0-6.79-0.79,0.0,72.0,,,,,,,[],,,,False,,,,62.5,0.0,i,1.0,False,611.1999999880791,37.0,60.0,40.0,298.3075394825936,[],"[960, 540]",ColorTask,-10.0,80.0,,,HRV,HRV_0006,2022-07-11 15:44:18
,wl-rdm,88,2238756,0.0-6.80-0.80,0.0,73.0,,,,,,,[],,,,False,,,,50.0,1.0,u,0.0,False,502.4999999701977,31.0,60.0,40.0,253.04639671713005,[],"[960, 540]",ColorTask,-11.0,81.0,,,HRV,HRV_0006,2022-07-11 15:44:18
,wl-rdm,89,2240573,0.0-6.81-0.81,0.0,74.0,,,,,,,[],,,,False,,,,50.0,1.0,i,1.0,True,372.90000000596046,23.0,60.0,40.0,361.01525751931683,[],"[960, 540]",ColorTask,-10.0,82.0,,,HRV,HRV_0006,2022-07-11 15:44:18
,wl-rdm,90,2241640,0.0-6.82-0.82,0.0,74.0,,,,,,,[],,,,True,too_early ,,,62.5,1.0,u,,,471.7000000178814,0.0,60.0,40.0,251.08682732791482,[],"[960, 540]",ColorTask,-11.0,83.0,,,HRV,HRV_0006,2022-07-11 15:44:18
,wl-rdm,91,2243723,0.0-6.83-0.83,0.0,75.0,,,,,,,[],,,,False,,,,87.9,0.0,u,0.0,True,770.9000000059605,47.0,60.0,40.0,221.1515819660076,[],"[960, 540]",ColorTask,-10.0,84.0,,,HRV,HRV_0006,2022-07-11 15:44:18
,wl-rdm,92,2245923,0.0-6.84-0.84,0.0,76.0,,,,,,,[],,,,False,,,,56.4,1.0,i,1.0,True,857.8000000119209,52.0,60.0,40.0,269.192610622855,[],"[960, 540]",ColorTask,-9.0,85.0,,,HRV,HRV_0006,2022-07-11 15:44:18
,wl-rdm,93,2248173,0.0-6.85-0.85,0.0,77.0,,,,,,,[],,,,False,,,,56.4,1.0,u,0.0,False,864.5999999940395,52.0,60.0,40.0,330.4021542434153,[],"[960, 540]",ColorTask,-10.0,86.0,,,HRV,HRV_0006,2022-07-11 15:44:18
,wl-rdm,94,2250073,0.0-6.86-0.86,0.0,78.0,,,,,,,[],,,,False,,,,73.6,1.0,u,0.0,False,531.6000000238419,32.0,60.0,40.0,305.56537833146257,[],"[960, 540]",ColorTask,-11.0,87.0,,,HRV,HRV_0006,2022-07-11 15:44:18
,wl-rdm,95,2252123,0.0-6.87-0.87,0.0,79.0,,,,,,,[],,,,False,,,,62.5,1.0,u,0.0,False,611.4000000059605,37.0,60.0,40.0,360.9712143256776,[],"[960, 540]",ColorTask,-12.0,88.0,,,HRV,HRV_0006,2022-07-11 15:44:18
,wl-rdm,96,2254139,0.0-6.88-0.88,0.0,80.0,,,,,,,[],,,,False,,,,73.6,1.0,i,1.0,True,721.8000000119209,44.0,60.0,40.0,228.72577177695456,[],"[960, 540]",ColorTask,-11.0,89.0,,,HRV,HRV_0006,2022-07-11 15:44:18
,wl-rdm,97,2256473,0.0-6.89-0.89,0.0,81.0,,,,,,,[],,,,False,,,,62.5,1.0,u,0.0,False,872.3000000119209,53.0,60.0,40.0,373.9727252767151,[],"[960, 540]",ColorTask,-12.0,90.0,,,HRV,HRV_0006,2022-07-11 15:44:18
,wl-rdm,98,2258690,0.0-6.90-0.90,0.0,82.0,,,,,,,[],,,,False,,,,50.0,0.0,i,1.0,False,824.2999999821186,50.0,60.0,40.0,303.86257636622616,[],"[960, 540]",ColorTask,-13.0,91.0,,,HRV,HRV_0006,2022-07-11 15:44:18
,wl-rdm,99,2260690,0.0-6.91-0.91,0.0,83.0,,,,,,,[],,,,False,,,,50.0,0.0,u,0.0,True,671.7000000178814,41.0,60.0,40.0,258.43418356087824,[],"[960, 540]",ColorTask,-12.0,92.0,,,HRV,HRV_0006,2022-07-11 15:44:18
,wl-rdm,100,2262873,0.0-6.92-0.92,0.0,84.0,,,,,,,[],,,,False,,,,50.0,1.0,i,1.0,True,737.2999999821186,45.0,60.0,40.0,352.5294770798057,[],"[960, 540]",ColorTask,-11.0,93.0,,,HRV,HRV_0006,2022-07-11 15:44:18
,wl-rdm,101,2264873,0.0-6.93-0.93,0.0,85.0,,,,,,,[],,,,False,,,,53.2,0.0,u,0.0,True,684.6999999880791,42.0,60.0,40.0,221.9544514398306,[],"[960, 540]",ColorTask,-10.0,94.0,,,HRV,HRV_0006,2022-07-11 15:44:18
,wl-rdm,102,2267057,0.0-6.94-0.94,0.0,86.0,,,,,,,[],,,,False,,,,56.4,1.0,i,1.0,True,886.2999999821186,54.0,60.0,40.0,225.22879220968312,[],"[960, 540]",ColorTask,-9.0,95.0,,,HRV,HRV_0006,2022-07-11 15:44:18
,wl-rdm,103,2269040,0.0-6.95-0.95,0.0,87.0,,,,,,,[],,,,False,,,,53.2,1.0,u,0.0,False,680.3999999761581,41.0,60.0,40.0,240.55300704483395,[],"[960, 540]",ColorTask,-10.0,96.0,,,HRV,HRV_0006,2022-07-11 15:44:18
,wl-rdm,104,2271006,0.0-6.96-0.96,0.0,88.0,,,,,,,[],,,,False,,,,50.0,1.0,u,0.0,False,526.3999999761581,32.0,60.0,40.0,361.2464331900567,[],"[960, 540]",ColorTask,-11.0,97.0,,,HRV,HRV_0006,2022-07-11 15:44:18
,wl-rdm,105,2272890,0.0-6.97-0.97,0.0,89.0,,,,,,,[],,,,False,,,,56.4,0.0,u,0.0,True,513.0000000298023,31.0,60.0,40.0,305.5784998230489,[],"[960, 540]",ColorTask,-10.0,98.0,,,HRV,HRV_0006,2022-07-11 15:44:18
,wl-rdm,106,2274856,0.0-6.98-0.98,0.0,90.0,,,,,,,[],,,,False,,,,53.2,1.0,i,1.0,True,625.0,38.0,60.0,40.0,271.7459606193959,[],"[960, 540]",ColorTask,-9.0,99.0,,,HRV,HRV_0006,2022-07-11 15:44:18
,wl-rdm,107,2276823,0.0-6.99-0.99,0.0,91.0,,,,,,,[],,,,False,,,,50.0,1.0,u,0.0,False,665.0,40.0,60.0,40.0,224.21279764093936,[],"[960, 540]",ColorTask,-10.0,100.0,,,HRV,HRV_0006,2022-07-11 15:44:18
,wl-rdm,108,2278756,0.0-6.100-0.100,0.0,92.0,,,,,,,[],,,,False,,,,56.4,1.0,i,1.0,True,491.2999999821186,30.0,60.0,40.0,380.5414388952255,[],"[960, 540]",ColorTask,-9.0,101.0,,,HRV,HRV_0006,2022-07-11 15:44:18
,wl-rdm,109,2280723,0.0-6.101-0.101,0.0,93.0,,,,,,,[],,,,False,,,,53.2,0.0,u,0.0,True,509.30000001192093,31.0,60.0,40.0,385.5127257522974,[],"[960, 540]",ColorTask,-8.0,102.0,,,HRV,HRV_0006,2022-07-11 15:44:18
,wl-rdm,110,2282656,0.0-6.102-0.102,0.0,94.0,,,,,,,[],,,,False,,,,73.6,1.0,i,1.0,True,558.0,34.0,60.0,40.0,316.05754668875124,[],"[960, 540]",ColorTask,-7.0,103.0,,,HRV,HRV_0006,2022-07-11 15:44:18
,wl-rdm,111,2284473,0.0-6.103-0.103,0.0,95.0,,,,,,,[],,,,False,,,,56.4,0.0,u,0.0,True,402.2999999821186,25.0,60.0,40.0,339.6361341137209,[],"[960, 540]",ColorTask,-6.0,104.0,,,HRV,HRV_0006,2022-07-11 15:44:18
,wl-rdm,112,2286323,0.0-6.104-0.104,0.0,96.0,,,,,,,[],,,,False,,,,62.5,1.0,i,1.0,True,554.5999999642372,34.0,60.0,40.0,204.82090122712225,[],"[960, 540]",ColorTask,-5.0,105.0,,,HRV,HRV_0006,2022-07-11 15:44:18
,wl-rdm,113,2289673,0.0-6.105-0.105,0.0,97.0,,,,,,,[],,,,False,,,,87.9,0.0,u,0.0,True,2009.7999999821186,121.0,60.0,40.0,272.5000270548255,[],"[960, 540]",ColorTask,-4.0,106.0,,,HRV,HRV_0006,2022-07-11 15:44:18
,wl-rdm,114,2291790,0.0-6.106-0.106,0.0,98.0,,,,,,,[],,,,False,,,,50.0,0.0,i,1.0,False,835.5999999940395,51.0,60.0,40.0,213.6220655264008,[],"[960, 540]",ColorTask,-5.0,107.0,,,HRV,HRV_0006,2022-07-11 15:44:18
,wl-rdm,115,2293973,0.0-6.107-0.107,0.0,99.0,,,,,,,[],,,,False,,,,50.0,0.0,u,0.0,True,813.7999999821186,49.0,60.0,40.0,292.8515920641579,[],"[960, 540]",ColorTask,-4.0,108.0,,,HRV,HRV_0006,2022-07-11 15:44:18
,wl-rdm,116,2296006,0.0-6.108-0.108,0.0,100.0,,,,,,,[],,,,False,,,,87.9,0.0,i,1.0,False,753.0,46.0,60.0,40.0,209.89454425483444,[],"[960, 540]",ColorTask,-5.0,109.0,,,HRV,HRV_0006,2022-07-11 15:44:18
,wl-rdm,117,2298239,0.0-6.109-0.109,0.0,101.0,,,,,,,[],,,,False,,,,50.0,0.0,u,0.0,True,845.0,51.0,60.0,40.0,309.93604155732896,[],"[960, 540]",ColorTask,-4.0,110.0,,,HRV,HRV_0006,2022-07-11 15:44:18
,wl-rdm,118,2300289,0.0-6.110-0.110,0.0,102.0,,,,,,,[],,,,False,,,,53.2,1.0,i,1.0,True,762.5999999940395,46.0,60.0,40.0,205.63771275183336,[],"[960, 540]",ColorTask,-3.0,111.0,,,HRV,HRV_0006,2022-07-11 15:44:18
,wl-rdm,119,2302239,0.0-6.111-0.111,0.0,103.0,,,,,,,[],,,,False,,,,87.9,0.0,u,0.0,True,572.4000000059605,35.0,60.0,40.0,284.8296793962774,[],"[960, 540]",ColorTask,-2.0,112.0,,,HRV,HRV_0006,2022-07-11 15:44:18
,wl-rdm,120,2304206,0.0-6.112-0.112,0.0,104.0,,,,,,,[],,,,False,,,,73.6,0.0,i,1.0,False,603.4000000059605,37.0,60.0,40.0,276.66299502965984,[],"[960, 540]",ColorTask,-3.0,113.0,,,HRV,HRV_0006,2022-07-11 15:44:18
,wl-rdm,121,2306739,0.0-6.113-0.113,0.0,105.0,,,,,,,[],,,,False,,,,56.4,0.0,i,1.0,False,1161.4000000059605,70.0,60.0,40.0,296.73981340353487,[],"[960, 540]",ColorTask,-4.0,114.0,,,HRV,HRV_0006,2022-07-11 15:44:18
,wl-rdm,122,2308789,0.0-6.114-0.114,0.0,106.0,,,,,,,[],,,,False,,,,62.5,1.0,u,0.0,False,708.2000000178814,43.0,60.0,40.0,274.1120805142099,[],"[960, 540]",ColorTask,-5.0,115.0,,,HRV,HRV_0006,2022-07-11 15:44:18
,wl-rdm,123,2310889,0.0-6.115-0.115,0.0,107.0,,,,,,,[],,,,False,,,,87.9,1.0,i,1.0,True,809.4000000059605,49.0,60.0,40.0,220.25822665467894,[],"[960, 540]",ColorTask,-4.0,116.0,,,HRV,HRV_0006,2022-07-11 15:44:18
,wl-rdm,124,2312906,0.0-6.116-0.116,0.0,108.0,,,,,,,[],,,,False,,,,53.2,1.0,u,0.0,False,566.0999999940395,34.0,60.0,40.0,392.17990443060023,[],"[960, 540]",ColorTask,-5.0,117.0,,,HRV,HRV_0006,2022-07-11 15:44:18
,wl-rdm,125,2314939,0.0-6.117-0.117,0.0,109.0,,,,,,,[],,,,False,,,,87.9,1.0,i,1.0,True,621.2000000178814,38.0,60.0,40.0,325.3670222043927,[],"[960, 540]",ColorTask,-4.0,118.0,,,HRV,HRV_0006,2022-07-11 15:44:18
,wl-rdm,126,2317056,0.0-6.118-0.118,0.0,110.0,,,,,,,[],,,,False,,,,62.5,1.0,u,0.0,False,804.2999999821186,49.0,60.0,40.0,226.89234361816796,[],"[960, 540]",ColorTask,-5.0,119.0,,,HRV,HRV_0006,2022-07-11 15:44:18
,wl-rdm,127,2319272,0.0-6.119-0.119,0.0,111.0,,,,,,,[],,,,False,,,,62.5,1.0,i,1.0,True,917.6999999880791,56.0,60.0,40.0,208.45116281479378,[],"[960, 540]",ColorTask,-4.0,120.0,,,HRV,HRV_0006,2022-07-11 15:44:18
,wl-rdm,128,2321089,0.0-6.120-0.120,0.0,112.0,,,,,,,[],,,,False,,,,73.6,0.0,i,1.0,False,518.0,32.0,60.0,40.0,202.82890763886454,[],"[960, 540]",ColorTask,-5.0,121.0,,,HRV,HRV_0006,2022-07-11 15:44:18
,wl-rdm,129,2322889,0.0-6.121-0.121,0.0,113.0,,,,,,,[],,,,False,,,,56.4,0.0,i,1.0,False,488.0,30.0,60.0,40.0,238.96147896765558,[],"[960, 540]",ColorTask,-6.0,122.0,,,HRV,HRV_0006,2022-07-11 15:44:18
,wl-rdm,130,2324706,0.0-6.122-0.122,0.0,114.0,,,,,,,[],,,,False,,,,56.4,0.0,i,1.0,False,479.0000000298023,29.0,60.0,40.0,277.6444302164136,[],"[960, 540]",ColorTask,-7.0,123.0,,,HRV,HRV_0006,2022-07-11 15:44:18
,wl-rdm,131,2326506,0.0-6.123-0.123,0.0,115.0,,,,,,,[],,,,False,,,,50.0,0.0,u,0.0,True,486.90000000596046,30.0,60.0,40.0,225.38741667075814,[],"[960, 540]",ColorTask,-6.0,124.0,,,HRV,HRV_0006,2022-07-11 15:44:18
,wl-html-keyboard-response,132,2344040,0.0-7.0-0.0,1.0,115.0,,,,,,,,15528.90000000596,1.0,0,True,undefinedblurEvent ,,,,,,,,,,,,,,,,,,,,HRV,HRV_0006,2022-07-11 15:44:18
,wl-rdm,133,2346211,0.0-8.0-0.0,1.0,116.0,,,,,,,[],,,,False,,,,62.5,0.0,u,0.0,True,817.9000000059605,50.0,60.0,40.0,272.12299194548905,[],"[960, 540]",ColorTask,-5.0,1.0,,,HRV,HRV_0006,2022-07-11 15:44:18
,wl-rdm,134,2348061,0.0-8.1-0.1,1.0,117.0,,,,,,,[],,,,False,,,,56.4,1.0,i,1.0,True,497.09999999403954,30.0,60.0,40.0,284.657717972815,[],"[960, 540]",ColorTask,-4.0,2.0,,,HRV,HRV_0006,2022-07-11 15:44:18
,wl-rdm,135,2352411,0.0-8.2-0.2,1.0,117.0,,,,,,,[],,,,True,RT_timeout ,,,87.9,1.0,,,,,179.0,60.0,40.0,248.22509740724354,[],"[960, 540]",ColorTask,-5.0,3.0,,,HRV,HRV_0006,2022-07-11 15:44:18
,wl-rdm,136,2355211,0.0-8.3-0.3,1.0,118.0,,,,,,,[],,,,False,,,,62.5,0.0,u,0.0,True,1493.8999999761581,90.0,60.0,40.0,232.0605428067996,[],"[960, 540]",ColorTask,-4.0,4.0,,,HRV,HRV_0006,2022-07-11 15:44:18
,wl-rdm,137,2357778,0.0-8.4-0.4,1.0,119.0,,,,,,,[],,,,False,,,,73.6,0.0,i,1.0,False,1121.199999988079,68.0,60.0,40.0,366.96367396918487,[],"[960, 540]",ColorTask,-5.0,5.0,,,HRV,HRV_0006,2022-07-11 15:44:18
,wl-rdm,138,2359578,0.0-8.5-0.5,1.0,120.0,,,,,,,[],,,,False,,,,50.0,0.0,u,0.0,True,515.1999999880791,31.0,60.0,40.0,214.53029057530944,[],"[960, 540]",ColorTask,-4.0,6.0,,,HRV,HRV_0006,2022-07-11 15:44:18
,wl-rdm,139,2359811,0.0-8.6-0.6,1.0,120.0,,,,,,,[232.30000001192093],,,,True,exitFullScreen exitFullScreen ,,,87.9,1.0,,,,,0.0,60.0,40.0,216.3026936245338,[],"[960, 540]",ColorTask,-5.0,7.0,,,HRV,HRV_0006,2022-07-11 15:44:18
,wl-rdm,140,2386038,0.0-8.7-0.7,1.0,120.0,,,,,,,[],,,,True,enterFullScreen blurEvent ,,,50.0,0.0,,,,,0.0,60.0,40.0,205.04038003068644,[],"[None, None]",ColorTask,-6.0,8.0,,,HRV,HRV_0006,2022-07-11 15:44:18
,wl-rdm,141,2388401,0.0-8.8-0.8,1.0,121.0,,,,,,,[],,,,False,,,,53.2,1.0,u,0.0,False,991.9000000059605,60.0,60.0,40.0,304.63973534046215,[],"[960, 540]",ColorTask,-7.0,9.0,,,HRV,HRV_0006,2022-07-11 15:44:18
,wl-rdm,142,2390518,0.0-8.9-0.9,1.0,122.0,,,,,,,[],,,,False,,,,62.5,0.0,i,1.0,False,683.0999999940395,41.0,60.0,40.0,364.4011850655551,[],"[960, 540]",ColorTask,-8.0,10.0,,,HRV,HRV_0006,2022-07-11 15:44:18
,wl-rdm,143,2392834,0.0-8.10-0.10,1.0,123.0,,,,,,,[],,,,False,,,,53.2,0.0,u,0.0,True,939.0999999940395,57.0,60.0,40.0,295.71373799487253,[],"[960, 540]",ColorTask,-7.0,11.0,,,HRV,HRV_0006,2022-07-11 15:44:18
,wl-rdm,144,2395001,0.0-8.11-0.11,1.0,124.0,,,,,,,[],,,,False,,,,73.6,1.0,i,1.0,True,789.0999999940395,48.0,60.0,40.0,298.00251799061283,[],"[960, 540]",ColorTask,-6.0,12.0,,,HRV,HRV_0006,2022-07-11 15:44:18
,wl-rdm,145,2397051,0.0-8.12-0.12,1.0,125.0,,,,,,,[],,,,False,,,,50.0,1.0,u,0.0,False,684.7999999821186,42.0,60.0,40.0,279.5338466057092,[],"[960, 540]",ColorTask,-7.0,13.0,,,HRV,HRV_0006,2022-07-11 15:44:18
,wl-rdm,146,2399151,0.0-8.13-0.13,1.0,126.0,,,,,,,[],,,,False,,,,62.5,1.0,i,1.0,True,722.9000000059605,44.0,60.0,40.0,285.5651402687563,[],"[960, 540]",ColorTask,-6.0,14.0,,,HRV,HRV_0006,2022-07-11 15:44:18
,wl-rdm,147,2401384,0.0-8.14-0.14,1.0,127.0,,,,,,,[],,,,False,,,,50.0,1.0,u,0.0,False,838.6999999880791,51.0,60.0,40.0,324.09287248978325,[],"[960, 540]",ColorTask,-7.0,15.0,,,HRV,HRV_0006,2022-07-11 15:44:18
,wl-rdm,148,2403351,0.0-8.15-0.15,1.0,128.0,,,,,,,[],,,,False,,,,87.9,1.0,i,1.0,True,626.0,38.0,60.0,40.0,251.4851936151028,[],"[960, 540]",ColorTask,-6.0,16.0,,,HRV,HRV_0006,2022-07-11 15:44:18
,wl-rdm,149,2405501,0.0-8.16-0.16,1.0,129.0,,,,,,,[],,,,False,,,,56.4,0.0,u,0.0,True,810.6999999880791,49.0,60.0,40.0,278.6551324239393,[],"[960, 540]",ColorTask,-5.0,17.0,,,HRV,HRV_0006,2022-07-11 15:44:18
,wl-rdm,150,2408034,0.0-8.17-0.17,1.0,130.0,,,,,,,[],,,,False,,,,87.9,1.0,i,1.0,True,1206.0999999940395,73.0,60.0,40.0,256.9468303904682,[],"[960, 540]",ColorTask,-4.0,18.0,,,HRV,HRV_0006,2022-07-11 15:44:18
,wl-rdm,151,2410201,0.0-8.18-0.18,1.0,131.0,,,,,,,[],,,,False,,,,73.6,0.0,i,1.0,False,826.8000000119209,50.0,60.0,40.0,272.7781750247118,[],"[960, 540]",ColorTask,-5.0,19.0,,,HRV,HRV_0006,2022-07-11 15:44:18
,wl-rdm,152,2412534,0.0-8.19-0.19,1.0,132.0,,,,,,,[],,,,False,,,,53.2,0.0,u,0.0,True,1042.9000000059605,63.0,60.0,40.0,213.34665234142673,[],"[960, 540]",ColorTask,-4.0,20.0,,,HRV,HRV_0006,2022-07-11 15:44:18
,wl-rdm,153,2415001,0.0-8.20-0.20,1.0,133.0,,,,,,,[],,,,False,,,,50.0,0.0,i,1.0,False,1006.0999999940395,61.0,60.0,40.0,366.85250996645925,[],"[960, 540]",ColorTask,-5.0,21.0,,,HRV,HRV_0006,2022-07-11 15:44:18
,wl-rdm,154,2417318,0.0-8.21-0.21,1.0,134.0,,,,,,,[],,,,False,,,,87.9,0.0,u,0.0,True,985.9000000059605,60.0,60.0,40.0,258.11666029905007,[],"[960, 540]",ColorTask,-4.0,22.0,,,HRV,HRV_0006,2022-07-11 15:44:18
,wl-rdm,155,2419518,0.0-8.22-0.22,1.0,135.0,,,,,,,[],,,,False,,,,50.0,0.0,i,1.0,False,911.0999999940395,55.0,60.0,40.0,203.84700270514847,[],"[960, 540]",ColorTask,-5.0,23.0,,,HRV,HRV_0006,2022-07-11 15:44:18
,wl-rdm,156,2421917,0.0-8.23-0.23,1.0,136.0,,,,,,,[],,,,False,,,,56.4,1.0,u,0.0,False,995.6999999880791,60.0,60.0,40.0,324.2468465083488,[],"[960, 540]",ColorTask,-6.0,24.0,,,HRV,HRV_0006,2022-07-11 15:44:18
,wl-rdm,157,2424251,0.0-8.24-0.24,1.0,137.0,,,,,,,[],,,,False,,,,50.0,1.0,i,1.0,True,1035.300000011921,63.0,60.0,40.0,210.78206904412104,[],"[960, 540]",ColorTask,-5.0,25.0,,,HRV,HRV_0006,2022-07-11 15:44:18
,wl-rdm,158,2426534,0.0-8.25-0.25,1.0,138.0,,,,,,,[],,,,False,,,,53.2,1.0,u,0.0,False,972.8000000119209,59.0,60.0,40.0,236.64689096357716,[],"[960, 540]",ColorTask,-6.0,26.0,,,HRV,HRV_0006,2022-07-11 15:44:18
,wl-rdm,159,2429217,0.0-8.26-0.26,1.0,139.0,,,,,,,[],,,,False,,,,87.9,1.0,i,1.0,True,1382.0999999940395,83.0,60.0,40.0,234.80844561425778,[],"[960, 540]",ColorTask,-5.0,27.0,,,HRV,HRV_0006,2022-07-11 15:44:18
,wl-rdm,160,2431301,0.0-8.27-0.27,1.0,140.0,,,,,,,[],,,,False,,,,73.6,1.0,u,0.0,False,801.1999999880791,49.0,60.0,40.0,201.81264157659322,[],"[960, 540]",ColorTask,-6.0,28.0,,,HRV,HRV_0006,2022-07-11 15:44:18
,wl-rdm,161,2433584,0.0-8.28-0.28,1.0,141.0,,,,,,,[],,,,False,,,,50.0,0.0,i,1.0,False,957.5999999940395,58.0,60.0,40.0,247.7548894242292,[],"[960, 540]",ColorTask,-7.0,29.0,,,HRV,HRV_0006,2022-07-11 15:44:18
,wl-rdm,162,2436334,0.0-8.29-0.29,1.0,142.0,,,,,,,[],,,,False,,,,53.2,0.0,u,0.0,True,1405.0,85.0,60.0,40.0,271.2584549215909,[],"[960, 540]",ColorTask,-6.0,30.0,,,HRV,HRV_0006,2022-07-11 15:44:18
,wl-rdm,163,2439151,0.0-8.30-0.30,1.0,143.0,,,,,,,[],,,,False,,,,50.0,0.0,i,1.0,False,1351.5000000298023,82.0,60.0,40.0,374.6577662131464,[],"[960, 540]",ColorTask,-7.0,31.0,,,HRV,HRV_0006,2022-07-11 15:44:18
,wl-rdm,164,2441234,0.0-8.31-0.31,1.0,144.0,,,,,,,[],,,,False,,,,53.2,1.0,u,0.0,False,698.5,42.0,60.0,40.0,325.6063999832336,[],"[960, 540]",ColorTask,-8.0,32.0,,,HRV,HRV_0006,2022-07-11 15:44:18
,wl-rdm,165,2443517,0.0-8.32-0.32,1.0,145.0,,,,,,,[],,,,False,,,,87.9,1.0,i,1.0,True,999.2999999821186,60.0,60.0,40.0,211.15544696506464,[],"[960, 540]",ColorTask,-7.0,33.0,,,HRV,HRV_0006,2022-07-11 15:44:18
,wl-rdm,166,2445600,0.0-8.33-0.33,1.0,146.0,,,,,,,[],,,,False,,,,73.6,1.0,u,0.0,False,718.8000000119209,44.0,60.0,40.0,290.20003258568227,[],"[960, 540]",ColorTask,-8.0,34.0,,,HRV,HRV_0006,2022-07-11 15:44:18
,wl-rdm,167,2447700,0.0-8.34-0.34,1.0,147.0,,,,,,,[],,,,False,,,,87.9,1.0,i,1.0,True,696.4000000059605,42.0,60.0,40.0,343.45669411403884,[],"[960, 540]",ColorTask,-7.0,35.0,,,HRV,HRV_0006,2022-07-11 15:44:18
,wl-rdm,168,2449667,0.0-8.35-0.35,1.0,148.0,,,,,,,[],,,,False,,,,87.9,0.0,u,0.0,True,579.0999999940395,35.0,60.0,40.0,330.7215053369677,[],"[960, 540]",ColorTask,-6.0,36.0,,,HRV,HRV_0006,2022-07-11 15:44:18
,wl-rdm,169,2451784,0.0-8.36-0.36,1.0,149.0,,,,,,,[],,,,False,,,,62.5,1.0,i,1.0,True,817.1999999880791,49.0,60.0,40.0,221.419253386262,[],"[960, 540]",ColorTask,-5.0,37.0,,,HRV,HRV_0006,2022-07-11 15:44:18
,wl-rdm,170,2453867,0.0-8.37-0.37,1.0,150.0,,,,,,,[],,,,False,,,,56.4,0.0,i,1.0,False,679.5999999940395,41.0,60.0,40.0,343.4435622277034,[],"[960, 540]",ColorTask,-6.0,38.0,,,HRV,HRV_0006,2022-07-11 15:44:18
,wl-rdm,171,2455901,0.0-8.38-0.38,1.0,151.0,,,,,,,[],,,,False,,,,73.6,1.0,i,1.0,True,741.9000000059605,45.0,60.0,40.0,212.08384928022912,[],"[960, 540]",ColorTask,-5.0,39.0,,,HRV,HRV_0006,2022-07-11 15:44:18
,wl-rdm,172,2458067,0.0-8.39-0.39,1.0,152.0,,,,,,,[],,,,False,,,,73.6,1.0,i,1.0,True,894.0,54.0,60.0,40.0,211.42033799048824,[],"[960, 540]",ColorTask,-4.0,40.0,,,HRV,HRV_0006,2022-07-11 15:44:18
,wl-rdm,173,2460117,0.0-8.40-0.40,1.0,153.0,,,,,,,[],,,,False,,,,73.6,0.0,i,1.0,False,656.3000000119209,40.0,60.0,40.0,325.9347574413632,[],"[960, 540]",ColorTask,-5.0,41.0,,,HRV,HRV_0006,2022-07-11 15:44:18
,wl-rdm,174,2462001,0.0-8.41-0.41,1.0,154.0,,,,,,,[],,,,False,,,,56.4,0.0,i,1.0,False,514.0,31.0,60.0,40.0,313.6025761925995,[],"[960, 540]",ColorTask,-6.0,42.0,,,HRV,HRV_0006,2022-07-11 15:44:18
,wl-rdm,175,2464083,0.0-8.42-0.42,1.0,155.0,,,,,,,[],,,,False,,,,87.9,0.0,i,1.0,False,751.3000000119209,46.0,60.0,40.0,236.26884836937478,[],"[960, 540]",ColorTask,-7.0,43.0,,,HRV,HRV_0006,2022-07-11 15:44:18
,wl-rdm,176,2466151,0.0-8.43-0.43,1.0,156.0,,,,,,,[],,,,False,,,,73.6,0.0,u,0.0,True,690.0999999940395,42.0,60.0,40.0,283.8105637425282,[],"[960, 540]",ColorTask,-6.0,44.0,,,HRV,HRV_0006,2022-07-11 15:44:18
,wl-rdm,177,2468000,0.0-8.44-0.44,1.0,157.0,,,,,,,[],,,,False,,,,62.5,0.0,i,1.0,False,505.19999998807907,31.0,60.0,40.0,281.40472859297665,[],"[960, 540]",ColorTask,-7.0,45.0,,,HRV,HRV_0006,2022-07-11 15:44:18
,wl-rdm,178,2469800,0.0-8.45-0.45,1.0,158.0,,,,,,,[],,,,False,,,,87.9,0.0,u,0.0,True,398.80000001192093,24.0,60.0,40.0,345.94431308499094,[],"[960, 540]",ColorTask,-6.0,46.0,,,HRV,HRV_0006,2022-07-11 15:44:18
,wl-rdm,179,2471717,0.0-8.46-0.46,1.0,159.0,,,,,,,[],,,,False,,,,87.9,0.0,i,1.0,False,605.0,37.0,60.0,40.0,228.44611321196163,[],"[960, 540]",ColorTask,-7.0,47.0,,,HRV,HRV_0006,2022-07-11 15:44:18
,wl-rdm,180,2473750,0.0-8.47-0.47,1.0,160.0,,,,,,,[],,,,False,,,,62.5,1.0,u,0.0,False,607.4999999701977,37.0,60.0,40.0,334.4288526591004,[],"[960, 540]",ColorTask,-8.0,48.0,,,HRV,HRV_0006,2022-07-11 15:44:18
,wl-rdm,181,2475934,0.0-8.48-0.48,1.0,161.0,,,,,,,[],,,,False,,,,53.2,0.0,i,1.0,False,820.0,50.0,60.0,40.0,284.0429867625152,[],"[960, 540]",ColorTask,-9.0,49.0,,,HRV,HRV_0006,2022-07-11 15:44:18
,wl-rdm,182,2478000,0.0-8.49-0.49,1.0,162.0,,,,,,,[],,,,False,,,,50.0,1.0,u,0.0,False,606.9000000059605,37.0,60.0,40.0,394.74624964327427,[],"[960, 540]",ColorTask,-10.0,50.0,,,HRV,HRV_0006,2022-07-11 15:44:18
,wl-rdm,183,2480267,0.0-8.50-0.50,1.0,163.0,,,,,,,[],,,,False,,,,53.2,0.0,i,1.0,False,931.0999999940395,56.0,60.0,40.0,267.187921220201,[],"[960, 540]",ColorTask,-11.0,51.0,,,HRV,HRV_0006,2022-07-11 15:44:18
,wl-rdm,184,2482467,0.0-8.51-0.51,1.0,164.0,,,,,,,[],,,,False,,,,62.5,1.0,u,0.0,False,791.3000000119209,48.0,60.0,40.0,326.2395280075767,[],"[960, 540]",ColorTask,-12.0,52.0,,,HRV,HRV_0006,2022-07-11 15:44:18
,wl-rdm,185,2484817,0.0-8.52-0.52,1.0,165.0,,,,,,,[],,,,False,,,,56.4,1.0,i,1.0,True,1053.8999999761581,64.0,60.0,40.0,201.5861642020285,[],"[960, 540]",ColorTask,-11.0,53.0,,,HRV,HRV_0006,2022-07-11 15:44:18
,wl-rdm,186,2486817,0.0-8.53-0.53,1.0,166.0,,,,,,,[],,,,False,,,,62.5,0.0,u,0.0,True,615.7999999821186,37.0,60.0,40.0,319.18951598433574,[],"[960, 540]",ColorTask,-10.0,54.0,,,HRV,HRV_0006,2022-07-11 15:44:18
,wl-rdm,187,2489034,0.0-8.54-0.54,1.0,167.0,,,,,,,[],,,,False,,,,53.2,0.0,i,1.0,False,872.7000000178814,53.0,60.0,40.0,267.95320673978165,[],"[960, 540]",ColorTask,-11.0,55.0,,,HRV,HRV_0006,2022-07-11 15:44:18
,wl-rdm,188,2492017,0.0-8.55-0.55,1.0,168.0,,,,,,,[],,,,False,,,,62.5,1.0,i,1.0,True,1673.0,101.0,60.0,40.0,238.3238848077548,[],"[960, 540]",ColorTask,-10.0,56.0,,,HRV,HRV_0006,2022-07-11 15:44:18
,wl-rdm,189,2494234,0.0-8.56-0.56,1.0,169.0,,,,,,,[],,,,False,,,,62.5,1.0,i,1.0,True,904.1999999880791,55.0,60.0,40.0,224.3229335790766,[],"[960, 540]",ColorTask,-9.0,57.0,,,HRV,HRV_0006,2022-07-11 15:44:18
,wl-rdm,190,2496317,0.0-8.57-0.57,1.0,170.0,,,,,,,[],,,,False,,,,53.2,1.0,u,0.0,False,659.6999999880791,40.0,60.0,40.0,333.4083922927175,[],"[960, 540]",ColorTask,-10.0,58.0,,,HRV,HRV_0006,2022-07-11 15:44:18
,wl-rdm,191,2499117,0.0-8.58-0.58,1.0,171.0,,,,,,,[],,,,False,,,,87.9,0.0,i,1.0,False,1507.300000011921,91.0,60.0,40.0,224.44527437901152,[],"[960, 540]",ColorTask,-11.0,59.0,,,HRV,HRV_0006,2022-07-11 15:44:18
,wl-rdm,192,2501067,0.0-8.59-0.59,1.0,172.0,,,,,,,[],,,,False,,,,56.4,0.0,u,0.0,True,491.90000000596046,30.0,60.0,40.0,394.52736282861895,[],"[960, 540]",ColorTask,-10.0,60.0,,,HRV,HRV_0006,2022-07-11 15:44:18
,wl-rdm,193,2503251,0.0-8.60-0.60,1.0,173.0,,,,,,,[],,,,False,,,,73.6,1.0,u,0.0,False,857.7000000178814,52.0,60.0,40.0,238.18067530520048,[],"[960, 540]",ColorTask,-11.0,61.0,,,HRV,HRV_0006,2022-07-11 15:44:18
,wl-rdm,194,2505267,0.0-8.61-0.61,1.0,174.0,,,,,,,[],,,,False,,,,73.6,0.0,i,1.0,False,739.3000000119209,45.0,60.0,40.0,212.00956139585722,[],"[960, 540]",ColorTask,-12.0,62.0,,,HRV,HRV_0006,2022-07-11 15:44:18
,wl-rdm,195,2507367,0.0-8.62-0.62,1.0,175.0,,,,,,,[],,,,False,,,,73.6,1.0,u,0.0,False,754.0999999940395,47.0,60.0,40.0,256.6473662687211,[],"[960, 540]",ColorTask,-13.0,63.0,,,HRV,HRV_0006,2022-07-11 15:44:18
,wl-rdm,196,2509667,0.0-8.63-0.63,1.0,176.0,,,,,,,[],,,,False,,,,62.5,1.0,u,0.0,False,855.5999999940395,52.0,60.0,40.0,363.38934132350596,[],"[960, 540]",ColorTask,-14.0,64.0,,,HRV,HRV_0006,2022-07-11 15:44:18
,wl-rdm,197,2511684,0.0-8.64-0.64,1.0,177.0,,,,,,,[],,,,False,,,,56.4,1.0,i,1.0,True,654.0999999940395,40.0,60.0,40.0,296.96904221730176,[],"[960, 540]",ColorTask,-13.0,65.0,,,HRV,HRV_0006,2022-07-11 15:44:18
,wl-rdm,198,2513700,0.0-8.65-0.65,1.0,178.0,,,,,,,[],,,,False,,,,50.0,1.0,u,0.0,False,744.9000000059605,45.0,60.0,40.0,215.09702138428378,[],"[960, 540]",ColorTask,-14.0,66.0,,,HRV,HRV_0006,2022-07-11 15:44:18
,wl-rdm,199,2515867,0.0-8.66-0.66,1.0,179.0,,,,,,,[],,,,False,,,,56.4,0.0,u,0.0,True,874.8000000119209,53.0,60.0,40.0,205.29109122044161,[],"[960, 540]",ColorTask,-13.0,67.0,,,HRV,HRV_0006,2022-07-11 15:44:18
,wl-rdm,200,2518034,0.0-8.67-0.67,1.0,180.0,,,,,,,[],,,,False,,,,50.0,1.0,u,0.0,False,808.5,49.0,60.0,40.0,270.64978987837185,[],"[960, 540]",ColorTask,-14.0,68.0,,,HRV,HRV_0006,2022-07-11 15:44:18
,wl-rdm,201,2520017,0.0-8.68-0.68,1.0,181.0,,,,,,,[],,,,False,,,,73.6,1.0,i,1.0,True,625.3999999761581,38.0,60.0,40.0,292.91266372554026,[],"[960, 540]",ColorTask,-13.0,69.0,,,HRV,HRV_0006,2022-07-11 15:44:18
,wl-rdm,202,2521700,0.0-8.69-0.69,1.0,182.0,,,,,,,[],,,,False,,,,56.4,1.0,u,0.0,False,314.7000000178814,19.0,60.0,40.0,311.59961603413177,[],"[960, 540]",ColorTask,-14.0,70.0,,,HRV,HRV_0006,2022-07-11 15:44:18
,wl-rdm,203,2523450,0.0-8.70-0.70,1.0,183.0,,,,,,,[],,,,False,,,,62.5,0.0,i,1.0,False,354.5,22.0,60.0,40.0,322.0319230802907,[],"[960, 540]",ColorTask,-15.0,71.0,,,HRV,HRV_0006,2022-07-11 15:44:18
,wl-rdm,204,2525200,0.0-8.71-0.71,1.0,184.0,,,,,,,[],,,,False,,,,87.9,0.0,u,0.0,True,446.7000000178814,27.0,60.0,40.0,238.72613113717077,[],"[960, 540]",ColorTask,-14.0,72.0,,,HRV,HRV_0006,2022-07-11 15:44:18
,wl-rdm,205,2527017,0.0-8.72-0.72,1.0,185.0,,,,,,,[],,,,False,,,,50.0,1.0,i,1.0,True,416.5,26.0,60.0,40.0,309.8767257618645,[],"[960, 540]",ColorTask,-13.0,73.0,,,HRV,HRV_0006,2022-07-11 15:44:18
,wl-rdm,206,2528867,0.0-8.73-0.73,1.0,186.0,,,,,,,[],,,,False,,,,73.6,1.0,u,0.0,False,475.40000000596046,29.0,60.0,40.0,313.86254916568083,[],"[960, 540]",ColorTask,-14.0,74.0,,,HRV,HRV_0006,2022-07-11 15:44:18
,wl-rdm,207,2530700,0.0-8.74-0.74,1.0,187.0,,,,,,,[],,,,False,,,,50.0,0.0,i,1.0,False,505.30000001192093,31.0,60.0,40.0,249.1891601750694,[],"[960, 540]",ColorTask,-15.0,75.0,,,HRV,HRV_0006,2022-07-11 15:44:18
,wl-rdm,208,2532551,0.0-8.75-0.75,1.0,188.0,,,,,,,[],,,,False,,,,62.5,0.0,u,0.0,True,564.5,34.0,60.0,40.0,205.31552400845644,[],"[960, 540]",ColorTask,-14.0,76.0,,,HRV,HRV_0006,2022-07-11 15:44:18
,wl-rdm,209,2534401,0.0-8.76-0.76,1.0,189.0,,,,,,,[],,,,False,,,,62.5,1.0,i,1.0,True,436.59999999403954,27.0,60.0,40.0,319.82634995305625,[],"[960, 540]",ColorTask,-13.0,77.0,,,HRV,HRV_0006,2022-07-11 15:44:18
,wl-rdm,210,2536484,0.0-8.77-0.77,1.0,190.0,,,,,,,[],,,,False,,,,50.0,1.0,u,0.0,False,674.1000000238419,41.0,60.0,40.0,317.6778161704281,[],"[960, 540]",ColorTask,-14.0,78.0,,,HRV,HRV_0006,2022-07-11 15:44:18
,wl-rdm,211,2538384,0.0-8.78-0.78,1.0,191.0,,,,,,,[],,,,False,,,,87.9,1.0,i,1.0,True,530.0,32.0,60.0,40.0,289.9365782113713,[],"[960, 540]",ColorTask,-13.0,79.0,,,HRV,HRV_0006,2022-07-11 15:44:18
,wl-rdm,212,2540051,0.0-8.79-0.79,1.0,192.0,,,,,,,[],,,,False,,,,53.2,1.0,u,0.0,False,376.09999999403954,23.0,60.0,40.0,208.2247127554546,[],"[960, 540]",ColorTask,-14.0,80.0,,,HRV,HRV_0006,2022-07-11 15:44:18
,wl-rdm,213,2541917,0.0-8.80-0.80,1.0,193.0,,,,,,,[],,,,False,,,,50.0,0.0,u,0.0,True,488.19999998807907,30.0,60.0,40.0,298.3748053503173,[],"[960, 540]",ColorTask,-13.0,81.0,,,HRV,HRV_0006,2022-07-11 15:44:18
,wl-rdm,214,2543800,0.0-8.81-0.81,1.0,194.0,,,,,,,[],,,,False,,,,56.4,0.0,u,0.0,True,601.0,37.0,60.0,40.0,214.03548941252114,[],"[960, 540]",ColorTask,-12.0,82.0,,,HRV,HRV_0006,2022-07-11 15:44:18
,wl-rdm,215,2545601,0.0-8.82-0.82,1.0,195.0,,,,,,,[],,,,False,,,,62.5,0.0,i,1.0,False,477.9999999701977,29.0,60.0,40.0,250.96321784670317,[],"[960, 540]",ColorTask,-13.0,83.0,,,HRV,HRV_0006,2022-07-11 15:44:18
,wl-rdm,216,2547650,0.0-8.83-0.83,1.0,196.0,,,,,,,[],,,,False,,,,53.2,1.0,i,1.0,True,697.3999999761581,42.0,60.0,40.0,272.9380783628148,[],"[960, 540]",ColorTask,-12.0,84.0,,,HRV,HRV_0006,2022-07-11 15:44:18
,wl-rdm,217,2549583,0.0-8.84-0.84,1.0,197.0,,,,,,,[],,,,False,,,,56.4,0.0,i,1.0,False,653.9000000059605,40.0,60.0,40.0,200.16650910159066,[],"[960, 540]",ColorTask,-13.0,85.0,,,HRV,HRV_0006,2022-07-11 15:44:18
,wl-rdm,218,2551683,0.0-8.85-0.85,1.0,198.0,,,,,,,[],,,,False,,,,62.5,0.0,i,1.0,False,626.6999999880791,38.0,60.0,40.0,383.75029903203995,[],"[960, 540]",ColorTask,-14.0,86.0,,,HRV,HRV_0006,2022-07-11 15:44:18
,wl-rdm,219,2553650,0.0-8.86-0.86,1.0,199.0,,,,,,,[],,,,False,,,,53.2,0.0,i,1.0,False,554.2000000178814,34.0,60.0,40.0,321.49853171170594,[],"[960, 540]",ColorTask,-15.0,87.0,,,HRV,HRV_0006,2022-07-11 15:44:18
,wl-rdm,220,2555700,0.0-8.87-0.87,1.0,200.0,,,,,,,[],,,,False,,,,50.0,0.0,i,1.0,False,590.7999999821186,36.0,60.0,40.0,381.29613836179993,[],"[960, 540]",ColorTask,-16.0,88.0,,,HRV,HRV_0006,2022-07-11 15:44:18
,wl-rdm,221,2558267,0.0-8.88-0.88,1.0,201.0,,,,,,,[],,,,False,,,,56.4,0.0,i,1.0,False,1280.2999999821186,77.0,60.0,40.0,229.6586314198211,[],"[960, 540]",ColorTask,-17.0,89.0,,,HRV,HRV_0006,2022-07-11 15:44:18
,wl-rdm,222,2560367,0.0-8.89-0.89,1.0,202.0,,,,,,,[],,,,False,,,,87.9,0.0,i,1.0,False,676.7000000476837,41.0,60.0,40.0,344.8458199442253,[],"[960, 540]",ColorTask,-18.0,90.0,,,HRV,HRV_0006,2022-07-11 15:44:18
,wl-rdm,223,2562667,0.0-8.90-0.90,1.0,203.0,,,,,,,[],,,,False,,,,73.6,0.0,i,1.0,False,875.1999999880791,53.0,60.0,40.0,353.52647106500126,[],"[960, 540]",ColorTask,-19.0,91.0,,,HRV,HRV_0006,2022-07-11 15:44:18
,wl-rdm,224,2564850,0.0-8.91-0.91,1.0,204.0,,,,,,,[],,,,False,,,,87.9,1.0,i,1.0,True,810.7999999821186,49.0,60.0,40.0,315.09429713207567,[],"[960, 540]",ColorTask,-18.0,92.0,,,HRV,HRV_0006,2022-07-11 15:44:18
,wl-rdm,225,2567183,0.0-8.92-0.92,1.0,205.0,,,,,,,[],,,,False,,,,87.9,1.0,i,1.0,True,960.5999999940395,58.0,60.0,40.0,298.6416759161848,[],"[960, 540]",ColorTask,-17.0,93.0,,,HRV,HRV_0006,2022-07-11 15:44:18
,wl-rdm,226,2569517,0.0-8.93-0.93,1.0,206.0,,,,,,,[],,,,False,,,,56.4,1.0,i,1.0,True,946.1999999880791,57.0,60.0,40.0,306.03523735946635,[],"[960, 540]",ColorTask,-16.0,94.0,,,HRV,HRV_0006,2022-07-11 15:44:18
,wl-rdm,227,2571384,0.0-8.94-0.94,1.0,207.0,,,,,,,[],,,,False,,,,87.9,0.0,i,1.0,False,485.69999998807907,30.0,60.0,40.0,316.22910226813195,[],"[960, 540]",ColorTask,-17.0,95.0,,,HRV,HRV_0006,2022-07-11 15:44:18
,wl-rdm,228,2573400,0.0-8.95-0.95,1.0,208.0,,,,,,,[],,,,False,,,,73.6,0.0,i,1.0,False,731.2000000178814,44.0,60.0,40.0,224.27881442514433,[],"[960, 540]",ColorTask,-18.0,96.0,,,HRV,HRV_0006,2022-07-11 15:44:18
,wl-rdm,229,2575300,0.0-8.96-0.96,1.0,209.0,,,,,,,[],,,,False,,,,62.5,1.0,i,1.0,True,628.4000000357628,38.0,60.0,40.0,214.43482493923193,[],"[960, 540]",ColorTask,-17.0,97.0,,,HRV,HRV_0006,2022-07-11 15:44:18
,wl-rdm,230,2577284,0.0-8.97-0.97,1.0,210.0,,,,,,,[],,,,False,,,,56.4,1.0,i,1.0,True,682.9000000059605,41.0,60.0,40.0,230.01944526348066,[],"[960, 540]",ColorTask,-16.0,98.0,,,HRV,HRV_0006,2022-07-11 15:44:18
,wl-rdm,231,2579384,0.0-8.98-0.98,1.0,211.0,,,,,,,[],,,,False,,,,50.0,1.0,i,1.0,True,732.8000000417233,44.0,60.0,40.0,302.50153522631354,[],"[960, 540]",ColorTask,-15.0,99.0,,,HRV,HRV_0006,2022-07-11 15:44:18
,wl-rdm,232,2581417,0.0-8.99-0.99,1.0,212.0,,,,,,,[],,,,False,,,,56.4,1.0,i,1.0,True,745.6999999880791,45.0,60.0,40.0,211.79527618290587,[],"[960, 540]",ColorTask,-14.0,100.0,,,HRV,HRV_0006,2022-07-11 15:44:18
,wl-rdm,233,2583267,0.0-8.100-0.100,1.0,213.0,,,,,,,[],,,,False,,,,53.2,1.0,i,1.0,True,455.2000000476837,28.0,60.0,40.0,303.34923998997886,[],"[960, 540]",ColorTask,-13.0,101.0,,,HRV,HRV_0006,2022-07-11 15:44:18
,wl-rdm,234,2585600,0.0-8.101-0.101,1.0,214.0,,,,,,,[],,,,False,,,,53.2,1.0,i,1.0,True,1015.6999999880791,61.0,60.0,40.0,255.95319347736483,[],"[960, 540]",ColorTask,-12.0,102.0,,,HRV,HRV_0006,2022-07-11 15:44:18
,wl-rdm,235,2587667,0.0-8.102-0.102,1.0,215.0,,,,,,,[],,,,False,,,,56.4,1.0,i,1.0,True,657.5,40.0,60.0,40.0,348.2850775122739,[],"[960, 540]",ColorTask,-11.0,103.0,,,HRV,HRV_0006,2022-07-11 15:44:18
,wl-rdm,236,2589634,0.0-8.103-0.103,1.0,216.0,,,,,,,[],,,,False,,,,73.6,0.0,i,1.0,False,534.6999999880791,33.0,60.0,40.0,360.6473507711035,[],"[960, 540]",ColorTask,-12.0,104.0,,,HRV,HRV_0006,2022-07-11 15:44:18
,wl-rdm,237,2591367,0.0-8.104-0.104,1.0,217.0,,,,,,,[],,,,False,,,,56.4,0.0,i,1.0,False,301.09999999403954,19.0,60.0,40.0,357.3174410037627,[],"[960, 540]",ColorTask,-13.0,105.0,,,HRV,HRV_0006,2022-07-11 15:44:18
,wl-rdm,238,2593567,0.0-8.105-0.105,1.0,218.0,,,,,,,[],,,,False,,,,50.0,0.0,i,1.0,False,811.5999999940395,49.0,60.0,40.0,307.53874430044687,[],"[960, 540]",ColorTask,-14.0,106.0,,,HRV,HRV_0006,2022-07-11 15:44:18
,wl-rdm,239,2595484,0.0-8.106-0.106,1.0,219.0,,,,,,,[],,,,False,,,,73.6,0.0,i,1.0,False,632.5000000298023,38.0,60.0,40.0,218.48273583210332,[],"[960, 540]",ColorTask,-15.0,107.0,,,HRV,HRV_0006,2022-07-11 15:44:18
,wl-rdm,240,2598467,0.0-8.107-0.107,1.0,220.0,,,,,,,[],,,,False,,,,53.2,0.0,i,1.0,False,1701.1000000238419,103.0,60.0,40.0,207.53296069299188,[],"[960, 540]",ColorTask,-16.0,108.0,,,HRV,HRV_0006,2022-07-11 15:44:18
,wl-rdm,241,2600301,0.0-8.108-0.108,1.0,221.0,,,,,,,[],,,,False,,,,53.2,1.0,u,0.0,False,485.09999999403954,30.0,60.0,40.0,259.03945033309964,[],"[960, 540]",ColorTask,-17.0,109.0,,,HRV,HRV_0006,2022-07-11 15:44:18
,wl-rdm,242,2602317,0.0-8.109-0.109,1.0,222.0,,,,,,,[],,,,False,,,,87.9,1.0,i,1.0,True,585.9999999701977,36.0,60.0,40.0,337.6942699470876,[],"[960, 540]",ColorTask,-16.0,110.0,,,HRV,HRV_0006,2022-07-11 15:44:18
,wl-rdm,243,2604217,0.0-8.110-0.110,1.0,223.0,,,,,,,[],,,,False,,,,53.2,0.0,u,0.0,True,599.4000000059605,36.0,60.0,40.0,223.02112531785352,[],"[960, 540]",ColorTask,-15.0,111.0,,,HRV,HRV_0006,2022-07-11 15:44:18
,wl-html-button-response,244,2608547,0.0-9.0-0.0,,,,,,,,,,4327.100000023842,,0,,,,,,,,,,,,,,,,,,,,<h3>End of this session. Thank you!</h3><br>,['Close window'],HRV,HRV_0006,2022-07-11 15:44:18
