trialN,stimuli,trialStartTime,trialStartTime_UNIX,stimulus1,stimulus2,stimulus1Bid,stimulus2Bid,delta,selected,rsp,rt,rt_UNIX,receivedResponse,trialEndTime,trialDuration,trialEndTime_UNIX,trialDuration_UNIX,rt_perfnow,exp,subjectId,date
0,"[{'imgObject': {}, 'id': 'cocktailshrimp', 'src': '/static/foodstim60/cocktailshrimp.jpg', 'key': 'u', 'origWidth': 410, 'origHeight': 410, 'width': 410, 'height': 410, 'widthPercent': 0.45, 'rescaleHeight': False, 'trialN': 0, 'loaded': True, 'loadedTime': 2379.0999999940395, 'positionName': 'LEFT', 'positionCoords': [511.6, 335], 'bid': 9.61}, {'imgObject': {}, 'id': 'granola w milk', 'src': '/static/foodstim60/granola w milk.jpg', 'key': 'i', 'origWidth': 410, 'origHeight': 410, 'width': 410, 'height': 410, 'widthPercent': 0.45, 'rescaleHeight': False, 'trialN': 0, 'loaded': True, 'loadedTime': 2420.4000000059605, 'positionName': 'RIGHT', 'positionCoords': [998.4, 335], 'bid': 9.16}]",3440.199999988079,1657559425718,cocktailshrimp,granola w milk,9.61,9.16,-0.4499999999999993,NaN,NaN,NaN,NaN,False,7477.799999982119,4037.5999999940395,1657559429756,4038,,HRV,HRV_0006,2022-07-11 13:20:23
1,"[{'imgObject': {}, 'id': 'baked potato', 'src': '/static/foodstim60/baked potato.jpg', 'key': 'u', 'origWidth': 409, 'origHeight': 410, 'width': 409, 'height': 410, 'widthPercent': 0.45, 'rescaleHeight': False, 'trialN': 1, 'loaded': True, 'loadedTime': 2500.2999999821186, 'positionName': 'LEFT', 'positionCoords': [512.6, 335], 'bid': 5.08}, {'imgObject': {}, 'id': 'mango', 'src': '/static/foodstim60/mango.jpg', 'key': 'i', 'origWidth': 411, 'origHeight': 411, 'width': 411, 'height': 411, 'widthPercent': 0.45, 'rescaleHeight': False, 'trialN': 1, 'loaded': True, 'loadedTime': 2595.7999999821186, 'positionName': 'RIGHT', 'positionCoords': [998.4, 334.5], 'bid': 2.62}]",7478.0999999940395,1657559429756,baked potato,mango,5.08,2.62,-2.46,NaN,NaN,NaN,NaN,False,11492.199999988079,4014.0999999940395,1657559433770,4014,,HRV,HRV_0006,2022-07-11 13:20:23
2,"[{'imgObject': {}, 'id': 'tacos', 'src': '/static/foodstim60/tacos.jpg', 'key': 'u', 'origWidth': 411, 'origHeight': 411, 'width': 411, 'height': 411, 'widthPercent': 0.45, 'rescaleHeight': False, 'trialN': 2, 'loaded': True, 'loadedTime': 2616.7999999821186, 'positionName': 'LEFT', 'positionCoords': [510.6, 334.5], 'bid': 6.5200000000000005}, {'imgObject': {}, 'id': 'rigatoni', 'src': '/static/foodstim60/rigatoni.jpg', 'key': 'i', 'origWidth': 411, 'origHeight': 411, 'width': 411, 'height': 411, 'widthPercent': 0.45, 'rescaleHeight': False, 'trialN': 2, 'loaded': True, 'loadedTime': 2660, 'positionName': 'RIGHT', 'positionCoords': [998.4, 334.5], 'bid': 5.79}]",11492.40000000596,1657559433771,tacos,rigatoni,6.5200000000000005,5.79,-0.7300000000000004,NaN,NaN,NaN,NaN,False,15515.5,4023.0999999940395,1657559437794,4023,,HRV,HRV_0006,2022-07-11 13:20:23
3,"[{'imgObject': {}, 'id': 'seaweed', 'src': '/static/foodstim60/seaweed.jpg', 'key': 'u', 'origWidth': 410, 'origHeight': 410, 'width': 410, 'height': 410, 'widthPercent': 0.45, 'rescaleHeight': False, 'trialN': 3, 'loaded': True, 'loadedTime': 2733.199999988079, 'positionName': 'LEFT', 'positionCoords': [511.6, 335], 'bid': 8.63}, {'imgObject': {}, 'id': 'baked potato', 'src': '/static/foodstim60/baked potato.jpg', 'key': 'i', 'origWidth': 409, 'origHeight': 410, 'width': 409, 'height': 410, 'widthPercent': 0.45, 'rescaleHeight': False, 'trialN': 3, 'loaded': True, 'loadedTime': 2466.7999999821186, 'positionName': 'RIGHT', 'positionCoords': [998.4, 335], 'bid': 5.08}]",15515.90000000596,1657559437795,seaweed,baked potato,8.63,5.08,-3.5500000000000007,NaN,NaN,NaN,NaN,False,19541.0,4025.0999999940395,1657559441820,4025,,HRV,HRV_0006,2022-07-11 13:20:23
4,"[{'imgObject': {}, 'id': 'sweetpotato', 'src': '/static/foodstim60/sweetpotato.jpg', 'key': 'u', 'origWidth': 410, 'origHeight': 410, 'width': 410, 'height': 410, 'widthPercent': 0.45, 'rescaleHeight': False, 'trialN': 4, 'loaded': True, 'loadedTime': 2501.0999999940395, 'positionName': 'LEFT', 'positionCoords': [511.6, 335], 'bid': 1.02}, {'imgObject': {}, 'id': 'lox', 'src': '/static/foodstim60/lox.jpg', 'key': 'i', 'origWidth': 410, 'origHeight': 411, 'width': 410, 'height': 411, 'widthPercent': 0.45, 'rescaleHeight': False, 'trialN': 4, 'loaded': True, 'loadedTime': 2576.4000000059605, 'positionName': 'RIGHT', 'positionCoords': [998.4, 334.5], 'bid': 1.44}]",19541.29999998212,1657559441820,sweetpotato,lox,1.02,1.44,0.41999999999999993,NaN,NaN,NaN,NaN,False,23556.0,4014.7000000178814,1657559445835,4015,,HRV,HRV_0006,2022-07-11 13:20:23
5,"[{'imgObject': {}, 'id': 'burrito', 'src': '/static/foodstim60/burrito.jpg', 'key': 'u', 'origWidth': 410, 'origHeight': 410, 'width': 410, 'height': 410, 'widthPercent': 0.45, 'rescaleHeight': False, 'trialN': 5, 'loaded': True, 'loadedTime': 2697.5, 'positionName': 'LEFT', 'positionCoords': [511.6, 335], 'bid': 3.16}, {'imgObject': {}, 'id': 'hashbrowns', 'src': '/static/foodstim60/hashbrowns.jpg', 'key': 'i', 'origWidth': 411, 'origHeight': 410, 'width': 411, 'height': 410, 'widthPercent': 0.45, 'rescaleHeight': False, 'trialN': 5, 'loaded': True, 'loadedTime': 2752.5, 'positionName': 'RIGHT', 'positionCoords': [998.4, 335], 'bid': 6.96}]",23556.29999998212,1657559445835,burrito,hashbrowns,3.16,6.96,3.8,NaN,NaN,NaN,NaN,False,27585.59999999404,4029.300000011921,1657559449864,4029,,HRV,HRV_0006,2022-07-11 13:20:23
6,"[{'imgObject': {}, 'id': 'Grapes', 'src': '/static/foodstim60/Grapes.jpg', 'key': 'u', 'origWidth': 411, 'origHeight': 411, 'width': 411, 'height': 411, 'widthPercent': 0.45, 'rescaleHeight': False, 'trialN': 6, 'loaded': True, 'loadedTime': 2788.699999988079, 'positionName': 'LEFT', 'positionCoords': [510.6, 334.5], 'bid': 7.52}, {'imgObject': {}, 'id': 'mashed potato', 'src': '/static/foodstim60/mashed potato.jpg', 'key': 'i', 'origWidth': 409, 'origHeight': 409, 'width': 409, 'height': 409, 'widthPercent': 0.45, 'rescaleHeight': False, 'trialN': 6, 'loaded': True, 'loadedTime': 2805.9000000059605, 'positionName': 'RIGHT', 'positionCoords': [998.4, 335.5], 'bid': 9.39}]",27585.79999998212,1657559449865,Grapes,mashed potato,7.52,9.39,1.870000000000001,NaN,NaN,NaN,NaN,False,31589.09999999404,4003.300000011921,1657559453868,4003,,HRV,HRV_0006,2022-07-11 13:20:23
7,"[{'imgObject': {}, 'id': 'steak', 'src': '/static/foodstim60/steak.jpg', 'key': 'u', 'origWidth': 410, 'origHeight': 410, 'width': 410, 'height': 410, 'widthPercent': 0.45, 'rescaleHeight': False, 'trialN': 7, 'loaded': True, 'loadedTime': 2839.699999988079, 'positionName': 'LEFT', 'positionCoords': [511.6, 335], 'bid': 4.64}, {'imgObject': {}, 'id': 'yogurt no spoon', 'src': '/static/foodstim60/yogurt no spoon.jpg', 'key': 'i', 'origWidth': 411, 'origHeight': 410, 'width': 411, 'height': 410, 'widthPercent': 0.45, 'rescaleHeight': False, 'trialN': 7, 'loaded': True, 'loadedTime': 2861.2999999821186, 'positionName': 'RIGHT', 'positionCoords': [998.4, 335], 'bid': 2.16}]",31589.29999998212,1657559453868,steak,yogurt no spoon,4.64,2.16,-2.4799999999999995,NaN,NaN,NaN,NaN,False,35602.90000000596,4013.600000023842,1657559457882,4014,,HRV,HRV_0006,2022-07-11 13:20:23
8,"[{'imgObject': {}, 'id': 'luckycharms', 'src': '/static/foodstim60/luckycharms.jpg', 'key': 'u', 'origWidth': 410, 'origHeight': 409, 'width': 410, 'height': 409, 'widthPercent': 0.45, 'rescaleHeight': False, 'trialN': 8, 'loaded': True, 'loadedTime': 2861.7999999821186, 'positionName': 'LEFT', 'positionCoords': [511.6, 335.5], 'bid': 8.11}, {'imgObject': {}, 'id': 'burger', 'src': '/static/foodstim60/burger.jpg', 'key': 'i', 'origWidth': 409, 'origHeight': 409, 'width': 409, 'height': 409, 'widthPercent': 0.45, 'rescaleHeight': False, 'trialN': 8, 'loaded': True, 'loadedTime': 2869.0999999940395, 'positionName': 'RIGHT', 'positionCoords': [998.4, 335.5], 'bid': 8.43}]",35603.09999999404,1657559457882,luckycharms,burger,8.11,8.43,0.3200000000000003,NaN,NaN,NaN,NaN,False,39617.5,4014.4000000059605,1657559461896,4014,,HRV,HRV_0006,2022-07-11 13:20:23
9,"[{'imgObject': {}, 'id': 'kiwi', 'src': '/static/foodstim60/kiwi.jpg', 'key': 'u', 'origWidth': 410, 'origHeight': 410, 'width': 410, 'height': 410, 'widthPercent': 0.45, 'rescaleHeight': False, 'trialN': 9, 'loaded': True, 'loadedTime': 2870.5, 'positionName': 'LEFT', 'positionCoords': [511.6, 335], 'bid': 7.91}, {'imgObject': {}, 'id': 'salad w chicken', 'src': '/static/foodstim60/salad w chicken.jpg', 'key': 'i', 'origWidth': 411, 'origHeight': 411, 'width': 411, 'height': 411, 'widthPercent': 0.45, 'rescaleHeight': False, 'trialN': 9, 'loaded': True, 'loadedTime': 2888.9000000059605, 'positionName': 'RIGHT', 'positionCoords': [998.4, 334.5], 'bid': 7.85}]",39617.69999998808,1657559461897,kiwi,salad w chicken,7.91,7.85,-0.0600000000000005,NaN,NaN,NaN,NaN,False,43629.59999999404,4011.9000000059605,1657559465908,4011,,HRV,HRV_0006,2022-07-11 13:20:23
10,"[{'imgObject': {}, 'id': 'raisin bran w milk', 'src': '/static/foodstim60/raisin bran w milk.jpg', 'key': 'u', 'origWidth': 411, 'origHeight': 411, 'width': 411, 'height': 411, 'widthPercent': 0.45, 'rescaleHeight': False, 'trialN': 10, 'loaded': True, 'loadedTime': 2923.5, 'positionName': 'LEFT', 'positionCoords': [510.6, 334.5], 'bid': 3.69}, {'imgObject': {}, 'id': 'roastedpotatoes', 'src': '/static/foodstim60/roastedpotatoes.jpg', 'key': 'i', 'origWidth': 409, 'origHeight': 410, 'width': 409, 'height': 410, 'widthPercent': 0.45, 'rescaleHeight': False, 'trialN': 10, 'loaded': True, 'loadedTime': 2939.9000000059605, 'positionName': 'RIGHT', 'positionCoords': [998.4, 335], 'bid': 0.9}]",43629.90000000596,1657559465909,raisin bran w milk,roastedpotatoes,3.69,0.9,-2.79,NaN,NaN,NaN,NaN,False,47635.59999999404,4005.699999988079,1657559469914,4005,,HRV,HRV_0006,2022-07-11 13:20:23
11,"[{'imgObject': {}, 'id': 'ice cream sundae 002', 'src': '/static/foodstim60/ice cream sundae 002.jpg', 'key': 'u', 'origWidth': 409, 'origHeight': 409, 'width': 409, 'height': 409, 'widthPercent': 0.45, 'rescaleHeight': False, 'trialN': 11, 'loaded': True, 'loadedTime': 2958.199999988079, 'positionName': 'LEFT', 'positionCoords': [512.6, 335.5], 'bid': 6.83}, {'imgObject': {}, 'id': 'seaweed', 'src': '/static/foodstim60/seaweed.jpg', 'key': 'i', 'origWidth': 410, 'origHeight': 410, 'width': 410, 'height': 410, 'widthPercent': 0.45, 'rescaleHeight': False, 'trialN': 11, 'loaded': True, 'loadedTime': 2733.199999988079, 'positionName': 'RIGHT', 'positionCoords': [998.4, 335], 'bid': 8.63}]",47635.90000000596,1657559469915,ice cream sundae 002,seaweed,6.83,8.63,1.8000000000000007,NaN,NaN,NaN,NaN,False,51659.69999998808,4023.7999999821186,1657559473939,4024,,HRV,HRV_0006,2022-07-11 13:20:23
12,"[{'imgObject': {}, 'id': 'mashed potato', 'src': '/static/foodstim60/mashed potato.jpg', 'key': 'u', 'origWidth': 409, 'origHeight': 409, 'width': 409, 'height': 409, 'widthPercent': 0.45, 'rescaleHeight': False, 'trialN': 12, 'loaded': True, 'loadedTime': 2806.0999999940395, 'positionName': 'LEFT', 'positionCoords': [512.6, 335.5], 'bid': 9.39}, {'imgObject': {}, 'id': 'orange slices', 'src': '/static/foodstim60/orange slices.jpg', 'key': 'i', 'origWidth': 409, 'origHeight': 410, 'width': 409, 'height': 410, 'widthPercent': 0.45, 'rescaleHeight': False, 'trialN': 12, 'loaded': True, 'loadedTime': 2998.0999999940395, 'positionName': 'RIGHT', 'positionCoords': [998.4, 335], 'bid': 7.92}]",51659.90000000596,1657559473939,mashed potato,orange slices,9.39,7.92,-1.4700000000000006,NaN,NaN,NaN,NaN,False,55673.09999999404,4013.199999988079,1657559477952,4013,,HRV,HRV_0006,2022-07-11 13:20:23
13,"[{'imgObject': {}, 'id': 'raspberries', 'src': '/static/foodstim60/raspberries.jpg', 'key': 'u', 'origWidth': 411, 'origHeight': 411, 'width': 411, 'height': 411, 'widthPercent': 0.45, 'rescaleHeight': False, 'trialN': 13, 'loaded': True, 'loadedTime': 3014.9000000059605, 'positionName': 'LEFT', 'positionCoords': [510.6, 334.5], 'bid': 4.91}, {'imgObject': {}, 'id': 'veggieswithdip', 'src': '/static/foodstim60/veggieswithdip.jpg', 'key': 'i', 'origWidth': 409, 'origHeight': 409, 'width': 409, 'height': 409, 'widthPercent': 0.45, 'rescaleHeight': False, 'trialN': 13, 'loaded': True, 'loadedTime': 3048.699999988079, 'positionName': 'RIGHT', 'positionCoords': [998.4, 335.5], 'bid': 4.61}]",55673.29999998212,1657559477952,raspberries,veggieswithdip,4.91,4.61,-0.2999999999999998,NaN,NaN,NaN,NaN,False,59688.40000000596,4015.100000023842,1657559481967,4015,,HRV,HRV_0006,2022-07-11 13:20:23
14,"[{'imgObject': {}, 'id': 'edamame', 'src': '/static/foodstim60/edamame.jpg', 'key': 'u', 'origWidth': 409, 'origHeight': 410, 'width': 409, 'height': 410, 'widthPercent': 0.45, 'rescaleHeight': False, 'trialN': 14, 'loaded': True, 'loadedTime': 3066.5999999940395, 'positionName': 'LEFT', 'positionCoords': [512.6, 335], 'bid': 4.46}, {'imgObject': {}, 'id': 'luckycharms', 'src': '/static/foodstim60/luckycharms.jpg', 'key': 'i', 'origWidth': 410, 'origHeight': 409, 'width': 410, 'height': 409, 'widthPercent': 0.45, 'rescaleHeight': False, 'trialN': 14, 'loaded': True, 'loadedTime': 2866.4000000059605, 'positionName': 'RIGHT', 'positionCoords': [998.4, 335.5], 'bid': 8.11}]",59688.59999999404,1657559481967,edamame,luckycharms,4.46,8.11,3.6499999999999995,NaN,NaN,NaN,NaN,False,63691.09999999404,4002.5,1657559485970,4003,,HRV,HRV_0006,2022-07-11 13:20:23
15,"[{'imgObject': {}, 'id': 'fried eggs', 'src': '/static/foodstim60/fried eggs.jpg', 'key': 'u', 'origWidth': 410, 'origHeight': 410, 'width': 410, 'height': 410, 'widthPercent': 0.45, 'rescaleHeight': False, 'trialN': 15, 'loaded': True, 'loadedTime': 3083.699999988079, 'positionName': 'LEFT', 'positionCoords': [511.6, 335], 'bid': 5.4}, {'imgObject': {}, 'id': 'popsicles', 'src': '/static/foodstim60/popsicles.jpg', 'key': 'i', 'origWidth': 410, 'origHeight': 410, 'width': 410, 'height': 410, 'widthPercent': 0.45, 'rescaleHeight': False, 'trialN': 15, 'loaded': True, 'loadedTime': 3104, 'positionName': 'RIGHT', 'positionCoords': [998.4, 335], 'bid': 5.64}]",63691.29999998212,1657559485970,fried eggs,popsicles,5.4,5.64,0.23999999999999932,NaN,NaN,NaN,NaN,False,67706.69999998808,4015.4000000059605,1657559489986,4016,,HRV,HRV_0006,2022-07-11 13:20:23
16,"[{'imgObject': {}, 'id': 'olives', 'src': '/static/foodstim60/olives.jpg', 'key': 'u', 'origWidth': 410, 'origHeight': 410, 'width': 410, 'height': 410, 'widthPercent': 0.45, 'rescaleHeight': False, 'trialN': 16, 'loaded': True, 'loadedTime': 3136.9000000059605, 'positionName': 'LEFT', 'positionCoords': [511.6, 335], 'bid': 3.64}, {'imgObject': {}, 'id': 'grilled chicken strips', 'src': '/static/foodstim60/grilled chicken strips.jpg', 'key': 'i', 'origWidth': 410, 'origHeight': 411, 'width': 410, 'height': 411, 'widthPercent': 0.45, 'rescaleHeight': False, 'trialN': 16, 'loaded': True, 'loadedTime': 3171.4000000059605, 'positionName': 'RIGHT', 'positionCoords': [998.4, 334.5], 'bid': 1.82}]",67707.0,1657559489986,olives,grilled chicken strips,3.64,1.82,-1.82,NaN,NaN,NaN,NaN,False,71733.69999998808,4026.699999988079,1657559494013,4027,,HRV,HRV_0006,2022-07-11 13:20:23
17,"[{'imgObject': {}, 'id': 'bagel plain', 'src': '/static/foodstim60/bagel plain.jpg', 'key': 'u', 'origWidth': 410, 'origHeight': 410, 'width': 410, 'height': 410, 'widthPercent': 0.45, 'rescaleHeight': False, 'trialN': 17, 'loaded': True, 'loadedTime': 3172.2999999821186, 'positionName': 'LEFT', 'positionCoords': [511.6, 335], 'bid': 6.17}, {'imgObject': {}, 'id': 'turkeysandwich', 'src': '/static/foodstim60/turkeysandwich.jpg', 'key': 'i', 'origWidth': 409, 'origHeight': 409, 'width': 409, 'height': 409, 'widthPercent': 0.45, 'rescaleHeight': False, 'trialN': 17, 'loaded': True, 'loadedTime': 3206.199999988079, 'positionName': 'RIGHT', 'positionCoords': [998.4, 335.5], 'bid': 5.82}]",71734.29999998212,1657559494013,bagel plain,turkeysandwich,6.17,5.82,-0.34999999999999964,NaN,NaN,NaN,NaN,False,75736.79999998212,4002.5,1657559498016,4003,,HRV,HRV_0006,2022-07-11 13:20:23
18,"[{'imgObject': {}, 'id': 'hashbrowns', 'src': '/static/foodstim60/hashbrowns.jpg', 'key': 'u', 'origWidth': 411, 'origHeight': 410, 'width': 411, 'height': 410, 'widthPercent': 0.45, 'rescaleHeight': False, 'trialN': 18, 'loaded': True, 'loadedTime': 2752.7999999821186, 'positionName': 'LEFT', 'positionCoords': [510.6, 335], 'bid': 6.96}, {'imgObject': {}, 'id': 'kiwi', 'src': '/static/foodstim60/kiwi.jpg', 'key': 'i', 'origWidth': 410, 'origHeight': 410, 'width': 410, 'height': 410, 'widthPercent': 0.45, 'rescaleHeight': False, 'trialN': 18, 'loaded': True, 'loadedTime': 2888.2999999821186, 'positionName': 'RIGHT', 'positionCoords': [998.4, 335], 'bid': 7.91}]",75736.90000000596,1657559498016,hashbrowns,kiwi,6.96,7.91,0.9500000000000002,NaN,NaN,NaN,NaN,False,79742.59999999404,4005.699999988079,1657559502021,4005,,HRV,HRV_0006,2022-07-11 13:20:23
19,"[{'imgObject': {}, 'id': 'sushi w_condiments', 'src': '/static/foodstim60/sushi w_condiments.jpg', 'key': 'u', 'origWidth': 410, 'origHeight': 410, 'width': 410, 'height': 410, 'widthPercent': 0.45, 'rescaleHeight': False, 'trialN': 19, 'loaded': True, 'loadedTime': 3223.9000000059605, 'positionName': 'LEFT', 'positionCoords': [511.6, 335], 'bid': 8.44}, {'imgObject': {}, 'id': 'seaweed', 'src': '/static/foodstim60/seaweed.jpg', 'key': 'i', 'origWidth': 410, 'origHeight': 410, 'width': 410, 'height': 410, 'widthPercent': 0.45, 'rescaleHeight': False, 'trialN': 19, 'loaded': True, 'loadedTime': 2717.199999988079, 'positionName': 'RIGHT', 'positionCoords': [998.4, 335], 'bid': 8.63}]",79742.90000000596,1657559502022,sushi w_condiments,seaweed,8.44,8.63,0.19000000000000128,NaN,NaN,NaN,NaN,False,83757.09999999404,4014.199999988079,1657559506036,4014,,HRV,HRV_0006,2022-07-11 13:20:23
20,"[{'imgObject': {}, 'id': 'corn cob', 'src': '/static/foodstim60/corn cob.jpg', 'key': 'u', 'origWidth': 411, 'origHeight': 411, 'width': 411, 'height': 411, 'widthPercent': 0.45, 'rescaleHeight': False, 'trialN': 20, 'loaded': True, 'loadedTime': 3225, 'positionName': 'LEFT', 'positionCoords': [510.6, 334.5], 'bid': 7.52}, {'imgObject': {}, 'id': 'Grapes', 'src': '/static/foodstim60/Grapes.jpg', 'key': 'i', 'origWidth': 411, 'origHeight': 411, 'width': 411, 'height': 411, 'widthPercent': 0.45, 'rescaleHeight': False, 'trialN': 20, 'loaded': True, 'loadedTime': 2768.9000000059605, 'positionName': 'RIGHT', 'positionCoords': [998.4, 334.5], 'bid': 7.52}]",83757.40000000596,1657559506036,corn cob,Grapes,7.52,7.52,0.0,NaN,NaN,NaN,NaN,False,87773.69999998808,4016.2999999821186,1657559510053,4017,,HRV,HRV_0006,2022-07-11 13:20:23
21,"[{'imgObject': {}, 'id': 'cherries', 'src': '/static/foodstim60/cherries.jpg', 'key': 'u', 'origWidth': 410, 'origHeight': 411, 'width': 410, 'height': 411, 'widthPercent': 0.45, 'rescaleHeight': False, 'trialN': 21, 'loaded': True, 'loadedTime': 3241.199999988079, 'positionName': 'LEFT', 'positionCoords': [511.6, 334.5], 'bid': 4.16}, {'imgObject': {}, 'id': 'lox', 'src': '/static/foodstim60/lox.jpg', 'key': 'i', 'origWidth': 410, 'origHeight': 411, 'width': 410, 'height': 411, 'widthPercent': 0.45, 'rescaleHeight': False, 'trialN': 21, 'loaded': True, 'loadedTime': 2575.9000000059605, 'positionName': 'RIGHT', 'positionCoords': [998.4, 334.5], 'bid': 1.44}]",87774.0,1657559510053,cherries,lox,4.16,1.44,-2.72,NaN,NaN,NaN,NaN,False,91785.90000000596,4011.9000000059605,1657559514065,4012,,HRV,HRV_0006,2022-07-11 13:20:23
22,"[{'imgObject': {}, 'id': 'mac & cheese', 'src': '/static/foodstim60/mac & cheese.jpg', 'key': 'u', 'origWidth': 410, 'origHeight': 410, 'width': 410, 'height': 410, 'widthPercent': 0.45, 'rescaleHeight': False, 'trialN': 22, 'loaded': True, 'loadedTime': 3259.5999999940395, 'positionName': 'LEFT', 'positionCoords': [511.6, 335], 'bid': 6.17}, {'imgObject': {}, 'id': 'sweetpotato', 'src': '/static/foodstim60/sweetpotato.jpg', 'key': 'i', 'origWidth': 410, 'origHeight': 410, 'width': 410, 'height': 410, 'widthPercent': 0.45, 'rescaleHeight': False, 'trialN': 22, 'loaded': True, 'loadedTime': 2517.0999999940395, 'positionName': 'RIGHT', 'positionCoords': [998.4, 335], 'bid': 1.02}]",91786.19999998808,1657559514065,mac & cheese,sweetpotato,6.17,1.02,-5.15,NaN,NaN,NaN,NaN,False,95802.29999998212,4016.0999999940395,1657559518081,4016,,HRV,HRV_0006,2022-07-11 13:20:23
23,"[{'imgObject': {}, 'id': 'raisin bran w milk', 'src': '/static/foodstim60/raisin bran w milk.jpg', 'key': 'u', 'origWidth': 411, 'origHeight': 411, 'width': 411, 'height': 411, 'widthPercent': 0.45, 'rescaleHeight': False, 'trialN': 23, 'loaded': True, 'loadedTime': 2923.699999988079, 'positionName': 'LEFT', 'positionCoords': [510.6, 334.5], 'bid': 3.69}, {'imgObject': {}, 'id': 'omelette', 'src': '/static/foodstim60/omelette.jpg', 'key': 'i', 'origWidth': 410, 'origHeight': 409, 'width': 410, 'height': 409, 'widthPercent': 0.45, 'rescaleHeight': False, 'trialN': 23, 'loaded': True, 'loadedTime': 3279.2999999821186, 'positionName': 'RIGHT', 'positionCoords': [998.4, 335.5], 'bid': 2.07}]",95802.5,1657559518081,raisin bran w milk,omelette,3.69,2.07,-1.62,NaN,NaN,NaN,NaN,False,99814.19999998808,4011.699999988079,1657559522093,4012,,HRV,HRV_0006,2022-07-11 13:20:23
24,"[{'imgObject': {}, 'id': 'cantaloupe', 'src': '/static/foodstim60/cantaloupe.jpg', 'key': 'u', 'origWidth': 409, 'origHeight': 409, 'width': 409, 'height': 409, 'widthPercent': 0.45, 'rescaleHeight': False, 'trialN': 24, 'loaded': True, 'loadedTime': 3299.2999999821186, 'positionName': 'LEFT', 'positionCoords': [512.6, 335.5], 'bid': 7.59}, {'imgObject': {}, 'id': 'turkeysandwich', 'src': '/static/foodstim60/turkeysandwich.jpg', 'key': 'i', 'origWidth': 409, 'origHeight': 409, 'width': 409, 'height': 409, 'widthPercent': 0.45, 'rescaleHeight': False, 'trialN': 24, 'loaded': True, 'loadedTime': 3205.9000000059605, 'positionName': 'RIGHT', 'positionCoords': [998.4, 335.5], 'bid': 5.82}]",99814.5,1657559522093,cantaloupe,turkeysandwich,7.59,5.82,-1.7699999999999996,NaN,NaN,NaN,NaN,False,103840.5,4026.0,1657559526119,4026,,HRV,HRV_0006,2022-07-11 13:20:23
25,"[{'imgObject': {}, 'id': 'mashed potato', 'src': '/static/foodstim60/mashed potato.jpg', 'key': 'u', 'origWidth': 409, 'origHeight': 409, 'width': 409, 'height': 409, 'widthPercent': 0.45, 'rescaleHeight': False, 'trialN': 25, 'loaded': True, 'loadedTime': 2806, 'positionName': 'LEFT', 'positionCoords': [512.6, 335.5], 'bid': 9.39}, {'imgObject': {}, 'id': 'sushi w_condiments', 'src': '/static/foodstim60/sushi w_condiments.jpg', 'key': 'i', 'origWidth': 410, 'origHeight': 410, 'width': 410, 'height': 410, 'widthPercent': 0.45, 'rescaleHeight': False, 'trialN': 25, 'loaded': True, 'loadedTime': 3207.0999999940395, 'positionName': 'RIGHT', 'positionCoords': [998.4, 335], 'bid': 8.44}]",103840.69999998808,1657559526120,mashed potato,sushi w_condiments,9.39,8.44,-0.9500000000000011,NaN,NaN,NaN,NaN,False,107858.19999998808,4017.5,1657559530137,4017,,HRV,HRV_0006,2022-07-11 13:20:23
26,"[{'imgObject': {}, 'id': 'omelette', 'src': '/static/foodstim60/omelette.jpg', 'key': 'u', 'origWidth': 410, 'origHeight': 409, 'width': 410, 'height': 409, 'widthPercent': 0.45, 'rescaleHeight': False, 'trialN': 26, 'loaded': True, 'loadedTime': 3279.199999988079, 'positionName': 'LEFT', 'positionCoords': [511.6, 335.5], 'bid': 2.07}, {'imgObject': {}, 'id': 'cherry tomato', 'src': '/static/foodstim60/cherry tomato.jpg', 'key': 'i', 'origWidth': 410, 'origHeight': 410, 'width': 410, 'height': 410, 'widthPercent': 0.45, 'rescaleHeight': False, 'trialN': 26, 'loaded': True, 'loadedTime': 3299.5, 'positionName': 'RIGHT', 'positionCoords': [998.4, 335], 'bid': 0.5}]",107858.5,1657559530137,omelette,cherry tomato,2.07,0.5,-1.5699999999999998,NaN,NaN,NaN,NaN,False,111874.90000000596,4016.4000000059605,1657559534154,4017,,HRV,HRV_0006,2022-07-11 13:20:23
27,"[{'imgObject': {}, 'id': 'hotdog w must', 'src': '/static/foodstim60/hotdog w must.jpg', 'key': 'u', 'origWidth': 409, 'origHeight': 409, 'width': 409, 'height': 409, 'widthPercent': 0.45, 'rescaleHeight': False, 'trialN': 27, 'loaded': True, 'loadedTime': 3334.2999999821186, 'positionName': 'LEFT', 'positionCoords': [512.6, 335.5], 'bid': 1.47}, {'imgObject': {}, 'id': 'fruitsalad', 'src': '/static/foodstim60/fruitsalad.jpg', 'key': 'i', 'origWidth': 410, 'origHeight': 410, 'width': 410, 'height': 410, 'widthPercent': 0.45, 'rescaleHeight': False, 'trialN': 27, 'loaded': True, 'loadedTime': 3335.4000000059605, 'positionName': 'RIGHT', 'positionCoords': [998.4, 335], 'bid': 4.21}]",111875.19999998808,1657559534154,hotdog w must,fruitsalad,1.47,4.21,2.74,NaN,NaN,NaN,NaN,False,115882.40000000596,4007.2000000178814,1657559538161,4007,,HRV,HRV_0006,2022-07-11 13:20:23
28,"[{'imgObject': {}, 'id': 'blueberries', 'src': '/static/foodstim60/blueberries.jpg', 'key': 'u', 'origWidth': 411, 'origHeight': 411, 'width': 411, 'height': 411, 'widthPercent': 0.45, 'rescaleHeight': False, 'trialN': 28, 'loaded': True, 'loadedTime': 3358.5999999940395, 'positionName': 'LEFT', 'positionCoords': [510.6, 334.5], 'bid': 2.47}, {'imgObject': {}, 'id': 'sweetpotato', 'src': '/static/foodstim60/sweetpotato.jpg', 'key': 'i', 'origWidth': 410, 'origHeight': 410, 'width': 410, 'height': 410, 'widthPercent': 0.45, 'rescaleHeight': False, 'trialN': 28, 'loaded': True, 'loadedTime': 2536, 'positionName': 'RIGHT', 'positionCoords': [998.4, 335], 'bid': 1.02}]",115882.69999998808,1657559538161,blueberries,sweetpotato,2.47,1.02,-1.4500000000000002,NaN,NaN,NaN,NaN,False,119885.5,4002.800000011921,1657559542164,4003,,HRV,HRV_0006,2022-07-11 13:20:23
29,"[{'imgObject': {}, 'id': 'rigatoni', 'src': '/static/foodstim60/rigatoni.jpg', 'key': 'u', 'origWidth': 411, 'origHeight': 411, 'width': 411, 'height': 411, 'widthPercent': 0.45, 'rescaleHeight': False, 'trialN': 29, 'loaded': True, 'loadedTime': 2679.5999999940395, 'positionName': 'LEFT', 'positionCoords': [510.6, 334.5], 'bid': 5.79}, {'imgObject': {}, 'id': 'salmon', 'src': '/static/foodstim60/salmon.jpg', 'key': 'i', 'origWidth': 410, 'origHeight': 409, 'width': 410, 'height': 409, 'widthPercent': 0.45, 'rescaleHeight': False, 'trialN': 29, 'loaded': True, 'loadedTime': 3365.0999999940395, 'positionName': 'RIGHT', 'positionCoords': [998.4, 335.5], 'bid': 5.67}]",119885.69999998808,1657559542164,rigatoni,salmon,5.79,5.67,-0.1200000000000001,NaN,NaN,NaN,NaN,False,123906.09999999404,4020.4000000059605,1657559546185,4021,,HRV,HRV_0006,2022-07-11 13:20:23
30,"[{'imgObject': {}, 'id': 'mac & cheese', 'src': '/static/foodstim60/mac & cheese.jpg', 'key': 'u', 'origWidth': 410, 'origHeight': 410, 'width': 410, 'height': 410, 'widthPercent': 0.45, 'rescaleHeight': False, 'trialN': 30, 'loaded': True, 'loadedTime': 3258.5999999940395, 'positionName': 'LEFT', 'positionCoords': [511.6, 335], 'bid': 6.17}, {'imgObject': {}, 'id': 'cheerios', 'src': '/static/foodstim60/cheerios.jpg', 'key': 'i', 'origWidth': 409, 'origHeight': 410, 'width': 409, 'height': 410, 'widthPercent': 0.45, 'rescaleHeight': False, 'trialN': 30, 'loaded': True, 'loadedTime': 3366.4000000059605, 'positionName': 'RIGHT', 'positionCoords': [998.4, 335], 'bid': 6.2700000000000005}]",123906.29999998212,1657559546185,mac & cheese,cheerios,6.17,6.2700000000000005,0.10000000000000053,NaN,NaN,NaN,NaN,False,127921.40000000596,4015.100000023842,1657559550200,4015,,HRV,HRV_0006,2022-07-11 13:20:23
31,"[{'imgObject': {}, 'id': 'turkey sandwich', 'src': '/static/foodstim60/turkey sandwich.jpg', 'key': 'u', 'origWidth': 409, 'origHeight': 409, 'width': 409, 'height': 409, 'widthPercent': 0.45, 'rescaleHeight': False, 'trialN': 31, 'loaded': True, 'loadedTime': 3367.5999999940395, 'positionName': 'LEFT', 'positionCoords': [512.6, 335.5], 'bid': 6.58}, {'imgObject': {}, 'id': 'omelette', 'src': '/static/foodstim60/omelette.jpg', 'key': 'i', 'origWidth': 410, 'origHeight': 409, 'width': 410, 'height': 409, 'widthPercent': 0.45, 'rescaleHeight': False, 'trialN': 31, 'loaded': True, 'loadedTime': 3279.4000000059605, 'positionName': 'RIGHT', 'positionCoords': [998.4, 335.5], 'bid': 2.07}]",127921.59999999404,1657559550200,turkey sandwich,omelette,6.58,2.07,-4.51,NaN,NaN,NaN,NaN,False,131926.90000000596,4005.300000011921,1657559554206,4006,,HRV,HRV_0006,2022-07-11 13:20:23
32,"[{'imgObject': {}, 'id': 'fruitsalad', 'src': '/static/foodstim60/fruitsalad.jpg', 'key': 'u', 'origWidth': 410, 'origHeight': 410, 'width': 410, 'height': 410, 'widthPercent': 0.45, 'rescaleHeight': False, 'trialN': 32, 'loaded': True, 'loadedTime': 3334.5999999940395, 'positionName': 'LEFT', 'positionCoords': [511.6, 335], 'bid': 4.21}, {'imgObject': {}, 'id': 'chicken nuggets2', 'src': '/static/foodstim60/chicken nuggets2.jpg', 'key': 'i', 'origWidth': 410, 'origHeight': 409, 'width': 410, 'height': 409, 'widthPercent': 0.45, 'rescaleHeight': False, 'trialN': 32, 'loaded': True, 'loadedTime': 3370.0999999940395, 'positionName': 'RIGHT', 'positionCoords': [998.4, 335.5], 'bid': 3.22}]",131927.29999998212,1657559554206,fruitsalad,chicken nuggets2,4.21,3.22,-0.9899999999999998,NaN,NaN,NaN,NaN,False,135932.40000000596,4005.100000023842,1657559558211,4005,,HRV,HRV_0006,2022-07-11 13:20:23
33,"[{'imgObject': {}, 'id': 'sushi w_condiments', 'src': '/static/foodstim60/sushi w_condiments.jpg', 'key': 'u', 'origWidth': 410, 'origHeight': 410, 'width': 410, 'height': 410, 'widthPercent': 0.45, 'rescaleHeight': False, 'trialN': 33, 'loaded': True, 'loadedTime': 3207.199999988079, 'positionName': 'LEFT', 'positionCoords': [511.6, 335], 'bid': 8.44}, {'imgObject': {}, 'id': 'strawberries', 'src': '/static/foodstim60/strawberries.jpg', 'key': 'i', 'origWidth': 410, 'origHeight': 410, 'width': 410, 'height': 410, 'widthPercent': 0.45, 'rescaleHeight': False, 'trialN': 33, 'loaded': True, 'loadedTime': 3372.0999999940395, 'positionName': 'RIGHT', 'positionCoords': [998.4, 335], 'bid': 6.75}]",135932.59999999404,1657559558211,sushi w_condiments,strawberries,8.44,6.75,-1.6899999999999995,NaN,NaN,NaN,NaN,False,139946.40000000596,4013.800000011921,1657559562225,4014,,HRV,HRV_0006,2022-07-11 13:20:23
34,"[{'imgObject': {}, 'id': 'apple slices', 'src': '/static/foodstim60/apple slices.jpg', 'key': 'u', 'origWidth': 409, 'origHeight': 410, 'width': 409, 'height': 410, 'widthPercent': 0.45, 'rescaleHeight': False, 'trialN': 34, 'loaded': True, 'loadedTime': 3372.199999988079, 'positionName': 'LEFT', 'positionCoords': [512.6, 335], 'bid': 4.07}, {'imgObject': {}, 'id': 'sweetpotato', 'src': '/static/foodstim60/sweetpotato.jpg', 'key': 'i', 'origWidth': 410, 'origHeight': 410, 'width': 410, 'height': 410, 'widthPercent': 0.45, 'rescaleHeight': False, 'trialN': 34, 'loaded': True, 'loadedTime': 2518.9000000059605, 'positionName': 'RIGHT', 'positionCoords': [998.4, 335], 'bid': 1.02}]",139946.59999999404,1657559562225,apple slices,sweetpotato,4.07,1.02,-3.0500000000000003,NaN,NaN,NaN,NaN,False,143962.19999998808,4015.5999999940395,1657559566241,4016,,HRV,HRV_0006,2022-07-11 13:20:23
35,"[{'imgObject': {}, 'id': 'raspberries', 'src': '/static/foodstim60/raspberries.jpg', 'key': 'u', 'origWidth': 411, 'origHeight': 411, 'width': 411, 'height': 411, 'widthPercent': 0.45, 'rescaleHeight': False, 'trialN': 35, 'loaded': True, 'loadedTime': 2998.4000000059605, 'positionName': 'LEFT', 'positionCoords': [510.6, 334.5], 'bid': 4.91}, {'imgObject': {}, 'id': 'avocado', 'src': '/static/foodstim60/avocado.jpg', 'key': 'i', 'origWidth': 409, 'origHeight': 409, 'width': 409, 'height': 409, 'widthPercent': 0.45, 'rescaleHeight': False, 'trialN': 35, 'loaded': True, 'loadedTime': 3373.2999999821186, 'positionName': 'RIGHT', 'positionCoords': [998.4, 335.5], 'bid': 8.51}]",143962.40000000596,1657559566241,raspberries,avocado,4.91,8.51,3.5999999999999996,NaN,NaN,NaN,NaN,False,147976.09999999404,4013.699999988079,1657559570255,4014,,HRV,HRV_0006,2022-07-11 13:20:23
36,"[{'imgObject': {}, 'id': 'cheerios', 'src': '/static/foodstim60/cheerios.jpg', 'key': 'u', 'origWidth': 409, 'origHeight': 410, 'width': 409, 'height': 410, 'widthPercent': 0.45, 'rescaleHeight': False, 'trialN': 36, 'loaded': True, 'loadedTime': 3366.2999999821186, 'positionName': 'LEFT', 'positionCoords': [512.6, 335], 'bid': 6.2700000000000005}, {'imgObject': {}, 'id': 'popsicles', 'src': '/static/foodstim60/popsicles.jpg', 'key': 'i', 'origWidth': 410, 'origHeight': 410, 'width': 410, 'height': 410, 'widthPercent': 0.45, 'rescaleHeight': False, 'trialN': 36, 'loaded': True, 'loadedTime': 3104.5999999940395, 'positionName': 'RIGHT', 'positionCoords': [998.4, 335], 'bid': 5.64}]",147976.19999998808,1657559570255,cheerios,popsicles,6.2700000000000005,5.64,-0.6300000000000008,NaN,NaN,NaN,NaN,False,151986.0,4009.800000011921,1657559574265,4010,,HRV,HRV_0006,2022-07-11 13:20:23
37,"[{'imgObject': {}, 'id': 'cheerios', 'src': '/static/foodstim60/cheerios.jpg', 'key': 'u', 'origWidth': 409, 'origHeight': 410, 'width': 409, 'height': 410, 'widthPercent': 0.45, 'rescaleHeight': False, 'trialN': 37, 'loaded': True, 'loadedTime': 3366.2999999821186, 'positionName': 'LEFT', 'positionCoords': [512.6, 335], 'bid': 6.2700000000000005}, {'imgObject': {}, 'id': 'tacos', 'src': '/static/foodstim60/tacos.jpg', 'key': 'i', 'origWidth': 411, 'origHeight': 411, 'width': 411, 'height': 411, 'widthPercent': 0.45, 'rescaleHeight': False, 'trialN': 37, 'loaded': True, 'loadedTime': 2618.699999988079, 'positionName': 'RIGHT', 'positionCoords': [998.4, 334.5], 'bid': 6.5200000000000005}]",151986.29999998212,1657559574265,cheerios,tacos,6.2700000000000005,6.5200000000000005,0.25,NaN,NaN,NaN,NaN,False,156001.59999999404,4015.300000011921,1657559578280,4015,,HRV,HRV_0006,2022-07-11 13:20:23
38,"[{'imgObject': {}, 'id': 'pear', 'src': '/static/foodstim60/pear.jpg', 'key': 'u', 'origWidth': 411, 'origHeight': 410, 'width': 411, 'height': 410, 'widthPercent': 0.45, 'rescaleHeight': False, 'trialN': 38, 'loaded': True, 'loadedTime': 3390.7999999821186, 'positionName': 'LEFT', 'positionCoords': [510.6, 335], 'bid': 6.9}, {'imgObject': {}, 'id': 'corn cob', 'src': '/static/foodstim60/corn cob.jpg', 'key': 'i', 'origWidth': 411, 'origHeight': 411, 'width': 411, 'height': 411, 'widthPercent': 0.45, 'rescaleHeight': False, 'trialN': 38, 'loaded': True, 'loadedTime': 3240.7999999821186, 'positionName': 'RIGHT', 'positionCoords': [998.4, 334.5], 'bid': 7.52}]",156001.90000000596,1657559578281,pear,corn cob,6.9,7.52,0.6199999999999992,NaN,NaN,NaN,NaN,False,160014.0,4012.0999999940395,1657559582293,4012,,HRV,HRV_0006,2022-07-11 13:20:23
39,"[{'imgObject': {}, 'id': 'cocktailshrimp', 'src': '/static/foodstim60/cocktailshrimp.jpg', 'key': 'u', 'origWidth': 410, 'origHeight': 410, 'width': 410, 'height': 410, 'widthPercent': 0.45, 'rescaleHeight': False, 'trialN': 39, 'loaded': True, 'loadedTime': 2353.9000000059605, 'positionName': 'LEFT', 'positionCoords': [511.6, 335], 'bid': 9.61}, {'imgObject': {}, 'id': 'froot loops w milk', 'src': '/static/foodstim60/froot loops w milk.jpg', 'key': 'i', 'origWidth': 410, 'origHeight': 410, 'width': 410, 'height': 410, 'widthPercent': 0.45, 'rescaleHeight': False, 'trialN': 39, 'loaded': True, 'loadedTime': 3392.0999999940395, 'positionName': 'RIGHT', 'positionCoords': [998.4, 335], 'bid': 7.96}]",160014.19999998808,1657559582293,cocktailshrimp,froot loops w milk,9.61,7.96,-1.6499999999999995,NaN,NaN,NaN,NaN,False,164027.5,4013.300000011921,1657559586306,4013,,HRV,HRV_0006,2022-07-11 13:20:23
40,"[{'imgObject': {}, 'id': 'burger', 'src': '/static/foodstim60/burger.jpg', 'key': 'u', 'origWidth': 409, 'origHeight': 409, 'width': 409, 'height': 409, 'widthPercent': 0.45, 'rescaleHeight': False, 'trialN': 40, 'loaded': True, 'loadedTime': 2869.4000000059605, 'positionName': 'LEFT', 'positionCoords': [512.6, 335.5], 'bid': 8.43}, {'imgObject': {}, 'id': 'granola w milk', 'src': '/static/foodstim60/granola w milk.jpg', 'key': 'i', 'origWidth': 410, 'origHeight': 410, 'width': 410, 'height': 410, 'widthPercent': 0.45, 'rescaleHeight': False, 'trialN': 40, 'loaded': True, 'loadedTime': 2449, 'positionName': 'RIGHT', 'positionCoords': [998.4, 335], 'bid': 9.16}]",164027.59999999404,1657559586307,burger,granola w milk,8.43,9.16,0.7300000000000004,NaN,NaN,NaN,NaN,False,168039.90000000596,4012.300000011921,1657559590319,4012,,HRV,HRV_0006,2022-07-11 13:20:23
41,"[{'imgObject': {}, 'id': 'olives', 'src': '/static/foodstim60/olives.jpg', 'key': 'u', 'origWidth': 410, 'origHeight': 410, 'width': 410, 'height': 410, 'widthPercent': 0.45, 'rescaleHeight': False, 'trialN': 41, 'loaded': True, 'loadedTime': 3153.2999999821186, 'positionName': 'LEFT', 'positionCoords': [511.6, 335], 'bid': 3.64}, {'imgObject': {}, 'id': 'Tribe humus pita', 'src': '/static/foodstim60/Tribe humus pita.jpg', 'key': 'i', 'origWidth': 411, 'origHeight': 411, 'width': 411, 'height': 411, 'widthPercent': 0.45, 'rescaleHeight': False, 'trialN': 41, 'loaded': True, 'loadedTime': 3413.4000000059605, 'positionName': 'RIGHT', 'positionCoords': [998.4, 334.5], 'bid': 3.47}]",168040.09999999404,1657559590319,olives,Tribe humus pita,3.64,3.47,-0.16999999999999993,NaN,NaN,NaN,NaN,False,172046.19999998808,4006.0999999940395,1657559594325,4006,,HRV,HRV_0006,2022-07-11 13:20:23
42,"[{'imgObject': {}, 'id': 'bagel and cc', 'src': '/static/foodstim60/bagel and cc.jpg', 'key': 'u', 'origWidth': 410, 'origHeight': 410, 'width': 410, 'height': 410, 'widthPercent': 0.45, 'rescaleHeight': False, 'trialN': 42, 'loaded': True, 'loadedTime': 3415.9000000059605, 'positionName': 'LEFT', 'positionCoords': [511.6, 335], 'bid': 8.96}, {'imgObject': {}, 'id': 'salad w chicken', 'src': '/static/foodstim60/salad w chicken.jpg', 'key': 'i', 'origWidth': 411, 'origHeight': 411, 'width': 411, 'height': 411, 'widthPercent': 0.45, 'rescaleHeight': False, 'trialN': 42, 'loaded': True, 'loadedTime': 2905.7999999821186, 'positionName': 'RIGHT', 'positionCoords': [998.4, 334.5], 'bid': 7.85}]",172046.19999998808,1657559594325,bagel and cc,salad w chicken,8.96,7.85,-1.1100000000000012,NaN,NaN,NaN,NaN,False,176063.5,4017.300000011921,1657559598342,4017,,HRV,HRV_0006,2022-07-11 13:20:23
43,"[{'imgObject': {}, 'id': 'grilled chicken strips', 'src': '/static/foodstim60/grilled chicken strips.jpg', 'key': 'u', 'origWidth': 410, 'origHeight': 411, 'width': 410, 'height': 411, 'widthPercent': 0.45, 'rescaleHeight': False, 'trialN': 43, 'loaded': True, 'loadedTime': 3170.199999988079, 'positionName': 'LEFT', 'positionCoords': [511.6, 334.5], 'bid': 1.82}, {'imgObject': {}, 'id': 'burrito', 'src': '/static/foodstim60/burrito.jpg', 'key': 'i', 'origWidth': 410, 'origHeight': 410, 'width': 410, 'height': 410, 'widthPercent': 0.45, 'rescaleHeight': False, 'trialN': 43, 'loaded': True, 'loadedTime': 2680, 'positionName': 'RIGHT', 'positionCoords': [998.4, 335], 'bid': 3.16}]",176063.79999998212,1657559598343,grilled chicken strips,burrito,1.82,3.16,1.34,NaN,NaN,NaN,NaN,False,180079.0,4015.2000000178814,1657559602358,4015,,HRV,HRV_0006,2022-07-11 13:20:23
44,"[{'imgObject': {}, 'id': 'edamame', 'src': '/static/foodstim60/edamame.jpg', 'key': 'u', 'origWidth': 409, 'origHeight': 410, 'width': 409, 'height': 410, 'widthPercent': 0.45, 'rescaleHeight': False, 'trialN': 44, 'loaded': True, 'loadedTime': 3066.5, 'positionName': 'LEFT', 'positionCoords': [512.6, 335], 'bid': 4.46}, {'imgObject': {}, 'id': 'grilled chicken strips', 'src': '/static/foodstim60/grilled chicken strips.jpg', 'key': 'i', 'origWidth': 410, 'origHeight': 411, 'width': 410, 'height': 411, 'widthPercent': 0.45, 'rescaleHeight': False, 'trialN': 44, 'loaded': True, 'loadedTime': 3171.5, 'positionName': 'RIGHT', 'positionCoords': [998.4, 334.5], 'bid': 1.82}]",180079.29999998212,1657559602358,edamame,grilled chicken strips,4.46,1.82,-2.6399999999999997,NaN,NaN,NaN,NaN,False,184082.69999998808,4003.4000000059605,1657559606361,4003,,HRV,HRV_0006,2022-07-11 13:20:23
45,"[{'imgObject': {}, 'id': 'ice cream sundae 002', 'src': '/static/foodstim60/ice cream sundae 002.jpg', 'key': 'u', 'origWidth': 409, 'origHeight': 409, 'width': 409, 'height': 409, 'widthPercent': 0.45, 'rescaleHeight': False, 'trialN': 45, 'loaded': True, 'loadedTime': 2974.2999999821186, 'positionName': 'LEFT', 'positionCoords': [512.6, 335.5], 'bid': 6.83}, {'imgObject': {}, 'id': 'strawberries', 'src': '/static/foodstim60/strawberries.jpg', 'key': 'i', 'origWidth': 410, 'origHeight': 410, 'width': 410, 'height': 410, 'widthPercent': 0.45, 'rescaleHeight': False, 'trialN': 45, 'loaded': True, 'loadedTime': 3372.199999988079, 'positionName': 'RIGHT', 'positionCoords': [998.4, 335], 'bid': 6.75}]",184082.79999998212,1657559606362,ice cream sundae 002,strawberries,6.83,6.75,-0.08000000000000007,NaN,NaN,NaN,NaN,False,188087.69999998808,4004.9000000059605,1657559610367,4005,,HRV,HRV_0006,2022-07-11 13:20:23
46,"[{'imgObject': {}, 'id': 'chicken nuggets2', 'src': '/static/foodstim60/chicken nuggets2.jpg', 'key': 'u', 'origWidth': 410, 'origHeight': 409, 'width': 410, 'height': 409, 'widthPercent': 0.45, 'rescaleHeight': False, 'trialN': 46, 'loaded': True, 'loadedTime': 3370.199999988079, 'positionName': 'LEFT', 'positionCoords': [511.6, 335.5], 'bid': 3.22}, {'imgObject': {}, 'id': 'Grapes', 'src': '/static/foodstim60/Grapes.jpg', 'key': 'i', 'origWidth': 411, 'origHeight': 411, 'width': 411, 'height': 411, 'widthPercent': 0.45, 'rescaleHeight': False, 'trialN': 46, 'loaded': True, 'loadedTime': 2769.699999988079, 'positionName': 'RIGHT', 'positionCoords': [998.4, 334.5], 'bid': 7.52}]",188087.79999998212,1657559610367,chicken nuggets2,Grapes,3.22,7.52,4.299999999999999,NaN,NaN,NaN,NaN,False,192117.09999999404,4029.300000011921,1657559614396,4029,,HRV,HRV_0006,2022-07-11 13:20:23
47,"[{'imgObject': {}, 'id': 'mango', 'src': '/static/foodstim60/mango.jpg', 'key': 'u', 'origWidth': 411, 'origHeight': 411, 'width': 411, 'height': 411, 'widthPercent': 0.45, 'rescaleHeight': False, 'trialN': 47, 'loaded': True, 'loadedTime': 2596.5, 'positionName': 'LEFT', 'positionCoords': [510.6, 334.5], 'bid': 2.62}, {'imgObject': {}, 'id': 'lox', 'src': '/static/foodstim60/lox.jpg', 'key': 'i', 'origWidth': 410, 'origHeight': 411, 'width': 410, 'height': 411, 'widthPercent': 0.45, 'rescaleHeight': False, 'trialN': 47, 'loaded': True, 'loadedTime': 2576.2999999821186, 'positionName': 'RIGHT', 'positionCoords': [998.4, 334.5], 'bid': 1.44}]",192117.40000000596,1657559614396,mango,lox,2.62,1.44,-1.1800000000000002,NaN,NaN,NaN,NaN,False,196131.40000000596,4014.0,1657559618410,4014,,HRV,HRV_0006,2022-07-11 13:20:23
48,"[{'imgObject': {}, 'id': 'salmon', 'src': '/static/foodstim60/salmon.jpg', 'key': 'u', 'origWidth': 410, 'origHeight': 409, 'width': 410, 'height': 409, 'widthPercent': 0.45, 'rescaleHeight': False, 'trialN': 48, 'loaded': True, 'loadedTime': 3359.7999999821186, 'positionName': 'LEFT', 'positionCoords': [511.6, 335.5], 'bid': 5.67}, {'imgObject': {}, 'id': 'shreddedwheatwithmilk', 'src': '/static/foodstim60/shreddedwheatwithmilk.jpg', 'key': 'i', 'origWidth': 410, 'origHeight': 410, 'width': 410, 'height': 410, 'widthPercent': 0.45, 'rescaleHeight': False, 'trialN': 48, 'loaded': True, 'loadedTime': 3416.5, 'positionName': 'RIGHT', 'positionCoords': [998.4, 335], 'bid': 6.33}]",196131.5,1657559618410,salmon,shreddedwheatwithmilk,5.67,6.33,0.6600000000000001,NaN,NaN,NaN,NaN,False,200151.40000000596,4019.9000000059605,1657559622430,4020,,HRV,HRV_0006,2022-07-11 13:20:23
49,"[{'imgObject': {}, 'id': 'chickenfingers', 'src': '/static/foodstim60/chickenfingers.jpg', 'key': 'u', 'origWidth': 410, 'origHeight': 410, 'width': 410, 'height': 410, 'widthPercent': 0.45, 'rescaleHeight': False, 'trialN': 49, 'loaded': True, 'loadedTime': 3432.5, 'positionName': 'LEFT', 'positionCoords': [511.6, 335], 'bid': 7.59}, {'imgObject': {}, 'id': 'cantaloupe', 'src': '/static/foodstim60/cantaloupe.jpg', 'key': 'i', 'origWidth': 409, 'origHeight': 409, 'width': 409, 'height': 409, 'widthPercent': 0.45, 'rescaleHeight': False, 'trialN': 49, 'loaded': True, 'loadedTime': 3299.2999999821186, 'positionName': 'RIGHT', 'positionCoords': [998.4, 335.5], 'bid': 7.59}]",200151.59999999404,1657559622430,chickenfingers,cantaloupe,7.59,7.59,0.0,NaN,NaN,NaN,NaN,False,204163.0,4011.4000000059605,1657559626442,4012,,HRV,HRV_0006,2022-07-11 13:20:23
50,"[{'imgObject': {}, 'id': 'yogurt no spoon', 'src': '/static/foodstim60/yogurt no spoon.jpg', 'key': 'u', 'origWidth': 411, 'origHeight': 410, 'width': 411, 'height': 410, 'widthPercent': 0.45, 'rescaleHeight': False, 'trialN': 50, 'loaded': True, 'loadedTime': 2861.2999999821186, 'positionName': 'LEFT', 'positionCoords': [510.6, 335], 'bid': 2.16}, {'imgObject': {}, 'id': 'apple slices', 'src': '/static/foodstim60/apple slices.jpg', 'key': 'i', 'origWidth': 409, 'origHeight': 410, 'width': 409, 'height': 410, 'widthPercent': 0.45, 'rescaleHeight': False, 'trialN': 50, 'loaded': True, 'loadedTime': 3373.199999988079, 'positionName': 'RIGHT', 'positionCoords': [998.4, 335], 'bid': 4.07}]",204163.19999998808,1657559626442,yogurt no spoon,apple slices,2.16,4.07,1.9100000000000001,NaN,NaN,NaN,NaN,False,208172.79999998212,4009.5999999940395,1657559630451,4009,,HRV,HRV_0006,2022-07-11 13:20:23
51,"[{'imgObject': {}, 'id': 'baked potato', 'src': '/static/foodstim60/baked potato.jpg', 'key': 'u', 'origWidth': 409, 'origHeight': 410, 'width': 409, 'height': 410, 'widthPercent': 0.45, 'rescaleHeight': False, 'trialN': 51, 'loaded': True, 'loadedTime': 2467, 'positionName': 'LEFT', 'positionCoords': [512.6, 335], 'bid': 5.08}, {'imgObject': {}, 'id': 'fried eggs', 'src': '/static/foodstim60/fried eggs.jpg', 'key': 'i', 'origWidth': 410, 'origHeight': 410, 'width': 410, 'height': 410, 'widthPercent': 0.45, 'rescaleHeight': False, 'trialN': 51, 'loaded': True, 'loadedTime': 3083.7999999821186, 'positionName': 'RIGHT', 'positionCoords': [998.4, 335], 'bid': 5.4}]",208173.0,1657559630452,baked potato,fried eggs,5.08,5.4,0.3200000000000003,NaN,NaN,NaN,NaN,False,212199.29999998212,4026.2999999821186,1657559634478,4026,,HRV,HRV_0006,2022-07-11 13:20:23
52,"[{'imgObject': {}, 'id': 'blackbeanswithrice', 'src': '/static/foodstim60/blackbeanswithrice.jpg', 'key': 'u', 'origWidth': 410, 'origHeight': 410, 'width': 410, 'height': 410, 'widthPercent': 0.45, 'rescaleHeight': False, 'trialN': 52, 'loaded': True, 'loadedTime': 3433.7999999821186, 'positionName': 'LEFT', 'positionCoords': [511.6, 335], 'bid': 2.66}, {'imgObject': {}, 'id': 'hotdog w must', 'src': '/static/foodstim60/hotdog w must.jpg', 'key': 'i', 'origWidth': 409, 'origHeight': 409, 'width': 409, 'height': 409, 'widthPercent': 0.45, 'rescaleHeight': False, 'trialN': 52, 'loaded': True, 'loadedTime': 3317.699999988079, 'positionName': 'RIGHT', 'positionCoords': [998.4, 335.5], 'bid': 1.47}]",212199.5,1657559634478,blackbeanswithrice,hotdog w must,2.66,1.47,-1.1900000000000002,NaN,NaN,NaN,NaN,False,216220.40000000596,4020.9000000059605,1657559638499,4021,,HRV,HRV_0006,2022-07-11 13:20:23
53,"[{'imgObject': {}, 'id': 'fruitsalad', 'src': '/static/foodstim60/fruitsalad.jpg', 'key': 'u', 'origWidth': 410, 'origHeight': 410, 'width': 410, 'height': 410, 'widthPercent': 0.45, 'rescaleHeight': False, 'trialN': 53, 'loaded': True, 'loadedTime': 3351.199999988079, 'positionName': 'LEFT', 'positionCoords': [511.6, 335], 'bid': 4.21}, {'imgObject': {}, 'id': 'mango', 'src': '/static/foodstim60/mango.jpg', 'key': 'i', 'origWidth': 411, 'origHeight': 411, 'width': 411, 'height': 411, 'widthPercent': 0.45, 'rescaleHeight': False, 'trialN': 53, 'loaded': True, 'loadedTime': 2576.5, 'positionName': 'RIGHT', 'positionCoords': [998.4, 334.5], 'bid': 2.62}]",216220.59999999404,1657559638499,fruitsalad,mango,4.21,2.62,-1.5899999999999999,NaN,NaN,NaN,NaN,False,220237.90000000596,4017.300000011921,1657559642517,4018,,HRV,HRV_0006,2022-07-11 13:20:23
54,"[{'imgObject': {}, 'id': 'raisin bran w milk', 'src': '/static/foodstim60/raisin bran w milk.jpg', 'key': 'u', 'origWidth': 411, 'origHeight': 411, 'width': 411, 'height': 411, 'widthPercent': 0.45, 'rescaleHeight': False, 'trialN': 54, 'loaded': True, 'loadedTime': 2922.9000000059605, 'positionName': 'LEFT', 'positionCoords': [510.6, 334.5], 'bid': 3.69}, {'imgObject': {}, 'id': 'steak', 'src': '/static/foodstim60/steak.jpg', 'key': 'i', 'origWidth': 410, 'origHeight': 410, 'width': 410, 'height': 410, 'widthPercent': 0.45, 'rescaleHeight': False, 'trialN': 54, 'loaded': True, 'loadedTime': 2822.199999988079, 'positionName': 'RIGHT', 'positionCoords': [998.4, 335], 'bid': 4.64}]",220238.09999999404,1657559642517,raisin bran w milk,steak,3.69,4.64,0.9499999999999997,NaN,NaN,NaN,NaN,False,224258.40000000596,4020.300000011921,1657559646537,4020,,HRV,HRV_0006,2022-07-11 13:20:23
55,"[{'imgObject': {}, 'id': 'eggsalad', 'src': '/static/foodstim60/eggsalad.jpg', 'key': 'u', 'origWidth': 410, 'origHeight': 409, 'width': 410, 'height': 409, 'widthPercent': 0.45, 'rescaleHeight': False, 'trialN': 55, 'loaded': True, 'loadedTime': 3435.2999999821186, 'positionName': 'LEFT', 'positionCoords': [511.6, 335.5], 'bid': 8.81}, {'imgObject': {}, 'id': 'seaweed', 'src': '/static/foodstim60/seaweed.jpg', 'key': 'i', 'origWidth': 410, 'origHeight': 410, 'width': 410, 'height': 410, 'widthPercent': 0.45, 'rescaleHeight': False, 'trialN': 55, 'loaded': True, 'loadedTime': 2716.0999999940395, 'positionName': 'RIGHT', 'positionCoords': [998.4, 335], 'bid': 8.63}]",224258.69999998808,1657559646537,eggsalad,seaweed,8.81,8.63,-0.17999999999999972,NaN,NaN,NaN,NaN,False,228276.09999999404,4017.4000000059605,1657559650555,4018,,HRV,HRV_0006,2022-07-11 13:20:23
56,"[{'imgObject': {}, 'id': 'Grapes', 'src': '/static/foodstim60/Grapes.jpg', 'key': 'u', 'origWidth': 411, 'origHeight': 411, 'width': 411, 'height': 411, 'widthPercent': 0.45, 'rescaleHeight': False, 'trialN': 56, 'loaded': True, 'loadedTime': 2788.9000000059605, 'positionName': 'LEFT', 'positionCoords': [510.6, 334.5], 'bid': 7.52}, {'imgObject': {}, 'id': 'avocado', 'src': '/static/foodstim60/avocado.jpg', 'key': 'i', 'origWidth': 409, 'origHeight': 409, 'width': 409, 'height': 409, 'widthPercent': 0.45, 'rescaleHeight': False, 'trialN': 56, 'loaded': True, 'loadedTime': 3373.9000000059605, 'positionName': 'RIGHT', 'positionCoords': [998.4, 335.5], 'bid': 8.51}]",228276.29999998212,1657559650555,Grapes,avocado,7.52,8.51,0.9900000000000002,NaN,NaN,NaN,NaN,False,232290.40000000596,4014.100000023842,1657559654569,4014,,HRV,HRV_0006,2022-07-11 13:20:23
57,"[{'imgObject': {}, 'id': 'cherries', 'src': '/static/foodstim60/cherries.jpg', 'key': 'u', 'origWidth': 410, 'origHeight': 411, 'width': 410, 'height': 411, 'widthPercent': 0.45, 'rescaleHeight': False, 'trialN': 57, 'loaded': True, 'loadedTime': 3242.5, 'positionName': 'LEFT', 'positionCoords': [511.6, 334.5], 'bid': 4.16}, {'imgObject': {}, 'id': 'blueberries', 'src': '/static/foodstim60/blueberries.jpg', 'key': 'i', 'origWidth': 411, 'origHeight': 411, 'width': 411, 'height': 411, 'widthPercent': 0.45, 'rescaleHeight': False, 'trialN': 57, 'loaded': True, 'loadedTime': 3359.4000000059605, 'positionName': 'RIGHT', 'positionCoords': [998.4, 334.5], 'bid': 2.47}]",232290.69999998808,1657559654569,cherries,blueberries,4.16,2.47,-1.69,NaN,NaN,NaN,NaN,False,236295.69999998808,4005.0,1657559658574,4005,,HRV,HRV_0006,2022-07-11 13:20:23
58,"[{'imgObject': {}, 'id': 'roastedpotatoes', 'src': '/static/foodstim60/roastedpotatoes.jpg', 'key': 'u', 'origWidth': 409, 'origHeight': 410, 'width': 409, 'height': 410, 'widthPercent': 0.45, 'rescaleHeight': False, 'trialN': 58, 'loaded': True, 'loadedTime': 2956.7999999821186, 'positionName': 'LEFT', 'positionCoords': [512.6, 335], 'bid': 0.9}, {'imgObject': {}, 'id': 'burrito', 'src': '/static/foodstim60/burrito.jpg', 'key': 'i', 'origWidth': 410, 'origHeight': 410, 'width': 410, 'height': 410, 'widthPercent': 0.45, 'rescaleHeight': False, 'trialN': 58, 'loaded': True, 'loadedTime': 2697.699999988079, 'positionName': 'RIGHT', 'positionCoords': [998.4, 335], 'bid': 3.16}]",236295.90000000596,1657559658575,roastedpotatoes,burrito,0.9,3.16,2.2600000000000002,NaN,NaN,NaN,NaN,False,240301.0,4005.0999999940395,1657559662580,4005,,HRV,HRV_0006,2022-07-11 13:20:23
59,"[{'imgObject': {}, 'id': 'fruitsalad', 'src': '/static/foodstim60/fruitsalad.jpg', 'key': 'u', 'origWidth': 410, 'origHeight': 410, 'width': 410, 'height': 410, 'widthPercent': 0.45, 'rescaleHeight': False, 'trialN': 59, 'loaded': True, 'loadedTime': 3351.5999999940395, 'positionName': 'LEFT', 'positionCoords': [511.6, 335], 'bid': 4.21}, {'imgObject': {}, 'id': 'cherries', 'src': '/static/foodstim60/cherries.jpg', 'key': 'i', 'origWidth': 410, 'origHeight': 411, 'width': 410, 'height': 411, 'widthPercent': 0.45, 'rescaleHeight': False, 'trialN': 59, 'loaded': True, 'loadedTime': 3258, 'positionName': 'RIGHT', 'positionCoords': [998.4, 334.5], 'bid': 4.16}]",240301.29999998212,1657559662580,fruitsalad,cherries,4.21,4.16,-0.04999999999999982,NaN,NaN,NaN,NaN,False,244310.90000000596,4009.600000023842,1657559666590,4010,,HRV,HRV_0006,2022-07-11 13:20:23
60,"[{'imgObject': {}, 'id': 'salmon', 'src': '/static/foodstim60/salmon.jpg', 'key': 'u', 'origWidth': 410, 'origHeight': 409, 'width': 410, 'height': 409, 'widthPercent': 0.45, 'rescaleHeight': False, 'trialN': 60, 'loaded': True, 'loadedTime': 3360.5999999940395, 'positionName': 'LEFT', 'positionCoords': [511.6, 335.5], 'bid': 5.67}, {'imgObject': {}, 'id': 'chicken nuggets2', 'src': '/static/foodstim60/chicken nuggets2.jpg', 'key': 'i', 'origWidth': 410, 'origHeight': 409, 'width': 410, 'height': 409, 'widthPercent': 0.45, 'rescaleHeight': False, 'trialN': 60, 'loaded': True, 'loadedTime': 3370.2999999821186, 'positionName': 'RIGHT', 'positionCoords': [998.4, 335.5], 'bid': 3.22}]",244311.09999999404,1657559666590,salmon,chicken nuggets2,5.67,3.22,-2.4499999999999997,NaN,NaN,NaN,NaN,False,248326.59999999404,4015.5,1657559670605,4015,,HRV,HRV_0006,2022-07-11 13:20:23
61,"[{'imgObject': {}, 'id': 'grilled chicken strips', 'src': '/static/foodstim60/grilled chicken strips.jpg', 'key': 'u', 'origWidth': 410, 'origHeight': 411, 'width': 410, 'height': 411, 'widthPercent': 0.45, 'rescaleHeight': False, 'trialN': 61, 'loaded': True, 'loadedTime': 3171.2999999821186, 'positionName': 'LEFT', 'positionCoords': [511.6, 334.5], 'bid': 1.82}, {'imgObject': {}, 'id': 'yogurt no spoon', 'src': '/static/foodstim60/yogurt no spoon.jpg', 'key': 'i', 'origWidth': 411, 'origHeight': 410, 'width': 411, 'height': 410, 'widthPercent': 0.45, 'rescaleHeight': False, 'trialN': 61, 'loaded': True, 'loadedTime': 2858.2999999821186, 'positionName': 'RIGHT', 'positionCoords': [998.4, 335], 'bid': 2.16}]",248326.79999998212,1657559670605,grilled chicken strips,yogurt no spoon,1.82,2.16,0.3400000000000001,NaN,NaN,NaN,NaN,False,252336.40000000596,4009.600000023842,1657559674615,4010,,HRV,HRV_0006,2022-07-11 13:20:23
62,"[{'imgObject': {}, 'id': 'fruitsalad', 'src': '/static/foodstim60/fruitsalad.jpg', 'key': 'u', 'origWidth': 410, 'origHeight': 410, 'width': 410, 'height': 410, 'widthPercent': 0.45, 'rescaleHeight': False, 'trialN': 62, 'loaded': True, 'loadedTime': 3351.5999999940395, 'positionName': 'LEFT', 'positionCoords': [511.6, 335], 'bid': 4.21}, {'imgObject': {}, 'id': 'froot loops w milk', 'src': '/static/foodstim60/froot loops w milk.jpg', 'key': 'i', 'origWidth': 410, 'origHeight': 410, 'width': 410, 'height': 410, 'widthPercent': 0.45, 'rescaleHeight': False, 'trialN': 62, 'loaded': True, 'loadedTime': 3391.4000000059605, 'positionName': 'RIGHT', 'positionCoords': [998.4, 335], 'bid': 7.96}]",252336.5,1657559674615,fruitsalad,froot loops w milk,4.21,7.96,3.75,NaN,NaN,NaN,NaN,False,256354.40000000596,4017.9000000059605,1657559678633,4018,,HRV,HRV_0006,2022-07-11 13:20:23
63,"[{'imgObject': {}, 'id': 'cherries', 'src': '/static/foodstim60/cherries.jpg', 'key': 'u', 'origWidth': 410, 'origHeight': 411, 'width': 410, 'height': 411, 'widthPercent': 0.45, 'rescaleHeight': False, 'trialN': 63, 'loaded': True, 'loadedTime': 3258.5, 'positionName': 'LEFT', 'positionCoords': [511.6, 334.5], 'bid': 4.16}, {'imgObject': {}, 'id': 'orange slices', 'src': '/static/foodstim60/orange slices.jpg', 'key': 'i', 'origWidth': 409, 'origHeight': 410, 'width': 409, 'height': 410, 'widthPercent': 0.45, 'rescaleHeight': False, 'trialN': 63, 'loaded': True, 'loadedTime': 2998.199999988079, 'positionName': 'RIGHT', 'positionCoords': [998.4, 335], 'bid': 7.92}]",256354.69999998808,1657559678633,cherries,orange slices,4.16,7.92,3.76,NaN,NaN,NaN,NaN,False,260368.0,4013.300000011921,1657559682647,4014,,HRV,HRV_0006,2022-07-11 13:20:23
64,"[{'imgObject': {}, 'id': 'salad w chicken', 'src': '/static/foodstim60/salad w chicken.jpg', 'key': 'u', 'origWidth': 411, 'origHeight': 411, 'width': 411, 'height': 411, 'widthPercent': 0.45, 'rescaleHeight': False, 'trialN': 64, 'loaded': True, 'loadedTime': 2922.5, 'positionName': 'LEFT', 'positionCoords': [510.6, 334.5], 'bid': 7.85}, {'imgObject': {}, 'id': 'raisin bran w milk', 'src': '/static/foodstim60/raisin bran w milk.jpg', 'key': 'i', 'origWidth': 411, 'origHeight': 411, 'width': 411, 'height': 411, 'widthPercent': 0.45, 'rescaleHeight': False, 'trialN': 64, 'loaded': True, 'loadedTime': 2923.5999999940395, 'positionName': 'RIGHT', 'positionCoords': [998.4, 334.5], 'bid': 3.69}]",260368.09999999404,1657559682647,salad w chicken,raisin bran w milk,7.85,3.69,-4.16,NaN,NaN,NaN,NaN,False,264384.59999999404,4016.5,1657559686663,4016,,HRV,HRV_0006,2022-07-11 13:20:23
65,"[{'imgObject': {}, 'id': 'kiwi', 'src': '/static/foodstim60/kiwi.jpg', 'key': 'u', 'origWidth': 410, 'origHeight': 410, 'width': 410, 'height': 410, 'widthPercent': 0.45, 'rescaleHeight': False, 'trialN': 65, 'loaded': True, 'loadedTime': 2888.9000000059605, 'positionName': 'LEFT', 'positionCoords': [511.6, 335], 'bid': 7.91}, {'imgObject': {}, 'id': 'granola w milk', 'src': '/static/foodstim60/granola w milk.jpg', 'key': 'i', 'origWidth': 410, 'origHeight': 410, 'width': 410, 'height': 410, 'widthPercent': 0.45, 'rescaleHeight': False, 'trialN': 65, 'loaded': True, 'loadedTime': 2420.5, 'positionName': 'RIGHT', 'positionCoords': [998.4, 335], 'bid': 9.16}]",264384.6999999881,1657559686664,kiwi,granola w milk,7.91,9.16,1.25,NaN,NaN,NaN,NaN,False,268398.1999999881,4013.5,1657559690677,4013,,HRV,HRV_0006,2022-07-11 13:20:23
66,"[{'imgObject': {}, 'id': 'bagel and cc', 'src': '/static/foodstim60/bagel and cc.jpg', 'key': 'u', 'origWidth': 410, 'origHeight': 410, 'width': 410, 'height': 410, 'widthPercent': 0.45, 'rescaleHeight': False, 'trialN': 66, 'loaded': True, 'loadedTime': 3415.0999999940395, 'positionName': 'LEFT', 'positionCoords': [511.6, 335], 'bid': 8.96}, {'imgObject': {}, 'id': 'luckycharms', 'src': '/static/foodstim60/luckycharms.jpg', 'key': 'i', 'origWidth': 410, 'origHeight': 409, 'width': 410, 'height': 409, 'widthPercent': 0.45, 'rescaleHeight': False, 'trialN': 66, 'loaded': True, 'loadedTime': 2866.0999999940395, 'positionName': 'RIGHT', 'positionCoords': [998.4, 335.5], 'bid': 8.11}]",268398.5,1657559690677,bagel and cc,luckycharms,8.96,8.11,-0.8500000000000014,NaN,NaN,NaN,NaN,False,272413.59999999404,4015.0999999940395,1657559694692,4015,,HRV,HRV_0006,2022-07-11 13:20:23
67,"[{'imgObject': {}, 'id': 'salad w chicken', 'src': '/static/foodstim60/salad w chicken.jpg', 'key': 'u', 'origWidth': 411, 'origHeight': 411, 'width': 411, 'height': 411, 'widthPercent': 0.45, 'rescaleHeight': False, 'trialN': 67, 'loaded': True, 'loadedTime': 2889.7999999821186, 'positionName': 'LEFT', 'positionCoords': [510.6, 334.5], 'bid': 7.85}, {'imgObject': {}, 'id': 'pear', 'src': '/static/foodstim60/pear.jpg', 'key': 'i', 'origWidth': 411, 'origHeight': 410, 'width': 411, 'height': 410, 'widthPercent': 0.45, 'rescaleHeight': False, 'trialN': 67, 'loaded': True, 'loadedTime': 3391.0999999940395, 'positionName': 'RIGHT', 'positionCoords': [998.4, 335], 'bid': 6.9}]",272413.7999999821,1657559694693,salad w chicken,pear,7.85,6.9,-0.9499999999999993,NaN,NaN,NaN,NaN,False,276421.09999999404,4007.300000011921,1657559698700,4007,,HRV,HRV_0006,2022-07-11 13:20:23
68,"[{'imgObject': {}, 'id': 'blueberries', 'src': '/static/foodstim60/blueberries.jpg', 'key': 'u', 'origWidth': 411, 'origHeight': 411, 'width': 411, 'height': 411, 'widthPercent': 0.45, 'rescaleHeight': False, 'trialN': 68, 'loaded': True, 'loadedTime': 3359.4000000059605, 'positionName': 'LEFT', 'positionCoords': [510.6, 334.5], 'bid': 2.47}, {'imgObject': {}, 'id': 'banana', 'src': '/static/foodstim60/banana.jpg', 'key': 'i', 'origWidth': 410, 'origHeight': 410, 'width': 410, 'height': 410, 'widthPercent': 0.45, 'rescaleHeight': False, 'trialN': 68, 'loaded': True, 'loadedTime': 3436, 'positionName': 'RIGHT', 'positionCoords': [998.4, 335], 'bid': 6.82}]",276421.2999999821,1657559698700,blueberries,banana,2.47,6.82,4.35,NaN,NaN,NaN,NaN,False,280431.7999999821,4010.5,1657559702711,4011,,HRV,HRV_0006,2022-07-11 13:20:23
69,"[{'imgObject': {}, 'id': 'apple slices', 'src': '/static/foodstim60/apple slices.jpg', 'key': 'u', 'origWidth': 409, 'origHeight': 410, 'width': 409, 'height': 410, 'widthPercent': 0.45, 'rescaleHeight': False, 'trialN': 69, 'loaded': True, 'loadedTime': 3373, 'positionName': 'LEFT', 'positionCoords': [512.6, 335], 'bid': 4.07}, {'imgObject': {}, 'id': 'raspberries', 'src': '/static/foodstim60/raspberries.jpg', 'key': 'i', 'origWidth': 411, 'origHeight': 411, 'width': 411, 'height': 411, 'widthPercent': 0.45, 'rescaleHeight': False, 'trialN': 69, 'loaded': True, 'loadedTime': 3014.5999999940395, 'positionName': 'RIGHT', 'positionCoords': [998.4, 334.5], 'bid': 4.91}]",280432.0,1657559702711,apple slices,raspberries,4.07,4.91,0.8399999999999999,NaN,NaN,NaN,NaN,False,284439.90000000596,4007.9000000059605,1657559706719,4008,,HRV,HRV_0006,2022-07-11 13:20:23
70,"[{'imgObject': {}, 'id': 'raspberries', 'src': '/static/foodstim60/raspberries.jpg', 'key': 'u', 'origWidth': 411, 'origHeight': 411, 'width': 411, 'height': 411, 'widthPercent': 0.45, 'rescaleHeight': False, 'trialN': 70, 'loaded': True, 'loadedTime': 3015, 'positionName': 'LEFT', 'positionCoords': [510.6, 334.5], 'bid': 4.91}, {'imgObject': {}, 'id': 'blueberries', 'src': '/static/foodstim60/blueberries.jpg', 'key': 'i', 'origWidth': 411, 'origHeight': 411, 'width': 411, 'height': 411, 'widthPercent': 0.45, 'rescaleHeight': False, 'trialN': 70, 'loaded': True, 'loadedTime': 3359.2999999821186, 'positionName': 'RIGHT', 'positionCoords': [998.4, 334.5], 'bid': 2.47}]",284440.09999999404,1657559706719,raspberries,blueberries,4.91,2.47,-2.44,NaN,NaN,NaN,NaN,False,288444.1999999881,4004.0999999940395,1657559710723,4004,,HRV,HRV_0006,2022-07-11 13:20:23
71,"[{'imgObject': {}, 'id': 'luckycharms', 'src': '/static/foodstim60/luckycharms.jpg', 'key': 'u', 'origWidth': 410, 'origHeight': 409, 'width': 410, 'height': 409, 'widthPercent': 0.45, 'rescaleHeight': False, 'trialN': 71, 'loaded': True, 'loadedTime': 2864.5, 'positionName': 'LEFT', 'positionCoords': [511.6, 335.5], 'bid': 8.11}, {'imgObject': {}, 'id': 'tacos', 'src': '/static/foodstim60/tacos.jpg', 'key': 'i', 'origWidth': 411, 'origHeight': 411, 'width': 411, 'height': 411, 'widthPercent': 0.45, 'rescaleHeight': False, 'trialN': 71, 'loaded': True, 'loadedTime': 2618.4000000059605, 'positionName': 'RIGHT', 'positionCoords': [998.4, 334.5], 'bid': 6.5200000000000005}]",288444.2999999821,1657559710723,luckycharms,tacos,8.11,6.5200000000000005,-1.589999999999999,NaN,NaN,NaN,NaN,False,292463.2999999821,4019.0,1657559714742,4019,,HRV,HRV_0006,2022-07-11 13:20:23
72,"[{'imgObject': {}, 'id': 'luckycharms', 'src': '/static/foodstim60/luckycharms.jpg', 'key': 'u', 'origWidth': 410, 'origHeight': 409, 'width': 410, 'height': 409, 'widthPercent': 0.45, 'rescaleHeight': False, 'trialN': 72, 'loaded': True, 'loadedTime': 2865.7999999821186, 'positionName': 'LEFT', 'positionCoords': [511.6, 335.5], 'bid': 8.11}, {'imgObject': {}, 'id': 'orange slices', 'src': '/static/foodstim60/orange slices.jpg', 'key': 'i', 'origWidth': 409, 'origHeight': 410, 'width': 409, 'height': 410, 'widthPercent': 0.45, 'rescaleHeight': False, 'trialN': 72, 'loaded': True, 'loadedTime': 2998.2999999821186, 'positionName': 'RIGHT', 'positionCoords': [998.4, 335], 'bid': 7.92}]",292463.5,1657559714742,luckycharms,orange slices,8.11,7.92,-0.1899999999999995,NaN,NaN,NaN,NaN,False,296468.40000000596,4004.9000000059605,1657559718747,4005,,HRV,HRV_0006,2022-07-11 13:20:23
73,"[{'imgObject': {}, 'id': 'burger', 'src': '/static/foodstim60/burger.jpg', 'key': 'u', 'origWidth': 409, 'origHeight': 409, 'width': 409, 'height': 409, 'widthPercent': 0.45, 'rescaleHeight': False, 'trialN': 73, 'loaded': True, 'loadedTime': 2869.4000000059605, 'positionName': 'LEFT', 'positionCoords': [512.6, 335.5], 'bid': 8.43}, {'imgObject': {}, 'id': 'froot loops w milk', 'src': '/static/foodstim60/froot loops w milk.jpg', 'key': 'i', 'origWidth': 410, 'origHeight': 410, 'width': 410, 'height': 410, 'widthPercent': 0.45, 'rescaleHeight': False, 'trialN': 73, 'loaded': True, 'loadedTime': 3392.199999988079, 'positionName': 'RIGHT', 'positionCoords': [998.4, 335], 'bid': 7.96}]",296468.59999999404,1657559718747,burger,froot loops w milk,8.43,7.96,-0.46999999999999975,NaN,NaN,NaN,NaN,False,300498.2999999821,4029.699999988079,1657559722777,4030,,HRV,HRV_0006,2022-07-11 13:20:23
74,"[{'imgObject': {}, 'id': 'steak', 'src': '/static/foodstim60/steak.jpg', 'key': 'u', 'origWidth': 410, 'origHeight': 410, 'width': 410, 'height': 410, 'widthPercent': 0.45, 'rescaleHeight': False, 'trialN': 74, 'loaded': True, 'loadedTime': 2839.2999999821186, 'positionName': 'LEFT', 'positionCoords': [511.6, 335], 'bid': 4.64}, {'imgObject': {}, 'id': 'raspberries', 'src': '/static/foodstim60/raspberries.jpg', 'key': 'i', 'origWidth': 411, 'origHeight': 411, 'width': 411, 'height': 411, 'widthPercent': 0.45, 'rescaleHeight': False, 'trialN': 74, 'loaded': True, 'loadedTime': 3014.9000000059605, 'positionName': 'RIGHT', 'positionCoords': [998.4, 334.5], 'bid': 4.91}]",300498.59999999404,1657559722777,steak,raspberries,4.64,4.91,0.27000000000000046,NaN,NaN,NaN,NaN,False,304512.1999999881,4013.5999999940395,1657559726791,4014,,HRV,HRV_0006,2022-07-11 13:20:23
75,"[{'imgObject': {}, 'id': 'hotdog w must', 'src': '/static/foodstim60/hotdog w must.jpg', 'key': 'u', 'origWidth': 409, 'origHeight': 409, 'width': 409, 'height': 409, 'widthPercent': 0.45, 'rescaleHeight': False, 'trialN': 75, 'loaded': True, 'loadedTime': 3334.2999999821186, 'positionName': 'LEFT', 'positionCoords': [512.6, 335.5], 'bid': 1.47}, {'imgObject': {}, 'id': 'omelette', 'src': '/static/foodstim60/omelette.jpg', 'key': 'i', 'origWidth': 410, 'origHeight': 409, 'width': 410, 'height': 409, 'widthPercent': 0.45, 'rescaleHeight': False, 'trialN': 75, 'loaded': True, 'loadedTime': 3279.199999988079, 'positionName': 'RIGHT', 'positionCoords': [998.4, 335.5], 'bid': 2.07}]",304512.5,1657559726791,hotdog w must,omelette,1.47,2.07,0.5999999999999999,NaN,NaN,NaN,NaN,False,308523.90000000596,4011.4000000059605,1657559730803,4012,,HRV,HRV_0006,2022-07-11 13:20:23
76,"[{'imgObject': {}, 'id': 'rigatoni', 'src': '/static/foodstim60/rigatoni.jpg', 'key': 'u', 'origWidth': 411, 'origHeight': 411, 'width': 411, 'height': 411, 'widthPercent': 0.45, 'rescaleHeight': False, 'trialN': 76, 'loaded': True, 'loadedTime': 2679.9000000059605, 'positionName': 'LEFT', 'positionCoords': [510.6, 334.5], 'bid': 5.79}, {'imgObject': {}, 'id': 'cocktailshrimp', 'src': '/static/foodstim60/cocktailshrimp.jpg', 'key': 'i', 'origWidth': 410, 'origHeight': 410, 'width': 410, 'height': 410, 'widthPercent': 0.45, 'rescaleHeight': False, 'trialN': 76, 'loaded': True, 'loadedTime': 2353.699999988079, 'positionName': 'RIGHT', 'positionCoords': [998.4, 335], 'bid': 9.61}]",308524.09999999404,1657559730803,rigatoni,cocktailshrimp,5.79,9.61,3.8199999999999994,rigatoni,u,3.4000000059604645,4,True,309033.09999999404,509.0,1657559731312,509,3.800000011920929,HRV,HRV_0006,2022-07-11 13:20:23
77,"[{'imgObject': {}, 'id': 'baked potato', 'src': '/static/foodstim60/baked potato.jpg', 'key': 'u', 'origWidth': 409, 'origHeight': 410, 'width': 409, 'height': 410, 'widthPercent': 0.45, 'rescaleHeight': False, 'trialN': 77, 'loaded': True, 'loadedTime': 2483, 'positionName': 'LEFT', 'positionCoords': [512.6, 335], 'bid': 5.08}, {'imgObject': {}, 'id': 'turkeysandwich', 'src': '/static/foodstim60/turkeysandwich.jpg', 'key': 'i', 'origWidth': 409, 'origHeight': 409, 'width': 409, 'height': 409, 'widthPercent': 0.45, 'rescaleHeight': False, 'trialN': 77, 'loaded': True, 'loadedTime': 3190.4000000059605, 'positionName': 'RIGHT', 'positionCoords': [998.4, 335.5], 'bid': 5.82}]",309033.2999999821,1657559731312,baked potato,turkeysandwich,5.08,5.82,0.7400000000000002,NaN,NaN,NaN,NaN,False,313037.0,4003.7000000178814,1657559735316,4004,,HRV,HRV_0006,2022-07-11 13:20:23
78,"[{'imgObject': {}, 'id': 'eggsalad', 'src': '/static/foodstim60/eggsalad.jpg', 'key': 'u', 'origWidth': 410, 'origHeight': 409, 'width': 410, 'height': 409, 'widthPercent': 0.45, 'rescaleHeight': False, 'trialN': 78, 'loaded': True, 'loadedTime': 3435.2999999821186, 'positionName': 'LEFT', 'positionCoords': [511.6, 335.5], 'bid': 8.81}, {'imgObject': {}, 'id': 'pear', 'src': '/static/foodstim60/pear.jpg', 'key': 'i', 'origWidth': 411, 'origHeight': 410, 'width': 411, 'height': 410, 'widthPercent': 0.45, 'rescaleHeight': False, 'trialN': 78, 'loaded': True, 'loadedTime': 3374, 'positionName': 'RIGHT', 'positionCoords': [998.4, 335], 'bid': 6.9}]",313037.09999999404,1657559735316,eggsalad,pear,8.81,6.9,-1.9100000000000001,NaN,NaN,NaN,NaN,False,317055.7999999821,4018.699999988079,1657559739334,4018,,HRV,HRV_0006,2022-07-11 13:20:23
79,"[{'imgObject': {}, 'id': 'lox', 'src': '/static/foodstim60/lox.jpg', 'key': 'u', 'origWidth': 410, 'origHeight': 411, 'width': 410, 'height': 411, 'widthPercent': 0.45, 'rescaleHeight': False, 'trialN': 79, 'loaded': True, 'loadedTime': 2559.9000000059605, 'positionName': 'LEFT', 'positionCoords': [511.6, 334.5], 'bid': 1.44}, {'imgObject': {}, 'id': 'cheerios', 'src': '/static/foodstim60/cheerios.jpg', 'key': 'i', 'origWidth': 409, 'origHeight': 410, 'width': 409, 'height': 410, 'widthPercent': 0.45, 'rescaleHeight': False, 'trialN': 79, 'loaded': True, 'loadedTime': 3366.4000000059605, 'positionName': 'RIGHT', 'positionCoords': [998.4, 335], 'bid': 6.2700000000000005}]",317056.0,1657559739335,lox,cheerios,1.44,6.2700000000000005,4.83,NaN,NaN,NaN,NaN,False,321073.90000000596,4017.9000000059605,1657559743353,4018,,HRV,HRV_0006,2022-07-11 13:20:23
80,"[{'imgObject': {}, 'id': 'sweetpotato', 'src': '/static/foodstim60/sweetpotato.jpg', 'key': 'u', 'origWidth': 410, 'origHeight': 410, 'width': 410, 'height': 410, 'widthPercent': 0.45, 'rescaleHeight': False, 'trialN': 80, 'loaded': True, 'loadedTime': 2535.5999999940395, 'positionName': 'LEFT', 'positionCoords': [511.6, 335], 'bid': 1.02}, {'imgObject': {}, 'id': 'rigatoni and sauce', 'src': '/static/foodstim60/rigatoni and sauce.jpg', 'key': 'i', 'origWidth': 410, 'origHeight': 411, 'width': 410, 'height': 411, 'widthPercent': 0.45, 'rescaleHeight': False, 'trialN': 80, 'loaded': True, 'loadedTime': 3436.4000000059605, 'positionName': 'RIGHT', 'positionCoords': [998.4, 334.5], 'bid': 3.17}]",321074.09999999404,1657559743353,sweetpotato,rigatoni and sauce,1.02,3.17,2.15,NaN,NaN,NaN,NaN,False,325090.1999999881,4016.0999999940395,1657559747369,4016,,HRV,HRV_0006,2022-07-11 13:20:23
81,"[{'imgObject': {}, 'id': 'mango', 'src': '/static/foodstim60/mango.jpg', 'key': 'u', 'origWidth': 411, 'origHeight': 411, 'width': 411, 'height': 411, 'widthPercent': 0.45, 'rescaleHeight': False, 'trialN': 81, 'loaded': True, 'loadedTime': 2596.5999999940395, 'positionName': 'LEFT', 'positionCoords': [510.6, 334.5], 'bid': 2.62}, {'imgObject': {}, 'id': 'blueberries', 'src': '/static/foodstim60/blueberries.jpg', 'key': 'i', 'origWidth': 411, 'origHeight': 411, 'width': 411, 'height': 411, 'widthPercent': 0.45, 'rescaleHeight': False, 'trialN': 81, 'loaded': True, 'loadedTime': 3359.4000000059605, 'positionName': 'RIGHT', 'positionCoords': [998.4, 334.5], 'bid': 2.47}]",325090.2999999821,1657559747369,mango,blueberries,2.62,2.47,-0.1499999999999999,NaN,NaN,NaN,NaN,False,329105.59999999404,4015.300000011921,1657559751384,4015,,HRV,HRV_0006,2022-07-11 13:20:23
82,"[{'imgObject': {}, 'id': 'turkey sandwich', 'src': '/static/foodstim60/turkey sandwich.jpg', 'key': 'u', 'origWidth': 409, 'origHeight': 409, 'width': 409, 'height': 409, 'widthPercent': 0.45, 'rescaleHeight': False, 'trialN': 82, 'loaded': True, 'loadedTime': 3367.4000000059605, 'positionName': 'LEFT', 'positionCoords': [512.6, 335.5], 'bid': 6.58}, {'imgObject': {}, 'id': 'corn cob', 'src': '/static/foodstim60/corn cob.jpg', 'key': 'i', 'origWidth': 411, 'origHeight': 411, 'width': 411, 'height': 411, 'widthPercent': 0.45, 'rescaleHeight': False, 'trialN': 82, 'loaded': True, 'loadedTime': 3224.699999988079, 'positionName': 'RIGHT', 'positionCoords': [998.4, 334.5], 'bid': 7.52}]",329105.7999999821,1657559751385,turkey sandwich,corn cob,6.58,7.52,0.9399999999999995,NaN,NaN,NaN,NaN,False,333110.1999999881,4004.4000000059605,1657559755389,4004,,HRV,HRV_0006,2022-07-11 13:20:23
83,"[{'imgObject': {}, 'id': 'popsicles', 'src': '/static/foodstim60/popsicles.jpg', 'key': 'u', 'origWidth': 410, 'origHeight': 410, 'width': 410, 'height': 410, 'widthPercent': 0.45, 'rescaleHeight': False, 'trialN': 83, 'loaded': True, 'loadedTime': 3119.9000000059605, 'positionName': 'LEFT', 'positionCoords': [511.6, 335], 'bid': 5.64}, {'imgObject': {}, 'id': 'strawberries', 'src': '/static/foodstim60/strawberries.jpg', 'key': 'i', 'origWidth': 410, 'origHeight': 410, 'width': 410, 'height': 410, 'widthPercent': 0.45, 'rescaleHeight': False, 'trialN': 83, 'loaded': True, 'loadedTime': 3372, 'positionName': 'RIGHT', 'positionCoords': [998.4, 335], 'bid': 6.75}]",333110.40000000596,1657559755389,popsicles,strawberries,5.64,6.75,1.1100000000000003,NaN,NaN,NaN,NaN,False,337138.6999999881,4028.2999999821186,1657559759417,4028,,HRV,HRV_0006,2022-07-11 13:20:23
84,"[{'imgObject': {}, 'id': 'bagel and cc', 'src': '/static/foodstim60/bagel and cc.jpg', 'key': 'u', 'origWidth': 410, 'origHeight': 410, 'width': 410, 'height': 410, 'widthPercent': 0.45, 'rescaleHeight': False, 'trialN': 84, 'loaded': True, 'loadedTime': 3415.9000000059605, 'positionName': 'LEFT', 'positionCoords': [511.6, 335], 'bid': 8.96}, {'imgObject': {}, 'id': 'hashbrowns', 'src': '/static/foodstim60/hashbrowns.jpg', 'key': 'i', 'origWidth': 411, 'origHeight': 410, 'width': 411, 'height': 410, 'widthPercent': 0.45, 'rescaleHeight': False, 'trialN': 84, 'loaded': True, 'loadedTime': 2753.0999999940395, 'positionName': 'RIGHT', 'positionCoords': [998.4, 335], 'bid': 6.96}]",337138.90000000596,1657559759418,bagel and cc,hashbrowns,8.96,6.96,-2.000000000000001,NaN,NaN,NaN,NaN,False,341152.6999999881,4013.7999999821186,1657559763431,4013,,HRV,HRV_0006,2022-07-11 13:20:23
85,"[{'imgObject': {}, 'id': 'corn cob', 'src': '/static/foodstim60/corn cob.jpg', 'key': 'u', 'origWidth': 411, 'origHeight': 411, 'width': 411, 'height': 411, 'widthPercent': 0.45, 'rescaleHeight': False, 'trialN': 85, 'loaded': True, 'loadedTime': 3224, 'positionName': 'LEFT', 'positionCoords': [510.6, 334.5], 'bid': 7.52}, {'imgObject': {}, 'id': 'sushi w_condiments', 'src': '/static/foodstim60/sushi w_condiments.jpg', 'key': 'i', 'origWidth': 410, 'origHeight': 410, 'width': 410, 'height': 410, 'widthPercent': 0.45, 'rescaleHeight': False, 'trialN': 85, 'loaded': True, 'loadedTime': 3206.2999999821186, 'positionName': 'RIGHT', 'positionCoords': [998.4, 335], 'bid': 8.44}]",341152.90000000596,1657559763432,corn cob,sushi w_condiments,7.52,8.44,0.9199999999999999,NaN,NaN,NaN,NaN,False,345155.6999999881,4002.7999999821186,1657559767434,4002,,HRV,HRV_0006,2022-07-11 13:20:23
86,"[{'imgObject': {}, 'id': 'chickenfingers', 'src': '/static/foodstim60/chickenfingers.jpg', 'key': 'u', 'origWidth': 410, 'origHeight': 410, 'width': 410, 'height': 410, 'widthPercent': 0.45, 'rescaleHeight': False, 'trialN': 86, 'loaded': True, 'loadedTime': 3432.2999999821186, 'positionName': 'LEFT', 'positionCoords': [511.6, 335], 'bid': 7.59}, {'imgObject': {}, 'id': 'seaweed', 'src': '/static/foodstim60/seaweed.jpg', 'key': 'i', 'origWidth': 410, 'origHeight': 410, 'width': 410, 'height': 410, 'widthPercent': 0.45, 'rescaleHeight': False, 'trialN': 86, 'loaded': True, 'loadedTime': 2732.699999988079, 'positionName': 'RIGHT', 'positionCoords': [998.4, 335], 'bid': 8.63}]",345155.90000000596,1657559767435,chickenfingers,seaweed,7.59,8.63,1.040000000000001,NaN,NaN,NaN,NaN,False,349168.40000000596,4012.5,1657559771447,4012,,HRV,HRV_0006,2022-07-11 13:20:23
87,"[{'imgObject': {}, 'id': 'cherry tomato', 'src': '/static/foodstim60/cherry tomato.jpg', 'key': 'u', 'origWidth': 410, 'origHeight': 410, 'width': 410, 'height': 410, 'widthPercent': 0.45, 'rescaleHeight': False, 'trialN': 87, 'loaded': True, 'loadedTime': 3316.4000000059605, 'positionName': 'LEFT', 'positionCoords': [511.6, 335], 'bid': 0.5}, {'imgObject': {}, 'id': 'turkeysandwich', 'src': '/static/foodstim60/turkeysandwich.jpg', 'key': 'i', 'origWidth': 409, 'origHeight': 409, 'width': 409, 'height': 409, 'widthPercent': 0.45, 'rescaleHeight': False, 'trialN': 87, 'loaded': True, 'loadedTime': 3190.199999988079, 'positionName': 'RIGHT', 'positionCoords': [998.4, 335.5], 'bid': 5.82}]",349168.59999999404,1657559771447,cherry tomato,turkeysandwich,0.5,5.82,5.32,NaN,NaN,NaN,NaN,False,353183.90000000596,4015.300000011921,1657559775463,4016,,HRV,HRV_0006,2022-07-11 13:20:23
88,"[{'imgObject': {}, 'id': 'turkey sandwich', 'src': '/static/foodstim60/turkey sandwich.jpg', 'key': 'u', 'origWidth': 409, 'origHeight': 409, 'width': 409, 'height': 409, 'widthPercent': 0.45, 'rescaleHeight': False, 'trialN': 88, 'loaded': True, 'loadedTime': 3367.5999999940395, 'positionName': 'LEFT', 'positionCoords': [512.6, 335.5], 'bid': 6.58}, {'imgObject': {}, 'id': 'burger', 'src': '/static/foodstim60/burger.jpg', 'key': 'i', 'origWidth': 409, 'origHeight': 409, 'width': 409, 'height': 409, 'widthPercent': 0.45, 'rescaleHeight': False, 'trialN': 88, 'loaded': True, 'loadedTime': 2866.7999999821186, 'positionName': 'RIGHT', 'positionCoords': [998.4, 335.5], 'bid': 8.43}]",353184.09999999404,1657559775463,turkey sandwich,burger,6.58,8.43,1.8499999999999996,NaN,NaN,NaN,NaN,False,357199.2999999821,4015.199999988079,1657559779478,4015,,HRV,HRV_0006,2022-07-11 13:20:23
89,"[{'imgObject': {}, 'id': 'hotdog w must', 'src': '/static/foodstim60/hotdog w must.jpg', 'key': 'u', 'origWidth': 409, 'origHeight': 409, 'width': 409, 'height': 409, 'widthPercent': 0.45, 'rescaleHeight': False, 'trialN': 89, 'loaded': True, 'loadedTime': 3316.5, 'positionName': 'LEFT', 'positionCoords': [512.6, 335.5], 'bid': 1.47}, {'imgObject': {}, 'id': 'shreddedwheatwithmilk', 'src': '/static/foodstim60/shreddedwheatwithmilk.jpg', 'key': 'i', 'origWidth': 410, 'origHeight': 410, 'width': 410, 'height': 410, 'widthPercent': 0.45, 'rescaleHeight': False, 'trialN': 89, 'loaded': True, 'loadedTime': 3416.5999999940395, 'positionName': 'RIGHT', 'positionCoords': [998.4, 335], 'bid': 6.33}]",357199.5,1657559779478,hotdog w must,shreddedwheatwithmilk,1.47,6.33,4.86,NaN,NaN,NaN,NaN,False,361210.09999999404,4010.5999999940395,1657559783489,4011,,HRV,HRV_0006,2022-07-11 13:20:23
90,"[{'imgObject': {}, 'id': 'chicken nuggets2', 'src': '/static/foodstim60/chicken nuggets2.jpg', 'key': 'u', 'origWidth': 410, 'origHeight': 409, 'width': 410, 'height': 409, 'widthPercent': 0.45, 'rescaleHeight': False, 'trialN': 90, 'loaded': True, 'loadedTime': 3370, 'positionName': 'LEFT', 'positionCoords': [511.6, 335.5], 'bid': 3.22}, {'imgObject': {}, 'id': 'lox', 'src': '/static/foodstim60/lox.jpg', 'key': 'i', 'origWidth': 410, 'origHeight': 411, 'width': 410, 'height': 411, 'widthPercent': 0.45, 'rescaleHeight': False, 'trialN': 90, 'loaded': True, 'loadedTime': 2558.2999999821186, 'positionName': 'RIGHT', 'positionCoords': [998.4, 334.5], 'bid': 1.44}]",366186.1999999881,1657559788465,chicken nuggets2,lox,3.22,1.44,-1.7800000000000002,NaN,NaN,NaN,NaN,False,370197.2999999821,4011.0999999940395,1657559792476,4011,,HRV,HRV_0006,2022-07-11 13:20:23
91,"[{'imgObject': {}, 'id': 'granola w milk', 'src': '/static/foodstim60/granola w milk.jpg', 'key': 'u', 'origWidth': 410, 'origHeight': 410, 'width': 410, 'height': 410, 'widthPercent': 0.45, 'rescaleHeight': False, 'trialN': 91, 'loaded': True, 'loadedTime': 2419.2999999821186, 'positionName': 'LEFT', 'positionCoords': [511.6, 335], 'bid': 9.16}, {'imgObject': {}, 'id': 'corn cob', 'src': '/static/foodstim60/corn cob.jpg', 'key': 'i', 'origWidth': 411, 'origHeight': 411, 'width': 411, 'height': 411, 'widthPercent': 0.45, 'rescaleHeight': False, 'trialN': 91, 'loaded': True, 'loadedTime': 3224.9000000059605, 'positionName': 'RIGHT', 'positionCoords': [998.4, 334.5], 'bid': 7.52}]",370197.59999999404,1657559792476,granola w milk,corn cob,9.16,7.52,-1.6400000000000006,NaN,NaN,NaN,NaN,False,374213.09999999404,4015.5,1657559796492,4016,,HRV,HRV_0006,2022-07-11 13:20:23
92,"[{'imgObject': {}, 'id': 'eggs', 'src': '/static/foodstim60/eggs.jpg', 'key': 'u', 'origWidth': 409, 'origHeight': 409, 'width': 409, 'height': 409, 'widthPercent': 0.45, 'rescaleHeight': False, 'trialN': 92, 'loaded': True, 'loadedTime': 3438.4000000059605, 'positionName': 'LEFT', 'positionCoords': [512.6, 335.5], 'bid': 5.13}, {'imgObject': {}, 'id': 'bagel plain', 'src': '/static/foodstim60/bagel plain.jpg', 'key': 'i', 'origWidth': 410, 'origHeight': 410, 'width': 410, 'height': 410, 'widthPercent': 0.45, 'rescaleHeight': False, 'trialN': 92, 'loaded': True, 'loadedTime': 3172.199999988079, 'positionName': 'RIGHT', 'positionCoords': [998.4, 335], 'bid': 6.17}]",374213.2999999821,1657559796492,eggs,bagel plain,5.13,6.17,1.04,NaN,NaN,NaN,NaN,False,378218.6999999881,4005.4000000059605,1657559800497,4005,,HRV,HRV_0006,2022-07-11 13:20:23
93,"[{'imgObject': {}, 'id': 'salad w chicken', 'src': '/static/foodstim60/salad w chicken.jpg', 'key': 'u', 'origWidth': 411, 'origHeight': 411, 'width': 411, 'height': 411, 'widthPercent': 0.45, 'rescaleHeight': False, 'trialN': 93, 'loaded': True, 'loadedTime': 2905.199999988079, 'positionName': 'LEFT', 'positionCoords': [510.6, 334.5], 'bid': 7.85}, {'imgObject': {}, 'id': 'chickenfingers', 'src': '/static/foodstim60/chickenfingers.jpg', 'key': 'i', 'origWidth': 410, 'origHeight': 410, 'width': 410, 'height': 410, 'widthPercent': 0.45, 'rescaleHeight': False, 'trialN': 93, 'loaded': True, 'loadedTime': 3417.199999988079, 'positionName': 'RIGHT', 'positionCoords': [998.4, 335], 'bid': 7.59}]",378218.90000000596,1657559800498,salad w chicken,chickenfingers,7.85,7.59,-0.2599999999999998,NaN,NaN,NaN,NaN,False,382232.5,4013.5999999940395,1657559804511,4013,,HRV,HRV_0006,2022-07-11 13:20:23
94,"[{'imgObject': {}, 'id': 'rigatoni', 'src': '/static/foodstim60/rigatoni.jpg', 'key': 'u', 'origWidth': 411, 'origHeight': 411, 'width': 411, 'height': 411, 'widthPercent': 0.45, 'rescaleHeight': False, 'trialN': 94, 'loaded': True, 'loadedTime': 2661.4000000059605, 'positionName': 'LEFT', 'positionCoords': [510.6, 334.5], 'bid': 5.79}, {'imgObject': {}, 'id': 'bagel plain', 'src': '/static/foodstim60/bagel plain.jpg', 'key': 'i', 'origWidth': 410, 'origHeight': 410, 'width': 410, 'height': 410, 'widthPercent': 0.45, 'rescaleHeight': False, 'trialN': 94, 'loaded': True, 'loadedTime': 3171.699999988079, 'positionName': 'RIGHT', 'positionCoords': [998.4, 335], 'bid': 6.17}]",382232.6999999881,1657559804511,rigatoni,bagel plain,5.79,6.17,0.3799999999999999,NaN,NaN,NaN,NaN,False,386238.2999999821,4005.5999999940395,1657559808517,4006,,HRV,HRV_0006,2022-07-11 13:20:23
95,"[{'imgObject': {}, 'id': 'orange slices', 'src': '/static/foodstim60/orange slices.jpg', 'key': 'u', 'origWidth': 409, 'origHeight': 410, 'width': 409, 'height': 410, 'widthPercent': 0.45, 'rescaleHeight': False, 'trialN': 95, 'loaded': True, 'loadedTime': 2997.9000000059605, 'positionName': 'LEFT', 'positionCoords': [512.6, 335], 'bid': 7.92}, {'imgObject': {}, 'id': 'cheerios', 'src': '/static/foodstim60/cheerios.jpg', 'key': 'i', 'origWidth': 409, 'origHeight': 410, 'width': 409, 'height': 410, 'widthPercent': 0.45, 'rescaleHeight': False, 'trialN': 95, 'loaded': True, 'loadedTime': 3365.4000000059605, 'positionName': 'RIGHT', 'positionCoords': [998.4, 335], 'bid': 6.2700000000000005}]",386238.59999999404,1657559808517,orange slices,cheerios,7.92,6.2700000000000005,-1.6499999999999995,NaN,NaN,NaN,NaN,False,390252.59999999404,4014.0,1657559812531,4014,,HRV,HRV_0006,2022-07-11 13:20:23
96,"[{'imgObject': {}, 'id': 'cherry tomato', 'src': '/static/foodstim60/cherry tomato.jpg', 'key': 'u', 'origWidth': 410, 'origHeight': 410, 'width': 410, 'height': 410, 'widthPercent': 0.45, 'rescaleHeight': False, 'trialN': 96, 'loaded': True, 'loadedTime': 3300.4000000059605, 'positionName': 'LEFT', 'positionCoords': [511.6, 335], 'bid': 0.5}, {'imgObject': {}, 'id': 'olives', 'src': '/static/foodstim60/olives.jpg', 'key': 'i', 'origWidth': 410, 'origHeight': 410, 'width': 410, 'height': 410, 'widthPercent': 0.45, 'rescaleHeight': False, 'trialN': 96, 'loaded': True, 'loadedTime': 3138.699999988079, 'positionName': 'RIGHT', 'positionCoords': [998.4, 335], 'bid': 3.64}]",390252.90000000596,1657559812532,cherry tomato,olives,0.5,3.64,3.14,NaN,NaN,NaN,NaN,False,394269.40000000596,4016.5,1657559816548,4016,,HRV,HRV_0006,2022-07-11 13:20:23
97,"[{'imgObject': {}, 'id': 'salmon', 'src': '/static/foodstim60/salmon.jpg', 'key': 'u', 'origWidth': 410, 'origHeight': 409, 'width': 410, 'height': 409, 'widthPercent': 0.45, 'rescaleHeight': False, 'trialN': 97, 'loaded': True, 'loadedTime': 3360.9000000059605, 'positionName': 'LEFT', 'positionCoords': [511.6, 335.5], 'bid': 5.67}, {'imgObject': {}, 'id': 'banana', 'src': '/static/foodstim60/banana.jpg', 'key': 'i', 'origWidth': 410, 'origHeight': 410, 'width': 410, 'height': 410, 'widthPercent': 0.45, 'rescaleHeight': False, 'trialN': 97, 'loaded': True, 'loadedTime': 3436.2999999821186, 'positionName': 'RIGHT', 'positionCoords': [998.4, 335], 'bid': 6.82}]",394269.59999999404,1657559816548,salmon,banana,5.67,6.82,1.1500000000000004,NaN,NaN,NaN,NaN,False,398274.5,4004.9000000059605,1657559820553,4005,,HRV,HRV_0006,2022-07-11 13:20:23
98,"[{'imgObject': {}, 'id': 'cherries', 'src': '/static/foodstim60/cherries.jpg', 'key': 'u', 'origWidth': 410, 'origHeight': 411, 'width': 410, 'height': 411, 'widthPercent': 0.45, 'rescaleHeight': False, 'trialN': 98, 'loaded': True, 'loadedTime': 3242.2999999821186, 'positionName': 'LEFT', 'positionCoords': [511.6, 334.5], 'bid': 4.16}, {'imgObject': {}, 'id': 'rigatoni and sauce', 'src': '/static/foodstim60/rigatoni and sauce.jpg', 'key': 'i', 'origWidth': 410, 'origHeight': 411, 'width': 410, 'height': 411, 'widthPercent': 0.45, 'rescaleHeight': False, 'trialN': 98, 'loaded': True, 'loadedTime': 3437.2999999821186, 'positionName': 'RIGHT', 'positionCoords': [998.4, 334.5], 'bid': 3.17}]",398274.7999999821,1657559820554,cherries,rigatoni and sauce,4.16,3.17,-0.9900000000000002,NaN,NaN,NaN,NaN,False,402284.6999999881,4009.9000000059605,1657559824563,4009,,HRV,HRV_0006,2022-07-11 13:20:23
99,"[{'imgObject': {}, 'id': 'edamame', 'src': '/static/foodstim60/edamame.jpg', 'key': 'u', 'origWidth': 409, 'origHeight': 410, 'width': 409, 'height': 410, 'widthPercent': 0.45, 'rescaleHeight': False, 'trialN': 99, 'loaded': True, 'loadedTime': 3066.699999988079, 'positionName': 'LEFT', 'positionCoords': [512.6, 335], 'bid': 4.46}, {'imgObject': {}, 'id': 'steak', 'src': '/static/foodstim60/steak.jpg', 'key': 'i', 'origWidth': 410, 'origHeight': 410, 'width': 410, 'height': 410, 'widthPercent': 0.45, 'rescaleHeight': False, 'trialN': 99, 'loaded': True, 'loadedTime': 2839.9000000059605, 'positionName': 'RIGHT', 'positionCoords': [998.4, 335], 'bid': 4.64}]",402284.90000000596,1657559824564,edamame,steak,4.46,4.64,0.17999999999999972,NaN,NaN,NaN,NaN,False,406291.7999999821,4006.899999976158,1657559828570,4006,,HRV,HRV_0006,2022-07-11 13:20:23
100,"[{'imgObject': {}, 'id': 'olives', 'src': '/static/foodstim60/olives.jpg', 'key': 'u', 'origWidth': 410, 'origHeight': 410, 'width': 410, 'height': 410, 'widthPercent': 0.45, 'rescaleHeight': False, 'trialN': 100, 'loaded': True, 'loadedTime': 3153.7999999821186, 'positionName': 'LEFT', 'positionCoords': [511.6, 335], 'bid': 3.64}, {'imgObject': {}, 'id': 'veggieswithdip', 'src': '/static/foodstim60/veggieswithdip.jpg', 'key': 'i', 'origWidth': 409, 'origHeight': 409, 'width': 409, 'height': 409, 'widthPercent': 0.45, 'rescaleHeight': False, 'trialN': 100, 'loaded': True, 'loadedTime': 3048.4000000059605, 'positionName': 'RIGHT', 'positionCoords': [998.4, 335.5], 'bid': 4.61}]",406292.0,1657559828571,olives,veggieswithdip,3.64,4.61,0.9700000000000002,NaN,NaN,NaN,NaN,False,410295.2999999821,4003.2999999821186,1657559832574,4003,,HRV,HRV_0006,2022-07-11 13:20:23
101,"[{'imgObject': {}, 'id': 'mac & cheese', 'src': '/static/foodstim60/mac & cheese.jpg', 'key': 'u', 'origWidth': 410, 'origHeight': 410, 'width': 410, 'height': 410, 'widthPercent': 0.45, 'rescaleHeight': False, 'trialN': 101, 'loaded': True, 'loadedTime': 3259.5, 'positionName': 'LEFT', 'positionCoords': [511.6, 335], 'bid': 6.17}, {'imgObject': {}, 'id': 'fried eggs', 'src': '/static/foodstim60/fried eggs.jpg', 'key': 'i', 'origWidth': 410, 'origHeight': 410, 'width': 410, 'height': 410, 'widthPercent': 0.45, 'rescaleHeight': False, 'trialN': 101, 'loaded': True, 'loadedTime': 3083.5, 'positionName': 'RIGHT', 'positionCoords': [998.4, 335], 'bid': 5.4}]",410295.5,1657559832574,mac & cheese,fried eggs,6.17,5.4,-0.7699999999999996,NaN,NaN,NaN,NaN,False,414322.6999999881,4027.199999988079,1657559836601,4027,,HRV,HRV_0006,2022-07-11 13:20:23
102,"[{'imgObject': {}, 'id': 'burrito', 'src': '/static/foodstim60/burrito.jpg', 'key': 'u', 'origWidth': 410, 'origHeight': 410, 'width': 410, 'height': 410, 'widthPercent': 0.45, 'rescaleHeight': False, 'trialN': 102, 'loaded': True, 'loadedTime': 2697, 'positionName': 'LEFT', 'positionCoords': [511.6, 335], 'bid': 3.16}, {'imgObject': {}, 'id': 'fried eggs', 'src': '/static/foodstim60/fried eggs.jpg', 'key': 'i', 'origWidth': 410, 'origHeight': 410, 'width': 410, 'height': 410, 'widthPercent': 0.45, 'rescaleHeight': False, 'trialN': 102, 'loaded': True, 'loadedTime': 3082.7999999821186, 'positionName': 'RIGHT', 'positionCoords': [998.4, 335], 'bid': 5.4}]",414323.0,1657559836602,burrito,fried eggs,3.16,5.4,2.24,NaN,NaN,NaN,NaN,False,418336.5,4013.5,1657559840615,4013,,HRV,HRV_0006,2022-07-11 13:20:23
103,"[{'imgObject': {}, 'id': 'strawberries', 'src': '/static/foodstim60/strawberries.jpg', 'key': 'u', 'origWidth': 410, 'origHeight': 410, 'width': 410, 'height': 410, 'widthPercent': 0.45, 'rescaleHeight': False, 'trialN': 103, 'loaded': True, 'loadedTime': 3371.9000000059605, 'positionName': 'LEFT', 'positionCoords': [511.6, 335], 'bid': 6.75}, {'imgObject': {}, 'id': 'yogurt no spoon', 'src': '/static/foodstim60/yogurt no spoon.jpg', 'key': 'i', 'origWidth': 411, 'origHeight': 410, 'width': 411, 'height': 410, 'widthPercent': 0.45, 'rescaleHeight': False, 'trialN': 103, 'loaded': True, 'loadedTime': 2860.199999988079, 'positionName': 'RIGHT', 'positionCoords': [998.4, 335], 'bid': 2.16}]",418336.7999999821,1657559840615,strawberries,yogurt no spoon,6.75,2.16,-4.59,NaN,NaN,NaN,NaN,False,422350.40000000596,4013.600000023842,1657559844629,4014,,HRV,HRV_0006,2022-07-11 13:20:23
104,"[{'imgObject': {}, 'id': 'apple slices', 'src': '/static/foodstim60/apple slices.jpg', 'key': 'u', 'origWidth': 409, 'origHeight': 410, 'width': 409, 'height': 410, 'widthPercent': 0.45, 'rescaleHeight': False, 'trialN': 104, 'loaded': True, 'loadedTime': 3373.0999999940395, 'positionName': 'LEFT', 'positionCoords': [512.6, 335], 'bid': 4.07}, {'imgObject': {}, 'id': 'fruitsalad', 'src': '/static/foodstim60/fruitsalad.jpg', 'key': 'i', 'origWidth': 410, 'origHeight': 410, 'width': 410, 'height': 410, 'widthPercent': 0.45, 'rescaleHeight': False, 'trialN': 104, 'loaded': True, 'loadedTime': 3335.5, 'positionName': 'RIGHT', 'positionCoords': [998.4, 335], 'bid': 4.21}]",422350.59999999404,1657559844629,apple slices,fruitsalad,4.07,4.21,0.13999999999999968,NaN,NaN,NaN,NaN,False,426366.2999999821,4015.699999988079,1657559848645,4016,,HRV,HRV_0006,2022-07-11 13:20:23
105,"[{'imgObject': {}, 'id': 'sushi w_condiments', 'src': '/static/foodstim60/sushi w_condiments.jpg', 'key': 'u', 'origWidth': 410, 'origHeight': 410, 'width': 410, 'height': 410, 'widthPercent': 0.45, 'rescaleHeight': False, 'trialN': 105, 'loaded': True, 'loadedTime': 3223.7999999821186, 'positionName': 'LEFT', 'positionCoords': [511.6, 335], 'bid': 8.44}, {'imgObject': {}, 'id': 'steak', 'src': '/static/foodstim60/steak.jpg', 'key': 'i', 'origWidth': 410, 'origHeight': 410, 'width': 410, 'height': 410, 'widthPercent': 0.45, 'rescaleHeight': False, 'trialN': 105, 'loaded': True, 'loadedTime': 2823, 'positionName': 'RIGHT', 'positionCoords': [998.4, 335], 'bid': 4.64}]",426366.6999999881,1657559848645,sushi w_condiments,steak,8.44,4.64,-3.8,NaN,NaN,NaN,NaN,False,430384.7999999821,4018.0999999940395,1657559852664,4019,,HRV,HRV_0006,2022-07-11 13:20:23
106,"[{'imgObject': {}, 'id': 'rigatoni', 'src': '/static/foodstim60/rigatoni.jpg', 'key': 'u', 'origWidth': 411, 'origHeight': 411, 'width': 411, 'height': 411, 'widthPercent': 0.45, 'rescaleHeight': False, 'trialN': 106, 'loaded': True, 'loadedTime': 2661.2999999821186, 'positionName': 'LEFT', 'positionCoords': [510.6, 334.5], 'bid': 5.79}, {'imgObject': {}, 'id': 'Tribe humus pita', 'src': '/static/foodstim60/Tribe humus pita.jpg', 'key': 'i', 'origWidth': 411, 'origHeight': 411, 'width': 411, 'height': 411, 'widthPercent': 0.45, 'rescaleHeight': False, 'trialN': 106, 'loaded': True, 'loadedTime': 3414.5, 'positionName': 'RIGHT', 'positionCoords': [998.4, 334.5], 'bid': 3.47}]",430385.0,1657559852664,rigatoni,Tribe humus pita,5.79,3.47,-2.32,NaN,NaN,NaN,NaN,False,434402.5,4017.5,1657559856681,4017,,HRV,HRV_0006,2022-07-11 13:20:23
107,"[{'imgObject': {}, 'id': 'granola w milk', 'src': '/static/foodstim60/granola w milk.jpg', 'key': 'u', 'origWidth': 410, 'origHeight': 410, 'width': 410, 'height': 410, 'widthPercent': 0.45, 'rescaleHeight': False, 'trialN': 107, 'loaded': True, 'loadedTime': 2420.2999999821186, 'positionName': 'LEFT', 'positionCoords': [511.6, 335], 'bid': 9.16}, {'imgObject': {}, 'id': 'bagel and cc', 'src': '/static/foodstim60/bagel and cc.jpg', 'key': 'i', 'origWidth': 410, 'origHeight': 410, 'width': 410, 'height': 410, 'widthPercent': 0.45, 'rescaleHeight': False, 'trialN': 107, 'loaded': True, 'loadedTime': 3415.7999999821186, 'positionName': 'RIGHT', 'positionCoords': [998.4, 335], 'bid': 8.96}]",434402.7999999821,1657559856681,granola w milk,bagel and cc,9.16,8.96,-0.1999999999999993,NaN,NaN,NaN,NaN,False,438406.7999999821,4004.0,1657559860686,4005,,HRV,HRV_0006,2022-07-11 13:20:23
108,"[{'imgObject': {}, 'id': 'blackbeanswithrice', 'src': '/static/foodstim60/blackbeanswithrice.jpg', 'key': 'u', 'origWidth': 410, 'origHeight': 410, 'width': 410, 'height': 410, 'widthPercent': 0.45, 'rescaleHeight': False, 'trialN': 108, 'loaded': True, 'loadedTime': 3432.5999999940395, 'positionName': 'LEFT', 'positionCoords': [511.6, 335], 'bid': 2.66}, {'imgObject': {}, 'id': 'blueberries', 'src': '/static/foodstim60/blueberries.jpg', 'key': 'i', 'origWidth': 411, 'origHeight': 411, 'width': 411, 'height': 411, 'widthPercent': 0.45, 'rescaleHeight': False, 'trialN': 108, 'loaded': True, 'loadedTime': 3359.5, 'positionName': 'RIGHT', 'positionCoords': [998.4, 334.5], 'bid': 2.47}]",438407.09999999404,1657559860686,blackbeanswithrice,blueberries,2.66,2.47,-0.18999999999999995,NaN,NaN,NaN,NaN,False,442425.7999999821,4018.699999988079,1657559864704,4018,,HRV,HRV_0006,2022-07-11 13:20:23
109,"[{'imgObject': {}, 'id': 'bagel plain', 'src': '/static/foodstim60/bagel plain.jpg', 'key': 'u', 'origWidth': 410, 'origHeight': 410, 'width': 410, 'height': 410, 'widthPercent': 0.45, 'rescaleHeight': False, 'trialN': 109, 'loaded': True, 'loadedTime': 3187.9000000059605, 'positionName': 'LEFT', 'positionCoords': [511.6, 335], 'bid': 6.17}, {'imgObject': {}, 'id': 'veggieswithdip', 'src': '/static/foodstim60/veggieswithdip.jpg', 'key': 'i', 'origWidth': 409, 'origHeight': 409, 'width': 409, 'height': 409, 'widthPercent': 0.45, 'rescaleHeight': False, 'trialN': 109, 'loaded': True, 'loadedTime': 3048.7999999821186, 'positionName': 'RIGHT', 'positionCoords': [998.4, 335.5], 'bid': 4.61}]",442426.09999999404,1657559864705,bagel plain,veggieswithdip,6.17,4.61,-1.5599999999999996,NaN,NaN,NaN,NaN,False,446428.40000000596,4002.300000011921,1657559868707,4002,,HRV,HRV_0006,2022-07-11 13:20:23
110,"[{'imgObject': {}, 'id': 'tacos', 'src': '/static/foodstim60/tacos.jpg', 'key': 'u', 'origWidth': 411, 'origHeight': 411, 'width': 411, 'height': 411, 'widthPercent': 0.45, 'rescaleHeight': False, 'trialN': 110, 'loaded': True, 'loadedTime': 2639.0999999940395, 'positionName': 'LEFT', 'positionCoords': [510.6, 334.5], 'bid': 6.5200000000000005}, {'imgObject': {}, 'id': 'eggs', 'src': '/static/foodstim60/eggs.jpg', 'key': 'i', 'origWidth': 409, 'origHeight': 409, 'width': 409, 'height': 409, 'widthPercent': 0.45, 'rescaleHeight': False, 'trialN': 110, 'loaded': True, 'loadedTime': 3438.4000000059605, 'positionName': 'RIGHT', 'positionCoords': [998.4, 335.5], 'bid': 5.13}]",446428.6999999881,1657559868707,tacos,eggs,6.5200000000000005,5.13,-1.3900000000000006,NaN,NaN,NaN,NaN,False,450435.1999999881,4006.5,1657559872714,4007,,HRV,HRV_0006,2022-07-11 13:20:23
111,"[{'imgObject': {}, 'id': 'rigatoni and sauce', 'src': '/static/foodstim60/rigatoni and sauce.jpg', 'key': 'u', 'origWidth': 410, 'origHeight': 411, 'width': 410, 'height': 411, 'widthPercent': 0.45, 'rescaleHeight': False, 'trialN': 111, 'loaded': True, 'loadedTime': 3437.2999999821186, 'positionName': 'LEFT', 'positionCoords': [511.6, 334.5], 'bid': 3.17}, {'imgObject': {}, 'id': 'chicken nuggets2', 'src': '/static/foodstim60/chicken nuggets2.jpg', 'key': 'i', 'origWidth': 410, 'origHeight': 409, 'width': 410, 'height': 409, 'widthPercent': 0.45, 'rescaleHeight': False, 'trialN': 111, 'loaded': True, 'loadedTime': 3367.699999988079, 'positionName': 'RIGHT', 'positionCoords': [998.4, 335.5], 'bid': 3.22}]",450435.5,1657559872714,rigatoni and sauce,chicken nuggets2,3.17,3.22,0.050000000000000266,NaN,NaN,NaN,NaN,False,454437.40000000596,4001.9000000059605,1657559876716,4002,,HRV,HRV_0006,2022-07-11 13:20:23
112,"[{'imgObject': {}, 'id': 'cocktailshrimp', 'src': '/static/foodstim60/cocktailshrimp.jpg', 'key': 'u', 'origWidth': 410, 'origHeight': 410, 'width': 410, 'height': 410, 'widthPercent': 0.45, 'rescaleHeight': False, 'trialN': 112, 'loaded': True, 'loadedTime': 2351.699999988079, 'positionName': 'LEFT', 'positionCoords': [511.6, 335], 'bid': 9.61}, {'imgObject': {}, 'id': 'avocado', 'src': '/static/foodstim60/avocado.jpg', 'key': 'i', 'origWidth': 409, 'origHeight': 409, 'width': 409, 'height': 409, 'widthPercent': 0.45, 'rescaleHeight': False, 'trialN': 112, 'loaded': True, 'loadedTime': 3373.7999999821186, 'positionName': 'RIGHT', 'positionCoords': [998.4, 335.5], 'bid': 8.51}]",454437.59999999404,1657559876716,cocktailshrimp,avocado,9.61,8.51,-1.0999999999999996,NaN,NaN,NaN,NaN,False,458448.09999999404,4010.5,1657559880727,4011,,HRV,HRV_0006,2022-07-11 13:20:23
