success,trial_type,trial_index,time_elapsed,internal_node_id,Block,TrialNumber,TrialTime,trialTimeDiff,FPS_avg,FPS_med,FPS_mode,TrialDur,winResizeTime,rt,block,button_pressed,MotCoh,MotDir,ColCoh,Color,ChoiceKey,Choice,Accuracy,RT,nFrames,FPS,PPD,missTrial,missTrialMsg,onsetDelay,fullScreenExitTime,canvCenter,TrialType,Score,BlockTrial,stimulus,button_labels,exp,subjectId,date
True,fullscreen,0,2091,0.0-0.0,0.0,1.0,,,,,,,,,,,,,,,,,,,,,,,,,,,,,,,,HRV,HRV_0006,2022-11-30 17:52:04
,wl-check-fps,1,7111,0.0-1.0,0.0,2.0,"[2784.6, 2794.5, 2811.1, 2827.9, 2844.4, 2861.2, 2877.9, 2894.5, 2911.2, 2927.9, 2944.7, 2961.4, 2978, 2994.8, 3011.5, 3028.1, 3044.7, 3061.5, 3078.1, 3094.7, 3111.5, 3128.1, 3144.7, 3161.6, 3178.3, 3194.9, 3211.6, 3229.3, 3245.7, 3262, 3278.3, 3295.1, 3312.4, 3329.3, 3345.8, 3361.7, 3378.4, 3395.3, 3411.8, 3428.4, 3445.2, 3461.7, 3478.5, 3495.2, 3511.9, 3528.6, 3545.3, 3562, 3578.7, 3595.3, 3612, 3628.7, 3645.3, 3662.5, 3679.5, 3695.8, 3712.3, 3729.1, 3745.5, 3762.2, 3778.8, 3796, 3814.2, 3829.4, 3845.6, 3862.3, 3879.4, 3895.6, 3912.2, 3929, 3945.6, 3962.3, 3979, 3996.5, 4013.3, 4032.3, 4046.7, 4062.5, 4079.1, 4095.7, 4112.4, 4129.1, 4145.9, 4162.6, 4179.2, 4196, 4212.7, 4229.2, 4246, 4262.7, 4279.4, 4296.2, 4313.7, 4330.4, 4346.8, 4363.7, 4379.4, 4396.2, 4412.9, 4429.6, 4446.2, 4462.8, 4479.4, 4496.1, 4512.8, 4529.5, 4546.2, 4563.7, 4582.6, 4597.3, 4613.2, 4629.6, 4646.4, 4663, 4679.7, 4696.3, 4713.4, 4729.8, 4746.5, 4763.1, 4779.9, 4796.6, 4813.3, 4829.9, 4846.6, 4863.2, 4880, 4896.7, 4913.3, 4929.9, 4946.7, 4963.3, 4980, 4996.7, 5013.5, 5030.1, 5046.8, 5063.5, 5080.1, 5096.9, 5113.5, 5130.1, 5146.8, 5164.4, 5180.2, 5197.1, 5213.7, 5230.4, 5246.9, 5263.8, 5280.3, 5297.1, 5314.3, 5331.1, 5347.7, 5364.4, 5380.8, 5397.5, 5414.3, 5431.1, 5447.8, 5464.3, 5480.9, 5497.5, 5514, 5530.7, 5547.4, 5564.3, 5581.2, 5597.9, 5614.6, 5631.5, 5648.1, 5664.8, 5681.5, 5699.6, 5714.6, 5731.1, 5747.5, 5764.2, 5780.8, 5797.4, 5814.1, 5831, 5847.5, 5864.3, 5880.9, 5897.7, 5914.3, 5931.1, 5947.8, 5964.7, 5981.5, 5998.2, 6014.9, 6031.5, 6048, 6064.5, 6081.1, 6097.9, 6114.5, 6131.1, 6147.9, 6164.6, 6181.3, 6198.3, 6215.1, 6231.7, 6248.4, 6265.3, 6281.7, 6298.2, 6314.7, 6331.4, 6348.2, 6364.8, 6381.7, 6398.3, 6414.9, 6431.7, 6448.4, 6465.1, 6482, 6498.6, 6515.4, 6532, 6548.8, 6565.4, 6582.1, 6598.4, 6615.1, 6631.7, 6648.3, 6665.1, 6681.7, 6698.5, 6715.1, 6731.9, 6748.5, 6765.3, 6782, 6798.8, 6815.4, 6832.1, 6849.7, 6865.7, 6882.4, 6899.3, 6915.8, 6932.4, 6949.2, 6965.6, 6982.2, 6998.8, 7015.4, 7032.1, 7048.8, 7065.6, 7082.6, 7099.4, 7115.9, 7132.6, 7148.8, 7168.2, 7200.3, 7216.8, 7233.5, 7250.3, 7267.8, 7284.7, 7301.6, 7318, 7334.6, 7351.4, 7368.1, 7384.7, 7401.5, 7418.1, 7434.8, 7451.6, 7468.1, 7484.9, 7500.6, 7517.6, 7534.1, 7551.4, 7567.8, 7584.9, 7600.9, 7617.1, 7635, 7651.7, 7668.4, 7685.1, 7701.4, 7718.1, 7734.8, 7751.5, 7768.6, 7784.5]","[0.7, 9.9, 16.6, 16.8, 16.5, 16.8, 16.7, 16.6, 16.7, 16.7, 16.8, 16.7, 16.6, 16.8, 16.7, 16.6, 16.6, 16.8, 16.6, 16.6, 16.8, 16.6, 16.6, 16.9, 16.7, 16.6, 16.7, 17.7, 16.4, 16.3, 16.3, 16.8, 17.3, 16.9, 16.5, 15.9, 16.7, 16.9, 16.5, 16.6, 16.8, 16.5, 16.8, 16.7, 16.7, 16.7, 16.7, 16.7, 16.7, 16.6, 16.7, 16.7, 16.6, 17.2, 17, 16.3, 16.5, 16.8, 16.4, 16.7, 16.6, 17.2, 18.2, 15.2, 16.2, 16.7, 17.1, 16.2, 16.6, 16.8, 16.6, 16.7, 16.7, 17.5, 16.8, 19, 14.4, 15.8, 16.6, 16.6, 16.7, 16.7, 16.8, 16.7, 16.6, 16.8, 16.7, 16.5, 16.8, 16.7, 16.7, 16.8, 17.5, 16.7, 16.4, 16.9, 15.7, 16.8, 16.7, 16.7, 16.6, 16.6, 16.6, 16.7, 16.7, 16.7, 16.7, 17.5, 18.9, 14.7, 15.9, 16.4, 16.8, 16.6, 16.7, 16.6, 17.1, 16.4, 16.7, 16.6, 16.8, 16.7, 16.7, 16.6, 16.7, 16.6, 16.8, 16.7, 16.6, 16.6, 16.8, 16.6, 16.7, 16.7, 16.8, 16.6, 16.7, 16.7, 16.6, 16.8, 16.6, 16.6, 16.7, 17.6, 15.8, 16.9, 16.6, 16.7, 16.5, 16.9, 16.5, 16.8, 17.2, 16.8, 16.6, 16.7, 16.4, 16.7, 16.8, 16.8, 16.7, 16.5, 16.6, 16.6, 16.5, 16.7, 16.7, 16.9, 16.9, 16.7, 16.7, 16.9, 16.6, 16.7, 16.7, 18.1, 15, 16.5, 16.4, 16.7, 16.6, 16.6, 16.7, 16.9, 16.5, 16.8, 16.6, 16.8, 16.6, 16.8, 16.7, 16.9, 16.8, 16.7, 16.7, 16.6, 16.5, 16.5, 16.6, 16.8, 16.6, 16.6, 16.8, 16.7, 16.7, 17, 16.8, 16.6, 16.7, 16.9, 16.4, 16.5, 16.5, 16.7, 16.8, 16.6, 16.9, 16.6, 16.6, 16.8, 16.7, 16.7, 16.9, 16.6, 16.8, 16.6, 16.8, 16.6, 16.7, 16.3, 16.7, 16.6, 16.6, 16.8, 16.6, 16.8, 16.6, 16.8, 16.6, 16.8, 16.7, 16.8, 16.6, 16.7, 17.6, 16, 16.7, 16.9, 16.5, 16.6, 16.8, 16.4, 16.6, 16.6, 16.6, 16.7, 16.7, 16.8, 17, 16.8, 16.5, 16.7, 16.2, 19.4, 32.1, 16.5, 16.7, 16.8, 17.5, 16.9, 16.9, 16.4, 16.6, 16.8, 16.7, 16.6, 16.8, 16.6, 16.7, 16.8, 16.5, 16.8, 15.7, 17, 16.5, 17.3, 16.4, 17.1, 16, 16.2, 17.9, 16.7, 16.7, 16.7, 16.3, 16.7, 16.7, 16.7, 17.1, 15.9]",60.0,60.0,60.0,5017.1,[],,,,,,,,,,,,,,,,,,,,,,,,,HRV,HRV_0006,2022-11-30 17:52:04
,wl-html-keyboard-response,2,18892,0.0-2.0-0.0,0.0,3.0,,,,,,,,9774.899999856949,0.0,0,,,,,,,,,,,,,,,,,,,,,,HRV,HRV_0006,2022-11-30 17:52:04
,wl-rdm,3,25795,0.0-3.0-0.0,0.0,4.0,,,,,,,[],,,,0.0,0.0,87.9,0.0,u,0.0,True,1325.1000001430511,80.0,60.0,40.0,False,,3000.0,[],"[960, 540]",ColorTask_Demo,,,,,HRV,HRV_0006,2022-11-30 17:52:04
,wl-rdm,4,31067,0.0-3.0-1.0,0.0,5.0,,,,,,,[],,,,0.0,0.0,87.9,1.0,i,1.0,True,1210.0999999046326,73.0,60.0,40.0,False,,2000.0,[],"[960, 540]",ColorTask_Demo,,,,,HRV,HRV_0006,2022-11-30 17:52:04
,wl-html-keyboard-response,5,34965,0.0-3.0-2.0,0.0,6.0,,,,,,,,1880.1000001430511,0.0,1,,,,,,,,,,,,,,,,,,,,,,HRV,HRV_0006,2022-11-30 17:52:04
,wl-html-keyboard-response,6,42788,0.0-4.0-0.0,0.0,7.0,,,,,,,,5813.100000143051,0.0,0,,,,,,,,,,,,,,,,,,,,,,HRV,HRV_0006,2022-11-30 17:52:04
,wl-html-keyboard-response,7,56145,0.0-5.0-0.0,0.0,8.0,,,,,,,,11341.300000190735,0.0,0,,,,,,,,,,,,,,,,,,,,,,HRV,HRV_0006,2022-11-30 17:52:04
,wl-rdm,8,58445,0.0-6.0-0.0,0.0,9.0,,,,,,,[],,,,,,62.5,1.0,i,1.0,True,942.7000000476837,57.0,60.0,40.0,False,,298.43793213637326,[],"[960, 540]",ColorTask,1.0,1.0,,,HRV,HRV_0006,2022-11-30 17:52:04
,wl-rdm,9,60580,0.0-6.1-0.1,0.0,10.0,,,,,,,[],,,,,,50.0,1.0,u,0.0,False,773.6999998092651,47.0,60.0,40.0,False,,288.67128148068235,[],"[960, 540]",ColorTask,0.0,2.0,,,HRV,HRV_0006,2022-11-30 17:52:04
,wl-rdm,10,62415,0.0-6.2-0.2,0.0,11.0,,,,,,,[],,,,,,50.0,0.0,u,0.0,True,545.7000000476837,33.0,60.0,40.0,False,,230.35538625915348,[],"[960, 540]",ColorTask,1.0,3.0,,,HRV,HRV_0006,2022-11-30 17:52:04
,wl-rdm,11,64301,0.0-6.3-0.3,0.0,12.0,,,,,,,[],,,,,,87.9,0.0,u,0.0,True,580.9000000953674,35.0,60.0,40.0,False,,244.44249080959744,[],"[960, 540]",ColorTask,2.0,4.0,,,HRV,HRV_0006,2022-11-30 17:52:04
,wl-rdm,12,66102,0.0-6.4-0.4,0.0,13.0,,,,,,,[],,,,,,87.9,0.0,u,0.0,True,512.8000001907349,31.0,60.0,40.0,False,,218.8626415299828,[],"[960, 540]",ColorTask,3.0,5.0,,,HRV,HRV_0006,2022-11-30 17:52:04
,wl-rdm,13,67955,0.0-6.5-0.5,0.0,14.0,,,,,,,[],,,,,,62.5,1.0,i,1.0,True,434.0,26.0,60.0,40.0,False,,356.57443522378605,[],"[960, 540]",ColorTask,4.0,6.0,,,HRV,HRV_0006,2022-11-30 17:52:04
,wl-rdm,14,69706,0.0-6.6-0.6,0.0,15.0,,,,,,,[],,,,,,87.9,1.0,i,1.0,True,451.0000002384186,28.0,60.0,40.0,False,,217.7854605375774,[],"[960, 540]",ColorTask,5.0,7.0,,,HRV,HRV_0006,2022-11-30 17:52:04
,wl-rdm,15,71424,0.0-6.7-0.7,0.0,16.0,,,,,,,[],,,,,,87.9,1.0,i,1.0,True,419.2000000476837,26.0,60.0,40.0,False,,220.59724771631264,[],"[960, 540]",ColorTask,6.0,8.0,,,HRV,HRV_0006,2022-11-30 17:52:04
,wl-rdm,16,73326,0.0-6.8-0.8,0.0,17.0,,,,,,,[],,,,,,62.5,1.0,i,1.0,True,462.2000000476837,28.0,60.0,40.0,False,,373.2762255198744,[],"[960, 540]",ColorTask,7.0,9.0,,,HRV,HRV_0006,2022-11-30 17:52:04
,wl-rdm,17,75111,0.0-6.9-0.9,0.0,18.0,,,,,,,[],,,,,,87.9,1.0,i,1.0,True,478.40000009536743,29.0,60.0,40.0,False,,241.29821981112337,[],"[960, 540]",ColorTask,8.0,10.0,,,HRV,HRV_0006,2022-11-30 17:52:04
,wl-rdm,18,77130,0.0-6.10-0.10,0.0,19.0,,,,,,,[],,,,,,73.6,0.0,u,0.0,True,567.2999999523163,35.0,60.0,40.0,False,,369.1830897084542,[],"[960, 540]",ColorTask,9.0,11.0,,,HRV,HRV_0006,2022-11-30 17:52:04
,wl-rdm,19,79199,0.0-6.11-0.11,0.0,20.0,,,,,,,[],,,,,,73.6,0.0,u,0.0,True,655.1999998092651,40.0,60.0,40.0,False,,334.2480189333984,[],"[960, 540]",ColorTask,10.0,12.0,,,HRV,HRV_0006,2022-11-30 17:52:04
,wl-rdm,20,81151,0.0-6.12-0.12,0.0,21.0,,,,,,,[],,,,,,73.6,0.0,u,0.0,True,653.5999999046326,40.0,60.0,40.0,False,,220.99786031764614,[],"[960, 540]",ColorTask,11.0,13.0,,,HRV,HRV_0006,2022-11-30 17:52:04
,wl-rdm,21,83020,0.0-6.13-0.13,0.0,22.0,,,,,,,[],,,,,,87.9,1.0,i,1.0,True,506.7000000476837,31.0,60.0,40.0,False,,299.90265581801015,[],"[960, 540]",ColorTask,12.0,14.0,,,HRV,HRV_0006,2022-11-30 17:52:04
,wl-rdm,22,84821,0.0-6.14-0.14,0.0,23.0,,,,,,,[],,,,,,73.6,0.0,u,0.0,True,472.30000019073486,29.0,60.0,40.0,False,,250.81797233265647,[],"[960, 540]",ColorTask,13.0,15.0,,,HRV,HRV_0006,2022-11-30 17:52:04
,wl-rdm,23,86540,0.0-6.15-0.15,0.0,24.0,,,,,,,[],,,,,,87.9,0.0,u,0.0,True,439.40000009536743,27.0,60.0,40.0,False,,214.25178910744788,[],"[960, 540]",ColorTask,14.0,16.0,,,HRV,HRV_0006,2022-11-30 17:52:04
,wl-rdm,24,88525,0.0-6.16-0.16,0.0,25.0,,,,,,,[],,,,,,62.5,0.0,u,0.0,True,608.0000002384186,37.0,60.0,40.0,False,,286.1385257335601,[],"[960, 540]",ColorTask,15.0,17.0,,,HRV,HRV_0006,2022-11-30 17:52:04
,wl-rdm,25,90461,0.0-6.17-0.17,0.0,26.0,,,,,,,[],,,,,,56.4,1.0,i,1.0,True,648.1000001430511,39.0,60.0,40.0,False,,231.30660688918894,[],"[960, 540]",ColorTask,16.0,18.0,,,HRV,HRV_0006,2022-11-30 17:52:04
,wl-rdm,26,92613,0.0-6.18-0.18,0.0,27.0,,,,,,,[],,,,,,62.5,0.0,u,0.0,True,713.7000002861023,43.0,60.0,40.0,False,,379.9703040394132,[],"[960, 540]",ColorTask,17.0,19.0,,,HRV,HRV_0006,2022-11-30 17:52:04
,wl-rdm,27,94498,0.0-6.19-0.19,0.0,28.0,,,,,,,[],,,,,,50.0,0.0,u,0.0,True,493.09999990463257,30.0,60.0,40.0,False,,331.92769675447556,[],"[960, 540]",ColorTask,18.0,20.0,,,HRV,HRV_0006,2022-11-30 17:52:04
,wl-rdm,28,96534,0.0-6.20-0.20,0.0,29.0,,,,,,,[],,,,,,50.0,0.0,i,1.0,False,646.7999999523163,39.0,60.0,40.0,False,,329.6447646387712,[],"[960, 540]",ColorTask,17.0,21.0,,,HRV,HRV_0006,2022-11-30 17:52:04
,wl-rdm,29,98485,0.0-6.21-0.21,0.0,30.0,,,,,,,[],,,,,,56.4,0.0,u,0.0,True,513.8000001907349,31.0,60.0,40.0,False,,368.8743207269806,[],"[960, 540]",ColorTask,18.0,22.0,,,HRV,HRV_0006,2022-11-30 17:52:04
,wl-rdm,30,100438,0.0-6.22-0.22,0.0,31.0,,,,,,,[],,,,,,53.2,0.0,u,0.0,True,580.2000000476837,35.0,60.0,40.0,False,,310.3136407372577,[],"[960, 540]",ColorTask,19.0,23.0,,,HRV,HRV_0006,2022-11-30 17:52:04
,wl-rdm,31,102256,0.0-6.23-0.23,0.0,32.0,,,,,,,[],,,,,,62.5,0.0,u,0.0,True,512.2000000476837,31.0,60.0,40.0,False,,235.91435607272274,[],"[960, 540]",ColorTask,20.0,24.0,,,HRV,HRV_0006,2022-11-30 17:52:04
,wl-rdm,32,104075,0.0-6.24-0.24,0.0,33.0,,,,,,,[],,,,,,56.4,0.0,u,0.0,True,549.0000002384186,33.0,60.0,40.0,False,,204.43261265369333,[],"[960, 540]",ColorTask,21.0,25.0,,,HRV,HRV_0006,2022-11-30 17:52:04
,wl-rdm,33,105893,0.0-6.25-0.25,0.0,34.0,,,,,,,[],,,,,,73.6,1.0,i,1.0,True,505.7000000476837,31.0,60.0,40.0,False,,249.03506073546217,[],"[960, 540]",ColorTask,22.0,26.0,,,HRV,HRV_0006,2022-11-30 17:52:04
,wl-rdm,34,107995,0.0-6.26-0.26,0.0,35.0,,,,,,,[],,,,,,56.4,1.0,u,0.0,False,807.7000000476837,49.0,60.0,40.0,False,,224.50700824781345,[],"[960, 540]",ColorTask,21.0,27.0,,,HRV,HRV_0006,2022-11-30 17:52:04
,wl-rdm,35,109730,0.0-6.27-0.27,0.0,36.0,,,,,,,[],,,,,,73.6,1.0,i,1.0,True,433.90000009536743,26.0,60.0,40.0,False,,236.51467700305568,[],"[960, 540]",ColorTask,22.0,28.0,,,HRV,HRV_0006,2022-11-30 17:52:04
,wl-rdm,36,111582,0.0-6.28-0.28,0.0,37.0,,,,,,,[],,,,,,87.9,0.0,u,0.0,True,540.3999998569489,33.0,60.0,40.0,False,,234.63383390376396,[],"[960, 540]",ColorTask,23.0,29.0,,,HRV,HRV_0006,2022-11-30 17:52:04
,wl-rdm,37,113534,0.0-6.29-0.29,0.0,38.0,,,,,,,[],,,,,,53.2,1.0,u,0.0,False,680.0000002384186,41.0,60.0,40.0,False,,206.82679941458147,[],"[960, 540]",ColorTask,22.0,30.0,,,HRV,HRV_0006,2022-11-30 17:52:04
,wl-rdm,38,115703,0.0-6.30-0.30,0.0,39.0,,,,,,,[],,,,,,50.0,0.0,u,0.0,True,863.4000000953674,52.0,60.0,40.0,False,,239.4469014528374,[],"[960, 540]",ColorTask,23.0,31.0,,,HRV,HRV_0006,2022-11-30 17:52:04
,wl-rdm,39,117572,0.0-6.31-0.31,0.0,40.0,,,,,,,[],,,,,,50.0,1.0,i,1.0,True,498.10000014305115,30.0,60.0,40.0,False,,315.61491565880306,[],"[960, 540]",ColorTask,24.0,32.0,,,HRV,HRV_0006,2022-11-30 17:52:04
,wl-rdm,40,119473,0.0-6.32-0.32,0.0,41.0,,,,,,,[],,,,,,56.4,0.0,i,1.0,False,553.9000000953674,34.0,60.0,40.0,False,,271.2188336876916,[],"[960, 540]",ColorTask,23.0,33.0,,,HRV,HRV_0006,2022-11-30 17:52:04
,wl-rdm,41,121809,0.0-6.33-0.33,0.0,42.0,,,,,,,[],,,,,,62.5,1.0,i,1.0,True,927.0,56.0,60.0,40.0,False,,335.6405065147136,[],"[960, 540]",ColorTask,24.0,34.0,,,HRV,HRV_0006,2022-11-30 17:52:04
,wl-rdm,42,123845,0.0-6.34-0.34,0.0,43.0,,,,,,,[],,,,,,50.0,0.0,i,1.0,False,622.6999998092651,38.0,60.0,40.0,False,,340.08075317511276,[],"[960, 540]",ColorTask,23.0,35.0,,,HRV,HRV_0006,2022-11-30 17:52:04
,wl-rdm,43,125830,0.0-6.35-0.35,0.0,44.0,,,,,,,[],,,,,,56.4,0.0,u,0.0,True,679.0,41.0,60.0,40.0,False,,235.08095933066397,[],"[960, 540]",ColorTask,24.0,36.0,,,HRV,HRV_0006,2022-11-30 17:52:04
,wl-rdm,44,127782,0.0-6.36-0.36,0.0,45.0,,,,,,,[],,,,,,53.2,0.0,u,0.0,True,565.0,34.0,60.0,40.0,False,,320.8226224682531,[],"[960, 540]",ColorTask,25.0,37.0,,,HRV,HRV_0006,2022-11-30 17:52:04
,wl-rdm,45,129751,0.0-6.37-0.37,0.0,46.0,,,,,,,[],,,,,,87.9,1.0,i,1.0,True,645.9000000953674,39.0,60.0,40.0,False,,265.1684241034242,[],"[960, 540]",ColorTask,26.0,38.0,,,HRV,HRV_0006,2022-11-30 17:52:04
,wl-rdm,46,131652,0.0-6.38-0.38,0.0,47.0,,,,,,,[],,,,,,56.4,1.0,i,1.0,True,557.7999999523163,34.0,60.0,40.0,False,,262.7859592844292,[],"[960, 540]",ColorTask,27.0,39.0,,,HRV,HRV_0006,2022-11-30 17:52:04
,wl-rdm,47,133638,0.0-6.39-0.39,0.0,48.0,,,,,,,[],,,,,,87.9,0.0,u,0.0,True,562.7999999523163,34.0,60.0,40.0,False,,361.1692460398753,[],"[960, 540]",ColorTask,28.0,40.0,,,HRV,HRV_0006,2022-11-30 17:52:04
,wl-rdm,48,135456,0.0-6.40-0.40,0.0,49.0,,,,,,,[],,,,,,73.6,0.0,u,0.0,True,511.2000000476837,31.0,60.0,40.0,False,,247.79014076096536,[],"[960, 540]",ColorTask,29.0,41.0,,,HRV,HRV_0006,2022-11-30 17:52:04
,wl-rdm,49,137326,0.0-6.41-0.41,0.0,50.0,,,,,,,[],,,,,,53.2,1.0,i,1.0,True,581.0,35.0,60.0,40.0,False,,228.43553039768526,[],"[960, 540]",ColorTask,30.0,42.0,,,HRV,HRV_0006,2022-11-30 17:52:04
,wl-rdm,50,139461,0.0-6.42-0.42,0.0,51.0,,,,,,,[],,,,,,56.4,0.0,u,0.0,True,699.0,42.0,60.0,40.0,False,,375.9659772163658,[],"[960, 540]",ColorTask,31.0,43.0,,,HRV,HRV_0006,2022-11-30 17:52:04
,wl-rdm,51,141379,0.0-6.43-0.43,0.0,52.0,,,,,,,[],,,,,,73.6,0.0,u,0.0,True,482.2999999523163,29.0,60.0,40.0,False,,379.77689899746724,[],"[960, 540]",ColorTask,32.0,44.0,,,HRV,HRV_0006,2022-11-30 17:52:04
,wl-rdm,52,143565,0.0-6.44-0.44,0.0,53.0,,,,,,,[],,,,,,50.0,1.0,i,1.0,True,722.5000002384186,44.0,60.0,40.0,False,,394.48754845679866,[],"[960, 540]",ColorTask,33.0,45.0,,,HRV,HRV_0006,2022-11-30 17:52:04
,wl-rdm,53,145417,0.0-6.45-0.45,0.0,54.0,,,,,,,[],,,,,,50.0,1.0,i,1.0,True,530.3999998569489,32.0,60.0,40.0,False,,264.4872701019315,[],"[960, 540]",ColorTask,34.0,46.0,,,HRV,HRV_0006,2022-11-30 17:52:04
,wl-rdm,54,147285,0.0-6.46-0.46,0.0,55.0,,,,,,,[],,,,,,73.6,1.0,i,1.0,True,480.89999985694885,29.0,60.0,40.0,False,,319.43996678753666,[],"[960, 540]",ColorTask,35.0,47.0,,,HRV,HRV_0006,2022-11-30 17:52:04
,wl-rdm,55,149054,0.0-6.47-0.47,0.0,56.0,,,,,,,[],,,,,,56.4,1.0,i,1.0,True,496.19999980926514,30.0,60.0,40.0,False,,212.8582098867713,[],"[960, 540]",ColorTask,36.0,48.0,,,HRV,HRV_0006,2022-11-30 17:52:04
,wl-rdm,56,150873,0.0-6.48-0.48,0.0,57.0,,,,,,,[],,,,,,62.5,1.0,i,1.0,True,519.5,32.0,60.0,40.0,False,,230.02752118404197,[],"[960, 540]",ColorTask,37.0,49.0,,,HRV,HRV_0006,2022-11-30 17:52:04
,wl-rdm,57,152741,0.0-6.49-0.49,0.0,58.0,,,,,,,[],,,,,,56.4,1.0,i,1.0,True,547.1000001430511,33.0,60.0,40.0,False,,261.0437844961888,[],"[960, 540]",ColorTask,38.0,50.0,,,HRV,HRV_0006,2022-11-30 17:52:04
,wl-rdm,58,154793,0.0-6.50-0.50,0.0,59.0,,,,,,,[],,,,,,56.4,1.0,i,1.0,True,677.7999999523163,41.0,60.0,40.0,False,,312.32105130663774,[],"[960, 540]",ColorTask,39.0,51.0,,,HRV,HRV_0006,2022-11-30 17:52:04
,wl-rdm,59,156962,0.0-6.51-0.51,0.0,60.0,,,,,,,[],,,,,,50.0,0.0,u,0.0,True,801.3000001907349,49.0,60.0,40.0,False,,293.11439413194574,[],"[960, 540]",ColorTask,40.0,52.0,,,HRV,HRV_0006,2022-11-30 17:52:04
,wl-rdm,60,159031,0.0-6.52-0.52,0.0,61.0,,,,,,,[],,,,,,50.0,1.0,i,1.0,True,746.5999999046326,45.0,60.0,40.0,False,,254.4903385628707,[],"[960, 540]",ColorTask,41.0,53.0,,,HRV,HRV_0006,2022-11-30 17:52:04
,wl-rdm,61,161000,0.0-6.53-0.53,0.0,62.0,,,,,,,[],,,,,,56.4,0.0,i,1.0,False,595.7000000476837,36.0,60.0,40.0,False,,307.80947706181024,[],"[960, 540]",ColorTask,40.0,54.0,,,HRV,HRV_0006,2022-11-30 17:52:04
,wl-rdm,62,162968,0.0-6.54-0.54,0.0,63.0,,,,,,,[],,,,,,53.2,1.0,i,1.0,True,644.7000000476837,39.0,60.0,40.0,False,,261.28030821569354,[],"[960, 540]",ColorTask,41.0,55.0,,,HRV,HRV_0006,2022-11-30 17:52:04
,wl-rdm,63,164920,0.0-6.55-0.55,0.0,64.0,,,,,,,[],,,,,,53.2,0.0,i,1.0,False,661.3999998569489,40.0,60.0,40.0,False,,225.02856373501862,[],"[960, 540]",ColorTask,40.0,56.0,,,HRV,HRV_0006,2022-11-30 17:52:04
,wl-rdm,64,166856,0.0-6.56-0.56,0.0,65.0,,,,,,,[],,,,,,73.6,1.0,i,1.0,True,596.0,36.0,60.0,40.0,False,,275.6158656258458,[],"[960, 540]",ColorTask,41.0,57.0,,,HRV,HRV_0006,2022-11-30 17:52:04
,wl-rdm,65,169074,0.0-6.57-0.57,0.0,66.0,,,,,,,[],,,,,,50.0,1.0,i,1.0,True,919.8000001907349,56.0,60.0,40.0,False,,233.20565461913438,[],"[960, 540]",ColorTask,42.0,58.0,,,HRV,HRV_0006,2022-11-30 17:52:04
,wl-rdm,66,171110,0.0-6.58-0.58,0.0,67.0,,,,,,,[],,,,,,73.6,1.0,i,1.0,True,747.1999998092651,45.0,60.0,40.0,False,,220.3569648607081,[],"[960, 540]",ColorTask,43.0,59.0,,,HRV,HRV_0006,2022-11-30 17:52:04
,wl-rdm,67,173111,0.0-6.59-0.59,0.0,68.0,,,,,,,[],,,,,,73.6,1.0,i,1.0,True,720.6000001430511,44.0,60.0,40.0,False,,202.50086425678634,[],"[960, 540]",ColorTask,44.0,60.0,,,HRV,HRV_0006,2022-11-30 17:52:04
,wl-rdm,68,175063,0.0-6.60-0.60,0.0,69.0,,,,,,,[],,,,,,73.6,1.0,i,1.0,True,669.7999999523163,41.0,60.0,40.0,False,,209.22929289322016,[],"[960, 540]",ColorTask,45.0,61.0,,,HRV,HRV_0006,2022-11-30 17:52:04
,wl-rdm,69,177500,0.0-6.61-0.61,0.0,70.0,,,,,,,[],,,,,,62.5,1.0,i,1.0,True,1133.2999999523163,68.0,60.0,40.0,False,,236.1071701000837,[],"[960, 540]",ColorTask,46.0,62.0,,,HRV,HRV_0006,2022-11-30 17:52:04
,wl-rdm,70,179401,0.0-6.62-0.62,0.0,71.0,,,,,,,[],,,,,,73.6,0.0,u,0.0,True,568.0,35.0,60.0,40.0,False,,256.20538610843744,[],"[960, 540]",ColorTask,47.0,63.0,,,HRV,HRV_0006,2022-11-30 17:52:04
,wl-rdm,71,181420,0.0-6.63-0.63,0.0,72.0,,,,,,,[],,,,,,62.5,1.0,i,1.0,True,707.5,43.0,60.0,40.0,False,,234.9359256585037,[],"[960, 540]",ColorTask,48.0,64.0,,,HRV,HRV_0006,2022-11-30 17:52:04
,wl-rdm,72,183322,0.0-6.64-0.64,0.0,73.0,,,,,,,[],,,,,,56.4,1.0,i,1.0,True,551.3000001907349,34.0,60.0,40.0,False,,270.68359374761144,[],"[960, 540]",ColorTask,49.0,65.0,,,HRV,HRV_0006,2022-11-30 17:52:04
,wl-rdm,73,185241,0.0-6.65-0.65,0.0,74.0,,,,,,,[],,,,,,53.2,1.0,i,1.0,True,644.2999999523163,39.0,60.0,40.0,False,,210.3184550698867,[],"[960, 540]",ColorTask,50.0,66.0,,,HRV,HRV_0006,2022-11-30 17:52:04
,wl-rdm,74,187059,0.0-6.66-0.66,0.0,75.0,,,,,,,[],,,,,,73.6,1.0,i,1.0,True,540.5,33.0,60.0,40.0,False,,216.22188260559804,[],"[960, 540]",ColorTask,51.0,67.0,,,HRV,HRV_0006,2022-11-30 17:52:04
,wl-rdm,75,188961,0.0-6.67-0.67,0.0,76.0,,,,,,,[],,,,,,50.0,0.0,u,0.0,True,534.5,33.0,60.0,40.0,False,,291.51736356135046,[],"[960, 540]",ColorTask,52.0,68.0,,,HRV,HRV_0006,2022-11-30 17:52:04
,wl-rdm,76,190963,0.0-6.68-0.68,0.0,77.0,,,,,,,[],,,,,,50.0,0.0,i,1.0,False,641.2000000476837,39.0,60.0,40.0,False,,295.8988689400459,[],"[960, 540]",ColorTask,51.0,69.0,,,HRV,HRV_0006,2022-11-30 17:52:04
,wl-rdm,77,192865,0.0-6.69-0.69,0.0,78.0,,,,,,,[],,,,,,56.4,0.0,u,0.0,True,534.5,33.0,60.0,40.0,False,,298.49018595435336,[],"[960, 540]",ColorTask,52.0,70.0,,,HRV,HRV_0006,2022-11-30 17:52:04
,wl-rdm,78,194768,0.0-6.70-0.70,0.0,79.0,,,,,,,[],,,,,,87.9,1.0,i,1.0,True,586.5,36.0,60.0,40.0,False,,241.40335788818092,[],"[960, 540]",ColorTask,53.0,71.0,,,HRV,HRV_0006,2022-11-30 17:52:04
,wl-rdm,79,196586,0.0-6.71-0.71,0.0,80.0,,,,,,,[],,,,,,50.0,1.0,u,0.0,False,517.8000001907349,32.0,60.0,40.0,False,,223.61136878862635,[],"[960, 540]",ColorTask,52.0,72.0,,,HRV,HRV_0006,2022-11-30 17:52:04
,wl-rdm,80,198588,0.0-6.72-0.72,0.0,81.0,,,,,,,[],,,,,,53.2,0.0,i,1.0,False,557.0,34.0,60.0,40.0,False,,371.48375525912684,[],"[960, 540]",ColorTask,51.0,73.0,,,HRV,HRV_0006,2022-11-30 17:52:04
,wl-rdm,81,200723,0.0-6.73-0.73,0.0,82.0,,,,,,,[],,,,,,62.5,0.0,u,0.0,True,833.2999999523163,50.0,60.0,40.0,False,,244.1463920068652,[],"[960, 540]",ColorTask,52.0,74.0,,,HRV,HRV_0006,2022-11-30 17:52:04
,wl-rdm,82,202708,0.0-6.74-0.74,0.0,83.0,,,,,,,[],,,,,,87.9,1.0,i,1.0,True,626.1999998092651,38.0,60.0,40.0,False,,291.62918200123033,[],"[960, 540]",ColorTask,53.0,75.0,,,HRV,HRV_0006,2022-11-30 17:52:04
,wl-rdm,83,204711,0.0-6.75-0.75,0.0,84.0,,,,,,,[],,,,,,50.0,1.0,i,1.0,True,721.0,44.0,60.0,40.0,False,,203.57176873979398,[],"[960, 540]",ColorTask,54.0,76.0,,,HRV,HRV_0006,2022-11-30 17:52:04
,wl-rdm,84,206780,0.0-6.76-0.76,0.0,85.0,,,,,,,[],,,,,,73.6,0.0,u,0.0,True,675.5999999046326,41.0,60.0,40.0,False,,328.03647995103125,[],"[960, 540]",ColorTask,55.0,77.0,,,HRV,HRV_0006,2022-11-30 17:52:04
,wl-rdm,85,208681,0.0-6.77-0.77,0.0,86.0,,,,,,,[],,,,,,73.6,1.0,i,1.0,True,600.1999998092651,36.0,60.0,40.0,False,,233.84340434339873,[],"[960, 540]",ColorTask,56.0,78.0,,,HRV,HRV_0006,2022-11-30 17:52:04
,wl-rdm,86,210634,0.0-6.78-0.78,0.0,87.0,,,,,,,[],,,,,,53.2,0.0,u,0.0,True,592.5999999046326,36.0,60.0,40.0,False,,299.63552355087114,[],"[960, 540]",ColorTask,57.0,79.0,,,HRV,HRV_0006,2022-11-30 17:52:04
,wl-rdm,87,212652,0.0-6.79-0.79,0.0,88.0,,,,,,,[],,,,,,56.4,0.0,u,0.0,True,607.7000000476837,37.0,60.0,40.0,False,,344.8736396082061,[],"[960, 540]",ColorTask,58.0,80.0,,,HRV,HRV_0006,2022-11-30 17:52:04
,wl-rdm,88,214521,0.0-6.80-0.80,0.0,89.0,,,,,,,[],,,,,,56.4,0.0,u,0.0,True,559.9999997615814,34.0,60.0,40.0,False,,249.44730871616846,[],"[960, 540]",ColorTask,59.0,81.0,,,HRV,HRV_0006,2022-11-30 17:52:04
,wl-rdm,89,216472,0.0-6.81-0.81,0.0,90.0,,,,,,,[],,,,,,87.9,0.0,u,0.0,True,651.2999999523163,40.0,60.0,40.0,False,,232.08005657177551,[],"[960, 540]",ColorTask,60.0,82.0,,,HRV,HRV_0006,2022-11-30 17:52:04
,wl-rdm,90,218425,0.0-6.82-0.82,0.0,91.0,,,,,,,[],,,,,,56.4,1.0,i,1.0,True,635.4000000953674,39.0,60.0,40.0,False,,233.7996735964964,[],"[960, 540]",ColorTask,61.0,83.0,,,HRV,HRV_0006,2022-11-30 17:52:04
,wl-rdm,91,220293,0.0-6.83-0.83,0.0,92.0,,,,,,,[],,,,,,53.2,1.0,i,1.0,True,573.8000001907349,35.0,60.0,40.0,False,,220.0744512252824,[],"[960, 540]",ColorTask,62.0,84.0,,,HRV,HRV_0006,2022-11-30 17:52:04
,wl-rdm,92,222262,0.0-6.84-0.84,0.0,93.0,,,,,,,[],,,,,,87.9,0.0,u,0.0,True,664.3999996185303,40.0,60.0,40.0,False,,240.8164269836081,[],"[960, 540]",ColorTask,63.0,85.0,,,HRV,HRV_0006,2022-11-30 17:52:04
,wl-rdm,93,224114,0.0-6.85-0.85,0.0,94.0,,,,,,,[],,,,,,87.9,1.0,i,1.0,True,567.9000000953674,35.0,60.0,40.0,False,,212.62145587652512,[],"[960, 540]",ColorTask,64.0,86.0,,,HRV,HRV_0006,2022-11-30 17:52:04
,wl-rdm,94,226366,0.0-6.86-0.86,0.0,95.0,,,,,,,[],,,,,,53.2,1.0,i,1.0,True,795.7999999523163,48.0,60.0,40.0,False,,391.82108302801157,[],"[960, 540]",ColorTask,65.0,87.0,,,HRV,HRV_0006,2022-11-30 17:52:04
,wl-rdm,95,228385,0.0-6.87-0.87,0.0,96.0,,,,,,,[],,,,,,62.5,0.0,u,0.0,True,643.2000000476837,39.0,60.0,40.0,False,,312.1248473756665,[],"[960, 540]",ColorTask,66.0,88.0,,,HRV,HRV_0006,2022-11-30 17:52:04
,wl-rdm,96,230287,0.0-6.88-0.88,0.0,97.0,,,,,,,[],,,,,,62.5,1.0,i,1.0,True,562.6999998092651,34.0,60.0,40.0,False,,279.0455903615775,[],"[960, 540]",ColorTask,67.0,89.0,,,HRV,HRV_0006,2022-11-30 17:52:04
,wl-rdm,97,232422,0.0-6.89-0.89,0.0,98.0,,,,,,,[],,,,,,53.2,0.0,u,0.0,True,695.7999997138977,42.0,60.0,40.0,False,,383.0412021799482,[],"[960, 540]",ColorTask,68.0,90.0,,,HRV,HRV_0006,2022-11-30 17:52:04
,wl-rdm,98,234324,0.0-6.90-0.90,0.0,99.0,,,,,,,[],,,,,,87.9,0.0,u,0.0,True,606.2999999523163,37.0,60.0,40.0,False,,225.10937320046008,[],"[960, 540]",ColorTask,69.0,91.0,,,HRV,HRV_0006,2022-11-30 17:52:04
,wl-rdm,99,236426,0.0-6.91-0.91,0.0,100.0,,,,,,,[],,,,,,53.2,1.0,i,1.0,True,833.2000000476837,50.0,60.0,40.0,False,,200.79134391388303,[],"[960, 540]",ColorTask,70.0,92.0,,,HRV,HRV_0006,2022-11-30 17:52:04
,wl-rdm,100,238412,0.0-6.92-0.92,0.0,101.0,,,,,,,[],,,,,,53.2,0.0,i,1.0,False,700.6000001430511,42.0,60.0,40.0,False,,227.42050420910505,[],"[960, 540]",ColorTask,69.0,93.0,,,HRV,HRV_0006,2022-11-30 17:52:04
,wl-rdm,101,240347,0.0-6.93-0.93,0.0,102.0,,,,,,,[],,,,,,73.6,0.0,u,0.0,True,507.5,31.0,60.0,40.0,False,,364.3574698126418,[],"[960, 540]",ColorTask,70.0,94.0,,,HRV,HRV_0006,2022-11-30 17:52:04
,wl-rdm,102,242449,0.0-6.94-0.94,0.0,103.0,,,,,,,[],,,,,,62.5,1.0,i,1.0,True,653.7999999523163,40.0,60.0,40.0,False,,368.0362528692226,[],"[960, 540]",ColorTask,71.0,95.0,,,HRV,HRV_0006,2022-11-30 17:52:04
,wl-rdm,103,244335,0.0-6.95-0.95,0.0,104.0,,,,,,,[],,,,,,53.2,1.0,i,1.0,True,586.8999998569489,36.0,60.0,40.0,False,,216.9450328755738,[],"[960, 540]",ColorTask,72.0,96.0,,,HRV,HRV_0006,2022-11-30 17:52:04
,wl-rdm,104,246187,0.0-6.96-0.96,0.0,105.0,,,,,,,[],,,,,,53.2,0.0,i,1.0,False,476.09999990463257,29.0,60.0,40.0,False,,302.31027151679507,[],"[960, 540]",ColorTask,71.0,97.0,,,HRV,HRV_0006,2022-11-30 17:52:04
,wl-rdm,105,248456,0.0-6.97-0.97,0.0,106.0,,,,,,,[],,,,,,53.2,1.0,i,1.0,True,846.6000001430511,51.0,60.0,40.0,False,,343.10195738338257,[],"[960, 540]",ColorTask,72.0,98.0,,,HRV,HRV_0006,2022-11-30 17:52:04
,wl-rdm,106,250375,0.0-6.98-0.98,0.0,107.0,,,,,,,[],,,,,,62.5,0.0,u,0.0,True,547.1000001430511,33.0,60.0,40.0,False,,302.42854933666496,[],"[960, 540]",ColorTask,73.0,99.0,,,HRV,HRV_0006,2022-11-30 17:52:04
,wl-rdm,107,252510,0.0-6.99-0.99,0.0,108.0,,,,,,,[],,,,,,62.5,0.0,u,0.0,True,822.2000000476837,50.0,60.0,40.0,False,,238.2481531132429,[],"[960, 540]",ColorTask,74.0,100.0,,,HRV,HRV_0006,2022-11-30 17:52:04
,wl-rdm,108,254428,0.0-6.100-0.100,0.0,109.0,,,,,,,[],,,,,,62.5,0.0,u,0.0,True,516.0999999046326,31.0,60.0,40.0,False,,345.39954188770446,[],"[960, 540]",ColorTask,75.0,101.0,,,HRV,HRV_0006,2022-11-30 17:52:04
,wl-rdm,109,256347,0.0-6.101-0.101,0.0,110.0,,,,,,,[],,,,,,87.9,0.0,u,0.0,True,583.6000001430511,35.0,60.0,40.0,False,,266.7132803322399,[],"[960, 540]",ColorTask,76.0,102.0,,,HRV,HRV_0006,2022-11-30 17:52:04
,wl-rdm,110,258249,0.0-6.102-0.102,0.0,111.0,,,,,,,[],,,,,,62.5,0.0,u,0.0,True,485.09999990463257,30.0,60.0,40.0,False,,349.53246751029604,[],"[960, 540]",ColorTask,77.0,103.0,,,HRV,HRV_0006,2022-11-30 17:52:04
,wl-rdm,111,260285,0.0-6.103-0.103,0.0,112.0,,,,,,,[],,,,,,87.9,1.0,i,1.0,True,591.5,36.0,60.0,40.0,False,,375.14869440301686,[],"[960, 540]",ColorTask,78.0,104.0,,,HRV,HRV_0006,2022-11-30 17:52:04
,wl-rdm,112,262387,0.0-6.104-0.104,0.0,113.0,,,,,,,[],,,,,,56.4,1.0,i,1.0,True,699.2999997138977,42.0,60.0,40.0,False,,343.44591362169626,[],"[960, 540]",ColorTask,79.0,105.0,,,HRV,HRV_0006,2022-11-30 17:52:04
,wl-rdm,113,264372,0.0-6.105-0.105,0.0,114.0,,,,,,,[],,,,,,53.2,0.0,i,1.0,False,573.9000000953674,35.0,60.0,40.0,False,,346.6584956133511,[],"[960, 540]",ColorTask,78.0,106.0,,,HRV,HRV_0006,2022-11-30 17:52:04
,wl-rdm,114,266624,0.0-6.106-0.106,0.0,115.0,,,,,,,[],,,,,,50.0,0.0,i,1.0,False,786.0999999046326,48.0,60.0,40.0,False,,391.9612824894389,[],"[960, 540]",ColorTask,77.0,107.0,,,HRV,HRV_0006,2022-11-30 17:52:04
,wl-rdm,115,268777,0.0-6.107-0.107,0.0,116.0,,,,,,,[],,,,,,50.0,1.0,i,1.0,True,720.1000001430511,44.0,60.0,40.0,False,,363.15996457494794,[],"[960, 540]",ColorTask,78.0,108.0,,,HRV,HRV_0006,2022-11-30 17:52:04
,wl-html-keyboard-response,116,276361,0.0-7.0-0.0,1.0,117.0,,,,,,,,5557.099999904633,1.0,0,,,,,,,,,,,,,,,,,,,,,,HRV,HRV_0006,2022-11-30 17:52:04
,wl-rdm,117,278270,0.0-8.0-0.0,1.0,118.0,,,,,,,[],,,,,,56.4,0.0,i,1.0,False,648.5999999046326,39.0,60.0,40.0,False,,205.79214890003368,[],"[960, 540]",ColorTask,77.0,1.0,,,HRV,HRV_0006,2022-11-30 17:52:04
,wl-rdm,118,280155,0.0-8.1-0.1,1.0,119.0,,,,,,,[],,,,,,73.6,1.0,i,1.0,True,541.7000002861023,33.0,60.0,40.0,False,,281.806987361136,[],"[960, 540]",ColorTask,78.0,2.0,,,HRV,HRV_0006,2022-11-30 17:52:04
,wl-rdm,119,282308,0.0-8.2-0.2,1.0,120.0,,,,,,,[],,,,,,62.5,0.0,u,0.0,True,786.7999999523163,48.0,60.0,40.0,False,,298.72635006588314,[],"[960, 540]",ColorTask,79.0,3.0,,,HRV,HRV_0006,2022-11-30 17:52:04
,wl-rdm,120,284276,0.0-8.3-0.3,1.0,121.0,,,,,,,[],,,,,,73.6,1.0,i,1.0,True,550.8000001907349,33.0,60.0,40.0,False,,365.50265958810917,[],"[960, 540]",ColorTask,80.0,4.0,,,HRV,HRV_0006,2022-11-30 17:52:04
,wl-rdm,121,286412,0.0-8.4-0.4,1.0,122.0,,,,,,,[],,,,,,53.2,0.0,u,0.0,True,703.6999998092651,43.0,60.0,40.0,False,,352.2047101873203,[],"[960, 540]",ColorTask,81.0,5.0,,,HRV,HRV_0006,2022-11-30 17:52:04
,wl-rdm,122,288414,0.0-8.5-0.5,1.0,123.0,,,,,,,[],,,,,,50.0,1.0,i,1.0,True,731.2000000476837,44.0,60.0,40.0,False,,209.80011129017032,[],"[960, 540]",ColorTask,82.0,6.0,,,HRV,HRV_0006,2022-11-30 17:52:04
,wl-rdm,123,290599,0.0-8.6-0.6,1.0,124.0,,,,,,,[],,,,,,56.4,0.0,i,1.0,False,745.5,45.0,60.0,40.0,False,,380.0889656946323,[],"[960, 540]",ColorTask,81.0,7.0,,,HRV,HRV_0006,2022-11-30 17:52:04
,wl-rdm,124,292518,0.0-8.7-0.7,1.0,125.0,,,,,,,[],,,,,,87.9,0.0,u,0.0,True,571.7000000476837,35.0,60.0,40.0,False,,279.0475066103088,[],"[960, 540]",ColorTask,82.0,8.0,,,HRV,HRV_0006,2022-11-30 17:52:04
,wl-rdm,125,294336,0.0-8.8-0.8,1.0,126.0,,,,,,,[],,,,,,87.9,1.0,i,1.0,True,486.2000000476837,30.0,60.0,40.0,False,,264.60448667365546,[],"[960, 540]",ColorTask,83.0,9.0,,,HRV,HRV_0006,2022-11-30 17:52:04
,wl-rdm,126,296238,0.0-8.9-0.9,1.0,127.0,,,,,,,[],,,,,,56.4,0.0,i,1.0,False,598.0999999046326,36.0,60.0,40.0,False,,240.12753266965177,[],"[960, 540]",ColorTask,82.0,10.0,,,HRV,HRV_0006,2022-11-30 17:52:04
,wl-rdm,127,298323,0.0-8.10-0.10,1.0,128.0,,,,,,,[],,,,,,50.0,1.0,u,0.0,False,758.0,46.0,60.0,40.0,False,,262.1738351048445,[],"[960, 540]",ColorTask,81.0,11.0,,,HRV,HRV_0006,2022-11-30 17:52:04
,wl-rdm,128,300259,0.0-8.11-0.11,1.0,129.0,,,,,,,[],,,,,,87.9,0.0,u,0.0,True,549.2999999523163,33.0,60.0,40.0,False,,331.7211051864325,[],"[960, 540]",ColorTask,82.0,12.0,,,HRV,HRV_0006,2022-11-30 17:52:04
,wl-rdm,129,302578,0.0-8.12-0.12,1.0,130.0,,,,,,,[],,,,,,53.2,1.0,i,1.0,True,927.5,56.0,60.0,40.0,False,,319.9011186759345,[],"[960, 540]",ColorTask,83.0,13.0,,,HRV,HRV_0006,2022-11-30 17:52:04
,wl-rdm,130,304479,0.0-8.13-0.13,1.0,131.0,,,,,,,[],,,,,,87.9,1.0,i,1.0,True,586.5,36.0,60.0,40.0,False,,246.8125452766384,[],"[960, 540]",ColorTask,84.0,14.0,,,HRV,HRV_0006,2022-11-30 17:52:04
,wl-rdm,131,306365,0.0-8.14-0.14,1.0,132.0,,,,,,,[],,,,,,73.6,1.0,i,1.0,True,472.9999997615814,28.0,60.0,40.0,False,,336.04358962774785,[],"[960, 540]",ColorTask,85.0,15.0,,,HRV,HRV_0006,2022-11-30 17:52:04
,wl-rdm,132,308634,0.0-8.15-0.15,1.0,133.0,,,,,,,[],,,,,,62.5,1.0,i,1.0,True,894.6999998092651,54.0,60.0,40.0,False,,302.444066898363,[],"[960, 540]",ColorTask,86.0,16.0,,,HRV,HRV_0006,2022-11-30 17:52:04
,wl-rdm,133,310519,0.0-8.16-0.16,1.0,134.0,,,,,,,[],,,,,,56.4,1.0,i,1.0,True,512.0,31.0,60.0,40.0,False,,302.5025212490856,[],"[960, 540]",ColorTask,87.0,17.0,,,HRV,HRV_0006,2022-11-30 17:52:04
,wl-rdm,134,312321,0.0-8.17-0.17,1.0,135.0,,,,,,,[],,,,,,62.5,1.0,i,1.0,True,502.89999985694885,31.0,60.0,40.0,False,,232.97678292635175,[],"[960, 540]",ColorTask,88.0,18.0,,,HRV,HRV_0006,2022-11-30 17:52:04
,wl-rdm,135,314072,0.0-8.18-0.18,1.0,136.0,,,,,,,[],,,,,,53.2,0.0,i,1.0,False,461.89999985694885,28.0,60.0,40.0,False,,205.6201430411439,[],"[960, 540]",ColorTask,87.0,19.0,,,HRV,HRV_0006,2022-11-30 17:52:04
,wl-rdm,136,315908,0.0-8.19-0.19,1.0,137.0,,,,,,,[],,,,,,87.9,0.0,u,0.0,True,514.8999998569489,31.0,60.0,40.0,False,,258.0146675274572,[],"[960, 540]",ColorTask,88.0,20.0,,,HRV,HRV_0006,2022-11-30 17:52:04
,wl-rdm,137,317927,0.0-8.20-0.20,1.0,138.0,,,,,,,[],,,,,,73.6,1.0,i,1.0,True,615.3000001907349,37.0,60.0,40.0,False,,341.277354882327,[],"[960, 540]",ColorTask,89.0,21.0,,,HRV,HRV_0006,2022-11-30 17:52:04
,wl-rdm,138,319929,0.0-8.21-0.21,1.0,139.0,,,,,,,[],,,,,,87.9,0.0,u,0.0,True,555.3999998569489,34.0,60.0,40.0,False,,381.0768766805621,[],"[960, 540]",ColorTask,90.0,22.0,,,HRV,HRV_0006,2022-11-30 17:52:04
,wl-rdm,139,321914,0.0-8.22-0.22,1.0,140.0,,,,,,,[],,,,,,56.4,0.0,u,0.0,True,586.1000001430511,36.0,60.0,40.0,False,,329.26939744528795,[],"[960, 540]",ColorTask,91.0,23.0,,,HRV,HRV_0006,2022-11-30 17:52:04
,wl-rdm,140,324233,0.0-8.23-0.23,1.0,141.0,,,,,,,[],,,,,,56.4,1.0,i,1.0,True,1043.2999999523163,63.0,60.0,40.0,False,,210.41659716752613,[],"[960, 540]",ColorTask,92.0,24.0,,,HRV,HRV_0006,2022-11-30 17:52:04
,wl-rdm,141,326151,0.0-8.24-0.24,1.0,142.0,,,,,,,[],,,,,,87.9,1.0,i,1.0,True,502.7999999523163,31.0,60.0,40.0,False,,345.57936113742016,[],"[960, 540]",ColorTask,93.0,25.0,,,HRV,HRV_0006,2022-11-30 17:52:04
,wl-rdm,142,328221,0.0-8.25-0.25,1.0,143.0,,,,,,,[],,,,,,56.4,0.0,i,1.0,False,772.7999999523163,47.0,60.0,40.0,False,,231.49475552718906,[],"[960, 540]",ColorTask,92.0,26.0,,,HRV,HRV_0006,2022-11-30 17:52:04
,wl-rdm,143,330123,0.0-8.26-0.26,1.0,144.0,,,,,,,[],,,,,,73.6,0.0,u,0.0,True,576.2999999523163,35.0,60.0,40.0,False,,252.54551788116308,[],"[960, 540]",ColorTask,93.0,27.0,,,HRV,HRV_0006,2022-11-30 17:52:04
,wl-rdm,144,332007,0.0-8.27-0.27,1.0,145.0,,,,,,,[],,,,,,56.4,0.0,i,1.0,False,510.59999990463257,31.0,60.0,40.0,False,,315.4966479482317,[],"[960, 540]",ColorTask,92.0,28.0,,,HRV,HRV_0006,2022-11-30 17:52:04
,wl-rdm,145,333877,0.0-8.28-0.28,1.0,146.0,,,,,,,[],,,,,,62.5,0.0,u,0.0,True,573.2000000476837,35.0,60.0,40.0,False,,221.58594793844787,[],"[960, 540]",ColorTask,93.0,29.0,,,HRV,HRV_0006,2022-11-30 17:52:04
,wl-rdm,146,335679,0.0-8.29-0.29,1.0,147.0,,,,,,,[],,,,,,87.9,1.0,i,1.0,True,504.09999990463257,31.0,60.0,40.0,False,,201.26402458115595,[],"[960, 540]",ColorTask,94.0,30.0,,,HRV,HRV_0006,2022-11-30 17:52:04
,wl-rdm,147,337864,0.0-8.30-0.30,1.0,148.0,,,,,,,[],,,,,,62.5,1.0,i,1.0,True,787.8999998569489,48.0,60.0,40.0,False,,331.0198069069482,[],"[960, 540]",ColorTask,95.0,31.0,,,HRV,HRV_0006,2022-11-30 17:52:04
,wl-rdm,148,339916,0.0-8.31-0.31,1.0,149.0,,,,,,,[],,,,,,62.5,1.0,i,1.0,True,673.8999998569489,41.0,60.0,40.0,False,,305.68441664928827,[],"[960, 540]",ColorTask,96.0,32.0,,,HRV,HRV_0006,2022-11-30 17:52:04
,wl-rdm,149,341851,0.0-8.32-0.32,1.0,150.0,,,,,,,[],,,,,,73.6,0.0,u,0.0,True,608.2000000476837,37.0,60.0,40.0,False,,261.59132999914624,[],"[960, 540]",ColorTask,97.0,33.0,,,HRV,HRV_0006,2022-11-30 17:52:04
,wl-rdm,150,343870,0.0-8.33-0.33,1.0,151.0,,,,,,,[],,,,,,62.5,0.0,u,0.0,True,612.5999999046326,37.0,60.0,40.0,False,,346.0742053310368,[],"[960, 540]",ColorTask,98.0,34.0,,,HRV,HRV_0006,2022-11-30 17:52:04
,wl-rdm,151,345888,0.0-8.34-0.34,1.0,152.0,,,,,,,[],,,,,,50.0,1.0,u,0.0,False,552.2000000476837,34.0,60.0,40.0,False,,394.6945038179191,[],"[960, 540]",ColorTask,97.0,35.0,,,HRV,HRV_0006,2022-11-30 17:52:04
,wl-rdm,152,348041,0.0-8.35-0.35,1.0,153.0,,,,,,,[],,,,,,50.0,1.0,u,0.0,False,826.9000000953674,50.0,60.0,40.0,False,,251.31010027376533,[],"[960, 540]",ColorTask,96.0,36.0,,,HRV,HRV_0006,2022-11-30 17:52:04
,wl-rdm,153,350059,0.0-8.36-0.36,1.0,154.0,,,,,,,[],,,,,,50.0,0.0,u,0.0,True,624.7999999523163,38.0,60.0,40.0,False,,332.03533444076015,[],"[960, 540]",ColorTask,97.0,37.0,,,HRV,HRV_0006,2022-11-30 17:52:04
,wl-rdm,154,351995,0.0-8.37-0.37,1.0,155.0,,,,,,,[],,,,,,53.2,1.0,i,1.0,True,659.0,40.0,60.0,40.0,False,,214.71492296216852,[],"[960, 540]",ColorTask,98.0,38.0,,,HRV,HRV_0006,2022-11-30 17:52:04
,wl-rdm,155,353963,0.0-8.38-0.38,1.0,156.0,,,,,,,[],,,,,,53.2,0.0,u,0.0,True,657.7999999523163,40.0,60.0,40.0,False,,241.76805918578455,[],"[960, 540]",ColorTask,99.0,39.0,,,HRV,HRV_0006,2022-11-30 17:52:04
,wl-rdm,156,356284,0.0-8.39-0.39,1.0,157.0,,,,,,,[],,,,,,50.0,0.0,i,1.0,False,937.7000000476837,57.0,60.0,40.0,False,,307.6387733300025,[],"[960, 540]",ColorTask,98.0,40.0,,,HRV,HRV_0006,2022-11-30 17:52:04
,wl-rdm,157,358485,0.0-8.40-0.40,1.0,158.0,,,,,,,[],,,,,,53.2,1.0,u,0.0,False,856.5000002384186,52.0,60.0,40.0,False,,271.689747471846,[],"[960, 540]",ColorTask,97.0,41.0,,,HRV,HRV_0006,2022-11-30 17:52:04
,wl-rdm,158,360487,0.0-8.41-0.41,1.0,159.0,,,,,,,[],,,,,,62.5,0.0,u,0.0,True,695.6999998092651,42.0,60.0,40.0,False,,234.941896950303,[],"[960, 540]",ColorTask,98.0,42.0,,,HRV,HRV_0006,2022-11-30 17:52:04
,wl-rdm,159,362522,0.0-8.42-0.42,1.0,160.0,,,,,,,[],,,,,,73.6,1.0,i,1.0,True,684.6000001430511,42.0,60.0,40.0,False,,280.6081142686463,[],"[960, 540]",ColorTask,99.0,43.0,,,HRV,HRV_0006,2022-11-30 17:52:04
,wl-rdm,160,364474,0.0-8.43-0.43,1.0,161.0,,,,,,,[],,,,,,87.9,0.0,u,0.0,True,649.7000000476837,39.0,60.0,40.0,False,,239.4335910568733,[],"[960, 540]",ColorTask,100.0,44.0,,,HRV,HRV_0006,2022-11-30 17:52:04
,wl-rdm,161,366426,0.0-8.44-0.44,1.0,162.0,,,,,,,[],,,,,,62.5,0.0,u,0.0,True,508.400000333786,31.0,60.0,40.0,False,,382.434403189261,[],"[960, 540]",ColorTask,101.0,45.0,,,HRV,HRV_0006,2022-11-30 17:52:04
,wl-rdm,162,368562,0.0-8.45-0.45,1.0,163.0,,,,,,,[],,,,,,62.5,0.0,u,0.0,True,834.5,51.0,60.0,40.0,False,,223.5245751109061,[],"[960, 540]",ColorTask,102.0,46.0,,,HRV,HRV_0006,2022-11-30 17:52:04
,wl-rdm,163,370514,0.0-8.46-0.46,1.0,164.0,,,,,,,[],,,,,,73.6,0.0,u,0.0,True,633.2000000476837,38.0,60.0,40.0,False,,258.73690157171444,[],"[960, 540]",ColorTask,103.0,47.0,,,HRV,HRV_0006,2022-11-30 17:52:04
,wl-rdm,164,372383,0.0-8.47-0.47,1.0,165.0,,,,,,,[],,,,,,73.6,0.0,u,0.0,True,570.6000001430511,35.0,60.0,40.0,False,,231.7411800242886,[],"[960, 540]",ColorTask,104.0,48.0,,,HRV,HRV_0006,2022-11-30 17:52:04
,wl-rdm,165,374235,0.0-8.48-0.48,1.0,166.0,,,,,,,[],,,,,,73.6,1.0,i,1.0,True,561.8999998569489,34.0,60.0,40.0,False,,232.87864248612453,[],"[960, 540]",ColorTask,105.0,49.0,,,HRV,HRV_0006,2022-11-30 17:52:04
,wl-rdm,166,376203,0.0-8.49-0.49,1.0,167.0,,,,,,,[],,,,,,56.4,1.0,i,1.0,True,599.8999998569489,36.0,60.0,40.0,False,,310.06957362569705,[],"[960, 540]",ColorTask,106.0,50.0,,,HRV,HRV_0006,2022-11-30 17:52:04
,wl-rdm,167,378138,0.0-8.50-0.50,1.0,168.0,,,,,,,[],,,,,,50.0,1.0,i,1.0,True,583.3000001907349,35.0,60.0,40.0,False,,298.37023389056895,[],"[960, 540]",ColorTask,107.0,51.0,,,HRV,HRV_0006,2022-11-30 17:52:04
,wl-rdm,168,380174,0.0-8.51-0.51,1.0,169.0,,,,,,,[],,,,,,73.6,1.0,i,1.0,True,672.7999999523163,41.0,60.0,40.0,False,,299.88643542544094,[],"[960, 540]",ColorTask,108.0,52.0,,,HRV,HRV_0006,2022-11-30 17:52:04
,wl-rdm,169,382443,0.0-8.52-0.52,1.0,170.0,,,,,,,[],,,,,,53.2,0.0,u,0.0,True,1000.7999999523163,60.0,60.0,40.0,False,,204.94680817922946,[],"[960, 540]",ColorTask,109.0,53.0,,,HRV,HRV_0006,2022-11-30 17:52:04
,wl-rdm,170,384312,0.0-8.53-0.53,1.0,171.0,,,,,,,[],,,,,,50.0,1.0,u,0.0,False,538.5,33.0,60.0,40.0,False,,247.72229906580662,[],"[960, 540]",ColorTask,108.0,54.0,,,HRV,HRV_0006,2022-11-30 17:52:04
,wl-rdm,171,386413,0.0-8.54-0.54,1.0,172.0,,,,,,,[],,,,,,50.0,0.0,u,0.0,True,814.1000001430511,49.0,60.0,40.0,False,,228.35639299823748,[],"[960, 540]",ColorTask,109.0,55.0,,,HRV,HRV_0006,2022-11-30 17:52:04
,wl-rdm,172,388583,0.0-8.55-0.55,1.0,173.0,,,,,,,[],,,,,,50.0,1.0,i,1.0,True,796.2000000476837,48.0,60.0,40.0,False,,314.3002447810498,[],"[960, 540]",ColorTask,110.0,56.0,,,HRV,HRV_0006,2022-11-30 17:52:04
,wl-rdm,173,390468,0.0-8.56-0.56,1.0,174.0,,,,,,,[],,,,,,50.0,0.0,i,1.0,False,581.5,35.0,60.0,40.0,False,,239.64031055538624,[],"[960, 540]",ColorTask,109.0,57.0,,,HRV,HRV_0006,2022-11-30 17:52:04
,wl-rdm,174,392270,0.0-8.57-0.57,1.0,175.0,,,,,,,[],,,,,,53.2,1.0,i,1.0,True,529.7999999523163,32.0,60.0,40.0,False,,202.52929273014243,[],"[960, 540]",ColorTask,110.0,58.0,,,HRV,HRV_0006,2022-11-30 17:52:04
,wl-rdm,175,394271,0.0-8.58-0.58,1.0,176.0,,,,,,,[],,,,,,50.0,1.0,i,1.0,True,569.9000000953674,35.0,60.0,40.0,False,,356.10950078091344,[],"[960, 540]",ColorTask,111.0,59.0,,,HRV,HRV_0006,2022-11-30 17:52:04
,wl-rdm,176,396324,0.0-8.59-0.59,1.0,177.0,,,,,,,[],,,,,,53.2,1.0,i,1.0,True,700.3999998569489,42.0,60.0,40.0,False,,298.21664451358424,[],"[960, 540]",ColorTask,112.0,60.0,,,HRV,HRV_0006,2022-11-30 17:52:04
,wl-rdm,177,399076,0.0-8.60-0.60,1.0,178.0,,,,,,,[],,,,,,53.2,1.0,i,1.0,True,1366.2000000476837,82.0,60.0,40.0,False,,325.13081811897985,[],"[960, 540]",ColorTask,113.0,61.0,,,HRV,HRV_0006,2022-11-30 17:52:04
,wl-rdm,178,400928,0.0-8.61-0.61,1.0,179.0,,,,,,,[],,,,,,50.0,0.0,i,1.0,False,552.6999998092651,34.0,60.0,40.0,False,,220.107348249977,[],"[960, 540]",ColorTask,112.0,62.0,,,HRV,HRV_0006,2022-11-30 17:52:04
,wl-rdm,179,402730,0.0-8.62-0.62,1.0,180.0,,,,,,,[],,,,,,56.4,1.0,i,1.0,True,501.39999985694885,31.0,60.0,40.0,False,,211.9192322240429,[],"[960, 540]",ColorTask,113.0,63.0,,,HRV,HRV_0006,2022-11-30 17:52:04
,wl-rdm,180,404733,0.0-8.63-0.63,1.0,181.0,,,,,,,[],,,,,,50.0,0.0,i,1.0,False,572.7000000476837,35.0,60.0,40.0,False,,352.5471728561271,[],"[960, 540]",ColorTask,112.0,64.0,,,HRV,HRV_0006,2022-11-30 17:52:04
,wl-rdm,181,406734,0.0-8.64-0.64,1.0,182.0,,,,,,,[],,,,,,56.4,1.0,i,1.0,True,571.3999998569489,35.0,60.0,40.0,False,,356.78833393342154,[],"[960, 540]",ColorTask,113.0,65.0,,,HRV,HRV_0006,2022-11-30 17:52:04
,wl-rdm,182,408687,0.0-8.65-0.65,1.0,183.0,,,,,,,[],,,,,,56.4,1.0,i,1.0,True,671.2999999523163,41.0,60.0,40.0,False,,206.78085765619568,[],"[960, 540]",ColorTask,114.0,66.0,,,HRV,HRV_0006,2022-11-30 17:52:04
,wl-rdm,183,410755,0.0-8.66-0.66,1.0,184.0,,,,,,,[],,,,,,73.6,0.0,u,0.0,True,666.3000001907349,40.0,60.0,40.0,False,,345.57534436298886,[],"[960, 540]",ColorTask,115.0,67.0,,,HRV,HRV_0006,2022-11-30 17:52:04
,wl-rdm,184,412807,0.0-8.67-0.67,1.0,185.0,,,,,,,[],,,,,,87.9,0.0,u,0.0,True,612.8999998569489,37.0,60.0,40.0,False,,370.7050801934612,[],"[960, 540]",ColorTask,116.0,68.0,,,HRV,HRV_0006,2022-11-30 17:52:04
,wl-rdm,185,414726,0.0-8.68-0.68,1.0,186.0,,,,,,,[],,,,,,56.4,1.0,i,1.0,True,614.2999999523163,37.0,60.0,40.0,False,,244.61959999532274,[],"[960, 540]",ColorTask,117.0,69.0,,,HRV,HRV_0006,2022-11-30 17:52:04
,wl-rdm,186,416929,0.0-8.69-0.69,1.0,187.0,,,,,,,[],,,,,,53.2,0.0,i,1.0,False,769.5000002384186,47.0,60.0,40.0,False,,351.1291346278713,[],"[960, 540]",ColorTask,116.0,70.0,,,HRV,HRV_0006,2022-11-30 17:52:04
,wl-rdm,187,418997,0.0-8.70-0.70,1.0,188.0,,,,,,,[],,,,,,53.2,1.0,i,1.0,True,730.400000333786,44.0,60.0,40.0,False,,283.1124154642604,[],"[960, 540]",ColorTask,117.0,71.0,,,HRV,HRV_0006,2022-11-30 17:52:04
,wl-rdm,188,420915,0.0-8.71-0.71,1.0,189.0,,,,,,,[],,,,,,73.6,0.0,u,0.0,True,585.6000001430511,36.0,60.0,40.0,False,,257.7777251469036,[],"[960, 540]",ColorTask,118.0,72.0,,,HRV,HRV_0006,2022-11-30 17:52:04
,wl-rdm,189,422884,0.0-8.72-0.72,1.0,190.0,,,,,,,[],,,,,,73.6,1.0,i,1.0,True,532.7999999523163,32.0,60.0,40.0,False,,377.0759584426788,[],"[960, 540]",ColorTask,119.0,73.0,,,HRV,HRV_0006,2022-11-30 17:52:04
,wl-rdm,190,424770,0.0-8.73-0.73,1.0,191.0,,,,,,,[],,,,,,62.5,1.0,i,1.0,True,586.3999998569489,36.0,60.0,40.0,False,,217.05055230928068,[],"[960, 540]",ColorTask,120.0,74.0,,,HRV,HRV_0006,2022-11-30 17:52:04
,wl-rdm,191,426672,0.0-8.74-0.74,1.0,192.0,,,,,,,[],,,,,,87.9,1.0,i,1.0,True,453.7000002861023,28.0,60.0,40.0,False,,381.8636695887367,[],"[960, 540]",ColorTask,121.0,75.0,,,HRV,HRV_0006,2022-11-30 17:52:04
,wl-rdm,192,428757,0.0-8.75-0.75,1.0,193.0,,,,,,,[],,,,,,56.4,0.0,u,0.0,True,698.5,42.0,60.0,40.0,False,,322.2794165856601,[],"[960, 540]",ColorTask,122.0,76.0,,,HRV,HRV_0006,2022-11-30 17:52:04
,wl-rdm,193,430643,0.0-8.76-0.76,1.0,194.0,,,,,,,[],,,,,,53.2,1.0,i,1.0,True,575.0999999046326,35.0,60.0,40.0,False,,244.59439314476936,[],"[960, 540]",ColorTask,123.0,77.0,,,HRV,HRV_0006,2022-11-30 17:52:04
,wl-rdm,194,432695,0.0-8.77-0.77,1.0,195.0,,,,,,,[],,,,,,56.4,0.0,u,0.0,True,671.2000000476837,41.0,60.0,40.0,False,,306.592185421182,[],"[960, 540]",ColorTask,124.0,78.0,,,HRV,HRV_0006,2022-11-30 17:52:04
,wl-rdm,195,434513,0.0-8.78-0.78,1.0,196.0,,,,,,,[],,,,,,87.9,0.0,u,0.0,True,518.7999999523163,32.0,60.0,40.0,False,,218.0984539715144,[],"[960, 540]",ColorTask,125.0,79.0,,,HRV,HRV_0006,2022-11-30 17:52:04
,wl-rdm,196,436432,0.0-8.79-0.79,1.0,197.0,,,,,,,[],,,,,,87.9,1.0,i,1.0,True,503.19999980926514,31.0,60.0,40.0,False,,346.80851540193646,[],"[960, 540]",ColorTask,126.0,80.0,,,HRV,HRV_0006,2022-11-30 17:52:04
,wl-rdm,197,438300,0.0-8.80-0.80,1.0,198.0,,,,,,,[],,,,,,53.2,0.0,i,1.0,False,550.7000000476837,33.0,60.0,40.0,False,,248.41548878843804,[],"[960, 540]",ColorTask,125.0,81.0,,,HRV,HRV_0006,2022-11-30 17:52:04
,wl-rdm,198,440236,0.0-8.81-0.81,1.0,199.0,,,,,,,[],,,,,,50.0,0.0,u,0.0,True,660.2000000476837,40.0,60.0,40.0,False,,212.2341100964529,[],"[960, 540]",ColorTask,126.0,82.0,,,HRV,HRV_0006,2022-11-30 17:52:04
,wl-rdm,199,442255,0.0-8.82-0.82,1.0,200.0,,,,,,,[],,,,,,73.6,0.0,u,0.0,True,580.8999998569489,35.0,60.0,40.0,False,,374.2144941523253,[],"[960, 540]",ColorTask,127.0,83.0,,,HRV,HRV_0006,2022-11-30 17:52:04
,wl-rdm,200,444290,0.0-8.83-0.83,1.0,201.0,,,,,,,[],,,,,,56.4,0.0,u,0.0,True,627.5,38.0,60.0,40.0,False,,342.02162369020584,[],"[960, 540]",ColorTask,128.0,84.0,,,HRV,HRV_0006,2022-11-30 17:52:04
,wl-rdm,201,446459,0.0-8.84-0.84,1.0,202.0,,,,,,,[],,,,,,62.5,0.0,u,0.0,True,859.7000000476837,52.0,60.0,40.0,False,,245.84060377758786,[],"[960, 540]",ColorTask,129.0,85.0,,,HRV,HRV_0006,2022-11-30 17:52:04
,wl-rdm,202,448778,0.0-8.85-0.85,1.0,203.0,,,,,,,[],,,,,,50.0,1.0,u,0.0,False,909.5000002384186,55.0,60.0,40.0,False,,343.70189686576543,[],"[960, 540]",ColorTask,128.0,86.0,,,HRV,HRV_0006,2022-11-30 17:52:04
,wl-rdm,203,450980,0.0-8.86-0.86,1.0,204.0,,,,,,,[],,,,,,56.4,1.0,i,1.0,True,736.4999997615814,45.0,60.0,40.0,False,,386.3497497562488,[],"[960, 540]",ColorTask,129.0,87.0,,,HRV,HRV_0006,2022-11-30 17:52:04
,wl-rdm,204,453049,0.0-8.87-0.87,1.0,205.0,,,,,,,[],,,,,,87.9,0.0,u,0.0,True,678.2999999523163,41.0,60.0,40.0,False,,318.70445369434685,[],"[960, 540]",ColorTask,130.0,88.0,,,HRV,HRV_0006,2022-11-30 17:52:04
,wl-rdm,205,455101,0.0-8.88-0.88,1.0,206.0,,,,,,,[],,,,,,87.9,0.0,u,0.0,True,648.5999999046326,39.0,60.0,40.0,False,,348.6290603072108,[],"[960, 540]",ColorTask,131.0,89.0,,,HRV,HRV_0006,2022-11-30 17:52:04
,wl-rdm,206,457119,0.0-8.89-0.89,1.0,207.0,,,,,,,[],,,,,,73.6,0.0,u,0.0,True,636.6000001430511,39.0,60.0,40.0,False,,305.5285945127164,[],"[960, 540]",ColorTask,132.0,90.0,,,HRV,HRV_0006,2022-11-30 17:52:04
,wl-rdm,207,459138,0.0-8.90-0.90,1.0,208.0,,,,,,,[],,,,,,53.2,0.0,i,1.0,False,719.4000000953674,44.0,60.0,40.0,False,,222.63522301305747,[],"[960, 540]",ColorTask,131.0,91.0,,,HRV,HRV_0006,2022-11-30 17:52:04
,wl-rdm,208,461340,0.0-8.91-0.91,1.0,209.0,,,,,,,[],,,,,,73.6,0.0,u,0.0,True,803.2000000476837,49.0,60.0,40.0,False,,308.2437418004923,[],"[960, 540]",ColorTask,132.0,92.0,,,HRV,HRV_0006,2022-11-30 17:52:04
,wl-rdm,209,463460,0.0-8.92-0.92,1.0,210.0,,,,,,,[],,,,,,62.5,1.0,i,1.0,True,675.6000001430511,41.0,60.0,40.0,False,,369.47711513671993,[],"[960, 540]",ColorTask,133.0,93.0,,,HRV,HRV_0006,2022-11-30 17:52:04
,wl-rdm,210,465662,0.0-8.93-0.93,1.0,211.0,,,,,,,[],,,,,,53.2,0.0,i,1.0,False,880.7999999523163,53.0,60.0,40.0,False,,261.8714088430061,[],"[960, 540]",ColorTask,132.0,94.0,,,HRV,HRV_0006,2022-11-30 17:52:04
,wl-rdm,211,467597,0.0-8.94-0.94,1.0,212.0,,,,,,,[],,,,,,73.6,1.0,i,1.0,True,481.40000009536743,29.0,60.0,40.0,False,,384.1931549747084,[],"[960, 540]",ColorTask,133.0,95.0,,,HRV,HRV_0006,2022-11-30 17:52:04
,wl-rdm,212,469483,0.0-8.95-0.95,1.0,213.0,,,,,,,[],,,,,,87.9,1.0,i,1.0,True,517.5,32.0,60.0,40.0,False,,284.5943443974055,[],"[960, 540]",ColorTask,134.0,96.0,,,HRV,HRV_0006,2022-11-30 17:52:04
,wl-rdm,213,471486,0.0-8.96-0.96,1.0,214.0,,,,,,,[],,,,,,56.4,1.0,i,1.0,True,608.6999998092651,37.0,60.0,40.0,False,,318.1783652489985,[],"[960, 540]",ColorTask,135.0,97.0,,,HRV,HRV_0006,2022-11-30 17:52:04
,wl-rdm,214,473470,0.0-8.97-0.97,1.0,215.0,,,,,,,[],,,,,,62.5,1.0,i,1.0,True,539.5999999046326,33.0,60.0,40.0,False,,356.84910885152493,[],"[960, 540]",ColorTask,136.0,98.0,,,HRV,HRV_0006,2022-11-30 17:52:04
,wl-rdm,215,475439,0.0-8.98-0.98,1.0,216.0,,,,,,,[],,,,,,50.0,0.0,i,1.0,False,522.5999999046326,32.0,60.0,40.0,False,,370.37798694283003,[],"[960, 540]",ColorTask,135.0,99.0,,,HRV,HRV_0006,2022-11-30 17:52:04
,wl-rdm,216,477391,0.0-8.99-0.99,1.0,217.0,,,,,,,[],,,,,,62.5,1.0,i,1.0,True,672.1999998092651,41.0,60.0,40.0,False,,204.6083871276627,[],"[960, 540]",ColorTask,136.0,100.0,,,HRV,HRV_0006,2022-11-30 17:52:04
,wl-rdm,217,479276,0.0-8.100-0.100,1.0,218.0,,,,,,,[],,,,,,53.2,0.0,i,1.0,False,591.8000001907349,36.0,60.0,40.0,False,,217.27000155567998,[],"[960, 540]",ColorTask,135.0,101.0,,,HRV,HRV_0006,2022-11-30 17:52:04
,wl-rdm,218,481745,0.0-8.101-0.101,1.0,219.0,,,,,,,[],,,,,,62.5,0.0,u,0.0,True,1162.0,70.0,60.0,40.0,False,,241.54381967329041,[],"[960, 540]",ColorTask,136.0,102.0,,,HRV,HRV_0006,2022-11-30 17:52:04
,wl-rdm,219,483681,0.0-8.102-0.102,1.0,220.0,,,,,,,[],,,,,,87.9,1.0,i,1.0,True,578.6999998092651,35.0,60.0,40.0,False,,292.40138021932773,[],"[960, 540]",ColorTask,137.0,103.0,,,HRV,HRV_0006,2022-11-30 17:52:04
,wl-rdm,220,485849,0.0-8.103-0.103,1.0,221.0,,,,,,,[],,,,,,62.5,0.0,u,0.0,True,786.8999998569489,48.0,60.0,40.0,False,,305.6843781158194,[],"[960, 540]",ColorTask,138.0,104.0,,,HRV,HRV_0006,2022-11-30 17:52:04
,wl-rdm,221,488000,0.0-8.104-0.104,1.0,222.0,,,,,,,[],,,,,,50.0,0.0,i,1.0,False,735.7999999523163,45.0,60.0,40.0,False,,321.40515139929585,[],"[960, 540]",ColorTask,137.0,105.0,,,HRV,HRV_0006,2022-11-30 17:52:04
,wl-rdm,222,490087,0.0-8.105-0.105,1.0,223.0,,,,,,,[],,,,,,62.5,1.0,i,1.0,True,647.2000000476837,39.0,60.0,40.0,False,,379.95772189016714,[],"[960, 540]",ColorTask,138.0,106.0,,,HRV,HRV_0006,2022-11-30 17:52:04
,wl-rdm,223,492388,0.0-8.106-0.106,1.0,224.0,,,,,,,[],,,,,,87.9,1.0,i,1.0,True,981.7999999523163,59.0,60.0,40.0,False,,252.87389907323123,[],"[960, 540]",ColorTask,139.0,107.0,,,HRV,HRV_0006,2022-11-30 17:52:04
,wl-rdm,224,494324,0.0-8.107-0.107,1.0,225.0,,,,,,,[],,,,,,53.2,1.0,i,1.0,True,631.5,38.0,60.0,40.0,False,,243.06852771520272,[],"[960, 540]",ColorTask,140.0,108.0,,,HRV,HRV_0006,2022-11-30 17:52:04
,wl-html-button-response,225,496593,0.0-9.0-0.0,,,,,,,,,,2267.7999999523163,,0,,,,,,,,,,,,,,,,,,,,<h3>End of this session. Thank you!</h3><br>,['Close window'],HRV,HRV_0006,2022-11-30 17:52:04
