trialN,stimuli,trialStartTime,trialStartTime_UNIX,stimulus1,stimulus2,stimulus1Bid,stimulus2Bid,delta,selected,rt,rt_UNIX,rt_perfnow,receivedResponse,rsp,trialEndTime,trialDuration,trialEndTime_UNIX,trialDuration_UNIX,exp,subjectId,date
0,"[{'imgObject': {}, 'id': 'burger', 'src': '/static/foodstim60/burger.jpg', 'key': 'u', 'origWidth': 409, 'origHeight': 409, 'width': 409, 'height': 409, 'widthPercent': 0.45, 'rescaleHeight': False, 'trialN': 0, 'loaded': True, 'loadedTime': 4206, 'positionName': 'LEFT', 'positionCoords': [246.68, 179.5], 'bid': 6.62}, {'imgObject': {}, 'id': 'cherry tomato', 'src': '/static/foodstim60/cherry tomato.jpg', 'key': 'i', 'origWidth': 410, 'origHeight': 410, 'width': 410, 'height': 410, 'widthPercent': 0.45, 'rescaleHeight': False, 'trialN': 0, 'loaded': True, 'loadedTime': 4216.800000071526, 'positionName': 'RIGHT', 'positionCoords': [710.32, 179], 'bid': 9.58}]",4888.800000071526,1669832729524,burger,cherry tomato,6.62,9.58,2.96,cherry tomato,953.1999999284744,954,953.5999999046326,True,i,6343.100000023842,1454.2999999523163,1669832730979,1455,HRV,HRV_0183,2022-11-30 18:31:08
1,"[{'imgObject': {}, 'id': 'fried eggs', 'src': '/static/foodstim60/fried eggs.jpg', 'key': 'u', 'origWidth': 410, 'origHeight': 410, 'width': 410, 'height': 410, 'widthPercent': 0.45, 'rescaleHeight': False, 'trialN': 1, 'loaded': True, 'loadedTime': 4217.700000047684, 'positionName': 'LEFT', 'positionCoords': [245.68, 179], 'bid': 1.74}, {'imgObject': {}, 'id': 'rigatoni', 'src': '/static/foodstim60/rigatoni.jpg', 'key': 'i', 'origWidth': 411, 'origHeight': 411, 'width': 411, 'height': 411, 'widthPercent': 0.45, 'rescaleHeight': False, 'trialN': 1, 'loaded': True, 'loadedTime': 4222.600000023842, 'positionName': 'RIGHT', 'positionCoords': [710.32, 178.5], 'bid': 1.66}]",6343.399999976158,1669832730979,fried eggs,rigatoni,1.74,1.66,-0.08000000000000007,fried eggs,1319.6000000238419,1320,1320.0,True,u,8168.899999976158,1825.5,1669832732804,1825,HRV,HRV_0183,2022-11-30 18:31:08
2,"[{'imgObject': {}, 'id': 'turkey sandwich', 'src': '/static/foodstim60/turkey sandwich.jpg', 'key': 'u', 'origWidth': 409, 'origHeight': 409, 'width': 409, 'height': 409, 'widthPercent': 0.45, 'rescaleHeight': False, 'trialN': 2, 'loaded': True, 'loadedTime': 4233.5, 'positionName': 'LEFT', 'positionCoords': [246.68, 179.5], 'bid': 8.57}, {'imgObject': {}, 'id': 'banana', 'src': '/static/foodstim60/banana.jpg', 'key': 'i', 'origWidth': 410, 'origHeight': 410, 'width': 410, 'height': 410, 'widthPercent': 0.45, 'rescaleHeight': False, 'trialN': 2, 'loaded': True, 'loadedTime': 4247.700000047684, 'positionName': 'RIGHT', 'positionCoords': [710.32, 179], 'bid': 8.3}]",8169.200000047684,1669832732805,turkey sandwich,banana,8.57,8.3,-0.2699999999999996,turkey sandwich,852.8999999761581,853,853.2999999523163,True,u,9540.100000023842,1370.8999999761581,1669832734176,1371,HRV,HRV_0183,2022-11-30 18:31:08
3,"[{'imgObject': {}, 'id': 'fried eggs', 'src': '/static/foodstim60/fried eggs.jpg', 'key': 'u', 'origWidth': 410, 'origHeight': 410, 'width': 410, 'height': 410, 'widthPercent': 0.45, 'rescaleHeight': False, 'trialN': 3, 'loaded': True, 'loadedTime': 4218.600000023842, 'positionName': 'LEFT', 'positionCoords': [245.68, 179], 'bid': 1.74}, {'imgObject': {}, 'id': 'olives', 'src': '/static/foodstim60/olives.jpg', 'key': 'i', 'origWidth': 410, 'origHeight': 410, 'width': 410, 'height': 410, 'widthPercent': 0.45, 'rescaleHeight': False, 'trialN': 3, 'loaded': True, 'loadedTime': 4266.200000047684, 'positionName': 'RIGHT', 'positionCoords': [710.32, 179], 'bid': 4.16}]",9540.300000071526,1669832734176,fried eggs,olives,1.74,4.16,2.42,olives,1482.3999999761581,1482,1482.6999999284744,True,i,11529.5,1989.1999999284744,1669832736165,1989,HRV,HRV_0183,2022-11-30 18:31:08
4,"[{'imgObject': {}, 'id': 'raisin bran w milk', 'src': '/static/foodstim60/raisin bran w milk.jpg', 'key': 'u', 'origWidth': 411, 'origHeight': 411, 'width': 411, 'height': 411, 'widthPercent': 0.45, 'rescaleHeight': False, 'trialN': 4, 'loaded': True, 'loadedTime': 4268.399999976158, 'positionName': 'LEFT', 'positionCoords': [244.68, 178.5], 'bid': 5.3}, {'imgObject': {}, 'id': 'eggsalad', 'src': '/static/foodstim60/eggsalad.jpg', 'key': 'i', 'origWidth': 410, 'origHeight': 409, 'width': 410, 'height': 409, 'widthPercent': 0.45, 'rescaleHeight': False, 'trialN': 4, 'loaded': True, 'loadedTime': 4273.300000071526, 'positionName': 'RIGHT', 'positionCoords': [710.32, 179.5], 'bid': 0.87}]",11529.700000047684,1669832736165,raisin bran w milk,eggsalad,5.3,0.87,-4.43,raisin bran w milk,1076.8999999761581,1078,1078.0,True,u,13117.200000047684,1587.5,1669832737753,1588,HRV,HRV_0183,2022-11-30 18:31:08
5,"[{'imgObject': {}, 'id': 'baked potato', 'src': '/static/foodstim60/baked potato.jpg', 'key': 'u', 'origWidth': 409, 'origHeight': 410, 'width': 409, 'height': 410, 'widthPercent': 0.45, 'rescaleHeight': False, 'trialN': 5, 'loaded': True, 'loadedTime': 4277.899999976158, 'positionName': 'LEFT', 'positionCoords': [246.68, 179], 'bid': 3.62}, {'imgObject': {}, 'id': 'salmon', 'src': '/static/foodstim60/salmon.jpg', 'key': 'i', 'origWidth': 410, 'origHeight': 409, 'width': 410, 'height': 409, 'widthPercent': 0.45, 'rescaleHeight': False, 'trialN': 5, 'loaded': True, 'loadedTime': 4280.5, 'positionName': 'RIGHT', 'positionCoords': [710.32, 179.5], 'bid': 3.28}]",13117.399999976158,1669832737753,baked potato,salmon,3.62,3.28,-0.3400000000000003,salmon,1489.1000000238419,1489,1489.4000000953674,True,i,15119.899999976158,2002.5,1669832739755,2002,HRV,HRV_0183,2022-11-30 18:31:08
6,"[{'imgObject': {}, 'id': 'burrito', 'src': '/static/foodstim60/burrito.jpg', 'key': 'u', 'origWidth': 410, 'origHeight': 410, 'width': 410, 'height': 410, 'widthPercent': 0.45, 'rescaleHeight': False, 'trialN': 6, 'loaded': True, 'loadedTime': 4282.600000023842, 'positionName': 'LEFT', 'positionCoords': [245.68, 179], 'bid': 9.24}, {'imgObject': {}, 'id': 'blueberries', 'src': '/static/foodstim60/blueberries.jpg', 'key': 'i', 'origWidth': 411, 'origHeight': 411, 'width': 411, 'height': 411, 'widthPercent': 0.45, 'rescaleHeight': False, 'trialN': 6, 'loaded': True, 'loadedTime': 4284, 'positionName': 'RIGHT', 'positionCoords': [710.32, 178.5], 'bid': 9.28}]",15120.100000023842,1669832739756,burrito,blueberries,9.24,9.28,0.03999999999999915,blueberries,2332.5,2332,2332.899999976158,True,i,17965.899999976158,2845.7999999523163,1669832742601,2845,HRV,HRV_0183,2022-11-30 18:31:08
7,"[{'imgObject': {}, 'id': 'Grapes', 'src': '/static/foodstim60/Grapes.jpg', 'key': 'u', 'origWidth': 411, 'origHeight': 411, 'width': 411, 'height': 411, 'widthPercent': 0.45, 'rescaleHeight': False, 'trialN': 7, 'loaded': True, 'loadedTime': 4286.600000023842, 'positionName': 'LEFT', 'positionCoords': [244.68, 178.5], 'bid': 8.61}, {'imgObject': {}, 'id': 'cheerios', 'src': '/static/foodstim60/cheerios.jpg', 'key': 'i', 'origWidth': 409, 'origHeight': 410, 'width': 409, 'height': 410, 'widthPercent': 0.45, 'rescaleHeight': False, 'trialN': 7, 'loaded': True, 'loadedTime': 4286.800000071526, 'positionName': 'RIGHT', 'positionCoords': [710.32, 179], 'bid': 5.3}]",17966.100000023842,1669832742602,Grapes,cheerios,8.61,5.3,-3.3099999999999996,Grapes,1330.2999999523163,1330,1330.6000000238419,True,u,19805.800000071526,1839.7000000476837,1669832744441,1839,HRV,HRV_0183,2022-11-30 18:31:08
8,"[{'imgObject': {}, 'id': 'mashed potato', 'src': '/static/foodstim60/mashed potato.jpg', 'key': 'u', 'origWidth': 409, 'origHeight': 409, 'width': 409, 'height': 409, 'widthPercent': 0.45, 'rescaleHeight': False, 'trialN': 8, 'loaded': True, 'loadedTime': 4290.399999976158, 'positionName': 'LEFT', 'positionCoords': [246.68, 179.5], 'bid': 5.05}, {'imgObject': {}, 'id': 'baked potato', 'src': '/static/foodstim60/baked potato.jpg', 'key': 'i', 'origWidth': 409, 'origHeight': 410, 'width': 409, 'height': 410, 'widthPercent': 0.45, 'rescaleHeight': False, 'trialN': 8, 'loaded': True, 'loadedTime': 4277.700000047684, 'positionName': 'RIGHT', 'positionCoords': [710.32, 179], 'bid': 3.62}]",19806.0,1669832744441,mashed potato,baked potato,5.05,3.62,-1.4299999999999997,mashed potato,1695.0,1696,1695.3999999761581,True,u,22015.5,2209.5,1669832746651,2210,HRV,HRV_0183,2022-11-30 18:31:08
9,"[{'imgObject': {}, 'id': 'cantaloupe', 'src': '/static/foodstim60/cantaloupe.jpg', 'key': 'u', 'origWidth': 409, 'origHeight': 409, 'width': 409, 'height': 409, 'widthPercent': 0.45, 'rescaleHeight': False, 'trialN': 9, 'loaded': True, 'loadedTime': 4296.899999976158, 'positionName': 'LEFT', 'positionCoords': [246.68, 179.5], 'bid': 0.68}, {'imgObject': {}, 'id': 'popsicles', 'src': '/static/foodstim60/popsicles.jpg', 'key': 'i', 'origWidth': 410, 'origHeight': 410, 'width': 410, 'height': 410, 'widthPercent': 0.45, 'rescaleHeight': False, 'trialN': 9, 'loaded': True, 'loadedTime': 4888.5, 'positionName': 'RIGHT', 'positionCoords': [710.32, 179], 'bid': 5.13}]",22015.700000047684,1669832746651,cantaloupe,popsicles,0.68,5.13,4.45,popsicles,1028.6000000238419,1029,1028.8999999761581,True,i,23558.399999976158,1542.6999999284744,1669832748194,1543,HRV,HRV_0183,2022-11-30 18:31:08
10,"[{'imgObject': {}, 'id': 'corn cob', 'src': '/static/foodstim60/corn cob.jpg', 'key': 'u', 'origWidth': 411, 'origHeight': 411, 'width': 411, 'height': 411, 'widthPercent': 0.45, 'rescaleHeight': False, 'trialN': 10, 'loaded': True, 'loadedTime': 4308.100000023842, 'positionName': 'LEFT', 'positionCoords': [244.68, 178.5], 'bid': 5.5200000000000005}, {'imgObject': {}, 'id': 'olives', 'src': '/static/foodstim60/olives.jpg', 'key': 'i', 'origWidth': 410, 'origHeight': 410, 'width': 410, 'height': 410, 'widthPercent': 0.45, 'rescaleHeight': False, 'trialN': 10, 'loaded': True, 'loadedTime': 4266, 'positionName': 'RIGHT', 'positionCoords': [710.32, 179], 'bid': 4.16}]",23558.600000023842,1669832748194,corn cob,olives,5.5200000000000005,4.16,-1.3600000000000003,corn cob,1122.1000000238419,1122,1122.3999999761581,True,u,25191.800000071526,1633.2000000476837,1669832749827,1633,HRV,HRV_0183,2022-11-30 18:31:08
11,"[{'imgObject': {}, 'id': 'corn cob', 'src': '/static/foodstim60/corn cob.jpg', 'key': 'u', 'origWidth': 411, 'origHeight': 411, 'width': 411, 'height': 411, 'widthPercent': 0.45, 'rescaleHeight': False, 'trialN': 11, 'loaded': True, 'loadedTime': 4309.800000071526, 'positionName': 'LEFT', 'positionCoords': [244.68, 178.5], 'bid': 5.5200000000000005}, {'imgObject': {}, 'id': 'kiwi', 'src': '/static/foodstim60/kiwi.jpg', 'key': 'i', 'origWidth': 410, 'origHeight': 410, 'width': 410, 'height': 410, 'widthPercent': 0.45, 'rescaleHeight': False, 'trialN': 11, 'loaded': True, 'loadedTime': 4318.200000047684, 'positionName': 'RIGHT', 'positionCoords': [710.32, 179], 'bid': 6.44}]",25192.0,1669832749827,corn cob,kiwi,5.5200000000000005,6.44,0.9199999999999999,kiwi,975.7000000476837,977,976.1000000238419,True,i,26669.600000023842,1477.6000000238419,1669832751305,1478,HRV,HRV_0183,2022-11-30 18:31:08
12,"[{'imgObject': {}, 'id': 'mango', 'src': '/static/foodstim60/mango.jpg', 'key': 'u', 'origWidth': 411, 'origHeight': 411, 'width': 411, 'height': 411, 'widthPercent': 0.45, 'rescaleHeight': False, 'trialN': 12, 'loaded': True, 'loadedTime': 4336.100000023842, 'positionName': 'LEFT', 'positionCoords': [244.68, 178.5], 'bid': 0}, {'imgObject': {}, 'id': 'steak', 'src': '/static/foodstim60/steak.jpg', 'key': 'i', 'origWidth': 410, 'origHeight': 410, 'width': 410, 'height': 410, 'widthPercent': 0.45, 'rescaleHeight': False, 'trialN': 12, 'loaded': True, 'loadedTime': 4337.300000071526, 'positionName': 'RIGHT', 'positionCoords': [710.32, 179], 'bid': 2.08}]",26669.700000047684,1669832751305,mango,steak,0.0,2.08,2.08,steak,1404.1000000238419,1404,1404.5,True,i,28584.899999976158,1915.1999999284744,1669832753220,1915,HRV,HRV_0183,2022-11-30 18:31:08
13,"[{'imgObject': {}, 'id': 'cocktailshrimp', 'src': '/static/foodstim60/cocktailshrimp.jpg', 'key': 'u', 'origWidth': 410, 'origHeight': 410, 'width': 410, 'height': 410, 'widthPercent': 0.45, 'rescaleHeight': False, 'trialN': 13, 'loaded': True, 'loadedTime': 4344.5, 'positionName': 'LEFT', 'positionCoords': [245.68, 179], 'bid': 9.33}, {'imgObject': {}, 'id': 'strawberries', 'src': '/static/foodstim60/strawberries.jpg', 'key': 'i', 'origWidth': 410, 'origHeight': 410, 'width': 410, 'height': 410, 'widthPercent': 0.45, 'rescaleHeight': False, 'trialN': 13, 'loaded': True, 'loadedTime': 4355.899999976158, 'positionName': 'RIGHT', 'positionCoords': [710.32, 179], 'bid': 9.5}]",28585.100000023842,1669832753220,cocktailshrimp,strawberries,9.33,9.5,0.16999999999999993,cocktailshrimp,1378.2999999523163,1379,1378.7000000476837,True,u,30469.399999976158,1884.2999999523163,1669832755104,1884,HRV,HRV_0183,2022-11-30 18:31:08
14,"[{'imgObject': {}, 'id': 'fried eggs', 'src': '/static/foodstim60/fried eggs.jpg', 'key': 'u', 'origWidth': 410, 'origHeight': 410, 'width': 410, 'height': 410, 'widthPercent': 0.45, 'rescaleHeight': False, 'trialN': 14, 'loaded': True, 'loadedTime': 4218.899999976158, 'positionName': 'LEFT', 'positionCoords': [245.68, 179], 'bid': 1.74}, {'imgObject': {}, 'id': 'chicken nuggets2', 'src': '/static/foodstim60/chicken nuggets2.jpg', 'key': 'i', 'origWidth': 410, 'origHeight': 409, 'width': 410, 'height': 409, 'widthPercent': 0.45, 'rescaleHeight': False, 'trialN': 14, 'loaded': True, 'loadedTime': 4357.800000071526, 'positionName': 'RIGHT', 'positionCoords': [710.32, 179.5], 'bid': 1.12}]",30469.600000023842,1669832755104,fried eggs,chicken nuggets2,1.74,1.12,-0.6199999999999999,fried eggs,1590.2999999523163,1591,1590.6000000238419,True,u,32572.100000023842,2102.5,1669832757207,2103,HRV,HRV_0183,2022-11-30 18:31:08
15,"[{'imgObject': {}, 'id': 'cherries', 'src': '/static/foodstim60/cherries.jpg', 'key': 'u', 'origWidth': 410, 'origHeight': 411, 'width': 410, 'height': 411, 'widthPercent': 0.45, 'rescaleHeight': False, 'trialN': 15, 'loaded': True, 'loadedTime': 4367.300000071526, 'positionName': 'LEFT', 'positionCoords': [245.68, 178.5], 'bid': 9.75}, {'imgObject': {}, 'id': 'cherry tomato', 'src': '/static/foodstim60/cherry tomato.jpg', 'key': 'i', 'origWidth': 410, 'origHeight': 410, 'width': 410, 'height': 410, 'widthPercent': 0.45, 'rescaleHeight': False, 'trialN': 15, 'loaded': True, 'loadedTime': 4215.600000023842, 'positionName': 'RIGHT', 'positionCoords': [710.32, 179], 'bid': 9.58}]",32572.300000071526,1669832757207,cherries,cherry tomato,9.75,9.58,-0.16999999999999993,cherry tomato,2186.1999999284744,2187,2186.5,True,i,35275.10000002384,2702.7999999523163,1669832759910,2703,HRV,HRV_0183,2022-11-30 18:31:08
16,"[{'imgObject': {}, 'id': 'turkeysandwich', 'src': '/static/foodstim60/turkeysandwich.jpg', 'key': 'u', 'origWidth': 409, 'origHeight': 409, 'width': 409, 'height': 409, 'widthPercent': 0.45, 'rescaleHeight': False, 'trialN': 16, 'loaded': True, 'loadedTime': 4367.5, 'positionName': 'LEFT', 'positionCoords': [246.68, 179.5], 'bid': 8.26}, {'imgObject': {}, 'id': 'raspberries', 'src': '/static/foodstim60/raspberries.jpg', 'key': 'i', 'origWidth': 411, 'origHeight': 411, 'width': 411, 'height': 411, 'widthPercent': 0.45, 'rescaleHeight': False, 'trialN': 16, 'loaded': True, 'loadedTime': 4369.5, 'positionName': 'RIGHT', 'positionCoords': [710.32, 178.5], 'bid': 9.61}]",35275.200000047684,1669832759910,turkeysandwich,raspberries,8.26,9.61,1.3499999999999996,turkeysandwich,1616.3999999761581,1617,1616.6999999284744,True,u,37412.800000071526,2137.600000023842,1669832762048,2138,HRV,HRV_0183,2022-11-30 18:31:08
17,"[{'imgObject': {}, 'id': 'corn cob', 'src': '/static/foodstim60/corn cob.jpg', 'key': 'u', 'origWidth': 411, 'origHeight': 411, 'width': 411, 'height': 411, 'widthPercent': 0.45, 'rescaleHeight': False, 'trialN': 17, 'loaded': True, 'loadedTime': 4309.5, 'positionName': 'LEFT', 'positionCoords': [244.68, 178.5], 'bid': 5.5200000000000005}, {'imgObject': {}, 'id': 'bagel plain', 'src': '/static/foodstim60/bagel plain.jpg', 'key': 'i', 'origWidth': 410, 'origHeight': 410, 'width': 410, 'height': 410, 'widthPercent': 0.45, 'rescaleHeight': False, 'trialN': 17, 'loaded': True, 'loadedTime': 4379.899999976158, 'positionName': 'RIGHT', 'positionCoords': [710.32, 179], 'bid': 1.42}]",37412.89999997616,1669832762048,corn cob,bagel plain,5.5200000000000005,1.42,-4.1000000000000005,corn cob,1770.8000000715256,1771,1771.1000000238419,True,u,39687.800000071526,2274.9000000953674,1669832764323,2275,HRV,HRV_0183,2022-11-30 18:31:08
18,"[{'imgObject': {}, 'id': 'eggs', 'src': '/static/foodstim60/eggs.jpg', 'key': 'u', 'origWidth': 409, 'origHeight': 409, 'width': 409, 'height': 409, 'widthPercent': 0.45, 'rescaleHeight': False, 'trialN': 18, 'loaded': True, 'loadedTime': 4380.800000071526, 'positionName': 'LEFT', 'positionCoords': [246.68, 179.5], 'bid': 0.3}, {'imgObject': {}, 'id': 'luckycharms', 'src': '/static/foodstim60/luckycharms.jpg', 'key': 'i', 'origWidth': 410, 'origHeight': 409, 'width': 410, 'height': 409, 'widthPercent': 0.45, 'rescaleHeight': False, 'trialN': 18, 'loaded': True, 'loadedTime': 4400, 'positionName': 'RIGHT', 'positionCoords': [710.32, 179.5], 'bid': 1.98}]",39688.10000002384,1669832764323,eggs,luckycharms,0.3,1.98,1.68,luckycharms,1406.7000000476837,1407,1407.0,True,i,41599.10000002384,1911.0,1669832766234,1911,HRV,HRV_0183,2022-11-30 18:31:08
19,"[{'imgObject': {}, 'id': 'blueberries', 'src': '/static/foodstim60/blueberries.jpg', 'key': 'u', 'origWidth': 411, 'origHeight': 411, 'width': 411, 'height': 411, 'widthPercent': 0.45, 'rescaleHeight': False, 'trialN': 19, 'loaded': True, 'loadedTime': 4284.399999976158, 'positionName': 'LEFT', 'positionCoords': [244.68, 178.5], 'bid': 9.28}, {'imgObject': {}, 'id': 'strawberries', 'src': '/static/foodstim60/strawberries.jpg', 'key': 'i', 'origWidth': 410, 'origHeight': 410, 'width': 410, 'height': 410, 'widthPercent': 0.45, 'rescaleHeight': False, 'trialN': 19, 'loaded': True, 'loadedTime': 4356.200000047684, 'positionName': 'RIGHT', 'positionCoords': [710.32, 179], 'bid': 9.5}]",41599.39999997616,1669832766234,blueberries,strawberries,9.28,9.5,0.22000000000000064,strawberries,1688.7000000476837,1689,1689.0,True,i,43793.89999997616,2194.5,1669832768429,2195,HRV,HRV_0183,2022-11-30 18:31:08
20,"[{'imgObject': {}, 'id': 'sushi w_condiments', 'src': '/static/foodstim60/sushi w_condiments.jpg', 'key': 'u', 'origWidth': 410, 'origHeight': 410, 'width': 410, 'height': 410, 'widthPercent': 0.45, 'rescaleHeight': False, 'trialN': 20, 'loaded': True, 'loadedTime': 4401.399999976158, 'positionName': 'LEFT', 'positionCoords': [245.68, 179], 'bid': 2.01}, {'imgObject': {}, 'id': 'roastedpotatoes', 'src': '/static/foodstim60/roastedpotatoes.jpg', 'key': 'i', 'origWidth': 409, 'origHeight': 410, 'width': 409, 'height': 410, 'widthPercent': 0.45, 'rescaleHeight': False, 'trialN': 20, 'loaded': True, 'loadedTime': 4401.899999976158, 'positionName': 'RIGHT', 'positionCoords': [710.32, 179], 'bid': 4.73}]",43794.0,1669832768429,sushi w_condiments,roastedpotatoes,2.01,4.73,2.7200000000000006,roastedpotatoes,2447.600000023842,2448,2448.0,True,i,46758.60000002384,2964.600000023842,1669832771393,2964,HRV,HRV_0183,2022-11-30 18:31:08
21,"[{'imgObject': {}, 'id': 'burrito', 'src': '/static/foodstim60/burrito.jpg', 'key': 'u', 'origWidth': 410, 'origHeight': 410, 'width': 410, 'height': 410, 'widthPercent': 0.45, 'rescaleHeight': False, 'trialN': 21, 'loaded': True, 'loadedTime': 4282.200000047684, 'positionName': 'LEFT', 'positionCoords': [245.68, 179], 'bid': 9.24}, {'imgObject': {}, 'id': 'cocktailshrimp', 'src': '/static/foodstim60/cocktailshrimp.jpg', 'key': 'i', 'origWidth': 410, 'origHeight': 410, 'width': 410, 'height': 410, 'widthPercent': 0.45, 'rescaleHeight': False, 'trialN': 21, 'loaded': True, 'loadedTime': 4346.200000047684, 'positionName': 'RIGHT', 'positionCoords': [710.32, 179], 'bid': 9.33}]",46758.800000071526,1669832771394,burrito,cocktailshrimp,9.24,9.33,0.08999999999999986,cocktailshrimp,2472.5,2472,2472.7999999523163,True,i,49737.300000071526,2978.5,1669832774372,2978,HRV,HRV_0183,2022-11-30 18:31:08
22,"[{'imgObject': {}, 'id': 'sweetpotato', 'src': '/static/foodstim60/sweetpotato.jpg', 'key': 'u', 'origWidth': 410, 'origHeight': 410, 'width': 410, 'height': 410, 'widthPercent': 0.45, 'rescaleHeight': False, 'trialN': 22, 'loaded': True, 'loadedTime': 4411.899999976158, 'positionName': 'LEFT', 'positionCoords': [245.68, 179], 'bid': 6.5}, {'imgObject': {}, 'id': 'cocktailshrimp', 'src': '/static/foodstim60/cocktailshrimp.jpg', 'key': 'i', 'origWidth': 410, 'origHeight': 410, 'width': 410, 'height': 410, 'widthPercent': 0.45, 'rescaleHeight': False, 'trialN': 22, 'loaded': True, 'loadedTime': 4345.899999976158, 'positionName': 'RIGHT', 'positionCoords': [710.32, 179], 'bid': 9.33}]",49737.39999997616,1669832774372,sweetpotato,cocktailshrimp,6.5,9.33,2.83,cocktailshrimp,1509.3000000715256,1510,1509.7000000476837,True,i,51763.0,2025.6000000238419,1669832776398,2026,HRV,HRV_0183,2022-11-30 18:31:08
23,"[{'imgObject': {}, 'id': 'raisin bran w milk', 'src': '/static/foodstim60/raisin bran w milk.jpg', 'key': 'u', 'origWidth': 411, 'origHeight': 411, 'width': 411, 'height': 411, 'widthPercent': 0.45, 'rescaleHeight': False, 'trialN': 23, 'loaded': True, 'loadedTime': 4270.100000023842, 'positionName': 'LEFT', 'positionCoords': [244.68, 178.5], 'bid': 5.3}, {'imgObject': {}, 'id': 'grilled chicken strips', 'src': '/static/foodstim60/grilled chicken strips.jpg', 'key': 'i', 'origWidth': 410, 'origHeight': 411, 'width': 410, 'height': 411, 'widthPercent': 0.45, 'rescaleHeight': False, 'trialN': 23, 'loaded': True, 'loadedTime': 4412.700000047684, 'positionName': 'RIGHT', 'positionCoords': [710.32, 178.5], 'bid': 4.41}]",51763.200000047684,1669832776398,raisin bran w milk,grilled chicken strips,5.3,4.41,-0.8899999999999997,raisin bran w milk,1377.8999999761581,1378,1378.2999999523163,True,u,53655.200000047684,1892.0,1669832778290,1892,HRV,HRV_0183,2022-11-30 18:31:08
24,"[{'imgObject': {}, 'id': 'fruitsalad', 'src': '/static/foodstim60/fruitsalad.jpg', 'key': 'u', 'origWidth': 410, 'origHeight': 410, 'width': 410, 'height': 410, 'widthPercent': 0.45, 'rescaleHeight': False, 'trialN': 24, 'loaded': True, 'loadedTime': 4420.899999976158, 'positionName': 'LEFT', 'positionCoords': [245.68, 179], 'bid': 7.38}, {'imgObject': {}, 'id': 'cocktailshrimp', 'src': '/static/foodstim60/cocktailshrimp.jpg', 'key': 'i', 'origWidth': 410, 'origHeight': 410, 'width': 410, 'height': 410, 'widthPercent': 0.45, 'rescaleHeight': False, 'trialN': 24, 'loaded': True, 'loadedTime': 4346, 'positionName': 'RIGHT', 'positionCoords': [710.32, 179], 'bid': 9.33}]",53655.300000071526,1669832778290,fruitsalad,cocktailshrimp,7.38,9.33,1.9500000000000002,cocktailshrimp,1821.8999999761581,1822,1822.1999999284744,True,i,55989.5,2334.1999999284744,1669832780624,2334,HRV,HRV_0183,2022-11-30 18:31:08
25,"[{'imgObject': {}, 'id': 'cherry tomato', 'src': '/static/foodstim60/cherry tomato.jpg', 'key': 'u', 'origWidth': 410, 'origHeight': 410, 'width': 410, 'height': 410, 'widthPercent': 0.45, 'rescaleHeight': False, 'trialN': 25, 'loaded': True, 'loadedTime': 4217, 'positionName': 'LEFT', 'positionCoords': [245.68, 179], 'bid': 9.58}, {'imgObject': {}, 'id': 'raspberries', 'src': '/static/foodstim60/raspberries.jpg', 'key': 'i', 'origWidth': 411, 'origHeight': 411, 'width': 411, 'height': 411, 'widthPercent': 0.45, 'rescaleHeight': False, 'trialN': 25, 'loaded': True, 'loadedTime': 4378.100000023842, 'positionName': 'RIGHT', 'positionCoords': [710.32, 178.5], 'bid': 9.61}]",55989.700000047684,1669832780625,cherry tomato,raspberries,9.58,9.61,0.02999999999999936,raspberries,2179.2999999523163,2179,2179.600000023842,True,i,58692.39999997616,2702.6999999284744,1669832783327,2702,HRV,HRV_0183,2022-11-30 18:31:08
26,"[{'imgObject': {}, 'id': 'sweetpotato', 'src': '/static/foodstim60/sweetpotato.jpg', 'key': 'u', 'origWidth': 410, 'origHeight': 410, 'width': 410, 'height': 410, 'widthPercent': 0.45, 'rescaleHeight': False, 'trialN': 26, 'loaded': True, 'loadedTime': 4412.5, 'positionName': 'LEFT', 'positionCoords': [245.68, 179], 'bid': 6.5}, {'imgObject': {}, 'id': 'kiwi', 'src': '/static/foodstim60/kiwi.jpg', 'key': 'i', 'origWidth': 410, 'origHeight': 410, 'width': 410, 'height': 410, 'widthPercent': 0.45, 'rescaleHeight': False, 'trialN': 26, 'loaded': True, 'loadedTime': 4327.399999976158, 'positionName': 'RIGHT', 'positionCoords': [710.32, 179], 'bid': 6.44}]",58692.60000002384,1669832783327,sweetpotato,kiwi,6.5,6.44,-0.05999999999999961,sweetpotato,1463.8999999761581,1465,1464.2999999523163,True,u,60671.200000047684,1978.6000000238419,1669832785306,1979,HRV,HRV_0183,2022-11-30 18:31:08
27,"[{'imgObject': {}, 'id': 'strawberries', 'src': '/static/foodstim60/strawberries.jpg', 'key': 'u', 'origWidth': 410, 'origHeight': 410, 'width': 410, 'height': 410, 'widthPercent': 0.45, 'rescaleHeight': False, 'trialN': 27, 'loaded': True, 'loadedTime': 4355.5, 'positionName': 'LEFT', 'positionCoords': [245.68, 179], 'bid': 9.5}, {'imgObject': {}, 'id': 'ice cream sundae 002', 'src': '/static/foodstim60/ice cream sundae 002.jpg', 'key': 'i', 'origWidth': 409, 'origHeight': 409, 'width': 409, 'height': 409, 'widthPercent': 0.45, 'rescaleHeight': False, 'trialN': 27, 'loaded': True, 'loadedTime': 4424, 'positionName': 'RIGHT', 'positionCoords': [710.32, 179.5], 'bid': 6.62}]",60671.39999997616,1669832785306,strawberries,ice cream sundae 002,9.5,6.62,-2.88,strawberries,1758.1000000238419,1759,1758.5,True,u,62936.10000002384,2264.7000000476837,1669832787571,2265,HRV,HRV_0183,2022-11-30 18:31:08
28,"[{'imgObject': {}, 'id': 'cherry tomato', 'src': '/static/foodstim60/cherry tomato.jpg', 'key': 'u', 'origWidth': 410, 'origHeight': 410, 'width': 410, 'height': 410, 'widthPercent': 0.45, 'rescaleHeight': False, 'trialN': 28, 'loaded': True, 'loadedTime': 4216.300000071526, 'positionName': 'LEFT', 'positionCoords': [245.68, 179], 'bid': 9.58}, {'imgObject': {}, 'id': 'olives', 'src': '/static/foodstim60/olives.jpg', 'key': 'i', 'origWidth': 410, 'origHeight': 410, 'width': 410, 'height': 410, 'widthPercent': 0.45, 'rescaleHeight': False, 'trialN': 28, 'loaded': True, 'loadedTime': 4266.399999976158, 'positionName': 'RIGHT', 'positionCoords': [710.32, 179], 'bid': 4.16}]",62936.200000047684,1669832787571,cherry tomato,olives,9.58,4.16,-5.42,cherry tomato,934.0,934,934.2999999523163,True,u,64386.0,1449.7999999523163,1669832789021,1450,HRV,HRV_0183,2022-11-30 18:31:08
29,"[{'imgObject': {}, 'id': 'hashbrowns', 'src': '/static/foodstim60/hashbrowns.jpg', 'key': 'u', 'origWidth': 411, 'origHeight': 410, 'width': 411, 'height': 410, 'widthPercent': 0.45, 'rescaleHeight': False, 'trialN': 29, 'loaded': True, 'loadedTime': 4432.600000023842, 'positionName': 'LEFT', 'positionCoords': [244.68, 179], 'bid': 4.01}, {'imgObject': {}, 'id': 'edamame', 'src': '/static/foodstim60/edamame.jpg', 'key': 'i', 'origWidth': 409, 'origHeight': 410, 'width': 409, 'height': 410, 'widthPercent': 0.45, 'rescaleHeight': False, 'trialN': 29, 'loaded': True, 'loadedTime': 4434.399999976158, 'positionName': 'RIGHT', 'positionCoords': [710.32, 179], 'bid': 1.57}]",64386.200000047684,1669832789021,hashbrowns,edamame,4.01,1.57,-2.4399999999999995,hashbrowns,1432.7999999523163,1433,1433.1000000238419,True,u,66330.39999997616,1944.1999999284744,1669832790965,1944,HRV,HRV_0183,2022-11-30 18:31:08
30,"[{'imgObject': {}, 'id': 'Tribe humus pita', 'src': '/static/foodstim60/Tribe humus pita.jpg', 'key': 'u', 'origWidth': 411, 'origHeight': 411, 'width': 411, 'height': 411, 'widthPercent': 0.45, 'rescaleHeight': False, 'trialN': 30, 'loaded': True, 'loadedTime': 4434.5, 'positionName': 'LEFT', 'positionCoords': [244.68, 178.5], 'bid': 2.48}, {'imgObject': {}, 'id': 'baked potato', 'src': '/static/foodstim60/baked potato.jpg', 'key': 'i', 'origWidth': 409, 'origHeight': 410, 'width': 409, 'height': 410, 'widthPercent': 0.45, 'rescaleHeight': False, 'trialN': 30, 'loaded': True, 'loadedTime': 4275.5, 'positionName': 'RIGHT', 'positionCoords': [710.32, 179], 'bid': 3.62}]",66330.5,1669832790965,Tribe humus pita,baked potato,2.48,3.62,1.1400000000000001,baked potato,2294.600000023842,2295,2294.899999976158,True,i,69149.10000002384,2818.600000023842,1669832793784,2819,HRV,HRV_0183,2022-11-30 18:31:08
31,"[{'imgObject': {}, 'id': 'turkey sandwich', 'src': '/static/foodstim60/turkey sandwich.jpg', 'key': 'u', 'origWidth': 409, 'origHeight': 409, 'width': 409, 'height': 409, 'widthPercent': 0.45, 'rescaleHeight': False, 'trialN': 31, 'loaded': True, 'loadedTime': 4233.200000047684, 'positionName': 'LEFT', 'positionCoords': [246.68, 179.5], 'bid': 8.57}, {'imgObject': {}, 'id': 'mac & cheese', 'src': '/static/foodstim60/mac & cheese.jpg', 'key': 'i', 'origWidth': 410, 'origHeight': 410, 'width': 410, 'height': 410, 'widthPercent': 0.45, 'rescaleHeight': False, 'trialN': 31, 'loaded': True, 'loadedTime': 4444.399999976158, 'positionName': 'RIGHT', 'positionCoords': [710.32, 179], 'bid': 8.870000000000001}]",69149.20000004768,1669832793784,turkey sandwich,mac & cheese,8.57,8.870000000000001,0.3000000000000007,turkey sandwich,1951.1000000238419,1952,1951.5,True,u,71606.5,2457.2999999523163,1669832796241,2457,HRV,HRV_0183,2022-11-30 18:31:08
32,"[{'imgObject': {}, 'id': 'turkey sandwich', 'src': '/static/foodstim60/turkey sandwich.jpg', 'key': 'u', 'origWidth': 409, 'origHeight': 409, 'width': 409, 'height': 409, 'widthPercent': 0.45, 'rescaleHeight': False, 'trialN': 32, 'loaded': True, 'loadedTime': 4234.300000071526, 'positionName': 'LEFT', 'positionCoords': [246.68, 179.5], 'bid': 8.57}, {'imgObject': {}, 'id': 'yogurt no spoon', 'src': '/static/foodstim60/yogurt no spoon.jpg', 'key': 'i', 'origWidth': 411, 'origHeight': 410, 'width': 411, 'height': 410, 'widthPercent': 0.45, 'rescaleHeight': False, 'trialN': 32, 'loaded': True, 'loadedTime': 4452.899999976158, 'positionName': 'RIGHT', 'positionCoords': [710.32, 179], 'bid': 3}]",71606.70000004768,1669832796242,turkey sandwich,yogurt no spoon,8.57,3.0,-5.57,turkey sandwich,1223.3999999761581,1223,1223.6999999284744,True,u,73335.39999997616,1728.6999999284744,1669832797970,1728,HRV,HRV_0183,2022-11-30 18:31:08
33,"[{'imgObject': {}, 'id': 'blackbeanswithrice', 'src': '/static/foodstim60/blackbeanswithrice.jpg', 'key': 'u', 'origWidth': 410, 'origHeight': 410, 'width': 410, 'height': 410, 'widthPercent': 0.45, 'rescaleHeight': False, 'trialN': 33, 'loaded': True, 'loadedTime': 4454.899999976158, 'positionName': 'LEFT', 'positionCoords': [245.68, 179], 'bid': 5.92}, {'imgObject': {}, 'id': 'sweetpotato', 'src': '/static/foodstim60/sweetpotato.jpg', 'key': 'i', 'origWidth': 410, 'origHeight': 410, 'width': 410, 'height': 410, 'widthPercent': 0.45, 'rescaleHeight': False, 'trialN': 33, 'loaded': True, 'loadedTime': 4410.800000071526, 'positionName': 'RIGHT', 'positionCoords': [710.32, 179], 'bid': 6.5}]",73335.5,1669832797970,blackbeanswithrice,sweetpotato,5.92,6.5,0.5800000000000001,sweetpotato,2237.0,2238,2237.3000000715256,True,i,76078.0,2742.5,1669832800713,2743,HRV,HRV_0183,2022-11-30 18:31:08
34,"[{'imgObject': {}, 'id': 'cantaloupe', 'src': '/static/foodstim60/cantaloupe.jpg', 'key': 'u', 'origWidth': 409, 'origHeight': 409, 'width': 409, 'height': 409, 'widthPercent': 0.45, 'rescaleHeight': False, 'trialN': 34, 'loaded': True, 'loadedTime': 4298.200000047684, 'positionName': 'LEFT', 'positionCoords': [246.68, 179.5], 'bid': 0.68}, {'imgObject': {}, 'id': 'eggs', 'src': '/static/foodstim60/eggs.jpg', 'key': 'i', 'origWidth': 409, 'origHeight': 409, 'width': 409, 'height': 409, 'widthPercent': 0.45, 'rescaleHeight': False, 'trialN': 34, 'loaded': True, 'loadedTime': 4380, 'positionName': 'RIGHT', 'positionCoords': [710.32, 179.5], 'bid': 0.3}]",76078.20000004768,1669832800713,cantaloupe,eggs,0.68,0.3,-0.38000000000000006,cantaloupe,2385.2999999523163,2386,2385.600000023842,True,u,78974.89999997616,2896.6999999284744,1669832803610,2897,HRV,HRV_0183,2022-11-30 18:31:08
35,"[{'imgObject': {}, 'id': 'bagel and cc', 'src': '/static/foodstim60/bagel and cc.jpg', 'key': 'u', 'origWidth': 410, 'origHeight': 410, 'width': 410, 'height': 410, 'widthPercent': 0.45, 'rescaleHeight': False, 'trialN': 35, 'loaded': True, 'loadedTime': 4463.5, 'positionName': 'LEFT', 'positionCoords': [245.68, 179], 'bid': 1.57}, {'imgObject': {}, 'id': 'avocado', 'src': '/static/foodstim60/avocado.jpg', 'key': 'i', 'origWidth': 409, 'origHeight': 409, 'width': 409, 'height': 409, 'widthPercent': 0.45, 'rescaleHeight': False, 'trialN': 35, 'loaded': True, 'loadedTime': 4465.399999976158, 'positionName': 'RIGHT', 'positionCoords': [710.32, 179.5], 'bid': 0.08}]",78975.10000002384,1669832803610,bagel and cc,avocado,1.57,0.08,-1.49,bagel and cc,1268.5,1269,1268.7999999523163,True,u,80756.5,1781.3999999761581,1669832805391,1781,HRV,HRV_0183,2022-11-30 18:31:08
36,"[{'imgObject': {}, 'id': 'kiwi', 'src': '/static/foodstim60/kiwi.jpg', 'key': 'u', 'origWidth': 410, 'origHeight': 410, 'width': 410, 'height': 410, 'widthPercent': 0.45, 'rescaleHeight': False, 'trialN': 36, 'loaded': True, 'loadedTime': 4319.200000047684, 'positionName': 'LEFT', 'positionCoords': [245.68, 179], 'bid': 6.44}, {'imgObject': {}, 'id': 'fruitsalad', 'src': '/static/foodstim60/fruitsalad.jpg', 'key': 'i', 'origWidth': 410, 'origHeight': 410, 'width': 410, 'height': 410, 'widthPercent': 0.45, 'rescaleHeight': False, 'trialN': 36, 'loaded': True, 'loadedTime': 4422.100000023842, 'positionName': 'RIGHT', 'positionCoords': [710.32, 179], 'bid': 7.38}]",80756.70000004768,1669832805392,kiwi,fruitsalad,6.44,7.38,0.9399999999999995,fruitsalad,1215.1999999284744,1215,1215.5,True,i,82483.39999997616,1726.6999999284744,1669832807118,1726,HRV,HRV_0183,2022-11-30 18:31:08
37,"[{'imgObject': {}, 'id': 'hashbrowns', 'src': '/static/foodstim60/hashbrowns.jpg', 'key': 'u', 'origWidth': 411, 'origHeight': 410, 'width': 411, 'height': 410, 'widthPercent': 0.45, 'rescaleHeight': False, 'trialN': 37, 'loaded': True, 'loadedTime': 4432, 'positionName': 'LEFT', 'positionCoords': [244.68, 179], 'bid': 4.01}, {'imgObject': {}, 'id': 'lox', 'src': '/static/foodstim60/lox.jpg', 'key': 'i', 'origWidth': 410, 'origHeight': 411, 'width': 410, 'height': 411, 'widthPercent': 0.45, 'rescaleHeight': False, 'trialN': 37, 'loaded': True, 'loadedTime': 4466.600000023842, 'positionName': 'RIGHT', 'positionCoords': [710.32, 178.5], 'bid': 2.51}]",82483.60000002384,1669832807118,hashbrowns,lox,4.01,2.51,-1.5,hashbrowns,1474.1000000238419,1475,1474.3999999761581,True,u,84474.30000007153,1990.7000000476837,1669832809109,1991,HRV,HRV_0183,2022-11-30 18:31:08
38,"[{'imgObject': {}, 'id': 'steak', 'src': '/static/foodstim60/steak.jpg', 'key': 'u', 'origWidth': 410, 'origHeight': 410, 'width': 410, 'height': 410, 'widthPercent': 0.45, 'rescaleHeight': False, 'trialN': 38, 'loaded': True, 'loadedTime': 4344.200000047684, 'positionName': 'LEFT', 'positionCoords': [245.68, 179], 'bid': 2.08}, {'imgObject': {}, 'id': 'orange slices', 'src': '/static/foodstim60/orange slices.jpg', 'key': 'i', 'origWidth': 409, 'origHeight': 410, 'width': 409, 'height': 410, 'widthPercent': 0.45, 'rescaleHeight': False, 'trialN': 38, 'loaded': True, 'loadedTime': 4468.100000023842, 'positionName': 'RIGHT', 'positionCoords': [710.32, 179], 'bid': 7.63}]",84474.5,1669832809109,steak,orange slices,2.08,7.63,5.55,orange slices,857.7000000476837,858,858.1000000238419,True,i,85849.70000004768,1375.2000000476837,1669832810485,1376,HRV,HRV_0183,2022-11-30 18:31:08
39,"[{'imgObject': {}, 'id': 'omelette', 'src': '/static/foodstim60/omelette.jpg', 'key': 'u', 'origWidth': 410, 'origHeight': 409, 'width': 410, 'height': 409, 'widthPercent': 0.45, 'rescaleHeight': False, 'trialN': 39, 'loaded': True, 'loadedTime': 4469.200000047684, 'positionName': 'LEFT', 'positionCoords': [245.68, 179.5], 'bid': 4.8}, {'imgObject': {}, 'id': 'mango', 'src': '/static/foodstim60/mango.jpg', 'key': 'i', 'origWidth': 411, 'origHeight': 411, 'width': 411, 'height': 411, 'widthPercent': 0.45, 'rescaleHeight': False, 'trialN': 39, 'loaded': True, 'loadedTime': 4327.700000047684, 'positionName': 'RIGHT', 'positionCoords': [710.32, 178.5], 'bid': 0}]",85849.89999997616,1669832810485,omelette,mango,4.8,0.0,-4.8,omelette,927.9000000953674,928,928.1000000238419,True,u,87299.20000004768,1449.3000000715256,1669832811934,1449,HRV,HRV_0183,2022-11-30 18:31:08
40,"[{'imgObject': {}, 'id': 'cheerios', 'src': '/static/foodstim60/cheerios.jpg', 'key': 'u', 'origWidth': 409, 'origHeight': 410, 'width': 409, 'height': 410, 'widthPercent': 0.45, 'rescaleHeight': False, 'trialN': 40, 'loaded': True, 'loadedTime': 4288.200000047684, 'positionName': 'LEFT', 'positionCoords': [246.68, 179], 'bid': 5.3}, {'imgObject': {}, 'id': 'chickenfingers', 'src': '/static/foodstim60/chickenfingers.jpg', 'key': 'i', 'origWidth': 410, 'origHeight': 410, 'width': 410, 'height': 410, 'widthPercent': 0.45, 'rescaleHeight': False, 'trialN': 40, 'loaded': True, 'loadedTime': 4469.700000047684, 'positionName': 'RIGHT', 'positionCoords': [710.32, 179], 'bid': 4.07}]",87299.30000007153,1669832811934,cheerios,chickenfingers,5.3,4.07,-1.2299999999999995,chickenfingers,1264.8999999761581,1265,1265.0999999046326,True,i,89070.80000007153,1771.5,1669832813706,1772,HRV,HRV_0183,2022-11-30 18:31:08
41,"[{'imgObject': {}, 'id': 'fried eggs', 'src': '/static/foodstim60/fried eggs.jpg', 'key': 'u', 'origWidth': 410, 'origHeight': 410, 'width': 410, 'height': 410, 'widthPercent': 0.45, 'rescaleHeight': False, 'trialN': 41, 'loaded': True, 'loadedTime': 4219.100000023842, 'positionName': 'LEFT', 'positionCoords': [245.68, 179], 'bid': 1.74}, {'imgObject': {}, 'id': 'avocado', 'src': '/static/foodstim60/avocado.jpg', 'key': 'i', 'origWidth': 409, 'origHeight': 409, 'width': 409, 'height': 409, 'widthPercent': 0.45, 'rescaleHeight': False, 'trialN': 41, 'loaded': True, 'loadedTime': 4465.100000023842, 'positionName': 'RIGHT', 'positionCoords': [710.32, 179.5], 'bid': 0.08}]",89071.10000002384,1669832813706,fried eggs,avocado,1.74,0.08,-1.66,fried eggs,837.7999999523163,838,838.1000000238419,True,u,90426.5,1355.3999999761581,1669832815061,1355,HRV,HRV_0183,2022-11-30 18:31:08
42,"[{'imgObject': {}, 'id': 'salad w chicken', 'src': '/static/foodstim60/salad w chicken.jpg', 'key': 'u', 'origWidth': 411, 'origHeight': 411, 'width': 411, 'height': 411, 'widthPercent': 0.45, 'rescaleHeight': False, 'trialN': 42, 'loaded': True, 'loadedTime': 4479.200000047684, 'positionName': 'LEFT', 'positionCoords': [244.68, 178.5], 'bid': 6.91}, {'imgObject': {}, 'id': 'ice cream sundae 002', 'src': '/static/foodstim60/ice cream sundae 002.jpg', 'key': 'i', 'origWidth': 409, 'origHeight': 409, 'width': 409, 'height': 409, 'widthPercent': 0.45, 'rescaleHeight': False, 'trialN': 42, 'loaded': True, 'loadedTime': 4422.600000023842, 'positionName': 'RIGHT', 'positionCoords': [710.32, 179.5], 'bid': 6.62}]",90426.70000004768,1669832815061,salad w chicken,ice cream sundae 002,6.91,6.62,-0.29000000000000004,salad w chicken,1237.6999999284744,1238,1238.1000000238419,True,u,92178.70000004768,1752.0,1669832816813,1752,HRV,HRV_0183,2022-11-30 18:31:08
43,"[{'imgObject': {}, 'id': 'turkeysandwich', 'src': '/static/foodstim60/turkeysandwich.jpg', 'key': 'u', 'origWidth': 409, 'origHeight': 409, 'width': 409, 'height': 409, 'widthPercent': 0.45, 'rescaleHeight': False, 'trialN': 43, 'loaded': True, 'loadedTime': 4368.800000071526, 'positionName': 'LEFT', 'positionCoords': [246.68, 179.5], 'bid': 8.26}, {'imgObject': {}, 'id': 'orange slices', 'src': '/static/foodstim60/orange slices.jpg', 'key': 'i', 'origWidth': 409, 'origHeight': 410, 'width': 409, 'height': 410, 'widthPercent': 0.45, 'rescaleHeight': False, 'trialN': 43, 'loaded': True, 'loadedTime': 4468, 'positionName': 'RIGHT', 'positionCoords': [710.32, 179], 'bid': 7.63}]",92178.89999997616,1669832816814,turkeysandwich,orange slices,8.26,7.63,-0.6299999999999999,turkeysandwich,2449.9000000953674,2450,2450.2000000476837,True,u,95136.60000002384,2957.7000000476837,1669832819771,2957,HRV,HRV_0183,2022-11-30 18:31:08
44,"[{'imgObject': {}, 'id': 'hotdog w must', 'src': '/static/foodstim60/hotdog w must.jpg', 'key': 'u', 'origWidth': 409, 'origHeight': 409, 'width': 409, 'height': 409, 'widthPercent': 0.45, 'rescaleHeight': False, 'trialN': 44, 'loaded': True, 'loadedTime': 4480.300000071526, 'positionName': 'LEFT', 'positionCoords': [246.68, 179.5], 'bid': 3.38}, {'imgObject': {}, 'id': 'mac & cheese', 'src': '/static/foodstim60/mac & cheese.jpg', 'key': 'i', 'origWidth': 410, 'origHeight': 410, 'width': 410, 'height': 410, 'widthPercent': 0.45, 'rescaleHeight': False, 'trialN': 44, 'loaded': True, 'loadedTime': 4444, 'positionName': 'RIGHT', 'positionCoords': [710.32, 179], 'bid': 8.870000000000001}]",95136.70000004768,1669832819771,hotdog w must,mac & cheese,3.38,8.870000000000001,5.490000000000001,mac & cheese,1383.1000000238419,1384,1383.3999999761581,True,i,97030.89999997616,1894.1999999284744,1669832821666,1895,HRV,HRV_0183,2022-11-30 18:31:08
45,"[{'imgObject': {}, 'id': 'eggsalad', 'src': '/static/foodstim60/eggsalad.jpg', 'key': 'u', 'origWidth': 410, 'origHeight': 409, 'width': 410, 'height': 409, 'widthPercent': 0.45, 'rescaleHeight': False, 'trialN': 45, 'loaded': True, 'loadedTime': 4273.600000023842, 'positionName': 'LEFT', 'positionCoords': [245.68, 179.5], 'bid': 0.87}, {'imgObject': {}, 'id': 'bagel plain', 'src': '/static/foodstim60/bagel plain.jpg', 'key': 'i', 'origWidth': 410, 'origHeight': 410, 'width': 410, 'height': 410, 'widthPercent': 0.45, 'rescaleHeight': False, 'trialN': 45, 'loaded': True, 'loadedTime': 4379.700000047684, 'positionName': 'RIGHT', 'positionCoords': [710.32, 179], 'bid': 1.42}]",97031.10000002384,1669832821666,eggsalad,bagel plain,0.87,1.42,0.5499999999999999,bagel plain,1273.5,1274,1273.7999999523163,True,i,98805.70000004768,1774.6000000238419,1669832823440,1774,HRV,HRV_0183,2022-11-30 18:31:08
46,"[{'imgObject': {}, 'id': 'salad w chicken', 'src': '/static/foodstim60/salad w chicken.jpg', 'key': 'u', 'origWidth': 411, 'origHeight': 411, 'width': 411, 'height': 411, 'widthPercent': 0.45, 'rescaleHeight': False, 'trialN': 46, 'loaded': True, 'loadedTime': 4479.300000071526, 'positionName': 'LEFT', 'positionCoords': [244.68, 178.5], 'bid': 6.91}, {'imgObject': {}, 'id': 'luckycharms', 'src': '/static/foodstim60/luckycharms.jpg', 'key': 'i', 'origWidth': 410, 'origHeight': 409, 'width': 410, 'height': 409, 'widthPercent': 0.45, 'rescaleHeight': False, 'trialN': 46, 'loaded': True, 'loadedTime': 4393, 'positionName': 'RIGHT', 'positionCoords': [710.32, 179.5], 'bid': 1.98}]",98806.0,1669832823441,salad w chicken,luckycharms,6.91,1.98,-4.93,salad w chicken,841.5,842,841.8000000715256,True,u,100149.5,1343.5,1669832824784,1343,HRV,HRV_0183,2022-11-30 18:31:08
47,"[{'imgObject': {}, 'id': 'burger', 'src': '/static/foodstim60/burger.jpg', 'key': 'u', 'origWidth': 409, 'origHeight': 409, 'width': 409, 'height': 409, 'widthPercent': 0.45, 'rescaleHeight': False, 'trialN': 47, 'loaded': True, 'loadedTime': 4205.899999976158, 'positionName': 'LEFT', 'positionCoords': [246.68, 179.5], 'bid': 6.62}, {'imgObject': {}, 'id': 'turkeysandwich', 'src': '/static/foodstim60/turkeysandwich.jpg', 'key': 'i', 'origWidth': 409, 'origHeight': 409, 'width': 409, 'height': 409, 'widthPercent': 0.45, 'rescaleHeight': False, 'trialN': 47, 'loaded': True, 'loadedTime': 4369.5, 'positionName': 'RIGHT', 'positionCoords': [710.32, 179.5], 'bid': 8.26}]",100149.70000004768,1669832824784,burger,turkeysandwich,6.62,8.26,1.6399999999999997,burger,1159.2999999523163,1160,1159.6999999284744,True,u,101826.5,1676.7999999523163,1669832826461,1677,HRV,HRV_0183,2022-11-30 18:31:08
48,"[{'imgObject': {}, 'id': 'raisin bran w milk', 'src': '/static/foodstim60/raisin bran w milk.jpg', 'key': 'u', 'origWidth': 411, 'origHeight': 411, 'width': 411, 'height': 411, 'widthPercent': 0.45, 'rescaleHeight': False, 'trialN': 48, 'loaded': True, 'loadedTime': 4266.600000023842, 'positionName': 'LEFT', 'positionCoords': [244.68, 178.5], 'bid': 5.3}, {'imgObject': {}, 'id': 'cheerios', 'src': '/static/foodstim60/cheerios.jpg', 'key': 'i', 'origWidth': 409, 'origHeight': 410, 'width': 409, 'height': 410, 'widthPercent': 0.45, 'rescaleHeight': False, 'trialN': 48, 'loaded': True, 'loadedTime': 4287.899999976158, 'positionName': 'RIGHT', 'positionCoords': [710.32, 179], 'bid': 5.3}]",101826.70000004768,1669832826461,raisin bran w milk,cheerios,5.3,5.3,0.0,raisin bran w milk,896.6999999284744,897,897.0,True,u,103244.89999997616,1418.1999999284744,1669832827880,1419,HRV,HRV_0183,2022-11-30 18:31:08
49,"[{'imgObject': {}, 'id': 'yogurt no spoon', 'src': '/static/foodstim60/yogurt no spoon.jpg', 'key': 'u', 'origWidth': 411, 'origHeight': 410, 'width': 411, 'height': 410, 'widthPercent': 0.45, 'rescaleHeight': False, 'trialN': 49, 'loaded': True, 'loadedTime': 4445.600000023842, 'positionName': 'LEFT', 'positionCoords': [244.68, 179], 'bid': 3}, {'imgObject': {}, 'id': 'seaweed', 'src': '/static/foodstim60/seaweed.jpg', 'key': 'i', 'origWidth': 410, 'origHeight': 410, 'width': 410, 'height': 410, 'widthPercent': 0.45, 'rescaleHeight': False, 'trialN': 49, 'loaded': True, 'loadedTime': 4481.899999976158, 'positionName': 'RIGHT', 'positionCoords': [710.32, 179], 'bid': 2.86}]",103245.0,1669832827880,yogurt no spoon,seaweed,3.0,2.86,-0.14000000000000012,yogurt no spoon,1494.2000000476837,1494,1494.5,True,u,105250.60000002384,2005.6000000238419,1669832829885,2005,HRV,HRV_0183,2022-11-30 18:31:08
50,"[{'imgObject': {}, 'id': 'orange slices', 'src': '/static/foodstim60/orange slices.jpg', 'key': 'u', 'origWidth': 409, 'origHeight': 410, 'width': 409, 'height': 410, 'widthPercent': 0.45, 'rescaleHeight': False, 'trialN': 50, 'loaded': True, 'loadedTime': 4467.800000071526, 'positionName': 'LEFT', 'positionCoords': [246.68, 179], 'bid': 7.63}, {'imgObject': {}, 'id': 'omelette', 'src': '/static/foodstim60/omelette.jpg', 'key': 'i', 'origWidth': 410, 'origHeight': 409, 'width': 410, 'height': 409, 'widthPercent': 0.45, 'rescaleHeight': False, 'trialN': 50, 'loaded': True, 'loadedTime': 4469.300000071526, 'positionName': 'RIGHT', 'positionCoords': [710.32, 179.5], 'bid': 4.8}]",105250.80000007153,1669832829885,orange slices,omelette,7.63,4.8,-2.83,orange slices,1268.6999999284744,1269,1269.0,True,u,107023.70000004768,1772.8999999761581,1669832831658,1773,HRV,HRV_0183,2022-11-30 18:31:08
51,"[{'imgObject': {}, 'id': 'rigatoni', 'src': '/static/foodstim60/rigatoni.jpg', 'key': 'u', 'origWidth': 411, 'origHeight': 411, 'width': 411, 'height': 411, 'widthPercent': 0.45, 'rescaleHeight': False, 'trialN': 51, 'loaded': True, 'loadedTime': 4220, 'positionName': 'LEFT', 'positionCoords': [244.68, 178.5], 'bid': 1.66}, {'imgObject': {}, 'id': 'eggsalad', 'src': '/static/foodstim60/eggsalad.jpg', 'key': 'i', 'origWidth': 410, 'origHeight': 409, 'width': 410, 'height': 409, 'widthPercent': 0.45, 'rescaleHeight': False, 'trialN': 51, 'loaded': True, 'loadedTime': 4271.200000047684, 'positionName': 'RIGHT', 'positionCoords': [710.32, 179.5], 'bid': 0.87}]",107023.89999997616,1669832831659,rigatoni,eggsalad,1.66,0.87,-0.7899999999999999,rigatoni,916.3000000715256,916,916.6000000238419,True,u,108457.70000004768,1433.8000000715256,1669832833092,1433,HRV,HRV_0183,2022-11-30 18:31:08
52,"[{'imgObject': {}, 'id': 'salmon', 'src': '/static/foodstim60/salmon.jpg', 'key': 'u', 'origWidth': 410, 'origHeight': 409, 'width': 410, 'height': 409, 'widthPercent': 0.45, 'rescaleHeight': False, 'trialN': 52, 'loaded': True, 'loadedTime': 4279.899999976158, 'positionName': 'LEFT', 'positionCoords': [245.68, 179.5], 'bid': 3.28}, {'imgObject': {}, 'id': 'Grapes', 'src': '/static/foodstim60/Grapes.jpg', 'key': 'i', 'origWidth': 411, 'origHeight': 411, 'width': 411, 'height': 411, 'widthPercent': 0.45, 'rescaleHeight': False, 'trialN': 52, 'loaded': True, 'loadedTime': 4286.200000047684, 'positionName': 'RIGHT', 'positionCoords': [710.32, 178.5], 'bid': 8.61}]",108457.89999997616,1669832833093,salmon,Grapes,3.28,8.61,5.33,Grapes,902.3000000715256,902,902.6000000238419,True,i,109874.89999997616,1417.0,1669832834510,1417,HRV,HRV_0183,2022-11-30 18:31:08
53,"[{'imgObject': {}, 'id': 'cherries', 'src': '/static/foodstim60/cherries.jpg', 'key': 'u', 'origWidth': 410, 'origHeight': 411, 'width': 410, 'height': 411, 'widthPercent': 0.45, 'rescaleHeight': False, 'trialN': 53, 'loaded': True, 'loadedTime': 4359.200000047684, 'positionName': 'LEFT', 'positionCoords': [245.68, 178.5], 'bid': 9.75}, {'imgObject': {}, 'id': 'tacos', 'src': '/static/foodstim60/tacos.jpg', 'key': 'i', 'origWidth': 411, 'origHeight': 411, 'width': 411, 'height': 411, 'widthPercent': 0.45, 'rescaleHeight': False, 'trialN': 53, 'loaded': True, 'loadedTime': 4483.5, 'positionName': 'RIGHT', 'positionCoords': [710.32, 178.5], 'bid': 9.84}]",109875.0,1669832834510,cherries,tacos,9.75,9.84,0.08999999999999986,tacos,1320.5,1321,1320.8999999761581,True,i,111712.60000002384,1837.6000000238419,1669832836347,1837,HRV,HRV_0183,2022-11-30 18:31:08
54,"[{'imgObject': {}, 'id': 'hotdog w must', 'src': '/static/foodstim60/hotdog w must.jpg', 'key': 'u', 'origWidth': 409, 'origHeight': 409, 'width': 409, 'height': 409, 'widthPercent': 0.45, 'rescaleHeight': False, 'trialN': 54, 'loaded': True, 'loadedTime': 4480.399999976158, 'positionName': 'LEFT', 'positionCoords': [246.68, 179.5], 'bid': 3.38}, {'imgObject': {}, 'id': 'salmon', 'src': '/static/foodstim60/salmon.jpg', 'key': 'i', 'origWidth': 410, 'origHeight': 409, 'width': 410, 'height': 409, 'widthPercent': 0.45, 'rescaleHeight': False, 'trialN': 54, 'loaded': True, 'loadedTime': 4280.600000023842, 'positionName': 'RIGHT', 'positionCoords': [710.32, 179.5], 'bid': 3.28}]",111712.70000004768,1669832836347,hotdog w must,salmon,3.38,3.28,-0.10000000000000009,salmon,1183.6999999284744,1184,1184.0,True,i,113405.5,1692.7999999523163,1669832838040,1693,HRV,HRV_0183,2022-11-30 18:31:08
55,"[{'imgObject': {}, 'id': 'mango', 'src': '/static/foodstim60/mango.jpg', 'key': 'u', 'origWidth': 411, 'origHeight': 411, 'width': 411, 'height': 411, 'widthPercent': 0.45, 'rescaleHeight': False, 'trialN': 55, 'loaded': True, 'loadedTime': 4335.899999976158, 'positionName': 'LEFT', 'positionCoords': [244.68, 178.5], 'bid': 0}, {'imgObject': {}, 'id': 'rigatoni', 'src': '/static/foodstim60/rigatoni.jpg', 'key': 'i', 'origWidth': 411, 'origHeight': 411, 'width': 411, 'height': 411, 'widthPercent': 0.45, 'rescaleHeight': False, 'trialN': 55, 'loaded': True, 'loadedTime': 4222.100000023842, 'positionName': 'RIGHT', 'positionCoords': [710.32, 178.5], 'bid': 1.66}]",113405.70000004768,1669832838040,mango,rigatoni,0.0,1.66,1.66,rigatoni,1629.8999999761581,1631,1630.1999999284744,True,i,115549.10000002384,2143.399999976158,1669832840184,2144,HRV,HRV_0183,2022-11-30 18:31:08
56,"[{'imgObject': {}, 'id': 'mashed potato', 'src': '/static/foodstim60/mashed potato.jpg', 'key': 'u', 'origWidth': 409, 'origHeight': 409, 'width': 409, 'height': 409, 'widthPercent': 0.45, 'rescaleHeight': False, 'trialN': 56, 'loaded': True, 'loadedTime': 4288.899999976158, 'positionName': 'LEFT', 'positionCoords': [246.68, 179.5], 'bid': 5.05}, {'imgObject': {}, 'id': 'popsicles', 'src': '/static/foodstim60/popsicles.jpg', 'key': 'i', 'origWidth': 410, 'origHeight': 410, 'width': 410, 'height': 410, 'widthPercent': 0.45, 'rescaleHeight': False, 'trialN': 56, 'loaded': True, 'loadedTime': 4887.300000071526, 'positionName': 'RIGHT', 'positionCoords': [710.32, 179], 'bid': 5.13}]",115549.30000007153,1669832840184,mashed potato,popsicles,5.05,5.13,0.08000000000000007,mashed potato,2295.1999999284744,2296,2295.5,True,u,118363.39999997616,2814.0999999046326,1669832842998,2814,HRV,HRV_0183,2022-11-30 18:31:08
57,"[{'imgObject': {}, 'id': 'blackbeanswithrice', 'src': '/static/foodstim60/blackbeanswithrice.jpg', 'key': 'u', 'origWidth': 410, 'origHeight': 410, 'width': 410, 'height': 410, 'widthPercent': 0.45, 'rescaleHeight': False, 'trialN': 57, 'loaded': True, 'loadedTime': 4454.700000047684, 'positionName': 'LEFT', 'positionCoords': [245.68, 179], 'bid': 5.92}, {'imgObject': {}, 'id': 'corn cob', 'src': '/static/foodstim60/corn cob.jpg', 'key': 'i', 'origWidth': 411, 'origHeight': 411, 'width': 411, 'height': 411, 'widthPercent': 0.45, 'rescaleHeight': False, 'trialN': 57, 'loaded': True, 'loadedTime': 4310.200000047684, 'positionName': 'RIGHT', 'positionCoords': [710.32, 178.5], 'bid': 5.5200000000000005}]",118363.5,1669832842998,blackbeanswithrice,corn cob,5.92,5.5200000000000005,-0.39999999999999947,blackbeanswithrice,937.2000000476837,938,937.5,True,u,119807.70000004768,1444.2000000476837,1669832844442,1444,HRV,HRV_0183,2022-11-30 18:31:08
58,"[{'imgObject': {}, 'id': 'tacos', 'src': '/static/foodstim60/tacos.jpg', 'key': 'u', 'origWidth': 411, 'origHeight': 411, 'width': 411, 'height': 411, 'widthPercent': 0.45, 'rescaleHeight': False, 'trialN': 58, 'loaded': True, 'loadedTime': 4482.200000047684, 'positionName': 'LEFT', 'positionCoords': [244.68, 178.5], 'bid': 9.84}, {'imgObject': {}, 'id': 'fruitsalad', 'src': '/static/foodstim60/fruitsalad.jpg', 'key': 'i', 'origWidth': 410, 'origHeight': 410, 'width': 410, 'height': 410, 'widthPercent': 0.45, 'rescaleHeight': False, 'trialN': 58, 'loaded': True, 'loadedTime': 4422.300000071526, 'positionName': 'RIGHT', 'positionCoords': [710.32, 179], 'bid': 7.38}]",119808.0,1669832844443,tacos,fruitsalad,9.84,7.38,-2.46,tacos,1016.8000000715256,1017,1017.2000000476837,True,u,121329.80000007153,1521.8000000715256,1669832845964,1521,HRV,HRV_0183,2022-11-30 18:31:08
59,"[{'imgObject': {}, 'id': 'kiwi', 'src': '/static/foodstim60/kiwi.jpg', 'key': 'u', 'origWidth': 410, 'origHeight': 410, 'width': 410, 'height': 410, 'widthPercent': 0.45, 'rescaleHeight': False, 'trialN': 59, 'loaded': True, 'loadedTime': 4327.200000047684, 'positionName': 'LEFT', 'positionCoords': [245.68, 179], 'bid': 6.44}, {'imgObject': {}, 'id': 'edamame', 'src': '/static/foodstim60/edamame.jpg', 'key': 'i', 'origWidth': 409, 'origHeight': 410, 'width': 409, 'height': 410, 'widthPercent': 0.45, 'rescaleHeight': False, 'trialN': 59, 'loaded': True, 'loadedTime': 4434.300000071526, 'positionName': 'RIGHT', 'positionCoords': [710.32, 179], 'bid': 1.57}]",121329.89999997616,1669832845965,kiwi,edamame,6.44,1.57,-4.87,kiwi,1010.6000000238419,1010,1010.9000000953674,True,u,122857.0,1527.1000000238419,1669832847492,1527,HRV,HRV_0183,2022-11-30 18:31:08
60,"[{'imgObject': {}, 'id': 'froot loops w milk', 'src': '/static/foodstim60/froot loops w milk.jpg', 'key': 'u', 'origWidth': 410, 'origHeight': 410, 'width': 410, 'height': 410, 'widthPercent': 0.45, 'rescaleHeight': False, 'trialN': 60, 'loaded': True, 'loadedTime': 4485, 'positionName': 'LEFT', 'positionCoords': [245.68, 179], 'bid': 4.04}, {'imgObject': {}, 'id': 'omelette', 'src': '/static/foodstim60/omelette.jpg', 'key': 'i', 'origWidth': 410, 'origHeight': 409, 'width': 410, 'height': 409, 'widthPercent': 0.45, 'rescaleHeight': False, 'trialN': 60, 'loaded': True, 'loadedTime': 4469.399999976158, 'positionName': 'RIGHT', 'positionCoords': [710.32, 179.5], 'bid': 4.8}]",122857.20000004768,1669832847492,froot loops w milk,omelette,4.04,4.8,0.7599999999999998,omelette,869.0,869,869.2999999523163,True,i,124232.30000007153,1375.1000000238419,1669832848867,1375,HRV,HRV_0183,2022-11-30 18:31:08
61,"[{'imgObject': {}, 'id': 'salmon', 'src': '/static/foodstim60/salmon.jpg', 'key': 'u', 'origWidth': 410, 'origHeight': 409, 'width': 410, 'height': 409, 'widthPercent': 0.45, 'rescaleHeight': False, 'trialN': 61, 'loaded': True, 'loadedTime': 4280.200000047684, 'positionName': 'LEFT', 'positionCoords': [245.68, 179.5], 'bid': 3.28}, {'imgObject': {}, 'id': 'chicken nuggets2', 'src': '/static/foodstim60/chicken nuggets2.jpg', 'key': 'i', 'origWidth': 410, 'origHeight': 409, 'width': 410, 'height': 409, 'widthPercent': 0.45, 'rescaleHeight': False, 'trialN': 61, 'loaded': True, 'loadedTime': 4356.399999976158, 'positionName': 'RIGHT', 'positionCoords': [710.32, 179.5], 'bid': 1.12}]",124232.60000002384,1669832848867,salmon,chicken nuggets2,3.28,1.12,-2.1599999999999997,salmon,2720.600000023842,2721,2721.0,True,u,127475.20000004768,3242.600000023842,1669832852110,3243,HRV,HRV_0183,2022-11-30 18:31:08
62,"[{'imgObject': {}, 'id': 'turkeysandwich', 'src': '/static/foodstim60/turkeysandwich.jpg', 'key': 'u', 'origWidth': 409, 'origHeight': 409, 'width': 409, 'height': 409, 'widthPercent': 0.45, 'rescaleHeight': False, 'trialN': 62, 'loaded': True, 'loadedTime': 4369.300000071526, 'positionName': 'LEFT', 'positionCoords': [246.68, 179.5], 'bid': 8.26}, {'imgObject': {}, 'id': 'lox', 'src': '/static/foodstim60/lox.jpg', 'key': 'i', 'origWidth': 410, 'origHeight': 411, 'width': 410, 'height': 411, 'widthPercent': 0.45, 'rescaleHeight': False, 'trialN': 62, 'loaded': True, 'loadedTime': 4466.600000023842, 'positionName': 'RIGHT', 'positionCoords': [710.32, 178.5], 'bid': 2.51}]",127475.39999997616,1669832852110,turkeysandwich,lox,8.26,2.51,-5.75,turkeysandwich,857.1000000238419,858,857.5,True,u,128849.10000002384,1373.7000000476837,1669832853484,1374,HRV,HRV_0183,2022-11-30 18:31:08
63,"[{'imgObject': {}, 'id': 'seaweed', 'src': '/static/foodstim60/seaweed.jpg', 'key': 'u', 'origWidth': 410, 'origHeight': 410, 'width': 410, 'height': 410, 'widthPercent': 0.45, 'rescaleHeight': False, 'trialN': 63, 'loaded': True, 'loadedTime': 4480.700000047684, 'positionName': 'LEFT', 'positionCoords': [245.68, 179], 'bid': 2.86}, {'imgObject': {}, 'id': 'luckycharms', 'src': '/static/foodstim60/luckycharms.jpg', 'key': 'i', 'origWidth': 410, 'origHeight': 409, 'width': 410, 'height': 409, 'widthPercent': 0.45, 'rescaleHeight': False, 'trialN': 63, 'loaded': True, 'loadedTime': 4393.100000023842, 'positionName': 'RIGHT', 'positionCoords': [710.32, 179.5], 'bid': 1.98}]",128849.20000004768,1669832853484,seaweed,luckycharms,2.86,1.98,-0.8799999999999999,seaweed,919.6999999284744,920,920.0,True,u,130273.10000002384,1423.8999999761581,1669832854908,1424,HRV,HRV_0183,2022-11-30 18:31:08
64,"[{'imgObject': {}, 'id': 'kiwi', 'src': '/static/foodstim60/kiwi.jpg', 'key': 'u', 'origWidth': 410, 'origHeight': 410, 'width': 410, 'height': 410, 'widthPercent': 0.45, 'rescaleHeight': False, 'trialN': 64, 'loaded': True, 'loadedTime': 4326.5, 'positionName': 'LEFT', 'positionCoords': [245.68, 179], 'bid': 6.44}, {'imgObject': {}, 'id': 'grilled chicken strips', 'src': '/static/foodstim60/grilled chicken strips.jpg', 'key': 'i', 'origWidth': 410, 'origHeight': 411, 'width': 410, 'height': 411, 'widthPercent': 0.45, 'rescaleHeight': False, 'trialN': 64, 'loaded': True, 'loadedTime': 4413.700000047684, 'positionName': 'RIGHT', 'positionCoords': [710.32, 178.5], 'bid': 4.41}]",130273.20000004768,1669832854908,kiwi,grilled chicken strips,6.44,4.41,-2.0300000000000002,kiwi,1258.0,1258,1258.3999999761581,True,u,132049.60000002384,1776.3999999761581,1669832856684,1776,HRV,HRV_0183,2022-11-30 18:31:08
65,"[{'imgObject': {}, 'id': 'tacos', 'src': '/static/foodstim60/tacos.jpg', 'key': 'u', 'origWidth': 411, 'origHeight': 411, 'width': 411, 'height': 411, 'widthPercent': 0.45, 'rescaleHeight': False, 'trialN': 65, 'loaded': True, 'loadedTime': 4483.300000071526, 'positionName': 'LEFT', 'positionCoords': [244.68, 178.5], 'bid': 9.84}, {'imgObject': {}, 'id': 'blueberries', 'src': '/static/foodstim60/blueberries.jpg', 'key': 'i', 'origWidth': 411, 'origHeight': 411, 'width': 411, 'height': 411, 'widthPercent': 0.45, 'rescaleHeight': False, 'trialN': 65, 'loaded': True, 'loadedTime': 4282.899999976158, 'positionName': 'RIGHT', 'positionCoords': [710.32, 178.5], 'bid': 9.28}]",132049.80000007153,1669832856684,tacos,blueberries,9.84,9.28,-0.5600000000000005,tacos,635.0,636,635.2999999523163,True,u,133203.70000004768,1153.8999999761581,1669832857838,1154,HRV,HRV_0183,2022-11-30 18:31:08
66,"[{'imgObject': {}, 'id': 'blueberries', 'src': '/static/foodstim60/blueberries.jpg', 'key': 'u', 'origWidth': 411, 'origHeight': 411, 'width': 411, 'height': 411, 'widthPercent': 0.45, 'rescaleHeight': False, 'trialN': 66, 'loaded': True, 'loadedTime': 4284.200000047684, 'positionName': 'LEFT', 'positionCoords': [244.68, 178.5], 'bid': 9.28}, {'imgObject': {}, 'id': 'apple slices', 'src': '/static/foodstim60/apple slices.jpg', 'key': 'i', 'origWidth': 409, 'origHeight': 410, 'width': 409, 'height': 410, 'widthPercent': 0.45, 'rescaleHeight': False, 'trialN': 66, 'loaded': True, 'loadedTime': 4485.200000047684, 'positionName': 'RIGHT', 'positionCoords': [710.32, 179], 'bid': 7.15}]",133203.89999997616,1669832857838,blueberries,apple slices,9.28,7.15,-2.129999999999999,blueberries,916.0,917,916.3000000715256,True,u,134626.30000007153,1422.4000000953674,1669832859261,1423,HRV,HRV_0183,2022-11-30 18:31:08
67,"[{'imgObject': {}, 'id': 'tacos', 'src': '/static/foodstim60/tacos.jpg', 'key': 'u', 'origWidth': 411, 'origHeight': 411, 'width': 411, 'height': 411, 'widthPercent': 0.45, 'rescaleHeight': False, 'trialN': 67, 'loaded': True, 'loadedTime': 4483.200000047684, 'positionName': 'LEFT', 'positionCoords': [244.68, 178.5], 'bid': 9.84}, {'imgObject': {}, 'id': 'turkey sandwich', 'src': '/static/foodstim60/turkey sandwich.jpg', 'key': 'i', 'origWidth': 409, 'origHeight': 409, 'width': 409, 'height': 409, 'widthPercent': 0.45, 'rescaleHeight': False, 'trialN': 67, 'loaded': True, 'loadedTime': 4233.899999976158, 'positionName': 'RIGHT', 'positionCoords': [710.32, 179.5], 'bid': 8.57}]",134626.60000002384,1669832859261,tacos,turkey sandwich,9.84,8.57,-1.2699999999999996,tacos,1283.6000000238419,1284,1283.8999999761581,True,u,136429.5,1802.8999999761581,1669832861064,1803,HRV,HRV_0183,2022-11-30 18:31:08
68,"[{'imgObject': {}, 'id': 'banana', 'src': '/static/foodstim60/banana.jpg', 'key': 'u', 'origWidth': 410, 'origHeight': 410, 'width': 410, 'height': 410, 'widthPercent': 0.45, 'rescaleHeight': False, 'trialN': 68, 'loaded': True, 'loadedTime': 4248.399999976158, 'positionName': 'LEFT', 'positionCoords': [245.68, 179], 'bid': 8.3}, {'imgObject': {}, 'id': 'popsicles', 'src': '/static/foodstim60/popsicles.jpg', 'key': 'i', 'origWidth': 410, 'origHeight': 410, 'width': 410, 'height': 410, 'widthPercent': 0.45, 'rescaleHeight': False, 'trialN': 68, 'loaded': True, 'loadedTime': 4888.300000071526, 'positionName': 'RIGHT', 'positionCoords': [710.32, 179], 'bid': 5.13}]",136429.80000007153,1669832861064,banana,popsicles,8.3,5.13,-3.170000000000001,banana,1402.3999999761581,1403,1402.6999999284744,True,u,138343.89999997616,1914.0999999046326,1669832862979,1915,HRV,HRV_0183,2022-11-30 18:31:08
69,"[{'imgObject': {}, 'id': 'yogurt no spoon', 'src': '/static/foodstim60/yogurt no spoon.jpg', 'key': 'u', 'origWidth': 411, 'origHeight': 410, 'width': 411, 'height': 410, 'widthPercent': 0.45, 'rescaleHeight': False, 'trialN': 69, 'loaded': True, 'loadedTime': 4452.5, 'positionName': 'LEFT', 'positionCoords': [244.68, 179], 'bid': 3}, {'imgObject': {}, 'id': 'veggieswithdip', 'src': '/static/foodstim60/veggieswithdip.jpg', 'key': 'i', 'origWidth': 409, 'origHeight': 409, 'width': 409, 'height': 409, 'widthPercent': 0.45, 'rescaleHeight': False, 'trialN': 69, 'loaded': True, 'loadedTime': 4493.100000023842, 'positionName': 'RIGHT', 'positionCoords': [710.32, 179.5], 'bid': 1.64}]",138344.10000002384,1669832862979,yogurt no spoon,veggieswithdip,3.0,1.64,-1.36,yogurt no spoon,1149.6000000238419,1150,1150.0,True,u,140002.30000007153,1658.2000000476837,1669832864637,1658,HRV,HRV_0183,2022-11-30 18:31:08
70,"[{'imgObject': {}, 'id': 'froot loops w milk', 'src': '/static/foodstim60/froot loops w milk.jpg', 'key': 'u', 'origWidth': 410, 'origHeight': 410, 'width': 410, 'height': 410, 'widthPercent': 0.45, 'rescaleHeight': False, 'trialN': 70, 'loaded': True, 'loadedTime': 4483.800000071526, 'positionName': 'LEFT', 'positionCoords': [245.68, 179], 'bid': 4.04}, {'imgObject': {}, 'id': 'chickenfingers', 'src': '/static/foodstim60/chickenfingers.jpg', 'key': 'i', 'origWidth': 410, 'origHeight': 410, 'width': 410, 'height': 410, 'widthPercent': 0.45, 'rescaleHeight': False, 'trialN': 70, 'loaded': True, 'loadedTime': 4477.5, 'positionName': 'RIGHT', 'positionCoords': [710.32, 179], 'bid': 4.07}]",140002.39999997616,1669832864637,froot loops w milk,chickenfingers,4.04,4.07,0.03000000000000025,chickenfingers,1059.0,1059,1059.3000000715256,True,i,141574.30000007153,1571.9000000953674,1669832866209,1572,HRV,HRV_0183,2022-11-30 18:31:08
71,"[{'imgObject': {}, 'id': 'blackbeanswithrice', 'src': '/static/foodstim60/blackbeanswithrice.jpg', 'key': 'u', 'origWidth': 410, 'origHeight': 410, 'width': 410, 'height': 410, 'widthPercent': 0.45, 'rescaleHeight': False, 'trialN': 71, 'loaded': True, 'loadedTime': 4455, 'positionName': 'LEFT', 'positionCoords': [245.68, 179], 'bid': 5.92}, {'imgObject': {}, 'id': 'shreddedwheatwithmilk', 'src': '/static/foodstim60/shreddedwheatwithmilk.jpg', 'key': 'i', 'origWidth': 410, 'origHeight': 410, 'width': 410, 'height': 410, 'widthPercent': 0.45, 'rescaleHeight': False, 'trialN': 71, 'loaded': True, 'loadedTime': 4495.800000071526, 'positionName': 'RIGHT', 'positionCoords': [710.32, 179], 'bid': 4.18}]",141574.39999997616,1669832866209,blackbeanswithrice,shreddedwheatwithmilk,5.92,4.18,-1.7400000000000002,blackbeanswithrice,1004.8000000715256,1005,1005.1000000238419,True,u,143086.39999997616,1512.0,1669832867721,1512,HRV,HRV_0183,2022-11-30 18:31:08
72,"[{'imgObject': {}, 'id': 'orange slices', 'src': '/static/foodstim60/orange slices.jpg', 'key': 'u', 'origWidth': 409, 'origHeight': 410, 'width': 409, 'height': 410, 'widthPercent': 0.45, 'rescaleHeight': False, 'trialN': 72, 'loaded': True, 'loadedTime': 4468.200000047684, 'positionName': 'LEFT', 'positionCoords': [246.68, 179], 'bid': 7.63}, {'imgObject': {}, 'id': 'sweetpotato', 'src': '/static/foodstim60/sweetpotato.jpg', 'key': 'i', 'origWidth': 410, 'origHeight': 410, 'width': 410, 'height': 410, 'widthPercent': 0.45, 'rescaleHeight': False, 'trialN': 72, 'loaded': True, 'loadedTime': 4412.100000023842, 'positionName': 'RIGHT', 'positionCoords': [710.32, 179], 'bid': 6.5}]",143086.60000002384,1669832867721,orange slices,sweetpotato,7.63,6.5,-1.13,orange slices,1621.2999999523163,1622,1621.7000000476837,True,u,145221.39999997616,2134.7999999523163,1669832869856,2135,HRV,HRV_0183,2022-11-30 18:31:08
73,"[{'imgObject': {}, 'id': 'burrito', 'src': '/static/foodstim60/burrito.jpg', 'key': 'u', 'origWidth': 410, 'origHeight': 410, 'width': 410, 'height': 410, 'widthPercent': 0.45, 'rescaleHeight': False, 'trialN': 73, 'loaded': True, 'loadedTime': 4282.5, 'positionName': 'LEFT', 'positionCoords': [245.68, 179], 'bid': 9.24}, {'imgObject': {}, 'id': 'baked potato', 'src': '/static/foodstim60/baked potato.jpg', 'key': 'i', 'origWidth': 409, 'origHeight': 410, 'width': 409, 'height': 410, 'widthPercent': 0.45, 'rescaleHeight': False, 'trialN': 73, 'loaded': True, 'loadedTime': 4278.200000047684, 'positionName': 'RIGHT', 'positionCoords': [710.32, 179], 'bid': 3.62}]",145221.70000004768,1669832869856,burrito,baked potato,9.24,3.62,-5.62,burrito,962.8999999761581,964,963.1999999284744,True,u,146688.10000002384,1466.3999999761581,1669832871323,1467,HRV,HRV_0183,2022-11-30 18:31:08
74,"[{'imgObject': {}, 'id': 'Tribe humus pita', 'src': '/static/foodstim60/Tribe humus pita.jpg', 'key': 'u', 'origWidth': 411, 'origHeight': 411, 'width': 411, 'height': 411, 'widthPercent': 0.45, 'rescaleHeight': False, 'trialN': 74, 'loaded': True, 'loadedTime': 4435.300000071526, 'positionName': 'LEFT', 'positionCoords': [244.68, 178.5], 'bid': 2.48}, {'imgObject': {}, 'id': 'seaweed', 'src': '/static/foodstim60/seaweed.jpg', 'key': 'i', 'origWidth': 410, 'origHeight': 410, 'width': 410, 'height': 410, 'widthPercent': 0.45, 'rescaleHeight': False, 'trialN': 74, 'loaded': True, 'loadedTime': 4481.800000071526, 'positionName': 'RIGHT', 'positionCoords': [710.32, 179], 'bid': 2.86}]",146688.30000007153,1669832871323,Tribe humus pita,seaweed,2.48,2.86,0.3799999999999999,seaweed,2175.2999999523163,2176,2175.5999999046326,True,i,149378.30000007153,2690.0,1669832874013,2690,HRV,HRV_0183,2022-11-30 18:31:08
75,"[{'imgObject': {}, 'id': 'strawberries', 'src': '/static/foodstim60/strawberries.jpg', 'key': 'u', 'origWidth': 410, 'origHeight': 410, 'width': 410, 'height': 410, 'widthPercent': 0.45, 'rescaleHeight': False, 'trialN': 75, 'loaded': True, 'loadedTime': 4356.300000071526, 'positionName': 'LEFT', 'positionCoords': [245.68, 179], 'bid': 9.5}, {'imgObject': {}, 'id': 'turkey sandwich', 'src': '/static/foodstim60/turkey sandwich.jpg', 'key': 'i', 'origWidth': 409, 'origHeight': 409, 'width': 409, 'height': 409, 'widthPercent': 0.45, 'rescaleHeight': False, 'trialN': 75, 'loaded': True, 'loadedTime': 4232, 'positionName': 'RIGHT', 'positionCoords': [710.32, 179.5], 'bid': 8.57}]",149378.5,1669832874013,strawberries,turkey sandwich,9.5,8.57,-0.9299999999999997,turkey sandwich,2196.3000000715256,2197,2196.600000023842,True,i,152082.60000002384,2704.100000023842,1669832876717,2704,HRV,HRV_0183,2022-11-30 18:31:08
76,"[{'imgObject': {}, 'id': 'pear', 'src': '/static/foodstim60/pear.jpg', 'key': 'u', 'origWidth': 411, 'origHeight': 410, 'width': 411, 'height': 410, 'widthPercent': 0.45, 'rescaleHeight': False, 'trialN': 76, 'loaded': True, 'loadedTime': 4497, 'positionName': 'LEFT', 'positionCoords': [244.68, 179], 'bid': 7.95}, {'imgObject': {}, 'id': 'cherry tomato', 'src': '/static/foodstim60/cherry tomato.jpg', 'key': 'i', 'origWidth': 410, 'origHeight': 410, 'width': 410, 'height': 410, 'widthPercent': 0.45, 'rescaleHeight': False, 'trialN': 76, 'loaded': True, 'loadedTime': 4213.800000071526, 'positionName': 'RIGHT', 'positionCoords': [710.32, 179], 'bid': 9.58}]",152082.70000004768,1669832876717,pear,cherry tomato,7.95,9.58,1.63,cherry tomato,1461.2999999523163,1462,1461.6000000238419,True,i,154048.20000004768,1965.5,1669832878683,1966,HRV,HRV_0183,2022-11-30 18:31:08
77,"[{'imgObject': {}, 'id': 'hashbrowns', 'src': '/static/foodstim60/hashbrowns.jpg', 'key': 'u', 'origWidth': 411, 'origHeight': 410, 'width': 411, 'height': 410, 'widthPercent': 0.45, 'rescaleHeight': False, 'trialN': 77, 'loaded': True, 'loadedTime': 4432.800000071526, 'positionName': 'LEFT', 'positionCoords': [244.68, 179], 'bid': 4.01}, {'imgObject': {}, 'id': 'blueberries', 'src': '/static/foodstim60/blueberries.jpg', 'key': 'i', 'origWidth': 411, 'origHeight': 411, 'width': 411, 'height': 411, 'widthPercent': 0.45, 'rescaleHeight': False, 'trialN': 77, 'loaded': True, 'loadedTime': 4283.700000047684, 'positionName': 'RIGHT', 'positionCoords': [710.32, 178.5], 'bid': 9.28}]",154048.39999997616,1669832878683,hashbrowns,blueberries,4.01,9.28,5.27,blueberries,887.4000000953674,888,887.7000000476837,True,i,155447.80000007153,1399.4000000953674,1669832880083,1400,HRV,HRV_0183,2022-11-30 18:31:08
78,"[{'imgObject': {}, 'id': 'tacos', 'src': '/static/foodstim60/tacos.jpg', 'key': 'u', 'origWidth': 411, 'origHeight': 411, 'width': 411, 'height': 411, 'widthPercent': 0.45, 'rescaleHeight': False, 'trialN': 78, 'loaded': True, 'loadedTime': 4483.5, 'positionName': 'LEFT', 'positionCoords': [244.68, 178.5], 'bid': 9.84}, {'imgObject': {}, 'id': 'raspberries', 'src': '/static/foodstim60/raspberries.jpg', 'key': 'i', 'origWidth': 411, 'origHeight': 411, 'width': 411, 'height': 411, 'widthPercent': 0.45, 'rescaleHeight': False, 'trialN': 78, 'loaded': True, 'loadedTime': 4378.300000071526, 'positionName': 'RIGHT', 'positionCoords': [710.32, 178.5], 'bid': 9.61}]",155447.89999997616,1669832880083,tacos,raspberries,9.84,9.61,-0.23000000000000043,tacos,1000.6000000238419,1001,1000.9000000953674,True,u,156960.89999997616,1513.0,1669832881596,1513,HRV,HRV_0183,2022-11-30 18:31:08
79,"[{'imgObject': {}, 'id': 'eggsalad', 'src': '/static/foodstim60/eggsalad.jpg', 'key': 'u', 'origWidth': 410, 'origHeight': 409, 'width': 410, 'height': 409, 'widthPercent': 0.45, 'rescaleHeight': False, 'trialN': 79, 'loaded': True, 'loadedTime': 4272.5, 'positionName': 'LEFT', 'positionCoords': [245.68, 179.5], 'bid': 0.87}, {'imgObject': {}, 'id': 'chicken nuggets2', 'src': '/static/foodstim60/chicken nuggets2.jpg', 'key': 'i', 'origWidth': 410, 'origHeight': 409, 'width': 410, 'height': 409, 'widthPercent': 0.45, 'rescaleHeight': False, 'trialN': 79, 'loaded': True, 'loadedTime': 4357.899999976158, 'positionName': 'RIGHT', 'positionCoords': [710.32, 179.5], 'bid': 1.12}]",156961.10000002384,1669832881596,eggsalad,chicken nuggets2,0.87,1.12,0.2500000000000001,chicken nuggets2,1402.8999999761581,1403,1403.3999999761581,True,i,158872.10000002384,1911.0,1669832883507,1911,HRV,HRV_0183,2022-11-30 18:31:08
80,"[{'imgObject': {}, 'id': 'bagel and cc', 'src': '/static/foodstim60/bagel and cc.jpg', 'key': 'u', 'origWidth': 410, 'origHeight': 410, 'width': 410, 'height': 410, 'widthPercent': 0.45, 'rescaleHeight': False, 'trialN': 80, 'loaded': True, 'loadedTime': 4464.100000023842, 'positionName': 'LEFT', 'positionCoords': [245.68, 179], 'bid': 1.57}, {'imgObject': {}, 'id': 'baked potato', 'src': '/static/foodstim60/baked potato.jpg', 'key': 'i', 'origWidth': 409, 'origHeight': 410, 'width': 409, 'height': 410, 'widthPercent': 0.45, 'rescaleHeight': False, 'trialN': 80, 'loaded': True, 'loadedTime': 4277, 'positionName': 'RIGHT', 'positionCoords': [710.32, 179], 'bid': 3.62}]",158872.39999997616,1669832883507,bagel and cc,baked potato,1.57,3.62,2.05,baked potato,1388.8000000715256,1389,1389.1000000238419,True,i,160772.39999997616,1900.0,1669832885407,1900,HRV,HRV_0183,2022-11-30 18:31:08
81,"[{'imgObject': {}, 'id': 'granola w milk', 'src': '/static/foodstim60/granola w milk.jpg', 'key': 'u', 'origWidth': 410, 'origHeight': 410, 'width': 410, 'height': 410, 'widthPercent': 0.45, 'rescaleHeight': False, 'trialN': 81, 'loaded': True, 'loadedTime': 4497.200000047684, 'positionName': 'LEFT', 'positionCoords': [245.68, 179], 'bid': 4.98}, {'imgObject': {}, 'id': 'pear', 'src': '/static/foodstim60/pear.jpg', 'key': 'i', 'origWidth': 411, 'origHeight': 410, 'width': 411, 'height': 410, 'widthPercent': 0.45, 'rescaleHeight': False, 'trialN': 81, 'loaded': True, 'loadedTime': 4495.899999976158, 'positionName': 'RIGHT', 'positionCoords': [710.32, 179], 'bid': 7.95}]",160772.60000002384,1669832885407,granola w milk,pear,4.98,7.95,2.9699999999999998,pear,796.0,797,796.2999999523163,True,i,162070.30000007153,1297.7000000476837,1669832886705,1298,HRV,HRV_0183,2022-11-30 18:31:08
82,"[{'imgObject': {}, 'id': 'kiwi', 'src': '/static/foodstim60/kiwi.jpg', 'key': 'u', 'origWidth': 410, 'origHeight': 410, 'width': 410, 'height': 410, 'widthPercent': 0.45, 'rescaleHeight': False, 'trialN': 82, 'loaded': True, 'loadedTime': 4327.100000023842, 'positionName': 'LEFT', 'positionCoords': [245.68, 179], 'bid': 6.44}, {'imgObject': {}, 'id': 'blueberries', 'src': '/static/foodstim60/blueberries.jpg', 'key': 'i', 'origWidth': 411, 'origHeight': 411, 'width': 411, 'height': 411, 'widthPercent': 0.45, 'rescaleHeight': False, 'trialN': 82, 'loaded': True, 'loadedTime': 4284.100000023842, 'positionName': 'RIGHT', 'positionCoords': [710.32, 178.5], 'bid': 9.28}]",162070.39999997616,1669832886705,kiwi,blueberries,6.44,9.28,2.839999999999999,blueberries,1090.7000000476837,1091,1091.0,True,i,163674.60000002384,1604.2000000476837,1669832888309,1604,HRV,HRV_0183,2022-11-30 18:31:08
83,"[{'imgObject': {}, 'id': 'avocado', 'src': '/static/foodstim60/avocado.jpg', 'key': 'u', 'origWidth': 409, 'origHeight': 409, 'width': 409, 'height': 409, 'widthPercent': 0.45, 'rescaleHeight': False, 'trialN': 83, 'loaded': True, 'loadedTime': 4465.5, 'positionName': 'LEFT', 'positionCoords': [246.68, 179.5], 'bid': 0.08}, {'imgObject': {}, 'id': 'granola w milk', 'src': '/static/foodstim60/granola w milk.jpg', 'key': 'i', 'origWidth': 410, 'origHeight': 410, 'width': 410, 'height': 410, 'widthPercent': 0.45, 'rescaleHeight': False, 'trialN': 83, 'loaded': True, 'loadedTime': 4497.899999976158, 'positionName': 'RIGHT', 'positionCoords': [710.32, 179], 'bid': 4.98}]",163674.80000007153,1669832888310,avocado,granola w milk,0.08,4.98,4.9,granola w milk,1182.0,1182,1182.1999999284744,True,i,165361.39999997616,1686.5999999046326,1669832889996,1686,HRV,HRV_0183,2022-11-30 18:31:08
84,"[{'imgObject': {}, 'id': 'froot loops w milk', 'src': '/static/foodstim60/froot loops w milk.jpg', 'key': 'u', 'origWidth': 410, 'origHeight': 410, 'width': 410, 'height': 410, 'widthPercent': 0.45, 'rescaleHeight': False, 'trialN': 84, 'loaded': True, 'loadedTime': 4484.600000023842, 'positionName': 'LEFT', 'positionCoords': [245.68, 179], 'bid': 4.04}, {'imgObject': {}, 'id': 'raisin bran w milk', 'src': '/static/foodstim60/raisin bran w milk.jpg', 'key': 'i', 'origWidth': 411, 'origHeight': 411, 'width': 411, 'height': 411, 'widthPercent': 0.45, 'rescaleHeight': False, 'trialN': 84, 'loaded': True, 'loadedTime': 4268.600000023842, 'positionName': 'RIGHT', 'positionCoords': [710.32, 178.5], 'bid': 5.3}]",165361.60000002384,1669832889996,froot loops w milk,raisin bran w milk,4.04,5.3,1.2599999999999998,raisin bran w milk,1158.2999999523163,1159,1158.5,True,i,167023.80000007153,1662.2000000476837,1669832891659,1663,HRV,HRV_0183,2022-11-30 18:31:08
85,"[{'imgObject': {}, 'id': 'burrito', 'src': '/static/foodstim60/burrito.jpg', 'key': 'u', 'origWidth': 410, 'origHeight': 410, 'width': 410, 'height': 410, 'widthPercent': 0.45, 'rescaleHeight': False, 'trialN': 85, 'loaded': True, 'loadedTime': 4282.5, 'positionName': 'LEFT', 'positionCoords': [245.68, 179], 'bid': 9.24}, {'imgObject': {}, 'id': 'salad w chicken', 'src': '/static/foodstim60/salad w chicken.jpg', 'key': 'i', 'origWidth': 411, 'origHeight': 411, 'width': 411, 'height': 411, 'widthPercent': 0.45, 'rescaleHeight': False, 'trialN': 85, 'loaded': True, 'loadedTime': 4479.100000023842, 'positionName': 'RIGHT', 'positionCoords': [710.32, 178.5], 'bid': 6.91}]",167024.0,1669832891659,burrito,salad w chicken,9.24,6.91,-2.33,salad w chicken,1355.7000000476837,1356,1356.0,True,i,168886.60000002384,1862.6000000238419,1669832893521,1862,HRV,HRV_0183,2022-11-30 18:31:08
86,"[{'imgObject': {}, 'id': 'cantaloupe', 'src': '/static/foodstim60/cantaloupe.jpg', 'key': 'u', 'origWidth': 409, 'origHeight': 409, 'width': 409, 'height': 409, 'widthPercent': 0.45, 'rescaleHeight': False, 'trialN': 86, 'loaded': True, 'loadedTime': 4297.899999976158, 'positionName': 'LEFT', 'positionCoords': [246.68, 179.5], 'bid': 0.68}, {'imgObject': {}, 'id': 'avocado', 'src': '/static/foodstim60/avocado.jpg', 'key': 'i', 'origWidth': 409, 'origHeight': 409, 'width': 409, 'height': 409, 'widthPercent': 0.45, 'rescaleHeight': False, 'trialN': 86, 'loaded': True, 'loadedTime': 4465.200000047684, 'positionName': 'RIGHT', 'positionCoords': [710.32, 179.5], 'bid': 0.08}]",168886.70000004768,1669832893522,cantaloupe,avocado,0.68,0.08,-0.6000000000000001,cantaloupe,1563.2999999523163,1563,1563.6000000238419,True,u,170963.0,2076.2999999523163,1669832895598,2076,HRV,HRV_0183,2022-11-30 18:31:08
87,"[{'imgObject': {}, 'id': 'apple slices', 'src': '/static/foodstim60/apple slices.jpg', 'key': 'u', 'origWidth': 409, 'origHeight': 410, 'width': 409, 'height': 410, 'widthPercent': 0.45, 'rescaleHeight': False, 'trialN': 87, 'loaded': True, 'loadedTime': 4486, 'positionName': 'LEFT', 'positionCoords': [246.68, 179], 'bid': 7.15}, {'imgObject': {}, 'id': 'cherries', 'src': '/static/foodstim60/cherries.jpg', 'key': 'i', 'origWidth': 410, 'origHeight': 411, 'width': 410, 'height': 411, 'widthPercent': 0.45, 'rescaleHeight': False, 'trialN': 87, 'loaded': True, 'loadedTime': 4357.899999976158, 'positionName': 'RIGHT', 'positionCoords': [710.32, 178.5], 'bid': 9.75}]",170963.20000004768,1669832895598,apple slices,cherries,7.15,9.75,2.5999999999999996,apple slices,1527.3999999761581,1528,1527.6999999284744,True,u,172998.70000004768,2035.5,1669832897634,2036,HRV,HRV_0183,2022-11-30 18:31:08
88,"[{'imgObject': {}, 'id': 'chicken nuggets2', 'src': '/static/foodstim60/chicken nuggets2.jpg', 'key': 'u', 'origWidth': 410, 'origHeight': 409, 'width': 410, 'height': 409, 'widthPercent': 0.45, 'rescaleHeight': False, 'trialN': 88, 'loaded': True, 'loadedTime': 4357.5, 'positionName': 'LEFT', 'positionCoords': [245.68, 179.5], 'bid': 1.12}, {'imgObject': {}, 'id': 'bagel and cc', 'src': '/static/foodstim60/bagel and cc.jpg', 'key': 'i', 'origWidth': 410, 'origHeight': 410, 'width': 410, 'height': 410, 'widthPercent': 0.45, 'rescaleHeight': False, 'trialN': 88, 'loaded': True, 'loadedTime': 4464.200000047684, 'positionName': 'RIGHT', 'positionCoords': [710.32, 179], 'bid': 1.57}]",172999.0,1669832897634,chicken nuggets2,bagel and cc,1.12,1.57,0.44999999999999996,chicken nuggets2,2343.5,2344,2343.899999976158,True,u,175855.5,2856.5,1669832900490,2856,HRV,HRV_0183,2022-11-30 18:31:08
89,"[{'imgObject': {}, 'id': 'roastedpotatoes', 'src': '/static/foodstim60/roastedpotatoes.jpg', 'key': 'u', 'origWidth': 409, 'origHeight': 410, 'width': 409, 'height': 410, 'widthPercent': 0.45, 'rescaleHeight': False, 'trialN': 89, 'loaded': True, 'loadedTime': 4403.200000047684, 'positionName': 'LEFT', 'positionCoords': [246.68, 179], 'bid': 4.73}, {'imgObject': {}, 'id': 'tacos', 'src': '/static/foodstim60/tacos.jpg', 'key': 'i', 'origWidth': 411, 'origHeight': 411, 'width': 411, 'height': 411, 'widthPercent': 0.45, 'rescaleHeight': False, 'trialN': 89, 'loaded': True, 'loadedTime': 4483.700000047684, 'positionName': 'RIGHT', 'positionCoords': [710.32, 178.5], 'bid': 9.84}]",175855.60000002384,1669832900490,roastedpotatoes,tacos,4.73,9.84,5.109999999999999,tacos,723.1000000238419,724,723.5,True,i,177086.39999997616,1230.7999999523163,1669832901721,1231,HRV,HRV_0183,2022-11-30 18:31:08
90,"[{'imgObject': {}, 'id': 'hotdog w must', 'src': '/static/foodstim60/hotdog w must.jpg', 'key': 'u', 'origWidth': 409, 'origHeight': 409, 'width': 409, 'height': 409, 'widthPercent': 0.45, 'rescaleHeight': False, 'trialN': 90, 'loaded': True, 'loadedTime': 4479.399999976158, 'positionName': 'LEFT', 'positionCoords': [246.68, 179.5], 'bid': 3.38}, {'imgObject': {}, 'id': 'bagel plain', 'src': '/static/foodstim60/bagel plain.jpg', 'key': 'i', 'origWidth': 410, 'origHeight': 410, 'width': 410, 'height': 410, 'widthPercent': 0.45, 'rescaleHeight': False, 'trialN': 90, 'loaded': True, 'loadedTime': 4379.800000071526, 'positionName': 'RIGHT', 'positionCoords': [710.32, 179], 'bid': 1.42}]",181651.0,1669832906286,hotdog w must,bagel plain,3.38,1.42,-1.96,hotdog w must,1329.1000000238419,1329,1329.3999999761581,True,u,183494.5,1843.5,1669832908129,1843,HRV,HRV_0183,2022-11-30 18:31:08
91,"[{'imgObject': {}, 'id': 'corn cob', 'src': '/static/foodstim60/corn cob.jpg', 'key': 'u', 'origWidth': 411, 'origHeight': 411, 'width': 411, 'height': 411, 'widthPercent': 0.45, 'rescaleHeight': False, 'trialN': 91, 'loaded': True, 'loadedTime': 4309.899999976158, 'positionName': 'LEFT', 'positionCoords': [244.68, 178.5], 'bid': 5.5200000000000005}, {'imgObject': {}, 'id': 'mac & cheese', 'src': '/static/foodstim60/mac & cheese.jpg', 'key': 'i', 'origWidth': 410, 'origHeight': 410, 'width': 410, 'height': 410, 'widthPercent': 0.45, 'rescaleHeight': False, 'trialN': 91, 'loaded': True, 'loadedTime': 4444.399999976158, 'positionName': 'RIGHT', 'positionCoords': [710.32, 179], 'bid': 8.870000000000001}]",183494.80000007153,1669832908129,corn cob,mac & cheese,5.5200000000000005,8.870000000000001,3.3500000000000005,mac & cheese,1212.2999999523163,1213,1212.6999999284744,True,i,185220.30000007153,1725.5,1669832909855,1726,HRV,HRV_0183,2022-11-30 18:31:08
92,"[{'imgObject': {}, 'id': 'shreddedwheatwithmilk', 'src': '/static/foodstim60/shreddedwheatwithmilk.jpg', 'key': 'u', 'origWidth': 410, 'origHeight': 410, 'width': 410, 'height': 410, 'widthPercent': 0.45, 'rescaleHeight': False, 'trialN': 92, 'loaded': True, 'loadedTime': 4495.600000023842, 'positionName': 'LEFT', 'positionCoords': [245.68, 179], 'bid': 4.18}, {'imgObject': {}, 'id': 'raspberries', 'src': '/static/foodstim60/raspberries.jpg', 'key': 'i', 'origWidth': 411, 'origHeight': 411, 'width': 411, 'height': 411, 'widthPercent': 0.45, 'rescaleHeight': False, 'trialN': 92, 'loaded': True, 'loadedTime': 4370.399999976158, 'positionName': 'RIGHT', 'positionCoords': [710.32, 178.5], 'bid': 9.61}]",185220.5,1669832909855,shreddedwheatwithmilk,raspberries,4.18,9.61,5.43,raspberries,926.0,927,926.3999999761581,True,i,186654.89999997616,1434.3999999761581,1669832911290,1435,HRV,HRV_0183,2022-11-30 18:31:08
93,"[{'imgObject': {}, 'id': 'roastedpotatoes', 'src': '/static/foodstim60/roastedpotatoes.jpg', 'key': 'u', 'origWidth': 409, 'origHeight': 410, 'width': 409, 'height': 410, 'widthPercent': 0.45, 'rescaleHeight': False, 'trialN': 93, 'loaded': True, 'loadedTime': 4402.700000047684, 'positionName': 'LEFT', 'positionCoords': [246.68, 179], 'bid': 4.73}, {'imgObject': {}, 'id': 'grilled chicken strips', 'src': '/static/foodstim60/grilled chicken strips.jpg', 'key': 'i', 'origWidth': 410, 'origHeight': 411, 'width': 410, 'height': 411, 'widthPercent': 0.45, 'rescaleHeight': False, 'trialN': 93, 'loaded': True, 'loadedTime': 4420.600000023842, 'positionName': 'RIGHT', 'positionCoords': [710.32, 178.5], 'bid': 4.41}]",186655.10000002384,1669832911290,roastedpotatoes,grilled chicken strips,4.73,4.41,-0.3200000000000003,grilled chicken strips,1455.0,1455,1455.3999999761581,True,i,188613.5,1958.3999999761581,1669832913248,1958,HRV,HRV_0183,2022-11-30 18:31:08
94,"[{'imgObject': {}, 'id': 'mac & cheese', 'src': '/static/foodstim60/mac & cheese.jpg', 'key': 'u', 'origWidth': 410, 'origHeight': 410, 'width': 410, 'height': 410, 'widthPercent': 0.45, 'rescaleHeight': False, 'trialN': 94, 'loaded': True, 'loadedTime': 4443, 'positionName': 'LEFT', 'positionCoords': [245.68, 179], 'bid': 8.870000000000001}, {'imgObject': {}, 'id': 'Grapes', 'src': '/static/foodstim60/Grapes.jpg', 'key': 'i', 'origWidth': 411, 'origHeight': 411, 'width': 411, 'height': 411, 'widthPercent': 0.45, 'rescaleHeight': False, 'trialN': 94, 'loaded': True, 'loadedTime': 4285.100000023842, 'positionName': 'RIGHT', 'positionCoords': [710.32, 178.5], 'bid': 8.61}]",188613.70000004768,1669832913248,mac & cheese,Grapes,8.870000000000001,8.61,-0.26000000000000156,mac & cheese,1766.2999999523163,1767,1766.6000000238419,True,u,190890.70000004768,2277.0,1669832915526,2278,HRV,HRV_0183,2022-11-30 18:31:08
95,"[{'imgObject': {}, 'id': 'chicken nuggets2', 'src': '/static/foodstim60/chicken nuggets2.jpg', 'key': 'u', 'origWidth': 410, 'origHeight': 409, 'width': 410, 'height': 409, 'widthPercent': 0.45, 'rescaleHeight': False, 'trialN': 95, 'loaded': True, 'loadedTime': 4357.399999976158, 'positionName': 'LEFT', 'positionCoords': [245.68, 179.5], 'bid': 1.12}, {'imgObject': {}, 'id': 'cheerios', 'src': '/static/foodstim60/cheerios.jpg', 'key': 'i', 'origWidth': 409, 'origHeight': 410, 'width': 409, 'height': 410, 'widthPercent': 0.45, 'rescaleHeight': False, 'trialN': 95, 'loaded': True, 'loadedTime': 4287.899999976158, 'positionName': 'RIGHT', 'positionCoords': [710.32, 179], 'bid': 5.3}]",190890.89999997616,1669832915526,chicken nuggets2,cheerios,1.12,5.3,4.18,cheerios,1685.8000000715256,1686,1686.0,True,i,193079.60000002384,2188.7000000476837,1669832917714,2188,HRV,HRV_0183,2022-11-30 18:31:08
96,"[{'imgObject': {}, 'id': 'steak', 'src': '/static/foodstim60/steak.jpg', 'key': 'u', 'origWidth': 410, 'origHeight': 410, 'width': 410, 'height': 410, 'widthPercent': 0.45, 'rescaleHeight': False, 'trialN': 96, 'loaded': True, 'loadedTime': 4337.399999976158, 'positionName': 'LEFT', 'positionCoords': [245.68, 179], 'bid': 2.08}, {'imgObject': {}, 'id': 'sushi w_condiments', 'src': '/static/foodstim60/sushi w_condiments.jpg', 'key': 'i', 'origWidth': 410, 'origHeight': 410, 'width': 410, 'height': 410, 'widthPercent': 0.45, 'rescaleHeight': False, 'trialN': 96, 'loaded': True, 'loadedTime': 4401.700000047684, 'positionName': 'RIGHT', 'positionCoords': [710.32, 179], 'bid': 2.01}]",193079.80000007153,1669832917715,steak,sushi w_condiments,2.08,2.01,-0.07000000000000028,sushi w_condiments,1227.0,1227,1227.2999999523163,True,i,194821.10000002384,1741.2999999523163,1669832919456,1741,HRV,HRV_0183,2022-11-30 18:31:08
97,"[{'imgObject': {}, 'id': 'seaweed', 'src': '/static/foodstim60/seaweed.jpg', 'key': 'u', 'origWidth': 410, 'origHeight': 410, 'width': 410, 'height': 410, 'widthPercent': 0.45, 'rescaleHeight': False, 'trialN': 97, 'loaded': True, 'loadedTime': 4481.800000071526, 'positionName': 'LEFT', 'positionCoords': [245.68, 179], 'bid': 2.86}, {'imgObject': {}, 'id': 'cantaloupe', 'src': '/static/foodstim60/cantaloupe.jpg', 'key': 'i', 'origWidth': 409, 'origHeight': 409, 'width': 409, 'height': 409, 'widthPercent': 0.45, 'rescaleHeight': False, 'trialN': 97, 'loaded': True, 'loadedTime': 4298.300000071526, 'positionName': 'RIGHT', 'positionCoords': [710.32, 179.5], 'bid': 0.68}]",194821.39999997616,1669832919456,seaweed,cantaloupe,2.86,0.68,-2.1799999999999997,seaweed,912.1000000238419,913,912.4000000953674,True,u,196237.80000007153,1416.4000000953674,1669832920873,1417,HRV,HRV_0183,2022-11-30 18:31:08
98,"[{'imgObject': {}, 'id': 'turkeysandwich', 'src': '/static/foodstim60/turkeysandwich.jpg', 'key': 'u', 'origWidth': 409, 'origHeight': 409, 'width': 409, 'height': 409, 'widthPercent': 0.45, 'rescaleHeight': False, 'trialN': 98, 'loaded': True, 'loadedTime': 4369.200000047684, 'positionName': 'LEFT', 'positionCoords': [246.68, 179.5], 'bid': 8.26}, {'imgObject': {}, 'id': 'pear', 'src': '/static/foodstim60/pear.jpg', 'key': 'i', 'origWidth': 411, 'origHeight': 410, 'width': 411, 'height': 410, 'widthPercent': 0.45, 'rescaleHeight': False, 'trialN': 98, 'loaded': True, 'loadedTime': 4496.700000047684, 'positionName': 'RIGHT', 'positionCoords': [710.32, 179], 'bid': 7.95}]",196237.89999997616,1669832920873,turkeysandwich,pear,8.26,7.95,-0.3099999999999996,turkeysandwich,762.1000000238419,762,762.4000000953674,True,u,197505.5,1267.6000000238419,1669832922140,1267,HRV,HRV_0183,2022-11-30 18:31:08
99,"[{'imgObject': {}, 'id': 'mashed potato', 'src': '/static/foodstim60/mashed potato.jpg', 'key': 'u', 'origWidth': 409, 'origHeight': 409, 'width': 409, 'height': 409, 'widthPercent': 0.45, 'rescaleHeight': False, 'trialN': 99, 'loaded': True, 'loadedTime': 4290.200000047684, 'positionName': 'LEFT', 'positionCoords': [246.68, 179.5], 'bid': 5.05}, {'imgObject': {}, 'id': 'raisin bran w milk', 'src': '/static/foodstim60/raisin bran w milk.jpg', 'key': 'i', 'origWidth': 411, 'origHeight': 411, 'width': 411, 'height': 411, 'widthPercent': 0.45, 'rescaleHeight': False, 'trialN': 99, 'loaded': True, 'loadedTime': 4269.300000071526, 'positionName': 'RIGHT', 'positionCoords': [710.32, 178.5], 'bid': 5.3}]",197505.60000002384,1669832922140,mashed potato,raisin bran w milk,5.05,5.3,0.25,raisin bran w milk,1367.2000000476837,1368,1367.5,True,i,199375.5,1869.8999999761581,1669832924010,1870,HRV,HRV_0183,2022-11-30 18:31:08
100,"[{'imgObject': {}, 'id': 'Tribe humus pita', 'src': '/static/foodstim60/Tribe humus pita.jpg', 'key': 'u', 'origWidth': 411, 'origHeight': 411, 'width': 411, 'height': 411, 'widthPercent': 0.45, 'rescaleHeight': False, 'trialN': 100, 'loaded': True, 'loadedTime': 4442.600000023842, 'positionName': 'LEFT', 'positionCoords': [244.68, 178.5], 'bid': 2.48}, {'imgObject': {}, 'id': 'pear', 'src': '/static/foodstim60/pear.jpg', 'key': 'i', 'origWidth': 411, 'origHeight': 410, 'width': 411, 'height': 410, 'widthPercent': 0.45, 'rescaleHeight': False, 'trialN': 100, 'loaded': True, 'loadedTime': 4497, 'positionName': 'RIGHT', 'positionCoords': [710.32, 179], 'bid': 7.95}]",199375.80000007153,1669832924011,Tribe humus pita,pear,2.48,7.95,5.470000000000001,pear,1014.6999999284744,1015,1014.8999999761581,True,i,200897.70000004768,1521.8999999761581,1669832925532,1521,HRV,HRV_0183,2022-11-30 18:31:08
101,"[{'imgObject': {}, 'id': 'steak', 'src': '/static/foodstim60/steak.jpg', 'key': 'u', 'origWidth': 410, 'origHeight': 410, 'width': 410, 'height': 410, 'widthPercent': 0.45, 'rescaleHeight': False, 'trialN': 101, 'loaded': True, 'loadedTime': 4336.300000071526, 'positionName': 'LEFT', 'positionCoords': [245.68, 179], 'bid': 2.08}, {'imgObject': {}, 'id': 'rigatoni and sauce', 'src': '/static/foodstim60/rigatoni and sauce.jpg', 'key': 'i', 'origWidth': 410, 'origHeight': 411, 'width': 410, 'height': 411, 'widthPercent': 0.45, 'rescaleHeight': False, 'trialN': 101, 'loaded': True, 'loadedTime': 4498.300000071526, 'positionName': 'RIGHT', 'positionCoords': [710.32, 178.5], 'bid': 2.01}]",200897.89999997616,1669832925533,steak,rigatoni and sauce,2.08,2.01,-0.07000000000000028,steak,1267.2000000476837,1267,1267.5,True,u,202680.30000007153,1782.4000000953674,1669832927315,1782,HRV,HRV_0183,2022-11-30 18:31:08
102,"[{'imgObject': {}, 'id': 'olives', 'src': '/static/foodstim60/olives.jpg', 'key': 'u', 'origWidth': 410, 'origHeight': 410, 'width': 410, 'height': 410, 'widthPercent': 0.45, 'rescaleHeight': False, 'trialN': 102, 'loaded': True, 'loadedTime': 4249.899999976158, 'positionName': 'LEFT', 'positionCoords': [245.68, 179], 'bid': 4.16}, {'imgObject': {}, 'id': 'shreddedwheatwithmilk', 'src': '/static/foodstim60/shreddedwheatwithmilk.jpg', 'key': 'i', 'origWidth': 410, 'origHeight': 410, 'width': 410, 'height': 410, 'widthPercent': 0.45, 'rescaleHeight': False, 'trialN': 102, 'loaded': True, 'loadedTime': 4495.700000047684, 'positionName': 'RIGHT', 'positionCoords': [710.32, 179], 'bid': 4.18}]",202680.39999997616,1669832927315,olives,shreddedwheatwithmilk,4.16,4.18,0.019999999999999574,shreddedwheatwithmilk,960.3000000715256,961,960.6000000238419,True,i,204143.20000004768,1462.8000000715256,1669832928778,1463,HRV,HRV_0183,2022-11-30 18:31:08
103,"[{'imgObject': {}, 'id': 'lox', 'src': '/static/foodstim60/lox.jpg', 'key': 'u', 'origWidth': 410, 'origHeight': 411, 'width': 410, 'height': 411, 'widthPercent': 0.45, 'rescaleHeight': False, 'trialN': 103, 'loaded': True, 'loadedTime': 4466.5, 'positionName': 'LEFT', 'positionCoords': [245.68, 178.5], 'bid': 2.51}, {'imgObject': {}, 'id': 'bagel and cc', 'src': '/static/foodstim60/bagel and cc.jpg', 'key': 'i', 'origWidth': 410, 'origHeight': 410, 'width': 410, 'height': 410, 'widthPercent': 0.45, 'rescaleHeight': False, 'trialN': 103, 'loaded': True, 'loadedTime': 4456.200000047684, 'positionName': 'RIGHT', 'positionCoords': [710.32, 179], 'bid': 1.57}]",204143.5,1669832928778,lox,bagel and cc,2.51,1.57,-0.9399999999999997,bagel and cc,1333.7000000476837,1334,1334.1000000238419,True,i,205995.0,1851.5,1669832930630,1852,HRV,HRV_0183,2022-11-30 18:31:08
104,"[{'imgObject': {}, 'id': 'hashbrowns', 'src': '/static/foodstim60/hashbrowns.jpg', 'key': 'u', 'origWidth': 411, 'origHeight': 410, 'width': 411, 'height': 410, 'widthPercent': 0.45, 'rescaleHeight': False, 'trialN': 104, 'loaded': True, 'loadedTime': 4432.5, 'positionName': 'LEFT', 'positionCoords': [244.68, 179], 'bid': 4.01}, {'imgObject': {}, 'id': 'hotdog w must', 'src': '/static/foodstim60/hotdog w must.jpg', 'key': 'i', 'origWidth': 409, 'origHeight': 409, 'width': 409, 'height': 409, 'widthPercent': 0.45, 'rescaleHeight': False, 'trialN': 104, 'loaded': True, 'loadedTime': 4480.100000023842, 'positionName': 'RIGHT', 'positionCoords': [710.32, 179.5], 'bid': 3.38}]",205995.30000007153,1669832930630,hashbrowns,hotdog w must,4.01,3.38,-0.6299999999999999,hotdog w must,1666.3999999761581,1667,1666.7999999523163,True,i,208170.80000007153,2175.5,1669832932806,2176,HRV,HRV_0183,2022-11-30 18:31:08
105,"[{'imgObject': {}, 'id': 'chickenfingers', 'src': '/static/foodstim60/chickenfingers.jpg', 'key': 'u', 'origWidth': 410, 'origHeight': 410, 'width': 410, 'height': 410, 'widthPercent': 0.45, 'rescaleHeight': False, 'trialN': 105, 'loaded': True, 'loadedTime': 4470.600000023842, 'positionName': 'LEFT', 'positionCoords': [245.68, 179], 'bid': 4.07}, {'imgObject': {}, 'id': 'rigatoni', 'src': '/static/foodstim60/rigatoni.jpg', 'key': 'i', 'origWidth': 411, 'origHeight': 411, 'width': 411, 'height': 411, 'widthPercent': 0.45, 'rescaleHeight': False, 'trialN': 105, 'loaded': True, 'loadedTime': 4222.399999976158, 'positionName': 'RIGHT', 'positionCoords': [710.32, 178.5], 'bid': 1.66}]",208171.0,1669832932806,chickenfingers,rigatoni,4.07,1.66,-2.41,chickenfingers,907.2000000476837,908,907.6000000238419,True,u,209582.39999997616,1411.3999999761581,1669832934218,1412,HRV,HRV_0183,2022-11-30 18:31:08
106,"[{'imgObject': {}, 'id': 'popsicles', 'src': '/static/foodstim60/popsicles.jpg', 'key': 'u', 'origWidth': 410, 'origHeight': 410, 'width': 410, 'height': 410, 'widthPercent': 0.45, 'rescaleHeight': False, 'trialN': 106, 'loaded': True, 'loadedTime': 4888.100000023842, 'positionName': 'LEFT', 'positionCoords': [245.68, 179], 'bid': 5.13}, {'imgObject': {}, 'id': 'hashbrowns', 'src': '/static/foodstim60/hashbrowns.jpg', 'key': 'i', 'origWidth': 411, 'origHeight': 410, 'width': 411, 'height': 410, 'widthPercent': 0.45, 'rescaleHeight': False, 'trialN': 106, 'loaded': True, 'loadedTime': 4424.899999976158, 'positionName': 'RIGHT', 'positionCoords': [710.32, 179], 'bid': 4.01}]",209582.60000002384,1669832934218,popsicles,hashbrowns,5.13,4.01,-1.12,hashbrowns,1043.8999999761581,1044,1044.1000000238419,True,i,211144.39999997616,1561.7999999523163,1669832935780,1562,HRV,HRV_0183,2022-11-30 18:31:08
107,"[{'imgObject': {}, 'id': 'mango', 'src': '/static/foodstim60/mango.jpg', 'key': 'u', 'origWidth': 411, 'origHeight': 411, 'width': 411, 'height': 411, 'widthPercent': 0.45, 'rescaleHeight': False, 'trialN': 107, 'loaded': True, 'loadedTime': 4328.899999976158, 'positionName': 'LEFT', 'positionCoords': [244.68, 178.5], 'bid': 0}, {'imgObject': {}, 'id': 'eggs', 'src': '/static/foodstim60/eggs.jpg', 'key': 'i', 'origWidth': 409, 'origHeight': 409, 'width': 409, 'height': 409, 'widthPercent': 0.45, 'rescaleHeight': False, 'trialN': 107, 'loaded': True, 'loadedTime': 4390.800000071526, 'positionName': 'RIGHT', 'positionCoords': [710.32, 179.5], 'bid': 0.3}]",211144.60000002384,1669832935780,mango,eggs,0.0,0.3,0.3,mango,1430.7000000476837,1431,1431.0,True,u,213080.30000007153,1935.7000000476837,1669832937716,1936,HRV,HRV_0183,2022-11-30 18:31:08
108,"[{'imgObject': {}, 'id': 'eggs', 'src': '/static/foodstim60/eggs.jpg', 'key': 'u', 'origWidth': 409, 'origHeight': 409, 'width': 409, 'height': 409, 'widthPercent': 0.45, 'rescaleHeight': False, 'trialN': 108, 'loaded': True, 'loadedTime': 4391, 'positionName': 'LEFT', 'positionCoords': [246.68, 179.5], 'bid': 0.3}, {'imgObject': {}, 'id': 'edamame', 'src': '/static/foodstim60/edamame.jpg', 'key': 'i', 'origWidth': 409, 'origHeight': 410, 'width': 409, 'height': 410, 'widthPercent': 0.45, 'rescaleHeight': False, 'trialN': 108, 'loaded': True, 'loadedTime': 4434.100000023842, 'positionName': 'RIGHT', 'positionCoords': [710.32, 179], 'bid': 1.57}]",213080.39999997616,1669832937716,eggs,edamame,0.3,1.57,1.27,edamame,1569.1000000238419,1569,1569.4000000953674,True,i,215172.60000002384,2092.2000000476837,1669832939808,2092,HRV,HRV_0183,2022-11-30 18:31:08
