success,trial_type,trial_index,time_elapsed,internal_node_id,Block,TrialNumber,TrialTime,trialTimeDiff,FPS_avg,FPS_med,FPS_mode,TrialDur,winResizeTime,rt,block,button_pressed,MotCoh,MotDir,ColCoh,Color,ChoiceKey,Choice,Accuracy,RT,nFrames,FPS,PPD,missTrial,missTrialMsg,onsetDelay,fullScreenExitTime,canvCenter,TrialType,Score,BlockTrial,stimulus,button_labels,exp,subjectId,date
True,fullscreen,0,3046,0.0-0.0,0.0,1.0,,,,,,,,,,,,,,,,,,,,,,,,,,,,,,,,HRV,HRV_0183,2022-11-30 18:41:37
,wl-check-fps,1,8064,0.0-1.0,0.0,2.0,"[3529.1, 3545.1, 3561.9, 3578.6, 3595.3, 3611.9, 3628.6, 3645.2, 3661.9, 3678.6, 3695.3, 3711.9, 3728.6, 3745.3, 3762, 3778.6, 3795.3, 3811.9, 3828.5, 3845.3, 3862, 3878.6, 3895.3, 3912.1, 3928.7, 3945.3, 3962.1, 3978.7, 3995.4, 4012, 4028.6, 4045.3, 4062, 4078.7, 4095.4, 4111.9, 4128.5, 4145.2, 4161.9, 4178.5, 4195.3, 4212, 4228.6, 4245.3, 4262, 4278.6, 4295.2, 4311.8, 4328.6, 4345.2, 4362, 4378.6, 4395.3, 4412, 4428.7, 4445.3, 4461.9, 4478.6, 4495.4, 4511.9, 4528.7, 4545.4, 4561.9, 4578.6, 4595.2, 4611.9, 4628.6, 4645.4, 4662, 4678.6, 4695.4, 4711.8, 4728.7, 4745.3, 4762, 4778.6, 4795.4, 4812.1, 4828.7, 4845.4, 4861.9, 4878.7, 4895.4, 4912.2, 4928.7, 4945.4, 4962, 4978.8, 4995.2, 5011.9, 5028.6, 5045.3, 5062, 5078.5, 5095.1, 5112, 5128.6, 5145.3, 5162, 5178.5, 5195.4, 5212, 5228.7, 5245.3, 5262, 5278.6, 5295.3, 5312, 5328.8, 5345.3, 5361.9, 5378.7, 5395.4, 5412, 5428.7, 5445.4, 5462, 5478.8, 5495.4, 5512, 5528.7, 5545.3, 5562, 5578.7, 5595.4, 5612, 5628.8, 5645.4, 5662.1, 5678.7, 5695.3, 5712, 5728.7, 5745.3, 5762, 5778.7, 5795.4, 5812, 5828.6, 5845.4, 5862, 5878.6, 5895.3, 5911.9, 5928.7, 5945.3, 5961.9, 5978.7, 5995.3, 6012, 6028.6, 6045.3, 6062, 6078.6, 6095.4, 6112.1, 6128.6, 6145.3, 6162, 6178.6, 6195.3, 6212, 6228.6, 6245.3, 6261.9, 6278.6, 6295.4, 6312, 6328.7, 6345.4, 6362.1, 6378.7, 6395.4, 6412, 6428.6, 6445.4, 6462, 6478.7, 6495.3, 6512.1, 6528.7, 6545.4, 6562, 6578.7, 6595.4, 6612.1, 6628.7, 6645.3, 6662.1, 6678.7, 6695.4, 6711.9, 6728.7, 6745.4, 6761.9, 6778.8, 6795.4, 6812, 6828.8, 6845.5, 6862.1, 6878.7, 6895.4, 6912.1, 6928.8, 6945.4, 6962.1, 6978.6, 6995.4, 7011.9, 7028.8, 7045.4, 7062, 7078.6, 7095.4, 7112.1, 7128.9, 7145.5, 7162, 7178.7, 7195.4, 7212.1, 7228.7, 7245.4, 7262.1, 7278.7, 7295.4, 7312.1, 7328.8, 7345.4, 7362.1, 7378.7, 7395.4, 7412, 7428.8, 7445.3, 7462.1, 7478.7, 7495.5, 7512.1, 7528.8, 7545.5, 7562.1, 7578.8, 7595.3, 7612.1, 7628.7, 7645.4, 7662, 7678.8, 7695.5, 7712, 7728.8, 7745.5, 7762, 7778.8, 7795.4, 7812, 7828.8, 7845.3, 7862, 7878.7, 7895.4, 7912.1, 7928.8, 7945.4, 7962.1, 7978.8, 7995.4, 8012.2, 8028.7, 8045.4, 8062, 8078.8, 8095.4, 8112.1, 8128.8, 8145.4, 8162, 8178.7, 8195.3, 8212.1, 8228.8, 8245.3, 8262.2, 8278.8, 8295.5, 8312.1, 8328.8, 8345.4, 8362.2, 8378.8, 8395.4, 8412.1, 8428.8, 8445.5, 8462.2, 8478.8, 8495.5, 8512.2]","[15, 16, 16.8, 16.7, 16.7, 16.6, 16.7, 16.6, 16.7, 16.7, 16.7, 16.6, 16.7, 16.7, 16.7, 16.6, 16.7, 16.6, 16.6, 16.8, 16.7, 16.6, 16.7, 16.8, 16.6, 16.6, 16.8, 16.6, 16.7, 16.6, 16.6, 16.7, 16.7, 16.7, 16.7, 16.5, 16.6, 16.7, 16.7, 16.6, 16.8, 16.7, 16.6, 16.7, 16.7, 16.6, 16.6, 16.6, 16.8, 16.6, 16.8, 16.6, 16.7, 16.7, 16.7, 16.6, 16.6, 16.7, 16.8, 16.5, 16.8, 16.7, 16.5, 16.7, 16.6, 16.7, 16.7, 16.8, 16.6, 16.6, 16.8, 16.4, 16.9, 16.6, 16.7, 16.6, 16.8, 16.7, 16.6, 16.7, 16.5, 16.8, 16.7, 16.8, 16.5, 16.7, 16.6, 16.8, 16.4, 16.7, 16.7, 16.7, 16.7, 16.5, 16.6, 16.9, 16.6, 16.7, 16.7, 16.5, 16.9, 16.6, 16.7, 16.6, 16.7, 16.6, 16.7, 16.7, 16.8, 16.5, 16.6, 16.8, 16.7, 16.6, 16.7, 16.7, 16.6, 16.8, 16.6, 16.6, 16.7, 16.6, 16.7, 16.7, 16.7, 16.6, 16.8, 16.6, 16.7, 16.6, 16.6, 16.7, 16.7, 16.6, 16.7, 16.7, 16.7, 16.6, 16.6, 16.8, 16.6, 16.6, 16.7, 16.6, 16.8, 16.6, 16.6, 16.8, 16.6, 16.7, 16.6, 16.7, 16.7, 16.6, 16.8, 16.7, 16.5, 16.7, 16.7, 16.6, 16.7, 16.7, 16.6, 16.7, 16.6, 16.7, 16.8, 16.6, 16.7, 16.7, 16.7, 16.6, 16.7, 16.6, 16.6, 16.8, 16.6, 16.7, 16.6, 16.8, 16.6, 16.7, 16.6, 16.7, 16.7, 16.7, 16.6, 16.6, 16.8, 16.6, 16.7, 16.5, 16.8, 16.7, 16.5, 16.9, 16.6, 16.6, 16.8, 16.7, 16.6, 16.6, 16.7, 16.7, 16.7, 16.6, 16.7, 16.5, 16.8, 16.5, 16.9, 16.6, 16.6, 16.6, 16.8, 16.7, 16.8, 16.6, 16.5, 16.7, 16.7, 16.7, 16.6, 16.7, 16.7, 16.6, 16.7, 16.7, 16.7, 16.6, 16.7, 16.6, 16.7, 16.6, 16.8, 16.5, 16.8, 16.6, 16.8, 16.6, 16.7, 16.7, 16.6, 16.7, 16.5, 16.8, 16.6, 16.7, 16.6, 16.8, 16.7, 16.5, 16.8, 16.7, 16.5, 16.8, 16.6, 16.6, 16.8, 16.5, 16.7, 16.7, 16.7, 16.7, 16.7, 16.6, 16.7, 16.7, 16.6, 16.8, 16.5, 16.7, 16.6, 16.8, 16.6, 16.7, 16.7, 16.6, 16.6, 16.7, 16.6, 16.8, 16.7, 16.5, 16.9, 16.6, 16.7, 16.6, 16.7, 16.6, 16.8, 16.6, 16.6, 16.7, 16.7, 16.7, 16.7, 16.6, 16.7, 16.7]",60.0,60.0,60.0,5014.7,[],,,,,,,,,,,,,,,,,,,,,,,,,HRV,HRV_0183,2022-11-30 18:41:37
,wl-html-keyboard-response,2,30632,0.0-2.0-0.0,0.0,3.0,,,,,,,,20563.700000047684,0.0,0,,,,,,,,,,,,,,,,,,,,,,HRV,HRV_0183,2022-11-30 18:41:37
,wl-rdm,3,37581,0.0-3.0-0.0,0.0,4.0,,,,,,,[],,,,0.0,0.0,87.9,0.0,u,0.0,True,1383.7000000476837,83.0,60.0,40.0,False,,3000.0,[],"[683, 384]",ColorTask_Demo,,,,,HRV,HRV_0183,2022-11-30 18:41:37
,wl-rdm,4,42388,0.0-3.0-1.0,0.0,5.0,,,,,,,[],,,,0.0,0.0,87.9,1.0,i,1.0,True,748.8999999761581,45.0,60.0,40.0,False,,2000.0,[],"[683, 384]",ColorTask_Demo,,,,,HRV,HRV_0183,2022-11-30 18:41:37
,wl-html-keyboard-response,5,51144,0.0-3.0-2.0,0.0,6.0,,,,,,,,6748.100000023842,0.0,1,,,,,,,,,,,,,,,,,,,,,,HRV,HRV_0183,2022-11-30 18:41:37
,wl-html-keyboard-response,6,67412,0.0-4.0-0.0,0.0,7.0,,,,,,,,14246.200000047684,0.0,0,,,,,,,,,,,,,,,,,,,,,,HRV,HRV_0183,2022-11-30 18:41:37
,wl-html-keyboard-response,7,85296,0.0-5.0-0.0,0.0,8.0,,,,,,,,15879.299999952316,0.0,0,,,,,,,,,,,,,,,,,,,,,,HRV,HRV_0183,2022-11-30 18:41:37
,wl-rdm,8,87490,0.0-6.0-0.0,0.0,9.0,,,,,,,[],,,,,,87.9,1.0,i,1.0,True,808.5999999046326,49.0,60.0,40.0,False,,321.1295112295267,[],"[683, 384]",ColorTask,1.0,1.0,,,HRV,HRV_0183,2022-11-30 18:41:37
,wl-rdm,9,89740,0.0-6.1-0.1,0.0,10.0,,,,,,,[],,,,,,56.4,1.0,i,1.0,True,948.1999999284744,57.0,60.0,40.0,False,,218.40588901230544,[],"[683, 384]",ColorTask,2.0,2.0,,,HRV,HRV_0183,2022-11-30 18:41:37
,wl-rdm,10,91657,0.0-6.2-0.2,0.0,11.0,,,,,,,[],,,,,,87.9,1.0,i,1.0,True,632.9000000953674,38.0,60.0,40.0,False,,221.37003350015095,[],"[683, 384]",ColorTask,3.0,3.0,,,HRV,HRV_0183,2022-11-30 18:41:37
,wl-rdm,11,93540,0.0-6.3-0.3,0.0,12.0,,,,,,,[],,,,,,87.9,0.0,u,0.0,True,506.3000000715256,31.0,60.0,40.0,False,,315.82624901674745,[],"[683, 384]",ColorTask,4.0,4.0,,,HRV,HRV_0183,2022-11-30 18:41:37
,wl-rdm,12,95557,0.0-6.4-0.4,0.0,13.0,,,,,,,[],,,,,,87.9,0.0,u,0.0,True,564.5,34.0,60.0,40.0,False,,384.90811770925245,[],"[683, 384]",ColorTask,5.0,5.0,,,HRV,HRV_0183,2022-11-30 18:41:37
,wl-rdm,13,97774,0.0-6.5-0.5,0.0,14.0,,,,,,,[],,,,,,50.0,0.0,i,1.0,False,860.5,52.0,60.0,40.0,False,,296.9193432804172,[],"[683, 384]",ColorTask,4.0,6.0,,,HRV,HRV_0183,2022-11-30 18:41:37
,wl-rdm,14,100407,0.0-6.6-0.6,0.0,15.0,,,,,,,[],,,,,,53.2,0.0,i,1.0,False,1293.6000000238419,78.0,60.0,40.0,False,,263.0230657098753,[],"[683, 384]",ColorTask,3.0,7.0,,,HRV,HRV_0183,2022-11-30 18:41:37
,wl-rdm,15,102840,0.0-6.7-0.7,0.0,16.0,,,,,,,[],,,,,,62.5,1.0,i,1.0,True,1076.1000000238419,65.0,60.0,40.0,False,,289.0517335135776,[],"[683, 384]",ColorTask,4.0,8.0,,,HRV,HRV_0183,2022-11-30 18:41:37
,wl-rdm,16,105490,0.0-6.8-0.8,0.0,17.0,,,,,,,[],,,,,,56.4,1.0,i,1.0,True,1207.6999999284744,73.0,60.0,40.0,False,,365.5821733063218,[],"[683, 384]",ColorTask,5.0,9.0,,,HRV,HRV_0183,2022-11-30 18:41:37
,wl-rdm,17,108157,0.0-6.9-0.9,0.0,18.0,,,,,,,[],,,,,,56.4,1.0,u,0.0,False,1372.7000000476837,83.0,60.0,40.0,False,,218.8874569223265,[],"[683, 384]",ColorTask,4.0,10.0,,,HRV,HRV_0183,2022-11-30 18:41:37
,wl-rdm,18,110741,0.0-6.10-0.10,0.0,19.0,,,,,,,[],,,,,,50.0,0.0,i,1.0,False,1239.3999999761581,75.0,60.0,40.0,False,,254.36115145262715,[],"[683, 384]",ColorTask,3.0,11.0,,,HRV,HRV_0183,2022-11-30 18:41:37
,wl-rdm,19,112957,0.0-6.11-0.11,0.0,20.0,,,,,,,[],,,,,,62.5,0.0,u,0.0,True,892.5,54.0,60.0,40.0,False,,256.6592465592132,[],"[683, 384]",ColorTask,4.0,12.0,,,HRV,HRV_0183,2022-11-30 18:41:37
,wl-rdm,20,114941,0.0-6.12-0.12,0.0,21.0,,,,,,,[],,,,,,87.9,0.0,u,0.0,True,589.2000000476837,36.0,60.0,40.0,False,,313.02531729459986,[],"[683, 384]",ColorTask,5.0,13.0,,,HRV,HRV_0183,2022-11-30 18:41:37
,wl-rdm,21,116907,0.0-6.13-0.13,0.0,22.0,,,,,,,[],,,,,,56.4,0.0,u,0.0,True,689.4000000953674,42.0,60.0,40.0,False,,212.13585506446887,[],"[683, 384]",ColorTask,6.0,14.0,,,HRV,HRV_0183,2022-11-30 18:41:37
,wl-rdm,22,119424,0.0-6.14-0.14,0.0,23.0,,,,,,,[],,,,,,50.0,0.0,i,1.0,False,1136.3999999761581,69.0,60.0,40.0,False,,300.09076088565075,[],"[683, 384]",ColorTask,5.0,15.0,,,HRV,HRV_0183,2022-11-30 18:41:37
,wl-rdm,23,121541,0.0-6.15-0.15,0.0,24.0,,,,,,,[],,,,,,87.9,0.0,u,0.0,True,711.0,43.0,60.0,40.0,False,,319.5729484649943,[],"[683, 384]",ColorTask,6.0,16.0,,,HRV,HRV_0183,2022-11-30 18:41:37
,wl-rdm,24,123941,0.0-6.16-0.16,0.0,25.0,,,,,,,[],,,,,,56.4,1.0,i,1.0,True,1084.6999998092651,66.0,60.0,40.0,False,,232.74036609833746,[],"[683, 384]",ColorTask,7.0,17.0,,,HRV,HRV_0183,2022-11-30 18:41:37
,wl-rdm,25,126624,0.0-6.17-0.17,0.0,26.0,,,,,,,[],,,,,,56.4,0.0,u,0.0,True,1372.5,83.0,60.0,40.0,False,,221.57742588481017,[],"[683, 384]",ColorTask,8.0,18.0,,,HRV,HRV_0183,2022-11-30 18:41:37
,wl-rdm,26,129441,0.0-6.18-0.18,0.0,27.0,,,,,,,[],,,,,,56.4,1.0,u,0.0,False,1407.6000000238419,85.0,60.0,40.0,False,,329.98563575584296,[],"[683, 384]",ColorTask,7.0,19.0,,,HRV,HRV_0183,2022-11-30 18:41:37
,wl-rdm,27,131475,0.0-6.19-0.19,0.0,28.0,,,,,,,[],,,,,,73.6,1.0,i,1.0,True,719.7000000476837,44.0,60.0,40.0,False,,219.17933640103638,[],"[683, 384]",ColorTask,8.0,20.0,,,HRV,HRV_0183,2022-11-30 18:41:37
,wl-rdm,28,133742,0.0-6.20-0.20,0.0,29.0,,,,,,,[],,,,,,50.0,0.0,u,0.0,True,997.8000000715256,60.0,60.0,40.0,False,,201.58290871592865,[],"[683, 384]",ColorTask,9.0,21.0,,,HRV,HRV_0183,2022-11-30 18:41:37
,wl-rdm,29,135825,0.0-6.21-0.21,0.0,30.0,,,,,,,[],,,,,,62.5,1.0,i,1.0,True,617.5,38.0,60.0,40.0,False,,394.0651234807416,[],"[683, 384]",ColorTask,10.0,22.0,,,HRV,HRV_0183,2022-11-30 18:41:37
,wl-rdm,30,137975,0.0-6.22-0.22,0.0,31.0,,,,,,,[],,,,,,62.5,0.0,u,0.0,True,828.3000000715256,50.0,60.0,40.0,False,,248.2649158355289,[],"[683, 384]",ColorTask,11.0,23.0,,,HRV,HRV_0183,2022-11-30 18:41:37
,wl-rdm,31,139992,0.0-6.23-0.23,0.0,32.0,,,,,,,[],,,,,,62.5,1.0,i,1.0,True,653.6000000238419,40.0,60.0,40.0,False,,269.16665153726376,[],"[683, 384]",ColorTask,12.0,24.0,,,HRV,HRV_0183,2022-11-30 18:41:37
,wl-rdm,32,142025,0.0-6.24-0.24,0.0,33.0,,,,,,,[],,,,,,87.9,1.0,i,1.0,True,647.1000000238419,39.0,60.0,40.0,False,,313.72084329896234,[],"[683, 384]",ColorTask,13.0,25.0,,,HRV,HRV_0183,2022-11-30 18:41:37
,wl-rdm,33,144059,0.0-6.25-0.25,0.0,34.0,,,,,,,[],,,,,,73.6,1.0,i,1.0,True,592.5,36.0,60.0,40.0,False,,359.81630575323277,[],"[683, 384]",ColorTask,14.0,26.0,,,HRV,HRV_0183,2022-11-30 18:41:37
,wl-rdm,34,146025,0.0-6.26-0.26,0.0,35.0,,,,,,,[],,,,,,73.6,0.0,u,0.0,True,680.7000000476837,41.0,60.0,40.0,False,,223.44171257835416,[],"[683, 384]",ColorTask,15.0,27.0,,,HRV,HRV_0183,2022-11-30 18:41:37
,wl-rdm,35,148159,0.0-6.27-0.27,0.0,36.0,,,,,,,[],,,,,,62.5,1.0,i,1.0,True,855.1000000238419,52.0,60.0,40.0,False,,213.18753746487792,[],"[683, 384]",ColorTask,16.0,28.0,,,HRV,HRV_0183,2022-11-30 18:41:37
,wl-rdm,36,150042,0.0-6.28-0.28,0.0,37.0,,,,,,,[],,,,,,73.6,0.0,u,0.0,True,564.6000000238419,34.0,60.0,40.0,False,,253.6073604603471,[],"[683, 384]",ColorTask,17.0,29.0,,,HRV,HRV_0183,2022-11-30 18:41:37
,wl-rdm,37,152559,0.0-6.29-0.29,0.0,38.0,,,,,,,[],,,,,,62.5,0.0,u,0.0,True,1216.2000000476837,73.0,60.0,40.0,False,,236.77981265133604,[],"[683, 384]",ColorTask,18.0,30.0,,,HRV,HRV_0183,2022-11-30 18:41:37
,wl-rdm,38,155043,0.0-6.30-0.30,0.0,39.0,,,,,,,[],,,,,,56.4,0.0,u,0.0,True,1207.1999999284744,73.0,60.0,40.0,False,,208.26186848150851,[],"[683, 384]",ColorTask,19.0,31.0,,,HRV,HRV_0183,2022-11-30 18:41:37
,wl-rdm,39,157476,0.0-6.31-0.31,0.0,40.0,,,,,,,[],,,,,,53.2,0.0,u,0.0,True,1115.9999998807907,67.0,60.0,40.0,False,,234.91115472632038,[],"[683, 384]",ColorTask,20.0,32.0,,,HRV,HRV_0183,2022-11-30 18:41:37
,wl-rdm,40,159860,0.0-6.32-0.32,0.0,41.0,,,,,,,[],,,,,,53.2,0.0,u,0.0,True,1081.1000000238419,65.0,60.0,40.0,False,,219.35573611064444,[],"[683, 384]",ColorTask,21.0,33.0,,,HRV,HRV_0183,2022-11-30 18:41:37
,wl-rdm,41,162227,0.0-6.33-0.33,0.0,42.0,,,,,,,[],,,,,,53.2,0.0,u,0.0,True,984.9999998807907,60.0,60.0,40.0,False,,283.5475725900566,[],"[683, 384]",ColorTask,22.0,34.0,,,HRV,HRV_0183,2022-11-30 18:41:37
,wl-rdm,42,164393,0.0-6.34-0.34,0.0,43.0,,,,,,,[],,,,,,73.6,1.0,i,1.0,True,858.7000000476837,52.0,60.0,40.0,False,,224.42790488790948,[],"[683, 384]",ColorTask,23.0,35.0,,,HRV,HRV_0183,2022-11-30 18:41:37
,wl-rdm,43,167077,0.0-6.35-0.35,0.0,44.0,,,,,,,[],,,,,,56.4,0.0,u,0.0,True,1301.4000000953674,79.0,60.0,40.0,False,,301.3709446831084,[],"[683, 384]",ColorTask,24.0,36.0,,,HRV,HRV_0183,2022-11-30 18:41:37
,wl-rdm,44,169077,0.0-6.36-0.36,0.0,45.0,,,,,,,[],,,,,,87.9,1.0,i,1.0,True,665.6000000238419,40.0,60.0,40.0,False,,262.3316912357203,[],"[683, 384]",ColorTask,25.0,37.0,,,HRV,HRV_0183,2022-11-30 18:41:37
,wl-rdm,45,171360,0.0-6.37-0.37,0.0,46.0,,,,,,,[],,,,,,56.4,1.0,i,1.0,True,811.5,49.0,60.0,40.0,False,,392.5885931257088,[],"[683, 384]",ColorTask,26.0,38.0,,,HRV,HRV_0183,2022-11-30 18:41:37
,wl-rdm,46,173777,0.0-6.38-0.38,0.0,47.0,,,,,,,[],,,,,,53.2,1.0,i,1.0,True,1067.6000000238419,65.0,60.0,40.0,False,,272.9692258153121,[],"[683, 384]",ColorTask,27.0,39.0,,,HRV,HRV_0183,2022-11-30 18:41:37
,wl-rdm,47,176227,0.0-6.39-0.39,0.0,48.0,,,,,,,[],,,,,,73.6,1.0,i,1.0,True,1087.8000000715256,66.0,60.0,40.0,False,,289.5672099116032,[],"[683, 384]",ColorTask,28.0,40.0,,,HRV,HRV_0183,2022-11-30 18:41:37
,wl-rdm,48,178977,0.0-6.40-0.40,0.0,49.0,,,,,,,[],,,,,,53.2,1.0,i,1.0,True,1330.0,80.0,60.0,40.0,False,,335.763693379129,[],"[683, 384]",ColorTask,29.0,41.0,,,HRV,HRV_0183,2022-11-30 18:41:37
,wl-rdm,49,181278,0.0-6.41-0.41,0.0,50.0,,,,,,,[],,,,,,53.2,1.0,i,1.0,True,1014.0,61.0,60.0,40.0,False,,203.06952026378093,[],"[683, 384]",ColorTask,30.0,42.0,,,HRV,HRV_0183,2022-11-30 18:41:37
,wl-rdm,50,183494,0.0-6.42-0.42,0.0,51.0,,,,,,,[],,,,,,87.9,0.0,u,0.0,True,821.3000000715256,50.0,60.0,40.0,False,,325.8999387539675,[],"[683, 384]",ColorTask,31.0,43.0,,,HRV,HRV_0183,2022-11-30 18:41:37
,wl-rdm,51,185511,0.0-6.43-0.43,0.0,52.0,,,,,,,[],,,,,,87.9,0.0,u,0.0,True,730.5,44.0,60.0,40.0,False,,206.17795160691975,[],"[683, 384]",ColorTask,32.0,44.0,,,HRV,HRV_0183,2022-11-30 18:41:37
,wl-rdm,52,187861,0.0-6.44-0.44,0.0,53.0,,,,,,,[],,,,,,53.2,1.0,i,1.0,True,1026.0,62.0,60.0,40.0,False,,243.87767966574728,[],"[683, 384]",ColorTask,33.0,45.0,,,HRV,HRV_0183,2022-11-30 18:41:37
,wl-rdm,53,190328,0.0-6.45-0.45,0.0,54.0,,,,,,,[],,,,,,62.5,0.0,u,0.0,True,1103.2999999523163,67.0,60.0,40.0,False,,273.35000880363054,[],"[683, 384]",ColorTask,34.0,46.0,,,HRV,HRV_0183,2022-11-30 18:41:37
,wl-rdm,54,192545,0.0-6.46-0.46,0.0,55.0,,,,,,,[],,,,,,62.5,1.0,i,1.0,True,910.8999999761581,55.0,60.0,40.0,False,,233.12155212386233,[],"[683, 384]",ColorTask,35.0,47.0,,,HRV,HRV_0183,2022-11-30 18:41:37
,wl-rdm,55,194761,0.0-6.47-0.47,0.0,56.0,,,,,,,[],,,,,,50.0,1.0,u,0.0,False,886.0,54.0,60.0,40.0,False,,253.03330024663563,[],"[683, 384]",ColorTask,34.0,48.0,,,HRV,HRV_0183,2022-11-30 18:41:37
,wl-rdm,56,196978,0.0-6.48-0.48,0.0,57.0,,,,,,,[],,,,,,62.5,0.0,u,0.0,True,852.1000000238419,52.0,60.0,40.0,False,,274.73124919853217,[],"[683, 384]",ColorTask,35.0,49.0,,,HRV,HRV_0183,2022-11-30 18:41:37
,wl-rdm,57,199045,0.0-6.49-0.49,0.0,58.0,,,,,,,[],,,,,,50.0,1.0,u,0.0,False,762.8999998569489,46.0,60.0,40.0,False,,242.71147499729219,[],"[683, 384]",ColorTask,34.0,50.0,,,HRV,HRV_0183,2022-11-30 18:41:37
,wl-rdm,58,201562,0.0-6.50-0.50,0.0,59.0,,,,,,,[],,,,,,56.4,1.0,i,1.0,True,1197.0,72.0,60.0,40.0,False,,236.92455751063994,[],"[683, 384]",ColorTask,35.0,51.0,,,HRV,HRV_0183,2022-11-30 18:41:37
,wl-rdm,59,203629,0.0-6.51-0.51,0.0,60.0,,,,,,,[],,,,,,73.6,1.0,i,1.0,True,609.1000000238419,37.0,60.0,40.0,False,,399.2140084779551,[],"[683, 384]",ColorTask,36.0,52.0,,,HRV,HRV_0183,2022-11-30 18:41:37
,wl-rdm,60,205645,0.0-6.52-0.52,0.0,61.0,,,,,,,[],,,,,,87.9,1.0,i,1.0,True,596.1000000238419,36.0,60.0,40.0,False,,341.3633968151059,[],"[683, 384]",ColorTask,37.0,53.0,,,HRV,HRV_0183,2022-11-30 18:41:37
,wl-rdm,61,207879,0.0-6.53-0.53,0.0,62.0,,,,,,,[],,,,,,73.6,0.0,u,0.0,True,870.1000000238419,53.0,60.0,40.0,False,,285.5614948251399,[],"[683, 384]",ColorTask,38.0,54.0,,,HRV,HRV_0183,2022-11-30 18:41:37
,wl-rdm,62,209762,0.0-6.54-0.54,0.0,63.0,,,,,,,[],,,,,,87.9,1.0,i,1.0,True,574.5,35.0,60.0,40.0,False,,246.7066703861963,[],"[683, 384]",ColorTask,39.0,55.0,,,HRV,HRV_0183,2022-11-30 18:41:37
,wl-rdm,63,212179,0.0-6.55-0.55,0.0,64.0,,,,,,,[],,,,,,73.6,0.0,u,0.0,True,1124.9000000953674,68.0,60.0,40.0,False,,200.65837899177288,[],"[683, 384]",ColorTask,40.0,56.0,,,HRV,HRV_0183,2022-11-30 18:41:37
,wl-rdm,64,214162,0.0-6.56-0.56,0.0,65.0,,,,,,,[],,,,,,73.6,1.0,i,1.0,True,619.6999999284744,38.0,60.0,40.0,False,,281.4122972534245,[],"[683, 384]",ColorTask,41.0,57.0,,,HRV,HRV_0183,2022-11-30 18:41:37
,wl-rdm,65,215962,0.0-6.57-0.57,0.0,66.0,,,,,,,[],,,,,,62.5,1.0,i,1.0,True,531.7000000476837,32.0,60.0,40.0,False,,212.8883918412326,[],"[683, 384]",ColorTask,42.0,58.0,,,HRV,HRV_0183,2022-11-30 18:41:37
,wl-rdm,66,218313,0.0-6.58-0.58,0.0,67.0,,,,,,,[],,,,,,50.0,0.0,i,1.0,False,902.5,55.0,60.0,40.0,False,,379.22770887691973,[],"[683, 384]",ColorTask,41.0,59.0,,,HRV,HRV_0183,2022-11-30 18:41:37
,wl-rdm,67,220645,0.0-6.59-0.59,0.0,68.0,,,,,,,[],,,,,,62.5,1.0,u,0.0,False,1007.8000000715256,61.0,60.0,40.0,False,,252.7443903179438,[],"[683, 384]",ColorTask,40.0,60.0,,,HRV,HRV_0183,2022-11-30 18:41:37
,wl-rdm,68,223446,0.0-6.60-0.60,0.0,69.0,,,,,,,[],,,,,,50.0,0.0,i,1.0,False,1445.8999999761581,87.0,60.0,40.0,False,,284.54305151250645,[],"[683, 384]",ColorTask,39.0,61.0,,,HRV,HRV_0183,2022-11-30 18:41:37
,wl-rdm,69,225662,0.0-6.61-0.61,0.0,70.0,,,,,,,[],,,,,,53.2,0.0,i,1.0,False,914.5999999046326,55.0,60.0,40.0,False,,225.11910662144726,[],"[683, 384]",ColorTask,38.0,62.0,,,HRV,HRV_0183,2022-11-30 18:41:37
,wl-rdm,70,227996,0.0-6.62-0.62,0.0,71.0,,,,,,,[],,,,,,62.5,1.0,i,1.0,True,1018.9999998807907,62.0,60.0,40.0,False,,225.42559499953245,[],"[683, 384]",ColorTask,39.0,63.0,,,HRV,HRV_0183,2022-11-30 18:41:37
,wl-rdm,71,229846,0.0-6.63-0.63,0.0,72.0,,,,,,,[],,,,,,56.4,1.0,i,1.0,True,550.7999999523163,34.0,60.0,40.0,False,,231.03917025154317,[],"[683, 384]",ColorTask,40.0,64.0,,,HRV,HRV_0183,2022-11-30 18:41:37
,wl-rdm,72,231729,0.0-6.64-0.64,0.0,73.0,,,,,,,[],,,,,,53.2,1.0,i,1.0,True,568.0,35.0,60.0,40.0,False,,221.71250428420765,[],"[683, 384]",ColorTask,41.0,65.0,,,HRV,HRV_0183,2022-11-30 18:41:37
,wl-rdm,73,233529,0.0-6.65-0.65,0.0,74.0,,,,,,,[],,,,,,73.6,1.0,i,1.0,True,488.10000002384186,30.0,60.0,40.0,False,,228.60996812433868,[],"[683, 384]",ColorTask,42.0,66.0,,,HRV,HRV_0183,2022-11-30 18:41:37
,wl-rdm,74,235413,0.0-6.66-0.66,0.0,75.0,,,,,,,[],,,,,,87.9,1.0,i,1.0,True,517.8999999761581,32.0,60.0,40.0,False,,278.8987463681011,[],"[683, 384]",ColorTask,43.0,67.0,,,HRV,HRV_0183,2022-11-30 18:41:37
,wl-rdm,75,237280,0.0-6.67-0.67,0.0,76.0,,,,,,,[],,,,,,87.9,0.0,u,0.0,True,579.2999999523163,35.0,60.0,40.0,False,,204.15630664288045,[],"[683, 384]",ColorTask,44.0,68.0,,,HRV,HRV_0183,2022-11-30 18:41:37
,wl-rdm,76,239330,0.0-6.68-0.68,0.0,77.0,,,,,,,[],,,,,,73.6,1.0,i,1.0,True,749.1000000238419,45.0,60.0,40.0,False,,241.46441973988567,[],"[683, 384]",ColorTask,45.0,69.0,,,HRV,HRV_0183,2022-11-30 18:41:37
,wl-rdm,77,241746,0.0-6.69-0.69,0.0,78.0,,,,,,,[],,,,,,53.2,1.0,u,0.0,False,1078.2000000476837,65.0,60.0,40.0,False,,266.24280531026204,[],"[683, 384]",ColorTask,44.0,70.0,,,HRV,HRV_0183,2022-11-30 18:41:37
,wl-rdm,78,244280,0.0-6.70-0.70,0.0,79.0,,,,,,,[],,,,,,53.2,0.0,i,1.0,False,1232.5,74.0,60.0,40.0,False,,219.5300696639423,[],"[683, 384]",ColorTask,43.0,71.0,,,HRV,HRV_0183,2022-11-30 18:41:37
,wl-rdm,79,246530,0.0-6.71-0.71,0.0,80.0,,,,,,,[],,,,,,73.6,0.0,u,0.0,True,822.8000000715256,50.0,60.0,40.0,False,,344.2570278371694,[],"[683, 384]",ColorTask,44.0,72.0,,,HRV,HRV_0183,2022-11-30 18:41:37
,wl-rdm,80,248763,0.0-6.72-0.72,0.0,81.0,,,,,,,[],,,,,,62.5,1.0,i,1.0,True,845.0999999046326,51.0,60.0,40.0,False,,326.4167612604005,[],"[683, 384]",ColorTask,45.0,73.0,,,HRV,HRV_0183,2022-11-30 18:41:37
,wl-rdm,81,251014,0.0-6.73-0.73,0.0,82.0,,,,,,,[],,,,,,53.2,0.0,u,0.0,True,955.1000000238419,58.0,60.0,40.0,False,,215.28589205017076,[],"[683, 384]",ColorTask,46.0,74.0,,,HRV,HRV_0183,2022-11-30 18:41:37
,wl-rdm,82,253280,0.0-6.74-0.74,0.0,83.0,,,,,,,[],,,,,,53.2,1.0,i,1.0,True,957.1000000238419,58.0,60.0,40.0,False,,243.516098244064,[],"[683, 384]",ColorTask,47.0,75.0,,,HRV,HRV_0183,2022-11-30 18:41:37
,wl-rdm,83,255997,0.0-6.75-0.75,0.0,84.0,,,,,,,[],,,,,,53.2,1.0,i,1.0,True,1329.6999999284744,80.0,60.0,40.0,False,,318.456772732715,[],"[683, 384]",ColorTask,48.0,76.0,,,HRV,HRV_0183,2022-11-30 18:41:37
,wl-rdm,84,258430,0.0-6.76-0.76,0.0,85.0,,,,,,,[],,,,,,56.4,0.0,u,0.0,True,1068.2999999523163,65.0,60.0,40.0,False,,271.5591927390499,[],"[683, 384]",ColorTask,49.0,77.0,,,HRV,HRV_0183,2022-11-30 18:41:37
,wl-rdm,85,261097,0.0-6.77-0.77,0.0,86.0,,,,,,,[],,,,,,50.0,1.0,u,0.0,False,1201.5,73.0,60.0,40.0,False,,372.2062876980259,[],"[683, 384]",ColorTask,48.0,78.0,,,HRV,HRV_0183,2022-11-30 18:41:37
,wl-rdm,86,263781,0.0-6.78-0.78,0.0,87.0,,,,,,,[],,,,,,50.0,1.0,u,0.0,False,1353.0,82.0,60.0,40.0,False,,259.8045058751604,[],"[683, 384]",ColorTask,47.0,79.0,,,HRV,HRV_0183,2022-11-30 18:41:37
,wl-rdm,87,266164,0.0-6.79-0.79,0.0,88.0,,,,,,,[],,,,,,62.5,0.0,u,0.0,True,993.8999999761581,60.0,60.0,40.0,False,,331.39559476010777,[],"[683, 384]",ColorTask,48.0,80.0,,,HRV,HRV_0183,2022-11-30 18:41:37
,wl-rdm,88,268398,0.0-6.80-0.80,0.0,89.0,,,,,,,[],,,,,,56.4,0.0,i,1.0,False,940.1999999284744,57.0,60.0,40.0,False,,231.11282343661392,[],"[683, 384]",ColorTask,47.0,81.0,,,HRV,HRV_0183,2022-11-30 18:41:37
,wl-rdm,89,271081,0.0-6.81-0.81,0.0,90.0,,,,,,,[],,,,,,62.5,0.0,u,0.0,True,1225.0,74.0,60.0,40.0,False,,379.7821719589831,[],"[683, 384]",ColorTask,48.0,82.0,,,HRV,HRV_0183,2022-11-30 18:41:37
,wl-rdm,90,273365,0.0-6.82-0.82,0.0,91.0,,,,,,,[],,,,,,50.0,1.0,u,0.0,False,864.1999998092651,52.0,60.0,40.0,False,,355.0202785777045,[],"[683, 384]",ColorTask,47.0,83.0,,,HRV,HRV_0183,2022-11-30 18:41:37
,wl-rdm,91,275815,0.0-6.83-0.83,0.0,92.0,,,,,,,[],,,,,,56.4,0.0,u,0.0,True,1157.2999999523163,70.0,60.0,40.0,False,,204.65266290067905,[],"[683, 384]",ColorTask,48.0,84.0,,,HRV,HRV_0183,2022-11-30 18:41:37
,wl-rdm,92,278848,0.0-6.84-0.84,0.0,93.0,,,,,,,[],,,,,,50.0,0.0,i,1.0,False,1552.6999999284744,94.0,60.0,40.0,False,,387.9803105675892,[],"[683, 384]",ColorTask,47.0,85.0,,,HRV,HRV_0183,2022-11-30 18:41:37
,wl-rdm,93,281332,0.0-6.85-0.85,0.0,94.0,,,,,,,[],,,,,,56.4,1.0,i,1.0,True,1182.1000000238419,71.0,60.0,40.0,False,,238.8594619658661,[],"[683, 384]",ColorTask,48.0,86.0,,,HRV,HRV_0183,2022-11-30 18:41:37
,wl-rdm,94,283816,0.0-6.86-0.86,0.0,95.0,,,,,,,[],,,,,,50.0,1.0,u,0.0,False,1164.8999999761581,70.0,60.0,40.0,False,,247.68854640888142,[],"[683, 384]",ColorTask,47.0,87.0,,,HRV,HRV_0183,2022-11-30 18:41:37
,wl-rdm,95,285932,0.0-6.87-0.87,0.0,96.0,,,,,,,[],,,,,,73.6,0.0,u,0.0,True,822.5999999046326,50.0,60.0,40.0,False,,220.02524856496134,[],"[683, 384]",ColorTask,48.0,88.0,,,HRV,HRV_0183,2022-11-30 18:41:37
,wl-rdm,96,288299,0.0-6.88-0.88,0.0,97.0,,,,,,,[],,,,,,50.0,1.0,u,0.0,False,984.3000000715256,60.0,60.0,40.0,False,,313.75278542943306,[],"[683, 384]",ColorTask,47.0,89.0,,,HRV,HRV_0183,2022-11-30 18:41:37
,wl-rdm,97,290266,0.0-6.89-0.89,0.0,98.0,,,,,,,[],,,,,,87.9,0.0,u,0.0,True,626.6000000238419,38.0,60.0,40.0,False,,265.91841978299647,[],"[683, 384]",ColorTask,48.0,90.0,,,HRV,HRV_0183,2022-11-30 18:41:37
,wl-rdm,98,292216,0.0-6.90-0.90,0.0,99.0,,,,,,,[],,,,,,73.6,1.0,i,1.0,True,636.8000000715256,39.0,60.0,40.0,False,,217.44936399683328,[],"[683, 384]",ColorTask,49.0,91.0,,,HRV,HRV_0183,2022-11-30 18:41:37
,wl-rdm,99,294083,0.0-6.91-0.91,0.0,100.0,,,,,,,[],,,,,,87.9,1.0,i,1.0,True,532.0,32.0,60.0,40.0,False,,256.34423129567404,[],"[683, 384]",ColorTask,50.0,92.0,,,HRV,HRV_0183,2022-11-30 18:41:37
,wl-rdm,100,296516,0.0-6.92-0.92,0.0,101.0,,,,,,,[],,,,,,73.6,0.0,u,0.0,True,1020.1000000238419,62.0,60.0,40.0,False,,322.2506342987687,[],"[683, 384]",ColorTask,51.0,93.0,,,HRV,HRV_0183,2022-11-30 18:41:37
,wl-rdm,101,298583,0.0-6.93-0.93,0.0,102.0,,,,,,,[],,,,,,73.6,0.0,u,0.0,True,756.1000000238419,46.0,60.0,40.0,False,,230.09727207512364,[],"[683, 384]",ColorTask,52.0,94.0,,,HRV,HRV_0183,2022-11-30 18:41:37
,wl-rdm,102,300866,0.0-6.94-0.94,0.0,103.0,,,,,,,[],,,,,,56.4,0.0,i,1.0,False,963.5,58.0,60.0,40.0,False,,237.7029686761355,[],"[683, 384]",ColorTask,51.0,95.0,,,HRV,HRV_0183,2022-11-30 18:41:37
,wl-rdm,103,303283,0.0-6.95-0.95,0.0,104.0,,,,,,,[],,,,,,50.0,1.0,i,1.0,True,1116.0999999046326,67.0,60.0,40.0,False,,233.79387441256392,[],"[683, 384]",ColorTask,52.0,96.0,,,HRV,HRV_0183,2022-11-30 18:41:37
,wl-rdm,104,305617,0.0-6.96-0.96,0.0,105.0,,,,,,,[],,,,,,62.5,0.0,u,0.0,True,1032.1000000238419,62.0,60.0,40.0,False,,221.76229833494588,[],"[683, 384]",ColorTask,53.0,97.0,,,HRV,HRV_0183,2022-11-30 18:41:37
,wl-rdm,105,308583,0.0-6.97-0.97,0.0,106.0,,,,,,,[],,,,,,53.2,1.0,i,1.0,True,1669.8000000715256,101.0,60.0,40.0,False,,206.6512122786677,[],"[683, 384]",ColorTask,54.0,98.0,,,HRV,HRV_0183,2022-11-30 18:41:37
,wl-rdm,106,311067,0.0-6.98-0.98,0.0,107.0,,,,,,,[],,,,,,62.5,0.0,u,0.0,True,1121.2000000476837,68.0,60.0,40.0,False,,299.6855783601329,[],"[683, 384]",ColorTask,55.0,99.0,,,HRV,HRV_0183,2022-11-30 18:41:37
,wl-rdm,107,313584,0.0-6.99-0.99,0.0,108.0,,,,,,,[],,,,,,73.6,0.0,u,0.0,True,1095.5,66.0,60.0,40.0,False,,348.17633832668906,[],"[683, 384]",ColorTask,56.0,100.0,,,HRV,HRV_0183,2022-11-30 18:41:37
,wl-rdm,108,316600,0.0-6.100-0.100,0.0,109.0,,,,,,,[],,,,,,56.4,0.0,u,0.0,True,1565.0,94.0,60.0,40.0,False,,374.00842867338395,[],"[683, 384]",ColorTask,57.0,101.0,,,HRV,HRV_0183,2022-11-30 18:41:37
,wl-rdm,109,319117,0.0-6.101-0.101,0.0,110.0,,,,,,,[],,,,,,50.0,1.0,u,0.0,False,1174.8000000715256,71.0,60.0,40.0,False,,274.9409454813797,[],"[683, 384]",ColorTask,56.0,102.0,,,HRV,HRV_0183,2022-11-30 18:41:37
,wl-rdm,110,321084,0.0-6.102-0.102,0.0,111.0,,,,,,,[],,,,,,87.9,1.0,i,1.0,True,639.8999999761581,39.0,60.0,40.0,False,,242.68512762158753,[],"[683, 384]",ColorTask,57.0,103.0,,,HRV,HRV_0183,2022-11-30 18:41:37
,wl-rdm,111,323067,0.0-6.103-0.103,0.0,112.0,,,,,,,[],,,,,,87.9,0.0,u,0.0,True,589.4000000953674,36.0,60.0,40.0,False,,329.5003618688286,[],"[683, 384]",ColorTask,58.0,104.0,,,HRV,HRV_0183,2022-11-30 18:41:37
,wl-rdm,112,325351,0.0-6.104-0.104,0.0,113.0,,,,,,,[],,,,,,50.0,0.0,u,0.0,True,1013.5,61.0,60.0,40.0,False,,211.26949442600483,[],"[683, 384]",ColorTask,59.0,105.0,,,HRV,HRV_0183,2022-11-30 18:41:37
,wl-rdm,113,328151,0.0-6.105-0.105,0.0,114.0,,,,,,,[],,,,,,50.0,0.0,i,1.0,False,1318.6000000238419,80.0,60.0,40.0,False,,392.9803476629122,[],"[683, 384]",ColorTask,58.0,106.0,,,HRV,HRV_0183,2022-11-30 18:41:37
,wl-rdm,114,330584,0.0-6.106-0.106,0.0,115.0,,,,,,,[],,,,,,53.2,0.0,u,0.0,True,1137.6000000238419,69.0,60.0,40.0,False,,221.8935656982888,[],"[683, 384]",ColorTask,59.0,107.0,,,HRV,HRV_0183,2022-11-30 18:41:37
,wl-rdm,115,333234,0.0-6.107-0.107,0.0,116.0,,,,,,,[],,,,,,53.2,0.0,u,0.0,True,1265.3999999761581,76.0,60.0,40.0,False,,320.8013560724582,[],"[683, 384]",ColorTask,60.0,108.0,,,HRV,HRV_0183,2022-11-30 18:41:37
,wl-html-keyboard-response,116,358176,0.0-7.0-0.0,1.0,117.0,,,,,,,,22934.400000095367,1.0,0,,,,,,,,,,,,,,,,,,,,,,HRV,HRV_0183,2022-11-30 18:41:37
,wl-rdm,117,360586,0.0-8.0-0.0,1.0,118.0,,,,,,,[],,,,,,53.2,0.0,u,0.0,True,1105.1999999284744,67.0,60.0,40.0,False,,244.200897684003,[],"[683, 384]",ColorTask,61.0,1.0,,,HRV,HRV_0183,2022-11-30 18:41:37
,wl-rdm,118,363353,0.0-8.1-0.1,1.0,119.0,,,,,,,[],,,,,,56.4,0.0,u,0.0,True,1299.3999999761581,78.0,60.0,40.0,False,,392.5170018598535,[],"[683, 384]",ColorTask,62.0,2.0,,,HRV,HRV_0183,2022-11-30 18:41:37
,wl-rdm,119,365920,0.0-8.2-0.2,1.0,120.0,,,,,,,[],,,,,,50.0,1.0,u,0.0,False,1113.7999999523163,67.0,60.0,40.0,False,,389.1399727495724,[],"[683, 384]",ColorTask,61.0,3.0,,,HRV,HRV_0183,2022-11-30 18:41:37
,wl-rdm,120,368753,0.0-8.3-0.3,1.0,121.0,,,,,,,[],,,,,,50.0,1.0,i,1.0,True,1498.1999999284744,90.0,60.0,40.0,False,,265.0430965541093,[],"[683, 384]",ColorTask,62.0,4.0,,,HRV,HRV_0183,2022-11-30 18:41:37
,wl-rdm,121,371436,0.0-8.4-0.4,1.0,122.0,,,,,,,[],,,,,,50.0,0.0,i,1.0,False,1285.6000000238419,78.0,60.0,40.0,False,,308.86142038691287,[],"[683, 384]",ColorTask,61.0,5.0,,,HRV,HRV_0183,2022-11-30 18:41:37
,wl-rdm,122,374037,0.0-8.5-0.5,1.0,123.0,,,,,,,[],,,,,,56.4,0.0,u,0.0,True,1167.7000000476837,71.0,60.0,40.0,False,,364.1169320101683,[],"[683, 384]",ColorTask,62.0,6.0,,,HRV,HRV_0183,2022-11-30 18:41:37
,wl-rdm,123,376603,0.0-8.6-0.6,1.0,124.0,,,,,,,[],,,,,,56.4,1.0,i,1.0,True,1195.5,72.0,60.0,40.0,False,,296.6052702372846,[],"[683, 384]",ColorTask,63.0,7.0,,,HRV,HRV_0183,2022-11-30 18:41:37
,wl-rdm,124,379137,0.0-8.7-0.7,1.0,125.0,,,,,,,[],,,,,,56.4,0.0,u,0.0,True,1252.8999999761581,76.0,60.0,40.0,False,,215.80949885307942,[],"[683, 384]",ColorTask,64.0,8.0,,,HRV,HRV_0183,2022-11-30 18:41:37
,wl-rdm,125,381804,0.0-8.8-0.8,1.0,126.0,,,,,,,[],,,,,,73.6,0.0,u,0.0,True,1193.0,72.0,60.0,40.0,False,,395.7301344291852,[],"[683, 384]",ColorTask,65.0,9.0,,,HRV,HRV_0183,2022-11-30 18:41:37
,wl-rdm,126,383920,0.0-8.9-0.9,1.0,127.0,,,,,,,[],,,,,,87.9,0.0,u,0.0,True,751.2999999523163,46.0,60.0,40.0,False,,273.34719247536145,[],"[683, 384]",ColorTask,66.0,10.0,,,HRV,HRV_0183,2022-11-30 18:41:37
,wl-rdm,127,386170,0.0-8.10-0.10,1.0,128.0,,,,,,,[],,,,,,62.5,1.0,i,1.0,True,867.8999999761581,53.0,60.0,40.0,False,,290.73208867891606,[],"[683, 384]",ColorTask,67.0,11.0,,,HRV,HRV_0183,2022-11-30 18:41:37
,wl-rdm,128,388654,0.0-8.11-0.11,1.0,129.0,,,,,,,[],,,,,,50.0,0.0,u,0.0,True,1194.3000000715256,72.0,60.0,40.0,False,,220.57007592307266,[],"[683, 384]",ColorTask,68.0,12.0,,,HRV,HRV_0183,2022-11-30 18:41:37
,wl-rdm,129,391037,0.0-8.12-0.12,1.0,130.0,,,,,,,[],,,,,,62.5,0.0,u,0.0,True,908.3999999761581,55.0,60.0,40.0,False,,394.8665674267424,[],"[683, 384]",ColorTask,69.0,13.0,,,HRV,HRV_0183,2022-11-30 18:41:37
,wl-rdm,130,393404,0.0-8.13-0.13,1.0,131.0,,,,,,,[],,,,,,73.6,0.0,u,0.0,True,960.3999999761581,58.0,60.0,40.0,False,,334.3945820832528,[],"[683, 384]",ColorTask,70.0,14.0,,,HRV,HRV_0183,2022-11-30 18:41:37
,wl-rdm,131,396138,0.0-8.14-0.14,1.0,132.0,,,,,,,[],,,,,,56.4,1.0,i,1.0,True,1442.1999999284744,87.0,60.0,40.0,False,,203.26991601072223,[],"[683, 384]",ColorTask,71.0,15.0,,,HRV,HRV_0183,2022-11-30 18:41:37
,wl-rdm,132,398671,0.0-8.15-0.15,1.0,133.0,,,,,,,[],,,,,,62.5,0.0,u,0.0,True,1165.2999999523163,70.0,60.0,40.0,False,,303.0704443155402,[],"[683, 384]",ColorTask,72.0,16.0,,,HRV,HRV_0183,2022-11-30 18:41:37
,wl-rdm,133,401204,0.0-8.16-0.16,1.0,134.0,,,,,,,[],,,,,,73.6,0.0,u,0.0,True,1214.3000000715256,73.0,60.0,40.0,False,,236.2976569776333,[],"[683, 384]",ColorTask,73.0,17.0,,,HRV,HRV_0183,2022-11-30 18:41:37
,wl-rdm,134,403571,0.0-8.17-0.17,1.0,135.0,,,,,,,[],,,,,,56.4,1.0,i,1.0,True,1052.6000000238419,64.0,60.0,40.0,False,,230.06173649272858,[],"[683, 384]",ColorTask,74.0,18.0,,,HRV,HRV_0183,2022-11-30 18:41:37
,wl-rdm,135,405754,0.0-8.18-0.18,1.0,136.0,,,,,,,[],,,,,,62.5,1.0,i,1.0,True,762.2999999523163,46.0,60.0,40.0,False,,334.7316915324484,[],"[683, 384]",ColorTask,75.0,19.0,,,HRV,HRV_0183,2022-11-30 18:41:37
,wl-rdm,136,407688,0.0-8.19-0.19,1.0,137.0,,,,,,,[],,,,,,73.6,1.0,i,1.0,True,649.3000000715256,39.0,60.0,40.0,False,,223.1359224646525,[],"[683, 384]",ColorTask,76.0,20.0,,,HRV,HRV_0183,2022-11-30 18:41:37
,wl-rdm,137,409738,0.0-8.20-0.20,1.0,138.0,,,,,,,[],,,,,,73.6,1.0,i,1.0,True,665.5,40.0,60.0,40.0,False,,313.8571765199887,[],"[683, 384]",ColorTask,77.0,21.0,,,HRV,HRV_0183,2022-11-30 18:41:37
,wl-rdm,138,411905,0.0-8.21-0.21,1.0,139.0,,,,,,,[],,,,,,87.9,0.0,u,0.0,True,701.1000000238419,43.0,60.0,40.0,False,,384.01622528435513,[],"[683, 384]",ColorTask,78.0,22.0,,,HRV,HRV_0183,2022-11-30 18:41:37
,wl-rdm,139,413838,0.0-8.22-0.22,1.0,140.0,,,,,,,[],,,,,,87.9,1.0,i,1.0,True,521.7999999523163,32.0,60.0,40.0,False,,336.51105547798045,[],"[683, 384]",ColorTask,79.0,23.0,,,HRV,HRV_0183,2022-11-30 18:41:37
,wl-rdm,140,416455,0.0-8.23-0.23,1.0,141.0,,,,,,,[],,,,,,50.0,0.0,i,1.0,False,1204.8999999761581,73.0,60.0,40.0,False,,337.4290526657991,[],"[683, 384]",ColorTask,78.0,24.0,,,HRV,HRV_0183,2022-11-30 18:41:37
,wl-rdm,141,418755,0.0-8.24-0.24,1.0,142.0,,,,,,,[],,,,,,53.2,0.0,u,0.0,True,916.2999999523163,55.0,60.0,40.0,False,,300.9694347740084,[],"[683, 384]",ColorTask,79.0,25.0,,,HRV,HRV_0183,2022-11-30 18:41:37
,wl-rdm,142,420822,0.0-8.25-0.25,1.0,143.0,,,,,,,[],,,,,,87.9,0.0,u,0.0,True,668.3000000715256,41.0,60.0,40.0,False,,332.0967206322948,[],"[683, 384]",ColorTask,80.0,26.0,,,HRV,HRV_0183,2022-11-30 18:41:37
,wl-rdm,143,423289,0.0-8.26-0.26,1.0,144.0,,,,,,,[],,,,,,53.2,1.0,i,1.0,True,1072.2999999523163,65.0,60.0,40.0,False,,323.7106816181735,[],"[683, 384]",ColorTask,81.0,27.0,,,HRV,HRV_0183,2022-11-30 18:41:37
,wl-rdm,144,425389,0.0-8.27-0.27,1.0,145.0,,,,,,,[],,,,,,62.5,0.0,u,0.0,True,638.2999999523163,39.0,60.0,40.0,False,,384.2841643808282,[],"[683, 384]",ColorTask,82.0,28.0,,,HRV,HRV_0183,2022-11-30 18:41:37
,wl-rdm,145,427522,0.0-8.28-0.28,1.0,146.0,,,,,,,[],,,,,,53.2,0.0,u,0.0,True,671.1999999284744,41.0,60.0,40.0,False,,394.4641931015598,[],"[683, 384]",ColorTask,83.0,29.0,,,HRV,HRV_0183,2022-11-30 18:41:37
,wl-rdm,146,429472,0.0-8.29-0.29,1.0,147.0,,,,,,,[],,,,,,53.2,1.0,i,1.0,True,663.9000000953674,40.0,60.0,40.0,False,,210.47784666396618,[],"[683, 384]",ColorTask,84.0,30.0,,,HRV,HRV_0183,2022-11-30 18:41:37
,wl-rdm,147,432139,0.0-8.30-0.30,1.0,148.0,,,,,,,[],,,,,,50.0,0.0,u,0.0,True,1368.6999999284744,83.0,60.0,40.0,False,,219.21375240171838,[],"[683, 384]",ColorTask,85.0,31.0,,,HRV,HRV_0183,2022-11-30 18:41:37
,wl-rdm,148,434906,0.0-8.31-0.31,1.0,149.0,,,,,,,[],,,,,,53.2,0.0,i,1.0,False,1403.6000000238419,85.0,60.0,40.0,False,,272.0568086042715,[],"[683, 384]",ColorTask,84.0,32.0,,,HRV,HRV_0183,2022-11-30 18:41:37
,wl-rdm,149,437489,0.0-8.32-0.32,1.0,150.0,,,,,,,[],,,,,,50.0,1.0,u,0.0,False,1117.7000000476837,68.0,60.0,40.0,False,,375.10457558228666,[],"[683, 384]",ColorTask,83.0,33.0,,,HRV,HRV_0183,2022-11-30 18:41:37
,wl-rdm,150,439906,0.0-8.33-0.33,1.0,151.0,,,,,,,[],,,,,,56.4,0.0,u,0.0,True,970.5,59.0,60.0,40.0,False,,355.08704717125784,[],"[683, 384]",ColorTask,84.0,34.0,,,HRV,HRV_0183,2022-11-30 18:41:37
,wl-rdm,151,442073,0.0-8.34-0.34,1.0,152.0,,,,,,,[],,,,,,62.5,0.0,u,0.0,True,767.5999999046326,47.0,60.0,40.0,False,,301.0649737877666,[],"[683, 384]",ColorTask,85.0,35.0,,,HRV,HRV_0183,2022-11-30 18:41:37
,wl-rdm,152,444206,0.0-8.35-0.35,1.0,153.0,,,,,,,[],,,,,,53.2,0.0,u,0.0,True,843.6000000238419,51.0,60.0,40.0,False,,204.92071089283246,[],"[683, 384]",ColorTask,86.0,36.0,,,HRV,HRV_0183,2022-11-30 18:41:37
,wl-rdm,153,446423,0.0-8.36-0.36,1.0,154.0,,,,,,,[],,,,,,50.0,0.0,u,0.0,True,907.5,55.0,60.0,40.0,False,,220.20101336460294,[],"[683, 384]",ColorTask,87.0,37.0,,,HRV,HRV_0183,2022-11-30 18:41:37
,wl-rdm,154,448707,0.0-8.37-0.37,1.0,155.0,,,,,,,[],,,,,,50.0,0.0,u,0.0,True,910.7999999523163,55.0,60.0,40.0,False,,303.8036029105873,[],"[683, 384]",ColorTask,88.0,38.0,,,HRV,HRV_0183,2022-11-30 18:41:37
,wl-rdm,155,451023,0.0-8.38-0.38,1.0,156.0,,,,,,,[],,,,,,56.4,1.0,i,1.0,True,839.7000000476837,51.0,60.0,40.0,False,,388.23716140574754,[],"[683, 384]",ColorTask,89.0,39.0,,,HRV,HRV_0183,2022-11-30 18:41:37
,wl-rdm,156,453007,0.0-8.39-0.39,1.0,157.0,,,,,,,[],,,,,,73.6,0.0,u,0.0,True,688.5,42.0,60.0,40.0,False,,203.95032499436905,[],"[683, 384]",ColorTask,90.0,40.0,,,HRV,HRV_0183,2022-11-30 18:41:37
,wl-rdm,157,455723,0.0-8.40-0.40,1.0,158.0,,,,,,,[],,,,,,50.0,0.0,i,1.0,False,1414.3999999761581,85.0,60.0,40.0,False,,229.99448712989746,[],"[683, 384]",ColorTask,89.0,41.0,,,HRV,HRV_0183,2022-11-30 18:41:37
,wl-rdm,158,457740,0.0-8.41-0.41,1.0,159.0,,,,,,,[],,,,,,87.9,1.0,i,1.0,True,709.3999999761581,43.0,60.0,40.0,False,,235.2828089499531,[],"[683, 384]",ColorTask,90.0,42.0,,,HRV,HRV_0183,2022-11-30 18:41:37
,wl-rdm,159,459890,0.0-8.42-0.42,1.0,160.0,,,,,,,[],,,,,,50.0,0.0,u,0.0,True,760.3000000715256,46.0,60.0,40.0,False,,306.3153131627282,[],"[683, 384]",ColorTask,91.0,43.0,,,HRV,HRV_0183,2022-11-30 18:41:37
,wl-rdm,160,462590,0.0-8.43-0.43,1.0,161.0,,,,,,,[],,,,,,50.0,1.0,u,0.0,False,1379.7000000476837,83.0,60.0,40.0,False,,265.3093251070585,[],"[683, 384]",ColorTask,90.0,44.0,,,HRV,HRV_0183,2022-11-30 18:41:37
,wl-rdm,161,464607,0.0-8.44-0.44,1.0,162.0,,,,,,,[],,,,,,87.9,1.0,i,1.0,True,680.0,41.0,60.0,40.0,False,,276.8722389522269,[],"[683, 384]",ColorTask,91.0,45.0,,,HRV,HRV_0183,2022-11-30 18:41:37
,wl-rdm,162,467340,0.0-8.45-0.45,1.0,163.0,,,,,,,[],,,,,,53.2,0.0,i,1.0,False,1343.3999999761581,81.0,60.0,40.0,False,,318.2514800516565,[],"[683, 384]",ColorTask,90.0,46.0,,,HRV,HRV_0183,2022-11-30 18:41:37
,wl-rdm,163,469607,0.0-8.46-0.46,1.0,164.0,,,,,,,[],,,,,,73.6,0.0,u,0.0,True,869.6000000238419,53.0,60.0,40.0,False,,303.13946049747403,[],"[683, 384]",ColorTask,91.0,47.0,,,HRV,HRV_0183,2022-11-30 18:41:37
,wl-rdm,164,471607,0.0-8.47-0.47,1.0,165.0,,,,,,,[],,,,,,73.6,1.0,i,1.0,True,684.7000000476837,42.0,60.0,40.0,False,,229.3586682815102,[],"[683, 384]",ColorTask,92.0,48.0,,,HRV,HRV_0183,2022-11-30 18:41:37
,wl-rdm,165,473508,0.0-8.48-0.48,1.0,166.0,,,,,,,[],,,,,,56.4,1.0,i,1.0,True,610.0999999046326,37.0,60.0,40.0,False,,209.7570255157992,[],"[683, 384]",ColorTask,93.0,49.0,,,HRV,HRV_0183,2022-11-30 18:41:37
,wl-rdm,166,475707,0.0-8.49-0.49,1.0,167.0,,,,,,,[],,,,,,87.9,1.0,i,1.0,True,815.2000000476837,49.0,60.0,40.0,False,,330.0621903703278,[],"[683, 384]",ColorTask,94.0,50.0,,,HRV,HRV_0183,2022-11-30 18:41:37
,wl-rdm,167,478191,0.0-8.50-0.50,1.0,168.0,,,,,,,[],,,,,,62.5,1.0,i,1.0,True,1063.2999999523163,64.0,60.0,40.0,False,,338.88526502075456,[],"[683, 384]",ColorTask,95.0,51.0,,,HRV,HRV_0183,2022-11-30 18:41:37
,wl-rdm,168,480241,0.0-8.51-0.51,1.0,169.0,,,,,,,[],,,,,,87.9,1.0,i,1.0,True,698.4999998807907,42.0,60.0,40.0,False,,290.5477783422979,[],"[683, 384]",ColorTask,96.0,52.0,,,HRV,HRV_0183,2022-11-30 18:41:37
,wl-rdm,169,482391,0.0-8.52-0.52,1.0,170.0,,,,,,,[],,,,,,73.6,1.0,i,1.0,True,853.6000000238419,52.0,60.0,40.0,False,,209.59368491118587,[],"[683, 384]",ColorTask,97.0,53.0,,,HRV,HRV_0183,2022-11-30 18:41:37
,wl-rdm,170,485308,0.0-8.53-0.53,1.0,171.0,,,,,,,[],,,,,,53.2,0.0,u,0.0,True,1591.4000000953674,96.0,60.0,40.0,False,,240.3015756487016,[],"[683, 384]",ColorTask,98.0,54.0,,,HRV,HRV_0183,2022-11-30 18:41:37
,wl-rdm,171,488075,0.0-8.54-0.54,1.0,172.0,,,,,,,[],,,,,,53.2,1.0,i,1.0,True,1494.2999999523163,90.0,60.0,40.0,False,,210.27755434817817,[],"[683, 384]",ColorTask,99.0,55.0,,,HRV,HRV_0183,2022-11-30 18:41:37
,wl-rdm,172,490558,0.0-8.55-0.55,1.0,173.0,,,,,,,[],,,,,,56.4,1.0,u,0.0,False,1128.1000000238419,68.0,60.0,40.0,False,,290.85629894480934,[],"[683, 384]",ColorTask,98.0,56.0,,,HRV,HRV_0183,2022-11-30 18:41:37
,wl-rdm,173,492492,0.0-8.56-0.56,1.0,174.0,,,,,,,[],,,,,,73.6,1.0,i,1.0,True,610.3999999761581,37.0,60.0,40.0,False,,258.2649314038987,[],"[683, 384]",ColorTask,99.0,57.0,,,HRV,HRV_0183,2022-11-30 18:41:37
,wl-rdm,174,494758,0.0-8.57-0.57,1.0,175.0,,,,,,,[],,,,,,62.5,0.0,u,0.0,True,875.0,53.0,60.0,40.0,False,,304.772365345239,[],"[683, 384]",ColorTask,100.0,58.0,,,HRV,HRV_0183,2022-11-30 18:41:37
,wl-rdm,175,497142,0.0-8.58-0.58,1.0,176.0,,,,,,,[],,,,,,62.5,0.0,u,0.0,True,941.3000000715256,57.0,60.0,40.0,False,,374.5524848844174,[],"[683, 384]",ColorTask,101.0,59.0,,,HRV,HRV_0183,2022-11-30 18:41:37
,wl-rdm,176,499525,0.0-8.59-0.59,1.0,177.0,,,,,,,[],,,,,,50.0,1.0,u,0.0,False,1067.8000000715256,65.0,60.0,40.0,False,,219.70898865235915,[],"[683, 384]",ColorTask,100.0,60.0,,,HRV,HRV_0183,2022-11-30 18:41:37
,wl-rdm,177,501609,0.0-8.60-0.60,1.0,178.0,,,,,,,[],,,,,,87.9,1.0,i,1.0,True,651.1999999284744,40.0,60.0,40.0,False,,353.62703189366283,[],"[683, 384]",ColorTask,101.0,61.0,,,HRV,HRV_0183,2022-11-30 18:41:37
,wl-rdm,178,504242,0.0-8.61-0.61,1.0,179.0,,,,,,,[],,,,,,56.4,0.0,u,0.0,True,1234.7999999523163,75.0,60.0,40.0,False,,302.5045709280845,[],"[683, 384]",ColorTask,102.0,62.0,,,HRV,HRV_0183,2022-11-30 18:41:37
,wl-rdm,179,506292,0.0-8.62-0.62,1.0,180.0,,,,,,,[],,,,,,73.6,0.0,u,0.0,True,730.0,44.0,60.0,40.0,False,,259.04983497375065,[],"[683, 384]",ColorTask,103.0,63.0,,,HRV,HRV_0183,2022-11-30 18:41:37
,wl-rdm,180,508459,0.0-8.63-0.63,1.0,181.0,,,,,,,[],,,,,,56.4,1.0,i,1.0,True,784.2000000476837,48.0,60.0,40.0,False,,283.41914669479513,[],"[683, 384]",ColorTask,104.0,64.0,,,HRV,HRV_0183,2022-11-30 18:41:37
,wl-rdm,181,510493,0.0-8.64-0.64,1.0,182.0,,,,,,,[],,,,,,73.6,0.0,u,0.0,True,763.7000000476837,46.0,60.0,40.0,False,,209.17154053743522,[],"[683, 384]",ColorTask,105.0,65.0,,,HRV,HRV_0183,2022-11-30 18:41:37
,wl-rdm,182,512593,0.0-8.65-0.65,1.0,183.0,,,,,,,[],,,,,,73.6,1.0,i,1.0,True,692.1000000238419,42.0,60.0,40.0,False,,332.7657393023594,[],"[683, 384]",ColorTask,106.0,66.0,,,HRV,HRV_0183,2022-11-30 18:41:37
,wl-rdm,183,514693,0.0-8.66-0.66,1.0,184.0,,,,,,,[],,,,,,73.6,0.0,u,0.0,True,732.4000000953674,44.0,60.0,40.0,False,,290.36110269753334,[],"[683, 384]",ColorTask,107.0,67.0,,,HRV,HRV_0183,2022-11-30 18:41:37
,wl-rdm,184,516643,0.0-8.67-0.67,1.0,185.0,,,,,,,[],,,,,,73.6,1.0,i,1.0,True,575.0,35.0,60.0,40.0,False,,290.3983894085284,[],"[683, 384]",ColorTask,108.0,68.0,,,HRV,HRV_0183,2022-11-30 18:41:37
,wl-rdm,185,518759,0.0-8.68-0.68,1.0,186.0,,,,,,,[],,,,,,62.5,1.0,i,1.0,True,771.7999999523163,47.0,60.0,40.0,False,,256.80542340736383,[],"[683, 384]",ColorTask,109.0,69.0,,,HRV,HRV_0183,2022-11-30 18:41:37
,wl-rdm,186,520676,0.0-8.69-0.69,1.0,187.0,,,,,,,[],,,,,,62.5,1.0,i,1.0,True,577.3000000715256,35.0,60.0,40.0,False,,252.16741896402385,[],"[683, 384]",ColorTask,110.0,70.0,,,HRV,HRV_0183,2022-11-30 18:41:37
,wl-rdm,187,523543,0.0-8.70-0.70,1.0,188.0,,,,,,,[],,,,,,53.2,1.0,i,1.0,True,1393.6000000238419,84.0,60.0,40.0,False,,398.0155138058924,[],"[683, 384]",ColorTask,111.0,71.0,,,HRV,HRV_0183,2022-11-30 18:41:37
,wl-rdm,188,526243,0.0-8.71-0.71,1.0,189.0,,,,,,,[],,,,,,53.2,0.0,u,0.0,True,1341.5999999046326,81.0,60.0,40.0,False,,290.75494646884937,[],"[683, 384]",ColorTask,112.0,72.0,,,HRV,HRV_0183,2022-11-30 18:41:37
,wl-rdm,189,528827,0.0-8.72-0.72,1.0,190.0,,,,,,,[],,,,,,50.0,1.0,u,0.0,False,1188.7999999523163,72.0,60.0,40.0,False,,301.6855335549983,[],"[683, 384]",ColorTask,111.0,73.0,,,HRV,HRV_0183,2022-11-30 18:41:37
,wl-rdm,190,531244,0.0-8.73-0.73,1.0,191.0,,,,,,,[],,,,,,53.2,1.0,i,1.0,True,1131.8000000715256,68.0,60.0,40.0,False,,202.48738521482005,[],"[683, 384]",ColorTask,112.0,74.0,,,HRV,HRV_0183,2022-11-30 18:41:37
,wl-rdm,191,533927,0.0-8.74-0.74,1.0,192.0,,,,,,,[],,,,,,50.0,1.0,i,1.0,True,1252.0,76.0,60.0,40.0,False,,333.47967869821457,[],"[683, 384]",ColorTask,113.0,75.0,,,HRV,HRV_0183,2022-11-30 18:41:37
,wl-rdm,192,536527,0.0-8.75-0.75,1.0,193.0,,,,,,,[],,,,,,62.5,1.0,i,1.0,True,1124.1000000238419,68.0,60.0,40.0,False,,395.35549190560414,[],"[683, 384]",ColorTask,114.0,76.0,,,HRV,HRV_0183,2022-11-30 18:41:37
,wl-rdm,193,538794,0.0-8.76-0.76,1.0,194.0,,,,,,,[],,,,,,87.9,0.0,u,0.0,True,852.2999999523163,52.0,60.0,40.0,False,,340.2582079880938,[],"[683, 384]",ColorTask,115.0,77.0,,,HRV,HRV_0183,2022-11-30 18:41:37
,wl-rdm,194,540861,0.0-8.77-0.77,1.0,195.0,,,,,,,[],,,,,,73.6,0.0,u,0.0,True,747.1999999284744,45.0,60.0,40.0,False,,253.5672744563238,[],"[683, 384]",ColorTask,116.0,78.0,,,HRV,HRV_0183,2022-11-30 18:41:37
,wl-rdm,195,543327,0.0-8.78-0.78,1.0,196.0,,,,,,,[],,,,,,73.6,1.0,i,1.0,True,1175.3000000715256,71.0,60.0,40.0,False,,200.98059220313124,[],"[683, 384]",ColorTask,117.0,79.0,,,HRV,HRV_0183,2022-11-30 18:41:37
,wl-rdm,196,545761,0.0-8.79-0.79,1.0,197.0,,,,,,,[],,,,,,56.4,0.0,u,0.0,True,1121.0000001192093,68.0,60.0,40.0,False,,221.51934039234055,[],"[683, 384]",ColorTask,118.0,80.0,,,HRV,HRV_0183,2022-11-30 18:41:37
,wl-rdm,197,548328,0.0-8.80-0.80,1.0,198.0,,,,,,,[],,,,,,50.0,1.0,u,0.0,False,1272.2999999523163,77.0,60.0,40.0,False,,230.41377761857183,[],"[683, 384]",ColorTask,117.0,81.0,,,HRV,HRV_0183,2022-11-30 18:41:37
,wl-rdm,198,551628,0.0-8.81-0.81,1.0,199.0,,,,,,,[],,,,,,53.2,1.0,u,0.0,False,1897.8999999761581,114.0,60.0,40.0,False,,328.8218752321603,[],"[683, 384]",ColorTask,116.0,82.0,,,HRV,HRV_0183,2022-11-30 18:41:37
,wl-rdm,199,553778,0.0-8.82-0.82,1.0,200.0,,,,,,,[],,,,,,62.5,1.0,i,1.0,True,807.7000000476837,49.0,60.0,40.0,False,,250.32599971596812,[],"[683, 384]",ColorTask,117.0,83.0,,,HRV,HRV_0183,2022-11-30 18:41:37
,wl-rdm,200,555911,0.0-8.83-0.83,1.0,201.0,,,,,,,[],,,,,,87.9,0.0,u,0.0,True,834.5999999046326,51.0,60.0,40.0,False,,222.085179517207,[],"[683, 384]",ColorTask,118.0,84.0,,,HRV,HRV_0183,2022-11-30 18:41:37
,wl-rdm,201,558528,0.0-8.84-0.84,1.0,202.0,,,,,,,[],,,,,,73.6,1.0,i,1.0,True,1188.5,72.0,60.0,40.0,False,,351.2729075300894,[],"[683, 384]",ColorTask,119.0,85.0,,,HRV,HRV_0183,2022-11-30 18:41:37
,wl-rdm,202,561028,0.0-8.85-0.85,1.0,203.0,,,,,,,[],,,,,,56.4,0.0,u,0.0,True,1226.3000000715256,74.0,60.0,40.0,False,,210.0159717598551,[],"[683, 384]",ColorTask,120.0,86.0,,,HRV,HRV_0183,2022-11-30 18:41:37
,wl-rdm,203,563212,0.0-8.86-0.86,1.0,204.0,,,,,,,[],,,,,,87.9,0.0,u,0.0,True,784.5,48.0,60.0,40.0,False,,312.9036588886434,[],"[683, 384]",ColorTask,121.0,87.0,,,HRV,HRV_0183,2022-11-30 18:41:37
,wl-rdm,204,565195,0.0-8.87-0.87,1.0,205.0,,,,,,,[],,,,,,87.9,0.0,u,0.0,True,563.4000000953674,34.0,60.0,40.0,False,,350.4928865090585,[],"[683, 384]",ColorTask,122.0,88.0,,,HRV,HRV_0183,2022-11-30 18:41:37
,wl-rdm,205,567429,0.0-8.88-0.88,1.0,206.0,,,,,,,[],,,,,,53.2,1.0,i,1.0,True,809.5,49.0,60.0,40.0,False,,355.98046646809024,[],"[683, 384]",ColorTask,123.0,89.0,,,HRV,HRV_0183,2022-11-30 18:41:37
,wl-rdm,206,569512,0.0-8.89-0.89,1.0,207.0,,,,,,,[],,,,,,56.4,0.0,i,1.0,False,809.0,49.0,60.0,40.0,False,,211.78363601881006,[],"[683, 384]",ColorTask,122.0,90.0,,,HRV,HRV_0183,2022-11-30 18:41:37
,wl-rdm,207,571629,0.0-8.90-0.90,1.0,208.0,,,,,,,[],,,,,,87.9,1.0,i,1.0,True,711.7999999523163,43.0,60.0,40.0,False,,341.93629194593314,[],"[683, 384]",ColorTask,123.0,91.0,,,HRV,HRV_0183,2022-11-30 18:41:37
,wl-rdm,208,573846,0.0-8.91-0.91,1.0,209.0,,,,,,,[],,,,,,50.0,1.0,i,1.0,True,909.6999999284744,55.0,60.0,40.0,False,,226.5312691650132,[],"[683, 384]",ColorTask,124.0,92.0,,,HRV,HRV_0183,2022-11-30 18:41:37
,wl-rdm,209,575862,0.0-8.92-0.92,1.0,210.0,,,,,,,[],,,,,,87.9,0.0,u,0.0,True,676.5,41.0,60.0,40.0,False,,265.4690814619622,[],"[683, 384]",ColorTask,125.0,93.0,,,HRV,HRV_0183,2022-11-30 18:41:37
,wl-rdm,210,577962,0.0-8.93-0.93,1.0,211.0,,,,,,,[],,,,,,62.5,1.0,i,1.0,True,652.5,40.0,60.0,40.0,False,,355.8166077065828,[],"[683, 384]",ColorTask,126.0,94.0,,,HRV,HRV_0183,2022-11-30 18:41:37
,wl-rdm,211,580046,0.0-8.94-0.94,1.0,212.0,,,,,,,[],,,,,,56.4,1.0,u,0.0,False,801.1000000238419,49.0,60.0,40.0,False,,205.1591810923381,[],"[683, 384]",ColorTask,125.0,95.0,,,HRV,HRV_0183,2022-11-30 18:41:37
,wl-rdm,212,582162,0.0-8.95-0.95,1.0,213.0,,,,,,,[],,,,,,62.5,0.0,u,0.0,True,799.8999999761581,48.0,60.0,40.0,False,,262.6439773846012,[],"[683, 384]",ColorTask,126.0,96.0,,,HRV,HRV_0183,2022-11-30 18:41:37
,wl-rdm,213,585029,0.0-8.96-0.96,1.0,214.0,,,,,,,[],,,,,,62.5,1.0,i,1.0,True,1558.2000000476837,94.0,60.0,40.0,False,,225.2726609129957,[],"[683, 384]",ColorTask,127.0,97.0,,,HRV,HRV_0183,2022-11-30 18:41:37
,wl-rdm,214,587163,0.0-8.97-0.97,1.0,215.0,,,,,,,[],,,,,,87.9,0.0,u,0.0,True,786.1000000238419,48.0,60.0,40.0,False,,251.75639337430397,[],"[683, 384]",ColorTask,128.0,98.0,,,HRV,HRV_0183,2022-11-30 18:41:37
,wl-rdm,215,590363,0.0-8.98-0.98,1.0,216.0,,,,,,,[],,,,,,53.2,0.0,u,0.0,True,1795.2999999523163,108.0,60.0,40.0,False,,332.029567153617,[],"[683, 384]",ColorTask,129.0,99.0,,,HRV,HRV_0183,2022-11-30 18:41:37
,wl-rdm,216,592763,0.0-8.99-0.99,1.0,217.0,,,,,,,[],,,,,,62.5,0.0,u,0.0,True,1132.8999999761581,68.0,60.0,40.0,False,,213.63346047698124,[],"[683, 384]",ColorTask,130.0,100.0,,,HRV,HRV_0183,2022-11-30 18:41:37
,wl-rdm,217,595513,0.0-8.100-0.100,1.0,218.0,,,,,,,[],,,,,,62.5,0.0,u,0.0,True,1446.6999999284744,87.0,60.0,40.0,False,,235.37445240455438,[],"[683, 384]",ColorTask,131.0,101.0,,,HRV,HRV_0183,2022-11-30 18:41:37
,wl-rdm,218,598697,0.0-8.101-0.101,1.0,219.0,,,,,,,[],,,,,,53.2,1.0,u,0.0,False,1809.2999999523163,109.0,60.0,40.0,False,,292.9890808903349,[],"[683, 384]",ColorTask,130.0,102.0,,,HRV,HRV_0183,2022-11-30 18:41:37
,wl-rdm,219,601747,0.0-8.102-0.102,1.0,220.0,,,,,,,[],,,,,,56.4,1.0,i,1.0,True,1651.6000000238419,100.0,60.0,40.0,False,,304.5686431428011,[],"[683, 384]",ColorTask,131.0,103.0,,,HRV,HRV_0183,2022-11-30 18:41:37
,wl-rdm,220,605547,0.0-8.103-0.103,1.0,221.0,,,,,,,[],,,,,,53.2,1.0,i,1.0,True,2391.0,144.0,60.0,40.0,False,,331.100232838308,[],"[683, 384]",ColorTask,132.0,104.0,,,HRV,HRV_0183,2022-11-30 18:41:37
,wl-rdm,221,607614,0.0-8.104-0.104,1.0,222.0,,,,,,,[],,,,,,87.9,1.0,i,1.0,True,680.4000000953674,41.0,60.0,40.0,False,,330.5715256096414,[],"[683, 384]",ColorTask,133.0,105.0,,,HRV,HRV_0183,2022-11-30 18:41:37
,wl-rdm,222,609530,0.0-8.105-0.105,1.0,223.0,,,,,,,[],,,,,,87.9,1.0,i,1.0,True,628.1000000238419,38.0,60.0,40.0,False,,216.62335411898346,[],"[683, 384]",ColorTask,134.0,106.0,,,HRV,HRV_0183,2022-11-30 18:41:37
,wl-rdm,223,612597,0.0-8.106-0.106,1.0,224.0,,,,,,,[],,,,,,56.4,0.0,u,0.0,True,1696.3999999761581,102.0,60.0,40.0,False,,299.5722796679572,[],"[683, 384]",ColorTask,135.0,107.0,,,HRV,HRV_0183,2022-11-30 18:41:37
,wl-rdm,224,615747,0.0-8.107-0.107,1.0,225.0,,,,,,,[],,,,,,50.0,0.0,u,0.0,True,1861.7000000476837,112.0,60.0,40.0,False,,211.0398284017482,[],"[683, 384]",ColorTask,136.0,108.0,,,HRV,HRV_0183,2022-11-30 18:41:37
,wl-html-button-response,225,619290,0.0-9.0-0.0,,,,,,,,,,3540.0,,0,,,,,,,,,,,,,,,,,,,,<h3>End of this session. Thank you!</h3><br>,['Close window'],HRV,HRV_0183,2022-11-30 18:41:37
