trialN,stimuli,trialStartTime,trialStartTime_UNIX,stimulus1,stimulus2,stimulus1Bid,stimulus2Bid,delta,selected,rt,rt_UNIX,rt_perfnow,receivedResponse,rsp,trialEndTime,trialDuration,trialEndTime_UNIX,trialDuration_UNIX,exp,subjectId,date
0,"[{'imgObject': {}, 'id': 'sushi w_condiments', 'src': '/static/foodstim60/sushi w_condiments.jpg', 'key': 'u', 'origWidth': 410, 'origHeight': 410, 'width': 410, 'height': 410, 'widthPercent': 0.45, 'rescaleHeight': False, 'trialN': 0, 'loaded': True, 'loadedTime': 2916.7000000029802, 'positionName': 'LEFT', 'positionCoords': [327.28, 227], 'bid': 7.13}, {'imgObject': {}, 'id': 'salad w chicken', 'src': '/static/foodstim60/salad w chicken.jpg', 'key': 'i', 'origWidth': 411, 'origHeight': 411, 'width': 411, 'height': 411, 'widthPercent': 0.45, 'rescaleHeight': False, 'trialN': 0, 'loaded': True, 'loadedTime': 2991.5, 'positionName': 'RIGHT', 'positionCoords': [798.72, 226.5], 'bid': 5.37}]",3434.2999999970198,1669835753409,sushi w_condiments,salad w chicken,7.13,5.37,-1.7599999999999998,sushi w_condiments,1338.7000000029802,1339,1339.0,True,u,5277.79999999702,1843.5,1669835755253,1844,HRV,HRV_0171,2022-11-30 19:21:38
1,"[{'imgObject': {}, 'id': 'kiwi', 'src': '/static/foodstim60/kiwi.jpg', 'key': 'u', 'origWidth': 410, 'origHeight': 410, 'width': 410, 'height': 410, 'widthPercent': 0.45, 'rescaleHeight': False, 'trialN': 1, 'loaded': True, 'loadedTime': 3024.5, 'positionName': 'LEFT', 'positionCoords': [327.28, 227], 'bid': 3.71}, {'imgObject': {}, 'id': 'baked potato', 'src': '/static/foodstim60/baked potato.jpg', 'key': 'i', 'origWidth': 409, 'origHeight': 410, 'width': 409, 'height': 410, 'widthPercent': 0.45, 'rescaleHeight': False, 'trialN': 1, 'loaded': True, 'loadedTime': 3038.0999999940395, 'positionName': 'RIGHT', 'positionCoords': [798.72, 227], 'bid': 1.35}]",5278.0,1669835755253,kiwi,baked potato,3.71,1.35,-2.36,kiwi,1055.7999999970198,1056,1056.0999999940395,True,u,6847.9000000059605,1569.9000000059605,1669835756823,1570,HRV,HRV_0171,2022-11-30 19:21:38
2,"[{'imgObject': {}, 'id': 'burrito', 'src': '/static/foodstim60/burrito.jpg', 'key': 'u', 'origWidth': 410, 'origHeight': 410, 'width': 410, 'height': 410, 'widthPercent': 0.45, 'rescaleHeight': False, 'trialN': 2, 'loaded': True, 'loadedTime': 3063.9000000059605, 'positionName': 'LEFT', 'positionCoords': [327.28, 227], 'bid': 3.78}, {'imgObject': {}, 'id': 'cherries', 'src': '/static/foodstim60/cherries.jpg', 'key': 'i', 'origWidth': 410, 'origHeight': 411, 'width': 410, 'height': 411, 'widthPercent': 0.45, 'rescaleHeight': False, 'trialN': 2, 'loaded': True, 'loadedTime': 3100.7000000029802, 'positionName': 'RIGHT', 'positionCoords': [798.72, 226.5], 'bid': 3.88}]",6848.0,1669835756823,burrito,cherries,3.78,3.88,0.10000000000000009,burrito,1158.0999999940395,1159,1158.5,True,u,8513.29999999702,1665.2999999970198,1669835758489,1666,HRV,HRV_0171,2022-11-30 19:21:38
3,"[{'imgObject': {}, 'id': 'ice cream sundae 002', 'src': '/static/foodstim60/ice cream sundae 002.jpg', 'key': 'u', 'origWidth': 409, 'origHeight': 409, 'width': 409, 'height': 409, 'widthPercent': 0.45, 'rescaleHeight': False, 'trialN': 3, 'loaded': True, 'loadedTime': 3149.5999999940395, 'positionName': 'LEFT', 'positionCoords': [328.28, 227.5], 'bid': 2.36}, {'imgObject': {}, 'id': 'yogurt no spoon', 'src': '/static/foodstim60/yogurt no spoon.jpg', 'key': 'i', 'origWidth': 411, 'origHeight': 410, 'width': 411, 'height': 410, 'widthPercent': 0.45, 'rescaleHeight': False, 'trialN': 3, 'loaded': True, 'loadedTime': 3187.7000000029802, 'positionName': 'RIGHT', 'positionCoords': [798.72, 227], 'bid': 1.8}]",8513.59999999404,1669835758489,ice cream sundae 002,yogurt no spoon,2.36,1.8,-0.5599999999999998,yogurt no spoon,984.3000000119209,984,984.6000000089407,True,i,10005.59999999404,1492.0,1669835759981,1492,HRV,HRV_0171,2022-11-30 19:21:38
4,"[{'imgObject': {}, 'id': 'seaweed', 'src': '/static/foodstim60/seaweed.jpg', 'key': 'u', 'origWidth': 410, 'origHeight': 410, 'width': 410, 'height': 410, 'widthPercent': 0.45, 'rescaleHeight': False, 'trialN': 4, 'loaded': True, 'loadedTime': 2938.4000000059605, 'positionName': 'LEFT', 'positionCoords': [327.28, 227], 'bid': 0.1}, {'imgObject': {}, 'id': 'froot loops w milk', 'src': '/static/foodstim60/froot loops w milk.jpg', 'key': 'i', 'origWidth': 410, 'origHeight': 410, 'width': 410, 'height': 410, 'widthPercent': 0.45, 'rescaleHeight': False, 'trialN': 4, 'loaded': True, 'loadedTime': 2953.9000000059605, 'positionName': 'RIGHT', 'positionCoords': [798.72, 227], 'bid': 0.16}]",10007.79999999702,1669835759983,seaweed,froot loops w milk,0.1,0.16,0.06,froot loops w milk,1004.4000000059605,1005,1005.0,True,i,11513.5,1505.7000000029802,1669835761489,1506,HRV,HRV_0171,2022-11-30 19:21:38
5,"[{'imgObject': {}, 'id': 'cantaloupe', 'src': '/static/foodstim60/cantaloupe.jpg', 'key': 'u', 'origWidth': 409, 'origHeight': 409, 'width': 409, 'height': 409, 'widthPercent': 0.45, 'rescaleHeight': False, 'trialN': 5, 'loaded': True, 'loadedTime': 2972.7000000029802, 'positionName': 'LEFT', 'positionCoords': [328.28, 227.5], 'bid': 6.45}, {'imgObject': {}, 'id': 'mashed potato', 'src': '/static/foodstim60/mashed potato.jpg', 'key': 'i', 'origWidth': 409, 'origHeight': 409, 'width': 409, 'height': 409, 'widthPercent': 0.45, 'rescaleHeight': False, 'trialN': 5, 'loaded': True, 'loadedTime': 3004.5999999940395, 'positionName': 'RIGHT', 'positionCoords': [798.72, 227.5], 'bid': 4.5}]",11513.59999999404,1669835761489,cantaloupe,mashed potato,6.45,4.5,-1.9500000000000002,mashed potato,1161.7000000029802,1162,1162.0,True,i,13189.09999999404,1675.5,1669835763164,1675,HRV,HRV_0171,2022-11-30 19:21:38
6,"[{'imgObject': {}, 'id': 'corn cob', 'src': '/static/foodstim60/corn cob.jpg', 'key': 'u', 'origWidth': 411, 'origHeight': 411, 'width': 411, 'height': 411, 'widthPercent': 0.45, 'rescaleHeight': False, 'trialN': 6, 'loaded': True, 'loadedTime': 3005.5999999940395, 'positionName': 'LEFT', 'positionCoords': [326.28, 226.5], 'bid': 0.35}, {'imgObject': {}, 'id': 'eggs', 'src': '/static/foodstim60/eggs.jpg', 'key': 'i', 'origWidth': 409, 'origHeight': 409, 'width': 409, 'height': 409, 'widthPercent': 0.45, 'rescaleHeight': False, 'trialN': 6, 'loaded': True, 'loadedTime': 3037.7999999970198, 'positionName': 'RIGHT', 'positionCoords': [798.72, 227.5], 'bid': 2.26}]",13189.29999999702,1669835763164,corn cob,eggs,0.35,2.26,1.9099999999999997,eggs,1868.4000000059605,1869,1868.7000000029802,True,i,15565.09999999404,2375.7999999970198,1669835765540,2376,HRV,HRV_0171,2022-11-30 19:21:38
7,"[{'imgObject': {}, 'id': 'shreddedwheatwithmilk', 'src': '/static/foodstim60/shreddedwheatwithmilk.jpg', 'key': 'u', 'origWidth': 410, 'origHeight': 410, 'width': 410, 'height': 410, 'widthPercent': 0.45, 'rescaleHeight': False, 'trialN': 7, 'loaded': True, 'loadedTime': 3061.7000000029802, 'positionName': 'LEFT', 'positionCoords': [327.28, 227], 'bid': 0.05}, {'imgObject': {}, 'id': 'corn cob', 'src': '/static/foodstim60/corn cob.jpg', 'key': 'i', 'origWidth': 411, 'origHeight': 411, 'width': 411, 'height': 411, 'widthPercent': 0.45, 'rescaleHeight': False, 'trialN': 7, 'loaded': True, 'loadedTime': 3006.5, 'positionName': 'RIGHT', 'positionCoords': [798.72, 226.5], 'bid': 0.35}]",15565.29999999702,1669835765540,shreddedwheatwithmilk,corn cob,0.05,0.35,0.3,shreddedwheatwithmilk,1209.2000000029802,1210,1209.7000000029802,True,u,17281.29999999702,1716.0,1669835767256,1716,HRV,HRV_0171,2022-11-30 19:21:38
8,"[{'imgObject': {}, 'id': 'seaweed', 'src': '/static/foodstim60/seaweed.jpg', 'key': 'u', 'origWidth': 410, 'origHeight': 410, 'width': 410, 'height': 410, 'widthPercent': 0.45, 'rescaleHeight': False, 'trialN': 8, 'loaded': True, 'loadedTime': 2939.4000000059605, 'positionName': 'LEFT', 'positionCoords': [327.28, 227], 'bid': 0.1}, {'imgObject': {}, 'id': 'avocado', 'src': '/static/foodstim60/avocado.jpg', 'key': 'i', 'origWidth': 409, 'origHeight': 409, 'width': 409, 'height': 409, 'widthPercent': 0.45, 'rescaleHeight': False, 'trialN': 8, 'loaded': True, 'loadedTime': 3086.2000000029802, 'positionName': 'RIGHT', 'positionCoords': [798.72, 227.5], 'bid': 0.53}]",17282.20000000298,1669835767257,seaweed,avocado,0.1,0.53,0.43000000000000005,avocado,831.0,832,831.2999999970198,True,i,18629.90000000596,1347.7000000029802,1669835768605,1348,HRV,HRV_0171,2022-11-30 19:21:38
9,"[{'imgObject': {}, 'id': 'eggs', 'src': '/static/foodstim60/eggs.jpg', 'key': 'u', 'origWidth': 409, 'origHeight': 409, 'width': 409, 'height': 409, 'widthPercent': 0.45, 'rescaleHeight': False, 'trialN': 9, 'loaded': True, 'loadedTime': 3037.7000000029802, 'positionName': 'LEFT', 'positionCoords': [328.28, 227.5], 'bid': 2.26}, {'imgObject': {}, 'id': 'rigatoni and sauce', 'src': '/static/foodstim60/rigatoni and sauce.jpg', 'key': 'i', 'origWidth': 410, 'origHeight': 411, 'width': 410, 'height': 411, 'widthPercent': 0.45, 'rescaleHeight': False, 'trialN': 9, 'loaded': True, 'loadedTime': 3088.2999999970198, 'positionName': 'RIGHT', 'positionCoords': [798.72, 226.5], 'bid': 5.41}]",18630.09999999404,1669835768605,eggs,rigatoni and sauce,2.26,5.41,3.1500000000000004,rigatoni and sauce,1209.0,1209,1209.2000000029802,True,i,20351.70000000298,1721.6000000089407,1669835770327,1722,HRV,HRV_0171,2022-11-30 19:21:38
10,"[{'imgObject': {}, 'id': 'steak', 'src': '/static/foodstim60/steak.jpg', 'key': 'u', 'origWidth': 410, 'origHeight': 410, 'width': 410, 'height': 410, 'widthPercent': 0.45, 'rescaleHeight': False, 'trialN': 10, 'loaded': True, 'loadedTime': 3101.0999999940395, 'positionName': 'LEFT', 'positionCoords': [327.28, 227], 'bid': 9.79}, {'imgObject': {}, 'id': 'tacos', 'src': '/static/foodstim60/tacos.jpg', 'key': 'i', 'origWidth': 411, 'origHeight': 411, 'width': 411, 'height': 411, 'widthPercent': 0.45, 'rescaleHeight': False, 'trialN': 10, 'loaded': True, 'loadedTime': 3125.5, 'positionName': 'RIGHT', 'positionCoords': [798.72, 226.5], 'bid': 6.96}]",20351.90000000596,1669835770327,steak,tacos,9.79,6.96,-2.829999999999999,tacos,910.8999999910593,912,911.6999999880791,True,i,21776.79999999702,1424.8999999910593,1669835771752,1425,HRV,HRV_0171,2022-11-30 19:21:38
11,"[{'imgObject': {}, 'id': 'avocado', 'src': '/static/foodstim60/avocado.jpg', 'key': 'u', 'origWidth': 409, 'origHeight': 409, 'width': 409, 'height': 409, 'widthPercent': 0.45, 'rescaleHeight': False, 'trialN': 11, 'loaded': True, 'loadedTime': 3087.0999999940395, 'positionName': 'LEFT', 'positionCoords': [328.28, 227.5], 'bid': 0.53}, {'imgObject': {}, 'id': 'banana', 'src': '/static/foodstim60/banana.jpg', 'key': 'i', 'origWidth': 410, 'origHeight': 410, 'width': 410, 'height': 410, 'widthPercent': 0.45, 'rescaleHeight': False, 'trialN': 11, 'loaded': True, 'loadedTime': 3128, 'positionName': 'RIGHT', 'positionCoords': [798.72, 227], 'bid': 2.3000000000000003}]",21776.90000000596,1669835771752,avocado,banana,0.53,2.3000000000000003,1.7700000000000002,banana,1192.8999999910593,1193,1193.2999999970198,True,i,23485.90000000596,1709.0,1669835773461,1709,HRV,HRV_0171,2022-11-30 19:21:38
12,"[{'imgObject': {}, 'id': 'olives', 'src': '/static/foodstim60/olives.jpg', 'key': 'u', 'origWidth': 410, 'origHeight': 410, 'width': 410, 'height': 410, 'widthPercent': 0.45, 'rescaleHeight': False, 'trialN': 12, 'loaded': True, 'loadedTime': 3151.0999999940395, 'positionName': 'LEFT', 'positionCoords': [327.28, 227], 'bid': 5}, {'imgObject': {}, 'id': 'tacos', 'src': '/static/foodstim60/tacos.jpg', 'key': 'i', 'origWidth': 411, 'origHeight': 411, 'width': 411, 'height': 411, 'widthPercent': 0.45, 'rescaleHeight': False, 'trialN': 12, 'loaded': True, 'loadedTime': 3126.2999999970198, 'positionName': 'RIGHT', 'positionCoords': [798.72, 226.5], 'bid': 6.96}]",23486.20000000298,1669835773461,olives,tacos,5.0,6.96,1.96,tacos,1854.2000000029802,1854,1854.7000000029802,True,i,25852.70000000298,2366.5,1669835775827,2366,HRV,HRV_0171,2022-11-30 19:21:38
13,"[{'imgObject': {}, 'id': 'eggsalad', 'src': '/static/foodstim60/eggsalad.jpg', 'key': 'u', 'origWidth': 410, 'origHeight': 409, 'width': 410, 'height': 409, 'widthPercent': 0.45, 'rescaleHeight': False, 'trialN': 13, 'loaded': True, 'loadedTime': 3162.7999999970198, 'positionName': 'LEFT', 'positionCoords': [327.28, 227.5], 'bid': 5.62}, {'imgObject': {}, 'id': 'rigatoni', 'src': '/static/foodstim60/rigatoni.jpg', 'key': 'i', 'origWidth': 411, 'origHeight': 411, 'width': 411, 'height': 411, 'widthPercent': 0.45, 'rescaleHeight': False, 'trialN': 13, 'loaded': True, 'loadedTime': 3189.5, 'positionName': 'RIGHT', 'positionCoords': [798.72, 226.5], 'bid': 4.1}]",25852.79999999702,1669835775827,eggsalad,rigatoni,5.62,4.1,-1.5200000000000005,eggsalad,1471.9000000059605,1473,1472.2000000029802,True,u,27839.59999999404,1986.7999999970198,1669835777814,1987,HRV,HRV_0171,2022-11-30 19:21:38
14,"[{'imgObject': {}, 'id': 'mac & cheese', 'src': '/static/foodstim60/mac & cheese.jpg', 'key': 'u', 'origWidth': 410, 'origHeight': 410, 'width': 410, 'height': 410, 'widthPercent': 0.45, 'rescaleHeight': False, 'trialN': 14, 'loaded': True, 'loadedTime': 3202.0999999940395, 'positionName': 'LEFT', 'positionCoords': [327.28, 227], 'bid': 7.08}, {'imgObject': {}, 'id': 'chicken nuggets2', 'src': '/static/foodstim60/chicken nuggets2.jpg', 'key': 'i', 'origWidth': 410, 'origHeight': 409, 'width': 410, 'height': 409, 'widthPercent': 0.45, 'rescaleHeight': False, 'trialN': 14, 'loaded': True, 'loadedTime': 3214.4000000059605, 'positionName': 'RIGHT', 'positionCoords': [798.72, 227.5], 'bid': 3.3000000000000003}]",27839.70000000298,1669835777814,mac & cheese,chicken nuggets2,7.08,3.3000000000000003,-3.78,mac & cheese,1544.2999999970198,1545,1544.7000000029802,True,u,29900.70000000298,2061.0,1669835779875,2061,HRV,HRV_0171,2022-11-30 19:21:38
15,"[{'imgObject': {}, 'id': 'shreddedwheatwithmilk', 'src': '/static/foodstim60/shreddedwheatwithmilk.jpg', 'key': 'u', 'origWidth': 410, 'origHeight': 410, 'width': 410, 'height': 410, 'widthPercent': 0.45, 'rescaleHeight': False, 'trialN': 15, 'loaded': True, 'loadedTime': 3062, 'positionName': 'LEFT', 'positionCoords': [327.28, 227], 'bid': 0.05}, {'imgObject': {}, 'id': 'cherries', 'src': '/static/foodstim60/cherries.jpg', 'key': 'i', 'origWidth': 410, 'origHeight': 411, 'width': 410, 'height': 411, 'widthPercent': 0.45, 'rescaleHeight': False, 'trialN': 15, 'loaded': True, 'loadedTime': 3101, 'positionName': 'RIGHT', 'positionCoords': [798.72, 226.5], 'bid': 3.88}]",29901.29999999702,1669835779876,shreddedwheatwithmilk,cherries,0.05,3.88,3.83,cherries,1497.2000000029802,1497,1497.4000000059605,True,i,31906.79999999702,2005.5,1669835781881,2005,HRV,HRV_0171,2022-11-30 19:21:38
16,"[{'imgObject': {}, 'id': 'steak', 'src': '/static/foodstim60/steak.jpg', 'key': 'u', 'origWidth': 410, 'origHeight': 410, 'width': 410, 'height': 410, 'widthPercent': 0.45, 'rescaleHeight': False, 'trialN': 16, 'loaded': True, 'loadedTime': 3111.4000000059605, 'positionName': 'LEFT', 'positionCoords': [327.28, 227], 'bid': 9.79}, {'imgObject': {}, 'id': 'hotdog w must', 'src': '/static/foodstim60/hotdog w must.jpg', 'key': 'i', 'origWidth': 409, 'origHeight': 409, 'width': 409, 'height': 409, 'widthPercent': 0.45, 'rescaleHeight': False, 'trialN': 16, 'loaded': True, 'loadedTime': 3215.7000000029802, 'positionName': 'RIGHT', 'positionCoords': [798.72, 227.5], 'bid': 5.82}]",31907.0,1669835781882,steak,hotdog w must,9.79,5.82,-3.969999999999999,steak,962.0,962,962.2999999970198,True,u,33376.59999999404,1469.5999999940395,1669835783351,1469,HRV,HRV_0171,2022-11-30 19:21:38
17,"[{'imgObject': {}, 'id': 'mango', 'src': '/static/foodstim60/mango.jpg', 'key': 'u', 'origWidth': 411, 'origHeight': 411, 'width': 411, 'height': 411, 'widthPercent': 0.45, 'rescaleHeight': False, 'trialN': 17, 'loaded': True, 'loadedTime': 3228.2999999970198, 'positionName': 'LEFT', 'positionCoords': [326.28, 226.5], 'bid': 2.69}, {'imgObject': {}, 'id': 'omelette', 'src': '/static/foodstim60/omelette.jpg', 'key': 'i', 'origWidth': 410, 'origHeight': 409, 'width': 410, 'height': 409, 'widthPercent': 0.45, 'rescaleHeight': False, 'trialN': 17, 'loaded': True, 'loadedTime': 3229.5, 'positionName': 'RIGHT', 'positionCoords': [798.72, 227.5], 'bid': 3.0500000000000003}]",33377.40000000596,1669835783352,mango,omelette,2.69,3.0500000000000003,0.3600000000000003,mango,1504.0999999940395,1504,1504.3999999910593,True,u,35400.79999999702,2023.3999999910593,1669835785375,2023,HRV,HRV_0171,2022-11-30 19:21:38
18,"[{'imgObject': {}, 'id': 'veggieswithdip', 'src': '/static/foodstim60/veggieswithdip.jpg', 'key': 'u', 'origWidth': 409, 'origHeight': 409, 'width': 409, 'height': 409, 'widthPercent': 0.45, 'rescaleHeight': False, 'trialN': 18, 'loaded': True, 'loadedTime': 3241.2999999970198, 'positionName': 'LEFT', 'positionCoords': [328.28, 227.5], 'bid': 8.02}, {'imgObject': {}, 'id': 'burger', 'src': '/static/foodstim60/burger.jpg', 'key': 'i', 'origWidth': 409, 'origHeight': 409, 'width': 409, 'height': 409, 'widthPercent': 0.45, 'rescaleHeight': False, 'trialN': 18, 'loaded': True, 'loadedTime': 3253.7999999970198, 'positionName': 'RIGHT', 'positionCoords': [798.72, 227.5], 'bid': 7.36}]",35401.0,1669835785376,veggieswithdip,burger,8.02,7.36,-0.6599999999999993,burger,1244.7000000029802,1245,1244.9000000059605,True,i,37149.0,1748.0,1669835787124,1748,HRV,HRV_0171,2022-11-30 19:21:38
19,"[{'imgObject': {}, 'id': 'fruitsalad', 'src': '/static/foodstim60/fruitsalad.jpg', 'key': 'u', 'origWidth': 410, 'origHeight': 410, 'width': 410, 'height': 410, 'widthPercent': 0.45, 'rescaleHeight': False, 'trialN': 19, 'loaded': True, 'loadedTime': 3255.0999999940395, 'positionName': 'LEFT', 'positionCoords': [327.28, 227], 'bid': 5.15}, {'imgObject': {}, 'id': 'Tribe humus pita', 'src': '/static/foodstim60/Tribe humus pita.jpg', 'key': 'i', 'origWidth': 411, 'origHeight': 411, 'width': 411, 'height': 411, 'widthPercent': 0.45, 'rescaleHeight': False, 'trialN': 19, 'loaded': True, 'loadedTime': 3267.5, 'positionName': 'RIGHT', 'positionCoords': [798.72, 226.5], 'bid': 5.29}]",37149.70000000298,1669835787124,fruitsalad,Tribe humus pita,5.15,5.29,0.13999999999999968,Tribe humus pita,1388.8999999910593,1389,1389.0999999940395,True,i,39053.70000000298,1904.0,1669835789028,1904,HRV,HRV_0171,2022-11-30 19:21:38
20,"[{'imgObject': {}, 'id': 'eggs', 'src': '/static/foodstim60/eggs.jpg', 'key': 'u', 'origWidth': 409, 'origHeight': 409, 'width': 409, 'height': 409, 'widthPercent': 0.45, 'rescaleHeight': False, 'trialN': 20, 'loaded': True, 'loadedTime': 3037.9000000059605, 'positionName': 'LEFT', 'positionCoords': [328.28, 227.5], 'bid': 2.26}, {'imgObject': {}, 'id': 'mango', 'src': '/static/foodstim60/mango.jpg', 'key': 'i', 'origWidth': 411, 'origHeight': 411, 'width': 411, 'height': 411, 'widthPercent': 0.45, 'rescaleHeight': False, 'trialN': 20, 'loaded': True, 'loadedTime': 3227.2000000029802, 'positionName': 'RIGHT', 'positionCoords': [798.72, 226.5], 'bid': 2.69}]",39053.79999999702,1669835789028,eggs,mango,2.26,2.69,0.43000000000000016,mango,1792.4000000059605,1793,1792.6000000089407,True,i,41354.59999999404,2300.7999999970198,1669835791329,2301,HRV,HRV_0171,2022-11-30 19:21:38
21,"[{'imgObject': {}, 'id': 'blueberries', 'src': '/static/foodstim60/blueberries.jpg', 'key': 'u', 'origWidth': 411, 'origHeight': 411, 'width': 411, 'height': 411, 'widthPercent': 0.45, 'rescaleHeight': False, 'trialN': 21, 'loaded': True, 'loadedTime': 3280.5999999940395, 'positionName': 'LEFT', 'positionCoords': [326.28, 226.5], 'bid': 1.52}, {'imgObject': {}, 'id': 'burrito', 'src': '/static/foodstim60/burrito.jpg', 'key': 'i', 'origWidth': 410, 'origHeight': 410, 'width': 410, 'height': 410, 'widthPercent': 0.45, 'rescaleHeight': False, 'trialN': 21, 'loaded': True, 'loadedTime': 3072.7999999970198, 'positionName': 'RIGHT', 'positionCoords': [798.72, 227], 'bid': 3.78}]",41354.79999999702,1669835791329,blueberries,burrito,1.52,3.78,2.26,burrito,1153.5,1154,1153.7999999970198,True,i,43017.59999999404,1662.7999999970198,1669835792992,1663,HRV,HRV_0171,2022-11-30 19:21:38
22,"[{'imgObject': {}, 'id': 'popsicles', 'src': '/static/foodstim60/popsicles.jpg', 'key': 'u', 'origWidth': 410, 'origHeight': 410, 'width': 410, 'height': 410, 'widthPercent': 0.45, 'rescaleHeight': False, 'trialN': 22, 'loaded': True, 'loadedTime': 3433.2000000029802, 'positionName': 'LEFT', 'positionCoords': [327.28, 227], 'bid': 2.38}, {'imgObject': {}, 'id': 'omelette', 'src': '/static/foodstim60/omelette.jpg', 'key': 'i', 'origWidth': 410, 'origHeight': 409, 'width': 410, 'height': 409, 'widthPercent': 0.45, 'rescaleHeight': False, 'trialN': 22, 'loaded': True, 'loadedTime': 3229.2000000029802, 'positionName': 'RIGHT', 'positionCoords': [798.72, 227.5], 'bid': 3.0500000000000003}]",43017.70000000298,1669835792992,popsicles,omelette,2.38,3.0500000000000003,0.6700000000000004,omelette,1523.5,1525,1524.7000000029802,True,i,45046.40000000596,2028.7000000029802,1669835795021,2029,HRV,HRV_0171,2022-11-30 19:21:38
23,"[{'imgObject': {}, 'id': 'sushi w_condiments', 'src': '/static/foodstim60/sushi w_condiments.jpg', 'key': 'u', 'origWidth': 410, 'origHeight': 410, 'width': 410, 'height': 410, 'widthPercent': 0.45, 'rescaleHeight': False, 'trialN': 23, 'loaded': True, 'loadedTime': 2907.7999999970198, 'positionName': 'LEFT', 'positionCoords': [327.28, 227], 'bid': 7.13}, {'imgObject': {}, 'id': 'hashbrowns', 'src': '/static/foodstim60/hashbrowns.jpg', 'key': 'i', 'origWidth': 411, 'origHeight': 410, 'width': 411, 'height': 410, 'widthPercent': 0.45, 'rescaleHeight': False, 'trialN': 23, 'loaded': True, 'loadedTime': 3281, 'positionName': 'RIGHT', 'positionCoords': [798.72, 227], 'bid': 5.14}]",45046.59999999404,1669835795021,sushi w_condiments,hashbrowns,7.13,5.14,-1.9900000000000002,sushi w_condiments,1629.4000000059605,1630,1629.7000000029802,True,u,47186.90000000596,2140.300000011921,1669835797161,2140,HRV,HRV_0171,2022-11-30 19:21:38
24,"[{'imgObject': {}, 'id': 'cherries', 'src': '/static/foodstim60/cherries.jpg', 'key': 'u', 'origWidth': 410, 'origHeight': 411, 'width': 410, 'height': 411, 'widthPercent': 0.45, 'rescaleHeight': False, 'trialN': 24, 'loaded': True, 'loadedTime': 3100.7999999970198, 'positionName': 'LEFT', 'positionCoords': [327.28, 226.5], 'bid': 3.88}, {'imgObject': {}, 'id': 'salad w chicken', 'src': '/static/foodstim60/salad w chicken.jpg', 'key': 'i', 'origWidth': 411, 'origHeight': 411, 'width': 411, 'height': 411, 'widthPercent': 0.45, 'rescaleHeight': False, 'trialN': 24, 'loaded': True, 'loadedTime': 2978.2000000029802, 'positionName': 'RIGHT', 'positionCoords': [798.72, 226.5], 'bid': 5.37}]",47187.09999999404,1669835797162,cherries,salad w chicken,3.88,5.37,1.4900000000000002,salad w chicken,2046.1000000089407,2046,2046.2000000029802,True,i,49742.20000000298,2555.1000000089407,1669835799717,2555,HRV,HRV_0171,2022-11-30 19:21:38
25,"[{'imgObject': {}, 'id': 'yogurt no spoon', 'src': '/static/foodstim60/yogurt no spoon.jpg', 'key': 'u', 'origWidth': 411, 'origHeight': 410, 'width': 411, 'height': 410, 'widthPercent': 0.45, 'rescaleHeight': False, 'trialN': 25, 'loaded': True, 'loadedTime': 3173.4000000059605, 'positionName': 'LEFT', 'positionCoords': [326.28, 227], 'bid': 1.8}, {'imgObject': {}, 'id': 'chickenfingers', 'src': '/static/foodstim60/chickenfingers.jpg', 'key': 'i', 'origWidth': 410, 'origHeight': 410, 'width': 410, 'height': 410, 'widthPercent': 0.45, 'rescaleHeight': False, 'trialN': 25, 'loaded': True, 'loadedTime': 3294.7999999970198, 'positionName': 'RIGHT', 'positionCoords': [798.72, 227], 'bid': 3.81}]",49742.40000000596,1669835799717,yogurt no spoon,chickenfingers,1.8,3.81,2.01,yogurt no spoon,1510.699999988079,1511,1511.0999999940395,True,u,51770.5,2028.0999999940395,1669835801745,2028,HRV,HRV_0171,2022-11-30 19:21:38
26,"[{'imgObject': {}, 'id': 'banana', 'src': '/static/foodstim60/banana.jpg', 'key': 'u', 'origWidth': 410, 'origHeight': 410, 'width': 410, 'height': 410, 'widthPercent': 0.45, 'rescaleHeight': False, 'trialN': 26, 'loaded': True, 'loadedTime': 3128.2000000029802, 'positionName': 'LEFT', 'positionCoords': [327.28, 227], 'bid': 2.3000000000000003}, {'imgObject': {}, 'id': 'omelette', 'src': '/static/foodstim60/omelette.jpg', 'key': 'i', 'origWidth': 410, 'origHeight': 409, 'width': 410, 'height': 409, 'widthPercent': 0.45, 'rescaleHeight': False, 'trialN': 26, 'loaded': True, 'loadedTime': 3229.4000000059605, 'positionName': 'RIGHT', 'positionCoords': [798.72, 227.5], 'bid': 3.0500000000000003}]",51770.70000000298,1669835801745,banana,omelette,2.3000000000000003,3.0500000000000003,0.75,banana,1661.5999999940395,1662,1661.8999999910593,True,u,53949.0,2178.2999999970198,1669835803924,2179,HRV,HRV_0171,2022-11-30 19:21:38
27,"[{'imgObject': {}, 'id': 'lox', 'src': '/static/foodstim60/lox.jpg', 'key': 'u', 'origWidth': 410, 'origHeight': 411, 'width': 410, 'height': 411, 'widthPercent': 0.45, 'rescaleHeight': False, 'trialN': 27, 'loaded': True, 'loadedTime': 3304.9000000059605, 'positionName': 'LEFT', 'positionCoords': [327.28, 226.5], 'bid': 2.34}, {'imgObject': {}, 'id': 'luckycharms', 'src': '/static/foodstim60/luckycharms.jpg', 'key': 'i', 'origWidth': 410, 'origHeight': 409, 'width': 410, 'height': 409, 'widthPercent': 0.45, 'rescaleHeight': False, 'trialN': 27, 'loaded': True, 'loadedTime': 3308.5, 'positionName': 'RIGHT', 'positionCoords': [798.72, 227.5], 'bid': 0.22}]",53949.5,1669835803924,lox,luckycharms,2.34,0.22,-2.1199999999999997,lox,1844.0999999940395,1844,1844.4000000059605,True,u,56309.59999999404,2360.0999999940395,1669835806284,2360,HRV,HRV_0171,2022-11-30 19:21:38
28,"[{'imgObject': {}, 'id': 'mango', 'src': '/static/foodstim60/mango.jpg', 'key': 'u', 'origWidth': 411, 'origHeight': 411, 'width': 411, 'height': 411, 'widthPercent': 0.45, 'rescaleHeight': False, 'trialN': 28, 'loaded': True, 'loadedTime': 3228.4000000059605, 'positionName': 'LEFT', 'positionCoords': [326.28, 226.5], 'bid': 2.69}, {'imgObject': {}, 'id': 'bagel and cc', 'src': '/static/foodstim60/bagel and cc.jpg', 'key': 'i', 'origWidth': 410, 'origHeight': 410, 'width': 410, 'height': 410, 'widthPercent': 0.45, 'rescaleHeight': False, 'trialN': 28, 'loaded': True, 'loadedTime': 3321.5, 'positionName': 'RIGHT', 'positionCoords': [798.72, 227], 'bid': 4.08}]",56309.70000000298,1669835806284,mango,bagel and cc,2.69,4.08,1.3900000000000001,bagel and cc,1210.2999999970198,1211,1210.5,True,i,58032.79999999702,1723.0999999940395,1669835808007,1723,HRV,HRV_0171,2022-11-30 19:21:38
29,"[{'imgObject': {}, 'id': 'cocktailshrimp', 'src': '/static/foodstim60/cocktailshrimp.jpg', 'key': 'u', 'origWidth': 410, 'origHeight': 410, 'width': 410, 'height': 410, 'widthPercent': 0.45, 'rescaleHeight': False, 'trialN': 29, 'loaded': True, 'loadedTime': 3323.2999999970198, 'positionName': 'LEFT', 'positionCoords': [327.28, 227], 'bid': 5.46}, {'imgObject': {}, 'id': 'rigatoni and sauce', 'src': '/static/foodstim60/rigatoni and sauce.jpg', 'key': 'i', 'origWidth': 410, 'origHeight': 411, 'width': 410, 'height': 411, 'widthPercent': 0.45, 'rescaleHeight': False, 'trialN': 29, 'loaded': True, 'loadedTime': 3087.2999999970198, 'positionName': 'RIGHT', 'positionCoords': [798.72, 226.5], 'bid': 5.41}]",58033.0,1669835808008,cocktailshrimp,rigatoni and sauce,5.46,5.41,-0.04999999999999982,rigatoni and sauce,1311.5,1311,1311.7999999970198,True,i,59854.59999999404,1821.5999999940395,1669835809829,1821,HRV,HRV_0171,2022-11-30 19:21:38
30,"[{'imgObject': {}, 'id': 'strawberries', 'src': '/static/foodstim60/strawberries.jpg', 'key': 'u', 'origWidth': 410, 'origHeight': 410, 'width': 410, 'height': 410, 'widthPercent': 0.45, 'rescaleHeight': False, 'trialN': 30, 'loaded': True, 'loadedTime': 3324.2000000029802, 'positionName': 'LEFT', 'positionCoords': [327.28, 227], 'bid': 3.99}, {'imgObject': {}, 'id': 'turkeysandwich', 'src': '/static/foodstim60/turkeysandwich.jpg', 'key': 'i', 'origWidth': 409, 'origHeight': 409, 'width': 409, 'height': 409, 'widthPercent': 0.45, 'rescaleHeight': False, 'trialN': 30, 'loaded': True, 'loadedTime': 3324.7000000029802, 'positionName': 'RIGHT', 'positionCoords': [798.72, 227.5], 'bid': 3.38}]",59854.90000000596,1669835809829,strawberries,turkeysandwich,3.99,3.38,-0.6100000000000003,turkeysandwich,1748.7999999970198,1750,1749.0999999940395,True,i,62121.09999999404,2266.199999988079,1669835812096,2267,HRV,HRV_0171,2022-11-30 19:21:38
31,"[{'imgObject': {}, 'id': 'raspberries', 'src': '/static/foodstim60/raspberries.jpg', 'key': 'u', 'origWidth': 411, 'origHeight': 411, 'width': 411, 'height': 411, 'widthPercent': 0.45, 'rescaleHeight': False, 'trialN': 31, 'loaded': True, 'loadedTime': 3337.4000000059605, 'positionName': 'LEFT', 'positionCoords': [326.28, 226.5], 'bid': 2.18}, {'imgObject': {}, 'id': 'popsicles', 'src': '/static/foodstim60/popsicles.jpg', 'key': 'i', 'origWidth': 410, 'origHeight': 410, 'width': 410, 'height': 410, 'widthPercent': 0.45, 'rescaleHeight': False, 'trialN': 31, 'loaded': True, 'loadedTime': 3433.7000000029802, 'positionName': 'RIGHT', 'positionCoords': [798.72, 227], 'bid': 2.38}]",62121.20000000298,1669835812096,raspberries,popsicles,2.18,2.38,0.19999999999999973,raspberries,1410.5,1411,1410.7999999970198,True,u,64049.20000000298,1928.0,1669835814024,1928,HRV,HRV_0171,2022-11-30 19:21:38
32,"[{'imgObject': {}, 'id': 'hashbrowns', 'src': '/static/foodstim60/hashbrowns.jpg', 'key': 'u', 'origWidth': 411, 'origHeight': 410, 'width': 411, 'height': 410, 'widthPercent': 0.45, 'rescaleHeight': False, 'trialN': 32, 'loaded': True, 'loadedTime': 3282.2000000029802, 'positionName': 'LEFT', 'positionCoords': [326.28, 227], 'bid': 5.14}, {'imgObject': {}, 'id': 'cherry tomato', 'src': '/static/foodstim60/cherry tomato.jpg', 'key': 'i', 'origWidth': 410, 'origHeight': 410, 'width': 410, 'height': 410, 'widthPercent': 0.45, 'rescaleHeight': False, 'trialN': 32, 'loaded': True, 'loadedTime': 3349.4000000059605, 'positionName': 'RIGHT', 'positionCoords': [798.72, 227], 'bid': 5.8500000000000005}]",64049.29999999702,1669835814024,hashbrowns,cherry tomato,5.14,5.8500000000000005,0.7100000000000009,cherry tomato,2321.1000000089407,2321,2321.2999999970198,True,i,66890.59999999404,2841.2999999970198,1669835816865,2841,HRV,HRV_0171,2022-11-30 19:21:38
33,"[{'imgObject': {}, 'id': 'edamame', 'src': '/static/foodstim60/edamame.jpg', 'key': 'u', 'origWidth': 409, 'origHeight': 410, 'width': 409, 'height': 410, 'widthPercent': 0.45, 'rescaleHeight': False, 'trialN': 33, 'loaded': True, 'loadedTime': 3351, 'positionName': 'LEFT', 'positionCoords': [328.28, 227], 'bid': 0.78}, {'imgObject': {}, 'id': 'raisin bran w milk', 'src': '/static/foodstim60/raisin bran w milk.jpg', 'key': 'i', 'origWidth': 411, 'origHeight': 411, 'width': 411, 'height': 411, 'widthPercent': 0.45, 'rescaleHeight': False, 'trialN': 33, 'loaded': True, 'loadedTime': 3364.9000000059605, 'positionName': 'RIGHT', 'positionCoords': [798.72, 226.5], 'bid': 0.1}]",66890.70000000298,1669835816865,edamame,raisin bran w milk,0.78,0.1,-0.68,edamame,2224.5999999940395,2225,2224.7999999970198,True,u,69621.90000000596,2731.2000000029802,1669835819596,2731,HRV,HRV_0171,2022-11-30 19:21:38
34,"[{'imgObject': {}, 'id': 'mashed potato', 'src': '/static/foodstim60/mashed potato.jpg', 'key': 'u', 'origWidth': 409, 'origHeight': 409, 'width': 409, 'height': 409, 'widthPercent': 0.45, 'rescaleHeight': False, 'trialN': 34, 'loaded': True, 'loadedTime': 3005.0999999940395, 'positionName': 'LEFT', 'positionCoords': [328.28, 227.5], 'bid': 4.5}, {'imgObject': {}, 'id': 'bagel plain', 'src': '/static/foodstim60/bagel plain.jpg', 'key': 'i', 'origWidth': 410, 'origHeight': 410, 'width': 410, 'height': 410, 'widthPercent': 0.45, 'rescaleHeight': False, 'trialN': 34, 'loaded': True, 'loadedTime': 3366, 'positionName': 'RIGHT', 'positionCoords': [798.72, 227], 'bid': 4.38}]",69622.09999999404,1669835819597,mashed potato,bagel plain,4.5,4.38,-0.1200000000000001,mashed potato,1602.2000000029802,1602,1602.4000000059605,True,u,71746.20000000298,2124.1000000089407,1669835821721,2124,HRV,HRV_0171,2022-11-30 19:21:38
35,"[{'imgObject': {}, 'id': 'kiwi', 'src': '/static/foodstim60/kiwi.jpg', 'key': 'u', 'origWidth': 410, 'origHeight': 410, 'width': 410, 'height': 410, 'widthPercent': 0.45, 'rescaleHeight': False, 'trialN': 35, 'loaded': True, 'loadedTime': 3025.0999999940395, 'positionName': 'LEFT', 'positionCoords': [327.28, 227], 'bid': 3.71}, {'imgObject': {}, 'id': 'roastedpotatoes', 'src': '/static/foodstim60/roastedpotatoes.jpg', 'key': 'i', 'origWidth': 409, 'origHeight': 410, 'width': 409, 'height': 410, 'widthPercent': 0.45, 'rescaleHeight': False, 'trialN': 35, 'loaded': True, 'loadedTime': 3366, 'positionName': 'RIGHT', 'positionCoords': [798.72, 227], 'bid': 3.75}]",71746.40000000596,1669835821721,kiwi,roastedpotatoes,3.71,3.75,0.040000000000000036,roastedpotatoes,1594.0999999940395,1594,1594.5,True,i,73859.5,2113.0999999940395,1669835823834,2113,HRV,HRV_0171,2022-11-30 19:21:38
36,"[{'imgObject': {}, 'id': 'rigatoni', 'src': '/static/foodstim60/rigatoni.jpg', 'key': 'u', 'origWidth': 411, 'origHeight': 411, 'width': 411, 'height': 411, 'widthPercent': 0.45, 'rescaleHeight': False, 'trialN': 36, 'loaded': True, 'loadedTime': 3189.2000000029802, 'positionName': 'LEFT', 'positionCoords': [326.28, 226.5], 'bid': 4.1}, {'imgObject': {}, 'id': 'apple slices', 'src': '/static/foodstim60/apple slices.jpg', 'key': 'i', 'origWidth': 409, 'origHeight': 410, 'width': 409, 'height': 410, 'widthPercent': 0.45, 'rescaleHeight': False, 'trialN': 36, 'loaded': True, 'loadedTime': 3377.5999999940395, 'positionName': 'RIGHT', 'positionCoords': [798.72, 227], 'bid': 4.25}]",73859.59999999404,1669835823834,rigatoni,apple slices,4.1,4.25,0.15000000000000036,rigatoni,1830.5,1831,1830.800000011921,True,u,76206.20000000298,2346.6000000089407,1669835826181,2347,HRV,HRV_0171,2022-11-30 19:21:38
37,"[{'imgObject': {}, 'id': 'seaweed', 'src': '/static/foodstim60/seaweed.jpg', 'key': 'u', 'origWidth': 410, 'origHeight': 410, 'width': 410, 'height': 410, 'widthPercent': 0.45, 'rescaleHeight': False, 'trialN': 37, 'loaded': True, 'loadedTime': 2952.2999999970198, 'positionName': 'LEFT', 'positionCoords': [327.28, 227], 'bid': 0.1}, {'imgObject': {}, 'id': 'shreddedwheatwithmilk', 'src': '/static/foodstim60/shreddedwheatwithmilk.jpg', 'key': 'i', 'origWidth': 410, 'origHeight': 410, 'width': 410, 'height': 410, 'widthPercent': 0.45, 'rescaleHeight': False, 'trialN': 37, 'loaded': True, 'loadedTime': 3062.2000000029802, 'positionName': 'RIGHT', 'positionCoords': [798.72, 227], 'bid': 0.05}]",76206.90000000596,1669835826181,seaweed,shreddedwheatwithmilk,0.1,0.05,-0.05,shreddedwheatwithmilk,871.5999999940395,872,871.7999999970198,True,i,77586.29999999702,1379.3999999910593,1669835827561,1380,HRV,HRV_0171,2022-11-30 19:21:38
38,"[{'imgObject': {}, 'id': 'Tribe humus pita', 'src': '/static/foodstim60/Tribe humus pita.jpg', 'key': 'u', 'origWidth': 411, 'origHeight': 411, 'width': 411, 'height': 411, 'widthPercent': 0.45, 'rescaleHeight': False, 'trialN': 38, 'loaded': True, 'loadedTime': 3268.2999999970198, 'positionName': 'LEFT', 'positionCoords': [326.28, 226.5], 'bid': 5.29}, {'imgObject': {}, 'id': 'turkey sandwich', 'src': '/static/foodstim60/turkey sandwich.jpg', 'key': 'i', 'origWidth': 409, 'origHeight': 409, 'width': 409, 'height': 409, 'widthPercent': 0.45, 'rescaleHeight': False, 'trialN': 38, 'loaded': True, 'loadedTime': 3379.4000000059605, 'positionName': 'RIGHT', 'positionCoords': [798.72, 227.5], 'bid': 8.950000000000001}]",77586.70000000298,1669835827561,Tribe humus pita,turkey sandwich,5.29,8.950000000000001,3.660000000000001,turkey sandwich,798.2000000029802,799,798.2999999970198,True,i,78896.5,1309.7999999970198,1669835828871,1310,HRV,HRV_0171,2022-11-30 19:21:38
39,"[{'imgObject': {}, 'id': 'Tribe humus pita', 'src': '/static/foodstim60/Tribe humus pita.jpg', 'key': 'u', 'origWidth': 411, 'origHeight': 411, 'width': 411, 'height': 411, 'widthPercent': 0.45, 'rescaleHeight': False, 'trialN': 39, 'loaded': True, 'loadedTime': 3268.5999999940395, 'positionName': 'LEFT', 'positionCoords': [326.28, 226.5], 'bid': 5.29}, {'imgObject': {}, 'id': 'blueberries', 'src': '/static/foodstim60/blueberries.jpg', 'key': 'i', 'origWidth': 411, 'origHeight': 411, 'width': 411, 'height': 411, 'widthPercent': 0.45, 'rescaleHeight': False, 'trialN': 39, 'loaded': True, 'loadedTime': 3281, 'positionName': 'RIGHT', 'positionCoords': [798.72, 226.5], 'bid': 1.52}]",78896.79999999702,1669835828871,Tribe humus pita,blueberries,5.29,1.52,-3.77,Tribe humus pita,1042.2000000029802,1044,1043.1000000089407,True,u,80449.79999999702,1553.0,1669835830424,1553,HRV,HRV_0171,2022-11-30 19:21:38
40,"[{'imgObject': {}, 'id': 'burger', 'src': '/static/foodstim60/burger.jpg', 'key': 'u', 'origWidth': 409, 'origHeight': 409, 'width': 409, 'height': 409, 'widthPercent': 0.45, 'rescaleHeight': False, 'trialN': 40, 'loaded': True, 'loadedTime': 3241.5999999940395, 'positionName': 'LEFT', 'positionCoords': [328.28, 227.5], 'bid': 7.36}, {'imgObject': {}, 'id': 'rigatoni and sauce', 'src': '/static/foodstim60/rigatoni and sauce.jpg', 'key': 'i', 'origWidth': 410, 'origHeight': 411, 'width': 410, 'height': 411, 'widthPercent': 0.45, 'rescaleHeight': False, 'trialN': 40, 'loaded': True, 'loadedTime': 3098, 'positionName': 'RIGHT', 'positionCoords': [798.72, 226.5], 'bid': 5.41}]",80449.90000000596,1669835830425,burger,rigatoni and sauce,7.36,5.41,-1.9500000000000002,burger,1059.7999999970198,1060,1060.0999999940395,True,u,82017.20000000298,1567.2999999970198,1669835831992,1567,HRV,HRV_0171,2022-11-30 19:21:38
41,"[{'imgObject': {}, 'id': 'strawberries', 'src': '/static/foodstim60/strawberries.jpg', 'key': 'u', 'origWidth': 410, 'origHeight': 410, 'width': 410, 'height': 410, 'widthPercent': 0.45, 'rescaleHeight': False, 'trialN': 41, 'loaded': True, 'loadedTime': 3324, 'positionName': 'LEFT', 'positionCoords': [327.28, 227], 'bid': 3.99}, {'imgObject': {}, 'id': 'cherries', 'src': '/static/foodstim60/cherries.jpg', 'key': 'i', 'origWidth': 410, 'origHeight': 411, 'width': 410, 'height': 411, 'widthPercent': 0.45, 'rescaleHeight': False, 'trialN': 41, 'loaded': True, 'loadedTime': 3101, 'positionName': 'RIGHT', 'positionCoords': [798.72, 226.5], 'bid': 3.88}]",82017.40000000596,1669835831992,strawberries,cherries,3.99,3.88,-0.11000000000000032,strawberries,1397.0,1397,1397.5,True,u,83918.40000000596,1901.0,1669835833893,1901,HRV,HRV_0171,2022-11-30 19:21:38
42,"[{'imgObject': {}, 'id': 'froot loops w milk', 'src': '/static/foodstim60/froot loops w milk.jpg', 'key': 'u', 'origWidth': 410, 'origHeight': 410, 'width': 410, 'height': 410, 'widthPercent': 0.45, 'rescaleHeight': False, 'trialN': 42, 'loaded': True, 'loadedTime': 2953.7000000029802, 'positionName': 'LEFT', 'positionCoords': [327.28, 227], 'bid': 0.16}, {'imgObject': {}, 'id': 'blueberries', 'src': '/static/foodstim60/blueberries.jpg', 'key': 'i', 'origWidth': 411, 'origHeight': 411, 'width': 411, 'height': 411, 'widthPercent': 0.45, 'rescaleHeight': False, 'trialN': 42, 'loaded': True, 'loadedTime': 3280.7999999970198, 'positionName': 'RIGHT', 'positionCoords': [798.72, 226.5], 'bid': 1.52}]",83918.79999999702,1669835833893,froot loops w milk,blueberries,0.16,1.52,1.36,froot loops w milk,2029.1000000089407,2030,2029.4000000059605,True,u,86466.40000000596,2547.6000000089407,1669835836441,2548,HRV,HRV_0171,2022-11-30 19:21:38
43,"[{'imgObject': {}, 'id': 'raspberries', 'src': '/static/foodstim60/raspberries.jpg', 'key': 'u', 'origWidth': 411, 'origHeight': 411, 'width': 411, 'height': 411, 'widthPercent': 0.45, 'rescaleHeight': False, 'trialN': 43, 'loaded': True, 'loadedTime': 3336.4000000059605, 'positionName': 'LEFT', 'positionCoords': [326.28, 226.5], 'bid': 2.18}, {'imgObject': {}, 'id': 'yogurt no spoon', 'src': '/static/foodstim60/yogurt no spoon.jpg', 'key': 'i', 'origWidth': 411, 'origHeight': 410, 'width': 411, 'height': 410, 'widthPercent': 0.45, 'rescaleHeight': False, 'trialN': 43, 'loaded': True, 'loadedTime': 3186.2000000029802, 'positionName': 'RIGHT', 'positionCoords': [798.72, 227], 'bid': 1.8}]",86466.59999999404,1669835836441,raspberries,yogurt no spoon,2.18,1.8,-0.3800000000000001,yogurt no spoon,2136.1000000089407,2137,2136.5,True,i,89113.20000000298,2646.6000000089407,1669835839088,2647,HRV,HRV_0171,2022-11-30 19:21:38
44,"[{'imgObject': {}, 'id': 'bagel plain', 'src': '/static/foodstim60/bagel plain.jpg', 'key': 'u', 'origWidth': 410, 'origHeight': 410, 'width': 410, 'height': 410, 'widthPercent': 0.45, 'rescaleHeight': False, 'trialN': 44, 'loaded': True, 'loadedTime': 3365.7999999970198, 'positionName': 'LEFT', 'positionCoords': [327.28, 227], 'bid': 4.38}, {'imgObject': {}, 'id': 'kiwi', 'src': '/static/foodstim60/kiwi.jpg', 'key': 'i', 'origWidth': 410, 'origHeight': 410, 'width': 410, 'height': 410, 'widthPercent': 0.45, 'rescaleHeight': False, 'trialN': 44, 'loaded': True, 'loadedTime': 3025.7000000029802, 'positionName': 'RIGHT', 'positionCoords': [798.72, 227], 'bid': 3.71}]",89113.29999999702,1669835839088,bagel plain,kiwi,4.38,3.71,-0.6699999999999999,bagel plain,1468.4000000059605,1468,1468.6000000089407,True,u,91088.20000000298,1974.9000000059605,1669835841063,1975,HRV,HRV_0171,2022-11-30 19:21:38
45,"[{'imgObject': {}, 'id': 'apple slices', 'src': '/static/foodstim60/apple slices.jpg', 'key': 'u', 'origWidth': 409, 'origHeight': 410, 'width': 409, 'height': 410, 'widthPercent': 0.45, 'rescaleHeight': False, 'trialN': 45, 'loaded': True, 'loadedTime': 3367.0999999940395, 'positionName': 'LEFT', 'positionCoords': [328.28, 227], 'bid': 4.25}, {'imgObject': {}, 'id': 'sweetpotato', 'src': '/static/foodstim60/sweetpotato.jpg', 'key': 'i', 'origWidth': 410, 'origHeight': 410, 'width': 410, 'height': 410, 'widthPercent': 0.45, 'rescaleHeight': False, 'trialN': 45, 'loaded': True, 'loadedTime': 3379.7999999970198, 'positionName': 'RIGHT', 'positionCoords': [798.72, 227], 'bid': 0.28}]",91088.29999999702,1669835841063,apple slices,sweetpotato,4.25,0.28,-3.9699999999999998,apple slices,1201.5,1202,1201.7999999970198,True,u,92803.09999999404,1714.7999999970198,1669835842778,1715,HRV,HRV_0171,2022-11-30 19:21:38
46,"[{'imgObject': {}, 'id': 'granola w milk', 'src': '/static/foodstim60/granola w milk.jpg', 'key': 'u', 'origWidth': 410, 'origHeight': 410, 'width': 410, 'height': 410, 'widthPercent': 0.45, 'rescaleHeight': False, 'trialN': 46, 'loaded': True, 'loadedTime': 3384.5, 'positionName': 'LEFT', 'positionCoords': [327.28, 227], 'bid': 1.04}, {'imgObject': {}, 'id': 'turkeysandwich', 'src': '/static/foodstim60/turkeysandwich.jpg', 'key': 'i', 'origWidth': 409, 'origHeight': 409, 'width': 409, 'height': 409, 'widthPercent': 0.45, 'rescaleHeight': False, 'trialN': 46, 'loaded': True, 'loadedTime': 3335.5, 'positionName': 'RIGHT', 'positionCoords': [798.72, 227.5], 'bid': 3.38}]",92803.20000000298,1669835842778,granola w milk,turkeysandwich,1.04,3.38,2.34,turkeysandwich,983.5,984,983.7999999970198,True,i,94305.59999999404,1502.3999999910593,1669835844280,1502,HRV,HRV_0171,2022-11-30 19:21:38
47,"[{'imgObject': {}, 'id': 'rigatoni', 'src': '/static/foodstim60/rigatoni.jpg', 'key': 'u', 'origWidth': 411, 'origHeight': 411, 'width': 411, 'height': 411, 'widthPercent': 0.45, 'rescaleHeight': False, 'trialN': 47, 'loaded': True, 'loadedTime': 3198.5, 'positionName': 'LEFT', 'positionCoords': [326.28, 226.5], 'bid': 4.1}, {'imgObject': {}, 'id': 'omelette', 'src': '/static/foodstim60/omelette.jpg', 'key': 'i', 'origWidth': 410, 'origHeight': 409, 'width': 410, 'height': 409, 'widthPercent': 0.45, 'rescaleHeight': False, 'trialN': 47, 'loaded': True, 'loadedTime': 3229.5999999940395, 'positionName': 'RIGHT', 'positionCoords': [798.72, 227.5], 'bid': 3.0500000000000003}]",94305.79999999702,1669835844280,rigatoni,omelette,4.1,3.0500000000000003,-1.0499999999999994,rigatoni,1193.4000000059605,1194,1193.7999999970198,True,u,96012.40000000596,1706.6000000089407,1669835845987,1707,HRV,HRV_0171,2022-11-30 19:21:38
48,"[{'imgObject': {}, 'id': 'raisin bran w milk', 'src': '/static/foodstim60/raisin bran w milk.jpg', 'key': 'u', 'origWidth': 411, 'origHeight': 411, 'width': 411, 'height': 411, 'widthPercent': 0.45, 'rescaleHeight': False, 'trialN': 48, 'loaded': True, 'loadedTime': 3363.4000000059605, 'positionName': 'LEFT', 'positionCoords': [326.28, 226.5], 'bid': 0.1}, {'imgObject': {}, 'id': 'banana', 'src': '/static/foodstim60/banana.jpg', 'key': 'i', 'origWidth': 410, 'origHeight': 410, 'width': 410, 'height': 410, 'widthPercent': 0.45, 'rescaleHeight': False, 'trialN': 48, 'loaded': True, 'loadedTime': 3137.5999999940395, 'positionName': 'RIGHT', 'positionCoords': [798.72, 227], 'bid': 2.3000000000000003}]",96012.59999999404,1669835845987,raisin bran w milk,banana,0.1,2.3000000000000003,2.2,banana,1134.300000011921,1135,1134.5,True,i,97657.0,1644.4000000059605,1669835847632,1645,HRV,HRV_0171,2022-11-30 19:21:38
49,"[{'imgObject': {}, 'id': 'froot loops w milk', 'src': '/static/foodstim60/froot loops w milk.jpg', 'key': 'u', 'origWidth': 410, 'origHeight': 410, 'width': 410, 'height': 410, 'widthPercent': 0.45, 'rescaleHeight': False, 'trialN': 49, 'loaded': True, 'loadedTime': 2959.7999999970198, 'positionName': 'LEFT', 'positionCoords': [327.28, 227], 'bid': 0.16}, {'imgObject': {}, 'id': 'rigatoni', 'src': '/static/foodstim60/rigatoni.jpg', 'key': 'i', 'origWidth': 411, 'origHeight': 411, 'width': 411, 'height': 411, 'widthPercent': 0.45, 'rescaleHeight': False, 'trialN': 49, 'loaded': True, 'loadedTime': 3189.5999999940395, 'positionName': 'RIGHT', 'positionCoords': [798.72, 226.5], 'bid': 4.1}]",97657.20000000298,1669835847632,froot loops w milk,rigatoni,0.16,4.1,3.9399999999999995,rigatoni,1189.3999999910593,1189,1189.7000000029802,True,i,99356.70000000298,1699.5,1669835849331,1699,HRV,HRV_0171,2022-11-30 19:21:38
50,"[{'imgObject': {}, 'id': 'luckycharms', 'src': '/static/foodstim60/luckycharms.jpg', 'key': 'u', 'origWidth': 410, 'origHeight': 409, 'width': 410, 'height': 409, 'widthPercent': 0.45, 'rescaleHeight': False, 'trialN': 50, 'loaded': True, 'loadedTime': 3308.9000000059605, 'positionName': 'LEFT', 'positionCoords': [327.28, 227.5], 'bid': 0.22}, {'imgObject': {}, 'id': 'corn cob', 'src': '/static/foodstim60/corn cob.jpg', 'key': 'i', 'origWidth': 411, 'origHeight': 411, 'width': 411, 'height': 411, 'widthPercent': 0.45, 'rescaleHeight': False, 'trialN': 50, 'loaded': True, 'loadedTime': 3015.2000000029802, 'positionName': 'RIGHT', 'positionCoords': [798.72, 226.5], 'bid': 0.35}]",99357.5,1669835849332,luckycharms,corn cob,0.22,0.35,0.12999999999999998,luckycharms,1347.9000000059605,1348,1348.2999999970198,True,u,101215.20000000298,1857.7000000029802,1669835851190,1858,HRV,HRV_0171,2022-11-30 19:21:38
51,"[{'imgObject': {}, 'id': 'raisin bran w milk', 'src': '/static/foodstim60/raisin bran w milk.jpg', 'key': 'u', 'origWidth': 411, 'origHeight': 411, 'width': 411, 'height': 411, 'widthPercent': 0.45, 'rescaleHeight': False, 'trialN': 51, 'loaded': True, 'loadedTime': 3364.7000000029802, 'positionName': 'LEFT', 'positionCoords': [326.28, 226.5], 'bid': 0.1}, {'imgObject': {}, 'id': 'grilled chicken strips', 'src': '/static/foodstim60/grilled chicken strips.jpg', 'key': 'i', 'origWidth': 410, 'origHeight': 411, 'width': 410, 'height': 411, 'widthPercent': 0.45, 'rescaleHeight': False, 'trialN': 51, 'loaded': True, 'loadedTime': 3390.2999999970198, 'positionName': 'RIGHT', 'positionCoords': [798.72, 226.5], 'bid': 1.43}]",101215.29999999702,1669835851190,raisin bran w milk,grilled chicken strips,0.1,1.43,1.3299999999999998,grilled chicken strips,2811.1000000089407,2811,2811.5,True,i,104536.90000000596,3321.6000000089407,1669835854511,3321,HRV,HRV_0171,2022-11-30 19:21:38
52,"[{'imgObject': {}, 'id': 'fruitsalad', 'src': '/static/foodstim60/fruitsalad.jpg', 'key': 'u', 'origWidth': 410, 'origHeight': 410, 'width': 410, 'height': 410, 'widthPercent': 0.45, 'rescaleHeight': False, 'trialN': 52, 'loaded': True, 'loadedTime': 3267.4000000059605, 'positionName': 'LEFT', 'positionCoords': [327.28, 227], 'bid': 5.15}, {'imgObject': {}, 'id': 'burger', 'src': '/static/foodstim60/burger.jpg', 'key': 'i', 'origWidth': 409, 'origHeight': 409, 'width': 409, 'height': 409, 'widthPercent': 0.45, 'rescaleHeight': False, 'trialN': 52, 'loaded': True, 'loadedTime': 3254, 'positionName': 'RIGHT', 'positionCoords': [798.72, 227.5], 'bid': 7.36}]",104537.09999999404,1669835854512,fruitsalad,burger,5.15,7.36,2.21,burger,1037.7000000029802,1037,1037.9000000059605,True,i,106085.59999999404,1548.5,1669835856060,1548,HRV,HRV_0171,2022-11-30 19:21:38
53,"[{'imgObject': {}, 'id': 'fruitsalad', 'src': '/static/foodstim60/fruitsalad.jpg', 'key': 'u', 'origWidth': 410, 'origHeight': 410, 'width': 410, 'height': 410, 'widthPercent': 0.45, 'rescaleHeight': False, 'trialN': 53, 'loaded': True, 'loadedTime': 3266.7999999970198, 'positionName': 'LEFT', 'positionCoords': [327.28, 227], 'bid': 5.15}, {'imgObject': {}, 'id': 'fried eggs', 'src': '/static/foodstim60/fried eggs.jpg', 'key': 'i', 'origWidth': 410, 'origHeight': 410, 'width': 410, 'height': 410, 'widthPercent': 0.45, 'rescaleHeight': False, 'trialN': 53, 'loaded': True, 'loadedTime': 3391.7999999970198, 'positionName': 'RIGHT', 'positionCoords': [798.72, 227], 'bid': 6.0200000000000005}]",106085.79999999702,1669835856060,fruitsalad,fried eggs,5.15,6.0200000000000005,0.8700000000000001,fried eggs,1626.9000000059605,1627,1627.2000000029802,True,i,108221.0,2135.2000000029802,1669835858195,2135,HRV,HRV_0171,2022-11-30 19:21:38
54,"[{'imgObject': {}, 'id': 'olives', 'src': '/static/foodstim60/olives.jpg', 'key': 'u', 'origWidth': 410, 'origHeight': 410, 'width': 410, 'height': 410, 'widthPercent': 0.45, 'rescaleHeight': False, 'trialN': 54, 'loaded': True, 'loadedTime': 3158.7999999970198, 'positionName': 'LEFT', 'positionCoords': [327.28, 227], 'bid': 5}, {'imgObject': {}, 'id': 'burrito', 'src': '/static/foodstim60/burrito.jpg', 'key': 'i', 'origWidth': 410, 'origHeight': 410, 'width': 410, 'height': 410, 'widthPercent': 0.45, 'rescaleHeight': False, 'trialN': 54, 'loaded': True, 'loadedTime': 3073, 'positionName': 'RIGHT', 'positionCoords': [798.72, 227], 'bid': 3.78}]",108221.20000000298,1669835858196,olives,burrito,5.0,3.78,-1.2200000000000002,olives,2133.3999999910593,2133,2133.5999999940395,True,u,110869.59999999404,2648.3999999910593,1669835860844,2648,HRV,HRV_0171,2022-11-30 19:21:38
55,"[{'imgObject': {}, 'id': 'cherry tomato', 'src': '/static/foodstim60/cherry tomato.jpg', 'key': 'u', 'origWidth': 410, 'origHeight': 410, 'width': 410, 'height': 410, 'widthPercent': 0.45, 'rescaleHeight': False, 'trialN': 55, 'loaded': True, 'loadedTime': 3349, 'positionName': 'LEFT', 'positionCoords': [327.28, 227], 'bid': 5.8500000000000005}, {'imgObject': {}, 'id': 'ice cream sundae 002', 'src': '/static/foodstim60/ice cream sundae 002.jpg', 'key': 'i', 'origWidth': 409, 'origHeight': 409, 'width': 409, 'height': 409, 'widthPercent': 0.45, 'rescaleHeight': False, 'trialN': 55, 'loaded': True, 'loadedTime': 3137.9000000059605, 'positionName': 'RIGHT', 'positionCoords': [798.72, 227.5], 'bid': 2.36}]",110870.09999999404,1669835860845,cherry tomato,ice cream sundae 002,5.8500000000000005,2.36,-3.4900000000000007,cherry tomato,1061.4000000059605,1061,1061.800000011921,True,u,112440.09999999404,1570.0,1669835862415,1570,HRV,HRV_0171,2022-11-30 19:21:38
56,"[{'imgObject': {}, 'id': 'cheerios', 'src': '/static/foodstim60/cheerios.jpg', 'key': 'u', 'origWidth': 409, 'origHeight': 410, 'width': 409, 'height': 410, 'widthPercent': 0.45, 'rescaleHeight': False, 'trialN': 56, 'loaded': True, 'loadedTime': 3404.7999999970198, 'positionName': 'LEFT', 'positionCoords': [328.28, 227], 'bid': 0.95}, {'imgObject': {}, 'id': 'baked potato', 'src': '/static/foodstim60/baked potato.jpg', 'key': 'i', 'origWidth': 409, 'origHeight': 410, 'width': 409, 'height': 410, 'widthPercent': 0.45, 'rescaleHeight': False, 'trialN': 56, 'loaded': True, 'loadedTime': 3049.9000000059605, 'positionName': 'RIGHT', 'positionCoords': [798.72, 227], 'bid': 1.35}]",112440.20000000298,1669835862415,cheerios,baked potato,0.95,1.35,0.40000000000000013,cheerios,2001.5999999940395,2002,2001.7999999970198,True,u,114957.70000000298,2517.5,1669835864932,2517,HRV,HRV_0171,2022-11-30 19:21:38
57,"[{'imgObject': {}, 'id': 'sushi w_condiments', 'src': '/static/foodstim60/sushi w_condiments.jpg', 'key': 'u', 'origWidth': 410, 'origHeight': 410, 'width': 410, 'height': 410, 'widthPercent': 0.45, 'rescaleHeight': False, 'trialN': 57, 'loaded': True, 'loadedTime': 2906.7999999970198, 'positionName': 'LEFT', 'positionCoords': [327.28, 227], 'bid': 7.13}, {'imgObject': {}, 'id': 'mac & cheese', 'src': '/static/foodstim60/mac & cheese.jpg', 'key': 'i', 'origWidth': 410, 'origHeight': 410, 'width': 410, 'height': 410, 'widthPercent': 0.45, 'rescaleHeight': False, 'trialN': 57, 'loaded': True, 'loadedTime': 3200.5999999940395, 'positionName': 'RIGHT', 'positionCoords': [798.72, 227], 'bid': 7.08}]",114958.09999999404,1669835864933,sushi w_condiments,mac & cheese,7.13,7.08,-0.04999999999999982,mac & cheese,1518.5,1518,1518.7000000029802,True,i,116984.09999999404,2026.0,1669835866959,2026,HRV,HRV_0171,2022-11-30 19:21:38
58,"[{'imgObject': {}, 'id': 'orange slices', 'src': '/static/foodstim60/orange slices.jpg', 'key': 'u', 'origWidth': 409, 'origHeight': 410, 'width': 409, 'height': 410, 'widthPercent': 0.45, 'rescaleHeight': False, 'trialN': 58, 'loaded': True, 'loadedTime': 3405.0999999940395, 'positionName': 'LEFT', 'positionCoords': [328.28, 227], 'bid': 5.19}, {'imgObject': {}, 'id': 'cantaloupe', 'src': '/static/foodstim60/cantaloupe.jpg', 'key': 'i', 'origWidth': 409, 'origHeight': 409, 'width': 409, 'height': 409, 'widthPercent': 0.45, 'rescaleHeight': False, 'trialN': 58, 'loaded': True, 'loadedTime': 2965.5, 'positionName': 'RIGHT', 'positionCoords': [798.72, 227.5], 'bid': 6.45}]",116984.40000000596,1669835866959,orange slices,cantaloupe,5.19,6.45,1.2599999999999998,orange slices,1003.0999999940395,1003,1003.3999999910593,True,u,118505.0,1520.5999999940395,1669835868479,1520,HRV,HRV_0171,2022-11-30 19:21:38
59,"[{'imgObject': {}, 'id': 'olives', 'src': '/static/foodstim60/olives.jpg', 'key': 'u', 'origWidth': 410, 'origHeight': 410, 'width': 410, 'height': 410, 'widthPercent': 0.45, 'rescaleHeight': False, 'trialN': 59, 'loaded': True, 'loadedTime': 3160.9000000059605, 'positionName': 'LEFT', 'positionCoords': [327.28, 227], 'bid': 5}, {'imgObject': {}, 'id': 'bagel plain', 'src': '/static/foodstim60/bagel plain.jpg', 'key': 'i', 'origWidth': 410, 'origHeight': 410, 'width': 410, 'height': 410, 'widthPercent': 0.45, 'rescaleHeight': False, 'trialN': 59, 'loaded': True, 'loadedTime': 3365.7999999970198, 'positionName': 'RIGHT', 'positionCoords': [798.72, 227], 'bid': 4.38}]",118505.20000000298,1669835868480,olives,bagel plain,5.0,4.38,-0.6200000000000001,olives,1731.2999999970198,1731,1731.5,True,u,120745.29999999702,2240.0999999940395,1669835870720,2240,HRV,HRV_0171,2022-11-30 19:21:38
60,"[{'imgObject': {}, 'id': 'mango', 'src': '/static/foodstim60/mango.jpg', 'key': 'u', 'origWidth': 411, 'origHeight': 411, 'width': 411, 'height': 411, 'widthPercent': 0.45, 'rescaleHeight': False, 'trialN': 60, 'loaded': True, 'loadedTime': 3228.0999999940395, 'positionName': 'LEFT', 'positionCoords': [326.28, 226.5], 'bid': 2.69}, {'imgObject': {}, 'id': 'ice cream sundae 002', 'src': '/static/foodstim60/ice cream sundae 002.jpg', 'key': 'i', 'origWidth': 409, 'origHeight': 409, 'width': 409, 'height': 409, 'widthPercent': 0.45, 'rescaleHeight': False, 'trialN': 60, 'loaded': True, 'loadedTime': 3150.0999999940395, 'positionName': 'RIGHT', 'positionCoords': [798.72, 227.5], 'bid': 2.36}]",120745.40000000596,1669835870720,mango,ice cream sundae 002,2.69,2.36,-0.33000000000000007,mango,1258.3999999910593,1259,1258.699999988079,True,u,122523.20000000298,1777.7999999970198,1669835872498,1778,HRV,HRV_0171,2022-11-30 19:21:38
61,"[{'imgObject': {}, 'id': 'blackbeanswithrice', 'src': '/static/foodstim60/blackbeanswithrice.jpg', 'key': 'u', 'origWidth': 410, 'origHeight': 410, 'width': 410, 'height': 410, 'widthPercent': 0.45, 'rescaleHeight': False, 'trialN': 61, 'loaded': True, 'loadedTime': 3410.0999999940395, 'positionName': 'LEFT', 'positionCoords': [327.28, 227], 'bid': 5.1000000000000005}, {'imgObject': {}, 'id': 'chickenfingers', 'src': '/static/foodstim60/chickenfingers.jpg', 'key': 'i', 'origWidth': 410, 'origHeight': 410, 'width': 410, 'height': 410, 'widthPercent': 0.45, 'rescaleHeight': False, 'trialN': 61, 'loaded': True, 'loadedTime': 3294.9000000059605, 'positionName': 'RIGHT', 'positionCoords': [798.72, 227], 'bid': 3.81}]",122523.29999999702,1669835872498,blackbeanswithrice,chickenfingers,5.1000000000000005,3.81,-1.2900000000000005,blackbeanswithrice,1268.2999999970198,1268,1268.6000000089407,True,u,124300.90000000596,1777.6000000089407,1669835874275,1777,HRV,HRV_0171,2022-11-30 19:21:38
62,"[{'imgObject': {}, 'id': 'sweetpotato', 'src': '/static/foodstim60/sweetpotato.jpg', 'key': 'u', 'origWidth': 410, 'origHeight': 410, 'width': 410, 'height': 410, 'widthPercent': 0.45, 'rescaleHeight': False, 'trialN': 62, 'loaded': True, 'loadedTime': 3381.7999999970198, 'positionName': 'LEFT', 'positionCoords': [327.28, 227], 'bid': 0.28}, {'imgObject': {}, 'id': 'raspberries', 'src': '/static/foodstim60/raspberries.jpg', 'key': 'i', 'origWidth': 411, 'origHeight': 411, 'width': 411, 'height': 411, 'widthPercent': 0.45, 'rescaleHeight': False, 'trialN': 62, 'loaded': True, 'loadedTime': 3337.7000000029802, 'positionName': 'RIGHT', 'positionCoords': [798.72, 226.5], 'bid': 2.18}]",124301.20000000298,1669835874276,sweetpotato,raspberries,0.28,2.18,1.9000000000000001,raspberries,1096.0999999940395,1097,1097.0999999940395,True,i,125915.20000000298,1614.0,1669835875890,1614,HRV,HRV_0171,2022-11-30 19:21:38
63,"[{'imgObject': {}, 'id': 'cantaloupe', 'src': '/static/foodstim60/cantaloupe.jpg', 'key': 'u', 'origWidth': 409, 'origHeight': 409, 'width': 409, 'height': 409, 'widthPercent': 0.45, 'rescaleHeight': False, 'trialN': 63, 'loaded': True, 'loadedTime': 2963, 'positionName': 'LEFT', 'positionCoords': [328.28, 227.5], 'bid': 6.45}, {'imgObject': {}, 'id': 'mac & cheese', 'src': '/static/foodstim60/mac & cheese.jpg', 'key': 'i', 'origWidth': 410, 'origHeight': 410, 'width': 410, 'height': 410, 'widthPercent': 0.45, 'rescaleHeight': False, 'trialN': 63, 'loaded': True, 'loadedTime': 3201.9000000059605, 'positionName': 'RIGHT', 'positionCoords': [798.72, 227], 'bid': 7.08}]",125915.29999999702,1669835875890,cantaloupe,mac & cheese,6.45,7.08,0.6299999999999999,mac & cheese,916.2999999970198,917,917.0,True,i,127342.90000000596,1427.6000000089407,1669835877317,1427,HRV,HRV_0171,2022-11-30 19:21:38
64,"[{'imgObject': {}, 'id': 'bagel plain', 'src': '/static/foodstim60/bagel plain.jpg', 'key': 'u', 'origWidth': 410, 'origHeight': 410, 'width': 410, 'height': 410, 'widthPercent': 0.45, 'rescaleHeight': False, 'trialN': 64, 'loaded': True, 'loadedTime': 3365.7999999970198, 'positionName': 'LEFT', 'positionCoords': [327.28, 227], 'bid': 4.38}, {'imgObject': {}, 'id': 'fried eggs', 'src': '/static/foodstim60/fried eggs.jpg', 'key': 'i', 'origWidth': 410, 'origHeight': 410, 'width': 410, 'height': 410, 'widthPercent': 0.45, 'rescaleHeight': False, 'trialN': 64, 'loaded': True, 'loadedTime': 3391.9000000059605, 'positionName': 'RIGHT', 'positionCoords': [798.72, 227], 'bid': 6.0200000000000005}]",127343.0,1669835877317,bagel plain,fried eggs,4.38,6.0200000000000005,1.6400000000000006,fried eggs,1227.4000000059605,1228,1227.5999999940395,True,i,129087.90000000596,1744.9000000059605,1669835879062,1745,HRV,HRV_0171,2022-11-30 19:21:38
65,"[{'imgObject': {}, 'id': 'froot loops w milk', 'src': '/static/foodstim60/froot loops w milk.jpg', 'key': 'u', 'origWidth': 410, 'origHeight': 410, 'width': 410, 'height': 410, 'widthPercent': 0.45, 'rescaleHeight': False, 'trialN': 65, 'loaded': True, 'loadedTime': 2961.9000000059605, 'positionName': 'LEFT', 'positionCoords': [327.28, 227], 'bid': 0.16}, {'imgObject': {}, 'id': 'salmon', 'src': '/static/foodstim60/salmon.jpg', 'key': 'i', 'origWidth': 410, 'origHeight': 409, 'width': 410, 'height': 409, 'widthPercent': 0.45, 'rescaleHeight': False, 'trialN': 65, 'loaded': True, 'loadedTime': 3414.2000000029802, 'positionName': 'RIGHT', 'positionCoords': [798.72, 227.5], 'bid': 2.34}]",129088.09999999404,1669835879063,froot loops w milk,salmon,0.16,2.34,2.1799999999999997,froot loops w milk,2547.300000011921,2547,2547.6000000089407,True,u,132152.20000000298,3064.1000000089407,1669835882127,3064,HRV,HRV_0171,2022-11-30 19:21:38
66,"[{'imgObject': {}, 'id': 'salmon', 'src': '/static/foodstim60/salmon.jpg', 'key': 'u', 'origWidth': 410, 'origHeight': 409, 'width': 410, 'height': 409, 'widthPercent': 0.45, 'rescaleHeight': False, 'trialN': 66, 'loaded': True, 'loadedTime': 3415.4000000059605, 'positionName': 'LEFT', 'positionCoords': [327.28, 227.5], 'bid': 2.34}, {'imgObject': {}, 'id': 'grilled chicken strips', 'src': '/static/foodstim60/grilled chicken strips.jpg', 'key': 'i', 'origWidth': 410, 'origHeight': 411, 'width': 410, 'height': 411, 'widthPercent': 0.45, 'rescaleHeight': False, 'trialN': 66, 'loaded': True, 'loadedTime': 3390.0999999940395, 'positionName': 'RIGHT', 'positionCoords': [798.72, 226.5], 'bid': 1.43}]",132152.5,1669835882127,salmon,grilled chicken strips,2.34,1.43,-0.9099999999999999,salmon,2043.2999999970198,2044,2043.5999999940395,True,u,134701.0,2548.5,1669835884675,2548,HRV,HRV_0171,2022-11-30 19:21:38
67,"[{'imgObject': {}, 'id': 'granola w milk', 'src': '/static/foodstim60/granola w milk.jpg', 'key': 'u', 'origWidth': 410, 'origHeight': 410, 'width': 410, 'height': 410, 'widthPercent': 0.45, 'rescaleHeight': False, 'trialN': 67, 'loaded': True, 'loadedTime': 3386, 'positionName': 'LEFT', 'positionCoords': [327.28, 227], 'bid': 1.04}, {'imgObject': {}, 'id': 'shreddedwheatwithmilk', 'src': '/static/foodstim60/shreddedwheatwithmilk.jpg', 'key': 'i', 'origWidth': 410, 'origHeight': 410, 'width': 410, 'height': 410, 'widthPercent': 0.45, 'rescaleHeight': False, 'trialN': 67, 'loaded': True, 'loadedTime': 3051.0999999940395, 'positionName': 'RIGHT', 'positionCoords': [798.72, 227], 'bid': 0.05}]",134701.09999999404,1669835884676,granola w milk,shreddedwheatwithmilk,1.04,0.05,-0.99,shreddedwheatwithmilk,1537.1000000089407,1537,1537.6000000089407,True,i,136749.0,2047.9000000059605,1669835886723,2047,HRV,HRV_0171,2022-11-30 19:21:38
68,"[{'imgObject': {}, 'id': 'tacos', 'src': '/static/foodstim60/tacos.jpg', 'key': 'u', 'origWidth': 411, 'origHeight': 411, 'width': 411, 'height': 411, 'widthPercent': 0.45, 'rescaleHeight': False, 'trialN': 68, 'loaded': True, 'loadedTime': 3125.7000000029802, 'positionName': 'LEFT', 'positionCoords': [326.28, 226.5], 'bid': 6.96}, {'imgObject': {}, 'id': 'Tribe humus pita', 'src': '/static/foodstim60/Tribe humus pita.jpg', 'key': 'i', 'origWidth': 411, 'origHeight': 411, 'width': 411, 'height': 411, 'widthPercent': 0.45, 'rescaleHeight': False, 'trialN': 68, 'loaded': True, 'loadedTime': 3268.7000000029802, 'positionName': 'RIGHT', 'positionCoords': [798.72, 226.5], 'bid': 5.29}]",136749.59999999404,1669835886724,tacos,Tribe humus pita,6.96,5.29,-1.67,tacos,1572.9000000059605,1573,1573.2000000029802,True,u,138839.09999999404,2089.5,1669835888814,2090,HRV,HRV_0171,2022-11-30 19:21:38
69,"[{'imgObject': {}, 'id': 'avocado', 'src': '/static/foodstim60/avocado.jpg', 'key': 'u', 'origWidth': 409, 'origHeight': 409, 'width': 409, 'height': 409, 'widthPercent': 0.45, 'rescaleHeight': False, 'trialN': 69, 'loaded': True, 'loadedTime': 3073.0999999940395, 'positionName': 'LEFT', 'positionCoords': [328.28, 227.5], 'bid': 0.53}, {'imgObject': {}, 'id': 'mango', 'src': '/static/foodstim60/mango.jpg', 'key': 'i', 'origWidth': 411, 'origHeight': 411, 'width': 411, 'height': 411, 'widthPercent': 0.45, 'rescaleHeight': False, 'trialN': 69, 'loaded': True, 'loadedTime': 3228.4000000059605, 'positionName': 'RIGHT', 'positionCoords': [798.72, 226.5], 'bid': 2.69}]",138839.20000000298,1669835888814,avocado,mango,0.53,2.69,2.16,mango,1240.5,1241,1241.3999999910593,True,i,140593.20000000298,1754.0,1669835890568,1754,HRV,HRV_0171,2022-11-30 19:21:38
70,"[{'imgObject': {}, 'id': 'fried eggs', 'src': '/static/foodstim60/fried eggs.jpg', 'key': 'u', 'origWidth': 410, 'origHeight': 410, 'width': 410, 'height': 410, 'widthPercent': 0.45, 'rescaleHeight': False, 'trialN': 70, 'loaded': True, 'loadedTime': 3392, 'positionName': 'LEFT', 'positionCoords': [327.28, 227], 'bid': 6.0200000000000005}, {'imgObject': {}, 'id': 'veggieswithdip', 'src': '/static/foodstim60/veggieswithdip.jpg', 'key': 'i', 'origWidth': 409, 'origHeight': 409, 'width': 409, 'height': 409, 'widthPercent': 0.45, 'rescaleHeight': False, 'trialN': 70, 'loaded': True, 'loadedTime': 3241.5, 'positionName': 'RIGHT', 'positionCoords': [798.72, 227.5], 'bid': 8.02}]",140593.29999999702,1669835890568,fried eggs,veggieswithdip,6.0200000000000005,8.02,1.9999999999999991,veggieswithdip,1411.9000000059605,1412,1412.0,True,i,142512.70000000298,1919.4000000059605,1669835892487,1919,HRV,HRV_0171,2022-11-30 19:21:38
71,"[{'imgObject': {}, 'id': 'rigatoni', 'src': '/static/foodstim60/rigatoni.jpg', 'key': 'u', 'origWidth': 411, 'origHeight': 411, 'width': 411, 'height': 411, 'widthPercent': 0.45, 'rescaleHeight': False, 'trialN': 71, 'loaded': True, 'loadedTime': 3188.0999999940395, 'positionName': 'LEFT', 'positionCoords': [326.28, 226.5], 'bid': 4.1}, {'imgObject': {}, 'id': 'roastedpotatoes', 'src': '/static/foodstim60/roastedpotatoes.jpg', 'key': 'i', 'origWidth': 409, 'origHeight': 410, 'width': 409, 'height': 410, 'widthPercent': 0.45, 'rescaleHeight': False, 'trialN': 71, 'loaded': True, 'loadedTime': 3366.9000000059605, 'positionName': 'RIGHT', 'positionCoords': [798.72, 227], 'bid': 3.75}]",142513.0,1669835892487,rigatoni,roastedpotatoes,4.1,3.75,-0.34999999999999964,rigatoni,1228.7000000029802,1230,1229.0,True,u,144254.5,1741.5,1669835894229,1742,HRV,HRV_0171,2022-11-30 19:21:38
72,"[{'imgObject': {}, 'id': 'corn cob', 'src': '/static/foodstim60/corn cob.jpg', 'key': 'u', 'origWidth': 411, 'origHeight': 411, 'width': 411, 'height': 411, 'widthPercent': 0.45, 'rescaleHeight': False, 'trialN': 72, 'loaded': True, 'loadedTime': 3012.5999999940395, 'positionName': 'LEFT', 'positionCoords': [326.28, 226.5], 'bid': 0.35}, {'imgObject': {}, 'id': 'popsicles', 'src': '/static/foodstim60/popsicles.jpg', 'key': 'i', 'origWidth': 410, 'origHeight': 410, 'width': 410, 'height': 410, 'widthPercent': 0.45, 'rescaleHeight': False, 'trialN': 72, 'loaded': True, 'loadedTime': 3433.4000000059605, 'positionName': 'RIGHT', 'positionCoords': [798.72, 227], 'bid': 2.38}]",144254.70000000298,1669835894229,corn cob,popsicles,0.35,2.38,2.03,popsicles,1689.8999999910593,1690,1690.0999999940395,True,i,146454.09999999404,2199.3999999910593,1669835896429,2200,HRV,HRV_0171,2022-11-30 19:21:38
73,"[{'imgObject': {}, 'id': 'blackbeanswithrice', 'src': '/static/foodstim60/blackbeanswithrice.jpg', 'key': 'u', 'origWidth': 410, 'origHeight': 410, 'width': 410, 'height': 410, 'widthPercent': 0.45, 'rescaleHeight': False, 'trialN': 73, 'loaded': True, 'loadedTime': 3410.2999999970198, 'positionName': 'LEFT', 'positionCoords': [327.28, 227], 'bid': 5.1000000000000005}, {'imgObject': {}, 'id': 'mashed potato', 'src': '/static/foodstim60/mashed potato.jpg', 'key': 'i', 'origWidth': 409, 'origHeight': 409, 'width': 409, 'height': 409, 'widthPercent': 0.45, 'rescaleHeight': False, 'trialN': 73, 'loaded': True, 'loadedTime': 2991.5999999940395, 'positionName': 'RIGHT', 'positionCoords': [798.72, 227.5], 'bid': 4.5}]",146454.29999999702,1669835896430,blackbeanswithrice,mashed potato,5.1000000000000005,4.5,-0.6000000000000005,blackbeanswithrice,1559.7999999970198,1560,1560.7000000029802,True,u,148528.29999999702,2074.0,1669835898504,2074,HRV,HRV_0171,2022-11-30 19:21:38
74,"[{'imgObject': {}, 'id': 'fruitsalad', 'src': '/static/foodstim60/fruitsalad.jpg', 'key': 'u', 'origWidth': 410, 'origHeight': 410, 'width': 410, 'height': 410, 'widthPercent': 0.45, 'rescaleHeight': False, 'trialN': 74, 'loaded': True, 'loadedTime': 3255.2000000029802, 'positionName': 'LEFT', 'positionCoords': [327.28, 227], 'bid': 5.15}, {'imgObject': {}, 'id': 'hashbrowns', 'src': '/static/foodstim60/hashbrowns.jpg', 'key': 'i', 'origWidth': 411, 'origHeight': 410, 'width': 411, 'height': 410, 'widthPercent': 0.45, 'rescaleHeight': False, 'trialN': 74, 'loaded': True, 'loadedTime': 3281.7000000029802, 'positionName': 'RIGHT', 'positionCoords': [798.72, 227], 'bid': 5.14}]",148528.5,1669835898504,fruitsalad,hashbrowns,5.15,5.14,-0.010000000000000675,hashbrowns,2684.2000000029802,2685,2684.9000000059605,True,i,151726.79999999702,3198.2999999970198,1669835901702,3198,HRV,HRV_0171,2022-11-30 19:21:38
75,"[{'imgObject': {}, 'id': 'olives', 'src': '/static/foodstim60/olives.jpg', 'key': 'u', 'origWidth': 410, 'origHeight': 410, 'width': 410, 'height': 410, 'widthPercent': 0.45, 'rescaleHeight': False, 'trialN': 75, 'loaded': True, 'loadedTime': 3151.2000000029802, 'positionName': 'LEFT', 'positionCoords': [327.28, 227], 'bid': 5}, {'imgObject': {}, 'id': 'Grapes', 'src': '/static/foodstim60/Grapes.jpg', 'key': 'i', 'origWidth': 411, 'origHeight': 411, 'width': 411, 'height': 411, 'widthPercent': 0.45, 'rescaleHeight': False, 'trialN': 75, 'loaded': True, 'loadedTime': 3417.4000000059605, 'positionName': 'RIGHT', 'positionCoords': [798.72, 226.5], 'bid': 5.37}]",151727.0,1669835901702,olives,Grapes,5.0,5.37,0.3700000000000001,olives,1282.0,1283,1282.9000000059605,True,u,153518.90000000596,1791.9000000059605,1669835903494,1792,HRV,HRV_0171,2022-11-30 19:21:38
76,"[{'imgObject': {}, 'id': 'cocktailshrimp', 'src': '/static/foodstim60/cocktailshrimp.jpg', 'key': 'u', 'origWidth': 410, 'origHeight': 410, 'width': 410, 'height': 410, 'widthPercent': 0.45, 'rescaleHeight': False, 'trialN': 76, 'loaded': True, 'loadedTime': 3323.2999999970198, 'positionName': 'LEFT', 'positionCoords': [327.28, 227], 'bid': 5.46}, {'imgObject': {}, 'id': 'bagel and cc', 'src': '/static/foodstim60/bagel and cc.jpg', 'key': 'i', 'origWidth': 410, 'origHeight': 410, 'width': 410, 'height': 410, 'widthPercent': 0.45, 'rescaleHeight': False, 'trialN': 76, 'loaded': True, 'loadedTime': 3310, 'positionName': 'RIGHT', 'positionCoords': [798.72, 227], 'bid': 4.08}]",153519.0,1669835903494,cocktailshrimp,bagel and cc,5.46,4.08,-1.38,bagel and cc,1103.7999999970198,1104,1104.0,True,i,155138.20000000298,1619.2000000029802,1669835905113,1619,HRV,HRV_0171,2022-11-30 19:21:38
77,"[{'imgObject': {}, 'id': 'fruitsalad', 'src': '/static/foodstim60/fruitsalad.jpg', 'key': 'u', 'origWidth': 410, 'origHeight': 410, 'width': 410, 'height': 410, 'widthPercent': 0.45, 'rescaleHeight': False, 'trialN': 77, 'loaded': True, 'loadedTime': 3254.2000000029802, 'positionName': 'LEFT', 'positionCoords': [327.28, 227], 'bid': 5.15}, {'imgObject': {}, 'id': 'cocktailshrimp', 'src': '/static/foodstim60/cocktailshrimp.jpg', 'key': 'i', 'origWidth': 410, 'origHeight': 410, 'width': 410, 'height': 410, 'widthPercent': 0.45, 'rescaleHeight': False, 'trialN': 77, 'loaded': True, 'loadedTime': 3323.0999999940395, 'positionName': 'RIGHT', 'positionCoords': [798.72, 227], 'bid': 5.46}]",155138.40000000596,1669835905114,fruitsalad,cocktailshrimp,5.15,5.46,0.3099999999999996,cocktailshrimp,928.5999999940395,929,929.2999999970198,True,i,156587.90000000596,1449.5,1669835906563,1449,HRV,HRV_0171,2022-11-30 19:21:38
78,"[{'imgObject': {}, 'id': 'eggsalad', 'src': '/static/foodstim60/eggsalad.jpg', 'key': 'u', 'origWidth': 410, 'origHeight': 409, 'width': 410, 'height': 409, 'widthPercent': 0.45, 'rescaleHeight': False, 'trialN': 78, 'loaded': True, 'loadedTime': 3170.0999999940395, 'positionName': 'LEFT', 'positionCoords': [327.28, 227.5], 'bid': 5.62}, {'imgObject': {}, 'id': 'mac & cheese', 'src': '/static/foodstim60/mac & cheese.jpg', 'key': 'i', 'origWidth': 410, 'origHeight': 410, 'width': 410, 'height': 410, 'widthPercent': 0.45, 'rescaleHeight': False, 'trialN': 78, 'loaded': True, 'loadedTime': 3201.9000000059605, 'positionName': 'RIGHT', 'positionCoords': [798.72, 227], 'bid': 7.08}]",156588.09999999404,1669835906563,eggsalad,mac & cheese,5.62,7.08,1.46,mac & cheese,886.8000000119209,888,887.3000000119209,True,i,157985.5,1397.4000000059605,1669835907961,1398,HRV,HRV_0171,2022-11-30 19:21:38
79,"[{'imgObject': {}, 'id': 'cantaloupe', 'src': '/static/foodstim60/cantaloupe.jpg', 'key': 'u', 'origWidth': 409, 'origHeight': 409, 'width': 409, 'height': 409, 'widthPercent': 0.45, 'rescaleHeight': False, 'trialN': 79, 'loaded': True, 'loadedTime': 2965, 'positionName': 'LEFT', 'positionCoords': [328.28, 227.5], 'bid': 6.45}, {'imgObject': {}, 'id': 'tacos', 'src': '/static/foodstim60/tacos.jpg', 'key': 'i', 'origWidth': 411, 'origHeight': 411, 'width': 411, 'height': 411, 'widthPercent': 0.45, 'rescaleHeight': False, 'trialN': 79, 'loaded': True, 'loadedTime': 3125.2000000029802, 'positionName': 'RIGHT', 'positionCoords': [798.72, 226.5], 'bid': 6.96}]",157985.70000000298,1669835907961,cantaloupe,tacos,6.45,6.96,0.5099999999999998,tacos,845.0,846,845.7999999970198,True,i,159347.0,1361.2999999970198,1669835909322,1361,HRV,HRV_0171,2022-11-30 19:21:38
80,"[{'imgObject': {}, 'id': 'cheerios', 'src': '/static/foodstim60/cheerios.jpg', 'key': 'u', 'origWidth': 409, 'origHeight': 410, 'width': 409, 'height': 410, 'widthPercent': 0.45, 'rescaleHeight': False, 'trialN': 80, 'loaded': True, 'loadedTime': 3404.9000000059605, 'positionName': 'LEFT', 'positionCoords': [328.28, 227], 'bid': 0.95}, {'imgObject': {}, 'id': 'froot loops w milk', 'src': '/static/foodstim60/froot loops w milk.jpg', 'key': 'i', 'origWidth': 410, 'origHeight': 410, 'width': 410, 'height': 410, 'widthPercent': 0.45, 'rescaleHeight': False, 'trialN': 80, 'loaded': True, 'loadedTime': 2954, 'positionName': 'RIGHT', 'positionCoords': [798.72, 227], 'bid': 0.16}]",159347.09999999404,1669835909322,cheerios,froot loops w milk,0.95,0.16,-0.7899999999999999,froot loops w milk,1291.5,1292,1291.7000000029802,True,i,161150.70000000298,1803.6000000089407,1669835911126,1804,HRV,HRV_0171,2022-11-30 19:21:38
81,"[{'imgObject': {}, 'id': 'rigatoni and sauce', 'src': '/static/foodstim60/rigatoni and sauce.jpg', 'key': 'u', 'origWidth': 410, 'origHeight': 411, 'width': 410, 'height': 411, 'widthPercent': 0.45, 'rescaleHeight': False, 'trialN': 81, 'loaded': True, 'loadedTime': 3088.5, 'positionName': 'LEFT', 'positionCoords': [327.28, 226.5], 'bid': 5.41}, {'imgObject': {}, 'id': 'strawberries', 'src': '/static/foodstim60/strawberries.jpg', 'key': 'i', 'origWidth': 410, 'origHeight': 410, 'width': 410, 'height': 410, 'widthPercent': 0.45, 'rescaleHeight': False, 'trialN': 81, 'loaded': True, 'loadedTime': 3324.4000000059605, 'positionName': 'RIGHT', 'positionCoords': [798.72, 227], 'bid': 3.99}]",161150.90000000596,1669835911126,rigatoni and sauce,strawberries,5.41,3.99,-1.42,rigatoni and sauce,974.3999999910593,975,974.6999999880791,True,u,162642.09999999404,1491.199999988079,1669835912617,1491,HRV,HRV_0171,2022-11-30 19:21:38
82,"[{'imgObject': {}, 'id': 'kiwi', 'src': '/static/foodstim60/kiwi.jpg', 'key': 'u', 'origWidth': 410, 'origHeight': 410, 'width': 410, 'height': 410, 'widthPercent': 0.45, 'rescaleHeight': False, 'trialN': 82, 'loaded': True, 'loadedTime': 3015.7000000029802, 'positionName': 'LEFT', 'positionCoords': [327.28, 227], 'bid': 3.71}, {'imgObject': {}, 'id': 'bagel and cc', 'src': '/static/foodstim60/bagel and cc.jpg', 'key': 'i', 'origWidth': 410, 'origHeight': 410, 'width': 410, 'height': 410, 'widthPercent': 0.45, 'rescaleHeight': False, 'trialN': 82, 'loaded': True, 'loadedTime': 3322.0999999940395, 'positionName': 'RIGHT', 'positionCoords': [798.72, 227], 'bid': 4.08}]",162642.20000000298,1669835912618,kiwi,bagel and cc,3.71,4.08,0.3700000000000001,bagel and cc,1171.0,1171,1171.3999999910593,True,i,164320.40000000596,1678.2000000029802,1669835914296,1678,HRV,HRV_0171,2022-11-30 19:21:38
83,"[{'imgObject': {}, 'id': 'Tribe humus pita', 'src': '/static/foodstim60/Tribe humus pita.jpg', 'key': 'u', 'origWidth': 411, 'origHeight': 411, 'width': 411, 'height': 411, 'widthPercent': 0.45, 'rescaleHeight': False, 'trialN': 83, 'loaded': True, 'loadedTime': 3268.4000000059605, 'positionName': 'LEFT', 'positionCoords': [326.28, 226.5], 'bid': 5.29}, {'imgObject': {}, 'id': 'orange slices', 'src': '/static/foodstim60/orange slices.jpg', 'key': 'i', 'origWidth': 409, 'origHeight': 410, 'width': 409, 'height': 410, 'widthPercent': 0.45, 'rescaleHeight': False, 'trialN': 83, 'loaded': True, 'loadedTime': 3406.2999999970198, 'positionName': 'RIGHT', 'positionCoords': [798.72, 227], 'bid': 5.19}]",164320.59999999404,1669835914296,Tribe humus pita,orange slices,5.29,5.19,-0.09999999999999964,Tribe humus pita,1886.9000000059605,1887,1887.300000011921,True,u,166728.79999999702,2408.2000000029802,1669835916704,2408,HRV,HRV_0171,2022-11-30 19:21:38
84,"[{'imgObject': {}, 'id': 'froot loops w milk', 'src': '/static/foodstim60/froot loops w milk.jpg', 'key': 'u', 'origWidth': 410, 'origHeight': 410, 'width': 410, 'height': 410, 'widthPercent': 0.45, 'rescaleHeight': False, 'trialN': 84, 'loaded': True, 'loadedTime': 2952.5, 'positionName': 'LEFT', 'positionCoords': [327.28, 227], 'bid': 0.16}, {'imgObject': {}, 'id': 'raisin bran w milk', 'src': '/static/foodstim60/raisin bran w milk.jpg', 'key': 'i', 'origWidth': 411, 'origHeight': 411, 'width': 411, 'height': 411, 'widthPercent': 0.45, 'rescaleHeight': False, 'trialN': 84, 'loaded': True, 'loadedTime': 3365, 'positionName': 'RIGHT', 'positionCoords': [798.72, 226.5], 'bid': 0.1}]",166729.20000000298,1669835916704,froot loops w milk,raisin bran w milk,0.16,0.1,-0.06,froot loops w milk,1192.8999999910593,1194,1193.5999999940395,True,u,168441.20000000298,1712.0,1669835918417,1713,HRV,HRV_0171,2022-11-30 19:21:38
85,"[{'imgObject': {}, 'id': 'orange slices', 'src': '/static/foodstim60/orange slices.jpg', 'key': 'u', 'origWidth': 409, 'origHeight': 410, 'width': 409, 'height': 410, 'widthPercent': 0.45, 'rescaleHeight': False, 'trialN': 85, 'loaded': True, 'loadedTime': 3407.0999999940395, 'positionName': 'LEFT', 'positionCoords': [328.28, 227], 'bid': 5.19}, {'imgObject': {}, 'id': 'grilled chicken strips', 'src': '/static/foodstim60/grilled chicken strips.jpg', 'key': 'i', 'origWidth': 410, 'origHeight': 411, 'width': 410, 'height': 411, 'widthPercent': 0.45, 'rescaleHeight': False, 'trialN': 85, 'loaded': True, 'loadedTime': 3389.7999999970198, 'positionName': 'RIGHT', 'positionCoords': [798.72, 226.5], 'bid': 1.43}]",168441.40000000596,1669835918417,orange slices,grilled chicken strips,5.19,1.43,-3.7600000000000007,orange slices,1833.3999999910593,1833,1833.699999988079,True,u,170786.70000000298,2345.2999999970198,1669835920762,2345,HRV,HRV_0171,2022-11-30 19:21:38
86,"[{'imgObject': {}, 'id': 'cherry tomato', 'src': '/static/foodstim60/cherry tomato.jpg', 'key': 'u', 'origWidth': 410, 'origHeight': 410, 'width': 410, 'height': 410, 'widthPercent': 0.45, 'rescaleHeight': False, 'trialN': 86, 'loaded': True, 'loadedTime': 3349.5, 'positionName': 'LEFT', 'positionCoords': [327.28, 227], 'bid': 5.8500000000000005}, {'imgObject': {}, 'id': 'eggsalad', 'src': '/static/foodstim60/eggsalad.jpg', 'key': 'i', 'origWidth': 410, 'origHeight': 409, 'width': 410, 'height': 409, 'widthPercent': 0.45, 'rescaleHeight': False, 'trialN': 86, 'loaded': True, 'loadedTime': 3163.9000000059605, 'positionName': 'RIGHT', 'positionCoords': [798.72, 227.5], 'bid': 5.62}]",170787.0,1669835920762,cherry tomato,eggsalad,5.8500000000000005,5.62,-0.23000000000000043,eggsalad,1279.7999999970198,1280,1280.0999999940395,True,i,172578.5,1791.5,1669835922554,1792,HRV,HRV_0171,2022-11-30 19:21:38
87,"[{'imgObject': {}, 'id': 'fried eggs', 'src': '/static/foodstim60/fried eggs.jpg', 'key': 'u', 'origWidth': 410, 'origHeight': 410, 'width': 410, 'height': 410, 'widthPercent': 0.45, 'rescaleHeight': False, 'trialN': 87, 'loaded': True, 'loadedTime': 3391.2999999970198, 'positionName': 'LEFT', 'positionCoords': [327.28, 227], 'bid': 6.0200000000000005}, {'imgObject': {}, 'id': 'cherry tomato', 'src': '/static/foodstim60/cherry tomato.jpg', 'key': 'i', 'origWidth': 410, 'origHeight': 410, 'width': 410, 'height': 410, 'widthPercent': 0.45, 'rescaleHeight': False, 'trialN': 87, 'loaded': True, 'loadedTime': 3337.7999999970198, 'positionName': 'RIGHT', 'positionCoords': [798.72, 227], 'bid': 5.8500000000000005}]",172579.29999999702,1669835922555,fried eggs,cherry tomato,6.0200000000000005,5.8500000000000005,-0.16999999999999993,cherry tomato,1812.6000000089407,1812,1812.9000000059605,True,i,174909.29999999702,2330.0,1669835924885,2330,HRV,HRV_0171,2022-11-30 19:21:38
88,"[{'imgObject': {}, 'id': 'tacos', 'src': '/static/foodstim60/tacos.jpg', 'key': 'u', 'origWidth': 411, 'origHeight': 411, 'width': 411, 'height': 411, 'widthPercent': 0.45, 'rescaleHeight': False, 'trialN': 88, 'loaded': True, 'loadedTime': 3126, 'positionName': 'LEFT', 'positionCoords': [326.28, 226.5], 'bid': 6.96}, {'imgObject': {}, 'id': 'sushi w_condiments', 'src': '/static/foodstim60/sushi w_condiments.jpg', 'key': 'i', 'origWidth': 410, 'origHeight': 410, 'width': 410, 'height': 410, 'widthPercent': 0.45, 'rescaleHeight': False, 'trialN': 88, 'loaded': True, 'loadedTime': 2868.5, 'positionName': 'RIGHT', 'positionCoords': [798.72, 227], 'bid': 7.13}]",174909.40000000596,1669835924885,tacos,sushi w_condiments,6.96,7.13,0.16999999999999993,tacos,1146.2999999970198,1146,1146.7999999970198,True,u,176574.90000000596,1665.5,1669835926550,1665,HRV,HRV_0171,2022-11-30 19:21:38
89,"[{'imgObject': {}, 'id': 'cheerios', 'src': '/static/foodstim60/cheerios.jpg', 'key': 'u', 'origWidth': 409, 'origHeight': 410, 'width': 409, 'height': 410, 'widthPercent': 0.45, 'rescaleHeight': False, 'trialN': 89, 'loaded': True, 'loadedTime': 3404.2000000029802, 'positionName': 'LEFT', 'positionCoords': [328.28, 227], 'bid': 0.95}, {'imgObject': {}, 'id': 'lox', 'src': '/static/foodstim60/lox.jpg', 'key': 'i', 'origWidth': 410, 'origHeight': 411, 'width': 410, 'height': 411, 'widthPercent': 0.45, 'rescaleHeight': False, 'trialN': 89, 'loaded': True, 'loadedTime': 3295.9000000059605, 'positionName': 'RIGHT', 'positionCoords': [798.72, 226.5], 'bid': 2.34}]",176575.70000000298,1669835926551,cheerios,lox,0.95,2.34,1.39,lox,1429.7999999970198,1430,1430.2000000029802,True,i,178509.5,1933.7999999970198,1669835928485,1934,HRV,HRV_0171,2022-11-30 19:21:38
90,"[{'imgObject': {}, 'id': 'cantaloupe', 'src': '/static/foodstim60/cantaloupe.jpg', 'key': 'u', 'origWidth': 409, 'origHeight': 409, 'width': 409, 'height': 409, 'widthPercent': 0.45, 'rescaleHeight': False, 'trialN': 90, 'loaded': True, 'loadedTime': 2975.4000000059605, 'positionName': 'LEFT', 'positionCoords': [328.28, 227.5], 'bid': 6.45}, {'imgObject': {}, 'id': 'mango', 'src': '/static/foodstim60/mango.jpg', 'key': 'i', 'origWidth': 411, 'origHeight': 411, 'width': 411, 'height': 411, 'widthPercent': 0.45, 'rescaleHeight': False, 'trialN': 90, 'loaded': True, 'loadedTime': 3228.2000000029802, 'positionName': 'RIGHT', 'positionCoords': [798.72, 226.5], 'bid': 2.69}]",181391.5,1669835931367,cantaloupe,mango,6.45,2.69,-3.7600000000000002,mango,2079.7000000029802,2080,2080.0,True,i,183976.90000000596,2585.4000000059605,1669835933952,2585,HRV,HRV_0171,2022-11-30 19:21:38
91,"[{'imgObject': {}, 'id': 'baked potato', 'src': '/static/foodstim60/baked potato.jpg', 'key': 'u', 'origWidth': 409, 'origHeight': 410, 'width': 409, 'height': 410, 'widthPercent': 0.45, 'rescaleHeight': False, 'trialN': 91, 'loaded': True, 'loadedTime': 3049.0999999940395, 'positionName': 'LEFT', 'positionCoords': [328.28, 227], 'bid': 1.35}, {'imgObject': {}, 'id': 'fruitsalad', 'src': '/static/foodstim60/fruitsalad.jpg', 'key': 'i', 'origWidth': 410, 'origHeight': 410, 'width': 410, 'height': 410, 'widthPercent': 0.45, 'rescaleHeight': False, 'trialN': 91, 'loaded': True, 'loadedTime': 3267.2999999970198, 'positionName': 'RIGHT', 'positionCoords': [798.72, 227], 'bid': 5.15}]",183976.90000000596,1669835933952,baked potato,fruitsalad,1.35,5.15,3.8000000000000003,fruitsalad,896.7999999970198,897,897.0999999940395,True,i,185385.29999999702,1408.3999999910593,1669835935361,1409,HRV,HRV_0171,2022-11-30 19:21:38
92,"[{'imgObject': {}, 'id': 'salad w chicken', 'src': '/static/foodstim60/salad w chicken.jpg', 'key': 'u', 'origWidth': 411, 'origHeight': 411, 'width': 411, 'height': 411, 'widthPercent': 0.45, 'rescaleHeight': False, 'trialN': 92, 'loaded': True, 'loadedTime': 2991.4000000059605, 'positionName': 'LEFT', 'positionCoords': [326.28, 226.5], 'bid': 5.37}, {'imgObject': {}, 'id': 'blackbeanswithrice', 'src': '/static/foodstim60/blackbeanswithrice.jpg', 'key': 'i', 'origWidth': 410, 'origHeight': 410, 'width': 410, 'height': 410, 'widthPercent': 0.45, 'rescaleHeight': False, 'trialN': 92, 'loaded': True, 'loadedTime': 3410.0999999940395, 'positionName': 'RIGHT', 'positionCoords': [798.72, 227], 'bid': 5.1000000000000005}]",185385.59999999404,1669835935361,salad w chicken,blackbeanswithrice,5.37,5.1000000000000005,-0.2699999999999996,blackbeanswithrice,1776.1000000089407,1776,1776.4000000059605,True,i,187677.59999999404,2292.0,1669835937653,2292,HRV,HRV_0171,2022-11-30 19:21:38
93,"[{'imgObject': {}, 'id': 'lox', 'src': '/static/foodstim60/lox.jpg', 'key': 'u', 'origWidth': 410, 'origHeight': 411, 'width': 410, 'height': 411, 'widthPercent': 0.45, 'rescaleHeight': False, 'trialN': 93, 'loaded': True, 'loadedTime': 3295.7000000029802, 'positionName': 'LEFT', 'positionCoords': [327.28, 226.5], 'bid': 2.34}, {'imgObject': {}, 'id': 'salmon', 'src': '/static/foodstim60/salmon.jpg', 'key': 'i', 'origWidth': 410, 'origHeight': 409, 'width': 410, 'height': 409, 'widthPercent': 0.45, 'rescaleHeight': False, 'trialN': 93, 'loaded': True, 'loadedTime': 3413.2999999970198, 'positionName': 'RIGHT', 'positionCoords': [798.72, 227.5], 'bid': 2.34}]",187677.79999999702,1669835937653,lox,salmon,2.34,2.34,0.0,lox,1504.2999999970198,1505,1504.5,True,u,189692.79999999702,2015.0,1669835939668,2015,HRV,HRV_0171,2022-11-30 19:21:38
94,"[{'imgObject': {}, 'id': 'granola w milk', 'src': '/static/foodstim60/granola w milk.jpg', 'key': 'u', 'origWidth': 410, 'origHeight': 410, 'width': 410, 'height': 410, 'widthPercent': 0.45, 'rescaleHeight': False, 'trialN': 94, 'loaded': True, 'loadedTime': 3385.5, 'positionName': 'LEFT', 'positionCoords': [327.28, 227], 'bid': 1.04}, {'imgObject': {}, 'id': 'luckycharms', 'src': '/static/foodstim60/luckycharms.jpg', 'key': 'i', 'origWidth': 410, 'origHeight': 409, 'width': 410, 'height': 409, 'widthPercent': 0.45, 'rescaleHeight': False, 'trialN': 94, 'loaded': True, 'loadedTime': 3307.5, 'positionName': 'RIGHT', 'positionCoords': [798.72, 227.5], 'bid': 0.22}]",189693.59999999404,1669835939669,granola w milk,luckycharms,1.04,0.22,-0.8200000000000001,luckycharms,929.0,930,930.2000000029802,True,i,191136.79999999702,1443.2000000029802,1669835941112,1443,HRV,HRV_0171,2022-11-30 19:21:38
95,"[{'imgObject': {}, 'id': 'popsicles', 'src': '/static/foodstim60/popsicles.jpg', 'key': 'u', 'origWidth': 410, 'origHeight': 410, 'width': 410, 'height': 410, 'widthPercent': 0.45, 'rescaleHeight': False, 'trialN': 95, 'loaded': True, 'loadedTime': 3432.0999999940395, 'positionName': 'LEFT', 'positionCoords': [327.28, 227], 'bid': 2.38}, {'imgObject': {}, 'id': 'fried eggs', 'src': '/static/foodstim60/fried eggs.jpg', 'key': 'i', 'origWidth': 410, 'origHeight': 410, 'width': 410, 'height': 410, 'widthPercent': 0.45, 'rescaleHeight': False, 'trialN': 95, 'loaded': True, 'loadedTime': 3391.5, 'positionName': 'RIGHT', 'positionCoords': [798.72, 227], 'bid': 6.0200000000000005}]",191136.90000000596,1669835941112,popsicles,fried eggs,2.38,6.0200000000000005,3.6400000000000006,fried eggs,722.0,723,722.8999999910593,True,i,192370.5,1233.5999999940395,1669835942346,1234,HRV,HRV_0171,2022-11-30 19:21:38
96,"[{'imgObject': {}, 'id': 'turkey sandwich', 'src': '/static/foodstim60/turkey sandwich.jpg', 'key': 'u', 'origWidth': 409, 'origHeight': 409, 'width': 409, 'height': 409, 'widthPercent': 0.45, 'rescaleHeight': False, 'trialN': 96, 'loaded': True, 'loadedTime': 3379.7999999970198, 'positionName': 'LEFT', 'positionCoords': [328.28, 227.5], 'bid': 8.950000000000001}, {'imgObject': {}, 'id': 'burrito', 'src': '/static/foodstim60/burrito.jpg', 'key': 'i', 'origWidth': 410, 'origHeight': 410, 'width': 410, 'height': 410, 'widthPercent': 0.45, 'rescaleHeight': False, 'trialN': 96, 'loaded': True, 'loadedTime': 3072.2000000029802, 'positionName': 'RIGHT', 'positionCoords': [798.72, 227], 'bid': 3.78}]",192370.79999999702,1669835942346,turkey sandwich,burrito,8.950000000000001,3.78,-5.170000000000002,turkey sandwich,766.0,766,766.4000000059605,True,u,193654.59999999404,1283.7999999970198,1669835943630,1284,HRV,HRV_0171,2022-11-30 19:21:38
97,"[{'imgObject': {}, 'id': 'hotdog w must', 'src': '/static/foodstim60/hotdog w must.jpg', 'key': 'u', 'origWidth': 409, 'origHeight': 409, 'width': 409, 'height': 409, 'widthPercent': 0.45, 'rescaleHeight': False, 'trialN': 97, 'loaded': True, 'loadedTime': 3214.7000000029802, 'positionName': 'LEFT', 'positionCoords': [328.28, 227.5], 'bid': 5.82}, {'imgObject': {}, 'id': 'pear', 'src': '/static/foodstim60/pear.jpg', 'key': 'i', 'origWidth': 411, 'origHeight': 410, 'width': 411, 'height': 410, 'widthPercent': 0.45, 'rescaleHeight': False, 'trialN': 97, 'loaded': True, 'loadedTime': 3419.7999999970198, 'positionName': 'RIGHT', 'positionCoords': [798.72, 227], 'bid': 4.23}]",193655.40000000596,1669835943631,hotdog w must,pear,5.82,4.23,-1.5899999999999999,hotdog w must,1449.699999988079,1451,1451.5,True,u,195618.5,1963.0999999940395,1669835945594,1963,HRV,HRV_0171,2022-11-30 19:21:38
98,"[{'imgObject': {}, 'id': 'raisin bran w milk', 'src': '/static/foodstim60/raisin bran w milk.jpg', 'key': 'u', 'origWidth': 411, 'origHeight': 411, 'width': 411, 'height': 411, 'widthPercent': 0.45, 'rescaleHeight': False, 'trialN': 98, 'loaded': True, 'loadedTime': 3364.5, 'positionName': 'LEFT', 'positionCoords': [326.28, 226.5], 'bid': 0.1}, {'imgObject': {}, 'id': 'shreddedwheatwithmilk', 'src': '/static/foodstim60/shreddedwheatwithmilk.jpg', 'key': 'i', 'origWidth': 410, 'origHeight': 410, 'width': 410, 'height': 410, 'widthPercent': 0.45, 'rescaleHeight': False, 'trialN': 98, 'loaded': True, 'loadedTime': 3060.4000000059605, 'positionName': 'RIGHT', 'positionCoords': [798.72, 227], 'bid': 0.05}]",195618.59999999404,1669835945594,raisin bran w milk,shreddedwheatwithmilk,0.1,0.05,-0.05,shreddedwheatwithmilk,1246.4000000059605,1247,1246.9000000059605,True,i,197376.29999999702,1757.7000000029802,1669835947351,1757,HRV,HRV_0171,2022-11-30 19:21:38
99,"[{'imgObject': {}, 'id': 'cheerios', 'src': '/static/foodstim60/cheerios.jpg', 'key': 'u', 'origWidth': 409, 'origHeight': 410, 'width': 409, 'height': 410, 'widthPercent': 0.45, 'rescaleHeight': False, 'trialN': 99, 'loaded': True, 'loadedTime': 3404.9000000059605, 'positionName': 'LEFT', 'positionCoords': [328.28, 227], 'bid': 0.95}, {'imgObject': {}, 'id': 'chicken nuggets2', 'src': '/static/foodstim60/chicken nuggets2.jpg', 'key': 'i', 'origWidth': 410, 'origHeight': 409, 'width': 410, 'height': 409, 'widthPercent': 0.45, 'rescaleHeight': False, 'trialN': 99, 'loaded': True, 'loadedTime': 3213.9000000059605, 'positionName': 'RIGHT', 'positionCoords': [798.72, 227.5], 'bid': 3.3000000000000003}]",197376.90000000596,1669835947352,cheerios,chicken nuggets2,0.95,3.3000000000000003,2.3500000000000005,chicken nuggets2,2100.3999999910593,2102,2101.3999999910593,True,i,199988.90000000596,2612.0,1669835949964,2612,HRV,HRV_0171,2022-11-30 19:21:38
100,"[{'imgObject': {}, 'id': 'hashbrowns', 'src': '/static/foodstim60/hashbrowns.jpg', 'key': 'u', 'origWidth': 411, 'origHeight': 410, 'width': 411, 'height': 410, 'widthPercent': 0.45, 'rescaleHeight': False, 'trialN': 100, 'loaded': True, 'loadedTime': 3281.9000000059605, 'positionName': 'LEFT', 'positionCoords': [326.28, 227], 'bid': 5.14}, {'imgObject': {}, 'id': 'orange slices', 'src': '/static/foodstim60/orange slices.jpg', 'key': 'i', 'origWidth': 409, 'origHeight': 410, 'width': 409, 'height': 410, 'widthPercent': 0.45, 'rescaleHeight': False, 'trialN': 100, 'loaded': True, 'loadedTime': 3407.2999999970198, 'positionName': 'RIGHT', 'positionCoords': [798.72, 227], 'bid': 5.19}]",199989.0,1669835949964,hashbrowns,orange slices,5.14,5.19,0.05000000000000071,hashbrowns,1220.2000000029802,1221,1220.4000000059605,True,u,201726.40000000596,1737.4000000059605,1669835951702,1738,HRV,HRV_0171,2022-11-30 19:21:38
101,"[{'imgObject': {}, 'id': 'bagel and cc', 'src': '/static/foodstim60/bagel and cc.jpg', 'key': 'u', 'origWidth': 410, 'origHeight': 410, 'width': 410, 'height': 410, 'widthPercent': 0.45, 'rescaleHeight': False, 'trialN': 101, 'loaded': True, 'loadedTime': 3309, 'positionName': 'LEFT', 'positionCoords': [327.28, 227], 'bid': 4.08}, {'imgObject': {}, 'id': 'rigatoni', 'src': '/static/foodstim60/rigatoni.jpg', 'key': 'i', 'origWidth': 411, 'origHeight': 411, 'width': 411, 'height': 411, 'widthPercent': 0.45, 'rescaleHeight': False, 'trialN': 101, 'loaded': True, 'loadedTime': 3189.7000000029802, 'positionName': 'RIGHT', 'positionCoords': [798.72, 226.5], 'bid': 4.1}]",201726.79999999702,1669835951702,bagel and cc,rigatoni,4.08,4.1,0.019999999999999574,rigatoni,2042.4000000059605,2043,2042.7000000029802,True,i,204275.79999999702,2549.0,1669835954251,2549,HRV,HRV_0171,2022-11-30 19:21:38
102,"[{'imgObject': {}, 'id': 'burger', 'src': '/static/foodstim60/burger.jpg', 'key': 'u', 'origWidth': 409, 'origHeight': 409, 'width': 409, 'height': 409, 'widthPercent': 0.45, 'rescaleHeight': False, 'trialN': 102, 'loaded': True, 'loadedTime': 3251.5, 'positionName': 'LEFT', 'positionCoords': [328.28, 227.5], 'bid': 7.36}, {'imgObject': {}, 'id': 'cherry tomato', 'src': '/static/foodstim60/cherry tomato.jpg', 'key': 'i', 'origWidth': 410, 'origHeight': 410, 'width': 410, 'height': 410, 'widthPercent': 0.45, 'rescaleHeight': False, 'trialN': 102, 'loaded': True, 'loadedTime': 3349.2999999970198, 'positionName': 'RIGHT', 'positionCoords': [798.72, 227], 'bid': 5.8500000000000005}]",204275.90000000596,1669835954251,burger,cherry tomato,7.36,5.8500000000000005,-1.5099999999999998,burger,881.0,881,881.2999999970198,True,u,205670.59999999404,1394.699999988079,1669835955646,1395,HRV,HRV_0171,2022-11-30 19:21:38
103,"[{'imgObject': {}, 'id': 'bagel and cc', 'src': '/static/foodstim60/bagel and cc.jpg', 'key': 'u', 'origWidth': 410, 'origHeight': 410, 'width': 410, 'height': 410, 'widthPercent': 0.45, 'rescaleHeight': False, 'trialN': 103, 'loaded': True, 'loadedTime': 3321.9000000059605, 'positionName': 'LEFT', 'positionCoords': [327.28, 227], 'bid': 4.08}, {'imgObject': {}, 'id': 'raisin bran w milk', 'src': '/static/foodstim60/raisin bran w milk.jpg', 'key': 'i', 'origWidth': 411, 'origHeight': 411, 'width': 411, 'height': 411, 'widthPercent': 0.45, 'rescaleHeight': False, 'trialN': 103, 'loaded': True, 'loadedTime': 3364.7000000029802, 'positionName': 'RIGHT', 'positionCoords': [798.72, 226.5], 'bid': 0.1}]",205670.90000000596,1669835955646,bagel and cc,raisin bran w milk,4.08,0.1,-3.98,bagel and cc,978.5,979,979.1999999880791,True,u,207160.20000000298,1489.2999999970198,1669835957135,1489,HRV,HRV_0171,2022-11-30 19:21:38
104,"[{'imgObject': {}, 'id': 'strawberries', 'src': '/static/foodstim60/strawberries.jpg', 'key': 'u', 'origWidth': 410, 'origHeight': 410, 'width': 410, 'height': 410, 'widthPercent': 0.45, 'rescaleHeight': False, 'trialN': 104, 'loaded': True, 'loadedTime': 3324.4000000059605, 'positionName': 'LEFT', 'positionCoords': [327.28, 227], 'bid': 3.99}, {'imgObject': {}, 'id': 'seaweed', 'src': '/static/foodstim60/seaweed.jpg', 'key': 'i', 'origWidth': 410, 'origHeight': 410, 'width': 410, 'height': 410, 'widthPercent': 0.45, 'rescaleHeight': False, 'trialN': 104, 'loaded': True, 'loadedTime': 2951.5999999940395, 'positionName': 'RIGHT', 'positionCoords': [798.72, 227], 'bid': 0.1}]",207160.29999999702,1669835957135,strawberries,seaweed,3.99,0.1,-3.89,strawberries,819.6000000089407,820,820.4000000059605,True,u,208491.59999999404,1331.2999999970198,1669835958466,1331,HRV,HRV_0171,2022-11-30 19:21:38
105,"[{'imgObject': {}, 'id': 'roastedpotatoes', 'src': '/static/foodstim60/roastedpotatoes.jpg', 'key': 'u', 'origWidth': 409, 'origHeight': 410, 'width': 409, 'height': 410, 'widthPercent': 0.45, 'rescaleHeight': False, 'trialN': 105, 'loaded': True, 'loadedTime': 3366.7999999970198, 'positionName': 'LEFT', 'positionCoords': [328.28, 227], 'bid': 3.75}, {'imgObject': {}, 'id': 'veggieswithdip', 'src': '/static/foodstim60/veggieswithdip.jpg', 'key': 'i', 'origWidth': 409, 'origHeight': 409, 'width': 409, 'height': 409, 'widthPercent': 0.45, 'rescaleHeight': False, 'trialN': 105, 'loaded': True, 'loadedTime': 3240.5, 'positionName': 'RIGHT', 'positionCoords': [798.72, 227.5], 'bid': 8.02}]",208491.90000000596,1669835958466,roastedpotatoes,veggieswithdip,3.75,8.02,4.27,veggieswithdip,1316.3999999910593,1317,1316.699999988079,True,i,210326.90000000596,1835.0,1669835960301,1835,HRV,HRV_0171,2022-11-30 19:21:38
106,"[{'imgObject': {}, 'id': 'steak', 'src': '/static/foodstim60/steak.jpg', 'key': 'u', 'origWidth': 410, 'origHeight': 410, 'width': 410, 'height': 410, 'widthPercent': 0.45, 'rescaleHeight': False, 'trialN': 106, 'loaded': True, 'loadedTime': 3112.7000000029802, 'positionName': 'LEFT', 'positionCoords': [327.28, 227], 'bid': 9.79}, {'imgObject': {}, 'id': 'chickenfingers', 'src': '/static/foodstim60/chickenfingers.jpg', 'key': 'i', 'origWidth': 410, 'origHeight': 410, 'width': 410, 'height': 410, 'widthPercent': 0.45, 'rescaleHeight': False, 'trialN': 106, 'loaded': True, 'loadedTime': 3294.7000000029802, 'positionName': 'RIGHT', 'positionCoords': [798.72, 227], 'bid': 3.81}]",210327.70000000298,1669835960302,steak,chickenfingers,9.79,3.81,-5.979999999999999,steak,756.2999999970198,757,756.5,True,u,211594.79999999702,1267.0999999940395,1669835961569,1267,HRV,HRV_0171,2022-11-30 19:21:38
107,"[{'imgObject': {}, 'id': 'blackbeanswithrice', 'src': '/static/foodstim60/blackbeanswithrice.jpg', 'key': 'u', 'origWidth': 410, 'origHeight': 410, 'width': 410, 'height': 410, 'widthPercent': 0.45, 'rescaleHeight': False, 'trialN': 107, 'loaded': True, 'loadedTime': 3409.7000000029802, 'positionName': 'LEFT', 'positionCoords': [327.28, 227], 'bid': 5.1000000000000005}, {'imgObject': {}, 'id': 'olives', 'src': '/static/foodstim60/olives.jpg', 'key': 'i', 'origWidth': 410, 'origHeight': 410, 'width': 410, 'height': 410, 'widthPercent': 0.45, 'rescaleHeight': False, 'trialN': 107, 'loaded': True, 'loadedTime': 3151.2000000029802, 'positionName': 'RIGHT', 'positionCoords': [798.72, 227], 'bid': 5}]",211595.09999999404,1669835961569,blackbeanswithrice,olives,5.1000000000000005,5.0,-0.10000000000000053,olives,1379.6000000089407,1380,1379.9000000059605,True,i,213481.20000000298,1886.1000000089407,1669835963456,1887,HRV,HRV_0171,2022-11-30 19:21:38
