success,trial_type,trial_index,time_elapsed,internal_node_id,Block,TrialNumber,TrialTime,trialTimeDiff,FPS_avg,FPS_med,FPS_mode,TrialDur,winResizeTime,rt,block,button_pressed,MotCoh,MotDir,ColCoh,Color,ChoiceKey,Choice,Accuracy,RT,nFrames,FPS,PPD,missTrial,missTrialMsg,onsetDelay,fullScreenExitTime,canvCenter,TrialType,Score,BlockTrial,stimulus,button_labels,exp,subjectId,date
True,fullscreen,0,2775,0.0-0.0,0.0,1.0,,,,,,,,,,,,,,,,,,,,,,,,,,,,,,,,HRV,HRV_0171,2022-11-30 19:31:49
,wl-check-fps,1,7775,0.0-1.0,0.0,2.0,"[3267.8, 3277.7, 3295.5, 3311.3, 3327.8, 3344.4, 3362.2, 3378, 3394.4, 3411.3, 3429.1, 3444.6, 3461.3, 3478.2, 3495.5, 3511.1, 3527.9, 3544.7, 3561.4, 3577.9, 3594.4, 3611.6, 3627.7, 3644.6, 3661.9, 3678.3, 3694.6, 3711.2, 3729, 3744.5, 3761.2, 3777.8, 3794.8, 3811.1, 3827.8, 3844.4, 3861.1, 3878.7, 3894.6, 3911.1, 3927.9, 3945.4, 3961.2, 3977.8, 3994.4, 4012.1, 4027.8, 4044.5, 4061.1, 4078.8, 4094.5, 4111.1, 4127.8, 4145.3, 4161.2, 4177.8, 4194.3, 4211.9, 4227.9, 4244.3, 4261.2, 4278.5, 4294.4, 4311, 4327.7, 4344.9, 4361, 4377.8, 4394.4, 4411.9, 4427.7, 4444.5, 4461, 4478.7, 4494.5, 4511.1, 4527.6, 4545.7, 4561.9, 4577.7, 4594.4, 4611, 4628.3, 4644.4, 4661.1, 4677.6, 4694.8, 4711, 4727.8, 4744.3, 4761.7, 4777.6, 4794.3, 4810.9, 4828.6, 4844.2, 4861.1, 4878.7, 4894.3, 4911, 4927.8, 4944.9, 4960.9, 4977.7, 4994.3, 5011.4, 5027.7, 5044.3, 5061.1, 5078.2, 5094.4, 5110.9, 5127.8, 5144.9, 5161, 5177.7, 5194.4, 5212, 5227.7, 5244.4, 5261, 5278.1, 5294.4, 5311, 5327.9, 5344.3, 5361, 5377.7, 5395.2, 5410.9, 5427.7, 5444.3, 5462, 5477.7, 5494.4, 5511.2, 5527.9, 5545, 5561, 5578.8, 5594.6, 5611, 5627.5, 5645.5, 5660.9, 5677.6, 5694.2, 5711.8, 5727.7, 5744.2, 5760.9, 5778.3, 5794.3, 5811.1, 5827.6, 5845.1, 5861, 5877.6, 5894.4, 5911.3, 5927.7, 5944.2, 5960.9, 5978.6, 5994.3, 6010.8, 6027.5, 6044.9, 6060.8, 6077.6, 6094.3, 6111.5, 6127.6, 6144.1, 6160.8, 6178.4, 6194.2, 6210.9, 6229.1, 6244.3, 6261, 6277.6, 6295.1, 6310.9, 6327.6, 6344.2, 6361.2, 6377.5, 6394.2, 6410.8, 6428.4, 6444.2, 6460.9, 6477.6, 6494.4, 6510.9, 6527.6, 6545.4, 6560.8, 6577.6, 6594.3, 6611.4, 6627.5, 6644.2, 6661, 6678, 6694.2, 6710.9, 6727.5, 6744.6, 6760.8, 6777.5, 6794.2, 6811.5, 6827.5, 6844.2, 6860.8, 6878.7, 6894.5, 6910.9, 6934.7, 6944.4, 6961.6, 6977.6, 6994.1, 7011.6, 7027.6, 7044, 7060.9, 7078.3, 7094.2, 7110.9, 7127.3, 7144.9, 7160.9, 7177.4, 7194.1, 7211.9, 7227.5, 7244.2, 7260.8, 7278.8, 7294.1, 7310.9, 7327.4, 7345, 7360.8, 7377.5, 7395.3, 7410.9, 7427.6, 7444, 7461.1, 7477.4, 7494.1, 7510.8, 7528.4, 7543.9, 7560.8, 7578.7, 7594, 7610.8, 7627.4, 7644.7, 7660.8, 7677.3, 7694.1, 7711.5, 7727.4, 7743.9, 7761, 7777.4, 7794.1, 7810.7, 7828.2, 7844.1, 7860.7, 7877.5, 7894.4, 7910.7, 7927.4, 7944.3, 7961.6, 7977.3, 7994, 8010.6, 8028.5, 8044.1, 8060.7, 8078.6, 8094.2, 8110.8, 8127.3, 8145, 8160.5, 8177.4, 8194.9, 8210.7, 8227.2, 8244.1]","[2.4, 9.9, 17.8, 15.8, 16.5, 16.6, 17.8, 15.8, 16.4, 16.9, 17.8, 15.5, 16.7, 16.9, 17.3, 15.6, 16.8, 16.8, 16.7, 16.5, 16.5, 17.2, 16.1, 16.9, 17.3, 16.4, 16.3, 16.6, 17.8, 15.5, 16.7, 16.6, 17, 16.3, 16.7, 16.6, 16.7, 17.6, 15.9, 16.5, 16.8, 17.5, 15.8, 16.6, 16.6, 17.7, 15.7, 16.7, 16.6, 17.7, 15.7, 16.6, 16.7, 17.5, 15.9, 16.6, 16.5, 17.6, 16, 16.4, 16.9, 17.3, 15.9, 16.6, 16.7, 17.2, 16.1, 16.8, 16.6, 17.5, 15.8, 16.8, 16.5, 17.7, 15.8, 16.6, 16.5, 18.1, 16.2, 15.8, 16.7, 16.6, 17.3, 16.1, 16.7, 16.5, 17.2, 16.2, 16.8, 16.5, 17.4, 15.9, 16.7, 16.6, 17.7, 15.6, 16.9, 17.6, 15.6, 16.7, 16.8, 17.1, 16, 16.8, 16.6, 17.1, 16.3, 16.6, 16.8, 17.1, 16.2, 16.5, 16.9, 17.1, 16.1, 16.7, 16.7, 17.6, 15.7, 16.7, 16.6, 17.1, 16.3, 16.6, 16.9, 16.4, 16.7, 16.7, 17.5, 15.7, 16.8, 16.6, 17.7, 15.7, 16.7, 16.8, 16.7, 17.1, 16, 17.8, 15.8, 16.4, 16.5, 18, 15.4, 16.7, 16.6, 17.6, 15.9, 16.5, 16.7, 17.4, 16, 16.8, 16.5, 17.5, 15.9, 16.6, 16.8, 16.9, 16.4, 16.5, 16.7, 17.7, 15.7, 16.5, 16.7, 17.4, 15.9, 16.8, 16.7, 17.2, 16.1, 16.5, 16.7, 17.6, 15.8, 16.7, 18.2, 15.2, 16.7, 16.6, 17.5, 15.8, 16.7, 16.6, 17, 16.3, 16.7, 16.6, 17.6, 15.8, 16.7, 16.7, 16.8, 16.5, 16.7, 17.8, 15.4, 16.8, 16.7, 17.1, 16.1, 16.7, 16.8, 17, 16.2, 16.7, 16.6, 17.1, 16.2, 16.7, 16.7, 17.3, 16, 16.7, 16.6, 17.9, 15.8, 16.4, 23.8, 9.7, 17.2, 16, 16.5, 17.5, 16, 16.4, 16.9, 17.4, 15.9, 16.7, 16.4, 17.6, 16, 16.5, 16.7, 17.8, 15.6, 16.7, 16.6, 18, 15.3, 16.8, 16.5, 17.6, 15.8, 16.7, 17.8, 15.6, 16.7, 16.4, 17.1, 16.3, 16.7, 16.7, 17.6, 15.5, 16.9, 17.9, 15.3, 16.8, 16.6, 17.3, 16.1, 16.5, 16.8, 17.4, 15.9, 16.5, 17.1, 16.4, 16.7, 16.6, 17.5, 15.9, 16.6, 16.8, 16.9, 16.3, 16.7, 16.9, 17.3, 15.7, 16.7, 16.6, 17.9, 15.6, 16.6, 17.9, 15.6, 16.6, 16.5, 17.7, 15.5, 16.9, 17.5, 15.8, 16.5, 16.9]",60.0,60.0,60.0,4995.9,[],,,,,,,,,,,,,,,,,,,,,,,,,HRV,HRV_0171,2022-11-30 19:31:49
,wl-html-keyboard-response,2,19677,0.0-2.0-0.0,0.0,3.0,,,,,,,,9880.59999999404,0.0,0,,,,,,,,,,,,,,,,,,,,,,HRV,HRV_0171,2022-11-30 19:31:49
,wl-rdm,3,28454,0.0-3.0-0.0,0.0,4.0,,,,,,,[],,,,0.0,0.0,87.9,0.0,u,0.0,True,3192.3999999910593,192.0,60.0,40.0,False,,3000.0,[],"[768, 432]",ColorTask_Demo,,,,,HRV,HRV_0171,2022-11-30 19:31:49
,wl-rdm,4,33220,0.0-3.0-1.0,0.0,5.0,,,,,,,[],,,,0.0,0.0,87.9,1.0,i,1.0,True,702.1000000089407,43.0,60.0,40.0,False,,2000.0,[],"[768, 432]",ColorTask_Demo,,,,,HRV,HRV_0171,2022-11-30 19:31:49
,wl-html-keyboard-response,5,40538,0.0-3.0-2.0,0.0,6.0,,,,,,,,5311.79999999702,0.0,1,,,,,,,,,,,,,,,,,,,,,,HRV,HRV_0171,2022-11-30 19:31:49
,wl-html-keyboard-response,6,51089,0.0-4.0-0.0,0.0,7.0,,,,,,,,8546.70000000298,0.0,0,,,,,,,,,,,,,,,,,,,,,,HRV,HRV_0171,2022-11-30 19:31:49
,wl-html-keyboard-response,7,67833,0.0-5.0-0.0,0.0,8.0,,,,,,,,14734.79999999702,0.0,0,,,,,,,,,,,,,,,,,,,,,,HRV,HRV_0171,2022-11-30 19:31:49
,wl-rdm,8,70682,0.0-6.0-0.0,0.0,9.0,,,,,,,[],,,,,,50.0,1.0,i,1.0,True,1390.7999999970198,84.0,60.0,40.0,False,,381.4172993632104,[],"[768, 432]",ColorTask,1.0,1.0,,,HRV,HRV_0171,2022-11-30 19:31:49
,wl-rdm,9,72982,0.0-6.1-0.1,0.0,10.0,,,,,,,[],,,,,,50.0,1.0,u,0.0,False,975.7999999970198,59.0,60.0,40.0,False,,252.64761612343608,[],"[768, 432]",ColorTask,0.0,2.0,,,HRV,HRV_0171,2022-11-30 19:31:49
,wl-rdm,10,75398,0.0-6.2-0.2,0.0,11.0,,,,,,,[],,,,,,53.2,1.0,i,1.0,True,1081.7999999970198,65.0,60.0,40.0,False,,259.84904588241903,[],"[768, 432]",ColorTask,1.0,3.0,,,HRV,HRV_0171,2022-11-30 19:31:49
,wl-rdm,11,77848,0.0-6.3-0.3,0.0,12.0,,,,,,,[],,,,,,56.4,1.0,i,1.0,True,986.5,60.0,60.0,40.0,False,,397.9861294018517,[],"[768, 432]",ColorTask,2.0,4.0,,,HRV,HRV_0171,2022-11-30 19:31:49
,wl-rdm,12,80031,0.0-6.4-0.4,0.0,13.0,,,,,,,[],,,,,,87.9,0.0,u,0.0,True,805.0,49.0,60.0,40.0,False,,308.750374189018,[],"[768, 432]",ColorTask,3.0,5.0,,,HRV,HRV_0171,2022-11-30 19:31:49
,wl-rdm,13,82298,0.0-6.5-0.5,0.0,14.0,,,,,,,[],,,,,,50.0,1.0,i,1.0,True,845.8999999910593,51.0,60.0,40.0,False,,359.03336618509843,[],"[768, 432]",ColorTask,4.0,6.0,,,HRV,HRV_0171,2022-11-30 19:31:49
,wl-rdm,14,84882,0.0-6.6-0.6,0.0,15.0,,,,,,,[],,,,,,56.4,1.0,i,1.0,True,1189.3999999910593,72.0,60.0,40.0,False,,303.9083802255951,[],"[768, 432]",ColorTask,5.0,7.0,,,HRV,HRV_0171,2022-11-30 19:31:49
,wl-rdm,15,87031,0.0-6.7-0.7,0.0,16.0,,,,,,,[],,,,,,87.9,1.0,i,1.0,True,796.3999999910593,48.0,60.0,40.0,False,,282.98597929010793,[],"[768, 432]",ColorTask,6.0,8.0,,,HRV,HRV_0171,2022-11-30 19:31:49
,wl-rdm,16,89613,0.0-6.8-0.8,0.0,17.0,,,,,,,[],,,,,,56.4,0.0,u,0.0,True,1221.0,74.0,60.0,40.0,False,,300.7007581900285,[],"[768, 432]",ColorTask,7.0,9.0,,,HRV,HRV_0171,2022-11-30 19:31:49
,wl-rdm,17,91813,0.0-6.9-0.9,0.0,18.0,,,,,,,[],,,,,,62.5,1.0,i,1.0,True,835.0,51.0,60.0,40.0,False,,291.09096968760696,[],"[768, 432]",ColorTask,8.0,10.0,,,HRV,HRV_0171,2022-11-30 19:31:49
,wl-rdm,18,93882,0.0-6.10-0.10,0.0,19.0,,,,,,,[],,,,,,50.0,1.0,i,1.0,True,726.7000000029802,44.0,60.0,40.0,False,,283.99711427658144,[],"[768, 432]",ColorTask,9.0,11.0,,,HRV,HRV_0171,2022-11-30 19:31:49
,wl-rdm,19,96215,0.0-6.11-0.11,0.0,20.0,,,,,,,[],,,,,,56.4,1.0,i,1.0,True,1002.7000000029802,61.0,60.0,40.0,False,,240.06548919685417,[],"[768, 432]",ColorTask,10.0,12.0,,,HRV,HRV_0171,2022-11-30 19:31:49
,wl-rdm,20,98296,0.0-6.12-0.12,0.0,21.0,,,,,,,[],,,,,,87.9,1.0,i,1.0,True,755.3000000119209,46.0,60.0,40.0,False,,256.879619529853,[],"[768, 432]",ColorTask,11.0,13.0,,,HRV,HRV_0171,2022-11-30 19:31:49
,wl-rdm,21,100664,0.0-6.13-0.13,0.0,22.0,,,,,,,[],,,,,,50.0,0.0,u,0.0,True,1063.0999999940395,64.0,60.0,40.0,False,,221.7546773353647,[],"[768, 432]",ColorTask,12.0,14.0,,,HRV,HRV_0171,2022-11-30 19:31:49
,wl-rdm,22,103081,0.0-6.14-0.14,0.0,23.0,,,,,,,[],,,,,,56.4,0.0,u,0.0,True,1078.5,65.0,60.0,40.0,False,,265.0797902392314,[],"[768, 432]",ColorTask,13.0,15.0,,,HRV,HRV_0171,2022-11-30 19:31:49
,wl-rdm,23,105362,0.0-6.15-0.15,0.0,24.0,,,,,,,[],,,,,,56.4,1.0,i,1.0,True,865.2999999970198,52.0,60.0,40.0,False,,355.70994149055605,[],"[768, 432]",ColorTask,14.0,16.0,,,HRV,HRV_0171,2022-11-30 19:31:49
,wl-rdm,24,107446,0.0-6.16-0.16,0.0,25.0,,,,,,,[],,,,,,73.6,1.0,i,1.0,True,782.9000000059605,47.0,60.0,40.0,False,,239.32585935581173,[],"[768, 432]",ColorTask,15.0,17.0,,,HRV,HRV_0171,2022-11-30 19:31:49
,wl-rdm,25,109445,0.0-6.17-0.17,0.0,26.0,,,,,,,[],,,,,,73.6,1.0,i,1.0,True,654.9000000059605,40.0,60.0,40.0,False,,269.56352528967284,[],"[768, 432]",ColorTask,16.0,18.0,,,HRV,HRV_0171,2022-11-30 19:31:49
,wl-rdm,26,111495,0.0-6.18-0.18,0.0,27.0,,,,,,,[],,,,,,73.6,1.0,i,1.0,True,645.2999999970198,39.0,60.0,40.0,False,,330.17653684499885,[],"[768, 432]",ColorTask,17.0,19.0,,,HRV,HRV_0171,2022-11-30 19:31:49
,wl-rdm,27,113463,0.0-6.19-0.19,0.0,28.0,,,,,,,[],,,,,,73.6,1.0,i,1.0,True,675.8999999910593,41.0,60.0,40.0,False,,208.92055528650326,[],"[768, 432]",ColorTask,18.0,20.0,,,HRV,HRV_0171,2022-11-30 19:31:49
,wl-rdm,28,115461,0.0-6.20-0.20,0.0,29.0,,,,,,,[],,,,,,87.9,0.0,u,0.0,True,641.0000000149012,39.0,60.0,40.0,False,,267.0127218965458,[],"[768, 432]",ColorTask,19.0,21.0,,,HRV,HRV_0171,2022-11-30 19:31:49
,wl-rdm,29,117495,0.0-6.21-0.21,0.0,30.0,,,,,,,[],,,,,,53.2,1.0,i,1.0,True,713.5999999940395,43.0,60.0,40.0,False,,261.5197242137334,[],"[768, 432]",ColorTask,20.0,22.0,,,HRV,HRV_0171,2022-11-30 19:31:49
,wl-rdm,30,119528,0.0-6.22-0.22,0.0,31.0,,,,,,,[],,,,,,50.0,0.0,i,1.0,False,715.7000000029802,43.0,60.0,40.0,False,,238.19901931388347,[],"[768, 432]",ColorTask,19.0,23.0,,,HRV,HRV_0171,2022-11-30 19:31:49
,wl-rdm,31,121929,0.0-6.23-0.23,0.0,32.0,,,,,,,[],,,,,,62.5,0.0,i,1.0,False,1068.0,65.0,60.0,40.0,False,,246.04769787979473,[],"[768, 432]",ColorTask,18.0,24.0,,,HRV,HRV_0171,2022-11-30 19:31:49
,wl-rdm,32,124327,0.0-6.24-0.24,0.0,33.0,,,,,,,[],,,,,,62.5,0.0,i,1.0,False,925.0,56.0,60.0,40.0,False,,385.9032620352145,[],"[768, 432]",ColorTask,17.0,25.0,,,HRV,HRV_0171,2022-11-30 19:31:49
,wl-rdm,33,126394,0.0-6.25-0.25,0.0,34.0,,,,,,,[],,,,,,56.4,1.0,i,1.0,True,691.2999999970198,42.0,60.0,40.0,False,,291.2393726443491,[],"[768, 432]",ColorTask,18.0,26.0,,,HRV,HRV_0171,2022-11-30 19:31:49
,wl-rdm,34,129093,0.0-6.26-0.26,0.0,35.0,,,,,,,[],,,,,,53.2,0.0,u,0.0,True,1309.0999999940395,79.0,60.0,40.0,False,,328.88158420906484,[],"[768, 432]",ColorTask,19.0,27.0,,,HRV,HRV_0171,2022-11-30 19:31:49
,wl-rdm,35,131444,0.0-6.27-0.27,0.0,36.0,,,,,,,[],,,,,,62.5,1.0,i,1.0,True,989.0,60.0,60.0,40.0,False,,281.88968940850685,[],"[768, 432]",ColorTask,20.0,28.0,,,HRV,HRV_0171,2022-11-30 19:31:49
,wl-rdm,36,133443,0.0-6.28-0.28,0.0,37.0,,,,,,,[],,,,,,53.2,0.0,i,1.0,False,724.5,44.0,60.0,40.0,False,,210.78327170254536,[],"[768, 432]",ColorTask,19.0,29.0,,,HRV,HRV_0171,2022-11-30 19:31:49
,wl-rdm,37,135976,0.0-6.29-0.29,0.0,38.0,,,,,,,[],,,,,,56.4,0.0,u,0.0,True,1111.800000011921,67.0,60.0,40.0,False,,339.6924511356234,[],"[768, 432]",ColorTask,20.0,30.0,,,HRV,HRV_0171,2022-11-30 19:31:49
,wl-rdm,38,138511,0.0-6.30-0.30,0.0,39.0,,,,,,,[],,,,,,62.5,0.0,u,0.0,True,1244.199999988079,75.0,60.0,40.0,False,,230.02270625184389,[],"[768, 432]",ColorTask,21.0,31.0,,,HRV,HRV_0171,2022-11-30 19:31:49
,wl-rdm,39,140892,0.0-6.31-0.31,0.0,40.0,,,,,,,[],,,,,,62.5,0.0,i,1.0,False,1064.9000000059605,64.0,60.0,40.0,False,,249.41065561055112,[],"[768, 432]",ColorTask,20.0,32.0,,,HRV,HRV_0171,2022-11-30 19:31:49
,wl-rdm,40,143359,0.0-6.32-0.32,0.0,41.0,,,,,,,[],,,,,,53.2,0.0,u,0.0,True,1156.2999999970198,70.0,60.0,40.0,False,,226.87646466769868,[],"[768, 432]",ColorTask,21.0,33.0,,,HRV,HRV_0171,2022-11-30 19:31:49
,wl-rdm,41,146109,0.0-6.33-0.33,0.0,42.0,,,,,,,[],,,,,,50.0,0.0,i,1.0,False,1428.9000000059605,86.0,60.0,40.0,False,,237.99218985268314,[],"[768, 432]",ColorTask,20.0,34.0,,,HRV,HRV_0171,2022-11-30 19:31:49
,wl-rdm,42,149275,0.0-6.34-0.34,0.0,43.0,,,,,,,[],,,,,,50.0,1.0,i,1.0,True,1753.7000000029802,106.0,60.0,40.0,False,,339.98603285235197,[],"[768, 432]",ColorTask,21.0,35.0,,,HRV,HRV_0171,2022-11-30 19:31:49
,wl-rdm,43,151375,0.0-6.35-0.35,0.0,44.0,,,,,,,[],,,,,,73.6,0.0,u,0.0,True,685.9000000059605,42.0,60.0,40.0,False,,338.6691823075381,[],"[768, 432]",ColorTask,22.0,36.0,,,HRV,HRV_0171,2022-11-30 19:31:49
,wl-rdm,44,153708,0.0-6.36-0.36,0.0,45.0,,,,,,,[],,,,,,73.6,0.0,u,0.0,True,1001.9000000059605,61.0,60.0,40.0,False,,233.1897070786568,[],"[768, 432]",ColorTask,23.0,37.0,,,HRV,HRV_0171,2022-11-30 19:31:49
,wl-rdm,45,156973,0.0-6.37-0.37,0.0,46.0,,,,,,,[],,,,,,56.4,1.0,i,1.0,True,1977.1000000089407,119.0,60.0,40.0,False,,211.69442386741605,[],"[768, 432]",ColorTask,24.0,38.0,,,HRV,HRV_0171,2022-11-30 19:31:49
,wl-rdm,46,159890,0.0-6.38-0.38,0.0,47.0,,,,,,,[],,,,,,53.2,0.0,i,1.0,False,1561.199999988079,94.0,60.0,40.0,False,,280.2579431492353,[],"[768, 432]",ColorTask,23.0,39.0,,,HRV,HRV_0171,2022-11-30 19:31:49
,wl-rdm,47,162956,0.0-6.39-0.39,0.0,48.0,,,,,,,[],,,,,,62.5,1.0,i,1.0,True,1775.2999999970198,107.0,60.0,40.0,False,,218.185884457601,[],"[768, 432]",ColorTask,24.0,40.0,,,HRV,HRV_0171,2022-11-30 19:31:49
,wl-rdm,48,165723,0.0-6.40-0.40,0.0,49.0,,,,,,,[],,,,,,73.6,1.0,i,1.0,True,1436.0000000149012,87.0,60.0,40.0,False,,234.87778322810516,[],"[768, 432]",ColorTask,25.0,41.0,,,HRV,HRV_0171,2022-11-30 19:31:49
,wl-rdm,49,168122,0.0-6.41-0.41,0.0,50.0,,,,,,,[],,,,,,53.2,1.0,u,0.0,False,1119.6000000089407,68.0,60.0,40.0,False,,207.14369278101557,[],"[768, 432]",ColorTask,24.0,42.0,,,HRV,HRV_0171,2022-11-30 19:31:49
,wl-rdm,50,170240,0.0-6.42-0.42,0.0,51.0,,,,,,,[],,,,,,87.9,0.0,u,0.0,True,757.5999999940395,46.0,60.0,40.0,False,,275.18824149967924,[],"[768, 432]",ColorTask,25.0,43.0,,,HRV,HRV_0171,2022-11-30 19:31:49
,wl-rdm,51,172590,0.0-6.43-0.43,0.0,52.0,,,,,,,[],,,,,,73.6,0.0,u,0.0,True,1026.199999988079,62.0,60.0,40.0,False,,240.5441743798898,[],"[768, 432]",ColorTask,26.0,44.0,,,HRV,HRV_0171,2022-11-30 19:31:49
,wl-rdm,52,174738,0.0-6.44-0.44,0.0,53.0,,,,,,,[],,,,,,87.9,1.0,i,1.0,True,707.0,43.0,60.0,40.0,False,,361.7902850786512,[],"[768, 432]",ColorTask,27.0,45.0,,,HRV,HRV_0171,2022-11-30 19:31:49
,wl-rdm,53,176955,0.0-6.45-0.45,0.0,54.0,,,,,,,[],,,,,,50.0,0.0,u,0.0,True,753.5999999940395,46.0,60.0,40.0,False,,389.61872332734106,[],"[768, 432]",ColorTask,28.0,46.0,,,HRV,HRV_0171,2022-11-30 19:31:49
,wl-rdm,54,178989,0.0-6.46-0.46,0.0,55.0,,,,,,,[],,,,,,87.9,0.0,u,0.0,True,707.2000000029802,43.0,60.0,40.0,False,,245.53811018198667,[],"[768, 432]",ColorTask,29.0,47.0,,,HRV,HRV_0171,2022-11-30 19:31:49
,wl-rdm,55,181322,0.0-6.47-0.47,0.0,56.0,,,,,,,[],,,,,,56.4,1.0,i,1.0,True,987.2999999970198,60.0,60.0,40.0,False,,253.66813738454525,[],"[768, 432]",ColorTask,30.0,48.0,,,HRV,HRV_0171,2022-11-30 19:31:49
,wl-rdm,56,184189,0.0-6.48-0.48,0.0,57.0,,,,,,,[],,,,,,50.0,0.0,i,1.0,False,1412.5999999940395,85.0,60.0,40.0,False,,370.3664087291438,[],"[768, 432]",ColorTask,29.0,49.0,,,HRV,HRV_0171,2022-11-30 19:31:49
,wl-rdm,57,187087,0.0-6.49-0.49,0.0,58.0,,,,,,,[],,,,,,62.5,1.0,i,1.0,True,1525.300000011921,92.0,60.0,40.0,False,,295.6044145149592,[],"[768, 432]",ColorTask,30.0,50.0,,,HRV,HRV_0171,2022-11-30 19:31:49
,wl-rdm,58,189154,0.0-6.50-0.50,0.0,59.0,,,,,,,[],,,,,,53.2,0.0,u,0.0,True,714.0,43.0,60.0,40.0,False,,274.08685834802606,[],"[768, 432]",ColorTask,31.0,51.0,,,HRV,HRV_0171,2022-11-30 19:31:49
,wl-rdm,59,191471,0.0-6.51-0.51,0.0,60.0,,,,,,,[],,,,,,50.0,0.0,i,1.0,False,856.5,52.0,60.0,40.0,False,,376.0780121915551,[],"[768, 432]",ColorTask,30.0,52.0,,,HRV,HRV_0171,2022-11-30 19:31:49
,wl-rdm,60,193688,0.0-6.52-0.52,0.0,61.0,,,,,,,[],,,,,,73.6,1.0,i,1.0,True,895.6000000089407,54.0,60.0,40.0,False,,246.7191690507951,[],"[768, 432]",ColorTask,31.0,53.0,,,HRV,HRV_0171,2022-11-30 19:31:49
,wl-rdm,61,196186,0.0-6.53-0.53,0.0,62.0,,,,,,,[],,,,,,53.2,0.0,i,1.0,False,1212.5,73.0,60.0,40.0,False,,207.78832695220552,[],"[768, 432]",ColorTask,30.0,54.0,,,HRV,HRV_0171,2022-11-30 19:31:49
,wl-rdm,62,199171,0.0-6.54-0.54,0.0,63.0,,,,,,,[],,,,,,62.5,1.0,u,0.0,False,1590.7999999970198,96.0,60.0,40.0,False,,311.6937705758513,[],"[768, 432]",ColorTask,29.0,55.0,,,HRV,HRV_0171,2022-11-30 19:31:49
,wl-rdm,63,201236,0.0-6.55-0.55,0.0,64.0,,,,,,,[],,,,,,53.2,1.0,i,1.0,True,785.1999999880791,47.0,60.0,40.0,False,,210.87010409677606,[],"[768, 432]",ColorTask,30.0,56.0,,,HRV,HRV_0171,2022-11-30 19:31:49
,wl-rdm,64,203452,0.0-6.56-0.56,0.0,65.0,,,,,,,[],,,,,,73.6,0.0,u,0.0,True,778.5999999940395,47.0,60.0,40.0,False,,351.69409052998014,[],"[768, 432]",ColorTask,31.0,57.0,,,HRV,HRV_0171,2022-11-30 19:31:49
,wl-rdm,65,205636,0.0-6.57-0.57,0.0,66.0,,,,,,,[],,,,,,87.9,0.0,u,0.0,True,807.8000000119209,49.0,60.0,40.0,False,,307.5254046525145,[],"[768, 432]",ColorTask,32.0,58.0,,,HRV,HRV_0171,2022-11-30 19:31:49
,wl-rdm,66,207835,0.0-6.58-0.58,0.0,67.0,,,,,,,[],,,,,,73.6,1.0,i,1.0,True,874.9999999850988,53.0,60.0,40.0,False,,238.07413644191064,[],"[768, 432]",ColorTask,33.0,59.0,,,HRV,HRV_0171,2022-11-30 19:31:49
,wl-rdm,67,210570,0.0-6.59-0.59,0.0,68.0,,,,,,,[],,,,,,56.4,1.0,i,1.0,True,1438.5999999940395,87.0,60.0,40.0,False,,203.92745608243345,[],"[768, 432]",ColorTask,34.0,60.0,,,HRV,HRV_0171,2022-11-30 19:31:49
,wl-rdm,68,214051,0.0-6.60-0.60,0.0,69.0,,,,,,,[],,,,,,73.6,1.0,i,1.0,True,2108.0,127.0,60.0,40.0,False,,294.58796881891055,[],"[768, 432]",ColorTask,35.0,61.0,,,HRV,HRV_0171,2022-11-30 19:31:49
,wl-rdm,69,217168,0.0-6.61-0.61,0.0,70.0,,,,,,,[],,,,,,62.5,1.0,i,1.0,True,1658.3999999910593,100.0,60.0,40.0,False,,383.53303452039637,[],"[768, 432]",ColorTask,36.0,62.0,,,HRV,HRV_0171,2022-11-30 19:31:49
,wl-rdm,70,219468,0.0-6.62-0.62,0.0,71.0,,,,,,,[],,,,,,53.2,1.0,u,0.0,False,957.7000000029802,58.0,60.0,40.0,False,,269.2173796447223,[],"[768, 432]",ColorTask,35.0,63.0,,,HRV,HRV_0171,2022-11-30 19:31:49
,wl-rdm,71,221535,0.0-6.63-0.63,0.0,72.0,,,,,,,[],,,,,,73.6,1.0,i,1.0,True,772.2000000029802,47.0,60.0,40.0,False,,226.72648723000924,[],"[768, 432]",ColorTask,36.0,64.0,,,HRV,HRV_0171,2022-11-30 19:31:49
,wl-rdm,72,223834,0.0-6.64-0.64,0.0,73.0,,,,,,,[],,,,,,87.9,0.0,u,0.0,True,979.8000000119209,59.0,60.0,40.0,False,,263.75050035671626,[],"[768, 432]",ColorTask,37.0,65.0,,,HRV,HRV_0171,2022-11-30 19:31:49
,wl-rdm,73,227001,0.0-6.65-0.65,0.0,74.0,,,,,,,[],,,,,,53.2,0.0,u,0.0,True,1742.0999999940395,105.0,60.0,40.0,False,,342.78435439365734,[],"[768, 432]",ColorTask,38.0,66.0,,,HRV,HRV_0171,2022-11-30 19:31:49
,wl-rdm,74,229084,0.0-6.66-0.66,0.0,75.0,,,,,,,[],,,,,,87.9,1.0,i,1.0,True,642.7000000029802,39.0,60.0,40.0,False,,360.4404808448904,[],"[768, 432]",ColorTask,39.0,67.0,,,HRV,HRV_0171,2022-11-30 19:31:49
,wl-rdm,75,231100,0.0-6.67-0.67,0.0,76.0,,,,,,,[],,,,,,87.9,1.0,i,1.0,True,687.0,42.0,60.0,40.0,False,,238.31032443473052,[],"[768, 432]",ColorTask,40.0,68.0,,,HRV,HRV_0171,2022-11-30 19:31:49
,wl-rdm,76,233167,0.0-6.68-0.68,0.0,77.0,,,,,,,[],,,,,,87.9,0.0,u,0.0,True,635.2999999970198,39.0,60.0,40.0,False,,344.72213517000176,[],"[768, 432]",ColorTask,41.0,69.0,,,HRV,HRV_0171,2022-11-30 19:31:49
,wl-rdm,77,235083,0.0-6.69-0.69,0.0,78.0,,,,,,,[],,,,,,87.9,1.0,i,1.0,True,583.2000000178814,35.0,60.0,40.0,False,,260.3222200839026,[],"[768, 432]",ColorTask,42.0,70.0,,,HRV,HRV_0171,2022-11-30 19:31:49
,wl-rdm,78,236966,0.0-6.70-0.70,0.0,79.0,,,,,,,[],,,,,,62.5,0.0,u,0.0,True,611.2000000029802,37.0,60.0,40.0,False,,209.15237861052458,[],"[768, 432]",ColorTask,43.0,71.0,,,HRV,HRV_0171,2022-11-30 19:31:49
,wl-rdm,79,239066,0.0-6.71-0.71,0.0,80.0,,,,,,,[],,,,,,73.6,0.0,u,0.0,True,726.2000000029802,44.0,60.0,40.0,False,,296.6676722502185,[],"[768, 432]",ColorTask,44.0,72.0,,,HRV,HRV_0171,2022-11-30 19:31:49
,wl-rdm,80,241582,0.0-6.72-0.72,0.0,81.0,,,,,,,[],,,,,,62.5,0.0,u,0.0,True,1228.800000011921,74.0,60.0,40.0,False,,203.24977978986416,[],"[768, 432]",ColorTask,45.0,73.0,,,HRV,HRV_0171,2022-11-30 19:31:49
,wl-rdm,81,243782,0.0-6.73-0.73,0.0,82.0,,,,,,,[],,,,,,62.5,1.0,i,1.0,True,742.0000000149012,45.0,60.0,40.0,False,,379.61790552524053,[],"[768, 432]",ColorTask,46.0,74.0,,,HRV,HRV_0171,2022-11-30 19:31:49
,wl-rdm,82,246549,0.0-6.74-0.74,0.0,83.0,,,,,,,[],,,,,,53.2,1.0,i,1.0,True,1385.1000000089407,83.0,60.0,40.0,False,,304.25461857639914,[],"[768, 432]",ColorTask,47.0,75.0,,,HRV,HRV_0171,2022-11-30 19:31:49
,wl-rdm,83,248698,0.0-6.75-0.75,0.0,84.0,,,,,,,[],,,,,,87.9,1.0,i,1.0,True,706.9000000059605,43.0,60.0,40.0,False,,350.3196190973645,[],"[768, 432]",ColorTask,48.0,76.0,,,HRV,HRV_0171,2022-11-30 19:31:49
,wl-rdm,84,251381,0.0-6.76-0.76,0.0,85.0,,,,,,,[],,,,,,56.4,0.0,u,0.0,True,1277.699999988079,77.0,60.0,40.0,False,,335.50206075808103,[],"[768, 432]",ColorTask,49.0,77.0,,,HRV,HRV_0171,2022-11-30 19:31:49
,wl-rdm,85,253515,0.0-6.77-0.77,0.0,86.0,,,,,,,[],,,,,,87.9,0.0,u,0.0,True,761.3999999910593,46.0,60.0,40.0,False,,314.4094548502368,[],"[768, 432]",ColorTask,50.0,78.0,,,HRV,HRV_0171,2022-11-30 19:31:49
,wl-rdm,86,256431,0.0-6.78-0.78,0.0,87.0,,,,,,,[],,,,,,53.2,1.0,i,1.0,True,1542.4000000059605,93.0,60.0,40.0,False,,295.40409225785976,[],"[768, 432]",ColorTask,51.0,79.0,,,HRV,HRV_0171,2022-11-30 19:31:49
,wl-rdm,87,259131,0.0-6.79-0.79,0.0,88.0,,,,,,,[],,,,,,50.0,1.0,u,0.0,False,1247.2999999970198,75.0,60.0,40.0,False,,394.6132581087383,[],"[768, 432]",ColorTask,50.0,80.0,,,HRV,HRV_0171,2022-11-30 19:31:49
,wl-rdm,88,261531,0.0-6.80-0.80,0.0,89.0,,,,,,,[],,,,,,62.5,0.0,u,0.0,True,1093.7000000029802,66.0,60.0,40.0,False,,231.33817816979823,[],"[768, 432]",ColorTask,51.0,81.0,,,HRV,HRV_0171,2022-11-30 19:31:49
,wl-rdm,89,263997,0.0-6.81-0.81,0.0,90.0,,,,,,,[],,,,,,50.0,1.0,u,0.0,False,1068.8999999910593,64.0,60.0,40.0,False,,318.3858041224375,[],"[768, 432]",ColorTask,50.0,82.0,,,HRV,HRV_0171,2022-11-30 19:31:49
,wl-rdm,90,265997,0.0-6.82-0.82,0.0,91.0,,,,,,,[],,,,,,87.9,1.0,i,1.0,True,631.9999999850988,38.0,60.0,40.0,False,,313.86422402255744,[],"[768, 432]",ColorTask,51.0,83.0,,,HRV,HRV_0171,2022-11-30 19:31:49
,wl-rdm,91,268330,0.0-6.83-0.83,0.0,92.0,,,,,,,[],,,,,,62.5,1.0,i,1.0,True,1008.2999999970198,61.0,60.0,40.0,False,,235.04675455612042,[],"[768, 432]",ColorTask,52.0,84.0,,,HRV,HRV_0171,2022-11-30 19:31:49
,wl-rdm,92,270930,0.0-6.84-0.84,0.0,93.0,,,,,,,[],,,,,,73.6,0.0,u,0.0,True,1143.5999999940395,69.0,60.0,40.0,False,,382.54878768186666,[],"[768, 432]",ColorTask,53.0,85.0,,,HRV,HRV_0171,2022-11-30 19:31:49
,wl-rdm,93,272896,0.0-6.85-0.85,0.0,94.0,,,,,,,[],,,,,,62.5,1.0,i,1.0,True,662.0,40.0,60.0,40.0,False,,249.2668696093105,[],"[768, 432]",ColorTask,54.0,86.0,,,HRV,HRV_0171,2022-11-30 19:31:49
,wl-rdm,94,275996,0.0-6.86-0.86,0.0,95.0,,,,,,,[],,,,,,56.4,1.0,i,1.0,True,1795.5,108.0,60.0,40.0,False,,248.37137112322546,[],"[768, 432]",ColorTask,55.0,87.0,,,HRV,HRV_0171,2022-11-30 19:31:49
,wl-rdm,95,278695,0.0-6.87-0.87,0.0,96.0,,,,,,,[],,,,,,50.0,1.0,i,1.0,True,1279.7000000029802,77.0,60.0,40.0,False,,360.5589240214396,[],"[768, 432]",ColorTask,56.0,88.0,,,HRV,HRV_0171,2022-11-30 19:31:49
,wl-rdm,96,281961,0.0-6.88-0.88,0.0,97.0,,,,,,,[],,,,,,53.2,1.0,i,1.0,True,1874.2999999970198,113.0,60.0,40.0,False,,312.93516863508916,[],"[768, 432]",ColorTask,57.0,89.0,,,HRV,HRV_0171,2022-11-30 19:31:49
,wl-rdm,97,284495,0.0-6.89-0.89,0.0,98.0,,,,,,,[],,,,,,62.5,0.0,u,0.0,True,1245.199999988079,75.0,60.0,40.0,False,,218.24220754201133,[],"[768, 432]",ColorTask,58.0,90.0,,,HRV,HRV_0171,2022-11-30 19:31:49
,wl-rdm,98,287094,0.0-6.90-0.90,0.0,99.0,,,,,,,[],,,,,,53.2,0.0,u,0.0,True,1287.0,78.0,60.0,40.0,False,,219.81617752258384,[],"[768, 432]",ColorTask,59.0,91.0,,,HRV,HRV_0171,2022-11-30 19:31:49
,wl-rdm,99,289878,0.0-6.91-0.91,0.0,100.0,,,,,,,[],,,,,,56.4,0.0,u,0.0,True,1485.7999999970198,90.0,60.0,40.0,False,,215.15436199741822,[],"[768, 432]",ColorTask,60.0,92.0,,,HRV,HRV_0171,2022-11-30 19:31:49
,wl-rdm,100,292045,0.0-6.92-0.92,0.0,101.0,,,,,,,[],,,,,,87.9,0.0,u,0.0,True,758.2999999970198,46.0,60.0,40.0,False,,320.5390879519862,[],"[768, 432]",ColorTask,61.0,93.0,,,HRV,HRV_0171,2022-11-30 19:31:49
,wl-rdm,101,294377,0.0-6.93-0.93,0.0,102.0,,,,,,,[],,,,,,50.0,0.0,u,0.0,True,995.0,60.0,60.0,40.0,False,,255.98299571729297,[],"[768, 432]",ColorTask,62.0,94.0,,,HRV,HRV_0171,2022-11-30 19:31:49
,wl-rdm,102,296728,0.0-6.94-0.94,0.0,103.0,,,,,,,[],,,,,,62.5,0.0,u,0.0,True,969.9999999850988,59.0,60.0,40.0,False,,294.4151382734094,[],"[768, 432]",ColorTask,63.0,95.0,,,HRV,HRV_0171,2022-11-30 19:31:49
,wl-rdm,103,299045,0.0-6.95-0.95,0.0,104.0,,,,,,,[],,,,,,56.4,0.0,u,0.0,True,955.5,58.0,60.0,40.0,False,,269.9975385678349,[],"[768, 432]",ColorTask,64.0,96.0,,,HRV,HRV_0171,2022-11-30 19:31:49
,wl-rdm,104,301543,0.0-6.96-0.96,0.0,105.0,,,,,,,[],,,,,,50.0,0.0,u,0.0,True,1109.5999999940395,67.0,60.0,40.0,False,,315.34366672253657,[],"[768, 432]",ColorTask,65.0,97.0,,,HRV,HRV_0171,2022-11-30 19:31:49
,wl-rdm,105,303792,0.0-6.97-0.97,0.0,106.0,,,,,,,[],,,,,,73.6,0.0,u,0.0,True,957.7000000029802,58.0,60.0,40.0,False,,229.24700306652684,[],"[768, 432]",ColorTask,66.0,98.0,,,HRV,HRV_0171,2022-11-30 19:31:49
,wl-rdm,106,306227,0.0-6.98-0.98,0.0,107.0,,,,,,,[],,,,,,56.4,0.0,u,0.0,True,1024.8999999910593,62.0,60.0,40.0,False,,323.2355318770469,[],"[768, 432]",ColorTask,67.0,99.0,,,HRV,HRV_0171,2022-11-30 19:31:49
,wl-rdm,107,308192,0.0-6.99-0.99,0.0,108.0,,,,,,,[],,,,,,73.6,0.0,u,0.0,True,698.1999999880791,42.0,60.0,40.0,False,,212.5357590108901,[],"[768, 432]",ColorTask,68.0,100.0,,,HRV,HRV_0171,2022-11-30 19:31:49
,wl-rdm,108,310627,0.0-6.100-0.100,0.0,109.0,,,,,,,[],,,,,,50.0,1.0,u,0.0,False,1104.0999999940395,67.0,60.0,40.0,False,,248.4594575602513,[],"[768, 432]",ColorTask,67.0,101.0,,,HRV,HRV_0171,2022-11-30 19:31:49
,wl-rdm,109,313342,0.0-6.101-0.101,0.0,110.0,,,,,,,[],,,,,,56.4,0.0,i,1.0,False,1313.5,79.0,60.0,40.0,False,,326.63221065329157,[],"[768, 432]",ColorTask,66.0,102.0,,,HRV,HRV_0171,2022-11-30 19:31:49
,wl-rdm,110,315375,0.0-6.102-0.102,0.0,111.0,,,,,,,[],,,,,,73.6,0.0,u,0.0,True,738.5,45.0,60.0,40.0,False,,208.25279753279997,[],"[768, 432]",ColorTask,67.0,103.0,,,HRV,HRV_0171,2022-11-30 19:31:49
,wl-rdm,111,317641,0.0-6.103-0.103,0.0,112.0,,,,,,,[],,,,,,53.2,0.0,u,0.0,True,832.0,50.0,60.0,40.0,False,,363.12062296944475,[],"[768, 432]",ColorTask,68.0,104.0,,,HRV,HRV_0171,2022-11-30 19:31:49
,wl-rdm,112,319891,0.0-6.104-0.104,0.0,113.0,,,,,,,[],,,,,,56.4,0.0,u,0.0,True,921.7000000178814,56.0,60.0,40.0,False,,240.0465956219053,[],"[768, 432]",ColorTask,69.0,105.0,,,HRV,HRV_0171,2022-11-30 19:31:49
,wl-rdm,113,322142,0.0-6.105-0.105,0.0,114.0,,,,,,,[],,,,,,87.9,1.0,i,1.0,True,928.4000000059605,56.0,60.0,40.0,False,,242.2783532930829,[],"[768, 432]",ColorTask,70.0,106.0,,,HRV,HRV_0171,2022-11-30 19:31:49
,wl-rdm,114,326041,0.0-6.106-0.106,0.0,115.0,,,,,,,[],,,,,,50.0,0.0,i,1.0,False,2487.0,150.0,60.0,40.0,False,,344.1121313317259,[],"[768, 432]",ColorTask,69.0,107.0,,,HRV,HRV_0171,2022-11-30 19:31:49
,wl-rdm,115,329608,0.0-6.107-0.107,0.0,116.0,,,,,,,[],,,,,,53.2,1.0,i,1.0,True,2252.9000000059605,136.0,60.0,40.0,False,,226.51731776486707,[],"[768, 432]",ColorTask,70.0,108.0,,,HRV,HRV_0171,2022-11-30 19:31:49
,wl-html-keyboard-response,116,340610,0.0-7.0-0.0,1.0,117.0,,,,,,,,8992.0,1.0,0,,,,,,,,,,,,,,,,,,,,,,HRV,HRV_0171,2022-11-30 19:31:49
,wl-rdm,117,343572,0.0-8.0-0.0,1.0,118.0,,,,,,,[],,,,,,56.4,0.0,u,0.0,True,1500.7000000029802,91.0,60.0,40.0,False,,371.27724832369705,[],"[768, 432]",ColorTask,71.0,1.0,,,HRV,HRV_0171,2022-11-30 19:31:49
,wl-rdm,118,345588,0.0-8.1-0.1,1.0,119.0,,,,,,,[],,,,,,53.2,0.0,i,1.0,False,707.7999999970198,43.0,60.0,40.0,False,,227.35460934952022,[],"[768, 432]",ColorTask,70.0,2.0,,,HRV,HRV_0171,2022-11-30 19:31:49
,wl-rdm,119,347840,0.0-8.2-0.2,1.0,120.0,,,,,,,[],,,,,,87.9,1.0,i,1.0,True,819.3999999910593,50.0,60.0,40.0,False,,340.6270531876362,[],"[768, 432]",ColorTask,71.0,3.0,,,HRV,HRV_0171,2022-11-30 19:31:49
,wl-rdm,120,349954,0.0-8.3-0.3,1.0,121.0,,,,,,,[],,,,,,53.2,0.0,u,0.0,True,761.7999999970198,46.0,60.0,40.0,False,,268.4270567938342,[],"[768, 432]",ColorTask,72.0,4.0,,,HRV,HRV_0171,2022-11-30 19:31:49
,wl-rdm,121,352004,0.0-8.4-0.4,1.0,122.0,,,,,,,[],,,,,,73.6,1.0,i,1.0,True,713.8999999910593,43.0,60.0,40.0,False,,271.6539556495042,[],"[768, 432]",ColorTask,73.0,5.0,,,HRV,HRV_0171,2022-11-30 19:31:49
,wl-rdm,122,354288,0.0-8.5-0.5,1.0,123.0,,,,,,,[],,,,,,73.6,1.0,i,1.0,True,929.0999999940395,56.0,60.0,40.0,False,,268.49815853168053,[],"[768, 432]",ColorTask,74.0,6.0,,,HRV,HRV_0171,2022-11-30 19:31:49
,wl-rdm,123,356204,0.0-8.6-0.6,1.0,124.0,,,,,,,[],,,,,,62.5,0.0,u,0.0,True,613.2000000029802,37.0,60.0,40.0,False,,220.1222225549281,[],"[768, 432]",ColorTask,75.0,7.0,,,HRV,HRV_0171,2022-11-30 19:31:49
,wl-rdm,124,358455,0.0-8.7-0.7,1.0,125.0,,,,,,,[],,,,,,73.6,1.0,i,1.0,True,803.4999999850988,49.0,60.0,40.0,False,,361.0093478370578,[],"[768, 432]",ColorTask,76.0,8.0,,,HRV,HRV_0171,2022-11-30 19:31:49
,wl-rdm,125,360637,0.0-8.8-0.8,1.0,126.0,,,,,,,[],,,,,,50.0,1.0,u,0.0,False,728.7000000178814,44.0,60.0,40.0,False,,373.768535152749,[],"[768, 432]",ColorTask,75.0,9.0,,,HRV,HRV_0171,2022-11-30 19:31:49
,wl-rdm,126,362838,0.0-8.9-0.9,1.0,127.0,,,,,,,[],,,,,,73.6,1.0,i,1.0,True,771.0999999940395,47.0,60.0,40.0,False,,338.2056042836052,[],"[768, 432]",ColorTask,76.0,10.0,,,HRV,HRV_0171,2022-11-30 19:31:49
,wl-rdm,127,365353,0.0-8.10-0.10,1.0,128.0,,,,,,,[],,,,,,73.6,0.0,u,0.0,True,1207.4000000059605,73.0,60.0,40.0,False,,236.732700585151,[],"[768, 432]",ColorTask,77.0,11.0,,,HRV,HRV_0171,2022-11-30 19:31:49
,wl-rdm,128,368037,0.0-8.11-0.11,1.0,129.0,,,,,,,[],,,,,,53.2,1.0,i,1.0,True,1390.300000011921,84.0,60.0,40.0,False,,202.83401502090024,[],"[768, 432]",ColorTask,78.0,12.0,,,HRV,HRV_0171,2022-11-30 19:31:49
,wl-rdm,129,370486,0.0-8.12-0.12,1.0,130.0,,,,,,,[],,,,,,73.6,1.0,i,1.0,True,1109.4000000059605,67.0,60.0,40.0,False,,269.5409520887516,[],"[768, 432]",ColorTask,79.0,13.0,,,HRV,HRV_0171,2022-11-30 19:31:49
,wl-rdm,130,373886,0.0-8.13-0.13,1.0,131.0,,,,,,,[],,,,,,50.0,1.0,i,1.0,True,1926.7999999970198,116.0,60.0,40.0,False,,396.714346280863,[],"[768, 432]",ColorTask,80.0,14.0,,,HRV,HRV_0171,2022-11-30 19:31:49
,wl-rdm,131,376419,0.0-8.14-0.14,1.0,132.0,,,,,,,[],,,,,,50.0,1.0,u,0.0,False,1155.7999999970198,70.0,60.0,40.0,False,,305.55211117076493,[],"[768, 432]",ColorTask,79.0,15.0,,,HRV,HRV_0171,2022-11-30 19:31:49
,wl-rdm,132,378285,0.0-8.15-0.15,1.0,133.0,,,,,,,[],,,,,,87.9,1.0,i,1.0,True,580.0999999940395,35.0,60.0,40.0,False,,205.7316326510094,[],"[768, 432]",ColorTask,80.0,16.0,,,HRV,HRV_0171,2022-11-30 19:31:49
,wl-rdm,133,380285,0.0-8.16-0.16,1.0,134.0,,,,,,,[],,,,,,87.9,1.0,i,1.0,True,611.5000000149012,37.0,60.0,40.0,False,,303.30729779811656,[],"[768, 432]",ColorTask,81.0,17.0,,,HRV,HRV_0171,2022-11-30 19:31:49
,wl-rdm,134,382369,0.0-8.17-0.17,1.0,135.0,,,,,,,[],,,,,,62.5,0.0,u,0.0,True,761.2999999970198,46.0,60.0,40.0,False,,246.79885782588482,[],"[768, 432]",ColorTask,82.0,18.0,,,HRV,HRV_0171,2022-11-30 19:31:49
,wl-rdm,135,384418,0.0-8.18-0.18,1.0,136.0,,,,,,,[],,,,,,87.9,0.0,u,0.0,True,717.6000000089407,44.0,60.0,40.0,False,,243.92328258188294,[],"[768, 432]",ColorTask,83.0,19.0,,,HRV,HRV_0171,2022-11-30 19:31:49
,wl-rdm,136,387319,0.0-8.19-0.19,1.0,137.0,,,,,,,[],,,,,,50.0,0.0,i,1.0,False,1598.9000000059605,96.0,60.0,40.0,False,,245.55383823440283,[],"[768, 432]",ColorTask,82.0,20.0,,,HRV,HRV_0171,2022-11-30 19:31:49
,wl-rdm,137,389351,0.0-8.20-0.20,1.0,138.0,,,,,,,[],,,,,,73.6,0.0,u,0.0,True,682.2000000029802,41.0,60.0,40.0,False,,280.49898387753444,[],"[768, 432]",ColorTask,83.0,21.0,,,HRV,HRV_0171,2022-11-30 19:31:49
,wl-rdm,138,391484,0.0-8.21-0.21,1.0,139.0,,,,,,,[],,,,,,53.2,0.0,u,0.0,True,669.9000000059605,41.0,60.0,40.0,False,,374.5055243583596,[],"[768, 432]",ColorTask,84.0,22.0,,,HRV,HRV_0171,2022-11-30 19:31:49
,wl-rdm,139,393884,0.0-8.22-0.22,1.0,140.0,,,,,,,[],,,,,,62.5,1.0,u,0.0,False,1107.7999999970198,67.0,60.0,40.0,False,,213.0003809357061,[],"[768, 432]",ColorTask,83.0,23.0,,,HRV,HRV_0171,2022-11-30 19:31:49
,wl-rdm,140,397867,0.0-8.23-0.23,1.0,141.0,,,,,,,[],,,,,,62.5,1.0,i,1.0,True,2629.5999999940395,158.0,60.0,40.0,False,,289.95886528412166,[],"[768, 432]",ColorTask,84.0,24.0,,,HRV,HRV_0171,2022-11-30 19:31:49
,wl-rdm,141,400283,0.0-8.24-0.24,1.0,142.0,,,,,,,[],,,,,,53.2,0.0,u,0.0,True,1051.7999999970198,64.0,60.0,40.0,False,,270.90946103250945,[],"[768, 432]",ColorTask,85.0,25.0,,,HRV,HRV_0171,2022-11-30 19:31:49
,wl-rdm,142,402600,0.0-8.25-0.25,1.0,143.0,,,,,,,[],,,,,,62.5,1.0,i,1.0,True,962.2999999821186,58.0,60.0,40.0,False,,267.4570615329956,[],"[768, 432]",ColorTask,86.0,26.0,,,HRV,HRV_0171,2022-11-30 19:31:49
,wl-rdm,143,405001,0.0-8.26-0.26,1.0,144.0,,,,,,,[],,,,,,56.4,0.0,u,0.0,True,1093.199999988079,66.0,60.0,40.0,False,,236.85051280652002,[],"[768, 432]",ColorTask,87.0,27.0,,,HRV,HRV_0171,2022-11-30 19:31:49
,wl-rdm,144,407366,0.0-8.27-0.27,1.0,145.0,,,,,,,[],,,,,,50.0,0.0,u,0.0,True,948.1999999880791,57.0,60.0,40.0,False,,340.9692996379001,[],"[768, 432]",ColorTask,88.0,28.0,,,HRV,HRV_0171,2022-11-30 19:31:49
,wl-rdm,145,409499,0.0-8.28-0.28,1.0,146.0,,,,,,,[],,,,,,62.5,0.0,u,0.0,True,791.0,48.0,60.0,40.0,False,,255.5778413771466,[],"[768, 432]",ColorTask,89.0,29.0,,,HRV,HRV_0171,2022-11-30 19:31:49
,wl-rdm,146,412015,0.0-8.29-0.29,1.0,147.0,,,,,,,[],,,,,,62.5,1.0,i,1.0,True,1080.2000000029802,65.0,60.0,40.0,False,,351.7892221294926,[],"[768, 432]",ColorTask,90.0,30.0,,,HRV,HRV_0171,2022-11-30 19:31:49
,wl-rdm,147,414415,0.0-8.30-0.30,1.0,148.0,,,,,,,[],,,,,,73.6,0.0,u,0.0,True,1099.0999999940395,66.0,60.0,40.0,False,,216.09211395611655,[],"[768, 432]",ColorTask,91.0,31.0,,,HRV,HRV_0171,2022-11-30 19:31:49
,wl-rdm,148,416398,0.0-8.31-0.31,1.0,149.0,,,,,,,[],,,,,,87.9,0.0,u,0.0,True,620.8000000119209,38.0,60.0,40.0,False,,272.74972154285194,[],"[768, 432]",ColorTask,92.0,32.0,,,HRV,HRV_0171,2022-11-30 19:31:49
,wl-rdm,149,418515,0.0-8.32-0.32,1.0,150.0,,,,,,,[],,,,,,50.0,0.0,i,1.0,False,760.9000000059605,46.0,60.0,40.0,False,,285.5930136183672,[],"[768, 432]",ColorTask,91.0,33.0,,,HRV,HRV_0171,2022-11-30 19:31:49
,wl-rdm,150,420398,0.0-8.33-0.33,1.0,151.0,,,,,,,[],,,,,,87.9,1.0,i,1.0,True,590.5,36.0,60.0,40.0,False,,216.17966875142244,[],"[768, 432]",ColorTask,92.0,34.0,,,HRV,HRV_0171,2022-11-30 19:31:49
,wl-rdm,151,422764,0.0-8.34-0.34,1.0,152.0,,,,,,,[],,,,,,53.2,0.0,u,0.0,True,1043.6000000089407,63.0,60.0,40.0,False,,248.1697692967035,[],"[768, 432]",ColorTask,93.0,35.0,,,HRV,HRV_0171,2022-11-30 19:31:49
,wl-rdm,152,424964,0.0-8.35-0.35,1.0,153.0,,,,,,,[],,,,,,56.4,0.0,u,0.0,True,755.8999999910593,46.0,60.0,40.0,False,,353.485073852194,[],"[768, 432]",ColorTask,94.0,36.0,,,HRV,HRV_0171,2022-11-30 19:31:49
,wl-rdm,153,426915,0.0-8.36-0.36,1.0,154.0,,,,,,,[],,,,,,73.6,0.0,u,0.0,True,643.2000000029802,39.0,60.0,40.0,False,,239.9819503712166,[],"[768, 432]",ColorTask,95.0,37.0,,,HRV,HRV_0171,2022-11-30 19:31:49
,wl-rdm,154,428932,0.0-8.37-0.37,1.0,155.0,,,,,,,[],,,,,,56.4,0.0,u,0.0,True,709.2000000029802,43.0,60.0,40.0,False,,230.67869519699107,[],"[768, 432]",ColorTask,96.0,38.0,,,HRV,HRV_0171,2022-11-30 19:31:49
,wl-rdm,155,430914,0.0-8.38-0.38,1.0,156.0,,,,,,,[],,,,,,87.9,1.0,i,1.0,True,636.1999999880791,39.0,60.0,40.0,False,,263.0565792691218,[],"[768, 432]",ColorTask,97.0,39.0,,,HRV,HRV_0171,2022-11-30 19:31:49
,wl-rdm,156,433380,0.0-8.39-0.39,1.0,157.0,,,,,,,[],,,,,,50.0,1.0,u,0.0,False,1170.1000000089407,71.0,60.0,40.0,False,,210.36530268495656,[],"[768, 432]",ColorTask,96.0,40.0,,,HRV,HRV_0171,2022-11-30 19:31:49
,wl-rdm,157,435680,0.0-8.40-0.40,1.0,158.0,,,,,,,[],,,,,,56.4,1.0,i,1.0,True,965.8000000119209,58.0,60.0,40.0,False,,274.0872275068184,[],"[768, 432]",ColorTask,97.0,41.0,,,HRV,HRV_0171,2022-11-30 19:31:49
,wl-rdm,158,438146,0.0-8.41-0.41,1.0,159.0,,,,,,,[],,,,,,53.2,1.0,u,0.0,False,1154.4000000059605,70.0,60.0,40.0,False,,239.23024657841148,[],"[768, 432]",ColorTask,96.0,42.0,,,HRV,HRV_0171,2022-11-30 19:31:49
,wl-rdm,159,441662,0.0-8.42-0.42,1.0,160.0,,,,,,,[],,,,,,53.2,1.0,i,1.0,True,2232.0,134.0,60.0,40.0,False,,223.39173247177254,[],"[768, 432]",ColorTask,97.0,43.0,,,HRV,HRV_0171,2022-11-30 19:31:49
,wl-rdm,160,443780,0.0-8.43-0.43,1.0,161.0,,,,,,,[],,,,,,87.9,0.0,u,0.0,True,724.8000000119209,44.0,60.0,40.0,False,,328.9114431124732,[],"[768, 432]",ColorTask,98.0,44.0,,,HRV,HRV_0171,2022-11-30 19:31:49
,wl-rdm,161,445847,0.0-8.44-0.44,1.0,162.0,,,,,,,[],,,,,,73.6,0.0,u,0.0,True,778.5,47.0,60.0,40.0,False,,210.49127876390736,[],"[768, 432]",ColorTask,99.0,45.0,,,HRV,HRV_0171,2022-11-30 19:31:49
,wl-rdm,162,448378,0.0-8.45-0.45,1.0,163.0,,,,,,,[],,,,,,50.0,0.0,u,0.0,True,1120.6000000089407,68.0,60.0,40.0,False,,331.5781591111888,[],"[768, 432]",ColorTask,100.0,46.0,,,HRV,HRV_0171,2022-11-30 19:31:49
,wl-rdm,163,450362,0.0-8.46-0.46,1.0,164.0,,,,,,,[],,,,,,62.5,0.0,u,0.0,True,565.3999999910593,34.0,60.0,40.0,False,,344.33603930608746,[],"[768, 432]",ColorTask,101.0,47.0,,,HRV,HRV_0171,2022-11-30 19:31:49
,wl-rdm,164,453578,0.0-8.47-0.47,1.0,165.0,,,,,,,[],,,,,,56.4,0.0,u,0.0,True,1920.0999999940395,116.0,60.0,40.0,False,,216.79510240475486,[],"[768, 432]",ColorTask,102.0,48.0,,,HRV,HRV_0171,2022-11-30 19:31:49
,wl-rdm,165,456627,0.0-8.48-0.48,1.0,166.0,,,,,,,[],,,,,,62.5,0.0,i,1.0,False,1593.699999988079,96.0,60.0,40.0,False,,376.02917052822363,[],"[768, 432]",ColorTask,101.0,49.0,,,HRV,HRV_0171,2022-11-30 19:31:49
,wl-rdm,166,458877,0.0-8.49-0.49,1.0,167.0,,,,,,,[],,,,,,87.9,0.0,u,0.0,True,886.2000000029802,54.0,60.0,40.0,False,,286.60161668850776,[],"[768, 432]",ColorTask,102.0,50.0,,,HRV,HRV_0171,2022-11-30 19:31:49
,wl-rdm,167,461193,0.0-8.50-0.50,1.0,168.0,,,,,,,[],,,,,,73.6,0.0,u,0.0,True,841.7000000029802,51.0,60.0,40.0,False,,397.8890084397892,[],"[768, 432]",ColorTask,103.0,51.0,,,HRV,HRV_0171,2022-11-30 19:31:49
,wl-rdm,168,463511,0.0-8.51-0.51,1.0,169.0,,,,,,,[],,,,,,56.4,1.0,i,1.0,True,967.9000000059605,58.0,60.0,40.0,False,,279.1768295535538,[],"[768, 432]",ColorTask,104.0,52.0,,,HRV,HRV_0171,2022-11-30 19:31:49
,wl-rdm,169,465793,0.0-8.52-0.52,1.0,170.0,,,,,,,[],,,,,,62.5,0.0,u,0.0,True,948.0,57.0,60.0,40.0,False,,270.39482791811747,[],"[768, 432]",ColorTask,105.0,53.0,,,HRV,HRV_0171,2022-11-30 19:31:49
,wl-rdm,170,468042,0.0-8.53-0.53,1.0,171.0,,,,,,,[],,,,,,53.2,1.0,u,0.0,False,811.7999999970198,49.0,60.0,40.0,False,,356.91253000143433,[],"[768, 432]",ColorTask,104.0,54.0,,,HRV,HRV_0171,2022-11-30 19:31:49
,wl-rdm,171,471510,0.0-8.54-0.54,1.0,172.0,,,,,,,[],,,,,,50.0,0.0,i,1.0,False,2024.0000000149012,122.0,60.0,40.0,False,,356.0219953854207,[],"[768, 432]",ColorTask,103.0,55.0,,,HRV,HRV_0171,2022-11-30 19:31:49
,wl-rdm,172,473842,0.0-8.55-0.55,1.0,173.0,,,,,,,[],,,,,,73.6,1.0,i,1.0,True,922.0999999940395,56.0,60.0,40.0,False,,350.97135006002736,[],"[768, 432]",ColorTask,104.0,56.0,,,HRV,HRV_0171,2022-11-30 19:31:49
,wl-rdm,173,476558,0.0-8.56-0.56,1.0,174.0,,,,,,,[],,,,,,62.5,0.0,u,0.0,True,1332.7999999970198,80.0,60.0,40.0,False,,317.72921182133734,[],"[768, 432]",ColorTask,105.0,57.0,,,HRV,HRV_0171,2022-11-30 19:31:49
,wl-rdm,174,479025,0.0-8.57-0.57,1.0,175.0,,,,,,,[],,,,,,62.5,1.0,i,1.0,True,1198.300000011921,72.0,60.0,40.0,False,,208.44799590864403,[],"[768, 432]",ColorTask,106.0,58.0,,,HRV,HRV_0171,2022-11-30 19:31:49
,wl-rdm,175,481258,0.0-8.58-0.58,1.0,176.0,,,,,,,[],,,,,,62.5,1.0,i,1.0,True,846.3999999910593,51.0,60.0,40.0,False,,328.1975193090477,[],"[768, 432]",ColorTask,107.0,59.0,,,HRV,HRV_0171,2022-11-30 19:31:49
,wl-rdm,176,483824,0.0-8.59-0.59,1.0,177.0,,,,,,,[],,,,,,56.4,1.0,i,1.0,True,1158.3999999910593,70.0,60.0,40.0,False,,330.08510274042237,[],"[768, 432]",ColorTask,108.0,60.0,,,HRV,HRV_0171,2022-11-30 19:31:49
,wl-rdm,177,486307,0.0-8.60-0.60,1.0,178.0,,,,,,,[],,,,,,53.2,0.0,i,1.0,False,1050.5,63.0,60.0,40.0,False,,360.5821390979504,[],"[768, 432]",ColorTask,107.0,61.0,,,HRV,HRV_0171,2022-11-30 19:31:49
,wl-rdm,178,488291,0.0-8.61-0.61,1.0,179.0,,,,,,,[],,,,,,87.9,0.0,u,0.0,True,584.1000000089407,36.0,60.0,40.0,False,,309.8347074240018,[],"[768, 432]",ColorTask,108.0,62.0,,,HRV,HRV_0171,2022-11-30 19:31:49
,wl-rdm,179,490374,0.0-8.62-0.62,1.0,180.0,,,,,,,[],,,,,,62.5,1.0,i,1.0,True,759.0000000149012,46.0,60.0,40.0,False,,240.71634490355186,[],"[768, 432]",ColorTask,109.0,63.0,,,HRV,HRV_0171,2022-11-30 19:31:49
,wl-rdm,180,492940,0.0-8.63-0.63,1.0,181.0,,,,,,,[],,,,,,73.6,0.0,u,0.0,True,1128.0000000149012,68.0,60.0,40.0,False,,356.63859895895683,[],"[768, 432]",ColorTask,110.0,64.0,,,HRV,HRV_0171,2022-11-30 19:31:49
,wl-rdm,181,494990,0.0-8.64-0.64,1.0,182.0,,,,,,,[],,,,,,87.9,0.0,u,0.0,True,678.5999999940395,41.0,60.0,40.0,False,,308.407535449221,[],"[768, 432]",ColorTask,111.0,65.0,,,HRV,HRV_0171,2022-11-30 19:31:49
,wl-rdm,182,497056,0.0-8.65-0.65,1.0,183.0,,,,,,,[],,,,,,87.9,1.0,i,1.0,True,708.2000000029802,43.0,60.0,40.0,False,,278.3149429686095,[],"[768, 432]",ColorTask,112.0,66.0,,,HRV,HRV_0171,2022-11-30 19:31:49
,wl-rdm,183,499207,0.0-8.66-0.66,1.0,184.0,,,,,,,[],,,,,,73.6,1.0,i,1.0,True,785.5,48.0,60.0,40.0,False,,267.8722533290035,[],"[768, 432]",ColorTask,113.0,67.0,,,HRV,HRV_0171,2022-11-30 19:31:49
,wl-rdm,184,501191,0.0-8.67-0.67,1.0,185.0,,,,,,,[],,,,,,73.6,0.0,u,0.0,True,697.2000000029802,42.0,60.0,40.0,False,,208.17481981459997,[],"[768, 432]",ColorTask,114.0,68.0,,,HRV,HRV_0171,2022-11-30 19:31:49
,wl-rdm,185,504123,0.0-8.68-0.68,1.0,186.0,,,,,,,[],,,,,,50.0,0.0,i,1.0,False,1517.5,92.0,60.0,40.0,False,,332.4331626855685,[],"[768, 432]",ColorTask,113.0,69.0,,,HRV,HRV_0171,2022-11-30 19:31:49
,wl-rdm,186,506689,0.0-8.69-0.69,1.0,187.0,,,,,,,[],,,,,,56.4,0.0,u,0.0,True,1200.5999999940395,73.0,60.0,40.0,False,,286.815684599021,[],"[768, 432]",ColorTask,114.0,70.0,,,HRV,HRV_0171,2022-11-30 19:31:49
,wl-rdm,187,508773,0.0-8.70-0.70,1.0,188.0,,,,,,,[],,,,,,87.9,0.0,u,0.0,True,747.4000000059605,45.0,60.0,40.0,False,,262.40052870540507,[],"[768, 432]",ColorTask,115.0,71.0,,,HRV,HRV_0171,2022-11-30 19:31:49
,wl-rdm,188,510890,0.0-8.71-0.71,1.0,189.0,,,,,,,[],,,,,,87.9,1.0,i,1.0,True,743.0,45.0,60.0,40.0,False,,284.59561438661706,[],"[768, 432]",ColorTask,116.0,72.0,,,HRV,HRV_0171,2022-11-30 19:31:49
,wl-rdm,189,512938,0.0-8.72-0.72,1.0,190.0,,,,,,,[],,,,,,73.6,1.0,i,1.0,True,642.2000000029802,39.0,60.0,40.0,False,,320.50887169444525,[],"[768, 432]",ColorTask,117.0,73.0,,,HRV,HRV_0171,2022-11-30 19:31:49
,wl-rdm,190,514788,0.0-8.73-0.73,1.0,191.0,,,,,,,[],,,,,,87.9,1.0,i,1.0,True,530.6999999880791,32.0,60.0,40.0,False,,234.4709922354094,[],"[768, 432]",ColorTask,118.0,74.0,,,HRV,HRV_0171,2022-11-30 19:31:49
,wl-rdm,191,516805,0.0-8.74-0.74,1.0,192.0,,,,,,,[],,,,,,87.9,0.0,u,0.0,True,590.1000000089407,36.0,60.0,40.0,False,,364.5526359922544,[],"[768, 432]",ColorTask,119.0,75.0,,,HRV,HRV_0171,2022-11-30 19:31:49
,wl-rdm,192,518954,0.0-8.75-0.75,1.0,193.0,,,,,,,[],,,,,,50.0,0.0,i,1.0,False,803.9000000059605,49.0,60.0,40.0,False,,260.54349072796356,[],"[768, 432]",ColorTask,118.0,76.0,,,HRV,HRV_0171,2022-11-30 19:31:49
,wl-rdm,193,521939,0.0-8.76-0.76,1.0,194.0,,,,,,,[],,,,,,56.4,1.0,u,0.0,False,1673.2999999970198,101.0,60.0,40.0,False,,222.93322968223492,[],"[768, 432]",ColorTask,117.0,77.0,,,HRV,HRV_0171,2022-11-30 19:31:49
,wl-rdm,194,524438,0.0-8.77-0.77,1.0,195.0,,,,,,,[],,,,,,50.0,1.0,u,0.0,False,1221.7999999970198,74.0,60.0,40.0,False,,209.80555929151365,[],"[768, 432]",ColorTask,116.0,78.0,,,HRV,HRV_0171,2022-11-30 19:31:49
,wl-rdm,195,527070,0.0-8.78-0.78,1.0,196.0,,,,,,,[],,,,,,53.2,0.0,u,0.0,True,1175.7999999970198,71.0,60.0,40.0,False,,374.1676856730279,[],"[768, 432]",ColorTask,117.0,79.0,,,HRV,HRV_0171,2022-11-30 19:31:49
,wl-rdm,196,529670,0.0-8.79-0.79,1.0,197.0,,,,,,,[],,,,,,53.2,0.0,u,0.0,True,1274.5,77.0,60.0,40.0,False,,249.04782538189505,[],"[768, 432]",ColorTask,118.0,80.0,,,HRV,HRV_0171,2022-11-30 19:31:49
,wl-rdm,197,531853,0.0-8.80-0.80,1.0,198.0,,,,,,,[],,,,,,53.2,1.0,u,0.0,False,726.4000000208616,44.0,60.0,40.0,False,,399.3476432260562,[],"[768, 432]",ColorTask,117.0,81.0,,,HRV,HRV_0171,2022-11-30 19:31:49
,wl-rdm,198,535019,0.0-8.81-0.81,1.0,199.0,,,,,,,[],,,,,,56.4,1.0,i,1.0,True,1742.5,105.0,60.0,40.0,False,,335.74526341299133,[],"[768, 432]",ColorTask,118.0,82.0,,,HRV,HRV_0171,2022-11-30 19:31:49
,wl-rdm,199,537738,0.0-8.82-0.82,1.0,200.0,,,,,,,[],,,,,,62.5,1.0,i,1.0,True,1369.8999999910593,83.0,60.0,40.0,False,,259.1223453553702,[],"[768, 432]",ColorTask,119.0,83.0,,,HRV,HRV_0171,2022-11-30 19:31:49
,wl-rdm,200,540152,0.0-8.83-0.83,1.0,201.0,,,,,,,[],,,,,,62.5,0.0,u,0.0,True,1005.4000000059605,61.0,60.0,40.0,False,,345.7534675991515,[],"[768, 432]",ColorTask,120.0,84.0,,,HRV,HRV_0171,2022-11-30 19:31:49
,wl-rdm,201,543302,0.0-8.84-0.84,1.0,202.0,,,,,,,[],,,,,,50.0,1.0,u,0.0,False,1859.2000000029802,112.0,60.0,40.0,False,,217.40294740018842,[],"[768, 432]",ColorTask,119.0,85.0,,,HRV,HRV_0171,2022-11-30 19:31:49
,wl-rdm,202,545803,0.0-8.85-0.85,1.0,203.0,,,,,,,[],,,,,,56.4,1.0,i,1.0,True,1189.0,72.0,60.0,40.0,False,,219.62442006321322,[],"[768, 432]",ColorTask,120.0,86.0,,,HRV,HRV_0171,2022-11-30 19:31:49
,wl-rdm,203,549518,0.0-8.86-0.86,1.0,204.0,,,,,,,[],,,,,,56.4,0.0,u,0.0,True,2354.9000000059605,142.0,60.0,40.0,False,,290.4518398378619,[],"[768, 432]",ColorTask,121.0,87.0,,,HRV,HRV_0171,2022-11-30 19:31:49
,wl-rdm,204,551784,0.0-8.87-0.87,1.0,205.0,,,,,,,[],,,,,,73.6,1.0,u,0.0,False,803.7000000029802,49.0,60.0,40.0,False,,376.446101707852,[],"[768, 432]",ColorTask,120.0,88.0,,,HRV,HRV_0171,2022-11-30 19:31:49
,wl-rdm,205,554067,0.0-8.88-0.88,1.0,206.0,,,,,,,[],,,,,,62.5,0.0,u,0.0,True,969.7999999970198,59.0,60.0,40.0,False,,241.50464305608634,[],"[768, 432]",ColorTask,121.0,89.0,,,HRV,HRV_0171,2022-11-30 19:31:49
,wl-rdm,206,558084,0.0-8.89-0.89,1.0,207.0,,,,,,,[],,,,,,62.5,1.0,i,1.0,True,2726.2000000029802,164.0,60.0,40.0,False,,210.12482936885255,[],"[768, 432]",ColorTask,122.0,90.0,,,HRV,HRV_0171,2022-11-30 19:31:49
,wl-rdm,207,560618,0.0-8.90-0.90,1.0,208.0,,,,,,,[],,,,,,56.4,1.0,i,1.0,True,1120.0000000149012,68.0,60.0,40.0,False,,328.75820066410677,[],"[768, 432]",ColorTask,123.0,91.0,,,HRV,HRV_0171,2022-11-30 19:31:49
,wl-rdm,208,562783,0.0-8.91-0.91,1.0,209.0,,,,,,,[],,,,,,73.6,0.0,u,0.0,True,854.6000000089407,52.0,60.0,40.0,False,,238.04185008704036,[],"[768, 432]",ColorTask,124.0,92.0,,,HRV,HRV_0171,2022-11-30 19:31:49
,wl-rdm,209,565350,0.0-8.92-0.92,1.0,210.0,,,,,,,[],,,,,,53.2,0.0,u,0.0,True,1219.9000000059605,74.0,60.0,40.0,False,,282.61696619939386,[],"[768, 432]",ColorTask,125.0,93.0,,,HRV,HRV_0171,2022-11-30 19:31:49
,wl-rdm,210,567883,0.0-8.93-0.93,1.0,211.0,,,,,,,[],,,,,,56.4,1.0,i,1.0,True,1240.1000000089407,75.0,60.0,40.0,False,,219.21875777129986,[],"[768, 432]",ColorTask,126.0,94.0,,,HRV,HRV_0171,2022-11-30 19:31:49
,wl-rdm,211,570033,0.0-8.94-0.94,1.0,212.0,,,,,,,[],,,,,,53.2,1.0,u,0.0,False,867.4000000208616,53.0,60.0,40.0,False,,209.65120702749707,[],"[768, 432]",ColorTask,125.0,95.0,,,HRV,HRV_0171,2022-11-30 19:31:49
,wl-rdm,212,572132,0.0-8.95-0.95,1.0,213.0,,,,,,,[],,,,,,50.0,0.0,i,1.0,False,806.3999999910593,49.0,60.0,40.0,False,,222.4349225773407,[],"[768, 432]",ColorTask,124.0,96.0,,,HRV,HRV_0171,2022-11-30 19:31:49
,wl-rdm,213,574932,0.0-8.96-0.96,1.0,214.0,,,,,,,[],,,,,,50.0,1.0,u,0.0,False,1398.0999999940395,84.0,60.0,40.0,False,,318.5822346415023,[],"[768, 432]",ColorTask,123.0,97.0,,,HRV,HRV_0171,2022-11-30 19:31:49
,wl-rdm,214,577215,0.0-8.97-0.97,1.0,215.0,,,,,,,[],,,,,,87.9,0.0,u,0.0,True,898.7999999970198,54.0,60.0,40.0,False,,329.2195419614153,[],"[768, 432]",ColorTask,124.0,98.0,,,HRV,HRV_0171,2022-11-30 19:31:49
,wl-rdm,215,579532,0.0-8.98-0.98,1.0,216.0,,,,,,,[],,,,,,50.0,1.0,i,1.0,True,921.5000000149012,56.0,60.0,40.0,False,,308.18872011740706,[],"[768, 432]",ColorTask,125.0,99.0,,,HRV,HRV_0171,2022-11-30 19:31:49
,wl-rdm,216,583631,0.0-8.99-0.99,1.0,217.0,,,,,,,[],,,,,,56.4,0.0,i,1.0,False,2788.5,168.0,60.0,40.0,False,,224.73163420752653,[],"[768, 432]",ColorTask,124.0,100.0,,,HRV,HRV_0171,2022-11-30 19:31:49
,wl-rdm,217,585864,0.0-8.100-0.100,1.0,218.0,,,,,,,[],,,,,,53.2,1.0,i,1.0,True,830.2999999970198,50.0,60.0,40.0,False,,330.86158901357993,[],"[768, 432]",ColorTask,125.0,101.0,,,HRV,HRV_0171,2022-11-30 19:31:49
,wl-rdm,218,589047,0.0-8.101-0.101,1.0,219.0,,,,,,,[],,,,,,50.0,1.0,u,0.0,False,1779.2999999970198,107.0,60.0,40.0,False,,324.76599287553364,[],"[768, 432]",ColorTask,124.0,102.0,,,HRV,HRV_0171,2022-11-30 19:31:49
,wl-rdm,219,591530,0.0-8.102-0.102,1.0,220.0,,,,,,,[],,,,,,56.4,1.0,i,1.0,True,1138.1000000089407,69.0,60.0,40.0,False,,265.55588826981534,[],"[768, 432]",ColorTask,125.0,103.0,,,HRV,HRV_0171,2022-11-30 19:31:49
,wl-rdm,220,593947,0.0-8.103-0.103,1.0,221.0,,,,,,,[],,,,,,56.4,0.0,u,0.0,True,1114.0999999940395,67.0,60.0,40.0,False,,232.2549691540177,[],"[768, 432]",ColorTask,126.0,104.0,,,HRV,HRV_0171,2022-11-30 19:31:49
,wl-rdm,221,597413,0.0-8.104-0.104,1.0,222.0,,,,,,,[],,,,,,53.2,1.0,u,0.0,False,2005.0,121.0,60.0,40.0,False,,370.7019500191893,[],"[768, 432]",ColorTask,125.0,105.0,,,HRV,HRV_0171,2022-11-30 19:31:49
,wl-rdm,222,599830,0.0-8.105-0.105,1.0,223.0,,,,,,,[],,,,,,53.2,1.0,u,0.0,False,1077.5999999940395,65.0,60.0,40.0,False,,256.41937203890177,[],"[768, 432]",ColorTask,124.0,106.0,,,HRV,HRV_0171,2022-11-30 19:31:49
,wl-rdm,223,601814,0.0-8.106-0.106,1.0,224.0,,,,,,,[],,,,,,87.9,1.0,i,1.0,True,648.0999999940395,39.0,60.0,40.0,False,,253.63469342413777,[],"[768, 432]",ColorTask,125.0,107.0,,,HRV,HRV_0171,2022-11-30 19:31:49
,wl-rdm,224,605212,0.0-8.107-0.107,1.0,225.0,,,,,,,[],,,,,,50.0,0.0,u,0.0,True,2055.2999999821186,124.0,60.0,40.0,False,,282.82421365577704,[],"[768, 432]",ColorTask,126.0,108.0,,,HRV,HRV_0171,2022-11-30 19:31:49
,wl-html-button-response,225,607025,0.0-9.0-0.0,,,,,,,,,,1809.2000000029802,,0,,,,,,,,,,,,,,,,,,,,<h3>End of this session. Thank you!</h3><br>,['Close window'],HRV,HRV_0171,2022-11-30 19:31:49
