trialN,stimuli,trialStartTime,trialStartTime_UNIX,stimulus1,stimulus2,stimulus1Bid,stimulus2Bid,delta,selected,rt,rt_UNIX,rt_perfnow,receivedResponse,rsp,trialEndTime,trialDuration,trialEndTime_UNIX,trialDuration_UNIX,exp,subjectId,date
0,"[{'imgObject': {}, 'id': 'bagel plain', 'src': '/static/foodstim60/bagel plain.jpg', 'key': 'u', 'origWidth': 410, 'origHeight': 410, 'width': 410, 'height': 410, 'widthPercent': 0.45, 'rescaleHeight': False, 'trialN': 0, 'loaded': True, 'loadedTime': 2178.600000023842, 'positionName': 'LEFT', 'positionCoords': [511.6, 335], 'bid': 6.8}, {'imgObject': {}, 'id': 'mac & cheese', 'src': '/static/foodstim60/mac & cheese.jpg', 'key': 'i', 'origWidth': 410, 'origHeight': 410, 'width': 410, 'height': 410, 'widthPercent': 0.45, 'rescaleHeight': False, 'trialN': 0, 'loaded': True, 'loadedTime': 2231.5, 'positionName': 'RIGHT', 'positionCoords': [998.4, 335], 'bid': 9.45}]",2584.7000000476837,1669839813035,bagel plain,mac & cheese,6.8,9.45,2.6499999999999995,mac & cheese,1051.5,1052,1051.8999999761581,True,i,4138.100000023842,1553.3999999761581,1669839814589,1554,HRV,HRV_0282,2022-11-30 20:29:11
1,"[{'imgObject': {}, 'id': 'hashbrowns', 'src': '/static/foodstim60/hashbrowns.jpg', 'key': 'u', 'origWidth': 411, 'origHeight': 410, 'width': 411, 'height': 410, 'widthPercent': 0.45, 'rescaleHeight': False, 'trialN': 1, 'loaded': True, 'loadedTime': 2254.399999976158, 'positionName': 'LEFT', 'positionCoords': [510.6, 335], 'bid': 8.36}, {'imgObject': {}, 'id': 'sweetpotato', 'src': '/static/foodstim60/sweetpotato.jpg', 'key': 'i', 'origWidth': 410, 'origHeight': 410, 'width': 410, 'height': 410, 'widthPercent': 0.45, 'rescaleHeight': False, 'trialN': 1, 'loaded': True, 'loadedTime': 2256.100000023842, 'positionName': 'RIGHT', 'positionCoords': [998.4, 335], 'bid': 6.92}]",4138.5,1669839814589,hashbrowns,sweetpotato,8.36,6.92,-1.4399999999999995,hashbrowns,1138,1139,1138.3999999761581,True,u,5780.600000023842,1642.1000000238419,1669839816231,1642,HRV,HRV_0282,2022-11-30 20:29:11
2,"[{'imgObject': {}, 'id': 'rigatoni and sauce', 'src': '/static/foodstim60/rigatoni and sauce.jpg', 'key': 'u', 'origWidth': 410, 'origHeight': 411, 'width': 410, 'height': 411, 'widthPercent': 0.45, 'rescaleHeight': False, 'trialN': 2, 'loaded': True, 'loadedTime': 2258.399999976158, 'positionName': 'LEFT', 'positionCoords': [511.6, 334.5], 'bid': 7.79}, {'imgObject': {}, 'id': 'ice cream sundae 002', 'src': '/static/foodstim60/ice cream sundae 002.jpg', 'key': 'i', 'origWidth': 409, 'origHeight': 409, 'width': 409, 'height': 409, 'widthPercent': 0.45, 'rescaleHeight': False, 'trialN': 2, 'loaded': True, 'loadedTime': 2259.7999999523163, 'positionName': 'RIGHT', 'positionCoords': [998.4, 335.5], 'bid': 7.67}]",5780.700000047684,1669839816231,rigatoni and sauce,ice cream sundae 002,7.79,7.67,-0.1200000000000001,rigatoni and sauce,1447.1999999284744,1448,1447.2999999523163,True,u,7739.700000047684,1959.0,1669839818190,1959,HRV,HRV_0282,2022-11-30 20:29:11
3,"[{'imgObject': {}, 'id': 'bagel plain', 'src': '/static/foodstim60/bagel plain.jpg', 'key': 'u', 'origWidth': 410, 'origHeight': 410, 'width': 410, 'height': 410, 'widthPercent': 0.45, 'rescaleHeight': False, 'trialN': 3, 'loaded': True, 'loadedTime': 2203.7000000476837, 'positionName': 'LEFT', 'positionCoords': [511.6, 335], 'bid': 6.8}, {'imgObject': {}, 'id': 'strawberries', 'src': '/static/foodstim60/strawberries.jpg', 'key': 'i', 'origWidth': 410, 'origHeight': 410, 'width': 410, 'height': 410, 'widthPercent': 0.45, 'rescaleHeight': False, 'trialN': 3, 'loaded': True, 'loadedTime': 2261.399999976158, 'positionName': 'RIGHT', 'positionCoords': [998.4, 335], 'bid': 6.65}]",7741.100000023842,1669839818192,bagel plain,strawberries,6.8,6.65,-0.14999999999999947,bagel plain,1238.6999999284744,1239,1238.8999999761581,True,u,9481.899999976158,1740.7999999523163,1669839819933,1741,HRV,HRV_0282,2022-11-30 20:29:11
4,"[{'imgObject': {}, 'id': 'eggsalad', 'src': '/static/foodstim60/eggsalad.jpg', 'key': 'u', 'origWidth': 410, 'origHeight': 409, 'width': 410, 'height': 409, 'widthPercent': 0.45, 'rescaleHeight': False, 'trialN': 4, 'loaded': True, 'loadedTime': 2261.7999999523163, 'positionName': 'LEFT', 'positionCoords': [511.6, 335.5], 'bid': 7.44}, {'imgObject': {}, 'id': 'cherries', 'src': '/static/foodstim60/cherries.jpg', 'key': 'i', 'origWidth': 410, 'origHeight': 411, 'width': 410, 'height': 411, 'widthPercent': 0.45, 'rescaleHeight': False, 'trialN': 4, 'loaded': True, 'loadedTime': 2263, 'positionName': 'RIGHT', 'positionCoords': [998.4, 334.5], 'bid': 2.05}]",9482.200000047684,1669839819933,eggsalad,cherries,7.44,2.05,-5.390000000000001,eggsalad,1433.7999999523163,1434,1434.0,True,u,11417.700000047684,1935.5,1669839821868,1935,HRV,HRV_0282,2022-11-30 20:29:11
5,"[{'imgObject': {}, 'id': 'raspberries', 'src': '/static/foodstim60/raspberries.jpg', 'key': 'u', 'origWidth': 411, 'origHeight': 411, 'width': 411, 'height': 411, 'widthPercent': 0.45, 'rescaleHeight': False, 'trialN': 5, 'loaded': True, 'loadedTime': 2266.2000000476837, 'positionName': 'LEFT', 'positionCoords': [510.6, 334.5], 'bid': 2.15}, {'imgObject': {}, 'id': 'shreddedwheatwithmilk', 'src': '/static/foodstim60/shreddedwheatwithmilk.jpg', 'key': 'i', 'origWidth': 410, 'origHeight': 410, 'width': 410, 'height': 410, 'widthPercent': 0.45, 'rescaleHeight': False, 'trialN': 5, 'loaded': True, 'loadedTime': 2268.2000000476837, 'positionName': 'RIGHT', 'positionCoords': [998.4, 335], 'bid': 5.47}]",11417.799999952316,1669839821868,raspberries,shreddedwheatwithmilk,2.15,5.47,3.32,shreddedwheatwithmilk,1602.2000000476837,1603,1602.7000000476837,True,i,13521.600000023842,2103.8000000715256,1669839823972,2104,HRV,HRV_0282,2022-11-30 20:29:11
6,"[{'imgObject': {}, 'id': 'turkey sandwich', 'src': '/static/foodstim60/turkey sandwich.jpg', 'key': 'u', 'origWidth': 409, 'origHeight': 409, 'width': 409, 'height': 409, 'widthPercent': 0.45, 'rescaleHeight': False, 'trialN': 6, 'loaded': True, 'loadedTime': 2270.2999999523163, 'positionName': 'LEFT', 'positionCoords': [512.6, 335.5], 'bid': 9.17}, {'imgObject': {}, 'id': 'edamame', 'src': '/static/foodstim60/edamame.jpg', 'key': 'i', 'origWidth': 409, 'origHeight': 410, 'width': 409, 'height': 410, 'widthPercent': 0.45, 'rescaleHeight': False, 'trialN': 6, 'loaded': True, 'loadedTime': 2273.2000000476837, 'positionName': 'RIGHT', 'positionCoords': [998.4, 335], 'bid': 9.17}]",13521.899999976158,1669839823972,turkey sandwich,edamame,9.17,9.17,0.0,turkey sandwich,945.8999999761581,947,946.1000000238419,True,u,14972.600000023842,1450.7000000476837,1669839825423,1451,HRV,HRV_0282,2022-11-30 20:29:11
7,"[{'imgObject': {}, 'id': 'bagel plain', 'src': '/static/foodstim60/bagel plain.jpg', 'key': 'u', 'origWidth': 410, 'origHeight': 410, 'width': 410, 'height': 410, 'widthPercent': 0.45, 'rescaleHeight': False, 'trialN': 7, 'loaded': True, 'loadedTime': 2203.899999976158, 'positionName': 'LEFT', 'positionCoords': [511.6, 335], 'bid': 6.8}, {'imgObject': {}, 'id': 'hotdog w must', 'src': '/static/foodstim60/hotdog w must.jpg', 'key': 'i', 'origWidth': 409, 'origHeight': 409, 'width': 409, 'height': 409, 'widthPercent': 0.45, 'rescaleHeight': False, 'trialN': 7, 'loaded': True, 'loadedTime': 2274.399999976158, 'positionName': 'RIGHT', 'positionCoords': [998.4, 335.5], 'bid': 6.86}]",14972.799999952316,1669839825423,bagel plain,hotdog w must,6.8,6.86,0.0600000000000005,hotdog w must,1343.3000000715256,1344,1343.6000000238419,True,i,16821.5,1848.7000000476837,1669839827272,1849,HRV,HRV_0282,2022-11-30 20:29:11
8,"[{'imgObject': {}, 'id': 'chicken nuggets2', 'src': '/static/foodstim60/chicken nuggets2.jpg', 'key': 'u', 'origWidth': 410, 'origHeight': 409, 'width': 410, 'height': 409, 'widthPercent': 0.45, 'rescaleHeight': False, 'trialN': 8, 'loaded': True, 'loadedTime': 2275.7999999523163, 'positionName': 'LEFT', 'positionCoords': [511.6, 335.5], 'bid': 8.620000000000001}, {'imgObject': {}, 'id': 'lox', 'src': '/static/foodstim60/lox.jpg', 'key': 'i', 'origWidth': 410, 'origHeight': 411, 'width': 410, 'height': 411, 'widthPercent': 0.45, 'rescaleHeight': False, 'trialN': 8, 'loaded': True, 'loadedTime': 2280.600000023842, 'positionName': 'RIGHT', 'positionCoords': [998.4, 334.5], 'bid': 8.75}]",16821.600000023842,1669839827272,chicken nuggets2,lox,8.620000000000001,8.75,0.129999999999999,chicken nuggets2,1670.6999999284744,1671,1671.0,True,u,19001.100000023842,2179.5,1669839829452,2180,HRV,HRV_0282,2022-11-30 20:29:11
9,"[{'imgObject': {}, 'id': 'yogurt no spoon', 'src': '/static/foodstim60/yogurt no spoon.jpg', 'key': 'u', 'origWidth': 411, 'origHeight': 410, 'width': 411, 'height': 410, 'widthPercent': 0.45, 'rescaleHeight': False, 'trialN': 9, 'loaded': True, 'loadedTime': 2248.2000000476837, 'positionName': 'LEFT', 'positionCoords': [510.6, 335], 'bid': 5.71}, {'imgObject': {}, 'id': 'mango', 'src': '/static/foodstim60/mango.jpg', 'key': 'i', 'origWidth': 411, 'origHeight': 411, 'width': 411, 'height': 411, 'widthPercent': 0.45, 'rescaleHeight': False, 'trialN': 9, 'loaded': True, 'loadedTime': 2265, 'positionName': 'RIGHT', 'positionCoords': [998.4, 334.5], 'bid': 6.22}]",19001.399999976158,1669839829452,yogurt no spoon,mango,5.71,6.22,0.5099999999999998,yogurt no spoon,1362.5,1363,1362.8000000715256,True,u,20869.799999952316,1868.3999999761581,1669839831320,1868,HRV,HRV_0282,2022-11-30 20:29:11
10,"[{'imgObject': {}, 'id': 'salmon', 'src': '/static/foodstim60/salmon.jpg', 'key': 'u', 'origWidth': 410, 'origHeight': 409, 'width': 410, 'height': 409, 'widthPercent': 0.45, 'rescaleHeight': False, 'trialN': 10, 'loaded': True, 'loadedTime': 2268, 'positionName': 'LEFT', 'positionCoords': [511.6, 335.5], 'bid': 9.37}, {'imgObject': {}, 'id': 'mac & cheese', 'src': '/static/foodstim60/mac & cheese.jpg', 'key': 'i', 'origWidth': 410, 'origHeight': 410, 'width': 410, 'height': 410, 'widthPercent': 0.45, 'rescaleHeight': False, 'trialN': 10, 'loaded': True, 'loadedTime': 2244.7000000476837, 'positionName': 'RIGHT', 'positionCoords': [998.4, 335], 'bid': 9.45}]",20869.899999976158,1669839831321,salmon,mac & cheese,9.37,9.45,0.08000000000000007,mac & cheese,1582.3000000715256,1583,1583.3000000715256,True,i,22972.600000023842,2102.7000000476837,1669839833423,2102,HRV,HRV_0282,2022-11-30 20:29:11
11,"[{'imgObject': {}, 'id': 'cheerios', 'src': '/static/foodstim60/cheerios.jpg', 'key': 'u', 'origWidth': 409, 'origHeight': 410, 'width': 409, 'height': 410, 'widthPercent': 0.45, 'rescaleHeight': False, 'trialN': 11, 'loaded': True, 'loadedTime': 2318.7000000476837, 'positionName': 'LEFT', 'positionCoords': [512.6, 335], 'bid': 4.39}, {'imgObject': {}, 'id': 'eggs', 'src': '/static/foodstim60/eggs.jpg', 'key': 'i', 'origWidth': 409, 'origHeight': 409, 'width': 409, 'height': 409, 'widthPercent': 0.45, 'rescaleHeight': False, 'trialN': 11, 'loaded': True, 'loadedTime': 2329.2999999523163, 'positionName': 'RIGHT', 'positionCoords': [998.4, 335.5], 'bid': 6.61}]",22972.700000047684,1669839833423,cheerios,eggs,4.39,6.61,2.2200000000000006,eggs,1439.2999999523163,1440,1439.5999999046326,True,i,24924.5,1951.7999999523163,1669839835375,1952,HRV,HRV_0282,2022-11-30 20:29:11
12,"[{'imgObject': {}, 'id': 'turkeysandwich', 'src': '/static/foodstim60/turkeysandwich.jpg', 'key': 'u', 'origWidth': 409, 'origHeight': 409, 'width': 409, 'height': 409, 'widthPercent': 0.45, 'rescaleHeight': False, 'trialN': 12, 'loaded': True, 'loadedTime': 2332.7999999523163, 'positionName': 'LEFT', 'positionCoords': [512.6, 335.5], 'bid': 9.67}, {'imgObject': {}, 'id': 'chicken nuggets2', 'src': '/static/foodstim60/chicken nuggets2.jpg', 'key': 'i', 'origWidth': 410, 'origHeight': 409, 'width': 410, 'height': 409, 'widthPercent': 0.45, 'rescaleHeight': False, 'trialN': 12, 'loaded': True, 'loadedTime': 2274.7999999523163, 'positionName': 'RIGHT', 'positionCoords': [998.4, 335.5], 'bid': 8.620000000000001}]",24924.600000023842,1669839835375,turkeysandwich,chicken nuggets2,9.67,8.620000000000001,-1.049999999999999,turkeysandwich,1096.3999999761581,1097,1097.1000000238419,True,u,26534.5,1609.8999999761581,1669839836985,1610,HRV,HRV_0282,2022-11-30 20:29:11
13,"[{'imgObject': {}, 'id': 'steak', 'src': '/static/foodstim60/steak.jpg', 'key': 'u', 'origWidth': 410, 'origHeight': 410, 'width': 410, 'height': 410, 'widthPercent': 0.45, 'rescaleHeight': False, 'trialN': 13, 'loaded': True, 'loadedTime': 2353.600000023842, 'positionName': 'LEFT', 'positionCoords': [511.6, 335], 'bid': 9.7}, {'imgObject': {}, 'id': 'turkeysandwich', 'src': '/static/foodstim60/turkeysandwich.jpg', 'key': 'i', 'origWidth': 409, 'origHeight': 409, 'width': 409, 'height': 409, 'widthPercent': 0.45, 'rescaleHeight': False, 'trialN': 13, 'loaded': True, 'loadedTime': 2334, 'positionName': 'RIGHT', 'positionCoords': [998.4, 335.5], 'bid': 9.67}]",26534.600000023842,1669839836985,steak,turkeysandwich,9.7,9.67,-0.02999999999999936,steak,1102.1999999284744,1103,1103.0,True,u,28140.399999976158,1605.7999999523163,1669839838591,1606,HRV,HRV_0282,2022-11-30 20:29:11
14,"[{'imgObject': {}, 'id': 'salmon', 'src': '/static/foodstim60/salmon.jpg', 'key': 'u', 'origWidth': 410, 'origHeight': 409, 'width': 410, 'height': 409, 'widthPercent': 0.45, 'rescaleHeight': False, 'trialN': 14, 'loaded': True, 'loadedTime': 2267.899999976158, 'positionName': 'LEFT', 'positionCoords': [511.6, 335.5], 'bid': 9.37}, {'imgObject': {}, 'id': 'burger', 'src': '/static/foodstim60/burger.jpg', 'key': 'i', 'origWidth': 409, 'origHeight': 409, 'width': 409, 'height': 409, 'widthPercent': 0.45, 'rescaleHeight': False, 'trialN': 14, 'loaded': True, 'loadedTime': 2361, 'positionName': 'RIGHT', 'positionCoords': [998.4, 335.5], 'bid': 8.44}]",28140.600000023842,1669839838591,salmon,burger,9.37,8.44,-0.9299999999999997,burger,1703.2999999523163,1704,1703.5,True,i,30352.100000023842,2211.5,1669839840803,2212,HRV,HRV_0282,2022-11-30 20:29:11
15,"[{'imgObject': {}, 'id': 'bagel and cc', 'src': '/static/foodstim60/bagel and cc.jpg', 'key': 'u', 'origWidth': 410, 'origHeight': 410, 'width': 410, 'height': 410, 'widthPercent': 0.45, 'rescaleHeight': False, 'trialN': 15, 'loaded': True, 'loadedTime': 2367.7999999523163, 'positionName': 'LEFT', 'positionCoords': [511.6, 335], 'bid': 7.390000000000001}, {'imgObject': {}, 'id': 'sweetpotato', 'src': '/static/foodstim60/sweetpotato.jpg', 'key': 'i', 'origWidth': 410, 'origHeight': 410, 'width': 410, 'height': 410, 'widthPercent': 0.45, 'rescaleHeight': False, 'trialN': 15, 'loaded': True, 'loadedTime': 2256.2999999523163, 'positionName': 'RIGHT', 'positionCoords': [998.4, 335], 'bid': 6.92}]",30352.299999952316,1669839840803,bagel and cc,sweetpotato,7.390000000000001,6.92,-0.47000000000000064,bagel and cc,1308.8000000715256,1309,1309.5,True,u,32182.0,1829.7000000476837,1669839842633,1830,HRV,HRV_0282,2022-11-30 20:29:11
16,"[{'imgObject': {}, 'id': 'hashbrowns', 'src': '/static/foodstim60/hashbrowns.jpg', 'key': 'u', 'origWidth': 411, 'origHeight': 410, 'width': 411, 'height': 410, 'widthPercent': 0.45, 'rescaleHeight': False, 'trialN': 16, 'loaded': True, 'loadedTime': 2254.2999999523163, 'positionName': 'LEFT', 'positionCoords': [510.6, 335], 'bid': 8.36}, {'imgObject': {}, 'id': 'burrito', 'src': '/static/foodstim60/burrito.jpg', 'key': 'i', 'origWidth': 410, 'origHeight': 410, 'width': 410, 'height': 410, 'widthPercent': 0.45, 'rescaleHeight': False, 'trialN': 16, 'loaded': True, 'loadedTime': 2390.100000023842, 'positionName': 'RIGHT', 'positionCoords': [998.4, 335], 'bid': 9.31}]",32182.299999952316,1669839842633,hashbrowns,burrito,8.36,9.31,0.9500000000000011,burrito,1381.7000000476837,1382,1382.0,True,i,34072.700000047684,1890.4000000953674,1669839844523,1890,HRV,HRV_0282,2022-11-30 20:29:11
17,"[{'imgObject': {}, 'id': 'raspberries', 'src': '/static/foodstim60/raspberries.jpg', 'key': 'u', 'origWidth': 411, 'origHeight': 411, 'width': 411, 'height': 411, 'widthPercent': 0.45, 'rescaleHeight': False, 'trialN': 17, 'loaded': True, 'loadedTime': 2266.7999999523163, 'positionName': 'LEFT', 'positionCoords': [510.6, 334.5], 'bid': 2.15}, {'imgObject': {}, 'id': 'blackbeanswithrice', 'src': '/static/foodstim60/blackbeanswithrice.jpg', 'key': 'i', 'origWidth': 410, 'origHeight': 410, 'width': 410, 'height': 410, 'widthPercent': 0.45, 'rescaleHeight': False, 'trialN': 17, 'loaded': True, 'loadedTime': 2403.7000000476837, 'positionName': 'RIGHT', 'positionCoords': [998.4, 335], 'bid': 5.97}]",34072.89999997616,1669839844524,raspberries,blackbeanswithrice,2.15,5.97,3.82,blackbeanswithrice,1355.3999999761581,1355,1355.8000000715256,True,i,35940.60000002384,1867.7000000476837,1669839846391,1867,HRV,HRV_0282,2022-11-30 20:29:11
18,"[{'imgObject': {}, 'id': 'olives', 'src': '/static/foodstim60/olives.jpg', 'key': 'u', 'origWidth': 410, 'origHeight': 410, 'width': 410, 'height': 410, 'widthPercent': 0.45, 'rescaleHeight': False, 'trialN': 18, 'loaded': True, 'loadedTime': 2418.7999999523163, 'positionName': 'LEFT', 'positionCoords': [511.6, 335], 'bid': 5.64}, {'imgObject': {}, 'id': 'blackbeanswithrice', 'src': '/static/foodstim60/blackbeanswithrice.jpg', 'key': 'i', 'origWidth': 410, 'origHeight': 410, 'width': 410, 'height': 410, 'widthPercent': 0.45, 'rescaleHeight': False, 'trialN': 18, 'loaded': True, 'loadedTime': 2404, 'positionName': 'RIGHT', 'positionCoords': [998.4, 335], 'bid': 5.97}]",35941.0,1669839846392,olives,blackbeanswithrice,5.64,5.97,0.33000000000000007,blackbeanswithrice,1680,1680,1680.6000000238419,True,i,38143.89999997616,2202.899999976158,1669839848594,2202,HRV,HRV_0282,2022-11-30 20:29:11
19,"[{'imgObject': {}, 'id': 'ice cream sundae 002', 'src': '/static/foodstim60/ice cream sundae 002.jpg', 'key': 'u', 'origWidth': 409, 'origHeight': 409, 'width': 409, 'height': 409, 'widthPercent': 0.45, 'rescaleHeight': False, 'trialN': 19, 'loaded': True, 'loadedTime': 2258.7999999523163, 'positionName': 'LEFT', 'positionCoords': [512.6, 335.5], 'bid': 7.67}, {'imgObject': {}, 'id': 'omelette', 'src': '/static/foodstim60/omelette.jpg', 'key': 'i', 'origWidth': 410, 'origHeight': 409, 'width': 410, 'height': 409, 'widthPercent': 0.45, 'rescaleHeight': False, 'trialN': 19, 'loaded': True, 'loadedTime': 2434.5, 'positionName': 'RIGHT', 'positionCoords': [998.4, 335.5], 'bid': 6.37}]",38143.89999997616,1669839848595,ice cream sundae 002,omelette,7.67,6.37,-1.2999999999999998,ice cream sundae 002,1644.1000000238419,1644,1644.3000000715256,True,u,40290.700000047684,2146.8000000715256,1669839850741,2146,HRV,HRV_0282,2022-11-30 20:29:11
20,"[{'imgObject': {}, 'id': 'omelette', 'src': '/static/foodstim60/omelette.jpg', 'key': 'u', 'origWidth': 410, 'origHeight': 409, 'width': 410, 'height': 409, 'widthPercent': 0.45, 'rescaleHeight': False, 'trialN': 20, 'loaded': True, 'loadedTime': 2434.600000023842, 'positionName': 'LEFT', 'positionCoords': [511.6, 335.5], 'bid': 6.37}, {'imgObject': {}, 'id': 'apple slices', 'src': '/static/foodstim60/apple slices.jpg', 'key': 'i', 'origWidth': 409, 'origHeight': 410, 'width': 409, 'height': 410, 'widthPercent': 0.45, 'rescaleHeight': False, 'trialN': 20, 'loaded': True, 'loadedTime': 2449.7999999523163, 'positionName': 'RIGHT', 'positionCoords': [998.4, 335], 'bid': 4.38}]",40290.700000047684,1669839850741,omelette,apple slices,6.37,4.38,-1.9900000000000002,omelette,1097.5,1098,1097.7999999523163,True,u,41893.799999952316,1603.0999999046326,1669839852344,1603,HRV,HRV_0282,2022-11-30 20:29:11
21,"[{'imgObject': {}, 'id': 'yogurt no spoon', 'src': '/static/foodstim60/yogurt no spoon.jpg', 'key': 'u', 'origWidth': 411, 'origHeight': 410, 'width': 411, 'height': 410, 'widthPercent': 0.45, 'rescaleHeight': False, 'trialN': 21, 'loaded': True, 'loadedTime': 2250.7999999523163, 'positionName': 'LEFT', 'positionCoords': [510.6, 335], 'bid': 5.71}, {'imgObject': {}, 'id': 'Tribe humus pita', 'src': '/static/foodstim60/Tribe humus pita.jpg', 'key': 'i', 'origWidth': 411, 'origHeight': 411, 'width': 411, 'height': 411, 'widthPercent': 0.45, 'rescaleHeight': False, 'trialN': 21, 'loaded': True, 'loadedTime': 2450.2000000476837, 'positionName': 'RIGHT', 'positionCoords': [998.4, 334.5], 'bid': 8.93}]",41894.10000002384,1669839852345,yogurt no spoon,Tribe humus pita,5.71,8.93,3.2199999999999998,Tribe humus pita,1190,1190,1190.2999999523163,True,i,43597.799999952316,1703.6999999284744,1669839854048,1703,HRV,HRV_0282,2022-11-30 20:29:11
22,"[{'imgObject': {}, 'id': 'steak', 'src': '/static/foodstim60/steak.jpg', 'key': 'u', 'origWidth': 410, 'origHeight': 410, 'width': 410, 'height': 410, 'widthPercent': 0.45, 'rescaleHeight': False, 'trialN': 22, 'loaded': True, 'loadedTime': 2355.7000000476837, 'positionName': 'LEFT', 'positionCoords': [511.6, 335], 'bid': 9.7}, {'imgObject': {}, 'id': 'sushi w_condiments', 'src': '/static/foodstim60/sushi w_condiments.jpg', 'key': 'i', 'origWidth': 410, 'origHeight': 410, 'width': 410, 'height': 410, 'widthPercent': 0.45, 'rescaleHeight': False, 'trialN': 22, 'loaded': True, 'loadedTime': 2466.2999999523163, 'positionName': 'RIGHT', 'positionCoords': [998.4, 335], 'bid': 9.77}]",43598.10000002384,1669839854049,steak,sushi w_condiments,9.7,9.77,0.07000000000000028,steak,1727.1000000238419,1727,1727.6000000238419,True,u,45836.0,2237.899999976158,1669839856286,2237,HRV,HRV_0282,2022-11-30 20:29:11
23,"[{'imgObject': {}, 'id': 'baked potato', 'src': '/static/foodstim60/baked potato.jpg', 'key': 'u', 'origWidth': 409, 'origHeight': 410, 'width': 409, 'height': 410, 'widthPercent': 0.45, 'rescaleHeight': False, 'trialN': 23, 'loaded': True, 'loadedTime': 2496.2000000476837, 'positionName': 'LEFT', 'positionCoords': [512.6, 335], 'bid': 9.19}, {'imgObject': {}, 'id': 'burrito', 'src': '/static/foodstim60/burrito.jpg', 'key': 'i', 'origWidth': 410, 'origHeight': 410, 'width': 410, 'height': 410, 'widthPercent': 0.45, 'rescaleHeight': False, 'trialN': 23, 'loaded': True, 'loadedTime': 2390, 'positionName': 'RIGHT', 'positionCoords': [998.4, 335], 'bid': 9.31}]",45836.10000002384,1669839856287,baked potato,burrito,9.19,9.31,0.120000000000001,burrito,1481.7999999523163,1482,1482.1999999284744,True,i,47832.799999952316,1996.6999999284744,1669839858283,1996,HRV,HRV_0282,2022-11-30 20:29:11
24,"[{'imgObject': {}, 'id': 'corn cob', 'src': '/static/foodstim60/corn cob.jpg', 'key': 'u', 'origWidth': 411, 'origHeight': 411, 'width': 411, 'height': 411, 'widthPercent': 0.45, 'rescaleHeight': False, 'trialN': 24, 'loaded': True, 'loadedTime': 2499, 'positionName': 'LEFT', 'positionCoords': [510.6, 334.5], 'bid': 7.140000000000001}, {'imgObject': {}, 'id': 'raisin bran w milk', 'src': '/static/foodstim60/raisin bran w milk.jpg', 'key': 'i', 'origWidth': 411, 'origHeight': 411, 'width': 411, 'height': 411, 'widthPercent': 0.45, 'rescaleHeight': False, 'trialN': 24, 'loaded': True, 'loadedTime': 2501.5, 'positionName': 'RIGHT', 'positionCoords': [998.4, 334.5], 'bid': 5.48}]",47832.89999997616,1669839858283,corn cob,raisin bran w milk,7.140000000000001,5.48,-1.6600000000000001,corn cob,1283,1284,1283.2000000476837,True,u,49629.299999952316,1796.3999999761581,1669839860080,1797,HRV,HRV_0282,2022-11-30 20:29:11
25,"[{'imgObject': {}, 'id': 'eggs', 'src': '/static/foodstim60/eggs.jpg', 'key': 'u', 'origWidth': 409, 'origHeight': 409, 'width': 409, 'height': 409, 'widthPercent': 0.45, 'rescaleHeight': False, 'trialN': 25, 'loaded': True, 'loadedTime': 2332, 'positionName': 'LEFT', 'positionCoords': [512.6, 335.5], 'bid': 6.61}, {'imgObject': {}, 'id': 'rigatoni and sauce', 'src': '/static/foodstim60/rigatoni and sauce.jpg', 'key': 'i', 'origWidth': 410, 'origHeight': 411, 'width': 410, 'height': 411, 'widthPercent': 0.45, 'rescaleHeight': False, 'trialN': 25, 'loaded': True, 'loadedTime': 2257.7000000476837, 'positionName': 'RIGHT', 'positionCoords': [998.4, 334.5], 'bid': 7.79}]",49629.5,1669839860080,eggs,rigatoni and sauce,6.61,7.79,1.1799999999999997,rigatoni and sauce,1190.3999999761581,1191,1190.6000000238419,True,i,51328.799999952316,1699.2999999523163,1669839861779,1699,HRV,HRV_0282,2022-11-30 20:29:11
26,"[{'imgObject': {}, 'id': 'cocktailshrimp', 'src': '/static/foodstim60/cocktailshrimp.jpg', 'key': 'u', 'origWidth': 410, 'origHeight': 410, 'width': 410, 'height': 410, 'widthPercent': 0.45, 'rescaleHeight': False, 'trialN': 26, 'loaded': True, 'loadedTime': 2504.2000000476837, 'positionName': 'LEFT', 'positionCoords': [511.6, 335], 'bid': 7.81}, {'imgObject': {}, 'id': 'salad w chicken', 'src': '/static/foodstim60/salad w chicken.jpg', 'key': 'i', 'origWidth': 411, 'origHeight': 411, 'width': 411, 'height': 411, 'widthPercent': 0.45, 'rescaleHeight': False, 'trialN': 26, 'loaded': True, 'loadedTime': 2506.100000023842, 'positionName': 'RIGHT', 'positionCoords': [998.4, 334.5], 'bid': 9.17}]",51329.0,1669839861780,cocktailshrimp,salad w chicken,7.81,9.17,1.3600000000000003,salad w chicken,1162.8999999761581,1163,1163.0,True,i,53000.700000047684,1671.7000000476837,1669839863451,1671,HRV,HRV_0282,2022-11-30 20:29:11
27,"[{'imgObject': {}, 'id': 'avocado', 'src': '/static/foodstim60/avocado.jpg', 'key': 'u', 'origWidth': 409, 'origHeight': 409, 'width': 409, 'height': 409, 'widthPercent': 0.45, 'rescaleHeight': False, 'trialN': 27, 'loaded': True, 'loadedTime': 2507, 'positionName': 'LEFT', 'positionCoords': [512.6, 335.5], 'bid': 9.71}, {'imgObject': {}, 'id': 'sweetpotato', 'src': '/static/foodstim60/sweetpotato.jpg', 'key': 'i', 'origWidth': 410, 'origHeight': 410, 'width': 410, 'height': 410, 'widthPercent': 0.45, 'rescaleHeight': False, 'trialN': 27, 'loaded': True, 'loadedTime': 2255.399999976158, 'positionName': 'RIGHT', 'positionCoords': [998.4, 335], 'bid': 6.92}]",53000.89999997616,1669839863451,avocado,sweetpotato,9.71,6.92,-2.790000000000001,avocado,835,836,835.2000000476837,True,u,54349.89999997616,1349.0,1669839864800,1349,HRV,HRV_0282,2022-11-30 20:29:11
28,"[{'imgObject': {}, 'id': 'yogurt no spoon', 'src': '/static/foodstim60/yogurt no spoon.jpg', 'key': 'u', 'origWidth': 411, 'origHeight': 410, 'width': 411, 'height': 410, 'widthPercent': 0.45, 'rescaleHeight': False, 'trialN': 28, 'loaded': True, 'loadedTime': 2249.7999999523163, 'positionName': 'LEFT', 'positionCoords': [510.6, 335], 'bid': 5.71}, {'imgObject': {}, 'id': 'olives', 'src': '/static/foodstim60/olives.jpg', 'key': 'i', 'origWidth': 410, 'origHeight': 410, 'width': 410, 'height': 410, 'widthPercent': 0.45, 'rescaleHeight': False, 'trialN': 28, 'loaded': True, 'loadedTime': 2419.2000000476837, 'positionName': 'RIGHT', 'positionCoords': [998.4, 335], 'bid': 5.64}]",54350.10000002384,1669839864801,yogurt no spoon,olives,5.71,5.64,-0.07000000000000028,yogurt no spoon,1334.3999999761581,1334,1334.6999999284744,True,u,56186.700000047684,1836.6000000238419,1669839866637,1836,HRV,HRV_0282,2022-11-30 20:29:11
29,"[{'imgObject': {}, 'id': 'grilled chicken strips', 'src': '/static/foodstim60/grilled chicken strips.jpg', 'key': 'u', 'origWidth': 410, 'origHeight': 411, 'width': 410, 'height': 411, 'widthPercent': 0.45, 'rescaleHeight': False, 'trialN': 29, 'loaded': True, 'loadedTime': 2507.7000000476837, 'positionName': 'LEFT', 'positionCoords': [511.6, 334.5], 'bid': 8.89}, {'imgObject': {}, 'id': 'raisin bran w milk', 'src': '/static/foodstim60/raisin bran w milk.jpg', 'key': 'i', 'origWidth': 411, 'origHeight': 411, 'width': 411, 'height': 411, 'widthPercent': 0.45, 'rescaleHeight': False, 'trialN': 29, 'loaded': True, 'loadedTime': 2502, 'positionName': 'RIGHT', 'positionCoords': [998.4, 334.5], 'bid': 5.48}]",56186.799999952316,1669839866637,grilled chicken strips,raisin bran w milk,8.89,5.48,-3.41,grilled chicken strips,1281.3000000715256,1282,1281.6000000238419,True,u,57970.89999997616,1784.1000000238419,1669839868422,1785,HRV,HRV_0282,2022-11-30 20:29:11
30,"[{'imgObject': {}, 'id': 'apple slices', 'src': '/static/foodstim60/apple slices.jpg', 'key': 'u', 'origWidth': 409, 'origHeight': 410, 'width': 409, 'height': 410, 'widthPercent': 0.45, 'rescaleHeight': False, 'trialN': 30, 'loaded': True, 'loadedTime': 2450.100000023842, 'positionName': 'LEFT', 'positionCoords': [512.6, 335], 'bid': 4.38}, {'imgObject': {}, 'id': 'chickenfingers', 'src': '/static/foodstim60/chickenfingers.jpg', 'key': 'i', 'origWidth': 410, 'origHeight': 410, 'width': 410, 'height': 410, 'widthPercent': 0.45, 'rescaleHeight': False, 'trialN': 30, 'loaded': True, 'loadedTime': 2527.399999976158, 'positionName': 'RIGHT', 'positionCoords': [998.4, 335], 'bid': 8.290000000000001}]",57971.39999997616,1669839868422,apple slices,chickenfingers,4.38,8.290000000000001,3.910000000000001,chickenfingers,840.5,841,840.7000000476837,True,i,59316.700000047684,1345.3000000715256,1669839869767,1345,HRV,HRV_0282,2022-11-30 20:29:11
31,"[{'imgObject': {}, 'id': 'burrito', 'src': '/static/foodstim60/burrito.jpg', 'key': 'u', 'origWidth': 410, 'origHeight': 410, 'width': 410, 'height': 410, 'widthPercent': 0.45, 'rescaleHeight': False, 'trialN': 31, 'loaded': True, 'loadedTime': 2389.7999999523163, 'positionName': 'LEFT', 'positionCoords': [511.6, 335], 'bid': 9.31}, {'imgObject': {}, 'id': 'mac & cheese', 'src': '/static/foodstim60/mac & cheese.jpg', 'key': 'i', 'origWidth': 410, 'origHeight': 410, 'width': 410, 'height': 410, 'widthPercent': 0.45, 'rescaleHeight': False, 'trialN': 31, 'loaded': True, 'loadedTime': 2232.399999976158, 'positionName': 'RIGHT', 'positionCoords': [998.4, 335], 'bid': 9.45}]",59316.799999952316,1669839869767,burrito,mac & cheese,9.31,9.45,0.1399999999999988,mac & cheese,2672.5,2674,2673.3000000715256,True,i,62506.700000047684,3189.9000000953674,1669839872957,3190,HRV,HRV_0282,2022-11-30 20:29:11
32,"[{'imgObject': {}, 'id': 'turkeysandwich', 'src': '/static/foodstim60/turkeysandwich.jpg', 'key': 'u', 'origWidth': 409, 'origHeight': 409, 'width': 409, 'height': 409, 'widthPercent': 0.45, 'rescaleHeight': False, 'trialN': 32, 'loaded': True, 'loadedTime': 2333, 'positionName': 'LEFT', 'positionCoords': [512.6, 335.5], 'bid': 9.67}, {'imgObject': {}, 'id': 'fruitsalad', 'src': '/static/foodstim60/fruitsalad.jpg', 'key': 'i', 'origWidth': 410, 'origHeight': 410, 'width': 410, 'height': 410, 'widthPercent': 0.45, 'rescaleHeight': False, 'trialN': 32, 'loaded': True, 'loadedTime': 2529.7000000476837, 'positionName': 'RIGHT', 'positionCoords': [998.4, 335], 'bid': 6.84}]",62506.89999997616,1669839872957,turkeysandwich,fruitsalad,9.67,6.84,-2.83,turkeysandwich,961.3000000715256,962,961.6000000238419,True,u,63974.799999952316,1467.8999999761581,1669839874425,1468,HRV,HRV_0282,2022-11-30 20:29:11
33,"[{'imgObject': {}, 'id': 'luckycharms', 'src': '/static/foodstim60/luckycharms.jpg', 'key': 'u', 'origWidth': 410, 'origHeight': 409, 'width': 410, 'height': 409, 'widthPercent': 0.45, 'rescaleHeight': False, 'trialN': 33, 'loaded': True, 'loadedTime': 2532.7999999523163, 'positionName': 'LEFT', 'positionCoords': [511.6, 335.5], 'bid': 6.36}, {'imgObject': {}, 'id': 'eggs', 'src': '/static/foodstim60/eggs.jpg', 'key': 'i', 'origWidth': 409, 'origHeight': 409, 'width': 409, 'height': 409, 'widthPercent': 0.45, 'rescaleHeight': False, 'trialN': 33, 'loaded': True, 'loadedTime': 2328.7999999523163, 'positionName': 'RIGHT', 'positionCoords': [998.4, 335.5], 'bid': 6.61}]",63974.799999952316,1669839874425,luckycharms,eggs,6.36,6.61,0.25,luckycharms,1789.5,1790,1789.8000000715256,True,u,66270.29999995232,2295.5,1669839876721,2296,HRV,HRV_0282,2022-11-30 20:29:11
34,"[{'imgObject': {}, 'id': 'luckycharms', 'src': '/static/foodstim60/luckycharms.jpg', 'key': 'u', 'origWidth': 410, 'origHeight': 409, 'width': 410, 'height': 409, 'widthPercent': 0.45, 'rescaleHeight': False, 'trialN': 34, 'loaded': True, 'loadedTime': 2533, 'positionName': 'LEFT', 'positionCoords': [511.6, 335.5], 'bid': 6.36}, {'imgObject': {}, 'id': 'orange slices', 'src': '/static/foodstim60/orange slices.jpg', 'key': 'i', 'origWidth': 409, 'origHeight': 410, 'width': 409, 'height': 410, 'widthPercent': 0.45, 'rescaleHeight': False, 'trialN': 34, 'loaded': True, 'loadedTime': 2535.100000023842, 'positionName': 'RIGHT', 'positionCoords': [998.4, 335], 'bid': 6.3}]",66270.60000002384,1669839876721,luckycharms,orange slices,6.36,6.3,-0.0600000000000005,luckycharms,1165.6999999284744,1166,1166.0,True,u,67939.5,1668.8999999761581,1669839878390,1669,HRV,HRV_0282,2022-11-30 20:29:11
35,"[{'imgObject': {}, 'id': 'pear', 'src': '/static/foodstim60/pear.jpg', 'key': 'u', 'origWidth': 411, 'origHeight': 410, 'width': 411, 'height': 410, 'widthPercent': 0.45, 'rescaleHeight': False, 'trialN': 35, 'loaded': True, 'loadedTime': 2548.399999976158, 'positionName': 'LEFT', 'positionCoords': [510.6, 335], 'bid': 5.55}, {'imgObject': {}, 'id': 'luckycharms', 'src': '/static/foodstim60/luckycharms.jpg', 'key': 'i', 'origWidth': 410, 'origHeight': 409, 'width': 410, 'height': 409, 'widthPercent': 0.45, 'rescaleHeight': False, 'trialN': 35, 'loaded': True, 'loadedTime': 2532, 'positionName': 'RIGHT', 'positionCoords': [998.4, 335.5], 'bid': 6.36}]",67939.60000002384,1669839878390,pear,luckycharms,5.55,6.36,0.8100000000000005,luckycharms,1104.5,1105,1104.7999999523163,True,i,69554.70000004768,1615.1000000238419,1669839880005,1615,HRV,HRV_0282,2022-11-30 20:29:11
36,"[{'imgObject': {}, 'id': 'granola w milk', 'src': '/static/foodstim60/granola w milk.jpg', 'key': 'u', 'origWidth': 410, 'origHeight': 410, 'width': 410, 'height': 410, 'widthPercent': 0.45, 'rescaleHeight': False, 'trialN': 36, 'loaded': True, 'loadedTime': 2549.600000023842, 'positionName': 'LEFT', 'positionCoords': [511.6, 335], 'bid': 5.3100000000000005}, {'imgObject': {}, 'id': 'fruitsalad', 'src': '/static/foodstim60/fruitsalad.jpg', 'key': 'i', 'origWidth': 410, 'origHeight': 410, 'width': 410, 'height': 410, 'widthPercent': 0.45, 'rescaleHeight': False, 'trialN': 36, 'loaded': True, 'loadedTime': 2527.899999976158, 'positionName': 'RIGHT', 'positionCoords': [998.4, 335], 'bid': 6.84}]",69554.89999997616,1669839880005,granola w milk,fruitsalad,5.3100000000000005,6.84,1.5299999999999994,granola w milk,1561.8999999761581,1563,1562.3999999761581,True,u,71620.0,2065.100000023842,1669839882071,2066,HRV,HRV_0282,2022-11-30 20:29:11
37,"[{'imgObject': {}, 'id': 'cantaloupe', 'src': '/static/foodstim60/cantaloupe.jpg', 'key': 'u', 'origWidth': 409, 'origHeight': 409, 'width': 409, 'height': 409, 'widthPercent': 0.45, 'rescaleHeight': False, 'trialN': 37, 'loaded': True, 'loadedTime': 2552.7000000476837, 'positionName': 'LEFT', 'positionCoords': [512.6, 335.5], 'bid': 3.52}, {'imgObject': {}, 'id': 'banana', 'src': '/static/foodstim60/banana.jpg', 'key': 'i', 'origWidth': 410, 'origHeight': 410, 'width': 410, 'height': 410, 'widthPercent': 0.45, 'rescaleHeight': False, 'trialN': 37, 'loaded': True, 'loadedTime': 2556, 'positionName': 'RIGHT', 'positionCoords': [998.4, 335], 'bid': 2.59}]",71620.29999995232,1669839882071,cantaloupe,banana,3.52,2.59,-0.9300000000000002,cantaloupe,1783.7000000476837,1784,1784.0,True,u,73912.60000002384,2292.3000000715256,1669839884363,2292,HRV,HRV_0282,2022-11-30 20:29:11
38,"[{'imgObject': {}, 'id': 'granola w milk', 'src': '/static/foodstim60/granola w milk.jpg', 'key': 'u', 'origWidth': 410, 'origHeight': 410, 'width': 410, 'height': 410, 'widthPercent': 0.45, 'rescaleHeight': False, 'trialN': 38, 'loaded': True, 'loadedTime': 2549.100000023842, 'positionName': 'LEFT', 'positionCoords': [511.6, 335], 'bid': 5.3100000000000005}, {'imgObject': {}, 'id': 'cherries', 'src': '/static/foodstim60/cherries.jpg', 'key': 'i', 'origWidth': 410, 'origHeight': 411, 'width': 410, 'height': 411, 'widthPercent': 0.45, 'rescaleHeight': False, 'trialN': 38, 'loaded': True, 'loadedTime': 2264.100000023842, 'positionName': 'RIGHT', 'positionCoords': [998.4, 334.5], 'bid': 2.05}]",73912.70000004768,1669839884363,granola w milk,cherries,5.3100000000000005,2.05,-3.2600000000000007,granola w milk,1171.1999999284744,1172,1171.3999999761581,True,u,75597.70000004768,1685.0,1669839886048,1685,HRV,HRV_0282,2022-11-30 20:29:11
39,"[{'imgObject': {}, 'id': 'corn cob', 'src': '/static/foodstim60/corn cob.jpg', 'key': 'u', 'origWidth': 411, 'origHeight': 411, 'width': 411, 'height': 411, 'widthPercent': 0.45, 'rescaleHeight': False, 'trialN': 39, 'loaded': True, 'loadedTime': 2499.5, 'positionName': 'LEFT', 'positionCoords': [510.6, 334.5], 'bid': 7.140000000000001}, {'imgObject': {}, 'id': 'sweetpotato', 'src': '/static/foodstim60/sweetpotato.jpg', 'key': 'i', 'origWidth': 410, 'origHeight': 410, 'width': 410, 'height': 410, 'widthPercent': 0.45, 'rescaleHeight': False, 'trialN': 39, 'loaded': True, 'loadedTime': 2254.7000000476837, 'positionName': 'RIGHT', 'positionCoords': [998.4, 335], 'bid': 6.92}]",75597.79999995232,1669839886048,corn cob,sweetpotato,7.140000000000001,6.92,-0.22000000000000064,corn cob,782.6000000238419,783,782.8000000715256,True,u,76887.70000004768,1289.9000000953674,1669839887338,1290,HRV,HRV_0282,2022-11-30 20:29:11
40,"[{'imgObject': {}, 'id': 'cocktailshrimp', 'src': '/static/foodstim60/cocktailshrimp.jpg', 'key': 'u', 'origWidth': 410, 'origHeight': 410, 'width': 410, 'height': 410, 'widthPercent': 0.45, 'rescaleHeight': False, 'trialN': 40, 'loaded': True, 'loadedTime': 2504.5, 'positionName': 'LEFT', 'positionCoords': [511.6, 335], 'bid': 7.81}, {'imgObject': {}, 'id': 'banana', 'src': '/static/foodstim60/banana.jpg', 'key': 'i', 'origWidth': 410, 'origHeight': 410, 'width': 410, 'height': 410, 'widthPercent': 0.45, 'rescaleHeight': False, 'trialN': 40, 'loaded': True, 'loadedTime': 2556, 'positionName': 'RIGHT', 'positionCoords': [998.4, 335], 'bid': 2.59}]",76888.0,1669839887338,cocktailshrimp,banana,7.81,2.59,-5.22,cocktailshrimp,940,941,940.2999999523163,True,u,78335.79999995232,1447.7999999523163,1669839888786,1448,HRV,HRV_0282,2022-11-30 20:29:11
41,"[{'imgObject': {}, 'id': 'eggsalad', 'src': '/static/foodstim60/eggsalad.jpg', 'key': 'u', 'origWidth': 410, 'origHeight': 409, 'width': 410, 'height': 409, 'widthPercent': 0.45, 'rescaleHeight': False, 'trialN': 41, 'loaded': True, 'loadedTime': 2262.2999999523163, 'positionName': 'LEFT', 'positionCoords': [511.6, 335.5], 'bid': 7.44}, {'imgObject': {}, 'id': 'bagel and cc', 'src': '/static/foodstim60/bagel and cc.jpg', 'key': 'i', 'origWidth': 410, 'origHeight': 410, 'width': 410, 'height': 410, 'widthPercent': 0.45, 'rescaleHeight': False, 'trialN': 41, 'loaded': True, 'loadedTime': 2365, 'positionName': 'RIGHT', 'positionCoords': [998.4, 335], 'bid': 7.390000000000001}]",78335.89999997616,1669839888786,eggsalad,bagel and cc,7.44,7.390000000000001,-0.04999999999999982,eggsalad,3212.3000000715256,3213,3212.5,True,u,82063.60000002384,3727.7000000476837,1669839892514,3728,HRV,HRV_0282,2022-11-30 20:29:11
42,"[{'imgObject': {}, 'id': 'cherries', 'src': '/static/foodstim60/cherries.jpg', 'key': 'u', 'origWidth': 410, 'origHeight': 411, 'width': 410, 'height': 411, 'widthPercent': 0.45, 'rescaleHeight': False, 'trialN': 42, 'loaded': True, 'loadedTime': 2263.899999976158, 'positionName': 'LEFT', 'positionCoords': [511.6, 334.5], 'bid': 2.05}, {'imgObject': {}, 'id': 'apple slices', 'src': '/static/foodstim60/apple slices.jpg', 'key': 'i', 'origWidth': 409, 'origHeight': 410, 'width': 409, 'height': 410, 'widthPercent': 0.45, 'rescaleHeight': False, 'trialN': 42, 'loaded': True, 'loadedTime': 2449.899999976158, 'positionName': 'RIGHT', 'positionCoords': [998.4, 335], 'bid': 4.38}]",82063.70000004768,1669839892514,cherries,apple slices,2.05,4.38,2.33,apple slices,1540.6999999284744,1541,1541.1999999284744,True,i,84117.89999997616,2054.1999999284744,1669839894568,2054,HRV,HRV_0282,2022-11-30 20:29:11
43,"[{'imgObject': {}, 'id': 'cherry tomato', 'src': '/static/foodstim60/cherry tomato.jpg', 'key': 'u', 'origWidth': 410, 'origHeight': 410, 'width': 410, 'height': 410, 'widthPercent': 0.45, 'rescaleHeight': False, 'trialN': 43, 'loaded': True, 'loadedTime': 2558.100000023842, 'positionName': 'LEFT', 'positionCoords': [511.6, 335], 'bid': 8.71}, {'imgObject': {}, 'id': 'lox', 'src': '/static/foodstim60/lox.jpg', 'key': 'i', 'origWidth': 410, 'origHeight': 411, 'width': 410, 'height': 411, 'widthPercent': 0.45, 'rescaleHeight': False, 'trialN': 43, 'loaded': True, 'loadedTime': 2276.5, 'positionName': 'RIGHT', 'positionCoords': [998.4, 334.5], 'bid': 8.75}]",84118.0,1669839894569,cherry tomato,lox,8.71,8.75,0.03999999999999915,lox,1293.8999999761581,1294,1294.0,True,i,85914.89999997616,1796.8999999761581,1669839896365,1796,HRV,HRV_0282,2022-11-30 20:29:11
44,"[{'imgObject': {}, 'id': 'cantaloupe', 'src': '/static/foodstim60/cantaloupe.jpg', 'key': 'u', 'origWidth': 409, 'origHeight': 409, 'width': 409, 'height': 409, 'widthPercent': 0.45, 'rescaleHeight': False, 'trialN': 44, 'loaded': True, 'loadedTime': 2554.100000023842, 'positionName': 'LEFT', 'positionCoords': [512.6, 335.5], 'bid': 3.52}, {'imgObject': {}, 'id': 'pear', 'src': '/static/foodstim60/pear.jpg', 'key': 'i', 'origWidth': 411, 'origHeight': 410, 'width': 411, 'height': 410, 'widthPercent': 0.45, 'rescaleHeight': False, 'trialN': 44, 'loaded': True, 'loadedTime': 2548.600000023842, 'positionName': 'RIGHT', 'positionCoords': [998.4, 335], 'bid': 5.55}]",85915.0,1669839896366,cantaloupe,pear,3.52,5.55,2.03,cantaloupe,1217.1000000238419,1217,1217.2999999523163,True,u,87644.89999997616,1729.8999999761581,1669839898095,1729,HRV,HRV_0282,2022-11-30 20:29:11
45,"[{'imgObject': {}, 'id': 'bagel and cc', 'src': '/static/foodstim60/bagel and cc.jpg', 'key': 'u', 'origWidth': 410, 'origHeight': 410, 'width': 410, 'height': 410, 'widthPercent': 0.45, 'rescaleHeight': False, 'trialN': 45, 'loaded': True, 'loadedTime': 2366, 'positionName': 'LEFT', 'positionCoords': [511.6, 335], 'bid': 7.390000000000001}, {'imgObject': {}, 'id': 'orange slices', 'src': '/static/foodstim60/orange slices.jpg', 'key': 'i', 'origWidth': 409, 'origHeight': 410, 'width': 409, 'height': 410, 'widthPercent': 0.45, 'rescaleHeight': False, 'trialN': 45, 'loaded': True, 'loadedTime': 2534.5, 'positionName': 'RIGHT', 'positionCoords': [998.4, 335], 'bid': 6.3}]",87644.89999997616,1669839898095,bagel and cc,orange slices,7.390000000000001,6.3,-1.0900000000000007,bagel and cc,1431.7000000476837,1433,1432.3000000715256,True,u,89589.10000002384,1944.2000000476837,1669839900040,1945,HRV,HRV_0282,2022-11-30 20:29:11
46,"[{'imgObject': {}, 'id': 'salmon', 'src': '/static/foodstim60/salmon.jpg', 'key': 'u', 'origWidth': 410, 'origHeight': 409, 'width': 410, 'height': 409, 'widthPercent': 0.45, 'rescaleHeight': False, 'trialN': 46, 'loaded': True, 'loadedTime': 2267, 'positionName': 'LEFT', 'positionCoords': [511.6, 335.5], 'bid': 9.37}, {'imgObject': {}, 'id': 'baked potato', 'src': '/static/foodstim60/baked potato.jpg', 'key': 'i', 'origWidth': 409, 'origHeight': 410, 'width': 409, 'height': 410, 'widthPercent': 0.45, 'rescaleHeight': False, 'trialN': 46, 'loaded': True, 'loadedTime': 2495.399999976158, 'positionName': 'RIGHT', 'positionCoords': [998.4, 335], 'bid': 9.19}]",89589.5,1669839900040,salmon,baked potato,9.37,9.19,-0.17999999999999972,salmon,1854.7000000476837,1855,1854.8999999761581,True,u,91960.0,2370.5,1669839902410,2370,HRV,HRV_0282,2022-11-30 20:29:11
47,"[{'imgObject': {}, 'id': 'blueberries', 'src': '/static/foodstim60/blueberries.jpg', 'key': 'u', 'origWidth': 411, 'origHeight': 411, 'width': 411, 'height': 411, 'widthPercent': 0.45, 'rescaleHeight': False, 'trialN': 47, 'loaded': True, 'loadedTime': 2566.2999999523163, 'positionName': 'LEFT', 'positionCoords': [510.6, 334.5], 'bid': 2.08}, {'imgObject': {}, 'id': 'yogurt no spoon', 'src': '/static/foodstim60/yogurt no spoon.jpg', 'key': 'i', 'origWidth': 411, 'origHeight': 410, 'width': 411, 'height': 410, 'widthPercent': 0.45, 'rescaleHeight': False, 'trialN': 47, 'loaded': True, 'loadedTime': 2251.2999999523163, 'positionName': 'RIGHT', 'positionCoords': [998.4, 335], 'bid': 5.71}]",91960.10000002384,1669839902411,blueberries,yogurt no spoon,2.08,5.71,3.63,yogurt no spoon,860,860,860.2999999523163,True,i,93330.5,1370.3999999761581,1669839903781,1370,HRV,HRV_0282,2022-11-30 20:29:11
48,"[{'imgObject': {}, 'id': 'eggsalad', 'src': '/static/foodstim60/eggsalad.jpg', 'key': 'u', 'origWidth': 410, 'origHeight': 409, 'width': 410, 'height': 409, 'widthPercent': 0.45, 'rescaleHeight': False, 'trialN': 48, 'loaded': True, 'loadedTime': 2262.7999999523163, 'positionName': 'LEFT', 'positionCoords': [511.6, 335.5], 'bid': 7.44}, {'imgObject': {}, 'id': 'luckycharms', 'src': '/static/foodstim60/luckycharms.jpg', 'key': 'i', 'origWidth': 410, 'origHeight': 409, 'width': 410, 'height': 409, 'widthPercent': 0.45, 'rescaleHeight': False, 'trialN': 48, 'loaded': True, 'loadedTime': 2532.899999976158, 'positionName': 'RIGHT', 'positionCoords': [998.4, 335.5], 'bid': 6.36}]",93330.70000004768,1669839903781,eggsalad,luckycharms,7.44,6.36,-1.08,eggsalad,1425.3999999761581,1426,1425.5999999046326,True,u,95257.89999997616,1927.1999999284744,1669839905708,1927,HRV,HRV_0282,2022-11-30 20:29:11
49,"[{'imgObject': {}, 'id': 'cocktailshrimp', 'src': '/static/foodstim60/cocktailshrimp.jpg', 'key': 'u', 'origWidth': 410, 'origHeight': 410, 'width': 410, 'height': 410, 'widthPercent': 0.45, 'rescaleHeight': False, 'trialN': 49, 'loaded': True, 'loadedTime': 2504.100000023842, 'positionName': 'LEFT', 'positionCoords': [511.6, 335], 'bid': 7.81}, {'imgObject': {}, 'id': 'strawberries', 'src': '/static/foodstim60/strawberries.jpg', 'key': 'i', 'origWidth': 410, 'origHeight': 410, 'width': 410, 'height': 410, 'widthPercent': 0.45, 'rescaleHeight': False, 'trialN': 49, 'loaded': True, 'loadedTime': 2260.7000000476837, 'positionName': 'RIGHT', 'positionCoords': [998.4, 335], 'bid': 6.65}]",95258.0,1669839905709,cocktailshrimp,strawberries,7.81,6.65,-1.1599999999999993,cocktailshrimp,2394.5,2394,2394.7999999523163,True,u,98164.20000004768,2906.2000000476837,1669839908615,2906,HRV,HRV_0282,2022-11-30 20:29:11
50,"[{'imgObject': {}, 'id': 'shreddedwheatwithmilk', 'src': '/static/foodstim60/shreddedwheatwithmilk.jpg', 'key': 'u', 'origWidth': 410, 'origHeight': 410, 'width': 410, 'height': 410, 'widthPercent': 0.45, 'rescaleHeight': False, 'trialN': 50, 'loaded': True, 'loadedTime': 2269.2000000476837, 'positionName': 'LEFT', 'positionCoords': [511.6, 335], 'bid': 5.47}, {'imgObject': {}, 'id': 'pear', 'src': '/static/foodstim60/pear.jpg', 'key': 'i', 'origWidth': 411, 'origHeight': 410, 'width': 411, 'height': 410, 'widthPercent': 0.45, 'rescaleHeight': False, 'trialN': 50, 'loaded': True, 'loadedTime': 2549, 'positionName': 'RIGHT', 'positionCoords': [998.4, 335], 'bid': 5.55}]",98164.39999997616,1669839908615,shreddedwheatwithmilk,pear,5.47,5.55,0.08000000000000007,pear,1887.6000000238419,1888,1887.8000000715256,True,i,100564.79999995232,2400.399999976158,1669839911015,2400,HRV,HRV_0282,2022-11-30 20:29:11
51,"[{'imgObject': {}, 'id': 'hashbrowns', 'src': '/static/foodstim60/hashbrowns.jpg', 'key': 'u', 'origWidth': 411, 'origHeight': 410, 'width': 411, 'height': 410, 'widthPercent': 0.45, 'rescaleHeight': False, 'trialN': 51, 'loaded': True, 'loadedTime': 2252.7999999523163, 'positionName': 'LEFT', 'positionCoords': [510.6, 335], 'bid': 8.36}, {'imgObject': {}, 'id': 'cheerios', 'src': '/static/foodstim60/cheerios.jpg', 'key': 'i', 'origWidth': 409, 'origHeight': 410, 'width': 409, 'height': 410, 'widthPercent': 0.45, 'rescaleHeight': False, 'trialN': 51, 'loaded': True, 'loadedTime': 2327.2999999523163, 'positionName': 'RIGHT', 'positionCoords': [998.4, 335], 'bid': 4.39}]",100565.0,1669839911016,hashbrowns,cheerios,8.36,4.39,-3.9699999999999998,hashbrowns,1087.1000000238419,1087,1087.2999999523163,True,u,102164.89999997616,1599.8999999761581,1669839912615,1599,HRV,HRV_0282,2022-11-30 20:29:11
52,"[{'imgObject': {}, 'id': 'kiwi', 'src': '/static/foodstim60/kiwi.jpg', 'key': 'u', 'origWidth': 410, 'origHeight': 410, 'width': 410, 'height': 410, 'widthPercent': 0.45, 'rescaleHeight': False, 'trialN': 52, 'loaded': True, 'loadedTime': 2568.5, 'positionName': 'LEFT', 'positionCoords': [511.6, 335], 'bid': 1.69}, {'imgObject': {}, 'id': 'Grapes', 'src': '/static/foodstim60/Grapes.jpg', 'key': 'i', 'origWidth': 411, 'origHeight': 411, 'width': 411, 'height': 411, 'widthPercent': 0.45, 'rescaleHeight': False, 'trialN': 52, 'loaded': True, 'loadedTime': 2569.7000000476837, 'positionName': 'RIGHT', 'positionCoords': [998.4, 334.5], 'bid': 4.68}]",102165.10000002384,1669839912616,kiwi,Grapes,1.69,4.68,2.9899999999999998,Grapes,1264.1000000238419,1264,1264.5,True,i,103945.0,1779.8999999761581,1669839914395,1779,HRV,HRV_0282,2022-11-30 20:29:11
53,"[{'imgObject': {}, 'id': 'froot loops w milk', 'src': '/static/foodstim60/froot loops w milk.jpg', 'key': 'u', 'origWidth': 410, 'origHeight': 410, 'width': 410, 'height': 410, 'widthPercent': 0.45, 'rescaleHeight': False, 'trialN': 53, 'loaded': True, 'loadedTime': 2572.600000023842, 'positionName': 'LEFT', 'positionCoords': [511.6, 335], 'bid': 3.65}, {'imgObject': {}, 'id': 'kiwi', 'src': '/static/foodstim60/kiwi.jpg', 'key': 'i', 'origWidth': 410, 'origHeight': 410, 'width': 410, 'height': 410, 'widthPercent': 0.45, 'rescaleHeight': False, 'trialN': 53, 'loaded': True, 'loadedTime': 2568.2999999523163, 'positionName': 'RIGHT', 'positionCoords': [998.4, 335], 'bid': 1.69}]",103945.10000002384,1669839914396,froot loops w milk,kiwi,3.65,1.69,-1.96,kiwi,2907.2999999523163,2907,2907.600000023842,True,i,107365.39999997616,3420.2999999523163,1669839917816,3420,HRV,HRV_0282,2022-11-30 20:29:11
54,"[{'imgObject': {}, 'id': 'rigatoni', 'src': '/static/foodstim60/rigatoni.jpg', 'key': 'u', 'origWidth': 411, 'origHeight': 411, 'width': 411, 'height': 411, 'widthPercent': 0.45, 'rescaleHeight': False, 'trialN': 54, 'loaded': True, 'loadedTime': 2573.7999999523163, 'positionName': 'LEFT', 'positionCoords': [510.6, 334.5], 'bid': 5.46}, {'imgObject': {}, 'id': 'blueberries', 'src': '/static/foodstim60/blueberries.jpg', 'key': 'i', 'origWidth': 411, 'origHeight': 411, 'width': 411, 'height': 411, 'widthPercent': 0.45, 'rescaleHeight': False, 'trialN': 54, 'loaded': True, 'loadedTime': 2558.7000000476837, 'positionName': 'RIGHT', 'positionCoords': [998.4, 334.5], 'bid': 2.08}]",107365.60000002384,1669839917816,rigatoni,blueberries,5.46,2.08,-3.38,rigatoni,1302.6000000238419,1303,1302.7999999523163,True,u,109179.39999997616,1813.7999999523163,1669839919630,1814,HRV,HRV_0282,2022-11-30 20:29:11
55,"[{'imgObject': {}, 'id': 'fried eggs', 'src': '/static/foodstim60/fried eggs.jpg', 'key': 'u', 'origWidth': 410, 'origHeight': 410, 'width': 410, 'height': 410, 'widthPercent': 0.45, 'rescaleHeight': False, 'trialN': 55, 'loaded': True, 'loadedTime': 2574.7999999523163, 'positionName': 'LEFT', 'positionCoords': [511.6, 335], 'bid': 8}, {'imgObject': {}, 'id': 'cocktailshrimp', 'src': '/static/foodstim60/cocktailshrimp.jpg', 'key': 'i', 'origWidth': 410, 'origHeight': 410, 'width': 410, 'height': 410, 'widthPercent': 0.45, 'rescaleHeight': False, 'trialN': 55, 'loaded': True, 'loadedTime': 2503.7000000476837, 'positionName': 'RIGHT', 'positionCoords': [998.4, 335], 'bid': 7.81}]",109179.60000002384,1669839919630,fried eggs,cocktailshrimp,8.0,7.81,-0.1900000000000004,cocktailshrimp,1097,1098,1097.1999999284744,True,i,110781.29999995232,1601.6999999284744,1669839921232,1602,HRV,HRV_0282,2022-11-30 20:29:11
56,"[{'imgObject': {}, 'id': 'seaweed', 'src': '/static/foodstim60/seaweed.jpg', 'key': 'u', 'origWidth': 410, 'origHeight': 410, 'width': 410, 'height': 410, 'widthPercent': 0.45, 'rescaleHeight': False, 'trialN': 56, 'loaded': True, 'loadedTime': 2576.2000000476837, 'positionName': 'LEFT', 'positionCoords': [511.6, 335], 'bid': 8.9}, {'imgObject': {}, 'id': 'eggsalad', 'src': '/static/foodstim60/eggsalad.jpg', 'key': 'i', 'origWidth': 410, 'origHeight': 409, 'width': 410, 'height': 409, 'widthPercent': 0.45, 'rescaleHeight': False, 'trialN': 56, 'loaded': True, 'loadedTime': 2262.5, 'positionName': 'RIGHT', 'positionCoords': [998.4, 335.5], 'bid': 7.44}]",110781.5,1669839921232,seaweed,eggsalad,8.9,7.44,-1.46,seaweed,2206.600000023842,2207,2206.899999976158,True,u,113504.79999995232,2723.2999999523163,1669839923956,2724,HRV,HRV_0282,2022-11-30 20:29:11
57,"[{'imgObject': {}, 'id': 'Grapes', 'src': '/static/foodstim60/Grapes.jpg', 'key': 'u', 'origWidth': 411, 'origHeight': 411, 'width': 411, 'height': 411, 'widthPercent': 0.45, 'rescaleHeight': False, 'trialN': 57, 'loaded': True, 'loadedTime': 2571.2000000476837, 'positionName': 'LEFT', 'positionCoords': [510.6, 334.5], 'bid': 4.68}, {'imgObject': {}, 'id': 'bagel plain', 'src': '/static/foodstim60/bagel plain.jpg', 'key': 'i', 'origWidth': 410, 'origHeight': 410, 'width': 410, 'height': 410, 'widthPercent': 0.45, 'rescaleHeight': False, 'trialN': 57, 'loaded': True, 'loadedTime': 2205.100000023842, 'positionName': 'RIGHT', 'positionCoords': [998.4, 335], 'bid': 6.8}]",113505.0,1669839923956,Grapes,bagel plain,4.68,6.8,2.12,bagel plain,1259.1000000238419,1259,1259.2999999523163,True,i,115275.70000004768,1770.7000000476837,1669839925726,1770,HRV,HRV_0282,2022-11-30 20:29:11
58,"[{'imgObject': {}, 'id': 'bagel plain', 'src': '/static/foodstim60/bagel plain.jpg', 'key': 'u', 'origWidth': 410, 'origHeight': 410, 'width': 410, 'height': 410, 'widthPercent': 0.45, 'rescaleHeight': False, 'trialN': 58, 'loaded': True, 'loadedTime': 2205.7000000476837, 'positionName': 'LEFT', 'positionCoords': [511.6, 335], 'bid': 6.8}, {'imgObject': {}, 'id': 'fried eggs', 'src': '/static/foodstim60/fried eggs.jpg', 'key': 'i', 'origWidth': 410, 'origHeight': 410, 'width': 410, 'height': 410, 'widthPercent': 0.45, 'rescaleHeight': False, 'trialN': 58, 'loaded': True, 'loadedTime': 2574.600000023842, 'positionName': 'RIGHT', 'positionCoords': [998.4, 335], 'bid': 8}]",115275.70000004768,1669839925727,bagel plain,fried eggs,6.8,8.0,1.2000000000000002,fried eggs,1969.6999999284744,1970,1970.1999999284744,True,i,117755.0,2479.2999999523163,1669839928206,2479,HRV,HRV_0282,2022-11-30 20:29:11
59,"[{'imgObject': {}, 'id': 'orange slices', 'src': '/static/foodstim60/orange slices.jpg', 'key': 'u', 'origWidth': 409, 'origHeight': 410, 'width': 409, 'height': 410, 'widthPercent': 0.45, 'rescaleHeight': False, 'trialN': 59, 'loaded': True, 'loadedTime': 2534.600000023842, 'positionName': 'LEFT', 'positionCoords': [512.6, 335], 'bid': 6.3}, {'imgObject': {}, 'id': 'cantaloupe', 'src': '/static/foodstim60/cantaloupe.jpg', 'key': 'i', 'origWidth': 409, 'origHeight': 409, 'width': 409, 'height': 409, 'widthPercent': 0.45, 'rescaleHeight': False, 'trialN': 59, 'loaded': True, 'loadedTime': 2554, 'positionName': 'RIGHT', 'positionCoords': [998.4, 335.5], 'bid': 3.52}]",117755.20000004768,1669839928206,orange slices,cantaloupe,6.3,3.52,-2.78,orange slices,1248.8999999761581,1249,1249.0999999046326,True,u,119507.20000004768,1752.0,1669839929958,1752,HRV,HRV_0282,2022-11-30 20:29:11
60,"[{'imgObject': {}, 'id': 'froot loops w milk', 'src': '/static/foodstim60/froot loops w milk.jpg', 'key': 'u', 'origWidth': 410, 'origHeight': 410, 'width': 410, 'height': 410, 'widthPercent': 0.45, 'rescaleHeight': False, 'trialN': 60, 'loaded': True, 'loadedTime': 2571.2999999523163, 'positionName': 'LEFT', 'positionCoords': [511.6, 335], 'bid': 3.65}, {'imgObject': {}, 'id': 'veggieswithdip', 'src': '/static/foodstim60/veggieswithdip.jpg', 'key': 'i', 'origWidth': 409, 'origHeight': 409, 'width': 409, 'height': 409, 'widthPercent': 0.45, 'rescaleHeight': False, 'trialN': 60, 'loaded': True, 'loadedTime': 2576.899999976158, 'positionName': 'RIGHT', 'positionCoords': [998.4, 335.5], 'bid': 8.11}]",119507.70000004768,1669839929959,froot loops w milk,veggieswithdip,3.65,8.11,4.459999999999999,veggieswithdip,912.2999999523163,912,912.5,True,i,120922.89999997616,1415.1999999284744,1669839931374,1415,HRV,HRV_0282,2022-11-30 20:29:11
61,"[{'imgObject': {}, 'id': 'mashed potato', 'src': '/static/foodstim60/mashed potato.jpg', 'key': 'u', 'origWidth': 409, 'origHeight': 409, 'width': 409, 'height': 409, 'widthPercent': 0.45, 'rescaleHeight': False, 'trialN': 61, 'loaded': True, 'loadedTime': 2578.600000023842, 'positionName': 'LEFT', 'positionCoords': [512.6, 335.5], 'bid': 8.51}, {'imgObject': {}, 'id': 'Grapes', 'src': '/static/foodstim60/Grapes.jpg', 'key': 'i', 'origWidth': 411, 'origHeight': 411, 'width': 411, 'height': 411, 'widthPercent': 0.45, 'rescaleHeight': False, 'trialN': 61, 'loaded': True, 'loadedTime': 2570.600000023842, 'positionName': 'RIGHT', 'positionCoords': [998.4, 334.5], 'bid': 4.68}]",120923.10000002384,1669839931374,mashed potato,Grapes,8.51,4.68,-3.83,mashed potato,849,849,849.2999999523163,True,u,122282.10000002384,1359.0,1669839932733,1359,HRV,HRV_0282,2022-11-30 20:29:11
62,"[{'imgObject': {}, 'id': 'salad w chicken', 'src': '/static/foodstim60/salad w chicken.jpg', 'key': 'u', 'origWidth': 411, 'origHeight': 411, 'width': 411, 'height': 411, 'widthPercent': 0.45, 'rescaleHeight': False, 'trialN': 62, 'loaded': True, 'loadedTime': 2505.7999999523163, 'positionName': 'LEFT', 'positionCoords': [510.6, 334.5], 'bid': 9.17}, {'imgObject': {}, 'id': 'edamame', 'src': '/static/foodstim60/edamame.jpg', 'key': 'i', 'origWidth': 409, 'origHeight': 410, 'width': 409, 'height': 410, 'widthPercent': 0.45, 'rescaleHeight': False, 'trialN': 62, 'loaded': True, 'loadedTime': 2271.399999976158, 'positionName': 'RIGHT', 'positionCoords': [998.4, 335], 'bid': 9.17}]",122282.39999997616,1669839932733,salad w chicken,edamame,9.17,9.17,0.0,salad w chicken,858,858,858.2000000476837,True,u,123649.20000004768,1366.8000000715256,1669839934100,1367,HRV,HRV_0282,2022-11-30 20:29:11
63,"[{'imgObject': {}, 'id': 'shreddedwheatwithmilk', 'src': '/static/foodstim60/shreddedwheatwithmilk.jpg', 'key': 'u', 'origWidth': 410, 'origHeight': 410, 'width': 410, 'height': 410, 'widthPercent': 0.45, 'rescaleHeight': False, 'trialN': 63, 'loaded': True, 'loadedTime': 2269, 'positionName': 'LEFT', 'positionCoords': [511.6, 335], 'bid': 5.47}, {'imgObject': {}, 'id': 'lox', 'src': '/static/foodstim60/lox.jpg', 'key': 'i', 'origWidth': 410, 'origHeight': 411, 'width': 410, 'height': 411, 'widthPercent': 0.45, 'rescaleHeight': False, 'trialN': 63, 'loaded': True, 'loadedTime': 2278.600000023842, 'positionName': 'RIGHT', 'positionCoords': [998.4, 334.5], 'bid': 8.75}]",123649.39999997616,1669839934100,shreddedwheatwithmilk,lox,5.47,8.75,3.2800000000000002,lox,1010.8000000715256,1011,1011.0,True,i,125174.10000002384,1524.7000000476837,1669839935625,1525,HRV,HRV_0282,2022-11-30 20:29:11
64,"[{'imgObject': {}, 'id': 'roastedpotatoes', 'src': '/static/foodstim60/roastedpotatoes.jpg', 'key': 'u', 'origWidth': 409, 'origHeight': 410, 'width': 409, 'height': 410, 'widthPercent': 0.45, 'rescaleHeight': False, 'trialN': 64, 'loaded': True, 'loadedTime': 2578.7999999523163, 'positionName': 'LEFT', 'positionCoords': [512.6, 335], 'bid': 9.14}, {'imgObject': {}, 'id': 'blackbeanswithrice', 'src': '/static/foodstim60/blackbeanswithrice.jpg', 'key': 'i', 'origWidth': 410, 'origHeight': 410, 'width': 410, 'height': 410, 'widthPercent': 0.45, 'rescaleHeight': False, 'trialN': 64, 'loaded': True, 'loadedTime': 2390.2000000476837, 'positionName': 'RIGHT', 'positionCoords': [998.4, 335], 'bid': 5.97}]",125174.60000002384,1669839935625,roastedpotatoes,blackbeanswithrice,9.14,5.97,-3.170000000000001,roastedpotatoes,1173.5,1174,1173.6999999284744,True,u,126871.20000004768,1696.6000000238419,1669839937322,1697,HRV,HRV_0282,2022-11-30 20:29:11
65,"[{'imgObject': {}, 'id': 'steak', 'src': '/static/foodstim60/steak.jpg', 'key': 'u', 'origWidth': 410, 'origHeight': 410, 'width': 410, 'height': 410, 'widthPercent': 0.45, 'rescaleHeight': False, 'trialN': 65, 'loaded': True, 'loadedTime': 2355.899999976158, 'positionName': 'LEFT', 'positionCoords': [511.6, 335], 'bid': 9.7}, {'imgObject': {}, 'id': 'cherry tomato', 'src': '/static/foodstim60/cherry tomato.jpg', 'key': 'i', 'origWidth': 410, 'origHeight': 410, 'width': 410, 'height': 410, 'widthPercent': 0.45, 'rescaleHeight': False, 'trialN': 65, 'loaded': True, 'loadedTime': 2558.100000023842, 'positionName': 'RIGHT', 'positionCoords': [998.4, 335], 'bid': 8.71}]",126871.60000002384,1669839937322,steak,cherry tomato,9.7,8.71,-0.9899999999999984,steak,693.1999999284744,694,693.5,True,u,128078.60000002384,1207.0,1669839938529,1207,HRV,HRV_0282,2022-11-30 20:29:11
66,"[{'imgObject': {}, 'id': 'pear', 'src': '/static/foodstim60/pear.jpg', 'key': 'u', 'origWidth': 411, 'origHeight': 410, 'width': 411, 'height': 410, 'widthPercent': 0.45, 'rescaleHeight': False, 'trialN': 66, 'loaded': True, 'loadedTime': 2548.899999976158, 'positionName': 'LEFT', 'positionCoords': [510.6, 335], 'bid': 5.55}, {'imgObject': {}, 'id': 'kiwi', 'src': '/static/foodstim60/kiwi.jpg', 'key': 'i', 'origWidth': 410, 'origHeight': 410, 'width': 410, 'height': 410, 'widthPercent': 0.45, 'rescaleHeight': False, 'trialN': 66, 'loaded': True, 'loadedTime': 2568.2000000476837, 'positionName': 'RIGHT', 'positionCoords': [998.4, 335], 'bid': 1.69}]",128078.79999995232,1669839938530,pear,kiwi,5.55,1.69,-3.86,pear,1447.3000000715256,1448,1448.0,True,u,130037.70000004768,1958.9000000953674,1669839940488,1958,HRV,HRV_0282,2022-11-30 20:29:11
67,"[{'imgObject': {}, 'id': 'popsicles', 'src': '/static/foodstim60/popsicles.jpg', 'key': 'u', 'origWidth': 410, 'origHeight': 410, 'width': 410, 'height': 410, 'widthPercent': 0.45, 'rescaleHeight': False, 'trialN': 67, 'loaded': True, 'loadedTime': 2584.399999976158, 'positionName': 'LEFT', 'positionCoords': [511.6, 335], 'bid': 4.5200000000000005}, {'imgObject': {}, 'id': 'strawberries', 'src': '/static/foodstim60/strawberries.jpg', 'key': 'i', 'origWidth': 410, 'origHeight': 410, 'width': 410, 'height': 410, 'widthPercent': 0.45, 'rescaleHeight': False, 'trialN': 67, 'loaded': True, 'loadedTime': 2261.5, 'positionName': 'RIGHT', 'positionCoords': [998.4, 335], 'bid': 6.65}]",130037.79999995232,1669839940489,popsicles,strawberries,4.5200000000000005,6.65,2.13,strawberries,934.6000000238419,934,934.8000000715256,True,i,131487.70000004768,1449.9000000953674,1669839941938,1449,HRV,HRV_0282,2022-11-30 20:29:11
68,"[{'imgObject': {}, 'id': 'mango', 'src': '/static/foodstim60/mango.jpg', 'key': 'u', 'origWidth': 411, 'origHeight': 411, 'width': 411, 'height': 411, 'widthPercent': 0.45, 'rescaleHeight': False, 'trialN': 68, 'loaded': True, 'loadedTime': 2265.100000023842, 'positionName': 'LEFT', 'positionCoords': [510.6, 334.5], 'bid': 6.22}, {'imgObject': {}, 'id': 'shreddedwheatwithmilk', 'src': '/static/foodstim60/shreddedwheatwithmilk.jpg', 'key': 'i', 'origWidth': 410, 'origHeight': 410, 'width': 410, 'height': 410, 'widthPercent': 0.45, 'rescaleHeight': False, 'trialN': 68, 'loaded': True, 'loadedTime': 2269, 'positionName': 'RIGHT', 'positionCoords': [998.4, 335], 'bid': 5.47}]",131487.79999995232,1669839941939,mango,shreddedwheatwithmilk,6.22,5.47,-0.75,mango,1732.4000000953674,1732,1732.5,True,u,133724.89999997616,2237.100000023842,1669839944176,2237,HRV,HRV_0282,2022-11-30 20:29:11
69,"[{'imgObject': {}, 'id': 'luckycharms', 'src': '/static/foodstim60/luckycharms.jpg', 'key': 'u', 'origWidth': 410, 'origHeight': 409, 'width': 410, 'height': 409, 'widthPercent': 0.45, 'rescaleHeight': False, 'trialN': 69, 'loaded': True, 'loadedTime': 2532.600000023842, 'positionName': 'LEFT', 'positionCoords': [511.6, 335.5], 'bid': 6.36}, {'imgObject': {}, 'id': 'edamame', 'src': '/static/foodstim60/edamame.jpg', 'key': 'i', 'origWidth': 409, 'origHeight': 410, 'width': 409, 'height': 410, 'widthPercent': 0.45, 'rescaleHeight': False, 'trialN': 69, 'loaded': True, 'loadedTime': 2272.899999976158, 'positionName': 'RIGHT', 'positionCoords': [998.4, 335], 'bid': 9.17}]",133725.0,1669839944176,luckycharms,edamame,6.36,9.17,2.8099999999999996,edamame,1271,1271,1271.2000000476837,True,i,135505.0,1780.0,1669839945956,1780,HRV,HRV_0282,2022-11-30 20:29:11
70,"[{'imgObject': {}, 'id': 'sushi w_condiments', 'src': '/static/foodstim60/sushi w_condiments.jpg', 'key': 'u', 'origWidth': 410, 'origHeight': 410, 'width': 410, 'height': 410, 'widthPercent': 0.45, 'rescaleHeight': False, 'trialN': 70, 'loaded': True, 'loadedTime': 2480.600000023842, 'positionName': 'LEFT', 'positionCoords': [511.6, 335], 'bid': 9.77}, {'imgObject': {}, 'id': 'burrito', 'src': '/static/foodstim60/burrito.jpg', 'key': 'i', 'origWidth': 410, 'origHeight': 410, 'width': 410, 'height': 410, 'widthPercent': 0.45, 'rescaleHeight': False, 'trialN': 70, 'loaded': True, 'loadedTime': 2389.399999976158, 'positionName': 'RIGHT', 'positionCoords': [998.4, 335], 'bid': 9.31}]",135505.20000004768,1669839945956,sushi w_condiments,burrito,9.77,9.31,-0.4599999999999991,sushi w_condiments,1402.8999999761581,1403,1403.0999999046326,True,u,137421.89999997616,1916.6999999284744,1669839947873,1917,HRV,HRV_0282,2022-11-30 20:29:11
71,"[{'imgObject': {}, 'id': 'banana', 'src': '/static/foodstim60/banana.jpg', 'key': 'u', 'origWidth': 410, 'origHeight': 410, 'width': 410, 'height': 410, 'widthPercent': 0.45, 'rescaleHeight': False, 'trialN': 71, 'loaded': True, 'loadedTime': 2554.600000023842, 'positionName': 'LEFT', 'positionCoords': [511.6, 335], 'bid': 2.59}, {'imgObject': {}, 'id': 'Grapes', 'src': '/static/foodstim60/Grapes.jpg', 'key': 'i', 'origWidth': 411, 'origHeight': 411, 'width': 411, 'height': 411, 'widthPercent': 0.45, 'rescaleHeight': False, 'trialN': 71, 'loaded': True, 'loadedTime': 2570.5, 'positionName': 'RIGHT', 'positionCoords': [998.4, 334.5], 'bid': 4.68}]",137422.10000002384,1669839947873,banana,Grapes,2.59,4.68,2.09,Grapes,1205.8999999761581,1206,1206.1000000238419,True,i,139133.70000004768,1711.6000000238419,1669839949585,1712,HRV,HRV_0282,2022-11-30 20:29:11
72,"[{'imgObject': {}, 'id': 'chicken nuggets2', 'src': '/static/foodstim60/chicken nuggets2.jpg', 'key': 'u', 'origWidth': 410, 'origHeight': 409, 'width': 410, 'height': 409, 'widthPercent': 0.45, 'rescaleHeight': False, 'trialN': 72, 'loaded': True, 'loadedTime': 2276, 'positionName': 'LEFT', 'positionCoords': [511.6, 335.5], 'bid': 8.620000000000001}, {'imgObject': {}, 'id': 'mashed potato', 'src': '/static/foodstim60/mashed potato.jpg', 'key': 'i', 'origWidth': 409, 'origHeight': 409, 'width': 409, 'height': 409, 'widthPercent': 0.45, 'rescaleHeight': False, 'trialN': 72, 'loaded': True, 'loadedTime': 2578, 'positionName': 'RIGHT', 'positionCoords': [998.4, 335.5], 'bid': 8.51}]",139133.79999995232,1669839949585,chicken nuggets2,mashed potato,8.620000000000001,8.51,-0.11000000000000121,chicken nuggets2,1806.4000000953674,1806,1806.5,True,u,141454.20000004768,2320.4000000953674,1669839951905,2320,HRV,HRV_0282,2022-11-30 20:29:11
73,"[{'imgObject': {}, 'id': 'eggsalad', 'src': '/static/foodstim60/eggsalad.jpg', 'key': 'u', 'origWidth': 410, 'origHeight': 409, 'width': 410, 'height': 409, 'widthPercent': 0.45, 'rescaleHeight': False, 'trialN': 73, 'loaded': True, 'loadedTime': 2262.7000000476837, 'positionName': 'LEFT', 'positionCoords': [511.6, 335.5], 'bid': 7.44}, {'imgObject': {}, 'id': 'bagel plain', 'src': '/static/foodstim60/bagel plain.jpg', 'key': 'i', 'origWidth': 410, 'origHeight': 410, 'width': 410, 'height': 410, 'widthPercent': 0.45, 'rescaleHeight': False, 'trialN': 73, 'loaded': True, 'loadedTime': 2204.600000023842, 'positionName': 'RIGHT', 'positionCoords': [998.4, 335], 'bid': 6.8}]",141454.5,1669839951905,eggsalad,bagel plain,7.44,6.8,-0.6400000000000006,eggsalad,1325.6000000238419,1326,1325.7000000476837,True,u,143285.89999997616,1831.3999999761581,1669839953737,1832,HRV,HRV_0282,2022-11-30 20:29:11
74,"[{'imgObject': {}, 'id': 'raisin bran w milk', 'src': '/static/foodstim60/raisin bran w milk.jpg', 'key': 'u', 'origWidth': 411, 'origHeight': 411, 'width': 411, 'height': 411, 'widthPercent': 0.45, 'rescaleHeight': False, 'trialN': 74, 'loaded': True, 'loadedTime': 2499.7000000476837, 'positionName': 'LEFT', 'positionCoords': [510.6, 334.5], 'bid': 5.48}, {'imgObject': {}, 'id': 'rigatoni', 'src': '/static/foodstim60/rigatoni.jpg', 'key': 'i', 'origWidth': 411, 'origHeight': 411, 'width': 411, 'height': 411, 'widthPercent': 0.45, 'rescaleHeight': False, 'trialN': 74, 'loaded': True, 'loadedTime': 2573.7000000476837, 'positionName': 'RIGHT', 'positionCoords': [998.4, 334.5], 'bid': 5.46}]",143286.0,1669839953737,raisin bran w milk,rigatoni,5.48,5.46,-0.020000000000000462,rigatoni,1374.3999999761581,1374,1374.6000000238419,True,i,145164.79999995232,1878.7999999523163,1669839955616,1879,HRV,HRV_0282,2022-11-30 20:29:11
75,"[{'imgObject': {}, 'id': 'sushi w_condiments', 'src': '/static/foodstim60/sushi w_condiments.jpg', 'key': 'u', 'origWidth': 410, 'origHeight': 410, 'width': 410, 'height': 410, 'widthPercent': 0.45, 'rescaleHeight': False, 'trialN': 75, 'loaded': True, 'loadedTime': 2466.399999976158, 'positionName': 'LEFT', 'positionCoords': [511.6, 335], 'bid': 9.77}, {'imgObject': {}, 'id': 'avocado', 'src': '/static/foodstim60/avocado.jpg', 'key': 'i', 'origWidth': 409, 'origHeight': 409, 'width': 409, 'height': 409, 'widthPercent': 0.45, 'rescaleHeight': False, 'trialN': 75, 'loaded': True, 'loadedTime': 2507.100000023842, 'positionName': 'RIGHT', 'positionCoords': [998.4, 335.5], 'bid': 9.71}]",145164.89999997616,1669839955616,sushi w_condiments,avocado,9.77,9.71,-0.05999999999999872,sushi w_condiments,1375.8000000715256,1376,1376.2000000476837,True,u,147050.79999995232,1885.8999999761581,1669839957502,1886,HRV,HRV_0282,2022-11-30 20:29:11
76,"[{'imgObject': {}, 'id': 'rigatoni', 'src': '/static/foodstim60/rigatoni.jpg', 'key': 'u', 'origWidth': 411, 'origHeight': 411, 'width': 411, 'height': 411, 'widthPercent': 0.45, 'rescaleHeight': False, 'trialN': 76, 'loaded': True, 'loadedTime': 2573.899999976158, 'positionName': 'LEFT', 'positionCoords': [510.6, 334.5], 'bid': 5.46}, {'imgObject': {}, 'id': 'hotdog w must', 'src': '/static/foodstim60/hotdog w must.jpg', 'key': 'i', 'origWidth': 409, 'origHeight': 409, 'width': 409, 'height': 409, 'widthPercent': 0.45, 'rescaleHeight': False, 'trialN': 76, 'loaded': True, 'loadedTime': 2274.7000000476837, 'positionName': 'RIGHT', 'positionCoords': [998.4, 335.5], 'bid': 6.86}]",147050.89999997616,1669839957502,rigatoni,hotdog w must,5.46,6.86,1.4000000000000004,hotdog w must,1585.3000000715256,1585,1585.3999999761581,True,i,149150.60000002384,2099.7000000476837,1669839959601,2099,HRV,HRV_0282,2022-11-30 20:29:11
77,"[{'imgObject': {}, 'id': 'froot loops w milk', 'src': '/static/foodstim60/froot loops w milk.jpg', 'key': 'u', 'origWidth': 410, 'origHeight': 410, 'width': 410, 'height': 410, 'widthPercent': 0.45, 'rescaleHeight': False, 'trialN': 77, 'loaded': True, 'loadedTime': 2572.600000023842, 'positionName': 'LEFT', 'positionCoords': [511.6, 335], 'bid': 3.65}, {'imgObject': {}, 'id': 'olives', 'src': '/static/foodstim60/olives.jpg', 'key': 'i', 'origWidth': 410, 'origHeight': 410, 'width': 410, 'height': 410, 'widthPercent': 0.45, 'rescaleHeight': False, 'trialN': 77, 'loaded': True, 'loadedTime': 2419.600000023842, 'positionName': 'RIGHT', 'positionCoords': [998.4, 335], 'bid': 5.64}]",149150.70000004768,1669839959602,froot loops w milk,olives,3.65,5.64,1.9899999999999998,olives,1429.6999999284744,1430,1430.2999999523163,True,i,151084.10000002384,1933.3999999761581,1669839961535,1933,HRV,HRV_0282,2022-11-30 20:29:11
78,"[{'imgObject': {}, 'id': 'luckycharms', 'src': '/static/foodstim60/luckycharms.jpg', 'key': 'u', 'origWidth': 410, 'origHeight': 409, 'width': 410, 'height': 409, 'widthPercent': 0.45, 'rescaleHeight': False, 'trialN': 78, 'loaded': True, 'loadedTime': 2530.7999999523163, 'positionName': 'LEFT', 'positionCoords': [511.6, 335.5], 'bid': 6.36}, {'imgObject': {}, 'id': 'froot loops w milk', 'src': '/static/foodstim60/froot loops w milk.jpg', 'key': 'i', 'origWidth': 410, 'origHeight': 410, 'width': 410, 'height': 410, 'widthPercent': 0.45, 'rescaleHeight': False, 'trialN': 78, 'loaded': True, 'loadedTime': 2572.7000000476837, 'positionName': 'RIGHT', 'positionCoords': [998.4, 335], 'bid': 3.65}]",151084.20000004768,1669839961535,luckycharms,froot loops w milk,6.36,3.65,-2.7100000000000004,luckycharms,1096.5,1097,1096.7999999523163,True,u,152688.0,1603.7999999523163,1669839963139,1604,HRV,HRV_0282,2022-11-30 20:29:11
79,"[{'imgObject': {}, 'id': 'popsicles', 'src': '/static/foodstim60/popsicles.jpg', 'key': 'u', 'origWidth': 410, 'origHeight': 410, 'width': 410, 'height': 410, 'widthPercent': 0.45, 'rescaleHeight': False, 'trialN': 79, 'loaded': True, 'loadedTime': 2584.100000023842, 'positionName': 'LEFT', 'positionCoords': [511.6, 335], 'bid': 4.5200000000000005}, {'imgObject': {}, 'id': 'granola w milk', 'src': '/static/foodstim60/granola w milk.jpg', 'key': 'i', 'origWidth': 410, 'origHeight': 410, 'width': 410, 'height': 410, 'widthPercent': 0.45, 'rescaleHeight': False, 'trialN': 79, 'loaded': True, 'loadedTime': 2549.7000000476837, 'positionName': 'RIGHT', 'positionCoords': [998.4, 335], 'bid': 5.3100000000000005}]",152688.10000002384,1669839963139,popsicles,granola w milk,4.5200000000000005,5.3100000000000005,0.79,granola w milk,2332,2332,2332.1999999284744,True,i,155535.70000004768,2847.600000023842,1669839965986,2847,HRV,HRV_0282,2022-11-30 20:29:11
80,"[{'imgObject': {}, 'id': 'rigatoni and sauce', 'src': '/static/foodstim60/rigatoni and sauce.jpg', 'key': 'u', 'origWidth': 410, 'origHeight': 411, 'width': 410, 'height': 411, 'widthPercent': 0.45, 'rescaleHeight': False, 'trialN': 80, 'loaded': True, 'loadedTime': 2256.7999999523163, 'positionName': 'LEFT', 'positionCoords': [511.6, 334.5], 'bid': 7.79}, {'imgObject': {}, 'id': 'roastedpotatoes', 'src': '/static/foodstim60/roastedpotatoes.jpg', 'key': 'i', 'origWidth': 409, 'origHeight': 410, 'width': 409, 'height': 410, 'widthPercent': 0.45, 'rescaleHeight': False, 'trialN': 80, 'loaded': True, 'loadedTime': 2579.600000023842, 'positionName': 'RIGHT', 'positionCoords': [998.4, 335], 'bid': 9.14}]",155535.79999995232,1669839965987,rigatoni and sauce,roastedpotatoes,7.79,9.14,1.3500000000000005,roastedpotatoes,1516.3000000715256,1516,1516.4000000953674,True,i,157567.0,2031.2000000476837,1669839968018,2031,HRV,HRV_0282,2022-11-30 20:29:11
81,"[{'imgObject': {}, 'id': 'grilled chicken strips', 'src': '/static/foodstim60/grilled chicken strips.jpg', 'key': 'u', 'origWidth': 410, 'origHeight': 411, 'width': 410, 'height': 411, 'widthPercent': 0.45, 'rescaleHeight': False, 'trialN': 81, 'loaded': True, 'loadedTime': 2526.100000023842, 'positionName': 'LEFT', 'positionCoords': [511.6, 334.5], 'bid': 8.89}, {'imgObject': {}, 'id': 'seaweed', 'src': '/static/foodstim60/seaweed.jpg', 'key': 'i', 'origWidth': 410, 'origHeight': 410, 'width': 410, 'height': 410, 'widthPercent': 0.45, 'rescaleHeight': False, 'trialN': 81, 'loaded': True, 'loadedTime': 2576.100000023842, 'positionName': 'RIGHT', 'positionCoords': [998.4, 335], 'bid': 8.9}]",157567.0,1669839968018,grilled chicken strips,seaweed,8.89,8.9,0.009999999999999787,grilled chicken strips,2469.2000000476837,2469,2469.399999976158,True,u,160552.0,2985.0,1669839971003,2985,HRV,HRV_0282,2022-11-30 20:29:11
82,"[{'imgObject': {}, 'id': 'blueberries', 'src': '/static/foodstim60/blueberries.jpg', 'key': 'u', 'origWidth': 411, 'origHeight': 411, 'width': 411, 'height': 411, 'widthPercent': 0.45, 'rescaleHeight': False, 'trialN': 82, 'loaded': True, 'loadedTime': 2566.600000023842, 'positionName': 'LEFT', 'positionCoords': [510.6, 334.5], 'bid': 2.08}, {'imgObject': {}, 'id': 'cheerios', 'src': '/static/foodstim60/cheerios.jpg', 'key': 'i', 'origWidth': 409, 'origHeight': 410, 'width': 409, 'height': 410, 'widthPercent': 0.45, 'rescaleHeight': False, 'trialN': 82, 'loaded': True, 'loadedTime': 2326.7000000476837, 'positionName': 'RIGHT', 'positionCoords': [998.4, 335], 'bid': 4.39}]",160552.0,1669839971003,blueberries,cheerios,2.08,4.39,2.3099999999999996,cheerios,1589.7999999523163,1591,1590.7000000476837,True,i,162652.79999995232,2100.7999999523163,1669839973104,2101,HRV,HRV_0282,2022-11-30 20:29:11
83,"[{'imgObject': {}, 'id': 'mac & cheese', 'src': '/static/foodstim60/mac & cheese.jpg', 'key': 'u', 'origWidth': 410, 'origHeight': 410, 'width': 410, 'height': 410, 'widthPercent': 0.45, 'rescaleHeight': False, 'trialN': 83, 'loaded': True, 'loadedTime': 2247.899999976158, 'positionName': 'LEFT', 'positionCoords': [511.6, 335], 'bid': 9.45}, {'imgObject': {}, 'id': 'tacos', 'src': '/static/foodstim60/tacos.jpg', 'key': 'i', 'origWidth': 411, 'origHeight': 411, 'width': 411, 'height': 411, 'widthPercent': 0.45, 'rescaleHeight': False, 'trialN': 83, 'loaded': True, 'loadedTime': 2580.2999999523163, 'positionName': 'RIGHT', 'positionCoords': [998.4, 334.5], 'bid': 8.9}]",162653.0,1669839973104,mac & cheese,tacos,9.45,8.9,-0.5499999999999989,mac & cheese,1063.3999999761581,1063,1063.6000000238419,True,u,164255.0,1602.0,1669839974706,1602,HRV,HRV_0282,2022-11-30 20:29:11
84,"[{'imgObject': {}, 'id': 'corn cob', 'src': '/static/foodstim60/corn cob.jpg', 'key': 'u', 'origWidth': 411, 'origHeight': 411, 'width': 411, 'height': 411, 'widthPercent': 0.45, 'rescaleHeight': False, 'trialN': 84, 'loaded': True, 'loadedTime': 2496.7999999523163, 'positionName': 'LEFT', 'positionCoords': [510.6, 334.5], 'bid': 7.140000000000001}, {'imgObject': {}, 'id': 'burger', 'src': '/static/foodstim60/burger.jpg', 'key': 'i', 'origWidth': 409, 'origHeight': 409, 'width': 409, 'height': 409, 'widthPercent': 0.45, 'rescaleHeight': False, 'trialN': 84, 'loaded': True, 'loadedTime': 2358.5, 'positionName': 'RIGHT', 'positionCoords': [998.4, 335.5], 'bid': 8.44}]",164255.10000002384,1669839974706,corn cob,burger,7.140000000000001,8.44,1.299999999999999,burger,1421.2999999523163,1421,1421.5,True,i,166189.89999997616,1934.7999999523163,1669839976641,1935,HRV,HRV_0282,2022-11-30 20:29:11
85,"[{'imgObject': {}, 'id': 'cherry tomato', 'src': '/static/foodstim60/cherry tomato.jpg', 'key': 'u', 'origWidth': 410, 'origHeight': 410, 'width': 410, 'height': 410, 'widthPercent': 0.45, 'rescaleHeight': False, 'trialN': 85, 'loaded': True, 'loadedTime': 2556.2000000476837, 'positionName': 'LEFT', 'positionCoords': [511.6, 335], 'bid': 8.71}, {'imgObject': {}, 'id': 'veggieswithdip', 'src': '/static/foodstim60/veggieswithdip.jpg', 'key': 'i', 'origWidth': 409, 'origHeight': 409, 'width': 409, 'height': 409, 'widthPercent': 0.45, 'rescaleHeight': False, 'trialN': 85, 'loaded': True, 'loadedTime': 2577.7000000476837, 'positionName': 'RIGHT', 'positionCoords': [998.4, 335.5], 'bid': 8.11}]",166190.20000004768,1669839976641,cherry tomato,veggieswithdip,8.71,8.11,-0.6000000000000014,veggieswithdip,2246,2246,2246.1999999284744,True,i,168943.0,2752.7999999523163,1669839979393,2752,HRV,HRV_0282,2022-11-30 20:29:11
86,"[{'imgObject': {}, 'id': 'turkeysandwich', 'src': '/static/foodstim60/turkeysandwich.jpg', 'key': 'u', 'origWidth': 409, 'origHeight': 409, 'width': 409, 'height': 409, 'widthPercent': 0.45, 'rescaleHeight': False, 'trialN': 86, 'loaded': True, 'loadedTime': 2332.100000023842, 'positionName': 'LEFT', 'positionCoords': [512.6, 335.5], 'bid': 9.67}, {'imgObject': {}, 'id': 'turkey sandwich', 'src': '/static/foodstim60/turkey sandwich.jpg', 'key': 'i', 'origWidth': 409, 'origHeight': 409, 'width': 409, 'height': 409, 'widthPercent': 0.45, 'rescaleHeight': False, 'trialN': 86, 'loaded': True, 'loadedTime': 2270.600000023842, 'positionName': 'RIGHT', 'positionCoords': [998.4, 335.5], 'bid': 9.17}]",168943.20000004768,1669839979394,turkeysandwich,turkey sandwich,9.67,9.17,-0.5,turkeysandwich,1061.5999999046326,1062,1062.0,True,u,170519.0,1575.7999999523163,1669839980969,1575,HRV,HRV_0282,2022-11-30 20:29:11
87,"[{'imgObject': {}, 'id': 'ice cream sundae 002', 'src': '/static/foodstim60/ice cream sundae 002.jpg', 'key': 'u', 'origWidth': 409, 'origHeight': 409, 'width': 409, 'height': 409, 'widthPercent': 0.45, 'rescaleHeight': False, 'trialN': 87, 'loaded': True, 'loadedTime': 2260, 'positionName': 'LEFT', 'positionCoords': [512.6, 335.5], 'bid': 7.67}, {'imgObject': {}, 'id': 'cocktailshrimp', 'src': '/static/foodstim60/cocktailshrimp.jpg', 'key': 'i', 'origWidth': 410, 'origHeight': 410, 'width': 410, 'height': 410, 'widthPercent': 0.45, 'rescaleHeight': False, 'trialN': 87, 'loaded': True, 'loadedTime': 2504.899999976158, 'positionName': 'RIGHT', 'positionCoords': [998.4, 335], 'bid': 7.81}]",170519.20000004768,1669839980970,ice cream sundae 002,cocktailshrimp,7.67,7.81,0.13999999999999968,ice cream sundae 002,2917.5,2918,2917.899999976158,True,u,173938.79999995232,3419.5999999046326,1669839984389,3419,HRV,HRV_0282,2022-11-30 20:29:11
88,"[{'imgObject': {}, 'id': 'avocado', 'src': '/static/foodstim60/avocado.jpg', 'key': 'u', 'origWidth': 409, 'origHeight': 409, 'width': 409, 'height': 409, 'widthPercent': 0.45, 'rescaleHeight': False, 'trialN': 88, 'loaded': True, 'loadedTime': 2507, 'positionName': 'LEFT', 'positionCoords': [512.6, 335.5], 'bid': 9.71}, {'imgObject': {}, 'id': 'lox', 'src': '/static/foodstim60/lox.jpg', 'key': 'i', 'origWidth': 410, 'origHeight': 411, 'width': 410, 'height': 411, 'widthPercent': 0.45, 'rescaleHeight': False, 'trialN': 88, 'loaded': True, 'loadedTime': 2280.7999999523163, 'positionName': 'RIGHT', 'positionCoords': [998.4, 334.5], 'bid': 8.75}]",173938.89999997616,1669839984389,avocado,lox,9.71,8.75,-0.9600000000000009,avocado,1154.3999999761581,1155,1154.8999999761581,True,u,175613.89999997616,1675.0,1669839986064,1675,HRV,HRV_0282,2022-11-30 20:29:11
89,"[{'imgObject': {}, 'id': 'fruitsalad', 'src': '/static/foodstim60/fruitsalad.jpg', 'key': 'u', 'origWidth': 410, 'origHeight': 410, 'width': 410, 'height': 410, 'widthPercent': 0.45, 'rescaleHeight': False, 'trialN': 89, 'loaded': True, 'loadedTime': 2529.899999976158, 'positionName': 'LEFT', 'positionCoords': [511.6, 335], 'bid': 6.84}, {'imgObject': {}, 'id': 'veggieswithdip', 'src': '/static/foodstim60/veggieswithdip.jpg', 'key': 'i', 'origWidth': 409, 'origHeight': 409, 'width': 409, 'height': 409, 'widthPercent': 0.45, 'rescaleHeight': False, 'trialN': 89, 'loaded': True, 'loadedTime': 2577.7999999523163, 'positionName': 'RIGHT', 'positionCoords': [998.4, 335.5], 'bid': 8.11}]",175614.20000004768,1669839986065,fruitsalad,veggieswithdip,6.84,8.11,1.2699999999999996,veggieswithdip,1006.3999999761581,1006,1006.6999999284744,True,i,177130.70000004768,1516.5,1669839987581,1516,HRV,HRV_0282,2022-11-30 20:29:11
90,"[{'imgObject': {}, 'id': 'raspberries', 'src': '/static/foodstim60/raspberries.jpg', 'key': 'u', 'origWidth': 411, 'origHeight': 411, 'width': 411, 'height': 411, 'widthPercent': 0.45, 'rescaleHeight': False, 'trialN': 90, 'loaded': True, 'loadedTime': 2266.899999976158, 'positionName': 'LEFT', 'positionCoords': [510.6, 334.5], 'bid': 2.15}, {'imgObject': {}, 'id': 'popsicles', 'src': '/static/foodstim60/popsicles.jpg', 'key': 'i', 'origWidth': 410, 'origHeight': 410, 'width': 410, 'height': 410, 'widthPercent': 0.45, 'rescaleHeight': False, 'trialN': 90, 'loaded': True, 'loadedTime': 2584.2000000476837, 'positionName': 'RIGHT', 'positionCoords': [998.4, 335], 'bid': 4.5200000000000005}]",180230.89999997616,1669839990681,raspberries,popsicles,2.15,4.5200000000000005,2.3700000000000006,popsicles,1901.2000000476837,1902,1901.3999999761581,True,i,182640.10000002384,2409.2000000476837,1669839993090,2409,HRV,HRV_0282,2022-11-30 20:29:11
91,"[{'imgObject': {}, 'id': 'blueberries', 'src': '/static/foodstim60/blueberries.jpg', 'key': 'u', 'origWidth': 411, 'origHeight': 411, 'width': 411, 'height': 411, 'widthPercent': 0.45, 'rescaleHeight': False, 'trialN': 91, 'loaded': True, 'loadedTime': 2566.7000000476837, 'positionName': 'LEFT', 'positionCoords': [510.6, 334.5], 'bid': 2.08}, {'imgObject': {}, 'id': 'ice cream sundae 002', 'src': '/static/foodstim60/ice cream sundae 002.jpg', 'key': 'i', 'origWidth': 409, 'origHeight': 409, 'width': 409, 'height': 409, 'widthPercent': 0.45, 'rescaleHeight': False, 'trialN': 91, 'loaded': True, 'loadedTime': 2260.5, 'positionName': 'RIGHT', 'positionCoords': [998.4, 335.5], 'bid': 7.67}]",182640.20000004768,1669839993091,blueberries,ice cream sundae 002,2.08,7.67,5.59,ice cream sundae 002,811.8999999761581,812,812.1999999284744,True,i,183955.70000004768,1315.5,1669839994406,1315,HRV,HRV_0282,2022-11-30 20:29:11
92,"[{'imgObject': {}, 'id': 'cherries', 'src': '/static/foodstim60/cherries.jpg', 'key': 'u', 'origWidth': 410, 'origHeight': 411, 'width': 410, 'height': 411, 'widthPercent': 0.45, 'rescaleHeight': False, 'trialN': 92, 'loaded': True, 'loadedTime': 2263.7000000476837, 'positionName': 'LEFT', 'positionCoords': [511.6, 334.5], 'bid': 2.05}, {'imgObject': {}, 'id': 'olives', 'src': '/static/foodstim60/olives.jpg', 'key': 'i', 'origWidth': 410, 'origHeight': 410, 'width': 410, 'height': 410, 'widthPercent': 0.45, 'rescaleHeight': False, 'trialN': 92, 'loaded': True, 'loadedTime': 2404.5, 'positionName': 'RIGHT', 'positionCoords': [998.4, 335], 'bid': 5.64}]",183955.89999997616,1669839994406,cherries,olives,2.05,5.64,3.59,olives,888.2000000476837,889,888.3999999761581,True,i,185354.89999997616,1399.0,1669839995805,1399,HRV,HRV_0282,2022-11-30 20:29:11
93,"[{'imgObject': {}, 'id': 'sweetpotato', 'src': '/static/foodstim60/sweetpotato.jpg', 'key': 'u', 'origWidth': 410, 'origHeight': 410, 'width': 410, 'height': 410, 'widthPercent': 0.45, 'rescaleHeight': False, 'trialN': 93, 'loaded': True, 'loadedTime': 2255.7999999523163, 'positionName': 'LEFT', 'positionCoords': [511.6, 335], 'bid': 6.92}, {'imgObject': {}, 'id': 'shreddedwheatwithmilk', 'src': '/static/foodstim60/shreddedwheatwithmilk.jpg', 'key': 'i', 'origWidth': 410, 'origHeight': 410, 'width': 410, 'height': 410, 'widthPercent': 0.45, 'rescaleHeight': False, 'trialN': 93, 'loaded': True, 'loadedTime': 2268.7000000476837, 'positionName': 'RIGHT', 'positionCoords': [998.4, 335], 'bid': 5.47}]",185355.10000002384,1669839995806,sweetpotato,shreddedwheatwithmilk,6.92,5.47,-1.4500000000000002,sweetpotato,1001.1999999284744,1001,1001.3999999761581,True,u,186865.70000004768,1510.6000000238419,1669839997316,1510,HRV,HRV_0282,2022-11-30 20:29:11
94,"[{'imgObject': {}, 'id': 'hashbrowns', 'src': '/static/foodstim60/hashbrowns.jpg', 'key': 'u', 'origWidth': 411, 'origHeight': 410, 'width': 411, 'height': 410, 'widthPercent': 0.45, 'rescaleHeight': False, 'trialN': 94, 'loaded': True, 'loadedTime': 2253.7000000476837, 'positionName': 'LEFT', 'positionCoords': [510.6, 335], 'bid': 8.36}, {'imgObject': {}, 'id': 'grilled chicken strips', 'src': '/static/foodstim60/grilled chicken strips.jpg', 'key': 'i', 'origWidth': 410, 'origHeight': 411, 'width': 410, 'height': 411, 'widthPercent': 0.45, 'rescaleHeight': False, 'trialN': 94, 'loaded': True, 'loadedTime': 2507.2000000476837, 'positionName': 'RIGHT', 'positionCoords': [998.4, 334.5], 'bid': 8.89}]",186865.89999997616,1669839997316,hashbrowns,grilled chicken strips,8.36,8.89,0.5300000000000011,hashbrowns,2266.600000023842,2267,2266.8000000715256,True,u,189647.10000002384,2781.2000000476837,1669840000097,2781,HRV,HRV_0282,2022-11-30 20:29:11
95,"[{'imgObject': {}, 'id': 'cantaloupe', 'src': '/static/foodstim60/cantaloupe.jpg', 'key': 'u', 'origWidth': 409, 'origHeight': 409, 'width': 409, 'height': 409, 'widthPercent': 0.45, 'rescaleHeight': False, 'trialN': 95, 'loaded': True, 'loadedTime': 2554.2000000476837, 'positionName': 'LEFT', 'positionCoords': [512.6, 335.5], 'bid': 3.52}, {'imgObject': {}, 'id': 'fried eggs', 'src': '/static/foodstim60/fried eggs.jpg', 'key': 'i', 'origWidth': 410, 'origHeight': 410, 'width': 410, 'height': 410, 'widthPercent': 0.45, 'rescaleHeight': False, 'trialN': 95, 'loaded': True, 'loadedTime': 2574, 'positionName': 'RIGHT', 'positionCoords': [998.4, 335], 'bid': 8}]",189647.39999997616,1669840000098,cantaloupe,fried eggs,3.52,8.0,4.48,fried eggs,836.8000000715256,837,836.8999999761581,True,i,190986.29999995232,1338.8999999761581,1669840001437,1339,HRV,HRV_0282,2022-11-30 20:29:11
96,"[{'imgObject': {}, 'id': 'veggieswithdip', 'src': '/static/foodstim60/veggieswithdip.jpg', 'key': 'u', 'origWidth': 409, 'origHeight': 409, 'width': 409, 'height': 409, 'widthPercent': 0.45, 'rescaleHeight': False, 'trialN': 96, 'loaded': True, 'loadedTime': 2577.7999999523163, 'positionName': 'LEFT', 'positionCoords': [512.6, 335.5], 'bid': 8.11}, {'imgObject': {}, 'id': 'chickenfingers', 'src': '/static/foodstim60/chickenfingers.jpg', 'key': 'i', 'origWidth': 410, 'origHeight': 410, 'width': 410, 'height': 410, 'widthPercent': 0.45, 'rescaleHeight': False, 'trialN': 96, 'loaded': True, 'loadedTime': 2527.5, 'positionName': 'RIGHT', 'positionCoords': [998.4, 335], 'bid': 8.290000000000001}]",190986.5,1669840001437,veggieswithdip,chickenfingers,8.11,8.290000000000001,0.1800000000000015,chickenfingers,953.7000000476837,954,953.8999999761581,True,i,192445.0,1458.5,1669840002895,1458,HRV,HRV_0282,2022-11-30 20:29:11
97,"[{'imgObject': {}, 'id': 'seaweed', 'src': '/static/foodstim60/seaweed.jpg', 'key': 'u', 'origWidth': 410, 'origHeight': 410, 'width': 410, 'height': 410, 'widthPercent': 0.45, 'rescaleHeight': False, 'trialN': 97, 'loaded': True, 'loadedTime': 2575.100000023842, 'positionName': 'LEFT', 'positionCoords': [511.6, 335], 'bid': 8.9}, {'imgObject': {}, 'id': 'Tribe humus pita', 'src': '/static/foodstim60/Tribe humus pita.jpg', 'key': 'i', 'origWidth': 411, 'origHeight': 411, 'width': 411, 'height': 411, 'widthPercent': 0.45, 'rescaleHeight': False, 'trialN': 97, 'loaded': True, 'loadedTime': 2451.2000000476837, 'positionName': 'RIGHT', 'positionCoords': [998.4, 334.5], 'bid': 8.93}]",192445.10000002384,1669840002895,seaweed,Tribe humus pita,8.9,8.93,0.02999999999999936,Tribe humus pita,1375,1376,1375.1999999284744,True,i,194332.89999997616,1887.7999999523163,1669840004783,1888,HRV,HRV_0282,2022-11-30 20:29:11
98,"[{'imgObject': {}, 'id': 'turkey sandwich', 'src': '/static/foodstim60/turkey sandwich.jpg', 'key': 'u', 'origWidth': 409, 'origHeight': 409, 'width': 409, 'height': 409, 'widthPercent': 0.45, 'rescaleHeight': False, 'trialN': 98, 'loaded': True, 'loadedTime': 2271.2000000476837, 'positionName': 'LEFT', 'positionCoords': [512.6, 335.5], 'bid': 9.17}, {'imgObject': {}, 'id': 'orange slices', 'src': '/static/foodstim60/orange slices.jpg', 'key': 'i', 'origWidth': 409, 'origHeight': 410, 'width': 409, 'height': 410, 'widthPercent': 0.45, 'rescaleHeight': False, 'trialN': 98, 'loaded': True, 'loadedTime': 2534.5, 'positionName': 'RIGHT', 'positionCoords': [998.4, 335], 'bid': 6.3}]",194332.89999997616,1669840004783,turkey sandwich,orange slices,9.17,6.3,-2.87,turkey sandwich,1176.3000000715256,1177,1176.8000000715256,True,u,196026.79999995232,1693.8999999761581,1669840006477,1694,HRV,HRV_0282,2022-11-30 20:29:11
99,"[{'imgObject': {}, 'id': 'tacos', 'src': '/static/foodstim60/tacos.jpg', 'key': 'u', 'origWidth': 411, 'origHeight': 411, 'width': 411, 'height': 411, 'widthPercent': 0.45, 'rescaleHeight': False, 'trialN': 99, 'loaded': True, 'loadedTime': 2580.5, 'positionName': 'LEFT', 'positionCoords': [510.6, 334.5], 'bid': 8.9}, {'imgObject': {}, 'id': 'Tribe humus pita', 'src': '/static/foodstim60/Tribe humus pita.jpg', 'key': 'i', 'origWidth': 411, 'origHeight': 411, 'width': 411, 'height': 411, 'widthPercent': 0.45, 'rescaleHeight': False, 'trialN': 99, 'loaded': True, 'loadedTime': 2465.100000023842, 'positionName': 'RIGHT', 'positionCoords': [998.4, 334.5], 'bid': 8.93}]",196027.0,1669840006477,tacos,Tribe humus pita,8.9,8.93,0.02999999999999936,tacos,1217.2999999523163,1218,1217.6000000238419,True,u,197752.5,1725.5,1669840008203,1726,HRV,HRV_0282,2022-11-30 20:29:11
100,"[{'imgObject': {}, 'id': 'omelette', 'src': '/static/foodstim60/omelette.jpg', 'key': 'u', 'origWidth': 410, 'origHeight': 409, 'width': 410, 'height': 409, 'widthPercent': 0.45, 'rescaleHeight': False, 'trialN': 100, 'loaded': True, 'loadedTime': 2434.100000023842, 'positionName': 'LEFT', 'positionCoords': [511.6, 335.5], 'bid': 6.37}, {'imgObject': {}, 'id': 'orange slices', 'src': '/static/foodstim60/orange slices.jpg', 'key': 'i', 'origWidth': 409, 'origHeight': 410, 'width': 409, 'height': 410, 'widthPercent': 0.45, 'rescaleHeight': False, 'trialN': 100, 'loaded': True, 'loadedTime': 2533.399999976158, 'positionName': 'RIGHT', 'positionCoords': [998.4, 335], 'bid': 6.3}]",197752.70000004768,1669840008203,omelette,orange slices,6.37,6.3,-0.07000000000000028,omelette,1171.3999999761581,1172,1171.5999999046326,True,u,199427.79999995232,1675.0999999046326,1669840009878,1675,HRV,HRV_0282,2022-11-30 20:29:11
101,"[{'imgObject': {}, 'id': 'cheerios', 'src': '/static/foodstim60/cheerios.jpg', 'key': 'u', 'origWidth': 409, 'origHeight': 410, 'width': 409, 'height': 410, 'widthPercent': 0.45, 'rescaleHeight': False, 'trialN': 101, 'loaded': True, 'loadedTime': 2318.899999976158, 'positionName': 'LEFT', 'positionCoords': [512.6, 335], 'bid': 4.39}, {'imgObject': {}, 'id': 'popsicles', 'src': '/static/foodstim60/popsicles.jpg', 'key': 'i', 'origWidth': 410, 'origHeight': 410, 'width': 410, 'height': 410, 'widthPercent': 0.45, 'rescaleHeight': False, 'trialN': 101, 'loaded': True, 'loadedTime': 2583.2999999523163, 'positionName': 'RIGHT', 'positionCoords': [998.4, 335], 'bid': 4.5200000000000005}]",199427.89999997616,1669840009878,cheerios,popsicles,4.39,4.5200000000000005,0.13000000000000078,cheerios,1560.2000000476837,1561,1560.3999999761581,True,u,201503.79999995232,2075.899999976158,1669840011954,2076,HRV,HRV_0282,2022-11-30 20:29:11
102,"[{'imgObject': {}, 'id': 'mango', 'src': '/static/foodstim60/mango.jpg', 'key': 'u', 'origWidth': 411, 'origHeight': 411, 'width': 411, 'height': 411, 'widthPercent': 0.45, 'rescaleHeight': False, 'trialN': 102, 'loaded': True, 'loadedTime': 2265.399999976158, 'positionName': 'LEFT', 'positionCoords': [510.6, 334.5], 'bid': 6.22}, {'imgObject': {}, 'id': 'banana', 'src': '/static/foodstim60/banana.jpg', 'key': 'i', 'origWidth': 410, 'origHeight': 410, 'width': 410, 'height': 410, 'widthPercent': 0.45, 'rescaleHeight': False, 'trialN': 102, 'loaded': True, 'loadedTime': 2556.2000000476837, 'positionName': 'RIGHT', 'positionCoords': [998.4, 335], 'bid': 2.59}]",201503.89999997616,1669840011954,mango,banana,6.22,2.59,-3.63,mango,924.3000000715256,925,924.6000000238419,True,u,202938.89999997616,1435.0,1669840013389,1435,HRV,HRV_0282,2022-11-30 20:29:11
103,"[{'imgObject': {}, 'id': 'roastedpotatoes', 'src': '/static/foodstim60/roastedpotatoes.jpg', 'key': 'u', 'origWidth': 409, 'origHeight': 410, 'width': 409, 'height': 410, 'widthPercent': 0.45, 'rescaleHeight': False, 'trialN': 103, 'loaded': True, 'loadedTime': 2579.5, 'positionName': 'LEFT', 'positionCoords': [512.6, 335], 'bid': 9.14}, {'imgObject': {}, 'id': 'turkey sandwich', 'src': '/static/foodstim60/turkey sandwich.jpg', 'key': 'i', 'origWidth': 409, 'origHeight': 409, 'width': 409, 'height': 409, 'widthPercent': 0.45, 'rescaleHeight': False, 'trialN': 103, 'loaded': True, 'loadedTime': 2271, 'positionName': 'RIGHT', 'positionCoords': [998.4, 335.5], 'bid': 9.17}]",202939.10000002384,1669840013390,roastedpotatoes,turkey sandwich,9.14,9.17,0.02999999999999936,turkey sandwich,1825.1000000238419,1825,1825.2999999523163,True,i,205272.10000002384,2333.0,1669840015723,2333,HRV,HRV_0282,2022-11-30 20:29:11
104,"[{'imgObject': {}, 'id': 'eggs', 'src': '/static/foodstim60/eggs.jpg', 'key': 'u', 'origWidth': 409, 'origHeight': 409, 'width': 409, 'height': 409, 'widthPercent': 0.45, 'rescaleHeight': False, 'trialN': 104, 'loaded': True, 'loadedTime': 2329.2999999523163, 'positionName': 'LEFT', 'positionCoords': [512.6, 335.5], 'bid': 6.61}, {'imgObject': {}, 'id': 'burrito', 'src': '/static/foodstim60/burrito.jpg', 'key': 'i', 'origWidth': 410, 'origHeight': 410, 'width': 410, 'height': 410, 'widthPercent': 0.45, 'rescaleHeight': False, 'trialN': 104, 'loaded': True, 'loadedTime': 2388.7000000476837, 'positionName': 'RIGHT', 'positionCoords': [998.4, 335], 'bid': 9.31}]",205272.70000004768,1669840015723,eggs,burrito,6.61,9.31,2.7,burrito,955.7999999523163,956,956.0999999046326,True,i,206740.0,1467.2999999523163,1669840017190,1467,HRV,HRV_0282,2022-11-30 20:29:11
105,"[{'imgObject': {}, 'id': 'chickenfingers', 'src': '/static/foodstim60/chickenfingers.jpg', 'key': 'u', 'origWidth': 410, 'origHeight': 410, 'width': 410, 'height': 410, 'widthPercent': 0.45, 'rescaleHeight': False, 'trialN': 105, 'loaded': True, 'loadedTime': 2526.399999976158, 'positionName': 'LEFT', 'positionCoords': [511.6, 335], 'bid': 8.290000000000001}, {'imgObject': {}, 'id': 'baked potato', 'src': '/static/foodstim60/baked potato.jpg', 'key': 'i', 'origWidth': 409, 'origHeight': 410, 'width': 409, 'height': 410, 'widthPercent': 0.45, 'rescaleHeight': False, 'trialN': 105, 'loaded': True, 'loadedTime': 2480.7999999523163, 'positionName': 'RIGHT', 'positionCoords': [998.4, 335], 'bid': 9.19}]",206740.10000002384,1669840017191,chickenfingers,baked potato,8.290000000000001,9.19,0.8999999999999986,chickenfingers,984.5,984,984.6999999284744,True,u,208228.39999997616,1488.2999999523163,1669840018679,1488,HRV,HRV_0282,2022-11-30 20:29:11
106,"[{'imgObject': {}, 'id': 'raisin bran w milk', 'src': '/static/foodstim60/raisin bran w milk.jpg', 'key': 'u', 'origWidth': 411, 'origHeight': 411, 'width': 411, 'height': 411, 'widthPercent': 0.45, 'rescaleHeight': False, 'trialN': 106, 'loaded': True, 'loadedTime': 2501.600000023842, 'positionName': 'LEFT', 'positionCoords': [510.6, 334.5], 'bid': 5.48}, {'imgObject': {}, 'id': 'pear', 'src': '/static/foodstim60/pear.jpg', 'key': 'i', 'origWidth': 411, 'origHeight': 410, 'width': 411, 'height': 410, 'widthPercent': 0.45, 'rescaleHeight': False, 'trialN': 106, 'loaded': True, 'loadedTime': 2535.2000000476837, 'positionName': 'RIGHT', 'positionCoords': [998.4, 335], 'bid': 5.55}]",208228.79999995232,1669840018679,raisin bran w milk,pear,5.48,5.55,0.0699999999999994,pear,1848.3000000715256,1849,1848.9000000953674,True,i,210592.89999997616,2364.100000023842,1669840021043,2364,HRV,HRV_0282,2022-11-30 20:29:11
107,"[{'imgObject': {}, 'id': 'chickenfingers', 'src': '/static/foodstim60/chickenfingers.jpg', 'key': 'u', 'origWidth': 410, 'origHeight': 410, 'width': 410, 'height': 410, 'widthPercent': 0.45, 'rescaleHeight': False, 'trialN': 107, 'loaded': True, 'loadedTime': 2527.7999999523163, 'positionName': 'LEFT', 'positionCoords': [511.6, 335], 'bid': 8.290000000000001}, {'imgObject': {}, 'id': 'hotdog w must', 'src': '/static/foodstim60/hotdog w must.jpg', 'key': 'i', 'origWidth': 409, 'origHeight': 409, 'width': 409, 'height': 409, 'widthPercent': 0.45, 'rescaleHeight': False, 'trialN': 107, 'loaded': True, 'loadedTime': 2274.2999999523163, 'positionName': 'RIGHT', 'positionCoords': [998.4, 335.5], 'bid': 6.86}]",210593.10000002384,1669840021043,chickenfingers,hotdog w must,8.290000000000001,6.86,-1.4300000000000006,chickenfingers,979.1000000238419,980,979.2999999523163,True,u,212086.20000004768,1493.1000000238419,1669840022537,1494,HRV,HRV_0282,2022-11-30 20:29:11
108,"[{'imgObject': {}, 'id': 'Tribe humus pita', 'src': '/static/foodstim60/Tribe humus pita.jpg', 'key': 'u', 'origWidth': 411, 'origHeight': 411, 'width': 411, 'height': 411, 'widthPercent': 0.45, 'rescaleHeight': False, 'trialN': 108, 'loaded': True, 'loadedTime': 2465.5, 'positionName': 'LEFT', 'positionCoords': [510.6, 334.5], 'bid': 8.93}, {'imgObject': {}, 'id': 'steak', 'src': '/static/foodstim60/steak.jpg', 'key': 'i', 'origWidth': 410, 'origHeight': 410, 'width': 410, 'height': 410, 'widthPercent': 0.45, 'rescaleHeight': False, 'trialN': 108, 'loaded': True, 'loadedTime': 2355, 'positionName': 'RIGHT', 'positionCoords': [998.4, 335], 'bid': 9.7}]",212086.5,1669840022537,Tribe humus pita,steak,8.93,9.7,0.7699999999999996,steak,813.7000000476837,814,813.8999999761581,True,i,213416.0,1329.5,1669840023866,1329,HRV,HRV_0282,2022-11-30 20:29:11
