success,trial_type,trial_index,time_elapsed,internal_node_id,Block,TrialNumber,TrialTime,trialTimeDiff,FPS_avg,FPS_med,FPS_mode,TrialDur,winResizeTime,rt,block,button_pressed,MotCoh,MotDir,ColCoh,Color,ChoiceKey,Choice,Accuracy,RT,nFrames,FPS,PPD,missTrial,missTrialMsg,onsetDelay,fullScreenExitTime,canvCenter,TrialType,Score,BlockTrial,stimulus,button_labels,exp,subjectId,date
True,fullscreen,0,3446,0.0-0.0,0.0,1.0,,,,,,,,,,,,,,,,,,,,,,,,,,,,,,,,HRV,HRV_0282,2022-11-30 20:53:55
,wl-check-fps,1,8433,0.0-1.0,0.0,2.0,"[4009.2, 4010.4, 4025.4, 4042.6, 4058.5, 4075.2, 4091.8, 4108.4, 4125.3, 4141.8, 4161, 4175, 4191.6, 4208.3, 4224.9, 4241.7, 4258.2, 4275, 4291.6, 4308.2, 4325, 4341.6, 4358.3, 4375, 4391.7, 4408.4, 4425, 4444.9, 4467.2, 4475, 4491.7, 4508.3, 4524.9, 4541.6, 4558.4, 4575.1, 4591.8, 4608.3, 4625.1, 4641.8, 4658.7, 4675.1, 4691.8, 4708.4, 4725.1, 4741.6, 4758.4, 4775, 4791.6, 4808.3, 4825, 4841.8, 4858.8, 4875.1, 4891.8, 4908.3, 4925, 4941.7, 4958.2, 4974.9, 4991.5, 5008.2, 5025, 5041.6, 5058.3, 5074.9, 5091.6, 5108.3, 5125, 5141.6, 5158.3, 5175, 5191.6, 5208.2, 5225, 5241.6, 5258.2, 5275, 5291.6, 5308.3, 5325, 5341.6, 5358.2, 5374.9, 5391.6, 5408.2, 5424.9, 5441.6, 5458.2, 5475, 5491.6, 5508.2, 5525, 5541.6, 5558.3, 5575, 5591.6, 5608.3, 5624.9, 5641.6, 5658.3, 5675, 5691.7, 5708.3, 5724.9, 5741.6, 5758.2, 5775, 5791.7, 5808.5, 5825.2, 5841.9, 5858.5, 5875.5, 5891.8, 5908.5, 5925, 5941.7, 5978.2, 5978.8, 5991.8, 6008.3, 6025, 6041.6, 6058.3, 6074.9, 6091.6, 6108.2, 6125, 6141.7, 6158.3, 6174.9, 6191.7, 6208.3, 6225, 6241.6, 6258.3, 6275, 6291.6, 6308.3, 6325, 6341.6, 6358.2, 6375, 6391.6, 6408.3, 6425, 6441.7, 6458.3, 6475, 6491.6, 6508.3, 6525, 6541.7, 6558.4, 6575.2, 6591.6, 6608.3, 6625.2, 6641.7, 6659.2, 6675, 6691.7, 6708.3, 6725, 6741.7, 6758.3, 6775, 6791.7, 6808.4, 6825, 6841.7, 6858.5, 6875.1, 6891.8, 6908.4, 6930.4, 6958.7, 6959.3, 6975.7, 6991.7, 7008.3, 7025, 7041.6, 7058.5, 7075, 7091.7, 7108.4, 7125, 7141.7, 7158.3, 7175, 7191.6, 7208.3, 7225, 7241.7, 7258.4, 7275, 7291.6, 7308.4, 7325.2, 7341.8, 7358.3, 7375.1, 7391.6, 7408.3, 7425, 7441.6, 7458.3, 7475, 7491.7, 7508.3, 7525, 7541.7, 7558.4, 7575.1, 7591.7, 7608.3, 7625, 7641.7, 7658.4, 7675.1, 7691.9, 7708.6, 7725.2, 7741.8, 7758.7, 7775.3, 7791.9, 7808.4, 7825.2, 7841.7, 7858.6, 7875.3, 7891.9, 7908.4, 7925.2, 7941.7, 7958.4, 7975, 7991.6, 8008.3, 8025, 8041.6, 8058.3, 8075.1, 8091.7, 8108.3, 8125, 8141.7, 8158.3, 8175.1, 8191.7, 8208.3, 8225.2, 8241.7, 8258.3, 8275, 8291.7, 8308.3, 8325.1, 8341.7, 8358.4, 8375, 8391.7, 8408.3, 8425, 8441.7, 8458.3, 8475.1, 8491.7, 8511.1, 8531.7, 8541.7, 8558.4, 8575.2, 8591.7, 8608.3, 8624.9, 8641.7, 8658.4, 8675, 8691.7, 8708.4, 8725.1, 8741.7, 8758.3, 8775, 8791.7, 8808.3, 8825, 8841.7, 8858.6, 8875.1, 8891.7, 8908.4, 8925.1, 8941.7, 8958.3, 8975.1]","[2, 1.2, 15, 17.2, 15.9, 16.7, 16.6, 16.6, 16.9, 16.5, 19.2, 14, 16.6, 16.7, 16.6, 16.8, 16.5, 16.8, 16.6, 16.6, 16.8, 16.6, 16.7, 16.7, 16.7, 16.7, 16.6, 19.9, 22.3, 7.8, 16.7, 16.6, 16.6, 16.7, 16.8, 16.7, 16.7, 16.5, 16.8, 16.7, 16.9, 16.4, 16.7, 16.6, 16.7, 16.5, 16.8, 16.6, 16.6, 16.7, 16.7, 16.8, 17, 16.3, 16.7, 16.5, 16.7, 16.7, 16.5, 16.7, 16.6, 16.7, 16.8, 16.6, 16.7, 16.6, 16.7, 16.7, 16.7, 16.6, 16.7, 16.7, 16.6, 16.6, 16.8, 16.6, 16.6, 16.8, 16.6, 16.7, 16.7, 16.6, 16.6, 16.7, 16.7, 16.6, 16.7, 16.7, 16.6, 16.8, 16.6, 16.6, 16.8, 16.6, 16.7, 16.7, 16.6, 16.7, 16.6, 16.7, 16.7, 16.7, 16.7, 16.6, 16.6, 16.7, 16.6, 16.8, 16.7, 16.8, 16.7, 16.7, 16.6, 17, 16.3, 16.7, 16.5, 16.7, 36.5, 0.6, 13, 16.5, 16.7, 16.6, 16.7, 16.6, 16.7, 16.6, 16.8, 16.7, 16.6, 16.6, 16.8, 16.6, 16.7, 16.6, 16.7, 16.7, 16.6, 16.7, 16.7, 16.6, 16.6, 16.8, 16.6, 16.7, 16.7, 16.7, 16.6, 16.7, 16.6, 16.7, 16.7, 16.7, 16.7, 16.8, 16.4, 16.7, 16.9, 16.5, 17.5, 15.8, 16.7, 16.6, 16.7, 16.7, 16.6, 16.7, 16.7, 16.7, 16.6, 16.7, 16.8, 16.6, 16.7, 16.6, 22, 28.3, 0.6, 16.4, 16, 16.6, 16.7, 16.6, 16.9, 16.5, 16.7, 16.7, 16.6, 16.7, 16.6, 16.7, 16.6, 16.7, 16.7, 16.7, 16.7, 16.6, 16.6, 16.8, 16.8, 16.6, 16.5, 16.8, 16.5, 16.7, 16.7, 16.6, 16.7, 16.7, 16.7, 16.6, 16.7, 16.7, 16.7, 16.7, 16.6, 16.6, 16.7, 16.7, 16.7, 16.7, 16.8, 16.7, 16.6, 16.6, 16.9, 16.6, 16.6, 16.5, 16.8, 16.5, 16.9, 16.7, 16.6, 16.5, 16.8, 16.5, 16.7, 16.6, 16.6, 16.7, 16.7, 16.6, 16.7, 16.8, 16.6, 16.6, 16.7, 16.7, 16.6, 16.8, 16.6, 16.6, 16.9, 16.5, 16.6, 16.7, 16.7, 16.6, 16.8, 16.6, 16.7, 16.6, 16.7, 16.6, 16.7, 16.7, 16.6, 16.8, 16.6, 19.4, 20.6, 10, 16.7, 16.8, 16.5, 16.6, 16.6, 16.8, 16.7, 16.6, 16.7, 16.7, 16.7, 16.6, 16.6, 16.7, 16.7, 16.6, 16.7, 16.7, 16.9, 16.5, 16.6, 16.7, 16.7, 16.6, 16.6, 16.8]",60.0,60.0,60.0,4984.5,[],,,,,,,,,,,,,,,,,,,,,,,,,HRV,HRV_0282,2022-11-30 20:53:55
,wl-html-keyboard-response,2,29173,0.0-2.0-0.0,0.0,3.0,,,,,,,,18722.0,0.0,0,,,,,,,,,,,,,,,,,,,,,,HRV,HRV_0282,2022-11-30 20:53:55
,wl-rdm,3,37350,0.0-3.0-0.0,0.0,4.0,,,,,,,[],,,,0.0,0.0,87.9,0.0,u,0.0,True,2593.5999999046326,156.0,60.0,40.0,False,,3000.0,[],"[960, 540]",ColorTask_Demo,,,,,HRV,HRV_0282,2022-11-30 20:53:55
,wl-rdm,4,42867,0.0-3.0-1.0,0.0,5.0,,,,,,,[],,,,0.0,0.0,87.9,1.0,i,1.0,True,1419.3999999761581,86.0,60.0,40.0,False,,2000.0,[],"[960, 540]",ColorTask_Demo,,,,,HRV,HRV_0282,2022-11-30 20:53:55
,wl-html-keyboard-response,5,50902,0.0-3.0-2.0,0.0,6.0,,,,,,,,6014.400000095367,0.0,1,,,,,,,,,,,,,,,,,,,,,,HRV,HRV_0282,2022-11-30 20:53:55
,wl-html-keyboard-response,6,62521,0.0-4.0-0.0,0.0,7.0,,,,,,,,9614.5,0.0,0,,,,,,,,,,,,,,,,,,,,,,HRV,HRV_0282,2022-11-30 20:53:55
,wl-html-keyboard-response,7,77713,0.0-5.0-0.0,0.0,8.0,,,,,,,,13188.5,0.0,0,,,,,,,,,,,,,,,,,,,,,,HRV,HRV_0282,2022-11-30 20:53:55
,wl-rdm,8,80516,0.0-6.0-0.0,0.0,9.0,,,,,,,[],,,,,,73.6,0.0,u,0.0,True,1440.1000001430511,87.0,60.0,40.0,False,,279.7149319726985,[],"[960, 540]",ColorTask,1.0,1.0,,,HRV,HRV_0282,2022-11-30 20:53:55
,wl-rdm,9,83301,0.0-6.1-0.1,0.0,10.0,,,,,,,[],,,,,,53.2,0.0,i,1.0,False,1499.2000000476837,90.0,60.0,40.0,False,,214.58718938323747,[],"[960, 540]",ColorTask,0.0,2.0,,,HRV,HRV_0282,2022-11-30 20:53:55
,wl-rdm,10,85833,0.0-6.2-0.2,0.0,11.0,,,,,,,[],,,,,,87.9,0.0,u,0.0,True,1101.8000000715256,67.0,60.0,40.0,False,,342.30402469405544,[],"[960, 540]",ColorTask,1.0,3.0,,,HRV,HRV_0282,2022-11-30 20:53:55
,wl-rdm,11,88633,0.0-6.3-0.3,0.0,12.0,,,,,,,[],,,,,,56.4,1.0,i,1.0,True,1418.9000000953674,86.0,60.0,40.0,False,,297.57335492897425,[],"[960, 540]",ColorTask,2.0,4.0,,,HRV,HRV_0282,2022-11-30 20:53:55
,wl-rdm,12,91083,0.0-6.4-0.4,0.0,13.0,,,,,,,[],,,,,,87.9,0.0,u,0.0,True,1131.7000000476837,68.0,60.0,40.0,False,,260.8549909312498,[],"[960, 540]",ColorTask,3.0,5.0,,,HRV,HRV_0282,2022-11-30 20:53:55
,wl-rdm,13,93783,0.0-6.5-0.5,0.0,14.0,,,,,,,[],,,,,,50.0,1.0,i,1.0,True,1236.3000000715256,75.0,60.0,40.0,False,,394.92949077151366,[],"[960, 540]",ColorTask,4.0,6.0,,,HRV,HRV_0282,2022-11-30 20:53:55
,wl-rdm,14,96584,0.0-6.6-0.6,0.0,15.0,,,,,,,[],,,,,,73.6,0.0,u,0.0,True,1361.0,82.0,60.0,40.0,False,,377.03066284460635,[],"[960, 540]",ColorTask,5.0,7.0,,,HRV,HRV_0282,2022-11-30 20:53:55
,wl-rdm,15,99100,0.0-6.7-0.7,0.0,16.0,,,,,,,[],,,,,,56.4,1.0,i,1.0,True,1189.6000000238419,72.0,60.0,40.0,False,,252.13398517366113,[],"[960, 540]",ColorTask,6.0,8.0,,,HRV,HRV_0282,2022-11-30 20:53:55
,wl-rdm,16,101550,0.0-6.8-0.8,0.0,17.0,,,,,,,[],,,,,,73.6,1.0,i,1.0,True,1021.0,62.0,60.0,40.0,False,,349.72418607982405,[],"[960, 540]",ColorTask,7.0,9.0,,,HRV,HRV_0282,2022-11-30 20:53:55
,wl-rdm,17,105201,0.0-6.9-0.9,0.0,18.0,,,,,,,[],,,,,,50.0,0.0,i,1.0,False,2227.7000000476837,134.0,60.0,40.0,False,,348.4419843808418,[],"[960, 540]",ColorTask,6.0,10.0,,,HRV,HRV_0282,2022-11-30 20:53:55
,wl-rdm,18,107884,0.0-6.10-0.10,0.0,19.0,,,,,,,[],,,,,,87.9,0.0,u,0.0,True,1324.6000000238419,80.0,60.0,40.0,False,,268.3452672460153,[],"[960, 540]",ColorTask,7.0,11.0,,,HRV,HRV_0282,2022-11-30 20:53:55
,wl-rdm,19,110717,0.0-6.11-0.11,0.0,20.0,,,,,,,[],,,,,,53.2,1.0,i,1.0,True,1464.6000000238419,88.0,60.0,40.0,False,,284.276490194219,[],"[960, 540]",ColorTask,8.0,12.0,,,HRV,HRV_0282,2022-11-30 20:53:55
,wl-rdm,20,113684,0.0-6.12-0.12,0.0,21.0,,,,,,,[],,,,,,56.4,0.0,u,0.0,True,1690.2000000476837,102.0,60.0,40.0,False,,214.41278306705613,[],"[960, 540]",ColorTask,9.0,13.0,,,HRV,HRV_0282,2022-11-30 20:53:55
,wl-rdm,21,116284,0.0-6.13-0.13,0.0,22.0,,,,,,,[],,,,,,73.6,0.0,u,0.0,True,1286.8999999761581,78.0,60.0,40.0,False,,211.35959227258306,[],"[960, 540]",ColorTask,10.0,14.0,,,HRV,HRV_0282,2022-11-30 20:53:55
,wl-rdm,22,118918,0.0-6.14-0.14,0.0,23.0,,,,,,,[],,,,,,53.2,1.0,i,1.0,True,1197.0999999046326,72.0,60.0,40.0,False,,369.13452874203625,[],"[960, 540]",ColorTask,11.0,15.0,,,HRV,HRV_0282,2022-11-30 20:53:55
,wl-rdm,23,121920,0.0-6.15-0.15,0.0,24.0,,,,,,,[],,,,,,62.5,0.0,u,0.0,True,1564.799999833107,94.0,60.0,40.0,False,,353.0660483291929,[],"[960, 540]",ColorTask,12.0,16.0,,,HRV,HRV_0282,2022-11-30 20:53:55
,wl-rdm,24,124684,0.0-6.16-0.16,0.0,25.0,,,,,,,[],,,,,,53.2,0.0,i,1.0,False,1465.7000000476837,88.0,60.0,40.0,False,,229.86522311173223,[],"[960, 540]",ColorTask,11.0,17.0,,,HRV,HRV_0282,2022-11-30 20:53:55
,wl-rdm,25,126884,0.0-6.17-0.17,0.0,26.0,,,,,,,[],,,,,,87.9,1.0,i,1.0,True,873.6000000238419,52.0,60.0,40.0,False,,266.5676233666196,[],"[960, 540]",ColorTask,12.0,18.0,,,HRV,HRV_0282,2022-11-30 20:53:55
,wl-rdm,26,129601,0.0-6.18-0.18,0.0,27.0,,,,,,,[],,,,,,73.6,1.0,i,1.0,True,1320.5,80.0,60.0,40.0,False,,309.5348490384852,[],"[960, 540]",ColorTask,13.0,19.0,,,HRV,HRV_0282,2022-11-30 20:53:55
,wl-rdm,27,131901,0.0-6.19-0.19,0.0,28.0,,,,,,,[],,,,,,73.6,1.0,i,1.0,True,963.9000000953674,58.0,60.0,40.0,False,,273.28597657151477,[],"[960, 540]",ColorTask,14.0,20.0,,,HRV,HRV_0282,2022-11-30 20:53:55
,wl-rdm,28,134184,0.0-6.20-0.20,0.0,29.0,,,,,,,[],,,,,,87.9,0.0,u,0.0,True,903.3999999761581,55.0,60.0,40.0,False,,283.67946649997594,[],"[960, 540]",ColorTask,15.0,21.0,,,HRV,HRV_0282,2022-11-30 20:53:55
,wl-rdm,29,137784,0.0-6.21-0.21,0.0,30.0,,,,,,,[],,,,,,62.5,1.0,i,1.0,True,2220.0999999046326,134.0,60.0,40.0,False,,285.24246354922934,[],"[960, 540]",ColorTask,16.0,22.0,,,HRV,HRV_0282,2022-11-30 20:53:55
,wl-rdm,30,141435,0.0-6.22-0.22,0.0,31.0,,,,,,,[],,,,,,53.2,0.0,i,1.0,False,2319.2999999523163,140.0,60.0,40.0,False,,255.0801644004535,[],"[960, 540]",ColorTask,15.0,23.0,,,HRV,HRV_0282,2022-11-30 20:53:55
,wl-rdm,31,144851,0.0-6.23-0.23,0.0,32.0,,,,,,,[],,,,,,50.0,0.0,u,0.0,True,2003.1000000238419,121.0,60.0,40.0,False,,317.59130605738005,[],"[960, 540]",ColorTask,16.0,24.0,,,HRV,HRV_0282,2022-11-30 20:53:55
,wl-rdm,32,147401,0.0-6.24-0.24,0.0,33.0,,,,,,,[],,,,,,73.6,0.0,u,0.0,True,1236.5,75.0,60.0,40.0,False,,221.22389527076774,[],"[960, 540]",ColorTask,17.0,25.0,,,HRV,HRV_0282,2022-11-30 20:53:55
,wl-rdm,33,150568,0.0-6.25-0.25,0.0,34.0,,,,,,,[],,,,,,50.0,1.0,i,1.0,True,1803.5999999046326,109.0,60.0,40.0,False,,274.7909725079097,[],"[960, 540]",ColorTask,18.0,26.0,,,HRV,HRV_0282,2022-11-30 20:53:55
,wl-rdm,34,153085,0.0-6.26-0.26,0.0,35.0,,,,,,,[],,,,,,73.6,1.0,i,1.0,True,1239.7999999523163,75.0,60.0,40.0,False,,203.56372234085643,[],"[960, 540]",ColorTask,19.0,27.0,,,HRV,HRV_0282,2022-11-30 20:53:55
,wl-rdm,35,155901,0.0-6.27-0.27,0.0,36.0,,,,,,,[],,,,,,50.0,0.0,i,1.0,False,1364.0,82.0,60.0,40.0,False,,393.46860111831097,[],"[960, 540]",ColorTask,18.0,28.0,,,HRV,HRV_0282,2022-11-30 20:53:55
,wl-rdm,36,159551,0.0-6.28-0.28,0.0,37.0,,,,,,,[],,,,,,50.0,1.0,u,0.0,False,2295.5,138.0,60.0,40.0,False,,278.8805820045445,[],"[960, 540]",ColorTask,17.0,29.0,,,HRV,HRV_0282,2022-11-30 20:53:55
,wl-rdm,37,162185,0.0-6.29-0.29,0.0,38.0,,,,,,,[],,,,,,87.9,0.0,u,0.0,True,1360.0999999046326,82.0,60.0,40.0,False,,204.40346841570354,[],"[960, 540]",ColorTask,18.0,30.0,,,HRV,HRV_0282,2022-11-30 20:53:55
,wl-rdm,38,165018,0.0-6.30-0.30,0.0,39.0,,,,,,,[],,,,,,53.2,0.0,i,1.0,False,1485.2999999523163,90.0,60.0,40.0,False,,275.744061413529,[],"[960, 540]",ColorTask,17.0,31.0,,,HRV,HRV_0282,2022-11-30 20:53:55
,wl-rdm,39,168870,0.0-6.31-0.31,0.0,40.0,,,,,,,[],,,,,,50.0,1.0,i,1.0,True,2524.7000000476837,152.0,60.0,40.0,False,,242.69605319486675,[],"[960, 540]",ColorTask,18.0,32.0,,,HRV,HRV_0282,2022-11-30 20:53:55
,wl-rdm,40,172502,0.0-6.32-0.32,0.0,41.0,,,,,,,[],,,,,,50.0,0.0,i,1.0,False,2189.100000023842,132.0,60.0,40.0,False,,359.08669084814983,[],"[960, 540]",ColorTask,17.0,33.0,,,HRV,HRV_0282,2022-11-30 20:53:55
,wl-rdm,41,176218,0.0-6.33-0.33,0.0,42.0,,,,,,,[],,,,,,53.2,0.0,u,0.0,True,2309.9000000953674,139.0,60.0,40.0,False,,331.49593289480134,[],"[960, 540]",ColorTask,18.0,34.0,,,HRV,HRV_0282,2022-11-30 20:53:55
,wl-rdm,42,180268,0.0-6.34-0.34,0.0,43.0,,,,,,,[],,,,,,50.0,1.0,u,0.0,False,2748.6999999284744,165.0,60.0,40.0,False,,224.78837472520883,[],"[960, 540]",ColorTask,17.0,35.0,,,HRV,HRV_0282,2022-11-30 20:53:55
,wl-rdm,43,183635,0.0-6.35-0.35,0.0,44.0,,,,,,,[],,,,,,56.4,1.0,i,1.0,True,1958.6000000238419,118.0,60.0,40.0,False,,317.67123100200655,[],"[960, 540]",ColorTask,18.0,36.0,,,HRV,HRV_0282,2022-11-30 20:53:55
,wl-rdm,44,186435,0.0-6.36-0.36,0.0,45.0,,,,,,,[],,,,,,87.9,1.0,i,1.0,True,1403.1000000238419,85.0,60.0,40.0,False,,306.1613633164079,[],"[960, 540]",ColorTask,19.0,37.0,,,HRV,HRV_0282,2022-11-30 20:53:55
,wl-rdm,45,189368,0.0-6.37-0.37,0.0,46.0,,,,,,,[],,,,,,53.2,1.0,i,1.0,True,1453.7999999523163,88.0,60.0,40.0,False,,383.8970775864884,[],"[960, 540]",ColorTask,20.0,38.0,,,HRV,HRV_0282,2022-11-30 20:53:55
,wl-rdm,46,191919,0.0-6.38-0.38,0.0,47.0,,,,,,,[],,,,,,87.9,0.0,u,0.0,True,1180.3000000715256,71.0,60.0,40.0,False,,283.64205111169326,[],"[960, 540]",ColorTask,21.0,39.0,,,HRV,HRV_0282,2022-11-30 20:53:55
,wl-rdm,47,194519,0.0-6.39-0.39,0.0,48.0,,,,,,,[],,,,,,62.5,1.0,i,1.0,True,1171.0999999046326,71.0,60.0,40.0,False,,354.5497595860047,[],"[960, 540]",ColorTask,22.0,40.0,,,HRV,HRV_0282,2022-11-30 20:53:55
,wl-rdm,48,197185,0.0-6.40-0.40,0.0,49.0,,,,,,,[],,,,,,50.0,1.0,u,0.0,False,1327.5999999046326,80.0,60.0,40.0,False,,256.2303120453448,[],"[960, 540]",ColorTask,21.0,41.0,,,HRV,HRV_0282,2022-11-30 20:53:55
,wl-rdm,49,200552,0.0-6.41-0.41,0.0,50.0,,,,,,,[],,,,,,62.5,0.0,u,0.0,True,1903.6000000238419,115.0,60.0,40.0,False,,374.9993372888267,[],"[960, 540]",ColorTask,22.0,42.0,,,HRV,HRV_0282,2022-11-30 20:53:55
,wl-rdm,50,204602,0.0-6.42-0.42,0.0,51.0,,,,,,,[],,,,,,56.4,0.0,i,1.0,False,2709.5,163.0,60.0,40.0,False,,280.5908077833923,[],"[960, 540]",ColorTask,21.0,43.0,,,HRV,HRV_0282,2022-11-30 20:53:55
,wl-rdm,51,207935,0.0-6.43-0.43,0.0,52.0,,,,,,,[],,,,,,53.2,1.0,u,0.0,False,1979.0999999046326,119.0,60.0,40.0,False,,275.42409702906514,[],"[960, 540]",ColorTask,20.0,44.0,,,HRV,HRV_0282,2022-11-30 20:53:55
,wl-rdm,52,210302,0.0-6.44-0.44,0.0,53.0,,,,,,,[],,,,,,87.9,1.0,i,1.0,True,922.7999999523163,56.0,60.0,40.0,False,,357.97635107686295,[],"[960, 540]",ColorTask,21.0,45.0,,,HRV,HRV_0282,2022-11-30 20:53:55
,wl-rdm,53,213485,0.0-6.45-0.45,0.0,54.0,,,,,,,[],,,,,,50.0,0.0,u,0.0,True,1815.7000000476837,109.0,60.0,40.0,False,,290.41949584820145,[],"[960, 540]",ColorTask,22.0,46.0,,,HRV,HRV_0282,2022-11-30 20:53:55
,wl-rdm,54,216452,0.0-6.46-0.46,0.0,55.0,,,,,,,[],,,,,,62.5,1.0,i,1.0,True,1624.5,98.0,60.0,40.0,False,,258.548178797609,[],"[960, 540]",ColorTask,23.0,47.0,,,HRV,HRV_0282,2022-11-30 20:53:55
,wl-rdm,55,219552,0.0-6.47-0.47,0.0,56.0,,,,,,,[],,,,,,56.4,1.0,i,1.0,True,1694.1999999284744,102.0,60.0,40.0,False,,337.4774364858066,[],"[960, 540]",ColorTask,24.0,48.0,,,HRV,HRV_0282,2022-11-30 20:53:55
,wl-rdm,56,222302,0.0-6.48-0.48,0.0,57.0,,,,,,,[],,,,,,62.5,0.0,u,0.0,True,1438.7999999523163,87.0,60.0,40.0,False,,224.39294643772104,[],"[960, 540]",ColorTask,25.0,49.0,,,HRV,HRV_0282,2022-11-30 20:53:55
,wl-rdm,57,225585,0.0-6.49-0.49,0.0,58.0,,,,,,,[],,,,,,53.2,0.0,u,0.0,True,1843.5,111.0,60.0,40.0,False,,364.4975419471468,[],"[960, 540]",ColorTask,26.0,50.0,,,HRV,HRV_0282,2022-11-30 20:53:55
,wl-rdm,58,229052,0.0-6.50-0.50,0.0,59.0,,,,,,,[],,,,,,53.2,1.0,i,1.0,True,2151.3000000715256,130.0,60.0,40.0,False,,233.4657819155051,[],"[960, 540]",ColorTask,27.0,51.0,,,HRV,HRV_0282,2022-11-30 20:53:55
,wl-rdm,59,231802,0.0-6.51-0.51,0.0,60.0,,,,,,,[],,,,,,62.5,0.0,u,0.0,True,1334.8999999761581,81.0,60.0,40.0,False,,328.2846586499647,[],"[960, 540]",ColorTask,28.0,52.0,,,HRV,HRV_0282,2022-11-30 20:53:55
,wl-rdm,60,234768,0.0-6.52-0.52,0.0,61.0,,,,,,,[],,,,,,62.5,0.0,u,0.0,True,1504.0999999046326,91.0,60.0,40.0,False,,370.74230646073954,[],"[960, 540]",ColorTask,29.0,53.0,,,HRV,HRV_0282,2022-11-30 20:53:55
,wl-rdm,61,237402,0.0-6.53-0.53,0.0,62.0,,,,,,,[],,,,,,50.0,0.0,i,1.0,False,1243.2000000476837,75.0,60.0,40.0,False,,301.69898736227555,[],"[960, 540]",ColorTask,28.0,54.0,,,HRV,HRV_0282,2022-11-30 20:53:55
,wl-rdm,62,239918,0.0-6.54-0.54,0.0,63.0,,,,,,,[],,,,,,56.4,1.0,i,1.0,True,1045.8999999761581,63.0,60.0,40.0,False,,397.8070183227514,[],"[960, 540]",ColorTask,29.0,55.0,,,HRV,HRV_0282,2022-11-30 20:53:55
,wl-rdm,63,242285,0.0-6.55-0.55,0.0,64.0,,,,,,,[],,,,,,87.9,1.0,i,1.0,True,964.2000000476837,58.0,60.0,40.0,False,,321.1251559027105,[],"[960, 540]",ColorTask,30.0,56.0,,,HRV,HRV_0282,2022-11-30 20:53:55
,wl-rdm,64,244869,0.0-6.56-0.56,0.0,65.0,,,,,,,[],,,,,,73.6,0.0,u,0.0,True,1131.1000000238419,68.0,60.0,40.0,False,,396.47396318890253,[],"[960, 540]",ColorTask,31.0,57.0,,,HRV,HRV_0282,2022-11-30 20:53:55
,wl-rdm,65,248235,0.0-6.57-0.57,0.0,66.0,,,,,,,[],,,,,,56.4,1.0,i,1.0,True,2048.5,123.0,60.0,40.0,False,,257.6370526807461,[],"[960, 540]",ColorTask,32.0,58.0,,,HRV,HRV_0282,2022-11-30 20:53:55
,wl-rdm,66,251269,0.0-6.58-0.58,0.0,67.0,,,,,,,[],,,,,,53.2,0.0,i,1.0,False,1573.7999999523163,95.0,60.0,40.0,False,,379.86242504205046,[],"[960, 540]",ColorTask,31.0,59.0,,,HRV,HRV_0282,2022-11-30 20:53:55
,wl-rdm,67,254002,0.0-6.59-0.59,0.0,68.0,,,,,,,[],,,,,,73.6,0.0,u,0.0,True,1291.8999999761581,77.0,60.0,40.0,False,,373.16193195609486,[],"[960, 540]",ColorTask,32.0,60.0,,,HRV,HRV_0282,2022-11-30 20:53:55
,wl-rdm,68,256886,0.0-6.60-0.60,0.0,69.0,,,,,,,[],,,,,,56.4,0.0,u,0.0,True,1496.1999999284744,90.0,60.0,40.0,False,,323.30986653465004,[],"[960, 540]",ColorTask,33.0,61.0,,,HRV,HRV_0282,2022-11-30 20:53:55
,wl-rdm,69,259819,0.0-6.61-0.61,0.0,70.0,,,,,,,[],,,,,,53.2,1.0,i,1.0,True,1574.5,95.0,60.0,40.0,False,,286.6711460776772,[],"[960, 540]",ColorTask,34.0,62.0,,,HRV,HRV_0282,2022-11-30 20:53:55
,wl-rdm,70,262269,0.0-6.62-0.62,0.0,71.0,,,,,,,[],,,,,,62.5,1.0,i,1.0,True,1030.7999999523163,62.0,60.0,40.0,False,,359.6682865400687,[],"[960, 540]",ColorTask,35.0,63.0,,,HRV,HRV_0282,2022-11-30 20:53:55
,wl-rdm,71,264619,0.0-6.63-0.63,0.0,72.0,,,,,,,[],,,,,,87.9,1.0,i,1.0,True,919.0000001192093,56.0,60.0,40.0,False,,348.07146341875404,[],"[960, 540]",ColorTask,36.0,64.0,,,HRV,HRV_0282,2022-11-30 20:53:55
,wl-rdm,72,267302,0.0-6.64-0.64,0.0,73.0,,,,,,,[],,,,,,56.4,1.0,i,1.0,True,1288.3999998569489,78.0,60.0,40.0,False,,302.1136608526292,[],"[960, 540]",ColorTask,37.0,65.0,,,HRV,HRV_0282,2022-11-30 20:53:55
,wl-rdm,73,270386,0.0-6.65-0.65,0.0,74.0,,,,,,,[],,,,,,56.4,0.0,u,0.0,True,1777.3999999761581,107.0,60.0,40.0,False,,226.06037500493764,[],"[960, 540]",ColorTask,38.0,66.0,,,HRV,HRV_0282,2022-11-30 20:53:55
,wl-rdm,74,273636,0.0-6.66-0.66,0.0,75.0,,,,,,,[],,,,,,62.5,0.0,u,0.0,True,1907.2000000476837,115.0,60.0,40.0,False,,274.3279479435404,[],"[960, 540]",ColorTask,39.0,67.0,,,HRV,HRV_0282,2022-11-30 20:53:55
,wl-rdm,75,276819,0.0-6.67-0.67,0.0,76.0,,,,,,,[],,,,,,56.4,1.0,u,0.0,False,1749.2999999523163,105.0,60.0,40.0,False,,356.63737503897664,[],"[960, 540]",ColorTask,38.0,68.0,,,HRV,HRV_0282,2022-11-30 20:53:55
,wl-rdm,76,279319,0.0-6.68-0.68,0.0,77.0,,,,,,,[],,,,,,53.2,0.0,i,1.0,False,1179.3000000715256,71.0,60.0,40.0,False,,244.90973039299834,[],"[960, 540]",ColorTask,37.0,69.0,,,HRV,HRV_0282,2022-11-30 20:53:55
,wl-rdm,77,281519,0.0-6.69-0.69,0.0,78.0,,,,,,,[],,,,,,87.9,0.0,u,0.0,True,821.0999999046326,50.0,60.0,40.0,False,,288.7165521145282,[],"[960, 540]",ColorTask,38.0,70.0,,,HRV,HRV_0282,2022-11-30 20:53:55
,wl-rdm,78,283903,0.0-6.70-0.70,0.0,79.0,,,,,,,[],,,,,,62.5,1.0,i,1.0,True,995.3000000715256,60.0,60.0,40.0,False,,322.852049548453,[],"[960, 540]",ColorTask,39.0,71.0,,,HRV,HRV_0282,2022-11-30 20:53:55
,wl-rdm,79,286486,0.0-6.71-0.71,0.0,80.0,,,,,,,[],,,,,,62.5,1.0,i,1.0,True,1246.8999999761581,75.0,60.0,40.0,False,,265.45558424337247,[],"[960, 540]",ColorTask,40.0,72.0,,,HRV,HRV_0282,2022-11-30 20:53:55
,wl-rdm,80,288887,0.0-6.72-0.72,0.0,81.0,,,,,,,[],,,,,,87.9,0.0,u,0.0,True,964.4999998807907,58.0,60.0,40.0,False,,362.37286467465515,[],"[960, 540]",ColorTask,41.0,73.0,,,HRV,HRV_0282,2022-11-30 20:53:55
,wl-rdm,81,291520,0.0-6.73-0.73,0.0,82.0,,,,,,,[],,,,,,56.4,0.0,u,0.0,True,1219.7000000476837,74.0,60.0,40.0,False,,346.7796659466576,[],"[960, 540]",ColorTask,42.0,74.0,,,HRV,HRV_0282,2022-11-30 20:53:55
,wl-rdm,82,293953,0.0-6.74-0.74,0.0,83.0,,,,,,,[],,,,,,50.0,1.0,u,0.0,False,1099.0,66.0,60.0,40.0,False,,257.22869688887823,[],"[960, 540]",ColorTask,41.0,75.0,,,HRV,HRV_0282,2022-11-30 20:53:55
,wl-rdm,83,296103,0.0-6.75-0.75,0.0,84.0,,,,,,,[],,,,,,53.2,1.0,i,1.0,True,821.5,50.0,60.0,40.0,False,,248.99845209958417,[],"[960, 540]",ColorTask,42.0,76.0,,,HRV,HRV_0282,2022-11-30 20:53:55
,wl-rdm,84,298670,0.0-6.76-0.76,0.0,85.0,,,,,,,[],,,,,,53.2,0.0,u,0.0,True,1172.0,71.0,60.0,40.0,False,,317.51264485317483,[],"[960, 540]",ColorTask,43.0,77.0,,,HRV,HRV_0282,2022-11-30 20:53:55
,wl-rdm,85,301736,0.0-6.77-0.77,0.0,86.0,,,,,,,[],,,,,,56.4,0.0,i,1.0,False,1678.1999999284744,101.0,60.0,40.0,False,,310.059711082488,[],"[960, 540]",ColorTask,42.0,78.0,,,HRV,HRV_0282,2022-11-30 20:53:55
,wl-rdm,86,304670,0.0-6.78-0.78,0.0,87.0,,,,,,,[],,,,,,53.2,1.0,u,0.0,False,1589.0,96.0,60.0,40.0,False,,266.8087785957534,[],"[960, 540]",ColorTask,41.0,79.0,,,HRV,HRV_0282,2022-11-30 20:53:55
,wl-rdm,87,308303,0.0-6.79-0.79,0.0,88.0,,,,,,,[],,,,,,62.5,0.0,u,0.0,True,2246.5,135.0,60.0,40.0,False,,305.11204286295094,[],"[960, 540]",ColorTask,42.0,80.0,,,HRV,HRV_0282,2022-11-30 20:53:55
,wl-rdm,88,310654,0.0-6.80-0.80,0.0,89.0,,,,,,,[],,,,,,62.5,1.0,i,1.0,True,1073.6000000238419,65.0,60.0,40.0,False,,208.92087348671598,[],"[960, 540]",ColorTask,43.0,81.0,,,HRV,HRV_0282,2022-11-30 20:53:55
,wl-rdm,89,312720,0.0-6.81-0.81,0.0,90.0,,,,,,,[],,,,,,87.9,1.0,i,1.0,True,786.7000000476837,48.0,60.0,40.0,False,,213.88653932272558,[],"[960, 540]",ColorTask,44.0,82.0,,,HRV,HRV_0282,2022-11-30 20:53:55
,wl-rdm,90,314970,0.0-6.82-0.82,0.0,91.0,,,,,,,[],,,,,,73.6,1.0,i,1.0,True,792.9000000953674,48.0,60.0,40.0,False,,383.6733278317832,[],"[960, 540]",ColorTask,45.0,83.0,,,HRV,HRV_0282,2022-11-30 20:53:55
,wl-rdm,91,317337,0.0-6.83-0.83,0.0,92.0,,,,,,,[],,,,,,87.9,0.0,u,0.0,True,969.1000000238419,59.0,60.0,40.0,False,,323.96660094021985,[],"[960, 540]",ColorTask,46.0,84.0,,,HRV,HRV_0282,2022-11-30 20:53:55
,wl-rdm,92,319654,0.0-6.84-0.84,0.0,93.0,,,,,,,[],,,,,,53.2,1.0,i,1.0,True,989.0,60.0,60.0,40.0,False,,260.92720410029193,[],"[960, 540]",ColorTask,47.0,85.0,,,HRV,HRV_0282,2022-11-30 20:53:55
,wl-rdm,93,321987,0.0-6.85-0.85,0.0,94.0,,,,,,,[],,,,,,73.6,0.0,u,0.0,True,891.8000000715256,54.0,60.0,40.0,False,,373.5530831886591,[],"[960, 540]",ColorTask,48.0,86.0,,,HRV,HRV_0282,2022-11-30 20:53:55
,wl-rdm,94,324570,0.0-6.86-0.86,0.0,95.0,,,,,,,[],,,,,,56.4,0.0,u,0.0,True,1168.0,71.0,60.0,40.0,False,,341.8620709156202,[],"[960, 540]",ColorTask,49.0,87.0,,,HRV,HRV_0282,2022-11-30 20:53:55
,wl-rdm,95,326937,0.0-6.87-0.87,0.0,96.0,,,,,,,[],,,,,,73.6,0.0,u,0.0,True,927.2000000476837,56.0,60.0,40.0,False,,368.7881780959645,[],"[960, 540]",ColorTask,50.0,88.0,,,HRV,HRV_0282,2022-11-30 20:53:55
,wl-rdm,96,329237,0.0-6.88-0.88,0.0,97.0,,,,,,,[],,,,,,73.6,0.0,u,0.0,True,958.1000000238419,58.0,60.0,40.0,False,,250.60712201833695,[],"[960, 540]",ColorTask,51.0,89.0,,,HRV,HRV_0282,2022-11-30 20:53:55
,wl-rdm,97,331304,0.0-6.89-0.89,0.0,98.0,,,,,,,[],,,,,,87.9,1.0,i,1.0,True,724.0,44.0,60.0,40.0,False,,258.5803247309267,[],"[960, 540]",ColorTask,52.0,90.0,,,HRV,HRV_0282,2022-11-30 20:53:55
,wl-rdm,98,333854,0.0-6.90-0.90,0.0,99.0,,,,,,,[],,,,,,62.5,1.0,i,1.0,True,1231.0,74.0,60.0,40.0,False,,240.30654144335955,[],"[960, 540]",ColorTask,53.0,91.0,,,HRV,HRV_0282,2022-11-30 20:53:55
,wl-rdm,99,336170,0.0-6.91-0.91,0.0,100.0,,,,,,,[],,,,,,73.6,1.0,i,1.0,True,976.2000000476837,59.0,60.0,40.0,False,,261.37654032007873,[],"[960, 540]",ColorTask,54.0,92.0,,,HRV,HRV_0282,2022-11-30 20:53:55
,wl-rdm,100,338437,0.0-6.92-0.92,0.0,101.0,,,,,,,[],,,,,,50.0,1.0,i,1.0,True,973.3999999761581,59.0,60.0,40.0,False,,230.03677963732872,[],"[960, 540]",ColorTask,55.0,93.0,,,HRV,HRV_0282,2022-11-30 20:53:55
,wl-rdm,101,340404,0.0-6.93-0.93,0.0,102.0,,,,,,,[],,,,,,87.9,1.0,i,1.0,True,667.6999999284744,41.0,60.0,40.0,False,,204.5211788889037,[],"[960, 540]",ColorTask,56.0,94.0,,,HRV,HRV_0282,2022-11-30 20:53:55
,wl-rdm,102,342520,0.0-6.94-0.94,0.0,103.0,,,,,,,[],,,,,,62.5,1.0,i,1.0,True,719.8000000715256,44.0,60.0,40.0,False,,328.0629387017134,[],"[960, 540]",ColorTask,57.0,95.0,,,HRV,HRV_0282,2022-11-30 20:53:55
,wl-rdm,103,346103,0.0-6.95-0.95,0.0,104.0,,,,,,,[],,,,,,50.0,0.0,i,1.0,False,2203.5,133.0,60.0,40.0,False,,301.8494022050993,[],"[960, 540]",ColorTask,56.0,96.0,,,HRV,HRV_0282,2022-11-30 20:53:55
,wl-rdm,104,349120,0.0-6.96-0.96,0.0,105.0,,,,,,,[],,,,,,50.0,1.0,i,1.0,True,1637.3999999761581,99.0,60.0,40.0,False,,291.86473495251846,[],"[960, 540]",ColorTask,57.0,97.0,,,HRV,HRV_0282,2022-11-30 20:53:55
,wl-rdm,105,351203,0.0-6.97-0.97,0.0,106.0,,,,,,,[],,,,,,73.6,1.0,i,1.0,True,732.8000000715256,44.0,60.0,40.0,False,,271.9939551341897,[],"[960, 540]",ColorTask,58.0,98.0,,,HRV,HRV_0282,2022-11-30 20:53:55
,wl-rdm,106,353470,0.0-6.98-0.98,0.0,107.0,,,,,,,[],,,,,,73.6,1.0,i,1.0,True,855.5999999046326,52.0,60.0,40.0,False,,317.06893114950924,[],"[960, 540]",ColorTask,59.0,99.0,,,HRV,HRV_0282,2022-11-30 20:53:55
,wl-rdm,107,355720,0.0-6.99-0.99,0.0,108.0,,,,,,,[],,,,,,56.4,1.0,i,1.0,True,872.8999999761581,52.0,60.0,40.0,False,,310.96954541821225,[],"[960, 540]",ColorTask,60.0,100.0,,,HRV,HRV_0282,2022-11-30 20:53:55
,wl-rdm,108,358103,0.0-6.100-0.100,0.0,109.0,,,,,,,[],,,,,,50.0,0.0,i,1.0,False,962.2000000476837,58.0,60.0,40.0,False,,337.57200501703005,[],"[960, 540]",ColorTask,59.0,101.0,,,HRV,HRV_0282,2022-11-30 20:53:55
,wl-rdm,109,360504,0.0-6.101-0.101,0.0,110.0,,,,,,,[],,,,,,56.4,0.0,u,0.0,True,1078.1999999284744,65.0,60.0,40.0,False,,256.46928404282465,[],"[960, 540]",ColorTask,60.0,102.0,,,HRV,HRV_0282,2022-11-30 20:53:55
,wl-rdm,110,362608,0.0-6.102-0.102,0.0,111.0,,,,,,,[],,,,,,73.6,1.0,i,1.0,True,749.0999999046326,45.0,60.0,40.0,False,,284.31108004825484,[],"[960, 540]",ColorTask,61.0,103.0,,,HRV,HRV_0282,2022-11-30 20:53:55
,wl-rdm,111,365170,0.0-6.103-0.103,0.0,112.0,,,,,,,[],,,,,,56.4,0.0,u,0.0,True,1120.2000000476837,68.0,60.0,40.0,False,,351.8911076220684,[],"[960, 540]",ColorTask,62.0,104.0,,,HRV,HRV_0282,2022-11-30 20:53:55
,wl-rdm,112,367337,0.0-6.104-0.104,0.0,113.0,,,,,,,[],,,,,,87.9,1.0,i,1.0,True,838.3000000715256,51.0,60.0,40.0,False,,240.82186795528926,[],"[960, 540]",ColorTask,63.0,105.0,,,HRV,HRV_0282,2022-11-30 20:53:55
,wl-rdm,113,369971,0.0-6.105-0.105,0.0,114.0,,,,,,,[],,,,,,62.5,0.0,u,0.0,True,1258.7000000476837,76.0,60.0,40.0,False,,304.7463304373306,[],"[960, 540]",ColorTask,64.0,106.0,,,HRV,HRV_0282,2022-11-30 20:53:55
,wl-rdm,114,373087,0.0-6.106-0.106,0.0,115.0,,,,,,,[],,,,,,62.5,0.0,u,0.0,True,1745.2999999523163,105.0,60.0,40.0,False,,308.14503570516575,[],"[960, 540]",ColorTask,65.0,107.0,,,HRV,HRV_0282,2022-11-30 20:53:55
,wl-rdm,115,377072,0.0-6.107-0.107,0.0,116.0,,,,,,,[],,,,,,50.0,0.0,i,1.0,False,2564.4000000953674,154.0,60.0,40.0,False,,335.58602045360124,[],"[960, 540]",ColorTask,64.0,108.0,,,HRV,HRV_0282,2022-11-30 20:53:55
,wl-html-keyboard-response,116,386326,0.0-7.0-0.0,1.0,117.0,,,,,,,,7236.200000047684,1.0,0,,,,,,,,,,,,,,,,,,,,,,HRV,HRV_0282,2022-11-30 20:53:55
,wl-rdm,117,388470,0.0-8.0-0.0,1.0,118.0,,,,,,,[],,,,,,87.9,0.0,u,0.0,True,829.8000000715256,50.0,60.0,40.0,False,,235.35907739436138,[],"[960, 540]",ColorTask,65.0,1.0,,,HRV,HRV_0282,2022-11-30 20:53:55
,wl-rdm,118,390621,0.0-8.1-0.1,1.0,119.0,,,,,,,[],,,,,,73.6,1.0,i,1.0,True,782.1000000238419,47.0,60.0,40.0,False,,292.6109477713784,[],"[960, 540]",ColorTask,66.0,2.0,,,HRV,HRV_0282,2022-11-30 20:53:55
,wl-rdm,119,392687,0.0-8.2-0.2,1.0,120.0,,,,,,,[],,,,,,87.9,1.0,i,1.0,True,737.0,45.0,60.0,40.0,False,,265.8835632187407,[],"[960, 540]",ColorTask,67.0,3.0,,,HRV,HRV_0282,2022-11-30 20:53:55
,wl-rdm,120,395037,0.0-8.3-0.3,1.0,121.0,,,,,,,[],,,,,,73.6,0.0,u,0.0,True,949.4000000953674,57.0,60.0,40.0,False,,326.8539932213732,[],"[960, 540]",ColorTask,68.0,4.0,,,HRV,HRV_0282,2022-11-30 20:53:55
,wl-rdm,121,397254,0.0-8.4-0.4,1.0,122.0,,,,,,,[],,,,,,62.5,1.0,i,1.0,True,747.2999999523163,45.0,60.0,40.0,False,,387.4599809341458,[],"[960, 540]",ColorTask,69.0,5.0,,,HRV,HRV_0282,2022-11-30 20:53:55
,wl-rdm,122,399471,0.0-8.5-0.5,1.0,123.0,,,,,,,[],,,,,,73.6,1.0,i,1.0,True,845.1000000238419,52.0,60.0,40.0,False,,284.5602772658988,[],"[960, 540]",ColorTask,70.0,6.0,,,HRV,HRV_0282,2022-11-30 20:53:55
,wl-rdm,123,401787,0.0-8.6-0.6,1.0,124.0,,,,,,,[],,,,,,62.5,1.0,i,1.0,True,957.5,58.0,60.0,40.0,False,,283.5295938588403,[],"[960, 540]",ColorTask,71.0,7.0,,,HRV,HRV_0282,2022-11-30 20:53:55
,wl-rdm,124,404087,0.0-8.7-0.7,1.0,125.0,,,,,,,[],,,,,,87.9,1.0,i,1.0,True,845.6000000238419,51.0,60.0,40.0,False,,379.4536309812142,[],"[960, 540]",ColorTask,72.0,8.0,,,HRV,HRV_0282,2022-11-30 20:53:55
,wl-rdm,125,406338,0.0-8.8-0.8,1.0,126.0,,,,,,,[],,,,,,53.2,0.0,u,0.0,True,959.5,58.0,60.0,40.0,False,,233.18916223504007,[],"[960, 540]",ColorTask,73.0,9.0,,,HRV,HRV_0282,2022-11-30 20:53:55
,wl-rdm,126,408621,0.0-8.9-0.9,1.0,127.0,,,,,,,[],,,,,,56.4,1.0,i,1.0,True,998.6000000238419,60.0,60.0,40.0,False,,203.653247706631,[],"[960, 540]",ColorTask,74.0,10.0,,,HRV,HRV_0282,2022-11-30 20:53:55
,wl-rdm,127,411137,0.0-8.10-0.10,1.0,128.0,,,,,,,[],,,,,,50.0,0.0,i,1.0,False,1069.9000000953674,65.0,60.0,40.0,False,,353.5491174336084,[],"[960, 540]",ColorTask,73.0,11.0,,,HRV,HRV_0282,2022-11-30 20:53:55
,wl-rdm,128,413437,0.0-8.11-0.11,1.0,129.0,,,,,,,[],,,,,,53.2,1.0,u,0.0,False,956.2000000476837,58.0,60.0,40.0,False,,261.8224232836102,[],"[960, 540]",ColorTask,72.0,12.0,,,HRV,HRV_0282,2022-11-30 20:53:55
,wl-rdm,129,416138,0.0-8.12-0.12,1.0,130.0,,,,,,,[],,,,,,62.5,0.0,u,0.0,True,1409.6000000238419,85.0,60.0,40.0,False,,219.6608827243789,[],"[960, 540]",ColorTask,73.0,13.0,,,HRV,HRV_0282,2022-11-30 20:53:55
,wl-rdm,130,418704,0.0-8.13-0.13,1.0,131.0,,,,,,,[],,,,,,62.5,1.0,i,1.0,True,1144.6000000238419,69.0,60.0,40.0,False,,350.0240024357182,[],"[960, 540]",ColorTask,74.0,14.0,,,HRV,HRV_0282,2022-11-30 20:53:55
,wl-rdm,131,422121,0.0-8.14-0.14,1.0,132.0,,,,,,,[],,,,,,50.0,0.0,i,1.0,False,2102.0,127.0,60.0,40.0,False,,238.59407402770313,[],"[960, 540]",ColorTask,73.0,15.0,,,HRV,HRV_0282,2022-11-30 20:53:55
,wl-rdm,132,425171,0.0-8.15-0.15,1.0,133.0,,,,,,,[],,,,,,50.0,0.0,u,0.0,True,1759.1000000238419,106.0,60.0,40.0,False,,212.4631054981328,[],"[960, 540]",ColorTask,74.0,16.0,,,HRV,HRV_0282,2022-11-30 20:53:55
,wl-rdm,133,427354,0.0-8.16-0.16,1.0,134.0,,,,,,,[],,,,,,87.9,1.0,i,1.0,True,784.7000000476837,48.0,60.0,40.0,False,,308.9673197351493,[],"[960, 540]",ColorTask,75.0,17.0,,,HRV,HRV_0282,2022-11-30 20:53:55
,wl-rdm,134,429521,0.0-8.17-0.17,1.0,135.0,,,,,,,[],,,,,,73.6,1.0,i,1.0,True,869.5,53.0,60.0,40.0,False,,211.03069990896344,[],"[960, 540]",ColorTask,76.0,18.0,,,HRV,HRV_0282,2022-11-30 20:53:55
,wl-rdm,135,432805,0.0-8.18-0.18,1.0,136.0,,,,,,,[],,,,,,50.0,1.0,u,0.0,False,1832.8999999761581,110.0,60.0,40.0,False,,371.64946886702705,[],"[960, 540]",ColorTask,75.0,19.0,,,HRV,HRV_0282,2022-11-30 20:53:55
,wl-rdm,136,435055,0.0-8.19-0.19,1.0,137.0,,,,,,,[],,,,,,87.9,0.0,u,0.0,True,980.0999999046326,59.0,60.0,40.0,False,,209.1549608429898,[],"[960, 540]",ColorTask,76.0,20.0,,,HRV,HRV_0282,2022-11-30 20:53:55
,wl-rdm,137,437121,0.0-8.20-0.20,1.0,138.0,,,,,,,[],,,,,,87.9,1.0,i,1.0,True,737.7000000476837,45.0,60.0,40.0,False,,244.9484707403531,[],"[960, 540]",ColorTask,77.0,21.0,,,HRV,HRV_0282,2022-11-30 20:53:55
,wl-rdm,138,439104,0.0-8.21-0.21,1.0,139.0,,,,,,,[],,,,,,87.9,1.0,i,1.0,True,707.3999999761581,42.0,60.0,40.0,False,,204.85583774659088,[],"[960, 540]",ColorTask,78.0,22.0,,,HRV,HRV_0282,2022-11-30 20:53:55
,wl-rdm,139,442071,0.0-8.22-0.22,1.0,140.0,,,,,,,[],,,,,,50.0,0.0,u,0.0,True,1521.8000000715256,92.0,60.0,40.0,False,,365.1062025031845,[],"[960, 540]",ColorTask,79.0,23.0,,,HRV,HRV_0282,2022-11-30 20:53:55
,wl-rdm,140,445204,0.0-8.23-0.23,1.0,141.0,,,,,,,[],,,,,,50.0,0.0,i,1.0,False,1841.1000000238419,111.0,60.0,40.0,False,,201.03564514559292,[],"[960, 540]",ColorTask,78.0,24.0,,,HRV,HRV_0282,2022-11-30 20:53:55
,wl-rdm,141,447821,0.0-8.24-0.24,1.0,142.0,,,,,,,[],,,,,,53.2,0.0,u,0.0,True,1323.1000000238419,80.0,60.0,40.0,False,,230.48528255795398,[],"[960, 540]",ColorTask,79.0,25.0,,,HRV,HRV_0282,2022-11-30 20:53:55
,wl-rdm,142,450071,0.0-8.25-0.25,1.0,143.0,,,,,,,[],,,,,,87.9,0.0,u,0.0,True,921.5,56.0,60.0,40.0,False,,234.76897226059296,[],"[960, 540]",ColorTask,80.0,26.0,,,HRV,HRV_0282,2022-11-30 20:53:55
,wl-rdm,143,453805,0.0-8.26-0.26,1.0,144.0,,,,,,,[],,,,,,53.2,1.0,u,0.0,False,2331.899999976158,140.0,60.0,40.0,False,,344.7466691335984,[],"[960, 540]",ColorTask,79.0,27.0,,,HRV,HRV_0282,2022-11-30 20:53:55
,wl-rdm,144,456038,0.0-8.27-0.27,1.0,145.0,,,,,,,[],,,,,,87.9,1.0,i,1.0,True,796.3000000715256,48.0,60.0,40.0,False,,380.5169934295655,[],"[960, 540]",ColorTask,80.0,28.0,,,HRV,HRV_0282,2022-11-30 20:53:55
,wl-rdm,145,458471,0.0-8.28-0.28,1.0,146.0,,,,,,,[],,,,,,73.6,0.0,u,0.0,True,1109.2999999523163,66.0,60.0,40.0,False,,257.5652880906557,[],"[960, 540]",ColorTask,81.0,29.0,,,HRV,HRV_0282,2022-11-30 20:53:55
,wl-rdm,146,460621,0.0-8.29-0.29,1.0,147.0,,,,,,,[],,,,,,73.6,1.0,i,1.0,True,830.5,50.0,60.0,40.0,False,,262.9187151588875,[],"[960, 540]",ColorTask,82.0,30.0,,,HRV,HRV_0282,2022-11-30 20:53:55
,wl-rdm,147,462705,0.0-8.30-0.30,1.0,148.0,,,,,,,[],,,,,,87.9,0.0,u,0.0,True,785.8999999761581,48.0,60.0,40.0,False,,221.49693017020255,[],"[960, 540]",ColorTask,83.0,31.0,,,HRV,HRV_0282,2022-11-30 20:53:55
,wl-rdm,148,465539,0.0-8.31-0.31,1.0,149.0,,,,,,,[],,,,,,56.4,0.0,u,0.0,True,1518.1000000238419,92.0,60.0,40.0,False,,249.26311429463652,[],"[960, 540]",ColorTask,84.0,32.0,,,HRV,HRV_0282,2022-11-30 20:53:55
,wl-rdm,149,467805,0.0-8.32-0.32,1.0,150.0,,,,,,,[],,,,,,62.5,1.0,i,1.0,True,848.7000000476837,51.0,60.0,40.0,False,,335.89049457965575,[],"[960, 540]",ColorTask,85.0,33.0,,,HRV,HRV_0282,2022-11-30 20:53:55
,wl-rdm,150,469955,0.0-8.33-0.33,1.0,151.0,,,,,,,[],,,,,,87.9,0.0,u,0.0,True,801.0,49.0,60.0,40.0,False,,271.5524661745476,[],"[960, 540]",ColorTask,86.0,34.0,,,HRV,HRV_0282,2022-11-30 20:53:55
,wl-rdm,151,472288,0.0-8.34-0.34,1.0,152.0,,,,,,,[],,,,,,73.6,0.0,u,0.0,True,978.2000000476837,59.0,60.0,40.0,False,,271.2200324071733,[],"[960, 540]",ColorTask,87.0,35.0,,,HRV,HRV_0282,2022-11-30 20:53:55
,wl-rdm,152,474638,0.0-8.35-0.35,1.0,153.0,,,,,,,[],,,,,,73.6,0.0,u,0.0,True,1063.5,64.0,60.0,40.0,False,,200.20037569542,[],"[960, 540]",ColorTask,88.0,36.0,,,HRV,HRV_0282,2022-11-30 20:53:55
,wl-rdm,153,476788,0.0-8.36-0.36,1.0,154.0,,,,,,,[],,,,,,87.9,0.0,u,0.0,True,799.1000000238419,48.0,60.0,40.0,False,,281.2785833336569,[],"[960, 540]",ColorTask,89.0,37.0,,,HRV,HRV_0282,2022-11-30 20:53:55
,wl-rdm,154,479022,0.0-8.37-0.37,1.0,155.0,,,,,,,[],,,,,,56.4,1.0,i,1.0,True,888.6000000238419,54.0,60.0,40.0,False,,281.40348755646244,[],"[960, 540]",ColorTask,90.0,38.0,,,HRV,HRV_0282,2022-11-30 20:53:55
,wl-rdm,155,482072,0.0-8.38-0.38,1.0,156.0,,,,,,,[],,,,,,50.0,1.0,u,0.0,False,1663.6000000238419,100.0,60.0,40.0,False,,312.21191887152304,[],"[960, 540]",ColorTask,89.0,39.0,,,HRV,HRV_0282,2022-11-30 20:53:55
,wl-rdm,156,484822,0.0-8.39-0.39,1.0,157.0,,,,,,,[],,,,,,53.2,0.0,u,0.0,True,1439.5000001192093,87.0,60.0,40.0,False,,225.84556285766467,[],"[960, 540]",ColorTask,90.0,40.0,,,HRV,HRV_0282,2022-11-30 20:53:55
,wl-rdm,157,487639,0.0-8.40-0.40,1.0,158.0,,,,,,,[],,,,,,53.2,1.0,i,1.0,True,1441.2999999523163,87.0,60.0,40.0,False,,299.26303664365776,[],"[960, 540]",ColorTask,91.0,41.0,,,HRV,HRV_0282,2022-11-30 20:53:55
,wl-rdm,158,490689,0.0-8.41-0.41,1.0,159.0,,,,,,,[],,,,,,50.0,1.0,i,1.0,True,1753.3999999761581,106.0,60.0,40.0,False,,215.25348785573675,[],"[960, 540]",ColorTask,92.0,42.0,,,HRV,HRV_0282,2022-11-30 20:53:55
,wl-rdm,159,493005,0.0-8.42-0.42,1.0,160.0,,,,,,,[],,,,,,73.6,0.0,u,0.0,True,964.5,58.0,60.0,40.0,False,,270.81307388836314,[],"[960, 540]",ColorTask,93.0,43.0,,,HRV,HRV_0282,2022-11-30 20:53:55
,wl-rdm,160,495356,0.0-8.43-0.43,1.0,161.0,,,,,,,[],,,,,,53.2,1.0,i,1.0,True,913.1000000238419,56.0,60.0,40.0,False,,351.2764365760622,[],"[960, 540]",ColorTask,94.0,44.0,,,HRV,HRV_0282,2022-11-30 20:53:55
,wl-rdm,161,498105,0.0-8.44-0.44,1.0,162.0,,,,,,,[],,,,,,50.0,0.0,u,0.0,True,1368.8999999761581,83.0,60.0,40.0,False,,313.1467609191111,[],"[960, 540]",ColorTask,95.0,45.0,,,HRV,HRV_0282,2022-11-30 20:53:55
,wl-rdm,162,500305,0.0-8.45-0.45,1.0,163.0,,,,,,,[],,,,,,62.5,1.0,i,1.0,True,827.6999999284744,50.0,60.0,40.0,False,,295.88527867631115,[],"[960, 540]",ColorTask,96.0,46.0,,,HRV,HRV_0282,2022-11-30 20:53:55
,wl-rdm,163,502739,0.0-8.46-0.46,1.0,164.0,,,,,,,[],,,,,,56.4,0.0,i,1.0,False,958.7999999523163,58.0,60.0,40.0,False,,389.8704167501299,[],"[960, 540]",ColorTask,95.0,47.0,,,HRV,HRV_0282,2022-11-30 20:53:55
,wl-rdm,164,506197,0.0-8.47-0.47,1.0,165.0,,,,,,,[],,,,,,56.4,0.0,u,0.0,True,2148.4000000953674,129.0,60.0,40.0,False,,219.41977641127676,[],"[960, 540]",ColorTask,96.0,48.0,,,HRV,HRV_0282,2022-11-30 20:53:55
,wl-rdm,165,508456,0.0-8.48-0.48,1.0,166.0,,,,,,,[],,,,,,87.9,0.0,u,0.0,True,872.8999999761581,53.0,60.0,40.0,False,,307.6253710337563,[],"[960, 540]",ColorTask,97.0,49.0,,,HRV,HRV_0282,2022-11-30 20:53:55
,wl-rdm,166,510689,0.0-8.49-0.49,1.0,167.0,,,,,,,[],,,,,,62.5,1.0,i,1.0,True,877.7999999523163,53.0,60.0,40.0,False,,279.49856191851376,[],"[960, 540]",ColorTask,98.0,50.0,,,HRV,HRV_0282,2022-11-30 20:53:55
,wl-rdm,167,515106,0.0-8.50-0.50,1.0,167.0,,,,,,,[],,,,,,56.4,1.0,i,,,3267.7000000476837,179.0,60.0,40.0,True,RT_timeout ,315.8944800204014,[],"[960, 540]",ColorTask,97.0,51.0,,,HRV,HRV_0282,2022-11-30 20:53:55
,wl-rdm,168,517656,0.0-8.51-0.51,1.0,168.0,,,,,,,[],,,,,,53.2,0.0,i,1.0,False,1087.7999999523163,66.0,60.0,40.0,False,,372.68095834257855,[],"[960, 540]",ColorTask,96.0,52.0,,,HRV,HRV_0282,2022-11-30 20:53:55
,wl-rdm,169,519889,0.0-8.52-0.52,1.0,169.0,,,,,,,[],,,,,,73.6,1.0,i,1.0,True,810.8999999761581,49.0,60.0,40.0,False,,362.59529718124105,[],"[960, 540]",ColorTask,97.0,53.0,,,HRV,HRV_0282,2022-11-30 20:53:55
,wl-rdm,170,522089,0.0-8.53-0.53,1.0,170.0,,,,,,,[],,,,,,53.2,0.0,u,0.0,True,904.0000001192093,55.0,60.0,40.0,False,,207.31132383907075,[],"[960, 540]",ColorTask,98.0,54.0,,,HRV,HRV_0282,2022-11-30 20:53:55
,wl-rdm,171,524822,0.0-8.54-0.54,1.0,171.0,,,,,,,[],,,,,,56.4,0.0,u,0.0,True,1305.6000000238419,79.0,60.0,40.0,False,,344.5525660998056,[],"[960, 540]",ColorTask,99.0,55.0,,,HRV,HRV_0282,2022-11-30 20:53:55
,wl-rdm,172,527022,0.0-8.55-0.55,1.0,172.0,,,,,,,[],,,,,,73.6,0.0,u,0.0,True,913.0,55.0,60.0,40.0,False,,220.15667304992937,[],"[960, 540]",ColorTask,100.0,56.0,,,HRV,HRV_0282,2022-11-30 20:53:55
,wl-rdm,173,529122,0.0-8.56-0.56,1.0,173.0,,,,,,,[],,,,,,73.6,1.0,i,1.0,True,801.7999999523163,49.0,60.0,40.0,False,,215.48957765701437,[],"[960, 540]",ColorTask,101.0,57.0,,,HRV,HRV_0282,2022-11-30 20:53:55
,wl-rdm,174,531122,0.0-8.57-0.57,1.0,174.0,,,,,,,[],,,,,,87.9,1.0,i,1.0,True,702.0000001192093,43.0,60.0,40.0,False,,211.52735355271957,[],"[960, 540]",ColorTask,102.0,58.0,,,HRV,HRV_0282,2022-11-30 20:53:55
,wl-rdm,175,533506,0.0-8.58-0.58,1.0,175.0,,,,,,,[],,,,,,50.0,0.0,u,0.0,True,1044.4000000953674,63.0,60.0,40.0,False,,254.1977975465215,[],"[960, 540]",ColorTask,103.0,59.0,,,HRV,HRV_0282,2022-11-30 20:53:55
,wl-rdm,176,535955,0.0-8.59-0.59,1.0,176.0,,,,,,,[],,,,,,62.5,0.0,u,0.0,True,1015.7999999523163,61.0,60.0,40.0,False,,380.4970847811618,[],"[960, 540]",ColorTask,104.0,60.0,,,HRV,HRV_0282,2022-11-30 20:53:55
,wl-rdm,177,538722,0.0-8.60-0.60,1.0,177.0,,,,,,,[],,,,,,56.4,1.0,u,0.0,False,1351.8000000715256,82.0,60.0,40.0,False,,329.24740932268907,[],"[960, 540]",ColorTask,103.0,61.0,,,HRV,HRV_0282,2022-11-30 20:53:55
,wl-rdm,178,540755,0.0-8.61-0.61,1.0,178.0,,,,,,,[],,,,,,62.5,0.0,u,0.0,True,741.2999999523163,45.0,60.0,40.0,False,,202.1747374905899,[],"[960, 540]",ColorTask,104.0,62.0,,,HRV,HRV_0282,2022-11-30 20:53:55
,wl-rdm,179,543206,0.0-8.62-0.62,1.0,179.0,,,,,,,[],,,,,,56.4,0.0,u,0.0,True,1155.1999999284744,70.0,60.0,40.0,False,,219.86275579655444,[],"[960, 540]",ColorTask,105.0,63.0,,,HRV,HRV_0282,2022-11-30 20:53:55
,wl-rdm,180,545673,0.0-8.63-0.63,1.0,180.0,,,,,,,[],,,,,,50.0,1.0,i,1.0,True,1073.6000000238419,65.0,60.0,40.0,False,,316.91253952375035,[],"[960, 540]",ColorTask,106.0,64.0,,,HRV,HRV_0282,2022-11-30 20:53:55
,wl-rdm,181,548406,0.0-8.64-0.64,1.0,181.0,,,,,,,[],,,,,,62.5,0.0,u,0.0,True,1372.8999998569489,83.0,60.0,40.0,False,,282.8430584181735,[],"[960, 540]",ColorTask,107.0,65.0,,,HRV,HRV_0282,2022-11-30 20:53:55
,wl-rdm,182,550956,0.0-8.65-0.65,1.0,182.0,,,,,,,[],,,,,,62.5,0.0,u,0.0,True,1224.1000000238419,74.0,60.0,40.0,False,,253.31751273889213,[],"[960, 540]",ColorTask,108.0,66.0,,,HRV,HRV_0282,2022-11-30 20:53:55
,wl-rdm,183,553156,0.0-8.66-0.66,1.0,183.0,,,,,,,[],,,,,,73.6,1.0,i,1.0,True,824.7999999523163,50.0,60.0,40.0,False,,285.18909507462445,[],"[960, 540]",ColorTask,109.0,67.0,,,HRV,HRV_0282,2022-11-30 20:53:55
,wl-rdm,184,555389,0.0-8.67-0.67,1.0,184.0,,,,,,,[],,,,,,73.6,0.0,u,0.0,True,823.5,50.0,60.0,40.0,False,,320.60090278826385,[],"[960, 540]",ColorTask,110.0,68.0,,,HRV,HRV_0282,2022-11-30 20:53:55
,wl-rdm,185,557556,0.0-8.68-0.68,1.0,185.0,,,,,,,[],,,,,,73.6,1.0,i,1.0,True,790.1000000238419,48.0,60.0,40.0,False,,309.3105057470955,[],"[960, 540]",ColorTask,111.0,69.0,,,HRV,HRV_0282,2022-11-30 20:53:55
,wl-rdm,186,559623,0.0-8.69-0.69,1.0,186.0,,,,,,,[],,,,,,87.9,1.0,i,1.0,True,689.0,42.0,60.0,40.0,False,,285.9053249730902,[],"[960, 540]",ColorTask,112.0,70.0,,,HRV,HRV_0282,2022-11-30 20:53:55
,wl-rdm,187,562539,0.0-8.70-0.70,1.0,187.0,,,,,,,[],,,,,,53.2,1.0,u,0.0,False,1583.3999999761581,95.0,60.0,40.0,False,,257.39560656404836,[],"[960, 540]",ColorTask,111.0,71.0,,,HRV,HRV_0282,2022-11-30 20:53:55
,wl-rdm,188,565073,0.0-8.71-0.71,1.0,188.0,,,,,,,[],,,,,,53.2,0.0,i,1.0,False,1227.2999999523163,74.0,60.0,40.0,False,,243.16448151133153,[],"[960, 540]",ColorTask,110.0,72.0,,,HRV,HRV_0282,2022-11-30 20:53:55
,wl-rdm,189,567756,0.0-8.72-0.72,1.0,189.0,,,,,,,[],,,,,,50.0,1.0,u,0.0,False,1269.6000000238419,77.0,60.0,40.0,False,,331.04277217587367,[],"[960, 540]",ColorTask,109.0,73.0,,,HRV,HRV_0282,2022-11-30 20:53:55
,wl-rdm,190,570789,0.0-8.73-0.73,1.0,190.0,,,,,,,[],,,,,,56.4,1.0,i,1.0,True,1573.2999999523163,95.0,60.0,40.0,False,,370.63356626427174,[],"[960, 540]",ColorTask,110.0,74.0,,,HRV,HRV_0282,2022-11-30 20:53:55
,wl-rdm,191,572956,0.0-8.74-0.74,1.0,191.0,,,,,,,[],,,,,,56.4,1.0,i,1.0,True,875.2999999523163,53.0,60.0,40.0,False,,200.6334389251035,[],"[960, 540]",ColorTask,111.0,75.0,,,HRV,HRV_0282,2022-11-30 20:53:55
,wl-rdm,192,575123,0.0-8.75-0.75,1.0,192.0,,,,,,,[],,,,,,87.9,0.0,u,0.0,True,791.7999999523163,48.0,60.0,40.0,False,,305.0626585540473,[],"[960, 540]",ColorTask,112.0,76.0,,,HRV,HRV_0282,2022-11-30 20:53:55
,wl-rdm,193,577756,0.0-8.76-0.76,1.0,193.0,,,,,,,[],,,,,,56.4,0.0,u,0.0,True,1165.8999998569489,70.0,60.0,40.0,False,,390.27503401021437,[],"[960, 540]",ColorTask,113.0,77.0,,,HRV,HRV_0282,2022-11-30 20:53:55
,wl-rdm,194,580323,0.0-8.77-0.77,1.0,194.0,,,,,,,[],,,,,,62.5,0.0,u,0.0,True,1284.2999999523163,78.0,60.0,40.0,False,,212.9472549492389,[],"[960, 540]",ColorTask,114.0,78.0,,,HRV,HRV_0282,2022-11-30 20:53:55
,wl-rdm,195,583406,0.0-8.78-0.78,1.0,195.0,,,,,,,[],,,,,,50.0,1.0,i,1.0,True,1614.0,97.0,60.0,40.0,False,,389.7082599327847,[],"[960, 540]",ColorTask,115.0,79.0,,,HRV,HRV_0282,2022-11-30 20:53:55
,wl-rdm,196,585973,0.0-8.79-0.79,1.0,196.0,,,,,,,[],,,,,,53.2,1.0,i,1.0,True,1174.4000000953674,71.0,60.0,40.0,False,,312.48636083936685,[],"[960, 540]",ColorTask,116.0,80.0,,,HRV,HRV_0282,2022-11-30 20:53:55
,wl-rdm,197,588223,0.0-8.80-0.80,1.0,197.0,,,,,,,[],,,,,,73.6,0.0,u,0.0,True,897.7999999523163,54.0,60.0,40.0,False,,270.76643899798023,[],"[960, 540]",ColorTask,117.0,81.0,,,HRV,HRV_0282,2022-11-30 20:53:55
,wl-rdm,198,590873,0.0-8.81-0.81,1.0,198.0,,,,,,,[],,,,,,53.2,1.0,u,0.0,False,1344.2999999523163,81.0,60.0,40.0,False,,227.2362568441997,[],"[960, 540]",ColorTask,116.0,82.0,,,HRV,HRV_0282,2022-11-30 20:53:55
,wl-rdm,199,593340,0.0-8.82-0.82,1.0,199.0,,,,,,,[],,,,,,56.4,1.0,i,1.0,True,1108.9000000953674,67.0,60.0,40.0,False,,272.7847771017623,[],"[960, 540]",ColorTask,117.0,83.0,,,HRV,HRV_0282,2022-11-30 20:53:55
,wl-rdm,200,596607,0.0-8.83-0.83,1.0,200.0,,,,,,,[],,,,,,50.0,1.0,u,0.0,False,1813.5,109.0,60.0,40.0,False,,378.87967515081345,[],"[960, 540]",ColorTask,116.0,84.0,,,HRV,HRV_0282,2022-11-30 20:53:55
,wl-rdm,201,598940,0.0-8.84-0.84,1.0,201.0,,,,,,,[],,,,,,73.6,0.0,u,0.0,True,1057.8000000715256,64.0,60.0,40.0,False,,215.43280632259658,[],"[960, 540]",ColorTask,117.0,85.0,,,HRV,HRV_0282,2022-11-30 20:53:55
,wl-rdm,202,601207,0.0-8.85-0.85,1.0,202.0,,,,,,,[],,,,,,62.5,1.0,i,1.0,True,805.1000000238419,49.0,60.0,40.0,False,,376.08461193338167,[],"[960, 540]",ColorTask,118.0,86.0,,,HRV,HRV_0282,2022-11-30 20:53:55
,wl-rdm,203,603673,0.0-8.86-0.86,1.0,203.0,,,,,,,[],,,,,,62.5,0.0,u,0.0,True,1077.2999999523163,65.0,60.0,40.0,False,,313.58059537460747,[],"[960, 540]",ColorTask,119.0,87.0,,,HRV,HRV_0282,2022-11-30 20:53:55
,wl-rdm,204,605807,0.0-8.87-0.87,1.0,204.0,,,,,,,[],,,,,,87.9,0.0,u,0.0,True,804.3999999761581,49.0,60.0,40.0,False,,258.77942426385437,[],"[960, 540]",ColorTask,120.0,88.0,,,HRV,HRV_0282,2022-11-30 20:53:55
,wl-rdm,205,608940,0.0-8.88-0.88,1.0,205.0,,,,,,,[],,,,,,50.0,0.0,u,0.0,True,1691.7999999523163,102.0,60.0,40.0,False,,359.44152578061016,[],"[960, 540]",ColorTask,121.0,89.0,,,HRV,HRV_0282,2022-11-30 20:53:55
,wl-rdm,206,611640,0.0-8.89-0.89,1.0,206.0,,,,,,,[],,,,,,62.5,0.0,u,0.0,True,1337.5,81.0,60.0,40.0,False,,281.5436305566031,[],"[960, 540]",ColorTask,122.0,90.0,,,HRV,HRV_0282,2022-11-30 20:53:55
,wl-rdm,207,614307,0.0-8.90-0.90,1.0,207.0,,,,,,,[],,,,,,53.2,1.0,i,1.0,True,1367.8999999761581,83.0,60.0,40.0,False,,225.15065294906447,[],"[960, 540]",ColorTask,123.0,91.0,,,HRV,HRV_0282,2022-11-30 20:53:55
,wl-rdm,208,617073,0.0-8.91-0.91,1.0,208.0,,,,,,,[],,,,,,53.2,0.0,u,0.0,True,1403.3000000715256,85.0,60.0,40.0,False,,272.8253638822335,[],"[960, 540]",ColorTask,124.0,92.0,,,HRV,HRV_0282,2022-11-30 20:53:55
,wl-rdm,209,619607,0.0-8.92-0.92,1.0,209.0,,,,,,,[],,,,,,56.4,0.0,u,0.0,True,1138.5999999046326,69.0,60.0,40.0,False,,311.82305955518166,[],"[960, 540]",ColorTask,125.0,93.0,,,HRV,HRV_0282,2022-11-30 20:53:55
,wl-rdm,210,622024,0.0-8.93-0.93,1.0,210.0,,,,,,,[],,,,,,56.4,1.0,i,1.0,True,1061.7000000476837,64.0,60.0,40.0,False,,297.58262570603824,[],"[960, 540]",ColorTask,126.0,94.0,,,HRV,HRV_0282,2022-11-30 20:53:55
,wl-rdm,211,624774,0.0-8.94-0.94,1.0,211.0,,,,,,,[],,,,,,56.4,0.0,u,0.0,True,1290.1000000238419,78.0,60.0,40.0,False,,374.95042513642943,[],"[960, 540]",ColorTask,127.0,95.0,,,HRV,HRV_0282,2022-11-30 20:53:55
,wl-rdm,212,627240,0.0-8.95-0.95,1.0,212.0,,,,,,,[],,,,,,56.4,0.0,i,1.0,False,1120.5,68.0,60.0,40.0,False,,264.7888538863571,[],"[960, 540]",ColorTask,126.0,96.0,,,HRV,HRV_0282,2022-11-30 20:53:55
,wl-rdm,213,629724,0.0-8.96-0.96,1.0,213.0,,,,,,,[],,,,,,53.2,0.0,u,0.0,True,1065.2999999523163,64.0,60.0,40.0,False,,354.0041982053666,[],"[960, 540]",ColorTask,127.0,97.0,,,HRV,HRV_0282,2022-11-30 20:53:55
,wl-rdm,214,632724,0.0-8.97-0.97,1.0,214.0,,,,,,,[],,,,,,50.0,0.0,i,1.0,False,1691.1000000238419,102.0,60.0,40.0,False,,238.14151447915157,[],"[960, 540]",ColorTask,126.0,98.0,,,HRV,HRV_0282,2022-11-30 20:53:55
,wl-rdm,215,634857,0.0-8.98-0.98,1.0,215.0,,,,,,,[],,,,,,87.9,1.0,i,1.0,True,743.8999999761581,45.0,60.0,40.0,False,,319.386444564347,[],"[960, 540]",ColorTask,127.0,99.0,,,HRV,HRV_0282,2022-11-30 20:53:55
,wl-rdm,216,637240,0.0-8.99-0.99,1.0,216.0,,,,,,,[],,,,,,53.2,0.0,u,0.0,True,920.7999999523163,56.0,60.0,40.0,False,,382.24550549972497,[],"[960, 540]",ColorTask,128.0,100.0,,,HRV,HRV_0282,2022-11-30 20:53:55
,wl-rdm,217,639390,0.0-8.100-0.100,1.0,217.0,,,,,,,[],,,,,,56.4,1.0,i,1.0,True,864.1999999284744,52.0,60.0,40.0,False,,201.0953569872053,[],"[960, 540]",ColorTask,129.0,101.0,,,HRV,HRV_0282,2022-11-30 20:53:55
,wl-rdm,218,641674,0.0-8.101-0.101,1.0,218.0,,,,,,,[],,,,,,50.0,1.0,u,0.0,False,993.3999999761581,60.0,60.0,40.0,False,,209.10274870973637,[],"[960, 540]",ColorTask,128.0,102.0,,,HRV,HRV_0282,2022-11-30 20:53:55
,wl-rdm,219,643940,0.0-8.102-0.102,1.0,219.0,,,,,,,[],,,,,,62.5,1.0,u,0.0,False,848.3000000715256,51.0,60.0,40.0,False,,353.75416620877013,[],"[960, 540]",ColorTask,127.0,103.0,,,HRV,HRV_0282,2022-11-30 20:53:55
,wl-rdm,220,646123,0.0-8.103-0.103,1.0,220.0,,,,,,,[],,,,,,62.5,1.0,i,1.0,True,899.6000000238419,54.0,60.0,40.0,False,,209.2911966476492,[],"[960, 540]",ColorTask,128.0,104.0,,,HRV,HRV_0282,2022-11-30 20:53:55
,wl-rdm,221,648157,0.0-8.104-0.104,1.0,221.0,,,,,,,[],,,,,,73.6,1.0,i,1.0,True,673.6000000238419,41.0,60.0,40.0,False,,276.50524722048795,[],"[960, 540]",ColorTask,129.0,105.0,,,HRV,HRV_0282,2022-11-30 20:53:55
,wl-rdm,222,651490,0.0-8.105-0.105,1.0,222.0,,,,,,,[],,,,,,50.0,1.0,u,0.0,False,1884.5999999046326,114.0,60.0,40.0,False,,371.1698247018019,[],"[960, 540]",ColorTask,128.0,106.0,,,HRV,HRV_0282,2022-11-30 20:53:55
,wl-rdm,223,653824,0.0-8.106-0.106,1.0,223.0,,,,,,,[],,,,,,56.4,1.0,i,1.0,True,1045.8999999761581,63.0,60.0,40.0,False,,205.86664698869865,[],"[960, 540]",ColorTask,129.0,107.0,,,HRV,HRV_0282,2022-11-30 20:53:55
,wl-rdm,224,656574,0.0-8.107-0.107,1.0,224.0,,,,,,,[],,,,,,62.5,0.0,u,0.0,True,1323.0,80.0,60.0,40.0,False,,336.8923364351298,[],"[960, 540]",ColorTask,130.0,108.0,,,HRV,HRV_0282,2022-11-30 20:53:55
,wl-rdm,225,659307,0.0-8.108-0.108,1.0,225.0,,,,,,,[],,,,,,53.2,1.0,i,1.0,True,1252.1000000238419,76.0,60.0,40.0,False,,399.2402100482074,[],"[960, 540]",ColorTask,131.0,109.0,,,HRV,HRV_0282,2022-11-30 20:53:55
,wl-html-button-response,226,662417,0.0-9.0-0.0,,,,,,,,,,3107.6999999284744,,0,,,,,,,,,,,,,,,,,,,,<h3>End of this session. Thank you!</h3><br>,['Close window'],HRV,HRV_0282,2022-11-30 20:53:55
