success,trial_type,trial_index,time_elapsed,internal_node_id,Block,TrialNumber,TrialTime,trialTimeDiff,FPS_avg,FPS_med,FPS_mode,TrialDur,winResizeTime,rt,block,button_pressed,MotCoh,MotDir,ColCoh,Color,ChoiceKey,Choice,Accuracy,RT,nFrames,FPS,PPD,missTrial,missTrialMsg,onsetDelay,fullScreenExitTime,canvCenter,TrialType,Score,BlockTrial,stimulus,button_labels,exp,subjectId,date
True,fullscreen,0,3685,0.0-0.0,0.0,1.0,,,,,,,,,,,,,,,,,,,,,,,,,,,,,,,,HRV,HRV_0012,2022-11-30 18:07:31
,wl-check-fps,1,8684,0.0-1.0,0.0,2.0,"[3957.3, 3965.9, 3982.5, 3999.2, 4015.9, 4032.5, 4049.1, 4065.9, 4082.6, 4099.2, 4116, 4132.6, 4149.3, 4166, 4182.7, 4199.3, 4216, 4232.6, 4249.3, 4266, 4282.7, 4299.4, 4316.1, 4332.7, 4349.4, 4366.1, 4382.8, 4399.5, 4416.1, 4432.8, 4449.5, 4466.2, 4482.9, 4499.5, 4516.2, 4532.9, 4549.6, 4566.3, 4583, 4599.6, 4616.4, 4633, 4649.7, 4666.3, 4683.1, 4699.8, 4716.4, 4733.1, 4749.7, 4766.4, 4783.1, 4799.8, 4816.5, 4833.1, 4849.8, 4866.5, 4883.3, 4899.9, 4916.6, 4933.3, 4949.9, 4966.6, 4983.3, 4999.9, 5016.6, 5033.3, 5050.1, 5066.7, 5083.4, 5100, 5116.8, 5133.3, 5150.1, 5166.8, 5183.4, 5200.1, 5217.1, 5233.6, 5250.2, 5266.8, 5283.5, 5300.2, 5316.9, 5333.6, 5350.3, 5366.9, 5383.6, 5400.3, 5417, 5433.7, 5450.3, 5467, 5483.6, 5500.4, 5517, 5533.7, 5550.4, 5567.1, 5583.7, 5600.4, 5617.1, 5633.8, 5650.5, 5667.2, 5683.8, 5700.5, 5717.2, 5734, 5750.6, 5767.3, 5784, 5800.7, 5817.3, 5834, 5850.6, 5867.3, 5884, 5900.7, 5917.3, 5934, 5950.8, 5967.4, 5984.2, 6000.8, 6017.4, 6034.1, 6050.8, 6067.6, 6084.2, 6100.9, 6117.6, 6134.2, 6150.9, 6167.5, 6184.2, 6200.9, 6217.6, 6234.3, 6251, 6267.7, 6284.3, 6301, 6317.7, 6334.3, 6351.1, 6367.7, 6384.5, 6401.1, 6417.7, 6434.5, 6451.1, 6467.8, 6484.4, 6501.2, 6517.8, 6534.5, 6551.2, 6567.8, 6584.5, 6601.2, 6617.9, 6634.5, 6651.2, 6668, 6684.6, 6701.4, 6718, 6734.7, 6751.4, 6768, 6784.7, 6801.5, 6818.1, 6834.8, 6851.5, 6868.2, 6884.8, 6901.5, 6918.2, 6934.8, 6951.5, 6968.3, 6984.9, 7001.6, 7018.3, 7034.9, 7051.6, 7068.2, 7085, 7101.7, 7118.3, 7135, 7151.7, 7168.4, 7185, 7201.7, 7218.4, 7235.2, 7251.8, 7268.4, 7285.1, 7301.8, 7318.5, 7335.2, 7351.9, 7368.5, 7385.2, 7401.9, 7418.6, 7435.2, 7451.9, 7468.6, 7485.3, 7502, 7518.7, 7535.4, 7552, 7568.7, 7585.3, 7602.1, 7618.8, 7635.5, 7652.2, 7668.8, 7685.4, 7702.2, 7718.8, 7735.6, 7752.2, 7768.9, 7785.5, 7802.3, 7818.9, 7835.6, 7852.3, 7868.9, 7885.7, 7902.3, 7918.9, 7935.8, 7952.4, 7969.1, 7985.8, 8002.4, 8019.1, 8035.8, 8052.4, 8069.1, 8085.7, 8102.4, 8119.1, 8135.8, 8152.5, 8169.2, 8185.8, 8202.5, 8219.3, 8235.9, 8252.6, 8269.3, 8285.9, 8302.7, 8319.3, 8336, 8352.6, 8369.4, 8386, 8402.7, 8419.4, 8436.1, 8452.7, 8469.5, 8486.1, 8502.8, 8519.4, 8536.1, 8552.9, 8569.5, 8586.2, 8602.9, 8619.5, 8636.2, 8655.5, 8669.6, 8686.3, 8703, 8719.6, 8736.3, 8753.1, 8769.6, 8786.3, 8803, 8819.8, 8836.3, 8853.1, 8869.8, 8886.5, 8903.1, 8919.8, 8936.5]","[0.8, 8.6, 16.6, 16.7, 16.7, 16.6, 16.6, 16.8, 16.7, 16.6, 16.8, 16.6, 16.7, 16.7, 16.7, 16.6, 16.7, 16.6, 16.7, 16.7, 16.7, 16.7, 16.7, 16.6, 16.7, 16.7, 16.7, 16.7, 16.6, 16.7, 16.7, 16.7, 16.7, 16.6, 16.7, 16.7, 16.7, 16.7, 16.7, 16.6, 16.8, 16.6, 16.7, 16.6, 16.8, 16.7, 16.6, 16.7, 16.6, 16.7, 16.7, 16.7, 16.7, 16.6, 16.7, 16.7, 16.8, 16.6, 16.7, 16.7, 16.6, 16.7, 16.7, 16.6, 16.7, 16.7, 16.8, 16.6, 16.7, 16.6, 16.8, 16.5, 16.8, 16.7, 16.6, 16.7, 17, 16.5, 16.6, 16.6, 16.7, 16.7, 16.7, 16.7, 16.7, 16.6, 16.7, 16.7, 16.7, 16.7, 16.6, 16.7, 16.6, 16.8, 16.6, 16.7, 16.7, 16.7, 16.6, 16.7, 16.7, 16.7, 16.7, 16.7, 16.6, 16.7, 16.7, 16.8, 16.6, 16.7, 16.7, 16.7, 16.6, 16.7, 16.6, 16.7, 16.7, 16.7, 16.6, 16.7, 16.8, 16.6, 16.8, 16.6, 16.6, 16.7, 16.7, 16.8, 16.6, 16.7, 16.7, 16.6, 16.7, 16.6, 16.7, 16.7, 16.7, 16.7, 16.7, 16.7, 16.6, 16.7, 16.7, 16.6, 16.8, 16.6, 16.8, 16.6, 16.6, 16.8, 16.6, 16.7, 16.6, 16.8, 16.6, 16.7, 16.7, 16.6, 16.7, 16.7, 16.7, 16.6, 16.7, 16.8, 16.6, 16.8, 16.6, 16.7, 16.7, 16.6, 16.7, 16.8, 16.6, 16.7, 16.7, 16.7, 16.6, 16.7, 16.7, 16.6, 16.7, 16.8, 16.6, 16.7, 16.7, 16.6, 16.7, 16.6, 16.8, 16.7, 16.6, 16.7, 16.7, 16.7, 16.6, 16.7, 16.7, 16.8, 16.6, 16.6, 16.7, 16.7, 16.7, 16.7, 16.7, 16.6, 16.7, 16.7, 16.7, 16.6, 16.7, 16.7, 16.7, 16.7, 16.7, 16.7, 16.6, 16.7, 16.6, 16.8, 16.7, 16.7, 16.7, 16.6, 16.6, 16.8, 16.6, 16.8, 16.6, 16.7, 16.6, 16.8, 16.6, 16.7, 16.7, 16.6, 16.8, 16.6, 16.6, 16.9, 16.6, 16.7, 16.7, 16.6, 16.7, 16.7, 16.6, 16.7, 16.6, 16.7, 16.7, 16.7, 16.7, 16.7, 16.6, 16.7, 16.8, 16.6, 16.7, 16.7, 16.6, 16.8, 16.6, 16.7, 16.6, 16.8, 16.6, 16.7, 16.7, 16.7, 16.6, 16.8, 16.6, 16.7, 16.6, 16.7, 16.8, 16.6, 16.7, 16.7, 16.6, 16.7, 19.3, 14.1, 16.7, 16.7, 16.6, 16.7, 16.8, 16.5, 16.7, 16.7, 16.8, 16.5, 16.8, 16.7, 16.7, 16.6, 16.7, 16.7]",60.0,60.0,60.0,4996.6,[],,,,,,,,,,,,,,,,,,,,,,,,,HRV,HRV_0012,2022-11-30 18:07:31
,wl-html-keyboard-response,2,49498,0.0-2.0-0.0,0.0,3.0,,,,,,,,38810.19999999553,0.0,0,,,,,,,,,,,,,,,,,,,,,,HRV,HRV_0012,2022-11-30 18:07:31
,wl-rdm,3,56338,0.0-3.0-0.0,0.0,4.0,,,,,,,[],,,,0.0,0.0,87.9,0.0,u,0.0,True,1282.6000000014901,77.0,60.0,40.0,False,,3000.0,[],"[1280, 720]",ColorTask_Demo,,,,,HRV,HRV_0012,2022-11-30 18:07:31
,wl-rdm,4,61109,0.0-3.0-1.0,0.0,5.0,,,,,,,[],,,,0.0,0.0,87.9,1.0,i,1.0,True,710.0000000074506,43.0,60.0,40.0,False,,2000.0,[],"[1280, 720]",ColorTask_Demo,,,,,HRV,HRV_0012,2022-11-30 18:07:31
,wl-html-keyboard-response,5,72842,0.0-3.0-2.0,0.0,6.0,,,,,,,,9730.20000000298,0.0,1,,,,,,,,,,,,,,,,,,,,,,HRV,HRV_0012,2022-11-30 18:07:31
,wl-html-keyboard-response,6,80546,0.0-4.0-0.0,0.0,7.0,,,,,,,,5696.10000000149,0.0,0,,,,,,,,,,,,,,,,,,,,,,HRV,HRV_0012,2022-11-30 18:07:31
,wl-html-keyboard-response,7,117503,0.0-5.0-0.0,0.0,8.0,,,,,,,,34945.69999999553,0.0,0,,,,,,,,,,,,,,,,,,,,,,HRV,HRV_0012,2022-11-30 18:07:31
,wl-rdm,8,119840,0.0-6.0-0.0,0.0,9.0,,,,,,,[],,,,,,50.0,0.0,i,1.0,False,940.7000000029802,57.0,60.0,40.0,False,,321.3460317349328,[],"[1280, 720]",ColorTask,-1.0,1.0,,,HRV,HRV_0012,2022-11-30 18:07:31
,wl-rdm,9,122559,0.0-6.1-0.1,0.0,10.0,,,,,,,[],,,,,,56.4,0.0,i,1.0,False,1398.0000000074506,84.0,60.0,40.0,False,,261.7164937433385,[],"[1280, 720]",ColorTask,-2.0,2.0,,,HRV,HRV_0012,2022-11-30 18:07:31
,wl-rdm,10,124861,0.0-6.2-0.2,0.0,11.0,,,,,,,[],,,,,,73.6,0.0,i,1.0,False,978.7000000029802,59.0,60.0,40.0,False,,258.5179731760669,[],"[1280, 720]",ColorTask,-3.0,3.0,,,HRV,HRV_0012,2022-11-30 18:07:31
,wl-rdm,11,126929,0.0-6.3-0.3,0.0,12.0,,,,,,,[],,,,,,56.4,0.0,u,0.0,True,713.1999999955297,43.0,60.0,40.0,False,,287.94410297183583,[],"[1280, 720]",ColorTask,-2.0,4.0,,,HRV,HRV_0012,2022-11-30 18:07:31
,wl-rdm,12,129315,0.0-6.4-0.4,0.0,13.0,,,,,,,[],,,,,,50.0,0.0,i,1.0,False,1010.5999999940395,61.0,60.0,40.0,False,,305.9588222494046,[],"[1280, 720]",ColorTask,-3.0,5.0,,,HRV,HRV_0012,2022-11-30 18:07:31
,wl-rdm,13,132000,0.0-6.5-0.5,0.0,14.0,,,,,,,[],,,,,,56.4,1.0,i,1.0,True,1221.3000000044703,74.0,60.0,40.0,False,,398.58721799081354,[],"[1280, 720]",ColorTask,-2.0,6.0,,,HRV,HRV_0012,2022-11-30 18:07:31
,wl-rdm,14,134569,0.0-6.6-0.6,0.0,15.0,,,,,,,[],,,,,,56.4,1.0,i,1.0,True,1206.2999999970198,73.0,60.0,40.0,False,,287.7557452517466,[],"[1280, 720]",ColorTask,-1.0,7.0,,,HRV,HRV_0012,2022-11-30 18:07:31
,wl-rdm,15,136654,0.0-6.7-0.7,0.0,16.0,,,,,,,[],,,,,,56.4,1.0,i,1.0,True,808.1000000014901,49.0,60.0,40.0,False,,200.2191076182307,[],"[1280, 720]",ColorTask,0.0,8.0,,,HRV,HRV_0012,2022-11-30 18:07:31
,wl-rdm,16,138589,0.0-6.8-0.8,0.0,17.0,,,,,,,[],,,,,,87.9,1.0,i,1.0,True,631.5,38.0,60.0,40.0,False,,234.50225992804252,[],"[1280, 720]",ColorTask,1.0,9.0,,,HRV,HRV_0012,2022-11-30 18:07:31
,wl-rdm,17,141308,0.0-6.9-0.9,0.0,18.0,,,,,,,[],,,,,,53.2,1.0,i,1.0,True,1380.3999999985099,83.0,60.0,40.0,False,,275.64799255481205,[],"[1280, 720]",ColorTask,2.0,10.0,,,HRV,HRV_0012,2022-11-30 18:07:31
,wl-rdm,18,143393,0.0-6.10-0.10,0.0,19.0,,,,,,,[],,,,,,73.6,1.0,i,1.0,True,702.3999999985099,43.0,60.0,40.0,False,,300.9189423801638,[],"[1280, 720]",ColorTask,3.0,11.0,,,HRV,HRV_0012,2022-11-30 18:07:31
,wl-rdm,19,145928,0.0-6.11-0.11,0.0,20.0,,,,,,,[],,,,,,73.6,0.0,u,0.0,True,1115.7000000029802,67.0,60.0,40.0,False,,356.71921988201143,[],"[1280, 720]",ColorTask,4.0,12.0,,,HRV,HRV_0012,2022-11-30 18:07:31
,wl-rdm,20,148063,0.0-6.12-0.12,0.0,21.0,,,,,,,[],,,,,,73.6,1.0,i,1.0,True,713.0,43.0,60.0,40.0,False,,362.3817954550657,[],"[1280, 720]",ColorTask,5.0,13.0,,,HRV,HRV_0012,2022-11-30 18:07:31
,wl-rdm,21,150365,0.0-6.13-0.13,0.0,22.0,,,,,,,[],,,,,,62.5,1.0,i,1.0,True,885.1000000014901,54.0,60.0,40.0,False,,338.68871949710433,[],"[1280, 720]",ColorTask,6.0,14.0,,,HRV,HRV_0012,2022-11-30 18:07:31
,wl-rdm,22,152917,0.0-6.14-0.14,0.0,23.0,,,,,,,[],,,,,,56.4,0.0,u,0.0,True,1102.8999999985099,67.0,60.0,40.0,False,,381.4300501165285,[],"[1280, 720]",ColorTask,7.0,15.0,,,HRV,HRV_0012,2022-11-30 18:07:31
,wl-rdm,23,156136,0.0-6.15-0.15,0.0,24.0,,,,,,,[],,,,,,56.4,1.0,i,1.0,True,1769.8000000044703,107.0,60.0,40.0,False,,376.6215204917937,[],"[1280, 720]",ColorTask,8.0,16.0,,,HRV,HRV_0012,2022-11-30 18:07:31
,wl-rdm,24,158371,0.0-6.16-0.16,0.0,25.0,,,,,,,[],,,,,,87.9,1.0,i,1.0,True,876.2000000029802,53.0,60.0,40.0,False,,289.4306185972356,[],"[1280, 720]",ColorTask,9.0,17.0,,,HRV,HRV_0012,2022-11-30 18:07:31
,wl-rdm,25,160707,0.0-6.17-0.17,0.0,26.0,,,,,,,[],,,,,,50.0,0.0,u,0.0,True,1007.0,61.0,60.0,40.0,False,,261.92344792848337,[],"[1280, 720]",ColorTask,10.0,18.0,,,HRV,HRV_0012,2022-11-30 18:07:31
,wl-rdm,26,162808,0.0-6.18-0.18,0.0,27.0,,,,,,,[],,,,,,87.9,1.0,i,1.0,True,657.6000000014901,40.0,60.0,40.0,False,,369.46625883967647,[],"[1280, 720]",ColorTask,11.0,19.0,,,HRV,HRV_0012,2022-11-30 18:07:31
,wl-rdm,27,165077,0.0-6.19-0.19,0.0,28.0,,,,,,,[],,,,,,87.9,0.0,u,0.0,True,813.1999999955297,49.0,60.0,40.0,False,,387.4499236887384,[],"[1280, 720]",ColorTask,12.0,20.0,,,HRV,HRV_0012,2022-11-30 18:07:31
,wl-rdm,28,167195,0.0-6.20-0.20,0.0,29.0,,,,,,,[],,,,,,87.9,0.0,u,0.0,True,695.1000000014901,42.0,60.0,40.0,False,,355.97934840581945,[],"[1280, 720]",ColorTask,13.0,21.0,,,HRV,HRV_0012,2022-11-30 18:07:31
,wl-rdm,29,169647,0.0-6.21-0.21,0.0,30.0,,,,,,,[],,,,,,62.5,1.0,i,1.0,True,1072.0,65.0,60.0,40.0,False,,305.50372821197755,[],"[1280, 720]",ColorTask,14.0,22.0,,,HRV,HRV_0012,2022-11-30 18:07:31
,wl-rdm,30,171966,0.0-6.22-0.22,0.0,31.0,,,,,,,[],,,,,,87.9,0.0,u,0.0,True,1004.1999999955297,61.0,60.0,40.0,False,,241.46504345330186,[],"[1280, 720]",ColorTask,15.0,23.0,,,HRV,HRV_0012,2022-11-30 18:07:31
,wl-rdm,31,173851,0.0-6.23-0.23,0.0,32.0,,,,,,,[],,,,,,73.6,1.0,i,1.0,True,613.6999999955297,37.0,60.0,40.0,False,,206.31869132734897,[],"[1280, 720]",ColorTask,16.0,24.0,,,HRV,HRV_0012,2022-11-30 18:07:31
,wl-rdm,32,176036,0.0-6.24-0.24,0.0,33.0,,,,,,,[],,,,,,73.6,1.0,i,1.0,True,725.5,44.0,60.0,40.0,False,,395.10675334516816,[],"[1280, 720]",ColorTask,17.0,25.0,,,HRV,HRV_0012,2022-11-30 18:07:31
,wl-rdm,33,178371,0.0-6.25-0.25,0.0,34.0,,,,,,,[],,,,,,53.2,1.0,u,0.0,False,1039.7000000029802,63.0,60.0,40.0,False,,220.3471132760624,[],"[1280, 720]",ColorTask,16.0,26.0,,,HRV,HRV_0012,2022-11-30 18:07:31
,wl-rdm,34,180539,0.0-6.26-0.26,0.0,35.0,,,,,,,[],,,,,,73.6,0.0,u,0.0,True,870.7999999970198,53.0,60.0,40.0,False,,225.33040096729312,[],"[1280, 720]",ColorTask,17.0,27.0,,,HRV,HRV_0012,2022-11-30 18:07:31
,wl-rdm,35,182708,0.0-6.27-0.27,0.0,36.0,,,,,,,[],,,,,,73.6,1.0,i,1.0,True,746.8999999985099,45.0,60.0,40.0,False,,355.8990401872095,[],"[1280, 720]",ColorTask,18.0,28.0,,,HRV,HRV_0012,2022-11-30 18:07:31
,wl-rdm,36,185143,0.0-6.28-0.28,0.0,37.0,,,,,,,[],,,,,,50.0,0.0,i,1.0,False,1072.7999999970198,65.0,60.0,40.0,False,,286.52893421467934,[],"[1280, 720]",ColorTask,17.0,29.0,,,HRV,HRV_0012,2022-11-30 18:07:31
,wl-rdm,37,188212,0.0-6.29-0.29,0.0,38.0,,,,,,,[],,,,,,50.0,1.0,i,1.0,True,1723.1000000014901,104.0,60.0,40.0,False,,281.1412444446238,[],"[1280, 720]",ColorTask,18.0,30.0,,,HRV,HRV_0012,2022-11-30 18:07:31
,wl-rdm,38,190114,0.0-6.30-0.30,0.0,39.0,,,,,,,[],,,,,,87.9,1.0,i,1.0,True,618.9000000059605,38.0,60.0,40.0,False,,212.17614915408106,[],"[1280, 720]",ColorTask,19.0,31.0,,,HRV,HRV_0012,2022-11-30 18:07:31
,wl-rdm,39,191965,0.0-6.31-0.31,0.0,40.0,,,,,,,[],,,,,,73.6,1.0,i,1.0,True,503.1000000014901,31.0,60.0,40.0,False,,270.8534314130038,[],"[1280, 720]",ColorTask,20.0,32.0,,,HRV,HRV_0012,2022-11-30 18:07:31
,wl-rdm,40,194167,0.0-6.32-0.32,0.0,41.0,,,,,,,[],,,,,,73.6,0.0,u,0.0,True,863.5,52.0,60.0,40.0,False,,271.373279563545,[],"[1280, 720]",ColorTask,21.0,33.0,,,HRV,HRV_0012,2022-11-30 18:07:31
,wl-rdm,41,197303,0.0-6.33-0.33,0.0,42.0,,,,,,,[],,,,,,56.4,0.0,i,1.0,False,1838.0,111.0,60.0,40.0,False,,227.44995699485875,[],"[1280, 720]",ColorTask,20.0,34.0,,,HRV,HRV_0012,2022-11-30 18:07:31
,wl-rdm,42,199671,0.0-6.34-0.34,0.0,43.0,,,,,,,[],,,,,,50.0,0.0,i,1.0,False,1068.1999999955297,65.0,60.0,40.0,False,,231.93518719578418,[],"[1280, 720]",ColorTask,19.0,35.0,,,HRV,HRV_0012,2022-11-30 18:07:31
,wl-rdm,43,202257,0.0-6.35-0.35,0.0,44.0,,,,,,,[],,,,,,50.0,1.0,i,1.0,True,1158.1000000014901,70.0,60.0,40.0,False,,363.83523890482127,[],"[1280, 720]",ColorTask,20.0,36.0,,,HRV,HRV_0012,2022-11-30 18:07:31
,wl-rdm,44,204442,0.0-6.36-0.36,0.0,45.0,,,,,,,[],,,,,,56.4,0.0,i,1.0,False,885.0,54.0,60.0,40.0,False,,217.3187398133886,[],"[1280, 720]",ColorTask,19.0,37.0,,,HRV,HRV_0012,2022-11-30 18:07:31
,wl-rdm,45,206861,0.0-6.37-0.37,0.0,46.0,,,,,,,[],,,,,,62.5,0.0,u,0.0,True,1122.8999999985099,68.0,60.0,40.0,False,,221.65175636566255,[],"[1280, 720]",ColorTask,20.0,38.0,,,HRV,HRV_0012,2022-11-30 18:07:31
,wl-rdm,46,209896,0.0-6.38-0.38,0.0,47.0,,,,,,,[],,,,,,53.2,0.0,i,1.0,False,1766.0999999940395,106.0,60.0,40.0,False,,210.77373964962896,[],"[1280, 720]",ColorTask,19.0,39.0,,,HRV,HRV_0012,2022-11-30 18:07:31
,wl-rdm,47,212632,0.0-6.39-0.39,0.0,48.0,,,,,,,[],,,,,,50.0,0.0,u,0.0,True,1290.0999999940395,78.0,60.0,40.0,False,,369.0512868390336,[],"[1280, 720]",ColorTask,20.0,40.0,,,HRV,HRV_0012,2022-11-30 18:07:31
,wl-rdm,48,214934,0.0-6.40-0.40,0.0,49.0,,,,,,,[],,,,,,62.5,0.0,u,0.0,True,843.6000000014901,51.0,60.0,40.0,False,,389.2896297641954,[],"[1280, 720]",ColorTask,21.0,41.0,,,HRV,HRV_0012,2022-11-30 18:07:31
,wl-rdm,49,217019,0.0-6.41-0.41,0.0,50.0,,,,,,,[],,,,,,56.4,0.0,u,0.0,True,692.1999999955297,42.0,60.0,40.0,False,,333.3174203198033,[],"[1280, 720]",ColorTask,22.0,42.0,,,HRV,HRV_0012,2022-11-30 18:07:31
,wl-rdm,50,219371,0.0-6.42-0.42,0.0,51.0,,,,,,,[],,,,,,50.0,0.0,i,1.0,False,909.5,55.0,60.0,40.0,False,,380.8496092268264,[],"[1280, 720]",ColorTask,21.0,43.0,,,HRV,HRV_0012,2022-11-30 18:07:31
,wl-rdm,51,222557,0.0-6.43-0.43,0.0,52.0,,,,,,,[],,,,,,53.2,0.0,i,1.0,False,1869.7999999970198,113.0,60.0,40.0,False,,237.48518568703605,[],"[1280, 720]",ColorTask,20.0,44.0,,,HRV,HRV_0012,2022-11-30 18:07:31
,wl-rdm,52,224808,0.0-6.44-0.44,0.0,53.0,,,,,,,[],,,,,,73.6,1.0,i,1.0,True,976.3999999985099,59.0,60.0,40.0,False,,208.56204065902176,[],"[1280, 720]",ColorTask,21.0,45.0,,,HRV,HRV_0012,2022-11-30 18:07:31
,wl-rdm,53,227344,0.0-6.45-0.45,0.0,54.0,,,,,,,[],,,,,,53.2,0.0,u,0.0,True,1216.2000000029802,73.0,60.0,40.0,False,,261.34575171365947,[],"[1280, 720]",ColorTask,22.0,46.0,,,HRV,HRV_0012,2022-11-30 18:07:31
,wl-rdm,54,230079,0.0-6.46-0.46,0.0,55.0,,,,,,,[],,,,,,53.2,0.0,u,0.0,True,1316.7000000029802,79.0,60.0,40.0,False,,365.92866598660737,[],"[1280, 720]",ColorTask,23.0,47.0,,,HRV,HRV_0012,2022-11-30 18:07:31
,wl-rdm,55,232648,0.0-6.47-0.47,0.0,56.0,,,,,,,[],,,,,,56.4,0.0,i,1.0,False,1235.4000000059605,75.0,60.0,40.0,False,,252.02699381261164,[],"[1280, 720]",ColorTask,22.0,48.0,,,HRV,HRV_0012,2022-11-30 18:07:31
,wl-rdm,56,235417,0.0-6.48-0.48,0.0,57.0,,,,,,,[],,,,,,50.0,1.0,u,0.0,False,1500.3999999985099,90.0,60.0,40.0,False,,213.00839916816878,[],"[1280, 720]",ColorTask,21.0,49.0,,,HRV,HRV_0012,2022-11-30 18:07:31
,wl-rdm,57,238069,0.0-6.49-0.49,0.0,58.0,,,,,,,[],,,,,,53.2,1.0,i,1.0,True,1256.9000000059605,76.0,60.0,40.0,False,,327.1691263362759,[],"[1280, 720]",ColorTask,22.0,50.0,,,HRV,HRV_0012,2022-11-30 18:07:31
,wl-rdm,58,240988,0.0-6.50-0.50,0.0,59.0,,,,,,,[],,,,,,62.5,1.0,i,1.0,True,1499.8000000044703,90.0,60.0,40.0,False,,353.7830173247348,[],"[1280, 720]",ColorTask,23.0,51.0,,,HRV,HRV_0012,2022-11-30 18:07:31
,wl-rdm,59,243457,0.0-6.51-0.51,0.0,60.0,,,,,,,[],,,,,,73.6,0.0,u,0.0,True,1041.5000000074506,63.0,60.0,40.0,False,,365.71893179841027,[],"[1280, 720]",ColorTask,24.0,52.0,,,HRV,HRV_0012,2022-11-30 18:07:31
,wl-rdm,60,245575,0.0-6.52-0.52,0.0,61.0,,,,,,,[],,,,,,62.5,1.0,i,1.0,True,841.4000000059605,51.0,60.0,40.0,False,,205.07053462596258,[],"[1280, 720]",ColorTask,25.0,53.0,,,HRV,HRV_0012,2022-11-30 18:07:31
,wl-rdm,61,248077,0.0-6.53-0.53,0.0,62.0,,,,,,,[],,,,,,53.2,1.0,u,0.0,False,1082.4000000059605,65.0,60.0,40.0,False,,358.476249005979,[],"[1280, 720]",ColorTask,24.0,54.0,,,HRV,HRV_0012,2022-11-30 18:07:31
,wl-rdm,62,250463,0.0-6.54-0.54,0.0,63.0,,,,,,,[],,,,,,50.0,1.0,i,1.0,True,941.2000000029802,57.0,60.0,40.0,False,,378.93126324064417,[],"[1280, 720]",ColorTask,25.0,55.0,,,HRV,HRV_0012,2022-11-30 18:07:31
,wl-rdm,63,252931,0.0-6.55-0.55,0.0,64.0,,,,,,,[],,,,,,62.5,0.0,u,0.0,True,1077.9000000059605,65.0,60.0,40.0,False,,324.94585020331635,[],"[1280, 720]",ColorTask,26.0,56.0,,,HRV,HRV_0012,2022-11-30 18:07:31
,wl-rdm,64,255150,0.0-6.56-0.56,0.0,65.0,,,,,,,[],,,,,,53.2,0.0,i,1.0,False,934.5,57.0,60.0,40.0,False,,215.99936541275758,[],"[1280, 720]",ColorTask,25.0,57.0,,,HRV,HRV_0012,2022-11-30 18:07:31
,wl-rdm,65,257201,0.0-6.57-0.57,0.0,66.0,,,,,,,[],,,,,,87.9,0.0,u,0.0,True,617.3999999985099,37.0,60.0,40.0,False,,364.78300423444784,[],"[1280, 720]",ColorTask,26.0,58.0,,,HRV,HRV_0012,2022-11-30 18:07:31
,wl-rdm,66,259036,0.0-6.58-0.58,0.0,67.0,,,,,,,[],,,,,,73.6,1.0,i,1.0,True,507.1000000014901,31.0,60.0,40.0,False,,262.21550434930947,[],"[1280, 720]",ColorTask,27.0,59.0,,,HRV,HRV_0012,2022-11-30 18:07:31
,wl-rdm,67,260921,0.0-6.59-0.59,0.0,68.0,,,,,,,[],,,,,,87.9,1.0,i,1.0,True,603.0,37.0,60.0,40.0,False,,200.21378670338714,[],"[1280, 720]",ColorTask,28.0,60.0,,,HRV,HRV_0012,2022-11-30 18:07:31
,wl-rdm,68,263189,0.0-6.60-0.60,0.0,69.0,,,,,,,[],,,,,,62.5,0.0,u,0.0,True,852.1000000014901,52.0,60.0,40.0,False,,347.4775823374338,[],"[1280, 720]",ColorTask,29.0,61.0,,,HRV,HRV_0012,2022-11-30 18:07:31
,wl-rdm,69,265391,0.0-6.61-0.61,0.0,70.0,,,,,,,[],,,,,,62.5,0.0,i,1.0,False,907.7000000029802,55.0,60.0,40.0,False,,232.11735878321215,[],"[1280, 720]",ColorTask,28.0,62.0,,,HRV,HRV_0012,2022-11-30 18:07:31
,wl-rdm,70,267677,0.0-6.62-0.62,0.0,71.0,,,,,,,[],,,,,,53.2,1.0,i,1.0,True,957.7999999970198,58.0,60.0,40.0,False,,260.204141115591,[],"[1280, 720]",ColorTask,29.0,63.0,,,HRV,HRV_0012,2022-11-30 18:07:31
,wl-rdm,71,269895,0.0-6.63-0.63,0.0,72.0,,,,,,,[],,,,,,62.5,0.0,u,0.0,True,879.1999999955297,53.0,60.0,40.0,False,,276.1024225468468,[],"[1280, 720]",ColorTask,30.0,64.0,,,HRV,HRV_0012,2022-11-30 18:07:31
,wl-rdm,72,272063,0.0-6.64-0.64,0.0,73.0,,,,,,,[],,,,,,56.4,1.0,i,1.0,True,790.3000000044703,48.0,60.0,40.0,False,,302.2379474714053,[],"[1280, 720]",ColorTask,31.0,65.0,,,HRV,HRV_0012,2022-11-30 18:07:31
,wl-rdm,73,274282,0.0-6.65-0.65,0.0,74.0,,,,,,,[],,,,,,73.6,0.0,i,1.0,False,865.1999999955297,52.0,60.0,40.0,False,,297.6464640454145,[],"[1280, 720]",ColorTask,30.0,66.0,,,HRV,HRV_0012,2022-11-30 18:07:31
,wl-rdm,74,276267,0.0-6.66-0.66,0.0,75.0,,,,,,,[],,,,,,62.5,1.0,i,1.0,True,693.2000000029802,42.0,60.0,40.0,False,,227.68482488484648,[],"[1280, 720]",ColorTask,31.0,67.0,,,HRV,HRV_0012,2022-11-30 18:07:31
,wl-rdm,75,278819,0.0-6.67-0.67,0.0,76.0,,,,,,,[],,,,,,73.6,0.0,u,0.0,True,1240.3999999985099,75.0,60.0,40.0,False,,246.04074122198938,[],"[1280, 720]",ColorTask,32.0,68.0,,,HRV,HRV_0012,2022-11-30 18:07:31
,wl-rdm,76,281421,0.0-6.68-0.68,0.0,77.0,,,,,,,[],,,,,,53.2,1.0,i,1.0,True,1232.5,74.0,60.0,40.0,False,,309.151115965904,[],"[1280, 720]",ColorTask,33.0,69.0,,,HRV,HRV_0012,2022-11-30 18:07:31
,wl-rdm,77,283422,0.0-6.69-0.69,0.0,78.0,,,,,,,[],,,,,,73.6,1.0,i,1.0,True,686.5,42.0,60.0,40.0,False,,234.66394372111705,[],"[1280, 720]",ColorTask,34.0,70.0,,,HRV,HRV_0012,2022-11-30 18:07:31
,wl-rdm,78,285374,0.0-6.70-0.70,0.0,79.0,,,,,,,[],,,,,,87.9,0.0,u,0.0,True,648.7000000029802,39.0,60.0,40.0,False,,249.7049028416956,[],"[1280, 720]",ColorTask,35.0,71.0,,,HRV,HRV_0012,2022-11-30 18:07:31
,wl-rdm,79,288477,0.0-6.71-0.71,0.0,80.0,,,,,,,[],,,,,,50.0,0.0,i,1.0,False,1819.0,110.0,60.0,40.0,False,,201.03946076508294,[],"[1280, 720]",ColorTask,34.0,72.0,,,HRV,HRV_0012,2022-11-30 18:07:31
,wl-rdm,80,290511,0.0-6.72-0.72,0.0,81.0,,,,,,,[],,,,,,87.9,1.0,i,1.0,True,617.7999999970198,38.0,60.0,40.0,False,,347.1063360809836,[],"[1280, 720]",ColorTask,35.0,73.0,,,HRV,HRV_0012,2022-11-30 18:07:31
,wl-rdm,81,292863,0.0-6.73-0.73,0.0,82.0,,,,,,,[],,,,,,53.2,0.0,u,0.0,True,1071.7000000029802,65.0,60.0,40.0,False,,207.86968423142,[],"[1280, 720]",ColorTask,36.0,74.0,,,HRV,HRV_0012,2022-11-30 18:07:31
,wl-rdm,82,294715,0.0-6.74-0.74,0.0,83.0,,,,,,,[],,,,,,87.9,0.0,u,0.0,True,521.7999999970198,32.0,60.0,40.0,False,,253.65002367159718,[],"[1280, 720]",ColorTask,37.0,75.0,,,HRV,HRV_0012,2022-11-30 18:07:31
,wl-rdm,83,296583,0.0-6.75-0.75,0.0,84.0,,,,,,,[],,,,,,87.9,0.0,u,0.0,True,424.29999999701977,26.0,60.0,40.0,False,,372.67566190393813,[],"[1280, 720]",ColorTask,38.0,76.0,,,HRV,HRV_0012,2022-11-30 18:07:31
,wl-rdm,84,299819,0.0-6.76-0.76,0.0,85.0,,,,,,,[],,,,,,53.2,0.0,i,1.0,False,1926.1999999955297,116.0,60.0,40.0,False,,242.74238748457674,[],"[1280, 720]",ColorTask,37.0,77.0,,,HRV,HRV_0012,2022-11-30 18:07:31
,wl-rdm,85,302304,0.0-6.77-0.77,0.0,86.0,,,,,,,[],,,,,,50.0,1.0,u,0.0,False,1132.9000000059605,68.0,60.0,40.0,False,,294.8643061953481,[],"[1280, 720]",ColorTask,36.0,78.0,,,HRV,HRV_0012,2022-11-30 18:07:31
,wl-rdm,86,304456,0.0-6.78-0.78,0.0,87.0,,,,,,,[],,,,,,62.5,1.0,i,1.0,True,747.7000000029802,45.0,60.0,40.0,False,,347.92409513176995,[],"[1280, 720]",ColorTask,37.0,79.0,,,HRV,HRV_0012,2022-11-30 18:07:31
,wl-rdm,87,306341,0.0-6.79-0.79,0.0,88.0,,,,,,,[],,,,,,56.4,1.0,i,1.0,True,611.6000000014901,37.0,60.0,40.0,False,,210.57105165935852,[],"[1280, 720]",ColorTask,38.0,80.0,,,HRV,HRV_0012,2022-11-30 18:07:31
,wl-rdm,88,308860,0.0-6.80-0.80,0.0,89.0,,,,,,,[],,,,,,53.2,1.0,i,1.0,True,1151.6000000014901,70.0,60.0,40.0,False,,298.73274367713583,[],"[1280, 720]",ColorTask,39.0,81.0,,,HRV,HRV_0012,2022-11-30 18:07:31
,wl-rdm,89,310711,0.0-6.81-0.81,0.0,90.0,,,,,,,[],,,,,,87.9,0.0,u,0.0,True,531.3999999985099,32.0,60.0,40.0,False,,264.2578765326146,[],"[1280, 720]",ColorTask,40.0,82.0,,,HRV,HRV_0012,2022-11-30 18:07:31
,wl-rdm,90,312529,0.0-6.82-0.82,0.0,91.0,,,,,,,[],,,,,,87.9,0.0,u,0.0,True,471.70000000298023,29.0,60.0,40.0,False,,273.89239372028135,[],"[1280, 720]",ColorTask,41.0,83.0,,,HRV,HRV_0012,2022-11-30 18:07:31
,wl-rdm,91,314464,0.0-6.83-0.83,0.0,92.0,,,,,,,[],,,,,,87.9,1.0,i,1.0,True,548.6000000014901,33.0,60.0,40.0,False,,323.0267350084886,[],"[1280, 720]",ColorTask,42.0,84.0,,,HRV,HRV_0012,2022-11-30 18:07:31
,wl-rdm,92,317233,0.0-6.84-0.84,0.0,93.0,,,,,,,[],,,,,,56.4,0.0,u,0.0,True,1431.5,86.0,60.0,40.0,False,,280.70840078385623,[],"[1280, 720]",ColorTask,43.0,85.0,,,HRV,HRV_0012,2022-11-30 18:07:31
,wl-rdm,93,319585,0.0-6.85-0.85,0.0,94.0,,,,,,,[],,,,,,62.5,0.0,u,0.0,True,929.3999999985099,56.0,60.0,40.0,False,,350.89224348369555,[],"[1280, 720]",ColorTask,44.0,86.0,,,HRV,HRV_0012,2022-11-30 18:07:31
,wl-rdm,94,321653,0.0-6.86-0.86,0.0,95.0,,,,,,,[],,,,,,50.0,1.0,i,1.0,True,701.3999999985099,43.0,60.0,40.0,False,,284.4947770768927,[],"[1280, 720]",ColorTask,45.0,87.0,,,HRV,HRV_0012,2022-11-30 18:07:31
,wl-rdm,95,324189,0.0-6.87-0.87,0.0,96.0,,,,,,,[],,,,,,53.2,0.0,i,1.0,False,1189.3999999985099,72.0,60.0,40.0,False,,279.7387108351266,[],"[1280, 720]",ColorTask,44.0,88.0,,,HRV,HRV_0012,2022-11-30 18:07:31
,wl-rdm,96,327224,0.0-6.88-0.88,0.0,97.0,,,,,,,[],,,,,,53.2,1.0,u,0.0,False,1756.6999999955297,106.0,60.0,40.0,False,,205.0520993486589,[],"[1280, 720]",ColorTask,43.0,89.0,,,HRV,HRV_0012,2022-11-30 18:07:31
,wl-rdm,97,329343,0.0-6.89-0.89,0.0,98.0,,,,,,,[],,,,,,56.4,1.0,i,1.0,True,671.8999999985099,41.0,60.0,40.0,False,,376.1137051465614,[],"[1280, 720]",ColorTask,44.0,90.0,,,HRV,HRV_0012,2022-11-30 18:07:31
,wl-rdm,98,331261,0.0-6.90-0.90,0.0,99.0,,,,,,,[],,,,,,62.5,1.0,i,1.0,True,634.9000000059605,39.0,60.0,40.0,False,,209.10954473007843,[],"[1280, 720]",ColorTask,45.0,91.0,,,HRV,HRV_0012,2022-11-30 18:07:31
,wl-rdm,99,333046,0.0-6.91-0.91,0.0,100.0,,,,,,,[],,,,,,50.0,1.0,i,1.0,True,394.5,24.0,60.0,40.0,False,,321.7655917254984,[],"[1280, 720]",ColorTask,46.0,92.0,,,HRV,HRV_0012,2022-11-30 18:07:31
,wl-rdm,100,335831,0.0-6.92-0.92,0.0,101.0,,,,,,,[],,,,,,56.4,1.0,u,0.0,False,1428.5999999940395,86.0,60.0,40.0,False,,295.99273256299733,[],"[1280, 720]",ColorTask,45.0,93.0,,,HRV,HRV_0012,2022-11-30 18:07:31
,wl-rdm,101,337866,0.0-6.93-0.93,0.0,102.0,,,,,,,[],,,,,,50.0,1.0,i,1.0,True,662.6999999955297,40.0,60.0,40.0,False,,315.9454294999438,[],"[1280, 720]",ColorTask,46.0,94.0,,,HRV,HRV_0012,2022-11-30 18:07:31
,wl-rdm,102,339751,0.0-6.94-0.94,0.0,103.0,,,,,,,[],,,,,,62.5,0.0,u,0.0,True,544.8999999910593,33.0,60.0,40.0,False,,280.65461863403937,[],"[1280, 720]",ColorTask,47.0,95.0,,,HRV,HRV_0012,2022-11-30 18:07:31
,wl-rdm,103,341936,0.0-6.95-0.95,0.0,104.0,,,,,,,[],,,,,,56.4,0.0,u,0.0,True,736.3999999985099,45.0,60.0,40.0,False,,366.9382298714556,[],"[1280, 720]",ColorTask,48.0,96.0,,,HRV,HRV_0012,2022-11-30 18:07:31
,wl-rdm,104,343721,0.0-6.96-0.96,0.0,105.0,,,,,,,[],,,,,,50.0,0.0,u,0.0,True,460.6000000014901,28.0,60.0,40.0,False,,252.90983206140504,[],"[1280, 720]",ColorTask,49.0,97.0,,,HRV,HRV_0012,2022-11-30 18:07:31
,wl-rdm,105,345506,0.0-6.97-0.97,0.0,106.0,,,,,,,[],,,,,,53.2,1.0,u,0.0,False,435.40000000596046,27.0,60.0,40.0,False,,281.9862989561402,[],"[1280, 720]",ColorTask,48.0,98.0,,,HRV,HRV_0012,2022-11-30 18:07:31
,wl-rdm,106,347891,0.0-6.98-0.98,0.0,107.0,,,,,,,[],,,,,,50.0,1.0,i,1.0,True,1077.5,65.0,60.0,40.0,False,,244.69395491191412,[],"[1280, 720]",ColorTask,49.0,99.0,,,HRV,HRV_0012,2022-11-30 18:07:31
,wl-rdm,107,349859,0.0-6.99-0.99,0.0,108.0,,,,,,,[],,,,,,73.6,0.0,u,0.0,True,693.0000000074506,42.0,60.0,40.0,False,,212.25299103773833,[],"[1280, 720]",ColorTask,50.0,100.0,,,HRV,HRV_0012,2022-11-30 18:07:31
,wl-rdm,108,351828,0.0-6.100-0.100,0.0,109.0,,,,,,,[],,,,,,87.9,1.0,i,1.0,True,516.2000000029802,31.0,60.0,40.0,False,,385.430882819717,[],"[1280, 720]",ColorTask,51.0,101.0,,,HRV,HRV_0012,2022-11-30 18:07:31
,wl-rdm,109,354363,0.0-6.101-0.101,0.0,110.0,,,,,,,[],,,,,,56.4,1.0,u,0.0,False,1220.4000000059605,74.0,60.0,40.0,False,,236.230696146441,[],"[1280, 720]",ColorTask,50.0,102.0,,,HRV,HRV_0012,2022-11-30 18:07:31
,wl-rdm,110,356532,0.0-6.102-0.102,0.0,111.0,,,,,,,[],,,,,,62.5,1.0,i,1.0,True,753.6000000014901,46.0,60.0,40.0,False,,334.4385595354602,[],"[1280, 720]",ColorTask,51.0,103.0,,,HRV,HRV_0012,2022-11-30 18:07:31
,wl-rdm,111,358433,0.0-6.103-0.103,0.0,112.0,,,,,,,[],,,,,,87.9,1.0,i,1.0,True,554.1999999955297,34.0,60.0,40.0,False,,278.894358175501,[],"[1280, 720]",ColorTask,52.0,104.0,,,HRV,HRV_0012,2022-11-30 18:07:31
,wl-rdm,112,360551,0.0-6.104-0.104,0.0,113.0,,,,,,,[],,,,,,73.6,0.0,u,0.0,True,666.7000000029802,40.0,60.0,40.0,False,,388.5103334804454,[],"[1280, 720]",ColorTask,53.0,105.0,,,HRV,HRV_0012,2022-11-30 18:07:31
,wl-rdm,113,362336,0.0-6.105-0.105,0.0,114.0,,,,,,,[],,,,,,62.5,0.0,u,0.0,True,451.0,28.0,60.0,40.0,False,,264.1204181265203,[],"[1280, 720]",ColorTask,54.0,106.0,,,HRV,HRV_0012,2022-11-30 18:07:31
,wl-rdm,114,364104,0.0-6.106-0.106,0.0,115.0,,,,,,,[],,,,,,62.5,1.0,i,1.0,True,475.80000000447035,29.0,60.0,40.0,False,,232.64029078195415,[],"[1280, 720]",ColorTask,55.0,107.0,,,HRV,HRV_0012,2022-11-30 18:07:31
,wl-rdm,115,366556,0.0-6.107-0.107,0.0,116.0,,,,,,,[],,,,,,53.2,0.0,u,0.0,True,1055.1000000014901,64.0,60.0,40.0,False,,323.48721180970483,[],"[1280, 720]",ColorTask,56.0,108.0,,,HRV,HRV_0012,2022-11-30 18:07:31
,wl-html-keyboard-response,116,438578,0.0-7.0-0.0,1.0,117.0,,,,,,,,70014.19999999553,1.0,0,,,,,,,,,,,,,,,,,,,,,,HRV,HRV_0012,2022-11-30 18:07:31
,wl-rdm,117,441016,0.0-8.0-0.0,1.0,118.0,,,,,,,[],,,,,,50.0,0.0,i,1.0,False,1129.5,68.0,60.0,40.0,False,,260.0089599300797,[],"[1280, 720]",ColorTask,55.0,1.0,,,HRV,HRV_0012,2022-11-30 18:07:31
,wl-rdm,118,443368,0.0-8.1-0.1,1.0,119.0,,,,,,,[],,,,,,50.0,1.0,i,1.0,True,1059.8999999985099,64.0,60.0,40.0,False,,231.5820584341859,[],"[1280, 720]",ColorTask,56.0,2.0,,,HRV,HRV_0012,2022-11-30 18:07:31
,wl-rdm,119,445403,0.0-8.2-0.2,1.0,120.0,,,,,,,[],,,,,,53.2,1.0,i,1.0,True,746.7000000029802,45.0,60.0,40.0,False,,227.8255925224441,[],"[1280, 720]",ColorTask,57.0,3.0,,,HRV,HRV_0012,2022-11-30 18:07:31
,wl-rdm,120,447606,0.0-8.3-0.3,1.0,121.0,,,,,,,[],,,,,,73.6,0.0,u,0.0,True,759.1000000014901,46.0,60.0,40.0,False,,372.342517909021,[],"[1280, 720]",ColorTask,58.0,4.0,,,HRV,HRV_0012,2022-11-30 18:07:31
,wl-rdm,121,449540,0.0-8.4-0.4,1.0,122.0,,,,,,,[],,,,,,87.9,0.0,u,0.0,True,513.0,31.0,60.0,40.0,False,,360.26368304936847,[],"[1280, 720]",ColorTask,59.0,5.0,,,HRV,HRV_0012,2022-11-30 18:07:31
,wl-rdm,122,451475,0.0-8.5-0.5,1.0,123.0,,,,,,,[],,,,,,50.0,1.0,u,0.0,False,544.7000000029802,33.0,60.0,40.0,False,,311.88796217052874,[],"[1280, 720]",ColorTask,58.0,6.0,,,HRV,HRV_0012,2022-11-30 18:07:31
,wl-rdm,123,454044,0.0-8.6-0.6,1.0,124.0,,,,,,,[],,,,,,62.5,0.0,u,0.0,True,1193.0,72.0,60.0,40.0,False,,314.9920715842611,[],"[1280, 720]",ColorTask,59.0,7.0,,,HRV,HRV_0012,2022-11-30 18:07:31
,wl-rdm,124,455878,0.0-8.7-0.7,1.0,125.0,,,,,,,[],,,,,,87.9,0.0,u,0.0,True,489.90000000596046,30.0,60.0,40.0,False,,275.90165421727727,[],"[1280, 720]",ColorTask,60.0,8.0,,,HRV,HRV_0012,2022-11-30 18:07:31
,wl-rdm,125,457997,0.0-8.8-0.8,1.0,126.0,,,,,,,[],,,,,,56.4,1.0,i,1.0,True,809.2000000029802,49.0,60.0,40.0,False,,237.62996179976983,[],"[1280, 720]",ColorTask,61.0,9.0,,,HRV,HRV_0012,2022-11-30 18:07:31
,wl-rdm,126,461016,0.0-8.9-0.9,1.0,127.0,,,,,,,[],,,,,,62.5,0.0,u,0.0,True,1584.2000000029802,95.0,60.0,40.0,False,,371.20568575829316,[],"[1280, 720]",ColorTask,62.0,10.0,,,HRV,HRV_0012,2022-11-30 18:07:31
,wl-rdm,127,464002,0.0-8.10-0.10,1.0,128.0,,,,,,,[],,,,,,50.0,0.0,u,0.0,True,1541.3999999910593,93.0,60.0,40.0,False,,372.50500137384006,[],"[1280, 720]",ColorTask,63.0,11.0,,,HRV,HRV_0012,2022-11-30 18:07:31
,wl-rdm,128,466170,0.0-8.11-0.11,1.0,129.0,,,,,,,[],,,,,,62.5,1.0,i,1.0,True,786.7000000029802,48.0,60.0,40.0,False,,290.4408926094852,[],"[1280, 720]",ColorTask,64.0,12.0,,,HRV,HRV_0012,2022-11-30 18:07:31
,wl-rdm,129,468772,0.0-8.12-0.12,1.0,130.0,,,,,,,[],,,,,,56.4,0.0,u,0.0,True,1165.9000000059605,70.0,60.0,40.0,False,,371.5087780981948,[],"[1280, 720]",ColorTask,65.0,13.0,,,HRV,HRV_0012,2022-11-30 18:07:31
,wl-rdm,130,471458,0.0-8.13-0.13,1.0,131.0,,,,,,,[],,,,,,56.4,0.0,u,0.0,True,1405.7999999970198,85.0,60.0,40.0,False,,202.51462486343692,[],"[1280, 720]",ColorTask,66.0,14.0,,,HRV,HRV_0012,2022-11-30 18:07:31
,wl-rdm,131,473326,0.0-8.14-0.14,1.0,132.0,,,,,,,[],,,,,,73.6,0.0,u,0.0,True,571.5,35.0,60.0,40.0,False,,223.3583995335094,[],"[1280, 720]",ColorTask,67.0,15.0,,,HRV,HRV_0012,2022-11-30 18:07:31
,wl-rdm,132,475294,0.0-8.15-0.15,1.0,133.0,,,,,,,[],,,,,,56.4,1.0,i,1.0,True,551.6999999955297,34.0,60.0,40.0,False,,343.86425408664365,[],"[1280, 720]",ColorTask,68.0,16.0,,,HRV,HRV_0012,2022-11-30 18:07:31
,wl-rdm,133,477179,0.0-8.16-0.16,1.0,134.0,,,,,,,[],,,,,,73.6,0.0,u,0.0,True,601.3999999985099,37.0,60.0,40.0,False,,201.0555136243595,[],"[1280, 720]",ColorTask,69.0,17.0,,,HRV,HRV_0012,2022-11-30 18:07:31
,wl-rdm,134,479130,0.0-8.17-0.17,1.0,135.0,,,,,,,[],,,,,,87.9,1.0,i,1.0,True,592.3000000044703,36.0,60.0,40.0,False,,290.6080822775916,[],"[1280, 720]",ColorTask,70.0,18.0,,,HRV,HRV_0012,2022-11-30 18:07:31
,wl-rdm,135,482166,0.0-8.18-0.18,1.0,136.0,,,,,,,[],,,,,,56.4,1.0,i,1.0,True,1720.4000000059605,104.0,60.0,40.0,False,,246.53036159870436,[],"[1280, 720]",ColorTask,71.0,19.0,,,HRV,HRV_0012,2022-11-30 18:07:31
,wl-rdm,136,484034,0.0-8.19-0.19,1.0,137.0,,,,,,,[],,,,,,73.6,0.0,u,0.0,True,585.0,36.0,60.0,40.0,False,,213.37647211315326,[],"[1280, 720]",ColorTask,72.0,20.0,,,HRV,HRV_0012,2022-11-30 18:07:31
,wl-rdm,137,486053,0.0-8.20-0.20,1.0,138.0,,,,,,,[],,,,,,87.9,1.0,i,1.0,True,658.6000000014901,40.0,60.0,40.0,False,,292.237330722639,[],"[1280, 720]",ColorTask,73.0,21.0,,,HRV,HRV_0012,2022-11-30 18:07:31
,wl-rdm,138,487921,0.0-8.21-0.21,1.0,139.0,,,,,,,[],,,,,,73.6,0.0,u,0.0,True,521.6000000014901,32.0,60.0,40.0,False,,275.71431055640585,[],"[1280, 720]",ColorTask,74.0,22.0,,,HRV,HRV_0012,2022-11-30 18:07:31
,wl-rdm,139,489789,0.0-8.22-0.22,1.0,140.0,,,,,,,[],,,,,,73.6,0.0,u,0.0,True,487.8999999985099,30.0,60.0,40.0,False,,315.86971135425875,[],"[1280, 720]",ColorTask,75.0,23.0,,,HRV,HRV_0012,2022-11-30 18:07:31
,wl-rdm,140,492341,0.0-8.23-0.23,1.0,141.0,,,,,,,[],,,,,,62.5,0.0,u,0.0,True,1239.8000000044703,75.0,60.0,40.0,False,,240.0646869416226,[],"[1280, 720]",ColorTask,76.0,24.0,,,HRV,HRV_0012,2022-11-30 18:07:31
,wl-rdm,141,494560,0.0-8.24-0.24,1.0,142.0,,,,,,,[],,,,,,62.5,0.0,u,0.0,True,915.0,55.0,60.0,40.0,False,,249.74242864625063,[],"[1280, 720]",ColorTask,77.0,25.0,,,HRV,HRV_0012,2022-11-30 18:07:31
,wl-rdm,142,497429,0.0-8.25-0.25,1.0,143.0,,,,,,,[],,,,,,50.0,0.0,i,1.0,False,1475.8999999985099,89.0,60.0,40.0,False,,324.23745778438354,[],"[1280, 720]",ColorTask,76.0,26.0,,,HRV,HRV_0012,2022-11-30 18:07:31
,wl-rdm,143,499447,0.0-8.26-0.26,1.0,144.0,,,,,,,[],,,,,,62.5,1.0,i,1.0,True,702.4000000059605,43.0,60.0,40.0,False,,244.10910884112116,[],"[1280, 720]",ColorTask,77.0,27.0,,,HRV,HRV_0012,2022-11-30 18:07:31
,wl-rdm,144,501415,0.0-8.27-0.27,1.0,145.0,,,,,,,[],,,,,,50.0,1.0,i,1.0,True,695.7999999970198,42.0,60.0,40.0,False,,203.9332590787487,[],"[1280, 720]",ColorTask,78.0,28.0,,,HRV,HRV_0012,2022-11-30 18:07:31
,wl-rdm,145,503317,0.0-8.28-0.28,1.0,146.0,,,,,,,[],,,,,,73.6,1.0,i,1.0,True,607.8000000044703,37.0,60.0,40.0,False,,226.74160024800642,[],"[1280, 720]",ColorTask,79.0,29.0,,,HRV,HRV_0012,2022-11-30 18:07:31
,wl-rdm,146,505769,0.0-8.29-0.29,1.0,147.0,,,,,,,[],,,,,,53.2,0.0,u,0.0,True,1099.7000000029802,66.0,60.0,40.0,False,,287.3429825132818,[],"[1280, 720]",ColorTask,80.0,30.0,,,HRV,HRV_0012,2022-11-30 18:07:31
,wl-rdm,147,507787,0.0-8.30-0.30,1.0,148.0,,,,,,,[],,,,,,53.2,0.0,i,1.0,False,707.2999999970198,43.0,60.0,40.0,False,,247.93108101516034,[],"[1280, 720]",ColorTask,79.0,31.0,,,HRV,HRV_0012,2022-11-30 18:07:31
,wl-rdm,148,509955,0.0-8.31-0.31,1.0,149.0,,,,,,,[],,,,,,73.6,1.0,i,1.0,True,900.1999999955297,54.0,60.0,40.0,False,,211.62499411830692,[],"[1280, 720]",ColorTask,80.0,32.0,,,HRV,HRV_0012,2022-11-30 18:07:31
,wl-rdm,149,512174,0.0-8.32-0.32,1.0,150.0,,,,,,,[],,,,,,73.6,1.0,i,1.0,True,843.5,51.0,60.0,40.0,False,,303.6736029162449,[],"[1280, 720]",ColorTask,81.0,33.0,,,HRV,HRV_0012,2022-11-30 18:07:31
,wl-rdm,150,514042,0.0-8.33-0.33,1.0,151.0,,,,,,,[],,,,,,53.2,1.0,i,1.0,True,543.7000000029802,33.0,60.0,40.0,False,,265.38978707710515,[],"[1280, 720]",ColorTask,82.0,34.0,,,HRV,HRV_0012,2022-11-30 18:07:31
,wl-rdm,151,516194,0.0-8.34-0.34,1.0,152.0,,,,,,,[],,,,,,62.5,0.0,u,0.0,True,824.1999999955297,50.0,60.0,40.0,False,,259.27540026469416,[],"[1280, 720]",ColorTask,83.0,35.0,,,HRV,HRV_0012,2022-11-30 18:07:31
,wl-rdm,152,518179,0.0-8.35-0.35,1.0,153.0,,,,,,,[],,,,,,56.4,1.0,i,1.0,True,580.4999999925494,35.0,60.0,40.0,False,,336.1610315095405,[],"[1280, 720]",ColorTask,84.0,36.0,,,HRV,HRV_0012,2022-11-30 18:07:31
,wl-rdm,153,520581,0.0-8.36-0.36,1.0,154.0,,,,,,,[],,,,,,53.2,0.0,u,0.0,True,1011.6000000014901,61.0,60.0,40.0,False,,317.97076490873764,[],"[1280, 720]",ColorTask,85.0,37.0,,,HRV,HRV_0012,2022-11-30 18:07:31
,wl-rdm,154,522482,0.0-8.37-0.37,1.0,155.0,,,,,,,[],,,,,,73.6,1.0,i,1.0,True,626.0,38.0,60.0,40.0,False,,206.91347669353135,[],"[1280, 720]",ColorTask,86.0,38.0,,,HRV,HRV_0012,2022-11-30 18:07:31
,wl-rdm,155,524851,0.0-8.38-0.38,1.0,156.0,,,,,,,[],,,,,,50.0,0.0,u,0.0,True,1005.2999999970198,61.0,60.0,40.0,False,,284.4297657956472,[],"[1280, 720]",ColorTask,87.0,39.0,,,HRV,HRV_0012,2022-11-30 18:07:31
,wl-rdm,156,526802,0.0-8.39-0.39,1.0,157.0,,,,,,,[],,,,,,87.9,0.0,i,1.0,False,587.2999999970198,36.0,60.0,40.0,False,,285.63586769139374,[],"[1280, 720]",ColorTask,86.0,40.0,,,HRV,HRV_0012,2022-11-30 18:07:31
,wl-rdm,157,529004,0.0-8.40-0.40,1.0,158.0,,,,,,,[],,,,,,73.6,0.0,u,0.0,True,742.7000000029802,45.0,60.0,40.0,False,,399.83074742755076,[],"[1280, 720]",ColorTask,87.0,41.0,,,HRV,HRV_0012,2022-11-30 18:07:31
,wl-rdm,158,531890,0.0-8.41-0.41,1.0,159.0,,,,,,,[],,,,,,62.5,0.0,u,0.0,True,1452.5,88.0,60.0,40.0,False,,363.76251573576894,[],"[1280, 720]",ColorTask,88.0,42.0,,,HRV,HRV_0012,2022-11-30 18:07:31
,wl-rdm,159,534125,0.0-8.42-0.42,1.0,160.0,,,,,,,[],,,,,,50.0,1.0,i,1.0,True,874.2999999970198,53.0,60.0,40.0,False,,298.1309245065036,[],"[1280, 720]",ColorTask,89.0,43.0,,,HRV,HRV_0012,2022-11-30 18:07:31
,wl-rdm,160,535993,0.0-8.43-0.43,1.0,161.0,,,,,,,[],,,,,,62.5,1.0,i,1.0,True,540.7999999970198,33.0,60.0,40.0,False,,262.0394301946109,[],"[1280, 720]",ColorTask,90.0,44.0,,,HRV,HRV_0012,2022-11-30 18:07:31
,wl-rdm,161,538395,0.0-8.44-0.44,1.0,162.0,,,,,,,[],,,,,,50.0,0.0,u,0.0,True,1080.8999999985099,65.0,60.0,40.0,False,,266.6036937445124,[],"[1280, 720]",ColorTask,91.0,45.0,,,HRV,HRV_0012,2022-11-30 18:07:31
,wl-rdm,162,540914,0.0-8.45-0.45,1.0,163.0,,,,,,,[],,,,,,53.2,1.0,u,0.0,False,1151.8999999985099,70.0,60.0,40.0,False,,296.2679190922829,[],"[1280, 720]",ColorTask,90.0,46.0,,,HRV,HRV_0012,2022-11-30 18:07:31
,wl-rdm,163,542799,0.0-8.46-0.46,1.0,164.0,,,,,,,[],,,,,,73.6,1.0,i,1.0,True,517.5,32.0,60.0,40.0,False,,286.89184848998826,[],"[1280, 720]",ColorTask,91.0,47.0,,,HRV,HRV_0012,2022-11-30 18:07:31
,wl-rdm,164,544867,0.0-8.47-0.47,1.0,165.0,,,,,,,[],,,,,,87.9,1.0,i,1.0,True,631.5,38.0,60.0,40.0,False,,376.1971875704646,[],"[1280, 720]",ColorTask,92.0,48.0,,,HRV,HRV_0012,2022-11-30 18:07:31
,wl-rdm,165,547636,0.0-8.48-0.48,1.0,166.0,,,,,,,[],,,,,,62.5,1.0,i,1.0,True,1500.3000000044703,90.0,60.0,40.0,False,,216.25315996839504,[],"[1280, 720]",ColorTask,93.0,49.0,,,HRV,HRV_0012,2022-11-30 18:07:31
,wl-rdm,166,550038,0.0-8.49-0.49,1.0,167.0,,,,,,,[],,,,,,53.2,0.0,u,0.0,True,964.0,58.0,60.0,40.0,False,,375.4464063577211,[],"[1280, 720]",ColorTask,94.0,50.0,,,HRV,HRV_0012,2022-11-30 18:07:31
,wl-rdm,167,552073,0.0-8.50-0.50,1.0,168.0,,,,,,,[],,,,,,87.9,0.0,u,0.0,True,572.5999999940395,35.0,60.0,40.0,False,,398.5128045884999,[],"[1280, 720]",ColorTask,95.0,51.0,,,HRV,HRV_0012,2022-11-30 18:07:31
,wl-rdm,168,554008,0.0-8.51-0.51,1.0,169.0,,,,,,,[],,,,,,87.9,0.0,u,0.0,True,483.5,29.0,60.0,40.0,False,,387.2087429224522,[],"[1280, 720]",ColorTask,96.0,52.0,,,HRV,HRV_0012,2022-11-30 18:07:31
,wl-rdm,169,555876,0.0-8.52-0.52,1.0,170.0,,,,,,,[],,,,,,56.4,0.0,u,0.0,True,471.30000000447035,29.0,60.0,40.0,False,,332.3139700900365,[],"[1280, 720]",ColorTask,97.0,53.0,,,HRV,HRV_0012,2022-11-30 18:07:31
,wl-rdm,170,558028,0.0-8.53-0.53,1.0,171.0,,,,,,,[],,,,,,56.4,0.0,u,0.0,True,704.7000000029802,43.0,60.0,40.0,False,,367.8338076114479,[],"[1280, 720]",ColorTask,98.0,54.0,,,HRV,HRV_0012,2022-11-30 18:07:31
,wl-rdm,171,559912,0.0-8.54-0.54,1.0,172.0,,,,,,,[],,,,,,73.6,0.0,u,0.0,True,568.5,35.0,60.0,40.0,False,,239.11432781078318,[],"[1280, 720]",ColorTask,99.0,55.0,,,HRV,HRV_0012,2022-11-30 18:07:31
,wl-rdm,172,562264,0.0-8.55-0.55,1.0,173.0,,,,,,,[],,,,,,62.5,1.0,i,1.0,True,949.1000000014901,57.0,60.0,40.0,False,,337.5202917022058,[],"[1280, 720]",ColorTask,100.0,56.0,,,HRV,HRV_0012,2022-11-30 18:07:31
,wl-rdm,173,564549,0.0-8.56-0.56,1.0,174.0,,,,,,,[],,,,,,56.4,1.0,u,0.0,False,885.0,54.0,60.0,40.0,False,,332.9402047337872,[],"[1280, 720]",ColorTask,99.0,57.0,,,HRV,HRV_0012,2022-11-30 18:07:31
,wl-rdm,174,567052,0.0-8.57-0.57,1.0,175.0,,,,,,,[],,,,,,53.2,0.0,u,0.0,True,1173.8999999985099,71.0,60.0,40.0,False,,254.15412123485342,[],"[1280, 720]",ColorTask,100.0,58.0,,,HRV,HRV_0012,2022-11-30 18:07:31
,wl-rdm,175,569754,0.0-8.58-0.58,1.0,176.0,,,,,,,[],,,,,,56.4,0.0,u,0.0,True,1368.8999999985099,83.0,60.0,40.0,False,,261.16624279271167,[],"[1280, 720]",ColorTask,101.0,59.0,,,HRV,HRV_0012,2022-11-30 18:07:31
,wl-rdm,176,572372,0.0-8.59-0.59,1.0,177.0,,,,,,,[],,,,,,50.0,0.0,i,1.0,False,1284.8999999985099,78.0,60.0,40.0,False,,257.6671776996355,[],"[1280, 720]",ColorTask,100.0,60.0,,,HRV,HRV_0012,2022-11-30 18:07:31
,wl-rdm,177,574441,0.0-8.60-0.60,1.0,178.0,,,,,,,[],,,,,,62.5,0.0,u,0.0,True,716.9000000059605,43.0,60.0,40.0,False,,284.0108934914408,[],"[1280, 720]",ColorTask,101.0,61.0,,,HRV,HRV_0012,2022-11-30 18:07:31
,wl-rdm,178,576659,0.0-8.61-0.61,1.0,179.0,,,,,,,[],,,,,,53.2,0.0,u,0.0,True,892.1999999955297,54.0,60.0,40.0,False,,251.3721027813826,[],"[1280, 720]",ColorTask,102.0,62.0,,,HRV,HRV_0012,2022-11-30 18:07:31
,wl-rdm,179,579495,0.0-8.62-0.62,1.0,180.0,,,,,,,[],,,,,,56.4,1.0,i,1.0,True,1436.8999999985099,87.0,60.0,40.0,False,,323.4020830170151,[],"[1280, 720]",ColorTask,103.0,63.0,,,HRV,HRV_0012,2022-11-30 18:07:31
,wl-rdm,180,582097,0.0-8.63-0.63,1.0,181.0,,,,,,,[],,,,,,53.2,1.0,u,0.0,False,1185.3999999985099,72.0,60.0,40.0,False,,337.71581738747415,[],"[1280, 720]",ColorTask,102.0,64.0,,,HRV,HRV_0012,2022-11-30 18:07:31
,wl-rdm,181,583915,0.0-8.64-0.64,1.0,182.0,,,,,,,[],,,,,,87.9,0.0,i,1.0,False,521.6000000014901,32.0,60.0,40.0,False,,229.37973172064602,[],"[1280, 720]",ColorTask,101.0,65.0,,,HRV,HRV_0012,2022-11-30 18:07:31
,wl-rdm,182,586100,0.0-8.65-0.65,1.0,183.0,,,,,,,[],,,,,,53.2,0.0,i,1.0,False,768.1999999955297,47.0,60.0,40.0,False,,348.6435196037952,[],"[1280, 720]",ColorTask,100.0,66.0,,,HRV,HRV_0012,2022-11-30 18:07:31
,wl-rdm,183,588436,0.0-8.66-0.66,1.0,184.0,,,,,,,[],,,,,,56.4,1.0,i,1.0,True,885.2000000029802,54.0,60.0,40.0,False,,377.9436156259268,[],"[1280, 720]",ColorTask,101.0,67.0,,,HRV,HRV_0012,2022-11-30 18:07:31
,wl-rdm,184,590404,0.0-8.67-0.67,1.0,185.0,,,,,,,[],,,,,,56.4,0.0,u,0.0,True,641.5,39.0,60.0,40.0,False,,264.3433959249373,[],"[1280, 720]",ColorTask,102.0,68.0,,,HRV,HRV_0012,2022-11-30 18:07:31
,wl-rdm,185,593389,0.0-8.68-0.68,1.0,186.0,,,,,,,[],,,,,,56.4,0.0,u,0.0,True,1528.8999999985099,92.0,60.0,40.0,False,,398.0257884904736,[],"[1280, 720]",ColorTask,103.0,69.0,,,HRV,HRV_0012,2022-11-30 18:07:31
,wl-rdm,186,595308,0.0-8.69-0.69,1.0,187.0,,,,,,,[],,,,,,87.9,1.0,i,1.0,True,522.6999999880791,32.0,60.0,40.0,False,,330.7021226921565,[],"[1280, 720]",ColorTask,104.0,70.0,,,HRV,HRV_0012,2022-11-30 18:07:31
,wl-rdm,187,597192,0.0-8.70-0.70,1.0,188.0,,,,,,,[],,,,,,50.0,1.0,i,1.0,True,470.8999999985099,29.0,60.0,40.0,False,,345.99003319537917,[],"[1280, 720]",ColorTask,105.0,71.0,,,HRV,HRV_0012,2022-11-30 18:07:31
,wl-rdm,188,599177,0.0-8.71-0.71,1.0,189.0,,,,,,,[],,,,,,73.6,1.0,i,1.0,True,679.7000000029802,41.0,60.0,40.0,False,,249.83554191607618,[],"[1280, 720]",ColorTask,106.0,72.0,,,HRV,HRV_0012,2022-11-30 18:07:31
,wl-rdm,189,601479,0.0-8.72-0.72,1.0,190.0,,,,,,,[],,,,,,87.9,0.0,u,0.0,True,982.3999999985099,59.0,60.0,40.0,False,,262.9995124759676,[],"[1280, 720]",ColorTask,107.0,73.0,,,HRV,HRV_0012,2022-11-30 18:07:31
,wl-rdm,190,603965,0.0-8.73-0.73,1.0,191.0,,,,,,,[],,,,,,53.2,1.0,u,0.0,False,1166.5,70.0,60.0,40.0,False,,262.77813359740367,[],"[1280, 720]",ColorTask,106.0,74.0,,,HRV,HRV_0012,2022-11-30 18:07:31
,wl-rdm,191,606383,0.0-8.74-0.74,1.0,192.0,,,,,,,[],,,,,,62.5,1.0,i,1.0,True,1039.8999999985099,63.0,60.0,40.0,False,,311.405598473488,[],"[1280, 720]",ColorTask,107.0,75.0,,,HRV,HRV_0012,2022-11-30 18:07:31
,wl-rdm,192,609653,0.0-8.75-0.75,1.0,193.0,,,,,,,[],,,,,,53.2,0.0,u,0.0,True,1943.8999999985099,117.0,60.0,40.0,False,,256.9783265990722,[],"[1280, 720]",ColorTask,108.0,76.0,,,HRV,HRV_0012,2022-11-30 18:07:31
,wl-rdm,193,611638,0.0-8.76-0.76,1.0,194.0,,,,,,,[],,,,,,87.9,1.0,i,1.0,True,637.2999999970198,39.0,60.0,40.0,False,,273.5695567524963,[],"[1280, 720]",ColorTask,109.0,77.0,,,HRV,HRV_0012,2022-11-30 18:07:31
,wl-rdm,194,614023,0.0-8.77-0.77,1.0,195.0,,,,,,,[],,,,,,50.0,0.0,u,0.0,True,929.3999999985099,56.0,60.0,40.0,False,,393.39677317197913,[],"[1280, 720]",ColorTask,110.0,78.0,,,HRV,HRV_0012,2022-11-30 18:07:31
,wl-rdm,195,616191,0.0-8.78-0.78,1.0,196.0,,,,,,,[],,,,,,50.0,1.0,i,1.0,True,859.8999999985099,52.0,60.0,40.0,False,,236.39667842948757,[],"[1280, 720]",ColorTask,111.0,79.0,,,HRV,HRV_0012,2022-11-30 18:07:31
,wl-rdm,196,618143,0.0-8.79-0.79,1.0,197.0,,,,,,,[],,,,,,87.9,0.0,u,0.0,True,548.7999999970198,33.0,60.0,40.0,False,,336.15526171533566,[],"[1280, 720]",ColorTask,112.0,80.0,,,HRV,HRV_0012,2022-11-30 18:07:31
,wl-rdm,197,620545,0.0-8.80-0.80,1.0,198.0,,,,,,,[],,,,,,56.4,0.0,u,0.0,True,1042.8999999985099,63.0,60.0,40.0,False,,295.7362656941587,[],"[1280, 720]",ColorTask,113.0,81.0,,,HRV,HRV_0012,2022-11-30 18:07:31
,wl-rdm,198,622696,0.0-8.81-0.81,1.0,199.0,,,,,,,[],,,,,,53.2,1.0,i,1.0,True,752.0,46.0,60.0,40.0,False,,329.97394919274456,[],"[1280, 720]",ColorTask,114.0,82.0,,,HRV,HRV_0012,2022-11-30 18:07:31
,wl-rdm,199,624531,0.0-8.82-0.82,1.0,200.0,,,,,,,[],,,,,,73.6,1.0,i,1.0,True,537.2000000029802,33.0,60.0,40.0,False,,233.27053210899228,[],"[1280, 720]",ColorTask,115.0,83.0,,,HRV,HRV_0012,2022-11-30 18:07:31
,wl-rdm,200,626416,0.0-8.83-0.83,1.0,201.0,,,,,,,[],,,,,,87.9,1.0,i,1.0,True,482.8999999985099,29.0,60.0,40.0,False,,341.5125815362162,[],"[1280, 720]",ColorTask,116.0,84.0,,,HRV,HRV_0012,2022-11-30 18:07:31
,wl-rdm,201,628201,0.0-8.84-0.84,1.0,202.0,,,,,,,[],,,,,,53.2,1.0,i,1.0,True,487.19999999552965,30.0,60.0,40.0,False,,232.23824940129663,[],"[1280, 720]",ColorTask,117.0,85.0,,,HRV,HRV_0012,2022-11-30 18:07:31
,wl-rdm,202,630369,0.0-8.85-0.85,1.0,203.0,,,,,,,[],,,,,,62.5,1.0,i,1.0,True,799.6000000014901,48.0,60.0,40.0,False,,310.41388509070646,[],"[1280, 720]",ColorTask,118.0,86.0,,,HRV,HRV_0012,2022-11-30 18:07:31
,wl-rdm,203,632338,0.0-8.86-0.86,1.0,204.0,,,,,,,[],,,,,,62.5,0.0,i,1.0,False,595.7000000029802,36.0,60.0,40.0,False,,302.3875252453412,[],"[1280, 720]",ColorTask,117.0,87.0,,,HRV,HRV_0012,2022-11-30 18:07:31
,wl-rdm,204,634389,0.0-8.87-0.87,1.0,205.0,,,,,,,[],,,,,,87.9,1.0,i,1.0,True,781.1000000014901,47.0,60.0,40.0,False,,214.02152156498113,[],"[1280, 720]",ColorTask,118.0,88.0,,,HRV,HRV_0012,2022-11-30 18:07:31
,wl-rdm,205,636641,0.0-8.88-0.88,1.0,206.0,,,,,,,[],,,,,,62.5,1.0,i,1.0,True,853.2000000029802,52.0,60.0,40.0,False,,318.7592439345419,[],"[1280, 720]",ColorTask,119.0,89.0,,,HRV,HRV_0012,2022-11-30 18:07:31
,wl-rdm,206,638526,0.0-8.89-0.89,1.0,207.0,,,,,,,[],,,,,,87.9,1.0,i,1.0,True,538.6999999955297,33.0,60.0,40.0,False,,282.0155722719076,[],"[1280, 720]",ColorTask,120.0,90.0,,,HRV,HRV_0012,2022-11-30 18:07:31
,wl-rdm,207,640594,0.0-8.90-0.90,1.0,208.0,,,,,,,[],,,,,,73.6,0.0,u,0.0,True,704.8000000044703,43.0,60.0,40.0,False,,285.9052675999474,[],"[1280, 720]",ColorTask,121.0,91.0,,,HRV,HRV_0012,2022-11-30 18:07:31
,wl-rdm,208,642429,0.0-8.91-0.91,1.0,209.0,,,,,,,[],,,,,,50.0,1.0,u,0.0,False,553.7000000029802,34.0,60.0,40.0,False,,201.352575051281,[],"[1280, 720]",ColorTask,120.0,92.0,,,HRV,HRV_0012,2022-11-30 18:07:31
,wl-rdm,209,644914,0.0-8.92-0.92,1.0,210.0,,,,,,,[],,,,,,50.0,1.0,i,1.0,True,1210.2999999970198,73.0,60.0,40.0,False,,214.75504996503759,[],"[1280, 720]",ColorTask,121.0,93.0,,,HRV,HRV_0012,2022-11-30 18:07:31
,wl-rdm,210,647250,0.0-8.93-0.93,1.0,211.0,,,,,,,[],,,,,,50.0,0.0,i,1.0,False,1040.7999999970198,63.0,60.0,40.0,False,,218.60473288961902,[],"[1280, 720]",ColorTask,120.0,94.0,,,HRV,HRV_0012,2022-11-30 18:07:31
,wl-rdm,211,649401,0.0-8.94-0.94,1.0,212.0,,,,,,,[],,,,,,87.9,1.0,i,1.0,True,802.4000000059605,49.0,60.0,40.0,False,,268.3170877212791,[],"[1280, 720]",ColorTask,121.0,95.0,,,HRV,HRV_0012,2022-11-30 18:07:31
,wl-rdm,212,652787,0.0-8.95-0.95,1.0,213.0,,,,,,,[],,,,,,56.4,1.0,u,0.0,False,2110.9000000059605,127.0,60.0,40.0,False,,209.66104984979313,[],"[1280, 720]",ColorTask,120.0,96.0,,,HRV,HRV_0012,2022-11-30 18:07:31
,wl-rdm,213,654706,0.0-8.96-0.96,1.0,214.0,,,,,,,[],,,,,,73.6,1.0,i,1.0,True,608.1999999955297,37.0,60.0,40.0,False,,238.53799230988668,[],"[1280, 720]",ColorTask,121.0,97.0,,,HRV,HRV_0012,2022-11-30 18:07:31
,wl-rdm,214,657691,0.0-8.97-0.97,1.0,215.0,,,,,,,[],,,,,,50.0,1.0,u,0.0,False,1708.6999999955297,103.0,60.0,40.0,False,,201.0532789732551,[],"[1280, 720]",ColorTask,120.0,98.0,,,HRV,HRV_0012,2022-11-30 18:07:31
,wl-rdm,215,659610,0.0-8.98-0.98,1.0,216.0,,,,,,,[],,,,,,56.4,0.0,u,0.0,True,617.5,38.0,60.0,40.0,False,,229.27704912654434,[],"[1280, 720]",ColorTask,121.0,99.0,,,HRV,HRV_0012,2022-11-30 18:07:31
,wl-rdm,216,662445,0.0-8.99-0.99,1.0,217.0,,,,,,,[],,,,,,53.2,0.0,u,0.0,True,1563.3999999985099,94.0,60.0,40.0,False,,200.74082563834915,[],"[1280, 720]",ColorTask,122.0,100.0,,,HRV,HRV_0012,2022-11-30 18:07:31
,wl-rdm,217,664413,0.0-8.100-0.100,1.0,218.0,,,,,,,[],,,,,,62.5,0.0,u,0.0,True,522.0,32.0,60.0,40.0,False,,367.3395372913019,[],"[1280, 720]",ColorTask,123.0,101.0,,,HRV,HRV_0012,2022-11-30 18:07:31
,wl-rdm,218,666849,0.0-8.101-0.101,1.0,219.0,,,,,,,[],,,,,,56.4,1.0,i,1.0,True,1014.2999999970198,61.0,60.0,40.0,False,,355.13459844692835,[],"[1280, 720]",ColorTask,124.0,102.0,,,HRV,HRV_0012,2022-11-30 18:07:31
,wl-rdm,219,669501,0.0-8.102-0.102,1.0,220.0,,,,,,,[],,,,,,62.5,1.0,u,0.0,False,1242.8999999985099,75.0,60.0,40.0,False,,335.6727123249592,[],"[1280, 720]",ColorTask,123.0,103.0,,,HRV,HRV_0012,2022-11-30 18:07:31
,wl-rdm,220,671769,0.0-8.103-0.103,1.0,221.0,,,,,,,[],,,,,,50.0,0.0,i,1.0,False,912.8999999985099,55.0,60.0,40.0,False,,293.3272988580672,[],"[1280, 720]",ColorTask,122.0,104.0,,,HRV,HRV_0012,2022-11-30 18:07:31
,wl-rdm,221,674738,0.0-8.104-0.104,1.0,222.0,,,,,,,[],,,,,,53.2,1.0,i,1.0,True,1619.0,98.0,60.0,40.0,False,,274.3119728513575,[],"[1280, 720]",ColorTask,123.0,105.0,,,HRV,HRV_0012,2022-11-30 18:07:31
,wl-rdm,222,676690,0.0-8.105-0.105,1.0,223.0,,,,,,,[],,,,,,73.6,1.0,i,1.0,True,589.8999999985099,36.0,60.0,40.0,False,,298.01976609316455,[],"[1280, 720]",ColorTask,124.0,106.0,,,HRV,HRV_0012,2022-11-30 18:07:31
,wl-rdm,223,679259,0.0-8.106-0.106,1.0,224.0,,,,,,,[],,,,,,53.2,1.0,i,1.0,True,1158.5,70.0,60.0,40.0,False,,350.16501421066266,[],"[1280, 720]",ColorTask,125.0,107.0,,,HRV,HRV_0012,2022-11-30 18:07:31
,wl-rdm,224,681177,0.0-8.107-0.107,1.0,225.0,,,,,,,[],,,,,,87.9,0.0,u,0.0,True,564.0,34.0,60.0,40.0,False,,287.36088830041825,[],"[1280, 720]",ColorTask,126.0,108.0,,,HRV,HRV_0012,2022-11-30 18:07:31
,wl-html-button-response,225,684641,0.0-9.0-0.0,,,,,,,,,,3462.2999999970198,,0,,,,,,,,,,,,,,,,,,,,<h3>End of this session. Thank you!</h3><br>,['Close window'],HRV,HRV_0012,2022-11-30 18:07:31
