trialN,stimuli,trialStartTime,trialStartTime_UNIX,stimulus1,stimulus2,stimulus1Bid,stimulus2Bid,delta,selected,rt,rt_UNIX,rt_perfnow,receivedResponse,rsp,trialEndTime,trialDuration,trialEndTime_UNIX,trialDuration_UNIX,exp,subjectId,date
0,"[{'imgObject': {}, 'id': 'rigatoni', 'src': '/static/foodstim60/rigatoni.jpg', 'key': 'u', 'origWidth': 411, 'origHeight': 411, 'width': 411, 'height': 411, 'widthPercent': 0.45, 'rescaleHeight': False, 'trialN': 0, 'loaded': True, 'loadedTime': 1873.5, 'positionName': 'LEFT', 'positionCoords': [817.8, 514.5], 'bid': 0.8200000000000001}, {'imgObject': {}, 'id': 'mashed potato', 'src': '/static/foodstim60/mashed potato.jpg', 'key': 'i', 'origWidth': 409, 'origHeight': 409, 'width': 409, 'height': 409, 'widthPercent': 0.45, 'rescaleHeight': False, 'trialN': 0, 'loaded': True, 'loadedTime': 1878.2000000029802, 'positionName': 'RIGHT', 'positionCoords': [1331.2, 515.5], 'bid': 6.76}]",2108.7999999970198,1669829668881,rigatoni,mashed potato,0.8200000000000001,6.76,5.9399999999999995,mashed potato,1217.2000000029802,1218,1217.5,True,i,3836.39999999851,1727.6000000014901,1669829670609,1728,HRV,HRV_0012,2022-11-30 17:40:05
1,"[{'imgObject': {}, 'id': 'froot loops w milk', 'src': '/static/foodstim60/froot loops w milk.jpg', 'key': 'u', 'origWidth': 410, 'origHeight': 410, 'width': 410, 'height': 410, 'widthPercent': 0.45, 'rescaleHeight': False, 'trialN': 1, 'loaded': True, 'loadedTime': 1917.5, 'positionName': 'LEFT', 'positionCoords': [818.8, 515], 'bid': 3.71}, {'imgObject': {}, 'id': 'rigatoni', 'src': '/static/foodstim60/rigatoni.jpg', 'key': 'i', 'origWidth': 411, 'origHeight': 411, 'width': 411, 'height': 411, 'widthPercent': 0.45, 'rescaleHeight': False, 'trialN': 1, 'loaded': True, 'loadedTime': 1876.8999999985099, 'positionName': 'RIGHT', 'positionCoords': [1331.2, 514.5], 'bid': 0.8200000000000001}]",3836.5,1669829670609,froot loops w milk,rigatoni,3.71,0.8200000000000001,-2.8899999999999997,froot loops w milk,1172.0,1172,1172.2000000029802,True,u,5522.10000000149,1685.6000000014901,1669829672294,1685,HRV,HRV_0012,2022-11-30 17:40:05
2,"[{'imgObject': {}, 'id': 'rigatoni', 'src': '/static/foodstim60/rigatoni.jpg', 'key': 'u', 'origWidth': 411, 'origHeight': 411, 'width': 411, 'height': 411, 'widthPercent': 0.45, 'rescaleHeight': False, 'trialN': 2, 'loaded': True, 'loadedTime': 1873.8999999985099, 'positionName': 'LEFT', 'positionCoords': [817.8, 514.5], 'bid': 0.8200000000000001}, {'imgObject': {}, 'id': 'omelette', 'src': '/static/foodstim60/omelette.jpg', 'key': 'i', 'origWidth': 410, 'origHeight': 409, 'width': 410, 'height': 409, 'widthPercent': 0.45, 'rescaleHeight': False, 'trialN': 2, 'loaded': True, 'loadedTime': 1927.8999999985099, 'positionName': 'RIGHT', 'positionCoords': [1331.2, 515.5], 'bid': 4.96}]",5522.20000000298,1669829672295,rigatoni,omelette,0.8200000000000001,4.96,4.14,omelette,1171.7999999970198,1171,1172.0,True,i,7206.39999999851,1684.1999999955297,1669829673979,1684,HRV,HRV_0012,2022-11-30 17:40:05
3,"[{'imgObject': {}, 'id': 'cheerios', 'src': '/static/foodstim60/cheerios.jpg', 'key': 'u', 'origWidth': 409, 'origHeight': 410, 'width': 409, 'height': 410, 'widthPercent': 0.45, 'rescaleHeight': False, 'trialN': 3, 'loaded': True, 'loadedTime': 1936.3999999985099, 'positionName': 'LEFT', 'positionCoords': [819.8, 515], 'bid': 1.85}, {'imgObject': {}, 'id': 'tacos', 'src': '/static/foodstim60/tacos.jpg', 'key': 'i', 'origWidth': 411, 'origHeight': 411, 'width': 411, 'height': 411, 'widthPercent': 0.45, 'rescaleHeight': False, 'trialN': 3, 'loaded': True, 'loadedTime': 1959, 'positionName': 'RIGHT', 'positionCoords': [1331.2, 514.5], 'bid': 7.23}]",7206.60000000149,1669829673979,cheerios,tacos,1.85,7.23,5.380000000000001,tacos,997.6999999955297,998,998.0,True,i,8720.10000000149,1513.5,1669829675492,1513,HRV,HRV_0012,2022-11-30 17:40:05
4,"[{'imgObject': {}, 'id': 'popsicles', 'src': '/static/foodstim60/popsicles.jpg', 'key': 'u', 'origWidth': 410, 'origHeight': 410, 'width': 410, 'height': 410, 'widthPercent': 0.45, 'rescaleHeight': False, 'trialN': 4, 'loaded': True, 'loadedTime': 1967.6000000014901, 'positionName': 'LEFT', 'positionCoords': [818.8, 515], 'bid': 8.870000000000001}, {'imgObject': {}, 'id': 'turkey sandwich', 'src': '/static/foodstim60/turkey sandwich.jpg', 'key': 'i', 'origWidth': 409, 'origHeight': 409, 'width': 409, 'height': 409, 'widthPercent': 0.45, 'rescaleHeight': False, 'trialN': 4, 'loaded': True, 'loadedTime': 1971.6000000014901, 'positionName': 'RIGHT', 'positionCoords': [1331.2, 515.5], 'bid': 3.49}]",8720.20000000298,1669829675492,popsicles,turkey sandwich,8.870000000000001,3.49,-5.380000000000001,turkey sandwich,795.1999999955297,796,795.2999999970198,True,i,10025.79999999702,1305.5999999940395,1669829676798,1306,HRV,HRV_0012,2022-11-30 17:40:05
5,"[{'imgObject': {}, 'id': 'fruitsalad', 'src': '/static/foodstim60/fruitsalad.jpg', 'key': 'u', 'origWidth': 410, 'origHeight': 410, 'width': 410, 'height': 410, 'widthPercent': 0.45, 'rescaleHeight': False, 'trialN': 5, 'loaded': True, 'loadedTime': 1984.2999999970198, 'positionName': 'LEFT', 'positionCoords': [818.8, 515], 'bid': 9.95}, {'imgObject': {}, 'id': 'avocado', 'src': '/static/foodstim60/avocado.jpg', 'key': 'i', 'origWidth': 409, 'origHeight': 409, 'width': 409, 'height': 409, 'widthPercent': 0.45, 'rescaleHeight': False, 'trialN': 5, 'loaded': True, 'loadedTime': 1992.3999999985099, 'positionName': 'RIGHT', 'positionCoords': [1331.2, 515.5], 'bid': 9.97}]",10026.0,1669829676798,fruitsalad,avocado,9.95,9.97,0.02000000000000135,fruitsalad,686.5,687,686.7000000029802,True,u,11222.0,1196.0,1669829677994,1196,HRV,HRV_0012,2022-11-30 17:40:05
6,"[{'imgObject': {}, 'id': 'rigatoni', 'src': '/static/foodstim60/rigatoni.jpg', 'key': 'u', 'origWidth': 411, 'origHeight': 411, 'width': 411, 'height': 411, 'widthPercent': 0.45, 'rescaleHeight': False, 'trialN': 6, 'loaded': True, 'loadedTime': 1872.7999999970198, 'positionName': 'LEFT', 'positionCoords': [817.8, 514.5], 'bid': 0.8200000000000001}, {'imgObject': {}, 'id': 'blackbeanswithrice', 'src': '/static/foodstim60/blackbeanswithrice.jpg', 'key': 'i', 'origWidth': 410, 'origHeight': 410, 'width': 410, 'height': 410, 'widthPercent': 0.45, 'rescaleHeight': False, 'trialN': 6, 'loaded': True, 'loadedTime': 1887.5, 'positionName': 'RIGHT', 'positionCoords': [1331.2, 515], 'bid': 0}]",11222.20000000298,1669829677994,rigatoni,blackbeanswithrice,0.8200000000000001,0.0,-0.8200000000000001,rigatoni,1216.2999999970198,1217,1216.5999999940395,True,u,12951.0,1728.7999999970198,1669829679723,1729,HRV,HRV_0012,2022-11-30 17:40:05
7,"[{'imgObject': {}, 'id': 'pear', 'src': '/static/foodstim60/pear.jpg', 'key': 'u', 'origWidth': 411, 'origHeight': 410, 'width': 411, 'height': 410, 'widthPercent': 0.45, 'rescaleHeight': False, 'trialN': 7, 'loaded': True, 'loadedTime': 1897.7999999970198, 'positionName': 'LEFT', 'positionCoords': [817.8, 515], 'bid': 4.99}, {'imgObject': {}, 'id': 'omelette', 'src': '/static/foodstim60/omelette.jpg', 'key': 'i', 'origWidth': 410, 'origHeight': 409, 'width': 410, 'height': 409, 'widthPercent': 0.45, 'rescaleHeight': False, 'trialN': 7, 'loaded': True, 'loadedTime': 1926, 'positionName': 'RIGHT', 'positionCoords': [1331.2, 515.5], 'bid': 4.96}]",12951.20000000298,1669829679723,pear,omelette,4.99,4.96,-0.03000000000000025,omelette,1965.0,1966,1965.0999999940395,True,i,15431.0,2479.7999999970198,1669829682203,2480,HRV,HRV_0012,2022-11-30 17:40:05
8,"[{'imgObject': {}, 'id': 'turkey sandwich', 'src': '/static/foodstim60/turkey sandwich.jpg', 'key': 'u', 'origWidth': 409, 'origHeight': 409, 'width': 409, 'height': 409, 'widthPercent': 0.45, 'rescaleHeight': False, 'trialN': 8, 'loaded': True, 'loadedTime': 1971.5, 'positionName': 'LEFT', 'positionCoords': [819.8, 515.5], 'bid': 3.49}, {'imgObject': {}, 'id': 'apple slices', 'src': '/static/foodstim60/apple slices.jpg', 'key': 'i', 'origWidth': 409, 'origHeight': 410, 'width': 409, 'height': 410, 'widthPercent': 0.45, 'rescaleHeight': False, 'trialN': 8, 'loaded': True, 'loadedTime': 1906.1000000014901, 'positionName': 'RIGHT', 'positionCoords': [1331.2, 515], 'bid': 5.05}]",15431.10000000149,1669829682203,turkey sandwich,apple slices,3.49,5.05,1.5599999999999996,turkey sandwich,826.6000000014901,827,826.6999999955297,True,u,16768.70000000298,1337.6000000014901,1669829683541,1338,HRV,HRV_0012,2022-11-30 17:40:05
9,"[{'imgObject': {}, 'id': 'mashed potato', 'src': '/static/foodstim60/mashed potato.jpg', 'key': 'u', 'origWidth': 409, 'origHeight': 409, 'width': 409, 'height': 409, 'widthPercent': 0.45, 'rescaleHeight': False, 'trialN': 9, 'loaded': True, 'loadedTime': 1877.3999999985099, 'positionName': 'LEFT', 'positionCoords': [819.8, 515.5], 'bid': 6.76}, {'imgObject': {}, 'id': 'burrito', 'src': '/static/foodstim60/burrito.jpg', 'key': 'i', 'origWidth': 410, 'origHeight': 410, 'width': 410, 'height': 410, 'widthPercent': 0.45, 'rescaleHeight': False, 'trialN': 9, 'loaded': True, 'loadedTime': 1909.2000000029802, 'positionName': 'RIGHT', 'positionCoords': [1331.2, 515], 'bid': 6.93}]",16768.89999999851,1669829683541,mashed potato,burrito,6.76,6.93,0.16999999999999993,burrito,1263.6000000014901,1264,1263.8000000044703,True,i,18544.5,1775.6000000014901,1669829685317,1776,HRV,HRV_0012,2022-11-30 17:40:05
10,"[{'imgObject': {}, 'id': 'mashed potato', 'src': '/static/foodstim60/mashed potato.jpg', 'key': 'u', 'origWidth': 409, 'origHeight': 409, 'width': 409, 'height': 409, 'widthPercent': 0.45, 'rescaleHeight': False, 'trialN': 10, 'loaded': True, 'loadedTime': 1878.3999999985099, 'positionName': 'LEFT', 'positionCoords': [819.8, 515.5], 'bid': 6.76}, {'imgObject': {}, 'id': 'fried eggs', 'src': '/static/foodstim60/fried eggs.jpg', 'key': 'i', 'origWidth': 410, 'origHeight': 410, 'width': 410, 'height': 410, 'widthPercent': 0.45, 'rescaleHeight': False, 'trialN': 10, 'loaded': True, 'loadedTime': 1925.2000000029802, 'positionName': 'RIGHT', 'positionCoords': [1331.2, 515], 'bid': 5.05}]",18544.60000000149,1669829685317,mashed potato,fried eggs,6.76,5.05,-1.71,mashed potato,996.6000000014901,997,996.6999999955297,True,u,20052.0,1507.3999999985099,1669829686824,1507,HRV,HRV_0012,2022-11-30 17:40:05
11,"[{'imgObject': {}, 'id': 'Grapes', 'src': '/static/foodstim60/Grapes.jpg', 'key': 'u', 'origWidth': 411, 'origHeight': 411, 'width': 411, 'height': 411, 'widthPercent': 0.45, 'rescaleHeight': False, 'trialN': 11, 'loaded': True, 'loadedTime': 1943.3999999985099, 'positionName': 'LEFT', 'positionCoords': [817.8, 514.5], 'bid': 4.03}, {'imgObject': {}, 'id': 'blueberries', 'src': '/static/foodstim60/blueberries.jpg', 'key': 'i', 'origWidth': 411, 'origHeight': 411, 'width': 411, 'height': 411, 'widthPercent': 0.45, 'rescaleHeight': False, 'trialN': 11, 'loaded': True, 'loadedTime': 1953.3999999985099, 'positionName': 'RIGHT', 'positionCoords': [1331.2, 514.5], 'bid': 6.03}]",20052.10000000149,1669829686824,Grapes,blueberries,4.03,6.03,2.0,blueberries,1291.2999999970198,1292,1291.5,True,i,21851.79999999702,1799.6999999955297,1669829688624,1800,HRV,HRV_0012,2022-11-30 17:40:05
12,"[{'imgObject': {}, 'id': 'rigatoni and sauce', 'src': '/static/foodstim60/rigatoni and sauce.jpg', 'key': 'u', 'origWidth': 410, 'origHeight': 411, 'width': 410, 'height': 411, 'widthPercent': 0.45, 'rescaleHeight': False, 'trialN': 12, 'loaded': True, 'loadedTime': 1961.7999999970198, 'positionName': 'LEFT', 'positionCoords': [818.8, 514.5], 'bid': 6.6000000000000005}, {'imgObject': {}, 'id': 'eggsalad', 'src': '/static/foodstim60/eggsalad.jpg', 'key': 'i', 'origWidth': 410, 'origHeight': 409, 'width': 410, 'height': 409, 'widthPercent': 0.45, 'rescaleHeight': False, 'trialN': 12, 'loaded': True, 'loadedTime': 1975.3999999985099, 'positionName': 'RIGHT', 'positionCoords': [1331.2, 515.5], 'bid': 5.93}]",21851.89999999851,1669829688624,rigatoni and sauce,eggsalad,6.6000000000000005,5.93,-0.6700000000000008,rigatoni and sauce,2269.89999999851,2270,2270.10000000149,True,u,24635.20000000298,2783.3000000044703,1669829691407,2783,HRV,HRV_0012,2022-11-30 17:40:05
13,"[{'imgObject': {}, 'id': 'hotdog w must', 'src': '/static/foodstim60/hotdog w must.jpg', 'key': 'u', 'origWidth': 409, 'origHeight': 409, 'width': 409, 'height': 409, 'widthPercent': 0.45, 'rescaleHeight': False, 'trialN': 13, 'loaded': True, 'loadedTime': 1980.5, 'positionName': 'LEFT', 'positionCoords': [819.8, 515.5], 'bid': 8.21}, {'imgObject': {}, 'id': 'Tribe humus pita', 'src': '/static/foodstim60/Tribe humus pita.jpg', 'key': 'i', 'origWidth': 411, 'origHeight': 411, 'width': 411, 'height': 411, 'widthPercent': 0.45, 'rescaleHeight': False, 'trialN': 13, 'loaded': True, 'loadedTime': 2000.3999999985099, 'positionName': 'RIGHT', 'positionCoords': [1331.2, 514.5], 'bid': 7.67}]",24635.20000000298,1669829691407,hotdog w must,Tribe humus pita,8.21,7.67,-0.5400000000000009,Tribe humus pita,1246.8999999985099,1247,1247.0999999940395,True,i,26394.29999999702,1759.0999999940395,1669829693166,1759,HRV,HRV_0012,2022-11-30 17:40:05
14,"[{'imgObject': {}, 'id': 'fruitsalad', 'src': '/static/foodstim60/fruitsalad.jpg', 'key': 'u', 'origWidth': 410, 'origHeight': 410, 'width': 410, 'height': 410, 'widthPercent': 0.45, 'rescaleHeight': False, 'trialN': 14, 'loaded': True, 'loadedTime': 1986.3999999985099, 'positionName': 'LEFT', 'positionCoords': [818.8, 515], 'bid': 9.95}, {'imgObject': {}, 'id': 'grilled chicken strips', 'src': '/static/foodstim60/grilled chicken strips.jpg', 'key': 'i', 'origWidth': 410, 'origHeight': 411, 'width': 410, 'height': 411, 'widthPercent': 0.45, 'rescaleHeight': False, 'trialN': 14, 'loaded': True, 'loadedTime': 2002.2000000029802, 'positionName': 'RIGHT', 'positionCoords': [1331.2, 514.5], 'bid': 9.88}]",26394.39999999851,1669829693166,fruitsalad,grilled chicken strips,9.95,9.88,-0.06999999999999851,grilled chicken strips,1880.8999999985099,1881,1881.1000000014901,True,i,28787.0,2392.60000000149,1669829695559,2393,HRV,HRV_0012,2022-11-30 17:40:05
15,"[{'imgObject': {}, 'id': 'pear', 'src': '/static/foodstim60/pear.jpg', 'key': 'u', 'origWidth': 411, 'origHeight': 410, 'width': 411, 'height': 410, 'widthPercent': 0.45, 'rescaleHeight': False, 'trialN': 15, 'loaded': True, 'loadedTime': 1890.7999999970198, 'positionName': 'LEFT', 'positionCoords': [817.8, 515], 'bid': 4.99}, {'imgObject': {}, 'id': 'turkeysandwich', 'src': '/static/foodstim60/turkeysandwich.jpg', 'key': 'i', 'origWidth': 409, 'origHeight': 409, 'width': 409, 'height': 409, 'widthPercent': 0.45, 'rescaleHeight': False, 'trialN': 15, 'loaded': True, 'loadedTime': 2008.7000000029802, 'positionName': 'RIGHT', 'positionCoords': [1331.2, 515.5], 'bid': 3.92}]",28787.20000000298,1669829695559,pear,turkeysandwich,4.99,3.92,-1.0700000000000003,turkeysandwich,1977.0,1977,1977.1999999955297,True,i,31277.89999999851,2490.6999999955297,1669829698049,2490,HRV,HRV_0012,2022-11-30 17:40:05
16,"[{'imgObject': {}, 'id': 'burger', 'src': '/static/foodstim60/burger.jpg', 'key': 'u', 'origWidth': 409, 'origHeight': 409, 'width': 409, 'height': 409, 'widthPercent': 0.45, 'rescaleHeight': False, 'trialN': 16, 'loaded': True, 'loadedTime': 2011, 'positionName': 'LEFT', 'positionCoords': [819.8, 515.5], 'bid': 9.93}, {'imgObject': {}, 'id': 'mac & cheese', 'src': '/static/foodstim60/mac & cheese.jpg', 'key': 'i', 'origWidth': 410, 'origHeight': 410, 'width': 410, 'height': 410, 'widthPercent': 0.45, 'rescaleHeight': False, 'trialN': 16, 'loaded': True, 'loadedTime': 2017.2999999970198, 'positionName': 'RIGHT', 'positionCoords': [1331.2, 515], 'bid': 5}]",31278.0,1669829698050,burger,mac & cheese,9.93,5.0,-4.93,burger,657.7000000029802,657,657.8999999985099,True,u,32447.79999999702,1169.7999999970198,1669829699219,1169,HRV,HRV_0012,2022-11-30 17:40:05
17,"[{'imgObject': {}, 'id': 'salad w chicken', 'src': '/static/foodstim60/salad w chicken.jpg', 'key': 'u', 'origWidth': 411, 'origHeight': 411, 'width': 411, 'height': 411, 'widthPercent': 0.45, 'rescaleHeight': False, 'trialN': 17, 'loaded': True, 'loadedTime': 2019.6000000014901, 'positionName': 'LEFT', 'positionCoords': [817.8, 514.5], 'bid': 9.89}, {'imgObject': {}, 'id': 'rigatoni and sauce', 'src': '/static/foodstim60/rigatoni and sauce.jpg', 'key': 'i', 'origWidth': 410, 'origHeight': 411, 'width': 410, 'height': 411, 'widthPercent': 0.45, 'rescaleHeight': False, 'trialN': 17, 'loaded': True, 'loadedTime': 1963.6000000014901, 'positionName': 'RIGHT', 'positionCoords': [1331.2, 514.5], 'bid': 6.6000000000000005}]",32447.89999999851,1669829699219,salad w chicken,rigatoni and sauce,9.89,6.6000000000000005,-3.29,salad w chicken,948.5,949,948.8000000044703,True,u,33908.0,1460.1000000014901,1669829700680,1461,HRV,HRV_0012,2022-11-30 17:40:05
18,"[{'imgObject': {}, 'id': 'raisin bran w milk', 'src': '/static/foodstim60/raisin bran w milk.jpg', 'key': 'u', 'origWidth': 411, 'origHeight': 411, 'width': 411, 'height': 411, 'widthPercent': 0.45, 'rescaleHeight': False, 'trialN': 18, 'loaded': True, 'loadedTime': 2023.7000000029802, 'positionName': 'LEFT', 'positionCoords': [817.8, 514.5], 'bid': 1.67}, {'imgObject': {}, 'id': 'Grapes', 'src': '/static/foodstim60/Grapes.jpg', 'key': 'i', 'origWidth': 411, 'origHeight': 411, 'width': 411, 'height': 411, 'widthPercent': 0.45, 'rescaleHeight': False, 'trialN': 18, 'loaded': True, 'loadedTime': 1944.8999999985099, 'positionName': 'RIGHT', 'positionCoords': [1331.2, 514.5], 'bid': 4.03}]",33908.20000000298,1669829700680,raisin bran w milk,Grapes,1.67,4.03,2.3600000000000003,raisin bran w milk,686.6999999955297,687,687.0,True,u,35108.5,1200.2999999970198,1669829701880,1200,HRV,HRV_0012,2022-11-30 17:40:05
19,"[{'imgObject': {}, 'id': 'grilled chicken strips', 'src': '/static/foodstim60/grilled chicken strips.jpg', 'key': 'u', 'origWidth': 410, 'origHeight': 411, 'width': 410, 'height': 411, 'widthPercent': 0.45, 'rescaleHeight': False, 'trialN': 19, 'loaded': True, 'loadedTime': 2004.7000000029802, 'positionName': 'LEFT', 'positionCoords': [818.8, 514.5], 'bid': 9.88}, {'imgObject': {}, 'id': 'turkeysandwich', 'src': '/static/foodstim60/turkeysandwich.jpg', 'key': 'i', 'origWidth': 409, 'origHeight': 409, 'width': 409, 'height': 409, 'widthPercent': 0.45, 'rescaleHeight': False, 'trialN': 19, 'loaded': True, 'loadedTime': 2008.7999999970198, 'positionName': 'RIGHT', 'positionCoords': [1331.2, 515.5], 'bid': 3.92}]",35108.70000000298,1669829701880,grilled chicken strips,turkeysandwich,9.88,3.92,-5.960000000000001,grilled chicken strips,1012.1999999955297,1013,1012.3999999985099,True,u,36632.89999999851,1524.1999999955297,1669829703405,1525,HRV,HRV_0012,2022-11-30 17:40:05
20,"[{'imgObject': {}, 'id': 'avocado', 'src': '/static/foodstim60/avocado.jpg', 'key': 'u', 'origWidth': 409, 'origHeight': 409, 'width': 409, 'height': 409, 'widthPercent': 0.45, 'rescaleHeight': False, 'trialN': 20, 'loaded': True, 'loadedTime': 1992.3999999985099, 'positionName': 'LEFT', 'positionCoords': [819.8, 515.5], 'bid': 9.97}, {'imgObject': {}, 'id': 'salad w chicken', 'src': '/static/foodstim60/salad w chicken.jpg', 'key': 'i', 'origWidth': 411, 'origHeight': 411, 'width': 411, 'height': 411, 'widthPercent': 0.45, 'rescaleHeight': False, 'trialN': 20, 'loaded': True, 'loadedTime': 2018, 'positionName': 'RIGHT', 'positionCoords': [1331.2, 514.5], 'bid': 9.89}]",36633.10000000149,1669829703405,avocado,salad w chicken,9.97,9.89,-0.08000000000000007,salad w chicken,607.6000000014901,608,607.7999999970198,True,i,37755.10000000149,1122.0,1669829704527,1122,HRV,HRV_0012,2022-11-30 17:40:05
21,"[{'imgObject': {}, 'id': 'chicken nuggets2', 'src': '/static/foodstim60/chicken nuggets2.jpg', 'key': 'u', 'origWidth': 410, 'origHeight': 409, 'width': 410, 'height': 409, 'widthPercent': 0.45, 'rescaleHeight': False, 'trialN': 21, 'loaded': True, 'loadedTime': 2027.8999999985099, 'positionName': 'LEFT', 'positionCoords': [818.8, 515.5], 'bid': 9.92}, {'imgObject': {}, 'id': 'pear', 'src': '/static/foodstim60/pear.jpg', 'key': 'i', 'origWidth': 411, 'origHeight': 410, 'width': 411, 'height': 410, 'widthPercent': 0.45, 'rescaleHeight': False, 'trialN': 21, 'loaded': True, 'loadedTime': 1894.1000000014901, 'positionName': 'RIGHT', 'positionCoords': [1331.2, 515], 'bid': 4.99}]",37755.10000000149,1669829704527,chicken nuggets2,pear,9.92,4.99,-4.93,chicken nuggets2,652.6000000014901,652,652.7999999970198,True,u,38918.39999999851,1163.2999999970198,1669829705690,1163,HRV,HRV_0012,2022-11-30 17:40:05
22,"[{'imgObject': {}, 'id': 'shreddedwheatwithmilk', 'src': '/static/foodstim60/shreddedwheatwithmilk.jpg', 'key': 'u', 'origWidth': 410, 'origHeight': 410, 'width': 410, 'height': 410, 'widthPercent': 0.45, 'rescaleHeight': False, 'trialN': 22, 'loaded': True, 'loadedTime': 2032.2000000029802, 'positionName': 'LEFT', 'positionCoords': [818.8, 515], 'bid': 3.44}, {'imgObject': {}, 'id': 'granola w milk', 'src': '/static/foodstim60/granola w milk.jpg', 'key': 'i', 'origWidth': 410, 'origHeight': 410, 'width': 410, 'height': 410, 'widthPercent': 0.45, 'rescaleHeight': False, 'trialN': 22, 'loaded': True, 'loadedTime': 2036.6000000014901, 'positionName': 'RIGHT', 'positionCoords': [1331.2, 515], 'bid': 3.36}]",38918.60000000149,1669829705690,shreddedwheatwithmilk,granola w milk,3.44,3.36,-0.08000000000000007,shreddedwheatwithmilk,2003.7999999970198,2004,2004.0,True,u,41433.10000000149,2514.5,1669829708205,2515,HRV,HRV_0012,2022-11-30 17:40:05
23,"[{'imgObject': {}, 'id': 'tacos', 'src': '/static/foodstim60/tacos.jpg', 'key': 'u', 'origWidth': 411, 'origHeight': 411, 'width': 411, 'height': 411, 'widthPercent': 0.45, 'rescaleHeight': False, 'trialN': 23, 'loaded': True, 'loadedTime': 1959.1000000014901, 'positionName': 'LEFT', 'positionCoords': [817.8, 514.5], 'bid': 7.23}, {'imgObject': {}, 'id': 'burrito', 'src': '/static/foodstim60/burrito.jpg', 'key': 'i', 'origWidth': 410, 'origHeight': 410, 'width': 410, 'height': 410, 'widthPercent': 0.45, 'rescaleHeight': False, 'trialN': 23, 'loaded': True, 'loadedTime': 1912.7999999970198, 'positionName': 'RIGHT', 'positionCoords': [1331.2, 515], 'bid': 6.93}]",41433.20000000298,1669829708205,tacos,burrito,7.23,6.93,-0.3000000000000007,burrito,965.5,966,965.6999999955297,True,i,42911.89999999851,1478.6999999955297,1669829709683,1478,HRV,HRV_0012,2022-11-30 17:40:05
24,"[{'imgObject': {}, 'id': 'corn cob', 'src': '/static/foodstim60/corn cob.jpg', 'key': 'u', 'origWidth': 411, 'origHeight': 411, 'width': 411, 'height': 411, 'widthPercent': 0.45, 'rescaleHeight': False, 'trialN': 24, 'loaded': True, 'loadedTime': 2037, 'positionName': 'LEFT', 'positionCoords': [817.8, 514.5], 'bid': 6.640000000000001}, {'imgObject': {}, 'id': 'cocktailshrimp', 'src': '/static/foodstim60/cocktailshrimp.jpg', 'key': 'i', 'origWidth': 410, 'origHeight': 410, 'width': 410, 'height': 410, 'widthPercent': 0.45, 'rescaleHeight': False, 'trialN': 24, 'loaded': True, 'loadedTime': 2044.2999999970198, 'positionName': 'RIGHT', 'positionCoords': [1331.2, 515], 'bid': 9.9}]",42912.0,1669829709684,corn cob,cocktailshrimp,6.640000000000001,9.9,3.26,cocktailshrimp,1120.2999999970198,1120,1120.5,True,i,44543.79999999702,1631.7999999970198,1669829711315,1631,HRV,HRV_0012,2022-11-30 17:40:05
25,"[{'imgObject': {}, 'id': 'mango', 'src': '/static/foodstim60/mango.jpg', 'key': 'u', 'origWidth': 411, 'origHeight': 411, 'width': 411, 'height': 411, 'widthPercent': 0.45, 'rescaleHeight': False, 'trialN': 25, 'loaded': True, 'loadedTime': 2048.10000000149, 'positionName': 'LEFT', 'positionCoords': [817.8, 514.5], 'bid': 8.21}, {'imgObject': {}, 'id': 'granola w milk', 'src': '/static/foodstim60/granola w milk.jpg', 'key': 'i', 'origWidth': 410, 'origHeight': 410, 'width': 410, 'height': 410, 'widthPercent': 0.45, 'rescaleHeight': False, 'trialN': 25, 'loaded': True, 'loadedTime': 2034.2000000029802, 'positionName': 'RIGHT', 'positionCoords': [1331.2, 515], 'bid': 3.36}]",44543.79999999702,1669829711315,mango,granola w milk,8.21,3.36,-4.850000000000001,mango,1259.5,1260,1259.7000000029802,True,u,46317.39999999851,1773.6000000014901,1669829713089,1774,HRV,HRV_0012,2022-11-30 17:40:05
26,"[{'imgObject': {}, 'id': 'raspberries', 'src': '/static/foodstim60/raspberries.jpg', 'key': 'u', 'origWidth': 411, 'origHeight': 411, 'width': 411, 'height': 411, 'widthPercent': 0.45, 'rescaleHeight': False, 'trialN': 26, 'loaded': True, 'loadedTime': 2048.89999999851, 'positionName': 'LEFT', 'positionCoords': [817.8, 514.5], 'bid': 5.03}, {'imgObject': {}, 'id': 'fruitsalad', 'src': '/static/foodstim60/fruitsalad.jpg', 'key': 'i', 'origWidth': 410, 'origHeight': 410, 'width': 410, 'height': 410, 'widthPercent': 0.45, 'rescaleHeight': False, 'trialN': 26, 'loaded': True, 'loadedTime': 1989.7999999970198, 'positionName': 'RIGHT', 'positionCoords': [1331.2, 515], 'bid': 9.95}]",46317.5,1669829713089,raspberries,fruitsalad,5.03,9.95,4.919999999999999,fruitsalad,779.5,780,779.7000000029802,True,i,47609.5,1292.0,1669829714381,1292,HRV,HRV_0012,2022-11-30 17:40:05
27,"[{'imgObject': {}, 'id': 'raisin bran w milk', 'src': '/static/foodstim60/raisin bran w milk.jpg', 'key': 'u', 'origWidth': 411, 'origHeight': 411, 'width': 411, 'height': 411, 'widthPercent': 0.45, 'rescaleHeight': False, 'trialN': 27, 'loaded': True, 'loadedTime': 2023.7000000029802, 'positionName': 'LEFT', 'positionCoords': [817.8, 514.5], 'bid': 1.67}, {'imgObject': {}, 'id': 'pear', 'src': '/static/foodstim60/pear.jpg', 'key': 'i', 'origWidth': 411, 'origHeight': 410, 'width': 411, 'height': 410, 'widthPercent': 0.45, 'rescaleHeight': False, 'trialN': 27, 'loaded': True, 'loadedTime': 1891.2000000029802, 'positionName': 'RIGHT', 'positionCoords': [1331.2, 515], 'bid': 4.99}]",47609.60000000149,1669829714381,raisin bran w milk,pear,1.67,4.99,3.3200000000000003,raisin bran w milk,1946.8999999985099,1947,1947.1999999955297,True,u,50067.29999999702,2457.6999999955297,1669829716839,2458,HRV,HRV_0012,2022-11-30 17:40:05
28,"[{'imgObject': {}, 'id': 'seaweed', 'src': '/static/foodstim60/seaweed.jpg', 'key': 'u', 'origWidth': 410, 'origHeight': 410, 'width': 410, 'height': 410, 'widthPercent': 0.45, 'rescaleHeight': False, 'trialN': 28, 'loaded': True, 'loadedTime': 2051.60000000149, 'positionName': 'LEFT', 'positionCoords': [818.8, 515], 'bid': 10}, {'imgObject': {}, 'id': 'steak', 'src': '/static/foodstim60/steak.jpg', 'key': 'i', 'origWidth': 410, 'origHeight': 410, 'width': 410, 'height': 410, 'widthPercent': 0.45, 'rescaleHeight': False, 'trialN': 28, 'loaded': True, 'loadedTime': 2056.89999999851, 'positionName': 'RIGHT', 'positionCoords': [1331.2, 515], 'bid': 9.98}]",50067.39999999851,1669829716839,seaweed,steak,10.0,9.98,-0.019999999999999574,steak,1134.6000000014901,1135,1134.8000000044703,True,i,51713.70000000298,1646.3000000044703,1669829718485,1646,HRV,HRV_0012,2022-11-30 17:40:05
29,"[{'imgObject': {}, 'id': 'orange slices', 'src': '/static/foodstim60/orange slices.jpg', 'key': 'u', 'origWidth': 409, 'origHeight': 410, 'width': 409, 'height': 410, 'widthPercent': 0.45, 'rescaleHeight': False, 'trialN': 29, 'loaded': True, 'loadedTime': 2063, 'positionName': 'LEFT', 'positionCoords': [819.8, 515], 'bid': 3.7}, {'imgObject': {}, 'id': 'turkey sandwich', 'src': '/static/foodstim60/turkey sandwich.jpg', 'key': 'i', 'origWidth': 409, 'origHeight': 409, 'width': 409, 'height': 409, 'widthPercent': 0.45, 'rescaleHeight': False, 'trialN': 29, 'loaded': True, 'loadedTime': 1971.7000000029802, 'positionName': 'RIGHT', 'positionCoords': [1331.2, 515.5], 'bid': 3.49}]",51713.79999999702,1669829718485,orange slices,turkey sandwich,3.7,3.49,-0.20999999999999996,turkey sandwich,670.2000000029802,671,670.4000000059605,True,i,52897.20000000298,1183.4000000059605,1669829719669,1184,HRV,HRV_0012,2022-11-30 17:40:05
30,"[{'imgObject': {}, 'id': 'veggieswithdip', 'src': '/static/foodstim60/veggieswithdip.jpg', 'key': 'u', 'origWidth': 409, 'origHeight': 409, 'width': 409, 'height': 409, 'widthPercent': 0.45, 'rescaleHeight': False, 'trialN': 30, 'loaded': True, 'loadedTime': 2066.89999999851, 'positionName': 'LEFT', 'positionCoords': [819.8, 515.5], 'bid': 7.41}, {'imgObject': {}, 'id': 'cherry tomato', 'src': '/static/foodstim60/cherry tomato.jpg', 'key': 'i', 'origWidth': 410, 'origHeight': 410, 'width': 410, 'height': 410, 'widthPercent': 0.45, 'rescaleHeight': False, 'trialN': 30, 'loaded': True, 'loadedTime': 2070.7999999970198, 'positionName': 'RIGHT', 'positionCoords': [1331.2, 515], 'bid': 2.1}]",52897.20000000298,1669829719669,veggieswithdip,cherry tomato,7.41,2.1,-5.3100000000000005,veggieswithdip,1940.2999999970198,1940,1940.5,True,u,55351.20000000298,2454.0,1669829722123,2454,HRV,HRV_0012,2022-11-30 17:40:05
31,"[{'imgObject': {}, 'id': 'luckycharms', 'src': '/static/foodstim60/luckycharms.jpg', 'key': 'u', 'origWidth': 410, 'origHeight': 409, 'width': 410, 'height': 409, 'widthPercent': 0.45, 'rescaleHeight': False, 'trialN': 31, 'loaded': True, 'loadedTime': 2075.2999999970198, 'positionName': 'LEFT', 'positionCoords': [818.8, 515.5], 'bid': 4.99}, {'imgObject': {}, 'id': 'cantaloupe', 'src': '/static/foodstim60/cantaloupe.jpg', 'key': 'i', 'origWidth': 409, 'origHeight': 409, 'width': 409, 'height': 409, 'widthPercent': 0.45, 'rescaleHeight': False, 'trialN': 31, 'loaded': True, 'loadedTime': 2075.2999999970198, 'positionName': 'RIGHT', 'positionCoords': [1331.2, 515.5], 'bid': 4.96}]",55351.29999999702,1669829722123,luckycharms,cantaloupe,4.99,4.96,-0.03000000000000025,luckycharms,1242.4000000059605,1243,1242.7000000029802,True,u,57107.89999999851,1756.6000000014901,1669829723880,1757,HRV,HRV_0012,2022-11-30 17:40:05
32,"[{'imgObject': {}, 'id': 'popsicles', 'src': '/static/foodstim60/popsicles.jpg', 'key': 'u', 'origWidth': 410, 'origHeight': 410, 'width': 410, 'height': 410, 'widthPercent': 0.45, 'rescaleHeight': False, 'trialN': 32, 'loaded': True, 'loadedTime': 1969.2000000029802, 'positionName': 'LEFT', 'positionCoords': [818.8, 515], 'bid': 8.870000000000001}, {'imgObject': {}, 'id': 'burger', 'src': '/static/foodstim60/burger.jpg', 'key': 'i', 'origWidth': 409, 'origHeight': 409, 'width': 409, 'height': 409, 'widthPercent': 0.45, 'rescaleHeight': False, 'trialN': 32, 'loaded': True, 'loadedTime': 2012.7999999970198, 'positionName': 'RIGHT', 'positionCoords': [1331.2, 515.5], 'bid': 9.93}]",57108.0,1669829723880,popsicles,burger,8.870000000000001,9.93,1.0599999999999987,burger,657.8999999985099,658,658.1000000014901,True,i,58278.70000000298,1170.7000000029802,1669829725050,1170,HRV,HRV_0012,2022-11-30 17:40:05
33,"[{'imgObject': {}, 'id': 'burrito', 'src': '/static/foodstim60/burrito.jpg', 'key': 'u', 'origWidth': 410, 'origHeight': 410, 'width': 410, 'height': 410, 'widthPercent': 0.45, 'rescaleHeight': False, 'trialN': 33, 'loaded': True, 'loadedTime': 1909.2999999970198, 'positionName': 'LEFT', 'positionCoords': [818.8, 515], 'bid': 6.93}, {'imgObject': {}, 'id': 'hashbrowns', 'src': '/static/foodstim60/hashbrowns.jpg', 'key': 'i', 'origWidth': 411, 'origHeight': 410, 'width': 411, 'height': 410, 'widthPercent': 0.45, 'rescaleHeight': False, 'trialN': 33, 'loaded': True, 'loadedTime': 2078.2999999970198, 'positionName': 'RIGHT', 'positionCoords': [1331.2, 515], 'bid': 5.08}]",58278.79999999702,1669829725050,burrito,hashbrowns,6.93,5.08,-1.8499999999999996,burrito,688.2000000029802,689,688.4000000059605,True,u,59480.60000000149,1201.8000000044703,1669829726252,1202,HRV,HRV_0012,2022-11-30 17:40:05
34,"[{'imgObject': {}, 'id': 'fruitsalad', 'src': '/static/foodstim60/fruitsalad.jpg', 'key': 'u', 'origWidth': 410, 'origHeight': 410, 'width': 410, 'height': 410, 'widthPercent': 0.45, 'rescaleHeight': False, 'trialN': 34, 'loaded': True, 'loadedTime': 1989.8999999985099, 'positionName': 'LEFT', 'positionCoords': [818.8, 515], 'bid': 9.95}, {'imgObject': {}, 'id': 'seaweed', 'src': '/static/foodstim60/seaweed.jpg', 'key': 'i', 'origWidth': 410, 'origHeight': 410, 'width': 410, 'height': 410, 'widthPercent': 0.45, 'rescaleHeight': False, 'trialN': 34, 'loaded': True, 'loadedTime': 2051.2999999970198, 'positionName': 'RIGHT', 'positionCoords': [1331.2, 515], 'bid': 10}]",59480.70000000298,1669829726252,fruitsalad,seaweed,9.95,10.0,0.05000000000000071,seaweed,794.3999999985099,795,794.5,True,i,60788.29999999702,1307.5999999940395,1669829727560,1308,HRV,HRV_0012,2022-11-30 17:40:05
35,"[{'imgObject': {}, 'id': 'cantaloupe', 'src': '/static/foodstim60/cantaloupe.jpg', 'key': 'u', 'origWidth': 409, 'origHeight': 409, 'width': 409, 'height': 409, 'widthPercent': 0.45, 'rescaleHeight': False, 'trialN': 35, 'loaded': True, 'loadedTime': 2077.5, 'positionName': 'LEFT', 'positionCoords': [819.8, 515.5], 'bid': 4.96}, {'imgObject': {}, 'id': 'cocktailshrimp', 'src': '/static/foodstim60/cocktailshrimp.jpg', 'key': 'i', 'origWidth': 410, 'origHeight': 410, 'width': 410, 'height': 410, 'widthPercent': 0.45, 'rescaleHeight': False, 'trialN': 35, 'loaded': True, 'loadedTime': 2040.7999999970198, 'positionName': 'RIGHT', 'positionCoords': [1331.2, 515], 'bid': 9.9}]",60788.39999999851,1669829727560,cantaloupe,cocktailshrimp,4.96,9.9,4.94,cocktailshrimp,701.6000000014901,702,701.7000000029802,True,i,61998.89999999851,1210.5,1669829728771,1211,HRV,HRV_0012,2022-11-30 17:40:05
36,"[{'imgObject': {}, 'id': 'bagel and cc', 'src': '/static/foodstim60/bagel and cc.jpg', 'key': 'u', 'origWidth': 410, 'origHeight': 410, 'width': 410, 'height': 410, 'widthPercent': 0.45, 'rescaleHeight': False, 'trialN': 36, 'loaded': True, 'loadedTime': 2080.2999999970198, 'positionName': 'LEFT', 'positionCoords': [818.8, 515], 'bid': 9.94}, {'imgObject': {}, 'id': 'yogurt no spoon', 'src': '/static/foodstim60/yogurt no spoon.jpg', 'key': 'i', 'origWidth': 411, 'origHeight': 410, 'width': 411, 'height': 410, 'widthPercent': 0.45, 'rescaleHeight': False, 'trialN': 36, 'loaded': True, 'loadedTime': 2083.2000000029802, 'positionName': 'RIGHT', 'positionCoords': [1331.2, 515], 'bid': 9.85}]",61999.0,1669829728771,bagel and cc,yogurt no spoon,9.94,9.85,-0.08999999999999986,yogurt no spoon,1341.0,1341,1341.1000000014901,True,i,63851.39999999851,1852.3999999985099,1669829730623,1852,HRV,HRV_0012,2022-11-30 17:40:05
37,"[{'imgObject': {}, 'id': 'roastedpotatoes', 'src': '/static/foodstim60/roastedpotatoes.jpg', 'key': 'u', 'origWidth': 409, 'origHeight': 410, 'width': 409, 'height': 410, 'widthPercent': 0.45, 'rescaleHeight': False, 'trialN': 37, 'loaded': True, 'loadedTime': 2085.89999999851, 'positionName': 'LEFT', 'positionCoords': [819.8, 515], 'bid': 5.0200000000000005}, {'imgObject': {}, 'id': 'corn cob', 'src': '/static/foodstim60/corn cob.jpg', 'key': 'i', 'origWidth': 411, 'origHeight': 411, 'width': 411, 'height': 411, 'widthPercent': 0.45, 'rescaleHeight': False, 'trialN': 37, 'loaded': True, 'loadedTime': 2040.3999999985099, 'positionName': 'RIGHT', 'positionCoords': [1331.2, 514.5], 'bid': 6.640000000000001}]",63851.60000000149,1669829730623,roastedpotatoes,corn cob,5.0200000000000005,6.640000000000001,1.62,roastedpotatoes,1929.2999999970198,1930,1929.5,True,u,66293.10000000149,2441.5,1669829733065,2442,HRV,HRV_0012,2022-11-30 17:40:05
38,"[{'imgObject': {}, 'id': 'eggs', 'src': '/static/foodstim60/eggs.jpg', 'key': 'u', 'origWidth': 409, 'origHeight': 409, 'width': 409, 'height': 409, 'widthPercent': 0.45, 'rescaleHeight': False, 'trialN': 38, 'loaded': True, 'loadedTime': 2086.7000000029802, 'positionName': 'LEFT', 'positionCoords': [819.8, 515.5], 'bid': 4.94}, {'imgObject': {}, 'id': 'turkeysandwich', 'src': '/static/foodstim60/turkeysandwich.jpg', 'key': 'i', 'origWidth': 409, 'origHeight': 409, 'width': 409, 'height': 409, 'widthPercent': 0.45, 'rescaleHeight': False, 'trialN': 38, 'loaded': True, 'loadedTime': 2007.1000000014901, 'positionName': 'RIGHT', 'positionCoords': [1331.2, 515.5], 'bid': 3.92}]",66293.20000000298,1669829733065,eggs,turkeysandwich,4.94,3.92,-1.0200000000000005,turkeysandwich,901.3999999985099,901,901.5999999940395,True,i,67705.0,1411.7999999970198,1669829734477,1412,HRV,HRV_0012,2022-11-30 17:40:05
39,"[{'imgObject': {}, 'id': 'cocktailshrimp', 'src': '/static/foodstim60/cocktailshrimp.jpg', 'key': 'u', 'origWidth': 410, 'origHeight': 410, 'width': 410, 'height': 410, 'widthPercent': 0.45, 'rescaleHeight': False, 'trialN': 39, 'loaded': True, 'loadedTime': 2042.6000000014901, 'positionName': 'LEFT', 'positionCoords': [818.8, 515], 'bid': 9.9}, {'imgObject': {}, 'id': 'lox', 'src': '/static/foodstim60/lox.jpg', 'key': 'i', 'origWidth': 410, 'origHeight': 411, 'width': 410, 'height': 411, 'widthPercent': 0.45, 'rescaleHeight': False, 'trialN': 39, 'loaded': True, 'loadedTime': 2089, 'positionName': 'RIGHT', 'positionCoords': [1331.2, 514.5], 'bid': 9.97}]",67705.0,1669829734477,cocktailshrimp,lox,9.9,9.97,0.07000000000000028,cocktailshrimp,1390.7000000029802,1390,1390.7999999970198,True,u,69609.39999999851,1904.3999999985099,1669829736381,1904,HRV,HRV_0012,2022-11-30 17:40:05
40,"[{'imgObject': {}, 'id': 'ice cream sundae 002', 'src': '/static/foodstim60/ice cream sundae 002.jpg', 'key': 'u', 'origWidth': 409, 'origHeight': 409, 'width': 409, 'height': 409, 'widthPercent': 0.45, 'rescaleHeight': False, 'trialN': 40, 'loaded': True, 'loadedTime': 2089.2000000029802, 'positionName': 'LEFT', 'positionCoords': [819.8, 515.5], 'bid': 9.93}, {'imgObject': {}, 'id': 'chicken nuggets2', 'src': '/static/foodstim60/chicken nuggets2.jpg', 'key': 'i', 'origWidth': 410, 'origHeight': 409, 'width': 410, 'height': 409, 'widthPercent': 0.45, 'rescaleHeight': False, 'trialN': 40, 'loaded': True, 'loadedTime': 2026.2000000029802, 'positionName': 'RIGHT', 'positionCoords': [1331.2, 515.5], 'bid': 9.92}]",69609.5,1669829736381,ice cream sundae 002,chicken nuggets2,9.93,9.92,-0.009999999999999787,chicken nuggets2,2101.60000000149,2102,2101.89999999851,True,i,72224.70000000298,2615.2000000029802,1669829738996,2615,HRV,HRV_0012,2022-11-30 17:40:05
41,"[{'imgObject': {}, 'id': 'baked potato', 'src': '/static/foodstim60/baked potato.jpg', 'key': 'u', 'origWidth': 409, 'origHeight': 410, 'width': 409, 'height': 410, 'widthPercent': 0.45, 'rescaleHeight': False, 'trialN': 41, 'loaded': True, 'loadedTime': 2093.7000000029802, 'positionName': 'LEFT', 'positionCoords': [819.8, 515], 'bid': 5.04}, {'imgObject': {}, 'id': 'rigatoni and sauce', 'src': '/static/foodstim60/rigatoni and sauce.jpg', 'key': 'i', 'origWidth': 410, 'origHeight': 411, 'width': 410, 'height': 411, 'widthPercent': 0.45, 'rescaleHeight': False, 'trialN': 41, 'loaded': True, 'loadedTime': 1965.6000000014901, 'positionName': 'RIGHT', 'positionCoords': [1331.2, 514.5], 'bid': 6.6000000000000005}]",72224.79999999702,1669829738996,baked potato,rigatoni and sauce,5.04,6.6000000000000005,1.5600000000000005,baked potato,1243.0,1244,1243.1000000014901,True,u,73981.60000000149,1756.8000000044703,1669829740753,1757,HRV,HRV_0012,2022-11-30 17:40:05
42,"[{'imgObject': {}, 'id': 'steak', 'src': '/static/foodstim60/steak.jpg', 'key': 'u', 'origWidth': 410, 'origHeight': 410, 'width': 410, 'height': 410, 'widthPercent': 0.45, 'rescaleHeight': False, 'trialN': 42, 'loaded': True, 'loadedTime': 2058.60000000149, 'positionName': 'LEFT', 'positionCoords': [818.8, 515], 'bid': 9.98}, {'imgObject': {}, 'id': 'hashbrowns', 'src': '/static/foodstim60/hashbrowns.jpg', 'key': 'i', 'origWidth': 411, 'origHeight': 410, 'width': 411, 'height': 410, 'widthPercent': 0.45, 'rescaleHeight': False, 'trialN': 42, 'loaded': True, 'loadedTime': 2077.60000000149, 'positionName': 'RIGHT', 'positionCoords': [1331.2, 515], 'bid': 5.08}]",73981.70000000298,1669829740753,steak,hashbrowns,9.98,5.08,-4.9,steak,576.0,576,576.1999999955297,True,u,75070.89999999851,1089.1999999955297,1669829741843,1090,HRV,HRV_0012,2022-11-30 17:40:05
43,"[{'imgObject': {}, 'id': 'kiwi', 'src': '/static/foodstim60/kiwi.jpg', 'key': 'u', 'origWidth': 410, 'origHeight': 410, 'width': 410, 'height': 410, 'widthPercent': 0.45, 'rescaleHeight': False, 'trialN': 43, 'loaded': True, 'loadedTime': 2094.39999999851, 'positionName': 'LEFT', 'positionCoords': [818.8, 515], 'bid': 9.96}, {'imgObject': {}, 'id': 'avocado', 'src': '/static/foodstim60/avocado.jpg', 'key': 'i', 'origWidth': 409, 'origHeight': 409, 'width': 409, 'height': 409, 'widthPercent': 0.45, 'rescaleHeight': False, 'trialN': 43, 'loaded': True, 'loadedTime': 1994.1000000014901, 'positionName': 'RIGHT', 'positionCoords': [1331.2, 515.5], 'bid': 9.97}]",75071.0,1669829741843,kiwi,avocado,9.96,9.97,0.009999999999999787,avocado,669.5,669,669.7000000029802,True,i,76252.0,1181.0,1669829743024,1181,HRV,HRV_0012,2022-11-30 17:40:05
44,"[{'imgObject': {}, 'id': 'grilled chicken strips', 'src': '/static/foodstim60/grilled chicken strips.jpg', 'key': 'u', 'origWidth': 410, 'origHeight': 411, 'width': 410, 'height': 411, 'widthPercent': 0.45, 'rescaleHeight': False, 'trialN': 44, 'loaded': True, 'loadedTime': 2002.8999999985099, 'positionName': 'LEFT', 'positionCoords': [818.8, 514.5], 'bid': 9.88}, {'imgObject': {}, 'id': 'yogurt no spoon', 'src': '/static/foodstim60/yogurt no spoon.jpg', 'key': 'i', 'origWidth': 411, 'origHeight': 410, 'width': 411, 'height': 410, 'widthPercent': 0.45, 'rescaleHeight': False, 'trialN': 44, 'loaded': True, 'loadedTime': 2083, 'positionName': 'RIGHT', 'positionCoords': [1331.2, 515], 'bid': 9.85}]",76252.10000000149,1669829743024,grilled chicken strips,yogurt no spoon,9.88,9.85,-0.030000000000001137,grilled chicken strips,624.6999999955297,625,624.8999999985099,True,u,77389.60000000149,1137.5,1669829744161,1137,HRV,HRV_0012,2022-11-30 17:40:05
45,"[{'imgObject': {}, 'id': 'bagel and cc', 'src': '/static/foodstim60/bagel and cc.jpg', 'key': 'u', 'origWidth': 410, 'origHeight': 410, 'width': 410, 'height': 410, 'widthPercent': 0.45, 'rescaleHeight': False, 'trialN': 45, 'loaded': True, 'loadedTime': 2080.2000000029802, 'positionName': 'LEFT', 'positionCoords': [818.8, 515], 'bid': 9.94}, {'imgObject': {}, 'id': 'Tribe humus pita', 'src': '/static/foodstim60/Tribe humus pita.jpg', 'key': 'i', 'origWidth': 411, 'origHeight': 411, 'width': 411, 'height': 411, 'widthPercent': 0.45, 'rescaleHeight': False, 'trialN': 45, 'loaded': True, 'loadedTime': 1996.2000000029802, 'positionName': 'RIGHT', 'positionCoords': [1331.2, 514.5], 'bid': 7.67}]",77389.70000000298,1669829744161,bagel and cc,Tribe humus pita,9.94,7.67,-2.2699999999999996,Tribe humus pita,1977.3999999985099,1978,1977.6999999955297,True,i,79882.20000000298,2492.5,1669829746654,2493,HRV,HRV_0012,2022-11-30 17:40:05
46,"[{'imgObject': {}, 'id': 'salmon', 'src': '/static/foodstim60/salmon.jpg', 'key': 'u', 'origWidth': 410, 'origHeight': 409, 'width': 410, 'height': 409, 'widthPercent': 0.45, 'rescaleHeight': False, 'trialN': 46, 'loaded': True, 'loadedTime': 2097.10000000149, 'positionName': 'LEFT', 'positionCoords': [818.8, 515.5], 'bid': 9.92}, {'imgObject': {}, 'id': 'chicken nuggets2', 'src': '/static/foodstim60/chicken nuggets2.jpg', 'key': 'i', 'origWidth': 410, 'origHeight': 409, 'width': 410, 'height': 409, 'widthPercent': 0.45, 'rescaleHeight': False, 'trialN': 46, 'loaded': True, 'loadedTime': 2024.7000000029802, 'positionName': 'RIGHT', 'positionCoords': [1331.2, 515.5], 'bid': 9.92}]",79882.29999999702,1669829746654,salmon,chicken nuggets2,9.92,9.92,0.0,salmon,1723.6000000014901,1724,1723.8000000044703,True,u,82122.20000000298,2239.9000000059605,1669829748894,2240,HRV,HRV_0012,2022-11-30 17:40:05
47,"[{'imgObject': {}, 'id': 'Grapes', 'src': '/static/foodstim60/Grapes.jpg', 'key': 'u', 'origWidth': 411, 'origHeight': 411, 'width': 411, 'height': 411, 'widthPercent': 0.45, 'rescaleHeight': False, 'trialN': 47, 'loaded': True, 'loadedTime': 1946.7000000029802, 'positionName': 'LEFT', 'positionCoords': [817.8, 514.5], 'bid': 4.03}, {'imgObject': {}, 'id': 'eggs', 'src': '/static/foodstim60/eggs.jpg', 'key': 'i', 'origWidth': 409, 'origHeight': 409, 'width': 409, 'height': 409, 'widthPercent': 0.45, 'rescaleHeight': False, 'trialN': 47, 'loaded': True, 'loadedTime': 2086.7999999970198, 'positionName': 'RIGHT', 'positionCoords': [1331.2, 515.5], 'bid': 4.94}]",82122.29999999702,1669829748894,Grapes,eggs,4.03,4.94,0.9100000000000001,Grapes,2641.8000000044703,2642,2642.10000000149,True,u,85277.79999999702,3155.5,1669829752049,3155,HRV,HRV_0012,2022-11-30 17:40:05
48,"[{'imgObject': {}, 'id': 'Tribe humus pita', 'src': '/static/foodstim60/Tribe humus pita.jpg', 'key': 'u', 'origWidth': 411, 'origHeight': 411, 'width': 411, 'height': 411, 'widthPercent': 0.45, 'rescaleHeight': False, 'trialN': 48, 'loaded': True, 'loadedTime': 2000.6000000014901, 'positionName': 'LEFT', 'positionCoords': [817.8, 514.5], 'bid': 7.67}, {'imgObject': {}, 'id': 'hashbrowns', 'src': '/static/foodstim60/hashbrowns.jpg', 'key': 'i', 'origWidth': 411, 'origHeight': 410, 'width': 411, 'height': 410, 'widthPercent': 0.45, 'rescaleHeight': False, 'trialN': 48, 'loaded': True, 'loadedTime': 2078.39999999851, 'positionName': 'RIGHT', 'positionCoords': [1331.2, 515], 'bid': 5.08}]",85278.0,1669829752050,Tribe humus pita,hashbrowns,7.67,5.08,-2.59,Tribe humus pita,1043.6000000014901,1043,1043.7999999970198,True,u,86835.79999999702,1557.7999999970198,1669829753607,1557,HRV,HRV_0012,2022-11-30 17:40:05
49,"[{'imgObject': {}, 'id': 'kiwi', 'src': '/static/foodstim60/kiwi.jpg', 'key': 'u', 'origWidth': 410, 'origHeight': 410, 'width': 410, 'height': 410, 'widthPercent': 0.45, 'rescaleHeight': False, 'trialN': 49, 'loaded': True, 'loadedTime': 2094.60000000149, 'positionName': 'LEFT', 'positionCoords': [818.8, 515], 'bid': 9.96}, {'imgObject': {}, 'id': 'sushi w_condiments', 'src': '/static/foodstim60/sushi w_condiments.jpg', 'key': 'i', 'origWidth': 410, 'origHeight': 410, 'width': 410, 'height': 410, 'widthPercent': 0.45, 'rescaleHeight': False, 'trialN': 49, 'loaded': True, 'loadedTime': 2098.10000000149, 'positionName': 'RIGHT', 'positionCoords': [1331.2, 515], 'bid': 9.88}]",86835.89999999851,1669829753607,kiwi,sushi w_condiments,9.96,9.88,-0.08000000000000007,sushi w_condiments,1089.7000000029802,1090,1089.8999999985099,True,i,88436.29999999702,1600.3999999985099,1669829755208,1601,HRV,HRV_0012,2022-11-30 17:40:05
50,"[{'imgObject': {}, 'id': 'edamame', 'src': '/static/foodstim60/edamame.jpg', 'key': 'u', 'origWidth': 409, 'origHeight': 410, 'width': 409, 'height': 410, 'widthPercent': 0.45, 'rescaleHeight': False, 'trialN': 50, 'loaded': True, 'loadedTime': 2098.2000000029802, 'positionName': 'LEFT', 'positionCoords': [819.8, 515], 'bid': 2.78}, {'imgObject': {}, 'id': 'omelette', 'src': '/static/foodstim60/omelette.jpg', 'key': 'i', 'origWidth': 410, 'origHeight': 409, 'width': 410, 'height': 409, 'widthPercent': 0.45, 'rescaleHeight': False, 'trialN': 50, 'loaded': True, 'loadedTime': 1928.1000000014901, 'positionName': 'RIGHT', 'positionCoords': [1331.2, 515.5], 'bid': 4.96}]",88436.39999999851,1669829755208,edamame,omelette,2.78,4.96,2.18,omelette,1527.0,1527,1527.1000000014901,True,i,90475.20000000298,2038.8000000044703,1669829757247,2039,HRV,HRV_0012,2022-11-30 17:40:05
51,"[{'imgObject': {}, 'id': 'luckycharms', 'src': '/static/foodstim60/luckycharms.jpg', 'key': 'u', 'origWidth': 410, 'origHeight': 409, 'width': 410, 'height': 409, 'widthPercent': 0.45, 'rescaleHeight': False, 'trialN': 51, 'loaded': True, 'loadedTime': 2071.60000000149, 'positionName': 'LEFT', 'positionCoords': [818.8, 515.5], 'bid': 4.99}, {'imgObject': {}, 'id': 'salmon', 'src': '/static/foodstim60/salmon.jpg', 'key': 'i', 'origWidth': 410, 'origHeight': 409, 'width': 410, 'height': 409, 'widthPercent': 0.45, 'rescaleHeight': False, 'trialN': 51, 'loaded': True, 'loadedTime': 2097, 'positionName': 'RIGHT', 'positionCoords': [1331.2, 515.5], 'bid': 9.92}]",90475.29999999702,1669829757247,luckycharms,salmon,4.99,9.92,4.93,salmon,701.6000000014901,702,701.9000000059605,True,i,91689.89999999851,1214.6000000014901,1669829758461,1214,HRV,HRV_0012,2022-11-30 17:40:05
52,"[{'imgObject': {}, 'id': 'yogurt no spoon', 'src': '/static/foodstim60/yogurt no spoon.jpg', 'key': 'u', 'origWidth': 411, 'origHeight': 410, 'width': 411, 'height': 410, 'widthPercent': 0.45, 'rescaleHeight': False, 'trialN': 52, 'loaded': True, 'loadedTime': 2083, 'positionName': 'LEFT', 'positionCoords': [817.8, 515], 'bid': 9.85}, {'imgObject': {}, 'id': 'steak', 'src': '/static/foodstim60/steak.jpg', 'key': 'i', 'origWidth': 410, 'origHeight': 410, 'width': 410, 'height': 410, 'widthPercent': 0.45, 'rescaleHeight': False, 'trialN': 52, 'loaded': True, 'loadedTime': 2057.10000000149, 'positionName': 'RIGHT', 'positionCoords': [1331.2, 515], 'bid': 9.98}]",91690.20000000298,1669829758462,yogurt no spoon,steak,9.85,9.98,0.13000000000000078,steak,762.5999999940395,763,762.7999999970198,True,i,92964.39999999851,1274.1999999955297,1669829759736,1274,HRV,HRV_0012,2022-11-30 17:40:05
53,"[{'imgObject': {}, 'id': 'orange slices', 'src': '/static/foodstim60/orange slices.jpg', 'key': 'u', 'origWidth': 409, 'origHeight': 410, 'width': 409, 'height': 410, 'widthPercent': 0.45, 'rescaleHeight': False, 'trialN': 53, 'loaded': True, 'loadedTime': 2063.10000000149, 'positionName': 'LEFT', 'positionCoords': [819.8, 515], 'bid': 3.7}, {'imgObject': {}, 'id': 'olives', 'src': '/static/foodstim60/olives.jpg', 'key': 'i', 'origWidth': 410, 'origHeight': 410, 'width': 410, 'height': 410, 'widthPercent': 0.45, 'rescaleHeight': False, 'trialN': 53, 'loaded': True, 'loadedTime': 2102.7999999970198, 'positionName': 'RIGHT', 'positionCoords': [1331.2, 515], 'bid': 0}]",92964.5,1669829759736,orange slices,olives,3.7,0.0,-3.7,orange slices,1510.5,1511,1510.7000000029802,True,u,94986.10000000149,2021.6000000014901,1669829761758,2022,HRV,HRV_0012,2022-11-30 17:40:05
54,"[{'imgObject': {}, 'id': 'cherry tomato', 'src': '/static/foodstim60/cherry tomato.jpg', 'key': 'u', 'origWidth': 410, 'origHeight': 410, 'width': 410, 'height': 410, 'widthPercent': 0.45, 'rescaleHeight': False, 'trialN': 54, 'loaded': True, 'loadedTime': 2067.7000000029802, 'positionName': 'LEFT', 'positionCoords': [818.8, 515], 'bid': 2.1}, {'imgObject': {}, 'id': 'edamame', 'src': '/static/foodstim60/edamame.jpg', 'key': 'i', 'origWidth': 409, 'origHeight': 410, 'width': 409, 'height': 410, 'widthPercent': 0.45, 'rescaleHeight': False, 'trialN': 54, 'loaded': True, 'loadedTime': 2098.89999999851, 'positionName': 'RIGHT', 'positionCoords': [1331.2, 515], 'bid': 2.78}]",94986.20000000298,1669829761758,cherry tomato,edamame,2.1,2.78,0.6799999999999997,cherry tomato,2723.5,2724,2723.6999999955297,True,u,98220.89999999851,3234.6999999955297,1669829764993,3235,HRV,HRV_0012,2022-11-30 17:40:05
55,"[{'imgObject': {}, 'id': 'steak', 'src': '/static/foodstim60/steak.jpg', 'key': 'u', 'origWidth': 410, 'origHeight': 410, 'width': 410, 'height': 410, 'widthPercent': 0.45, 'rescaleHeight': False, 'trialN': 55, 'loaded': True, 'loadedTime': 2057, 'positionName': 'LEFT', 'positionCoords': [818.8, 515], 'bid': 9.98}, {'imgObject': {}, 'id': 'ice cream sundae 002', 'src': '/static/foodstim60/ice cream sundae 002.jpg', 'key': 'i', 'origWidth': 409, 'origHeight': 409, 'width': 409, 'height': 409, 'widthPercent': 0.45, 'rescaleHeight': False, 'trialN': 55, 'loaded': True, 'loadedTime': 2089.7999999970198, 'positionName': 'RIGHT', 'positionCoords': [1331.2, 515.5], 'bid': 9.93}]",98221.0,1669829764993,steak,ice cream sundae 002,9.98,9.93,-0.05000000000000071,steak,578.1000000014901,578,578.2999999970198,True,u,99312.29999999702,1091.2999999970198,1669829766084,1091,HRV,HRV_0012,2022-11-30 17:40:05
56,"[{'imgObject': {}, 'id': 'veggieswithdip', 'src': '/static/foodstim60/veggieswithdip.jpg', 'key': 'u', 'origWidth': 409, 'origHeight': 409, 'width': 409, 'height': 409, 'widthPercent': 0.45, 'rescaleHeight': False, 'trialN': 56, 'loaded': True, 'loadedTime': 2065.39999999851, 'positionName': 'LEFT', 'positionCoords': [819.8, 515.5], 'bid': 7.41}, {'imgObject': {}, 'id': 'ice cream sundae 002', 'src': '/static/foodstim60/ice cream sundae 002.jpg', 'key': 'i', 'origWidth': 409, 'origHeight': 409, 'width': 409, 'height': 409, 'widthPercent': 0.45, 'rescaleHeight': False, 'trialN': 56, 'loaded': True, 'loadedTime': 2089.7000000029802, 'positionName': 'RIGHT', 'positionCoords': [1331.2, 515.5], 'bid': 9.93}]",99312.39999999851,1669829766084,veggieswithdip,ice cream sundae 002,7.41,9.93,2.5199999999999996,ice cream sundae 002,2283.5,2284,2283.7000000029802,True,i,102106.10000000149,2793.7000000029802,1669829768878,2794,HRV,HRV_0012,2022-11-30 17:40:05
57,"[{'imgObject': {}, 'id': 'sushi w_condiments', 'src': '/static/foodstim60/sushi w_condiments.jpg', 'key': 'u', 'origWidth': 410, 'origHeight': 410, 'width': 410, 'height': 410, 'widthPercent': 0.45, 'rescaleHeight': False, 'trialN': 57, 'loaded': True, 'loadedTime': 2098.10000000149, 'positionName': 'LEFT', 'positionCoords': [818.8, 515], 'bid': 9.88}, {'imgObject': {}, 'id': 'seaweed', 'src': '/static/foodstim60/seaweed.jpg', 'key': 'i', 'origWidth': 410, 'origHeight': 410, 'width': 410, 'height': 410, 'widthPercent': 0.45, 'rescaleHeight': False, 'trialN': 57, 'loaded': True, 'loadedTime': 2053.2000000029802, 'positionName': 'RIGHT', 'positionCoords': [1331.2, 515], 'bid': 10}]",102106.20000000298,1669829768878,sushi w_condiments,seaweed,9.88,10.0,0.11999999999999922,sushi w_condiments,1057.6999999955297,1058,1057.8999999985099,True,u,103678.10000000149,1571.8999999985099,1669829770450,1572,HRV,HRV_0012,2022-11-30 17:40:05
58,"[{'imgObject': {}, 'id': 'sweetpotato', 'src': '/static/foodstim60/sweetpotato.jpg', 'key': 'u', 'origWidth': 410, 'origHeight': 410, 'width': 410, 'height': 410, 'widthPercent': 0.45, 'rescaleHeight': False, 'trialN': 58, 'loaded': True, 'loadedTime': 2103.89999999851, 'positionName': 'LEFT', 'positionCoords': [818.8, 515], 'bid': 9.82}, {'imgObject': {}, 'id': 'grilled chicken strips', 'src': '/static/foodstim60/grilled chicken strips.jpg', 'key': 'i', 'origWidth': 410, 'origHeight': 411, 'width': 410, 'height': 411, 'widthPercent': 0.45, 'rescaleHeight': False, 'trialN': 58, 'loaded': True, 'loadedTime': 2006.3999999985099, 'positionName': 'RIGHT', 'positionCoords': [1331.2, 514.5], 'bid': 9.88}]",103678.20000000298,1669829770450,sweetpotato,grilled chicken strips,9.82,9.88,0.0600000000000005,grilled chicken strips,1216.3999999985099,1216,1216.5,True,i,105408.20000000298,1730.0,1669829772180,1730,HRV,HRV_0012,2022-11-30 17:40:05
59,"[{'imgObject': {}, 'id': 'baked potato', 'src': '/static/foodstim60/baked potato.jpg', 'key': 'u', 'origWidth': 409, 'origHeight': 410, 'width': 409, 'height': 410, 'widthPercent': 0.45, 'rescaleHeight': False, 'trialN': 59, 'loaded': True, 'loadedTime': 2093.89999999851, 'positionName': 'LEFT', 'positionCoords': [819.8, 515], 'bid': 5.04}, {'imgObject': {}, 'id': 'shreddedwheatwithmilk', 'src': '/static/foodstim60/shreddedwheatwithmilk.jpg', 'key': 'i', 'origWidth': 410, 'origHeight': 410, 'width': 410, 'height': 410, 'widthPercent': 0.45, 'rescaleHeight': False, 'trialN': 59, 'loaded': True, 'loadedTime': 2032.2000000029802, 'positionName': 'RIGHT', 'positionCoords': [1331.2, 515], 'bid': 3.44}]",105408.39999999851,1669829772180,baked potato,shreddedwheatwithmilk,5.04,3.44,-1.6,shreddedwheatwithmilk,2940.39999999851,2941,2940.8000000044703,True,i,108860.20000000298,3451.8000000044703,1669829775632,3452,HRV,HRV_0012,2022-11-30 17:40:05
60,"[{'imgObject': {}, 'id': 'fruitsalad', 'src': '/static/foodstim60/fruitsalad.jpg', 'key': 'u', 'origWidth': 410, 'origHeight': 410, 'width': 410, 'height': 410, 'widthPercent': 0.45, 'rescaleHeight': False, 'trialN': 60, 'loaded': True, 'loadedTime': 1988, 'positionName': 'LEFT', 'positionCoords': [818.8, 515], 'bid': 9.95}, {'imgObject': {}, 'id': 'bagel and cc', 'src': '/static/foodstim60/bagel and cc.jpg', 'key': 'i', 'origWidth': 410, 'origHeight': 410, 'width': 410, 'height': 410, 'widthPercent': 0.45, 'rescaleHeight': False, 'trialN': 60, 'loaded': True, 'loadedTime': 2080.2999999970198, 'positionName': 'RIGHT', 'positionCoords': [1331.2, 515], 'bid': 9.94}]",108860.29999999702,1669829775632,fruitsalad,bagel and cc,9.95,9.94,-0.009999999999999787,fruitsalad,686.6000000014901,687,686.7000000029802,True,u,110058.89999999851,1198.6000000014901,1669829776830,1198,HRV,HRV_0012,2022-11-30 17:40:05
61,"[{'imgObject': {}, 'id': 'sweetpotato', 'src': '/static/foodstim60/sweetpotato.jpg', 'key': 'u', 'origWidth': 410, 'origHeight': 410, 'width': 410, 'height': 410, 'widthPercent': 0.45, 'rescaleHeight': False, 'trialN': 61, 'loaded': True, 'loadedTime': 2103.89999999851, 'positionName': 'LEFT', 'positionCoords': [818.8, 515], 'bid': 9.82}, {'imgObject': {}, 'id': 'ice cream sundae 002', 'src': '/static/foodstim60/ice cream sundae 002.jpg', 'key': 'i', 'origWidth': 409, 'origHeight': 409, 'width': 409, 'height': 409, 'widthPercent': 0.45, 'rescaleHeight': False, 'trialN': 61, 'loaded': True, 'loadedTime': 2089.7999999970198, 'positionName': 'RIGHT', 'positionCoords': [1331.2, 515.5], 'bid': 9.93}]",110059.0,1669829776831,sweetpotato,ice cream sundae 002,9.82,9.93,0.10999999999999943,ice cream sundae 002,763.8999999985099,764,764.0,True,i,111335.20000000298,1276.2000000029802,1669829778107,1276,HRV,HRV_0012,2022-11-30 17:40:05
62,"[{'imgObject': {}, 'id': 'raspberries', 'src': '/static/foodstim60/raspberries.jpg', 'key': 'u', 'origWidth': 411, 'origHeight': 411, 'width': 411, 'height': 411, 'widthPercent': 0.45, 'rescaleHeight': False, 'trialN': 62, 'loaded': True, 'loadedTime': 2048.2000000029802, 'positionName': 'LEFT', 'positionCoords': [817.8, 514.5], 'bid': 5.03}, {'imgObject': {}, 'id': 'granola w milk', 'src': '/static/foodstim60/granola w milk.jpg', 'key': 'i', 'origWidth': 410, 'origHeight': 410, 'width': 410, 'height': 410, 'widthPercent': 0.45, 'rescaleHeight': False, 'trialN': 62, 'loaded': True, 'loadedTime': 2034.8999999985099, 'positionName': 'RIGHT', 'positionCoords': [1331.2, 515], 'bid': 3.36}]",111335.20000000298,1669829778107,raspberries,granola w milk,5.03,3.36,-1.6700000000000004,granola w milk,2681.7999999970198,2682,2682.0,True,i,114528.89999999851,3193.6999999955297,1669829781300,3193,HRV,HRV_0012,2022-11-30 17:40:05
63,"[{'imgObject': {}, 'id': 'burger', 'src': '/static/foodstim60/burger.jpg', 'key': 'u', 'origWidth': 409, 'origHeight': 409, 'width': 409, 'height': 409, 'widthPercent': 0.45, 'rescaleHeight': False, 'trialN': 63, 'loaded': True, 'loadedTime': 2013, 'positionName': 'LEFT', 'positionCoords': [819.8, 515.5], 'bid': 9.93}, {'imgObject': {}, 'id': 'ice cream sundae 002', 'src': '/static/foodstim60/ice cream sundae 002.jpg', 'key': 'i', 'origWidth': 409, 'origHeight': 409, 'width': 409, 'height': 409, 'widthPercent': 0.45, 'rescaleHeight': False, 'trialN': 63, 'loaded': True, 'loadedTime': 2089.7000000029802, 'positionName': 'RIGHT', 'positionCoords': [1331.2, 515.5], 'bid': 9.93}]",114529.0,1669829781301,burger,ice cream sundae 002,9.93,9.93,0.0,burger,670.3999999985099,670,670.7000000029802,True,u,115709.5,1180.5,1669829782481,1180,HRV,HRV_0012,2022-11-30 17:40:05
64,"[{'imgObject': {}, 'id': 'apple slices', 'src': '/static/foodstim60/apple slices.jpg', 'key': 'u', 'origWidth': 409, 'origHeight': 410, 'width': 409, 'height': 410, 'widthPercent': 0.45, 'rescaleHeight': False, 'trialN': 64, 'loaded': True, 'loadedTime': 1904.2000000029802, 'positionName': 'LEFT', 'positionCoords': [819.8, 515], 'bid': 5.05}, {'imgObject': {}, 'id': 'avocado', 'src': '/static/foodstim60/avocado.jpg', 'key': 'i', 'origWidth': 409, 'origHeight': 409, 'width': 409, 'height': 409, 'widthPercent': 0.45, 'rescaleHeight': False, 'trialN': 64, 'loaded': True, 'loadedTime': 1992.2000000029802, 'positionName': 'RIGHT', 'positionCoords': [1331.2, 515.5], 'bid': 9.97}]",115709.60000000149,1669829782481,apple slices,avocado,5.05,9.97,4.920000000000001,avocado,932.8999999985099,933,933.0,True,i,117154.29999999702,1444.6999999955297,1669829783926,1445,HRV,HRV_0012,2022-11-30 17:40:05
65,"[{'imgObject': {}, 'id': 'tacos', 'src': '/static/foodstim60/tacos.jpg', 'key': 'u', 'origWidth': 411, 'origHeight': 411, 'width': 411, 'height': 411, 'widthPercent': 0.45, 'rescaleHeight': False, 'trialN': 65, 'loaded': True, 'loadedTime': 1959.2999999970198, 'positionName': 'LEFT', 'positionCoords': [817.8, 514.5], 'bid': 7.23}, {'imgObject': {}, 'id': 'blueberries', 'src': '/static/foodstim60/blueberries.jpg', 'key': 'i', 'origWidth': 411, 'origHeight': 411, 'width': 411, 'height': 411, 'widthPercent': 0.45, 'rescaleHeight': False, 'trialN': 65, 'loaded': True, 'loadedTime': 1951.6000000014901, 'positionName': 'RIGHT', 'positionCoords': [1331.2, 514.5], 'bid': 6.03}]",117154.39999999851,1669829783926,tacos,blueberries,7.23,6.03,-1.2000000000000002,blueberries,965.2000000029802,965,965.3999999985099,True,i,118632.29999999702,1477.8999999985099,1669829785404,1478,HRV,HRV_0012,2022-11-30 17:40:05
66,"[{'imgObject': {}, 'id': 'kiwi', 'src': '/static/foodstim60/kiwi.jpg', 'key': 'u', 'origWidth': 410, 'origHeight': 410, 'width': 410, 'height': 410, 'widthPercent': 0.45, 'rescaleHeight': False, 'trialN': 66, 'loaded': True, 'loadedTime': 2094.60000000149, 'positionName': 'LEFT', 'positionCoords': [818.8, 515], 'bid': 9.96}, {'imgObject': {}, 'id': 'baked potato', 'src': '/static/foodstim60/baked potato.jpg', 'key': 'i', 'origWidth': 409, 'origHeight': 410, 'width': 409, 'height': 410, 'widthPercent': 0.45, 'rescaleHeight': False, 'trialN': 66, 'loaded': True, 'loadedTime': 2091.2999999970198, 'positionName': 'RIGHT', 'positionCoords': [1331.2, 515], 'bid': 5.04}]",118632.39999999851,1669829785404,kiwi,baked potato,9.96,5.04,-4.920000000000001,baked potato,919.3000000044703,919,919.3999999985099,True,i,120063.79999999702,1431.3999999985099,1669829786835,1431,HRV,HRV_0012,2022-11-30 17:40:05
67,"[{'imgObject': {}, 'id': 'orange slices', 'src': '/static/foodstim60/orange slices.jpg', 'key': 'u', 'origWidth': 409, 'origHeight': 410, 'width': 409, 'height': 410, 'widthPercent': 0.45, 'rescaleHeight': False, 'trialN': 67, 'loaded': True, 'loadedTime': 2064.5, 'positionName': 'LEFT', 'positionCoords': [819.8, 515], 'bid': 3.7}, {'imgObject': {}, 'id': 'cheerios', 'src': '/static/foodstim60/cheerios.jpg', 'key': 'i', 'origWidth': 409, 'origHeight': 410, 'width': 409, 'height': 410, 'widthPercent': 0.45, 'rescaleHeight': False, 'trialN': 67, 'loaded': True, 'loadedTime': 1940.1000000014901, 'positionName': 'RIGHT', 'positionCoords': [1331.2, 515], 'bid': 1.85}]",120063.89999999851,1669829786835,orange slices,cheerios,3.7,1.85,-1.85,orange slices,1045.3999999985099,1046,1045.6000000014901,True,u,121621.39999999851,1557.5,1669829788393,1558,HRV,HRV_0012,2022-11-30 17:40:05
68,"[{'imgObject': {}, 'id': 'burrito', 'src': '/static/foodstim60/burrito.jpg', 'key': 'u', 'origWidth': 410, 'origHeight': 410, 'width': 410, 'height': 410, 'widthPercent': 0.45, 'rescaleHeight': False, 'trialN': 68, 'loaded': True, 'loadedTime': 1909.5, 'positionName': 'LEFT', 'positionCoords': [818.8, 515], 'bid': 6.93}, {'imgObject': {}, 'id': 'raspberries', 'src': '/static/foodstim60/raspberries.jpg', 'key': 'i', 'origWidth': 411, 'origHeight': 411, 'width': 411, 'height': 411, 'widthPercent': 0.45, 'rescaleHeight': False, 'trialN': 68, 'loaded': True, 'loadedTime': 2048.89999999851, 'positionName': 'RIGHT', 'positionCoords': [1331.2, 514.5], 'bid': 5.03}]",121621.5,1669829788393,burrito,raspberries,6.93,5.03,-1.8999999999999995,burrito,717.3999999985099,718,717.6000000014901,True,u,122851.0,1229.5,1669829789623,1230,HRV,HRV_0012,2022-11-30 17:40:05
69,"[{'imgObject': {}, 'id': 'chicken nuggets2', 'src': '/static/foodstim60/chicken nuggets2.jpg', 'key': 'u', 'origWidth': 410, 'origHeight': 409, 'width': 410, 'height': 409, 'widthPercent': 0.45, 'rescaleHeight': False, 'trialN': 69, 'loaded': True, 'loadedTime': 2024.6000000014901, 'positionName': 'LEFT', 'positionCoords': [818.8, 515.5], 'bid': 9.92}, {'imgObject': {}, 'id': 'avocado', 'src': '/static/foodstim60/avocado.jpg', 'key': 'i', 'origWidth': 409, 'origHeight': 409, 'width': 409, 'height': 409, 'widthPercent': 0.45, 'rescaleHeight': False, 'trialN': 69, 'loaded': True, 'loadedTime': 1992.6000000014901, 'positionName': 'RIGHT', 'positionCoords': [1331.2, 515.5], 'bid': 9.97}]",122851.10000000149,1669829789623,chicken nuggets2,avocado,9.92,9.97,0.05000000000000071,chicken nuggets2,1122.7999999970198,1123,1123.0,True,u,124488.39999999851,1637.2999999970198,1669829791260,1637,HRV,HRV_0012,2022-11-30 17:40:05
70,"[{'imgObject': {}, 'id': 'luckycharms', 'src': '/static/foodstim60/luckycharms.jpg', 'key': 'u', 'origWidth': 410, 'origHeight': 409, 'width': 410, 'height': 409, 'widthPercent': 0.45, 'rescaleHeight': False, 'trialN': 70, 'loaded': True, 'loadedTime': 2075.2000000029802, 'positionName': 'LEFT', 'positionCoords': [818.8, 515.5], 'bid': 4.99}, {'imgObject': {}, 'id': 'pear', 'src': '/static/foodstim60/pear.jpg', 'key': 'i', 'origWidth': 411, 'origHeight': 410, 'width': 411, 'height': 410, 'widthPercent': 0.45, 'rescaleHeight': False, 'trialN': 70, 'loaded': True, 'loadedTime': 1895.7999999970198, 'positionName': 'RIGHT', 'positionCoords': [1331.2, 515], 'bid': 4.99}]",124488.60000000149,1669829791260,luckycharms,pear,4.99,4.99,0.0,pear,2083.60000000149,2084,2083.7999999970198,True,i,127082.5,2593.89999999851,1669829793854,2594,HRV,HRV_0012,2022-11-30 17:40:05
71,"[{'imgObject': {}, 'id': 'blackbeanswithrice', 'src': '/static/foodstim60/blackbeanswithrice.jpg', 'key': 'u', 'origWidth': 410, 'origHeight': 410, 'width': 410, 'height': 410, 'widthPercent': 0.45, 'rescaleHeight': False, 'trialN': 71, 'loaded': True, 'loadedTime': 1886.5, 'positionName': 'LEFT', 'positionCoords': [818.8, 515], 'bid': 0}, {'imgObject': {}, 'id': 'cherry tomato', 'src': '/static/foodstim60/cherry tomato.jpg', 'key': 'i', 'origWidth': 410, 'origHeight': 410, 'width': 410, 'height': 410, 'widthPercent': 0.45, 'rescaleHeight': False, 'trialN': 71, 'loaded': True, 'loadedTime': 2067.10000000149, 'positionName': 'RIGHT', 'positionCoords': [1331.2, 515], 'bid': 2.1}]",127082.70000000298,1669829793854,blackbeanswithrice,cherry tomato,0.0,2.1,2.1,cherry tomato,827.5,828,827.5999999940395,True,i,128425.0,1342.2999999970198,1669829795197,1343,HRV,HRV_0012,2022-11-30 17:40:05
72,"[{'imgObject': {}, 'id': 'mashed potato', 'src': '/static/foodstim60/mashed potato.jpg', 'key': 'u', 'origWidth': 409, 'origHeight': 409, 'width': 409, 'height': 409, 'widthPercent': 0.45, 'rescaleHeight': False, 'trialN': 72, 'loaded': True, 'loadedTime': 1878.6000000014901, 'positionName': 'LEFT', 'positionCoords': [819.8, 515.5], 'bid': 6.76}, {'imgObject': {}, 'id': 'banana', 'src': '/static/foodstim60/banana.jpg', 'key': 'i', 'origWidth': 410, 'origHeight': 410, 'width': 410, 'height': 410, 'widthPercent': 0.45, 'rescaleHeight': False, 'trialN': 72, 'loaded': True, 'loadedTime': 2104, 'positionName': 'RIGHT', 'positionCoords': [1331.2, 515], 'bid': 5.0200000000000005}]",128425.20000000298,1669829795197,mashed potato,banana,6.76,5.0200000000000005,-1.7399999999999993,banana,2393.5,2393,2393.5999999940395,True,i,131332.5,2907.2999999970198,1669829798104,2907,HRV,HRV_0012,2022-11-30 17:40:05
73,"[{'imgObject': {}, 'id': 'banana', 'src': '/static/foodstim60/banana.jpg', 'key': 'u', 'origWidth': 410, 'origHeight': 410, 'width': 410, 'height': 410, 'widthPercent': 0.45, 'rescaleHeight': False, 'trialN': 73, 'loaded': True, 'loadedTime': 2104.60000000149, 'positionName': 'LEFT', 'positionCoords': [818.8, 515], 'bid': 5.0200000000000005}, {'imgObject': {}, 'id': 'edamame', 'src': '/static/foodstim60/edamame.jpg', 'key': 'i', 'origWidth': 409, 'origHeight': 410, 'width': 409, 'height': 410, 'widthPercent': 0.45, 'rescaleHeight': False, 'trialN': 73, 'loaded': True, 'loadedTime': 2100.60000000149, 'positionName': 'RIGHT', 'positionCoords': [1331.2, 515], 'bid': 2.78}]",131332.6000000015,1669829798104,banana,edamame,5.0200000000000005,2.78,-2.2400000000000007,banana,873.6000000014901,874,873.7999999970198,True,u,132718.8999999985,1386.2999999970198,1669829799490,1386,HRV,HRV_0012,2022-11-30 17:40:05
74,"[{'imgObject': {}, 'id': 'blueberries', 'src': '/static/foodstim60/blueberries.jpg', 'key': 'u', 'origWidth': 411, 'origHeight': 411, 'width': 411, 'height': 411, 'widthPercent': 0.45, 'rescaleHeight': False, 'trialN': 74, 'loaded': True, 'loadedTime': 1955, 'positionName': 'LEFT', 'positionCoords': [817.8, 514.5], 'bid': 6.03}, {'imgObject': {}, 'id': 'hotdog w must', 'src': '/static/foodstim60/hotdog w must.jpg', 'key': 'i', 'origWidth': 409, 'origHeight': 409, 'width': 409, 'height': 409, 'widthPercent': 0.45, 'rescaleHeight': False, 'trialN': 74, 'loaded': True, 'loadedTime': 1978.5, 'positionName': 'RIGHT', 'positionCoords': [1331.2, 515.5], 'bid': 8.21}]",132719.0,1669829799491,blueberries,hotdog w must,6.03,8.21,2.1800000000000006,hotdog w must,1200.3999999985099,1200,1200.5,True,i,134431.6000000015,1712.6000000014901,1669829801203,1712,HRV,HRV_0012,2022-11-30 17:40:05
75,"[{'imgObject': {}, 'id': 'roastedpotatoes', 'src': '/static/foodstim60/roastedpotatoes.jpg', 'key': 'u', 'origWidth': 409, 'origHeight': 410, 'width': 409, 'height': 410, 'widthPercent': 0.45, 'rescaleHeight': False, 'trialN': 75, 'loaded': True, 'loadedTime': 2083.2999999970198, 'positionName': 'LEFT', 'positionCoords': [819.8, 515], 'bid': 5.0200000000000005}, {'imgObject': {}, 'id': 'mac & cheese', 'src': '/static/foodstim60/mac & cheese.jpg', 'key': 'i', 'origWidth': 410, 'origHeight': 410, 'width': 410, 'height': 410, 'widthPercent': 0.45, 'rescaleHeight': False, 'trialN': 75, 'loaded': True, 'loadedTime': 2015.5, 'positionName': 'RIGHT', 'positionCoords': [1331.2, 515], 'bid': 5}]",134431.70000000298,1669829801203,roastedpotatoes,mac & cheese,5.0200000000000005,5.0,-0.020000000000000462,roastedpotatoes,1229.7999999970198,1230,1230.0,True,u,136177.29999999702,1745.5999999940395,1669829802949,1746,HRV,HRV_0012,2022-11-30 17:40:05
76,"[{'imgObject': {}, 'id': 'roastedpotatoes', 'src': '/static/foodstim60/roastedpotatoes.jpg', 'key': 'u', 'origWidth': 409, 'origHeight': 410, 'width': 409, 'height': 410, 'widthPercent': 0.45, 'rescaleHeight': False, 'trialN': 76, 'loaded': True, 'loadedTime': 2084.10000000149, 'positionName': 'LEFT', 'positionCoords': [819.8, 515], 'bid': 5.0200000000000005}, {'imgObject': {}, 'id': 'raspberries', 'src': '/static/foodstim60/raspberries.jpg', 'key': 'i', 'origWidth': 411, 'origHeight': 411, 'width': 411, 'height': 411, 'widthPercent': 0.45, 'rescaleHeight': False, 'trialN': 76, 'loaded': True, 'loadedTime': 2048.7999999970198, 'positionName': 'RIGHT', 'positionCoords': [1331.2, 514.5], 'bid': 5.03}]",136177.3999999985,1669829802949,roastedpotatoes,raspberries,5.0200000000000005,5.03,0.009999999999999787,roastedpotatoes,1730.5,1731,1730.7000000029802,True,u,138420.79999999702,2243.39999999851,1669829805192,2243,HRV,HRV_0012,2022-11-30 17:40:05
77,"[{'imgObject': {}, 'id': 'strawberries', 'src': '/static/foodstim60/strawberries.jpg', 'key': 'u', 'origWidth': 410, 'origHeight': 410, 'width': 410, 'height': 410, 'widthPercent': 0.45, 'rescaleHeight': False, 'trialN': 77, 'loaded': True, 'loadedTime': 2105.39999999851, 'positionName': 'LEFT', 'positionCoords': [818.8, 515], 'bid': 10}, {'imgObject': {}, 'id': 'seaweed', 'src': '/static/foodstim60/seaweed.jpg', 'key': 'i', 'origWidth': 410, 'origHeight': 410, 'width': 410, 'height': 410, 'widthPercent': 0.45, 'rescaleHeight': False, 'trialN': 77, 'loaded': True, 'loadedTime': 2051.39999999851, 'positionName': 'RIGHT', 'positionCoords': [1331.2, 515], 'bid': 10}]",138420.8999999985,1669829805193,strawberries,seaweed,10.0,10.0,0.0,strawberries,1695.3999999985099,1695,1695.6000000014901,True,u,140627.70000000298,2206.8000000044703,1669829807399,2206,HRV,HRV_0012,2022-11-30 17:40:05
78,"[{'imgObject': {}, 'id': 'raisin bran w milk', 'src': '/static/foodstim60/raisin bran w milk.jpg', 'key': 'u', 'origWidth': 411, 'origHeight': 411, 'width': 411, 'height': 411, 'widthPercent': 0.45, 'rescaleHeight': False, 'trialN': 78, 'loaded': True, 'loadedTime': 2022, 'positionName': 'LEFT', 'positionCoords': [817.8, 514.5], 'bid': 1.67}, {'imgObject': {}, 'id': 'bagel plain', 'src': '/static/foodstim60/bagel plain.jpg', 'key': 'i', 'origWidth': 410, 'origHeight': 410, 'width': 410, 'height': 410, 'widthPercent': 0.45, 'rescaleHeight': False, 'trialN': 78, 'loaded': True, 'loadedTime': 2106.2999999970198, 'positionName': 'RIGHT', 'positionCoords': [1331.2, 515], 'bid': 7.0600000000000005}]",140627.79999999702,1669829807399,raisin bran w milk,bagel plain,1.67,7.0600000000000005,5.390000000000001,bagel plain,1337.4000000059605,1338,1337.7000000029802,True,i,142477.70000000298,1849.9000000059605,1669829809249,1850,HRV,HRV_0012,2022-11-30 17:40:05
79,"[{'imgObject': {}, 'id': 'shreddedwheatwithmilk', 'src': '/static/foodstim60/shreddedwheatwithmilk.jpg', 'key': 'u', 'origWidth': 410, 'origHeight': 410, 'width': 410, 'height': 410, 'widthPercent': 0.45, 'rescaleHeight': False, 'trialN': 79, 'loaded': True, 'loadedTime': 2030.1000000014901, 'positionName': 'LEFT', 'positionCoords': [818.8, 515], 'bid': 3.44}, {'imgObject': {}, 'id': 'cherries', 'src': '/static/foodstim60/cherries.jpg', 'key': 'i', 'origWidth': 410, 'origHeight': 411, 'width': 410, 'height': 411, 'widthPercent': 0.45, 'rescaleHeight': False, 'trialN': 79, 'loaded': True, 'loadedTime': 2106.89999999851, 'positionName': 'RIGHT', 'positionCoords': [1331.2, 514.5], 'bid': 1.02}]",142477.79999999702,1669829809249,shreddedwheatwithmilk,cherries,3.44,1.02,-2.42,shreddedwheatwithmilk,1133.4000000059605,1134,1133.6000000014901,True,u,144124.0,1646.2000000029802,1669829810896,1647,HRV,HRV_0012,2022-11-30 17:40:05
80,"[{'imgObject': {}, 'id': 'chicken nuggets2', 'src': '/static/foodstim60/chicken nuggets2.jpg', 'key': 'u', 'origWidth': 410, 'origHeight': 409, 'width': 410, 'height': 409, 'widthPercent': 0.45, 'rescaleHeight': False, 'trialN': 80, 'loaded': True, 'loadedTime': 2027.8999999985099, 'positionName': 'LEFT', 'positionCoords': [818.8, 515.5], 'bid': 9.92}, {'imgObject': {}, 'id': 'seaweed', 'src': '/static/foodstim60/seaweed.jpg', 'key': 'i', 'origWidth': 410, 'origHeight': 410, 'width': 410, 'height': 410, 'widthPercent': 0.45, 'rescaleHeight': False, 'trialN': 80, 'loaded': True, 'loadedTime': 2050.5, 'positionName': 'RIGHT', 'positionCoords': [1331.2, 515], 'bid': 10}]",144124.1000000015,1669829810896,chicken nuggets2,seaweed,9.92,10.0,0.08000000000000007,chicken nuggets2,1680.6000000014901,1680,1680.7999999970198,True,u,146318.8999999985,2194.7999999970198,1669829813091,2195,HRV,HRV_0012,2022-11-30 17:40:05
81,"[{'imgObject': {}, 'id': 'mac & cheese', 'src': '/static/foodstim60/mac & cheese.jpg', 'key': 'u', 'origWidth': 410, 'origHeight': 410, 'width': 410, 'height': 410, 'widthPercent': 0.45, 'rescaleHeight': False, 'trialN': 81, 'loaded': True, 'loadedTime': 2015.7000000029802, 'positionName': 'LEFT', 'positionCoords': [818.8, 515], 'bid': 5}, {'imgObject': {}, 'id': 'rigatoni and sauce', 'src': '/static/foodstim60/rigatoni and sauce.jpg', 'key': 'i', 'origWidth': 410, 'origHeight': 411, 'width': 410, 'height': 411, 'widthPercent': 0.45, 'rescaleHeight': False, 'trialN': 81, 'loaded': True, 'loadedTime': 1963.6000000014901, 'positionName': 'RIGHT', 'positionCoords': [1331.2, 514.5], 'bid': 6.6000000000000005}]",146319.0,1669829813091,mac & cheese,rigatoni and sauce,5.0,6.6000000000000005,1.6000000000000005,mac & cheese,1060.1000000014901,1060,1060.2999999970198,True,u,147893.29999999702,1574.2999999970198,1669829814665,1574,HRV,HRV_0012,2022-11-30 17:40:05
82,"[{'imgObject': {}, 'id': 'chickenfingers', 'src': '/static/foodstim60/chickenfingers.jpg', 'key': 'u', 'origWidth': 410, 'origHeight': 410, 'width': 410, 'height': 410, 'widthPercent': 0.45, 'rescaleHeight': False, 'trialN': 82, 'loaded': True, 'loadedTime': 2108, 'positionName': 'LEFT', 'positionCoords': [818.8, 515], 'bid': 9.91}, {'imgObject': {}, 'id': 'mashed potato', 'src': '/static/foodstim60/mashed potato.jpg', 'key': 'i', 'origWidth': 409, 'origHeight': 409, 'width': 409, 'height': 409, 'widthPercent': 0.45, 'rescaleHeight': False, 'trialN': 82, 'loaded': True, 'loadedTime': 1878.7999999970198, 'positionName': 'RIGHT', 'positionCoords': [1331.2, 515.5], 'bid': 6.76}]",147893.3999999985,1669829814665,chickenfingers,mashed potato,9.91,6.76,-3.1500000000000004,chickenfingers,780.2000000029802,780,780.3000000044703,True,u,149187.3999999985,1294.0,1669829815959,1294,HRV,HRV_0012,2022-11-30 17:40:05
83,"[{'imgObject': {}, 'id': 'hashbrowns', 'src': '/static/foodstim60/hashbrowns.jpg', 'key': 'u', 'origWidth': 411, 'origHeight': 410, 'width': 411, 'height': 410, 'widthPercent': 0.45, 'rescaleHeight': False, 'trialN': 83, 'loaded': True, 'loadedTime': 2078.10000000149, 'positionName': 'LEFT', 'positionCoords': [817.8, 515], 'bid': 5.08}, {'imgObject': {}, 'id': 'fried eggs', 'src': '/static/foodstim60/fried eggs.jpg', 'key': 'i', 'origWidth': 410, 'origHeight': 410, 'width': 410, 'height': 410, 'widthPercent': 0.45, 'rescaleHeight': False, 'trialN': 83, 'loaded': True, 'loadedTime': 1923.3999999985099, 'positionName': 'RIGHT', 'positionCoords': [1331.2, 515], 'bid': 5.05}]",149187.5,1669829815959,hashbrowns,fried eggs,5.08,5.05,-0.03000000000000025,fried eggs,1434.7000000029802,1435,1434.7999999970198,True,i,151137.8999999985,1950.3999999985099,1669829817910,1951,HRV,HRV_0012,2022-11-30 17:40:05
84,"[{'imgObject': {}, 'id': 'popsicles', 'src': '/static/foodstim60/popsicles.jpg', 'key': 'u', 'origWidth': 410, 'origHeight': 410, 'width': 410, 'height': 410, 'widthPercent': 0.45, 'rescaleHeight': False, 'trialN': 84, 'loaded': True, 'loadedTime': 1965.7000000029802, 'positionName': 'LEFT', 'positionCoords': [818.8, 515], 'bid': 8.870000000000001}, {'imgObject': {}, 'id': 'yogurt no spoon', 'src': '/static/foodstim60/yogurt no spoon.jpg', 'key': 'i', 'origWidth': 411, 'origHeight': 410, 'width': 411, 'height': 410, 'widthPercent': 0.45, 'rescaleHeight': False, 'trialN': 84, 'loaded': True, 'loadedTime': 2083.2000000029802, 'positionName': 'RIGHT', 'positionCoords': [1331.2, 515], 'bid': 9.85}]",151138.0,1669829817910,popsicles,yogurt no spoon,8.870000000000001,9.85,0.9799999999999986,yogurt no spoon,935.0,935,935.2000000029802,True,i,152587.0,1449.0,1669829819359,1449,HRV,HRV_0012,2022-11-30 17:40:05
85,"[{'imgObject': {}, 'id': 'kiwi', 'src': '/static/foodstim60/kiwi.jpg', 'key': 'u', 'origWidth': 410, 'origHeight': 410, 'width': 410, 'height': 410, 'widthPercent': 0.45, 'rescaleHeight': False, 'trialN': 85, 'loaded': True, 'loadedTime': 2096.2000000029802, 'positionName': 'LEFT', 'positionCoords': [818.8, 515], 'bid': 9.96}, {'imgObject': {}, 'id': 'bagel and cc', 'src': '/static/foodstim60/bagel and cc.jpg', 'key': 'i', 'origWidth': 410, 'origHeight': 410, 'width': 410, 'height': 410, 'widthPercent': 0.45, 'rescaleHeight': False, 'trialN': 85, 'loaded': True, 'loadedTime': 2080.39999999851, 'positionName': 'RIGHT', 'positionCoords': [1331.2, 515], 'bid': 9.94}]",152587.0,1669829819359,kiwi,bagel and cc,9.96,9.94,-0.02000000000000135,bagel and cc,1389.2000000029802,1389,1389.3999999985099,True,i,154488.20000000298,1901.2000000029802,1669829821260,1901,HRV,HRV_0012,2022-11-30 17:40:05
86,"[{'imgObject': {}, 'id': 'raspberries', 'src': '/static/foodstim60/raspberries.jpg', 'key': 'u', 'origWidth': 411, 'origHeight': 411, 'width': 411, 'height': 411, 'widthPercent': 0.45, 'rescaleHeight': False, 'trialN': 86, 'loaded': True, 'loadedTime': 2048.89999999851, 'positionName': 'LEFT', 'positionCoords': [817.8, 514.5], 'bid': 5.03}, {'imgObject': {}, 'id': 'banana', 'src': '/static/foodstim60/banana.jpg', 'key': 'i', 'origWidth': 410, 'origHeight': 410, 'width': 410, 'height': 410, 'widthPercent': 0.45, 'rescaleHeight': False, 'trialN': 86, 'loaded': True, 'loadedTime': 2104.39999999851, 'positionName': 'RIGHT', 'positionCoords': [1331.2, 515], 'bid': 5.0200000000000005}]",154488.20000000298,1669829821260,raspberries,banana,5.03,5.0200000000000005,-0.009999999999999787,raspberries,1662.8999999985099,1663,1663.0999999940395,True,u,156663.29999999702,2175.0999999940395,1669829823435,2175,HRV,HRV_0012,2022-11-30 17:40:05
87,"[{'imgObject': {}, 'id': 'rigatoni and sauce', 'src': '/static/foodstim60/rigatoni and sauce.jpg', 'key': 'u', 'origWidth': 410, 'origHeight': 411, 'width': 410, 'height': 411, 'widthPercent': 0.45, 'rescaleHeight': False, 'trialN': 87, 'loaded': True, 'loadedTime': 1959.6000000014901, 'positionName': 'LEFT', 'positionCoords': [818.8, 514.5], 'bid': 6.6000000000000005}, {'imgObject': {}, 'id': 'corn cob', 'src': '/static/foodstim60/corn cob.jpg', 'key': 'i', 'origWidth': 411, 'origHeight': 411, 'width': 411, 'height': 411, 'widthPercent': 0.45, 'rescaleHeight': False, 'trialN': 87, 'loaded': True, 'loadedTime': 2040.6000000014901, 'positionName': 'RIGHT', 'positionCoords': [1331.2, 514.5], 'bid': 6.640000000000001}]",156663.3999999985,1669829823435,rigatoni and sauce,corn cob,6.6000000000000005,6.640000000000001,0.040000000000000036,rigatoni and sauce,2023.6000000014901,2024,2023.7000000029802,True,u,159199.79999999702,2536.39999999851,1669829825971,2536,HRV,HRV_0012,2022-11-30 17:40:05
88,"[{'imgObject': {}, 'id': 'Grapes', 'src': '/static/foodstim60/Grapes.jpg', 'key': 'u', 'origWidth': 411, 'origHeight': 411, 'width': 411, 'height': 411, 'widthPercent': 0.45, 'rescaleHeight': False, 'trialN': 88, 'loaded': True, 'loadedTime': 1942.7000000029802, 'positionName': 'LEFT', 'positionCoords': [817.8, 514.5], 'bid': 4.03}, {'imgObject': {}, 'id': 'sushi w_condiments', 'src': '/static/foodstim60/sushi w_condiments.jpg', 'key': 'i', 'origWidth': 410, 'origHeight': 410, 'width': 410, 'height': 410, 'widthPercent': 0.45, 'rescaleHeight': False, 'trialN': 88, 'loaded': True, 'loadedTime': 2098, 'positionName': 'RIGHT', 'positionCoords': [1331.2, 515], 'bid': 9.88}]",159199.8999999985,1669829825971,Grapes,sushi w_condiments,4.03,9.88,5.8500000000000005,sushi w_condiments,640.2000000029802,641,640.3000000044703,True,i,160352.5,1152.6000000014901,1669829827124,1153,HRV,HRV_0012,2022-11-30 17:40:05
89,"[{'imgObject': {}, 'id': 'strawberries', 'src': '/static/foodstim60/strawberries.jpg', 'key': 'u', 'origWidth': 410, 'origHeight': 410, 'width': 410, 'height': 410, 'widthPercent': 0.45, 'rescaleHeight': False, 'trialN': 89, 'loaded': True, 'loadedTime': 2105.39999999851, 'positionName': 'LEFT', 'positionCoords': [818.8, 515], 'bid': 10}, {'imgObject': {}, 'id': 'bagel and cc', 'src': '/static/foodstim60/bagel and cc.jpg', 'key': 'i', 'origWidth': 410, 'origHeight': 410, 'width': 410, 'height': 410, 'widthPercent': 0.45, 'rescaleHeight': False, 'trialN': 89, 'loaded': True, 'loadedTime': 2082.10000000149, 'positionName': 'RIGHT', 'positionCoords': [1331.2, 515], 'bid': 9.94}]",160352.6000000015,1669829827124,strawberries,bagel and cc,10.0,9.94,-0.0600000000000005,bagel and cc,981.6000000014901,982,981.7999999970198,True,i,161848.3999999985,1495.7999999970198,1669829828620,1496,HRV,HRV_0012,2022-11-30 17:40:05
90,"[{'imgObject': {}, 'id': 'mashed potato', 'src': '/static/foodstim60/mashed potato.jpg', 'key': 'u', 'origWidth': 409, 'origHeight': 409, 'width': 409, 'height': 409, 'widthPercent': 0.45, 'rescaleHeight': False, 'trialN': 90, 'loaded': True, 'loadedTime': 1878.2999999970198, 'positionName': 'LEFT', 'positionCoords': [819.8, 515.5], 'bid': 6.76}, {'imgObject': {}, 'id': 'bagel plain', 'src': '/static/foodstim60/bagel plain.jpg', 'key': 'i', 'origWidth': 410, 'origHeight': 410, 'width': 410, 'height': 410, 'widthPercent': 0.45, 'rescaleHeight': False, 'trialN': 90, 'loaded': True, 'loadedTime': 2106.2000000029802, 'positionName': 'RIGHT', 'positionCoords': [1331.2, 515], 'bid': 7.0600000000000005}]",183524.1000000015,1669829850296,mashed potato,bagel plain,6.76,7.0600000000000005,0.3000000000000007,bagel plain,1602.8999999985099,1603,1603.1000000014901,True,i,185639.6000000015,2115.5,1669829852411,2115,HRV,HRV_0012,2022-11-30 17:40:05
91,"[{'imgObject': {}, 'id': 'raisin bran w milk', 'src': '/static/foodstim60/raisin bran w milk.jpg', 'key': 'u', 'origWidth': 411, 'origHeight': 411, 'width': 411, 'height': 411, 'widthPercent': 0.45, 'rescaleHeight': False, 'trialN': 91, 'loaded': True, 'loadedTime': 2023.5, 'positionName': 'LEFT', 'positionCoords': [817.8, 514.5], 'bid': 1.67}, {'imgObject': {}, 'id': 'turkey sandwich', 'src': '/static/foodstim60/turkey sandwich.jpg', 'key': 'i', 'origWidth': 409, 'origHeight': 409, 'width': 409, 'height': 409, 'widthPercent': 0.45, 'rescaleHeight': False, 'trialN': 91, 'loaded': True, 'loadedTime': 1973.1000000014901, 'positionName': 'RIGHT', 'positionCoords': [1331.2, 515.5], 'bid': 3.49}]",185639.70000000298,1669829852411,raisin bran w milk,turkey sandwich,1.67,3.49,1.8200000000000003,turkey sandwich,1045.1999999955297,1046,1045.2999999970198,True,i,187201.0,1561.2999999970198,1669829853973,1562,HRV,HRV_0012,2022-11-30 17:40:05
92,"[{'imgObject': {}, 'id': 'edamame', 'src': '/static/foodstim60/edamame.jpg', 'key': 'u', 'origWidth': 409, 'origHeight': 410, 'width': 409, 'height': 410, 'widthPercent': 0.45, 'rescaleHeight': False, 'trialN': 92, 'loaded': True, 'loadedTime': 2098.7000000029802, 'positionName': 'LEFT', 'positionCoords': [819.8, 515], 'bid': 2.78}, {'imgObject': {}, 'id': 'cheerios', 'src': '/static/foodstim60/cheerios.jpg', 'key': 'i', 'origWidth': 409, 'origHeight': 410, 'width': 409, 'height': 410, 'widthPercent': 0.45, 'rescaleHeight': False, 'trialN': 92, 'loaded': True, 'loadedTime': 1938.2000000029802, 'positionName': 'RIGHT', 'positionCoords': [1331.2, 515], 'bid': 1.85}]",187201.1000000015,1669829853973,edamame,cheerios,2.78,1.85,-0.9299999999999997,cheerios,1664.8999999985099,1665,1665.0,True,i,189379.29999999702,2178.1999999955297,1669829856151,2178,HRV,HRV_0012,2022-11-30 17:40:05
93,"[{'imgObject': {}, 'id': 'mac & cheese', 'src': '/static/foodstim60/mac & cheese.jpg', 'key': 'u', 'origWidth': 410, 'origHeight': 410, 'width': 410, 'height': 410, 'widthPercent': 0.45, 'rescaleHeight': False, 'trialN': 93, 'loaded': True, 'loadedTime': 2015.7000000029802, 'positionName': 'LEFT', 'positionCoords': [818.8, 515], 'bid': 5}, {'imgObject': {}, 'id': 'banana', 'src': '/static/foodstim60/banana.jpg', 'key': 'i', 'origWidth': 410, 'origHeight': 410, 'width': 410, 'height': 410, 'widthPercent': 0.45, 'rescaleHeight': False, 'trialN': 93, 'loaded': True, 'loadedTime': 2104.7000000029802, 'positionName': 'RIGHT', 'positionCoords': [1331.2, 515], 'bid': 5.0200000000000005}]",189379.29999999702,1669829856151,mac & cheese,banana,5.0,5.0200000000000005,0.020000000000000462,banana,2817.2000000029802,2817,2817.4000000059605,True,i,192708.8999999985,3329.60000000149,1669829859480,3329,HRV,HRV_0012,2022-11-30 17:40:05
94,"[{'imgObject': {}, 'id': 'apple slices', 'src': '/static/foodstim60/apple slices.jpg', 'key': 'u', 'origWidth': 409, 'origHeight': 410, 'width': 409, 'height': 410, 'widthPercent': 0.45, 'rescaleHeight': False, 'trialN': 94, 'loaded': True, 'loadedTime': 1902.6000000014901, 'positionName': 'LEFT', 'positionCoords': [819.8, 515], 'bid': 5.05}, {'imgObject': {}, 'id': 'corn cob', 'src': '/static/foodstim60/corn cob.jpg', 'key': 'i', 'origWidth': 411, 'origHeight': 411, 'width': 411, 'height': 411, 'widthPercent': 0.45, 'rescaleHeight': False, 'trialN': 94, 'loaded': True, 'loadedTime': 2040.7000000029802, 'positionName': 'RIGHT', 'positionCoords': [1331.2, 514.5], 'bid': 6.640000000000001}]",192709.0,1669829859481,apple slices,corn cob,5.05,6.640000000000001,1.5900000000000007,corn cob,936.2000000029802,936,936.3999999985099,True,i,194157.0,1448.0,1669829860929,1448,HRV,HRV_0012,2022-11-30 17:40:05
95,"[{'imgObject': {}, 'id': 'cocktailshrimp', 'src': '/static/foodstim60/cocktailshrimp.jpg', 'key': 'u', 'origWidth': 410, 'origHeight': 410, 'width': 410, 'height': 410, 'widthPercent': 0.45, 'rescaleHeight': False, 'trialN': 95, 'loaded': True, 'loadedTime': 2044.3999999985099, 'positionName': 'LEFT', 'positionCoords': [818.8, 515], 'bid': 9.9}, {'imgObject': {}, 'id': 'chickenfingers', 'src': '/static/foodstim60/chickenfingers.jpg', 'key': 'i', 'origWidth': 410, 'origHeight': 410, 'width': 410, 'height': 410, 'widthPercent': 0.45, 'rescaleHeight': False, 'trialN': 95, 'loaded': True, 'loadedTime': 2107.7999999970198, 'positionName': 'RIGHT', 'positionCoords': [1331.2, 515], 'bid': 9.91}]",194157.1000000015,1669829860929,cocktailshrimp,chickenfingers,9.9,9.91,0.009999999999999787,cocktailshrimp,653.5,653,653.6999999955297,True,u,195323.29999999702,1166.1999999955297,1669829862095,1166,HRV,HRV_0012,2022-11-30 17:40:05
96,"[{'imgObject': {}, 'id': 'apple slices', 'src': '/static/foodstim60/apple slices.jpg', 'key': 'u', 'origWidth': 409, 'origHeight': 410, 'width': 409, 'height': 410, 'widthPercent': 0.45, 'rescaleHeight': False, 'trialN': 96, 'loaded': True, 'loadedTime': 1900.3999999985099, 'positionName': 'LEFT', 'positionCoords': [819.8, 515], 'bid': 5.05}, {'imgObject': {}, 'id': 'hashbrowns', 'src': '/static/foodstim60/hashbrowns.jpg', 'key': 'i', 'origWidth': 411, 'origHeight': 410, 'width': 411, 'height': 410, 'widthPercent': 0.45, 'rescaleHeight': False, 'trialN': 96, 'loaded': True, 'loadedTime': 2078.2000000029802, 'positionName': 'RIGHT', 'positionCoords': [1331.2, 515], 'bid': 5.08}]",195323.3999999985,1669829862095,apple slices,hashbrowns,5.05,5.08,0.03000000000000025,apple slices,1449.3000000044703,1449,1449.5,True,u,197285.70000000298,1962.3000000044703,1669829864057,1962,HRV,HRV_0012,2022-11-30 17:40:05
97,"[{'imgObject': {}, 'id': 'blackbeanswithrice', 'src': '/static/foodstim60/blackbeanswithrice.jpg', 'key': 'u', 'origWidth': 410, 'origHeight': 410, 'width': 410, 'height': 410, 'widthPercent': 0.45, 'rescaleHeight': False, 'trialN': 97, 'loaded': True, 'loadedTime': 1887.2000000029802, 'positionName': 'LEFT', 'positionCoords': [818.8, 515], 'bid': 0}, {'imgObject': {}, 'id': 'rigatoni and sauce', 'src': '/static/foodstim60/rigatoni and sauce.jpg', 'key': 'i', 'origWidth': 410, 'origHeight': 411, 'width': 410, 'height': 411, 'widthPercent': 0.45, 'rescaleHeight': False, 'trialN': 97, 'loaded': True, 'loadedTime': 1965.6000000014901, 'positionName': 'RIGHT', 'positionCoords': [1331.2, 514.5], 'bid': 6.6000000000000005}]",197285.79999999702,1669829864057,blackbeanswithrice,rigatoni and sauce,0.0,6.6000000000000005,6.6000000000000005,rigatoni and sauce,979.6000000014901,980,979.8000000044703,True,i,198774.8999999985,1489.1000000014901,1669829865546,1489,HRV,HRV_0012,2022-11-30 17:40:05
98,"[{'imgObject': {}, 'id': 'salmon', 'src': '/static/foodstim60/salmon.jpg', 'key': 'u', 'origWidth': 410, 'origHeight': 409, 'width': 410, 'height': 409, 'widthPercent': 0.45, 'rescaleHeight': False, 'trialN': 98, 'loaded': True, 'loadedTime': 2097, 'positionName': 'LEFT', 'positionCoords': [818.8, 515.5], 'bid': 9.92}, {'imgObject': {}, 'id': 'kiwi', 'src': '/static/foodstim60/kiwi.jpg', 'key': 'i', 'origWidth': 410, 'origHeight': 410, 'width': 410, 'height': 410, 'widthPercent': 0.45, 'rescaleHeight': False, 'trialN': 98, 'loaded': True, 'loadedTime': 2094.5, 'positionName': 'RIGHT', 'positionCoords': [1331.2, 515], 'bid': 9.96}]",198775.0,1669829865547,salmon,kiwi,9.92,9.96,0.040000000000000924,salmon,809.1000000014901,809,809.2000000029802,True,u,200096.79999999702,1321.7999999970198,1669829866868,1321,HRV,HRV_0012,2022-11-30 17:40:05
99,"[{'imgObject': {}, 'id': 'hotdog w must', 'src': '/static/foodstim60/hotdog w must.jpg', 'key': 'u', 'origWidth': 409, 'origHeight': 409, 'width': 409, 'height': 409, 'widthPercent': 0.45, 'rescaleHeight': False, 'trialN': 99, 'loaded': True, 'loadedTime': 1979, 'positionName': 'LEFT', 'positionCoords': [819.8, 515.5], 'bid': 8.21}, {'imgObject': {}, 'id': 'mango', 'src': '/static/foodstim60/mango.jpg', 'key': 'i', 'origWidth': 411, 'origHeight': 411, 'width': 411, 'height': 411, 'widthPercent': 0.45, 'rescaleHeight': False, 'trialN': 99, 'loaded': True, 'loadedTime': 2048.2000000029802, 'positionName': 'RIGHT', 'positionCoords': [1331.2, 514.5], 'bid': 8.21}]",200096.79999999702,1669829866868,hotdog w must,mango,8.21,8.21,0.0,hotdog w must,1557.8000000044703,1558,1558.0,True,u,202167.1000000015,2070.3000000044703,1669829868939,2071,HRV,HRV_0012,2022-11-30 17:40:05
100,"[{'imgObject': {}, 'id': 'salmon', 'src': '/static/foodstim60/salmon.jpg', 'key': 'u', 'origWidth': 410, 'origHeight': 409, 'width': 410, 'height': 409, 'widthPercent': 0.45, 'rescaleHeight': False, 'trialN': 100, 'loaded': True, 'loadedTime': 2097.10000000149, 'positionName': 'LEFT', 'positionCoords': [818.8, 515.5], 'bid': 9.92}, {'imgObject': {}, 'id': 'strawberries', 'src': '/static/foodstim60/strawberries.jpg', 'key': 'i', 'origWidth': 410, 'origHeight': 410, 'width': 410, 'height': 410, 'widthPercent': 0.45, 'rescaleHeight': False, 'trialN': 100, 'loaded': True, 'loadedTime': 2105.5, 'positionName': 'RIGHT', 'positionCoords': [1331.2, 515], 'bid': 10}]",202167.1000000015,1669829868939,salmon,strawberries,9.92,10.0,0.08000000000000007,salmon,795.5,795,795.6999999955297,True,u,203474.3999999985,1307.2999999970198,1669829870246,1307,HRV,HRV_0012,2022-11-30 17:40:05
101,"[{'imgObject': {}, 'id': 'cherry tomato', 'src': '/static/foodstim60/cherry tomato.jpg', 'key': 'u', 'origWidth': 410, 'origHeight': 410, 'width': 410, 'height': 410, 'widthPercent': 0.45, 'rescaleHeight': False, 'trialN': 101, 'loaded': True, 'loadedTime': 2070.89999999851, 'positionName': 'LEFT', 'positionCoords': [818.8, 515], 'bid': 2.1}, {'imgObject': {}, 'id': 'cantaloupe', 'src': '/static/foodstim60/cantaloupe.jpg', 'key': 'i', 'origWidth': 409, 'origHeight': 409, 'width': 409, 'height': 409, 'widthPercent': 0.45, 'rescaleHeight': False, 'trialN': 101, 'loaded': True, 'loadedTime': 2077.39999999851, 'positionName': 'RIGHT', 'positionCoords': [1331.2, 515.5], 'bid': 4.96}]",203474.5,1669829870246,cherry tomato,cantaloupe,2.1,4.96,2.86,cantaloupe,1106.2000000029802,1106,1106.3999999985099,True,i,205092.3999999985,1617.8999999985099,1669829871864,1618,HRV,HRV_0012,2022-11-30 17:40:05
102,"[{'imgObject': {}, 'id': 'bagel plain', 'src': '/static/foodstim60/bagel plain.jpg', 'key': 'u', 'origWidth': 410, 'origHeight': 410, 'width': 410, 'height': 410, 'widthPercent': 0.45, 'rescaleHeight': False, 'trialN': 102, 'loaded': True, 'loadedTime': 2106.2999999970198, 'positionName': 'LEFT', 'positionCoords': [818.8, 515], 'bid': 7.0600000000000005}, {'imgObject': {}, 'id': 'baked potato', 'src': '/static/foodstim60/baked potato.jpg', 'key': 'i', 'origWidth': 409, 'origHeight': 410, 'width': 409, 'height': 410, 'widthPercent': 0.45, 'rescaleHeight': False, 'trialN': 102, 'loaded': True, 'loadedTime': 2091.7999999970198, 'positionName': 'RIGHT', 'positionCoords': [1331.2, 515], 'bid': 5.04}]",205092.5,1669829871864,bagel plain,baked potato,7.0600000000000005,5.04,-2.0200000000000005,bagel plain,2540.7999999970198,2542,2541.0,True,u,208148.1000000015,3055.60000000149,1669829874921,3057,HRV,HRV_0012,2022-11-30 17:40:05
103,"[{'imgObject': {}, 'id': 'froot loops w milk', 'src': '/static/foodstim60/froot loops w milk.jpg', 'key': 'u', 'origWidth': 410, 'origHeight': 410, 'width': 410, 'height': 410, 'widthPercent': 0.45, 'rescaleHeight': False, 'trialN': 103, 'loaded': True, 'loadedTime': 1917.7000000029802, 'positionName': 'LEFT', 'positionCoords': [818.8, 515], 'bid': 3.71}, {'imgObject': {}, 'id': 'turkeysandwich', 'src': '/static/foodstim60/turkeysandwich.jpg', 'key': 'i', 'origWidth': 409, 'origHeight': 409, 'width': 409, 'height': 409, 'widthPercent': 0.45, 'rescaleHeight': False, 'trialN': 103, 'loaded': True, 'loadedTime': 2008.7999999970198, 'positionName': 'RIGHT', 'positionCoords': [1331.2, 515.5], 'bid': 3.92}]",208148.29999999702,1669829874921,froot loops w milk,turkeysandwich,3.71,3.92,0.20999999999999996,turkeysandwich,935.4000000059605,935,935.6000000014901,True,i,209595.5,1447.2000000029802,1669829876368,1447,HRV,HRV_0012,2022-11-30 17:40:05
104,"[{'imgObject': {}, 'id': 'lox', 'src': '/static/foodstim60/lox.jpg', 'key': 'u', 'origWidth': 410, 'origHeight': 411, 'width': 410, 'height': 411, 'widthPercent': 0.45, 'rescaleHeight': False, 'trialN': 104, 'loaded': True, 'loadedTime': 2089.10000000149, 'positionName': 'LEFT', 'positionCoords': [818.8, 514.5], 'bid': 9.97}, {'imgObject': {}, 'id': 'fried eggs', 'src': '/static/foodstim60/fried eggs.jpg', 'key': 'i', 'origWidth': 410, 'origHeight': 410, 'width': 410, 'height': 410, 'widthPercent': 0.45, 'rescaleHeight': False, 'trialN': 104, 'loaded': True, 'loadedTime': 1925.2999999970198, 'positionName': 'RIGHT', 'positionCoords': [1331.2, 515], 'bid': 5.05}]",209595.6000000015,1669829876368,lox,fried eggs,9.97,5.05,-4.920000000000001,lox,1108.0,1108,1108.1000000014901,True,u,211214.20000000298,1618.6000000014901,1669829877987,1619,HRV,HRV_0012,2022-11-30 17:40:05
105,"[{'imgObject': {}, 'id': 'turkeysandwich', 'src': '/static/foodstim60/turkeysandwich.jpg', 'key': 'u', 'origWidth': 409, 'origHeight': 409, 'width': 409, 'height': 409, 'widthPercent': 0.45, 'rescaleHeight': False, 'trialN': 105, 'loaded': True, 'loadedTime': 2008.6000000014901, 'positionName': 'LEFT', 'positionCoords': [819.8, 515.5], 'bid': 3.92}, {'imgObject': {}, 'id': 'cherries', 'src': '/static/foodstim60/cherries.jpg', 'key': 'i', 'origWidth': 410, 'origHeight': 411, 'width': 410, 'height': 411, 'widthPercent': 0.45, 'rescaleHeight': False, 'trialN': 105, 'loaded': True, 'loadedTime': 2107, 'positionName': 'RIGHT', 'positionCoords': [1331.2, 514.5], 'bid': 1.02}]",211214.20000000298,1669829877987,turkeysandwich,cherries,3.92,1.02,-2.9,turkeysandwich,825.5,825,825.5999999940395,True,u,212552.0,1337.7999999970198,1669829879324,1337,HRV,HRV_0012,2022-11-30 17:40:05
106,"[{'imgObject': {}, 'id': 'shreddedwheatwithmilk', 'src': '/static/foodstim60/shreddedwheatwithmilk.jpg', 'key': 'u', 'origWidth': 410, 'origHeight': 410, 'width': 410, 'height': 410, 'widthPercent': 0.45, 'rescaleHeight': False, 'trialN': 106, 'loaded': True, 'loadedTime': 2032.1000000014901, 'positionName': 'LEFT', 'positionCoords': [818.8, 515], 'bid': 3.44}, {'imgObject': {}, 'id': 'hotdog w must', 'src': '/static/foodstim60/hotdog w must.jpg', 'key': 'i', 'origWidth': 409, 'origHeight': 409, 'width': 409, 'height': 409, 'widthPercent': 0.45, 'rescaleHeight': False, 'trialN': 106, 'loaded': True, 'loadedTime': 1982.3999999985099, 'positionName': 'RIGHT', 'positionCoords': [1331.2, 515.5], 'bid': 8.21}]",212552.0,1669829879325,shreddedwheatwithmilk,hotdog w must,3.44,8.21,4.770000000000001,hotdog w must,1264.1000000014901,1264,1264.2999999970198,True,i,214328.0,1776.0,1669829881100,1775,HRV,HRV_0012,2022-11-30 17:40:05
107,"[{'imgObject': {}, 'id': 'froot loops w milk', 'src': '/static/foodstim60/froot loops w milk.jpg', 'key': 'u', 'origWidth': 410, 'origHeight': 410, 'width': 410, 'height': 410, 'widthPercent': 0.45, 'rescaleHeight': False, 'trialN': 107, 'loaded': True, 'loadedTime': 1916, 'positionName': 'LEFT', 'positionCoords': [818.8, 515], 'bid': 3.71}, {'imgObject': {}, 'id': 'yogurt no spoon', 'src': '/static/foodstim60/yogurt no spoon.jpg', 'key': 'i', 'origWidth': 411, 'origHeight': 410, 'width': 411, 'height': 410, 'widthPercent': 0.45, 'rescaleHeight': False, 'trialN': 107, 'loaded': True, 'loadedTime': 2082.2999999970198, 'positionName': 'RIGHT', 'positionCoords': [1331.2, 515], 'bid': 9.85}]",214328.1000000015,1669829881101,froot loops w milk,yogurt no spoon,3.71,9.85,6.14,yogurt no spoon,1762.3999999985099,1762,1762.5,True,i,216600.8999999985,2272.7999999970198,1669829883373,2272,HRV,HRV_0012,2022-11-30 17:40:05
