trialN,stimuli,trialStartTime,trialStartTime_UNIX,stimulus1,stimulus2,stimulus1Bid,stimulus2Bid,delta,selected,rt,rt_UNIX,rt_perfnow,receivedResponse,rsp,trialEndTime,trialDuration,trialEndTime_UNIX,trialDuration_UNIX,exp,subjectId,date
0,"[{'imgObject': {}, 'id': 'rigatoni and sauce', 'src': '/static/foodstim60/rigatoni and sauce.jpg', 'key': 'u', 'origWidth': 410, 'origHeight': 411, 'width': 410, 'height': 411, 'widthPercent': 0.45, 'rescaleHeight': False, 'trialN': 0, 'loaded': True, 'loadedTime': 3989, 'positionName': 'LEFT', 'positionCoords': [242.8, 178.5], 'bid': 5.64}, {'imgObject': {}, 'id': 'apple slices', 'src': '/static/foodstim60/apple slices.jpg', 'key': 'i', 'origWidth': 409, 'origHeight': 410, 'width': 409, 'height': 410, 'widthPercent': 0.45, 'rescaleHeight': False, 'trialN': 0, 'loaded': True, 'loadedTime': 3991, 'positionName': 'RIGHT', 'positionCoords': [707.2, 179], 'bid': 4.91}]",4112,1669844314155,rigatoni and sauce,apple slices,5.64,4.91,-0.7299999999999995,rigatoni and sauce,1799,1814,1813,True,u,6428,2316,1669844316471,2316,HRV,HRV_0310,2022-11-30 21:44:49
1,"[{'imgObject': {}, 'id': 'tacos', 'src': '/static/foodstim60/tacos.jpg', 'key': 'u', 'origWidth': 411, 'origHeight': 411, 'width': 411, 'height': 411, 'widthPercent': 0.45, 'rescaleHeight': False, 'trialN': 1, 'loaded': True, 'loadedTime': 3993, 'positionName': 'LEFT', 'positionCoords': [241.8, 178.5], 'bid': 2.89}, {'imgObject': {}, 'id': 'roastedpotatoes', 'src': '/static/foodstim60/roastedpotatoes.jpg', 'key': 'i', 'origWidth': 409, 'origHeight': 410, 'width': 409, 'height': 410, 'widthPercent': 0.45, 'rescaleHeight': False, 'trialN': 1, 'loaded': True, 'loadedTime': 3994, 'positionName': 'RIGHT', 'positionCoords': [707.2, 179], 'bid': 2.63}]",6428,1669844316472,tacos,roastedpotatoes,2.89,2.63,-0.26000000000000023,tacos,1578,1588,1587,True,u,8528,2100,1669844318572,2100,HRV,HRV_0310,2022-11-30 21:44:49
2,"[{'imgObject': {}, 'id': 'grilled chicken strips', 'src': '/static/foodstim60/grilled chicken strips.jpg', 'key': 'u', 'origWidth': 410, 'origHeight': 411, 'width': 410, 'height': 411, 'widthPercent': 0.45, 'rescaleHeight': False, 'trialN': 2, 'loaded': True, 'loadedTime': 3995, 'positionName': 'LEFT', 'positionCoords': [242.8, 178.5], 'bid': 5.75}, {'imgObject': {}, 'id': 'turkey sandwich', 'src': '/static/foodstim60/turkey sandwich.jpg', 'key': 'i', 'origWidth': 409, 'origHeight': 409, 'width': 409, 'height': 409, 'widthPercent': 0.45, 'rescaleHeight': False, 'trialN': 2, 'loaded': True, 'loadedTime': 3997, 'positionName': 'RIGHT', 'positionCoords': [707.2, 179.5], 'bid': 7.04}]",8528,1669844318572,grilled chicken strips,turkey sandwich,5.75,7.04,1.29,turkey sandwich,1211,1217,1218,True,i,10250,1722,1669844320295,1723,HRV,HRV_0310,2022-11-30 21:44:49
3,"[{'imgObject': {}, 'id': 'sweetpotato', 'src': '/static/foodstim60/sweetpotato.jpg', 'key': 'u', 'origWidth': 410, 'origHeight': 410, 'width': 410, 'height': 410, 'widthPercent': 0.45, 'rescaleHeight': False, 'trialN': 3, 'loaded': True, 'loadedTime': 3998, 'positionName': 'LEFT', 'positionCoords': [242.8, 179], 'bid': 1.6}, {'imgObject': {}, 'id': 'bagel and cc', 'src': '/static/foodstim60/bagel and cc.jpg', 'key': 'i', 'origWidth': 410, 'origHeight': 410, 'width': 410, 'height': 410, 'widthPercent': 0.45, 'rescaleHeight': False, 'trialN': 3, 'loaded': True, 'loadedTime': 3999, 'positionName': 'RIGHT', 'positionCoords': [707.2, 179], 'bid': 0.55}]",10250,1669844320295,sweetpotato,bagel and cc,1.6,0.55,-1.05,bagel and cc,1178,1179,1180,True,i,11945,1695,1669844321988,1693,HRV,HRV_0310,2022-11-30 21:44:49
4,"[{'imgObject': {}, 'id': 'raspberries', 'src': '/static/foodstim60/raspberries.jpg', 'key': 'u', 'origWidth': 411, 'origHeight': 411, 'width': 411, 'height': 411, 'widthPercent': 0.45, 'rescaleHeight': False, 'trialN': 4, 'loaded': True, 'loadedTime': 4000, 'positionName': 'LEFT', 'positionCoords': [241.8, 178.5], 'bid': 5.7}, {'imgObject': {}, 'id': 'cherries', 'src': '/static/foodstim60/cherries.jpg', 'key': 'i', 'origWidth': 410, 'origHeight': 411, 'width': 410, 'height': 411, 'widthPercent': 0.45, 'rescaleHeight': False, 'trialN': 4, 'loaded': True, 'loadedTime': 4001, 'positionName': 'RIGHT', 'positionCoords': [707.2, 178.5], 'bid': 1.95}]",11945,1669844321988,raspberries,cherries,5.7,1.95,-3.75,raspberries,1530,1536,1535,True,u,13994,2049,1669844324038,2050,HRV,HRV_0310,2022-11-30 21:44:49
5,"[{'imgObject': {}, 'id': 'chicken nuggets2', 'src': '/static/foodstim60/chicken nuggets2.jpg', 'key': 'u', 'origWidth': 410, 'origHeight': 409, 'width': 410, 'height': 409, 'widthPercent': 0.45, 'rescaleHeight': False, 'trialN': 5, 'loaded': True, 'loadedTime': 4002, 'positionName': 'LEFT', 'positionCoords': [242.8, 179.5], 'bid': 5.75}, {'imgObject': {}, 'id': 'edamame', 'src': '/static/foodstim60/edamame.jpg', 'key': 'i', 'origWidth': 409, 'origHeight': 410, 'width': 409, 'height': 410, 'widthPercent': 0.45, 'rescaleHeight': False, 'trialN': 5, 'loaded': True, 'loadedTime': 4003, 'positionName': 'RIGHT', 'positionCoords': [707.2, 179], 'bid': 2.13}]",13995,1669844324038,chicken nuggets2,edamame,5.75,2.13,-3.62,chicken nuggets2,1057,1073,1072,True,u,15567,1572,1669844325611,1573,HRV,HRV_0310,2022-11-30 21:44:49
6,"[{'imgObject': {}, 'id': 'eggsalad', 'src': '/static/foodstim60/eggsalad.jpg', 'key': 'u', 'origWidth': 410, 'origHeight': 409, 'width': 410, 'height': 409, 'widthPercent': 0.45, 'rescaleHeight': False, 'trialN': 6, 'loaded': True, 'loadedTime': 4004, 'positionName': 'LEFT', 'positionCoords': [242.8, 179.5], 'bid': 4.83}, {'imgObject': {}, 'id': 'omelette', 'src': '/static/foodstim60/omelette.jpg', 'key': 'i', 'origWidth': 410, 'origHeight': 409, 'width': 410, 'height': 409, 'widthPercent': 0.45, 'rescaleHeight': False, 'trialN': 6, 'loaded': True, 'loadedTime': 4005, 'positionName': 'RIGHT', 'positionCoords': [707.2, 179.5], 'bid': 4.88}]",15567,1669844325611,eggsalad,omelette,4.83,4.88,0.04999999999999982,omelette,1438,1448,1448,True,i,17528,1961,1669844327573,1962,HRV,HRV_0310,2022-11-30 21:44:49
7,"[{'imgObject': {}, 'id': 'Tribe humus pita', 'src': '/static/foodstim60/Tribe humus pita.jpg', 'key': 'u', 'origWidth': 411, 'origHeight': 411, 'width': 411, 'height': 411, 'widthPercent': 0.45, 'rescaleHeight': False, 'trialN': 7, 'loaded': True, 'loadedTime': 4006, 'positionName': 'LEFT', 'positionCoords': [241.8, 178.5], 'bid': 1.39}, {'imgObject': {}, 'id': 'yogurt no spoon', 'src': '/static/foodstim60/yogurt no spoon.jpg', 'key': 'i', 'origWidth': 411, 'origHeight': 410, 'width': 411, 'height': 410, 'widthPercent': 0.45, 'rescaleHeight': False, 'trialN': 7, 'loaded': True, 'loadedTime': 4008, 'positionName': 'RIGHT', 'positionCoords': [707.2, 179], 'bid': 4.91}]",17529,1669844327573,Tribe humus pita,yogurt no spoon,1.39,4.91,3.5200000000000005,yogurt no spoon,1243,1256,1255,True,i,19299,1770,1669844329343,1770,HRV,HRV_0310,2022-11-30 21:44:49
8,"[{'imgObject': {}, 'id': 'Tribe humus pita', 'src': '/static/foodstim60/Tribe humus pita.jpg', 'key': 'u', 'origWidth': 411, 'origHeight': 411, 'width': 411, 'height': 411, 'widthPercent': 0.45, 'rescaleHeight': False, 'trialN': 8, 'loaded': True, 'loadedTime': 4008, 'positionName': 'LEFT', 'positionCoords': [241.8, 178.5], 'bid': 1.39}, {'imgObject': {}, 'id': 'cherry tomato', 'src': '/static/foodstim60/cherry tomato.jpg', 'key': 'i', 'origWidth': 410, 'origHeight': 410, 'width': 410, 'height': 410, 'widthPercent': 0.45, 'rescaleHeight': False, 'trialN': 8, 'loaded': True, 'loadedTime': 4009, 'positionName': 'RIGHT', 'positionCoords': [707.2, 179], 'bid': 0.51}]",19299,1669844329343,Tribe humus pita,cherry tomato,1.39,0.51,-0.8799999999999999,Tribe humus pita,1378,1391,1391,True,u,21193,1894,1669844331236,1893,HRV,HRV_0310,2022-11-30 21:44:49
9,"[{'imgObject': {}, 'id': 'salmon', 'src': '/static/foodstim60/salmon.jpg', 'key': 'u', 'origWidth': 410, 'origHeight': 409, 'width': 410, 'height': 409, 'widthPercent': 0.45, 'rescaleHeight': False, 'trialN': 9, 'loaded': True, 'loadedTime': 4010, 'positionName': 'LEFT', 'positionCoords': [242.8, 179.5], 'bid': 4.05}, {'imgObject': {}, 'id': 'lox', 'src': '/static/foodstim60/lox.jpg', 'key': 'i', 'origWidth': 410, 'origHeight': 411, 'width': 410, 'height': 411, 'widthPercent': 0.45, 'rescaleHeight': False, 'trialN': 9, 'loaded': True, 'loadedTime': 4011, 'positionName': 'RIGHT', 'positionCoords': [707.2, 178.5], 'bid': 3.64}]",21193,1669844331236,salmon,lox,4.05,3.64,-0.4099999999999997,salmon,1625,1630,1629,True,u,23325,2132,1669844333369,2133,HRV,HRV_0310,2022-11-30 21:44:49
10,"[{'imgObject': {}, 'id': 'shreddedwheatwithmilk', 'src': '/static/foodstim60/shreddedwheatwithmilk.jpg', 'key': 'u', 'origWidth': 410, 'origHeight': 410, 'width': 410, 'height': 410, 'widthPercent': 0.45, 'rescaleHeight': False, 'trialN': 10, 'loaded': True, 'loadedTime': 4012, 'positionName': 'LEFT', 'positionCoords': [242.8, 179], 'bid': 4.58}, {'imgObject': {}, 'id': 'hashbrowns', 'src': '/static/foodstim60/hashbrowns.jpg', 'key': 'i', 'origWidth': 411, 'origHeight': 410, 'width': 411, 'height': 410, 'widthPercent': 0.45, 'rescaleHeight': False, 'trialN': 10, 'loaded': True, 'loadedTime': 4013, 'positionName': 'RIGHT', 'positionCoords': [707.2, 179], 'bid': 3.6}]",23325,1669844333369,shreddedwheatwithmilk,hashbrowns,4.58,3.6,-0.98,shreddedwheatwithmilk,1821,1829,1829,True,u,25659,2334,1669844335704,2335,HRV,HRV_0310,2022-11-30 21:44:49
11,"[{'imgObject': {}, 'id': 'apple slices', 'src': '/static/foodstim60/apple slices.jpg', 'key': 'u', 'origWidth': 409, 'origHeight': 410, 'width': 409, 'height': 410, 'widthPercent': 0.45, 'rescaleHeight': False, 'trialN': 11, 'loaded': True, 'loadedTime': 3993, 'positionName': 'LEFT', 'positionCoords': [243.8, 179], 'bid': 4.91}, {'imgObject': {}, 'id': 'mac & cheese', 'src': '/static/foodstim60/mac & cheese.jpg', 'key': 'i', 'origWidth': 410, 'origHeight': 410, 'width': 410, 'height': 410, 'widthPercent': 0.45, 'rescaleHeight': False, 'trialN': 11, 'loaded': True, 'loadedTime': 4015, 'positionName': 'RIGHT', 'positionCoords': [707.2, 179], 'bid': 3.5700000000000003}]",25659,1669844335704,apple slices,mac & cheese,4.91,3.5700000000000003,-1.3399999999999999,apple slices,1674,1689,1689,True,u,27853,2194,1669844337898,2194,HRV,HRV_0310,2022-11-30 21:44:49
12,"[{'imgObject': {}, 'id': 'popsicles', 'src': '/static/foodstim60/popsicles.jpg', 'key': 'u', 'origWidth': 410, 'origHeight': 410, 'width': 410, 'height': 410, 'widthPercent': 0.45, 'rescaleHeight': False, 'trialN': 12, 'loaded': True, 'loadedTime': 4016, 'positionName': 'LEFT', 'positionCoords': [242.8, 179], 'bid': 1.94}, {'imgObject': {}, 'id': 'hashbrowns', 'src': '/static/foodstim60/hashbrowns.jpg', 'key': 'i', 'origWidth': 411, 'origHeight': 410, 'width': 411, 'height': 410, 'widthPercent': 0.45, 'rescaleHeight': False, 'trialN': 12, 'loaded': True, 'loadedTime': 4014, 'positionName': 'RIGHT', 'positionCoords': [707.2, 179], 'bid': 3.6}]",27853,1669844337898,popsicles,hashbrowns,1.94,3.6,1.6600000000000001,hashbrowns,1153,1161,1162,True,i,29523,1670,1669844339567,1669,HRV,HRV_0310,2022-11-30 21:44:49
13,"[{'imgObject': {}, 'id': 'veggieswithdip', 'src': '/static/foodstim60/veggieswithdip.jpg', 'key': 'u', 'origWidth': 409, 'origHeight': 409, 'width': 409, 'height': 409, 'widthPercent': 0.45, 'rescaleHeight': False, 'trialN': 13, 'loaded': True, 'loadedTime': 4017, 'positionName': 'LEFT', 'positionCoords': [243.8, 179.5], 'bid': 4.41}, {'imgObject': {}, 'id': 'froot loops w milk', 'src': '/static/foodstim60/froot loops w milk.jpg', 'key': 'i', 'origWidth': 410, 'origHeight': 410, 'width': 410, 'height': 410, 'widthPercent': 0.45, 'rescaleHeight': False, 'trialN': 13, 'loaded': True, 'loadedTime': 4018, 'positionName': 'RIGHT', 'positionCoords': [707.2, 179], 'bid': 5.79}]",29523,1669844339567,veggieswithdip,froot loops w milk,4.41,5.79,1.38,froot loops w milk,1779,1784,1785,True,i,31819,2296,1669844341863,2296,HRV,HRV_0310,2022-11-30 21:44:49
14,"[{'imgObject': {}, 'id': 'rigatoni and sauce', 'src': '/static/foodstim60/rigatoni and sauce.jpg', 'key': 'u', 'origWidth': 410, 'origHeight': 411, 'width': 410, 'height': 411, 'widthPercent': 0.45, 'rescaleHeight': False, 'trialN': 14, 'loaded': True, 'loadedTime': 3991, 'positionName': 'LEFT', 'positionCoords': [242.8, 178.5], 'bid': 5.64}, {'imgObject': {}, 'id': 'steak', 'src': '/static/foodstim60/steak.jpg', 'key': 'i', 'origWidth': 410, 'origHeight': 410, 'width': 410, 'height': 410, 'widthPercent': 0.45, 'rescaleHeight': False, 'trialN': 14, 'loaded': True, 'loadedTime': 4019, 'positionName': 'RIGHT', 'positionCoords': [707.2, 179], 'bid': 5.33}]",31819,1669844341863,rigatoni and sauce,steak,5.64,5.33,-0.3099999999999996,rigatoni and sauce,1592,1600,1599,True,u,33927,2108,1669844343971,2108,HRV,HRV_0310,2022-11-30 21:44:49
15,"[{'imgObject': {}, 'id': 'popsicles', 'src': '/static/foodstim60/popsicles.jpg', 'key': 'u', 'origWidth': 410, 'origHeight': 410, 'width': 410, 'height': 410, 'widthPercent': 0.45, 'rescaleHeight': False, 'trialN': 15, 'loaded': True, 'loadedTime': 4017, 'positionName': 'LEFT', 'positionCoords': [242.8, 179], 'bid': 1.94}, {'imgObject': {}, 'id': 'bagel and cc', 'src': '/static/foodstim60/bagel and cc.jpg', 'key': 'i', 'origWidth': 410, 'origHeight': 410, 'width': 410, 'height': 410, 'widthPercent': 0.45, 'rescaleHeight': False, 'trialN': 15, 'loaded': True, 'loadedTime': 4000, 'positionName': 'RIGHT', 'positionCoords': [707.2, 179], 'bid': 0.55}]",33928,1669844343971,popsicles,bagel and cc,1.94,0.55,-1.39,bagel and cc,1249,1260,1259,True,i,35693,1765,1669844345737,1766,HRV,HRV_0310,2022-11-30 21:44:49
16,"[{'imgObject': {}, 'id': 'sushi w_condiments', 'src': '/static/foodstim60/sushi w_condiments.jpg', 'key': 'u', 'origWidth': 410, 'origHeight': 410, 'width': 410, 'height': 410, 'widthPercent': 0.45, 'rescaleHeight': False, 'trialN': 16, 'loaded': True, 'loadedTime': 4020, 'positionName': 'LEFT', 'positionCoords': [242.8, 179], 'bid': 1.89}, {'imgObject': {}, 'id': 'orange slices', 'src': '/static/foodstim60/orange slices.jpg', 'key': 'i', 'origWidth': 409, 'origHeight': 410, 'width': 409, 'height': 410, 'widthPercent': 0.45, 'rescaleHeight': False, 'trialN': 16, 'loaded': True, 'loadedTime': 4022, 'positionName': 'RIGHT', 'positionCoords': [707.2, 179], 'bid': 1.72}]",35693,1669844345737,sushi w_condiments,orange slices,1.89,1.72,-0.16999999999999993,orange slices,2328,2334,2334,True,i,38538,2845,1669844348582,2845,HRV,HRV_0310,2022-11-30 21:44:49
17,"[{'imgObject': {}, 'id': 'olives', 'src': '/static/foodstim60/olives.jpg', 'key': 'u', 'origWidth': 410, 'origHeight': 410, 'width': 410, 'height': 410, 'widthPercent': 0.45, 'rescaleHeight': False, 'trialN': 17, 'loaded': True, 'loadedTime': 4023, 'positionName': 'LEFT', 'positionCoords': [242.8, 179], 'bid': 0.63}, {'imgObject': {}, 'id': 'mango', 'src': '/static/foodstim60/mango.jpg', 'key': 'i', 'origWidth': 411, 'origHeight': 411, 'width': 411, 'height': 411, 'widthPercent': 0.45, 'rescaleHeight': False, 'trialN': 17, 'loaded': True, 'loadedTime': 4024, 'positionName': 'RIGHT', 'positionCoords': [707.2, 178.5], 'bid': 1.82}]",38538,1669844348582,olives,mango,0.63,1.82,1.19,mango,1764,1783,1782,True,i,40830,2292,1669844350874,2292,HRV,HRV_0310,2022-11-30 21:44:49
18,"[{'imgObject': {}, 'id': 'mashed potato', 'src': '/static/foodstim60/mashed potato.jpg', 'key': 'u', 'origWidth': 409, 'origHeight': 409, 'width': 409, 'height': 409, 'widthPercent': 0.45, 'rescaleHeight': False, 'trialN': 18, 'loaded': True, 'loadedTime': 4026, 'positionName': 'LEFT', 'positionCoords': [243.8, 179.5], 'bid': 2.94}, {'imgObject': {}, 'id': 'bagel plain', 'src': '/static/foodstim60/bagel plain.jpg', 'key': 'i', 'origWidth': 410, 'origHeight': 410, 'width': 410, 'height': 410, 'widthPercent': 0.45, 'rescaleHeight': False, 'trialN': 18, 'loaded': True, 'loadedTime': 4027, 'positionName': 'RIGHT', 'positionCoords': [707.2, 179], 'bid': 0.8300000000000001}]",40830,1669844350874,mashed potato,bagel plain,2.94,0.8300000000000001,-2.11,mashed potato,1082,1095,1094,True,u,42433,1603,1669844352477,1603,HRV,HRV_0310,2022-11-30 21:44:49
19,"[{'imgObject': {}, 'id': 'eggsalad', 'src': '/static/foodstim60/eggsalad.jpg', 'key': 'u', 'origWidth': 410, 'origHeight': 409, 'width': 410, 'height': 409, 'widthPercent': 0.45, 'rescaleHeight': False, 'trialN': 19, 'loaded': True, 'loadedTime': 4005, 'positionName': 'LEFT', 'positionCoords': [242.8, 179.5], 'bid': 4.83}, {'imgObject': {}, 'id': 'veggieswithdip', 'src': '/static/foodstim60/veggieswithdip.jpg', 'key': 'i', 'origWidth': 409, 'origHeight': 409, 'width': 409, 'height': 409, 'widthPercent': 0.45, 'rescaleHeight': False, 'trialN': 19, 'loaded': True, 'loadedTime': 4018, 'positionName': 'RIGHT', 'positionCoords': [707.2, 179.5], 'bid': 4.41}]",42433,1669844352477,eggsalad,veggieswithdip,4.83,4.41,-0.41999999999999993,eggsalad,1448,1461,1462,True,u,44396,1963,1669844354440,1963,HRV,HRV_0310,2022-11-30 21:44:49
20,"[{'imgObject': {}, 'id': 'steak', 'src': '/static/foodstim60/steak.jpg', 'key': 'u', 'origWidth': 410, 'origHeight': 410, 'width': 410, 'height': 410, 'widthPercent': 0.45, 'rescaleHeight': False, 'trialN': 20, 'loaded': True, 'loadedTime': 4020, 'positionName': 'LEFT', 'positionCoords': [242.8, 179], 'bid': 5.33}, {'imgObject': {}, 'id': 'mango', 'src': '/static/foodstim60/mango.jpg', 'key': 'i', 'origWidth': 411, 'origHeight': 411, 'width': 411, 'height': 411, 'widthPercent': 0.45, 'rescaleHeight': False, 'trialN': 20, 'loaded': True, 'loadedTime': 4026, 'positionName': 'RIGHT', 'positionCoords': [707.2, 178.5], 'bid': 1.82}]",44397,1669844354440,steak,mango,5.33,1.82,-3.51,steak,1139,1142,1142,True,u,46040,1643,1669844356084,1644,HRV,HRV_0310,2022-11-30 21:44:49
21,"[{'imgObject': {}, 'id': 'kiwi', 'src': '/static/foodstim60/kiwi.jpg', 'key': 'u', 'origWidth': 410, 'origHeight': 410, 'width': 410, 'height': 410, 'widthPercent': 0.45, 'rescaleHeight': False, 'trialN': 21, 'loaded': True, 'loadedTime': 4028, 'positionName': 'LEFT', 'positionCoords': [242.8, 179], 'bid': 4.13}, {'imgObject': {}, 'id': 'raisin bran w milk', 'src': '/static/foodstim60/raisin bran w milk.jpg', 'key': 'i', 'origWidth': 411, 'origHeight': 411, 'width': 411, 'height': 411, 'widthPercent': 0.45, 'rescaleHeight': False, 'trialN': 21, 'loaded': True, 'loadedTime': 4029, 'positionName': 'RIGHT', 'positionCoords': [707.2, 178.5], 'bid': 4.36}]",46040,1669844356084,kiwi,raisin bran w milk,4.13,4.36,0.23000000000000043,raisin bran w milk,1856,1875,1875,True,i,48423,2383,1669844358467,2383,HRV,HRV_0310,2022-11-30 21:44:49
22,"[{'imgObject': {}, 'id': 'cherries', 'src': '/static/foodstim60/cherries.jpg', 'key': 'u', 'origWidth': 410, 'origHeight': 411, 'width': 410, 'height': 411, 'widthPercent': 0.45, 'rescaleHeight': False, 'trialN': 22, 'loaded': True, 'loadedTime': 4002, 'positionName': 'LEFT', 'positionCoords': [242.8, 178.5], 'bid': 1.95}, {'imgObject': {}, 'id': 'corn cob', 'src': '/static/foodstim60/corn cob.jpg', 'key': 'i', 'origWidth': 411, 'origHeight': 411, 'width': 411, 'height': 411, 'widthPercent': 0.45, 'rescaleHeight': False, 'trialN': 22, 'loaded': True, 'loadedTime': 4030, 'positionName': 'RIGHT', 'positionCoords': [707.2, 178.5], 'bid': 2.3000000000000003}]",48423,1669844358467,cherries,corn cob,1.95,2.3000000000000003,0.3500000000000003,corn cob,1411,1421,1421,True,i,50356,1933,1669844360400,1933,HRV,HRV_0310,2022-11-30 21:44:49
23,"[{'imgObject': {}, 'id': 'blueberries', 'src': '/static/foodstim60/blueberries.jpg', 'key': 'u', 'origWidth': 411, 'origHeight': 411, 'width': 411, 'height': 411, 'widthPercent': 0.45, 'rescaleHeight': False, 'trialN': 23, 'loaded': True, 'loadedTime': 4031, 'positionName': 'LEFT', 'positionCoords': [241.8, 178.5], 'bid': 5.1000000000000005}, {'imgObject': {}, 'id': 'yogurt no spoon', 'src': '/static/foodstim60/yogurt no spoon.jpg', 'key': 'i', 'origWidth': 411, 'origHeight': 410, 'width': 411, 'height': 410, 'widthPercent': 0.45, 'rescaleHeight': False, 'trialN': 23, 'loaded': True, 'loadedTime': 4009, 'positionName': 'RIGHT', 'positionCoords': [707.2, 179], 'bid': 4.91}]",50356,1669844360400,blueberries,yogurt no spoon,5.1000000000000005,4.91,-0.1900000000000004,yogurt no spoon,1275,1297,1298,True,i,52169,1813,1669844362212,1812,HRV,HRV_0310,2022-11-30 21:44:49
24,"[{'imgObject': {}, 'id': 'Grapes', 'src': '/static/foodstim60/Grapes.jpg', 'key': 'u', 'origWidth': 411, 'origHeight': 411, 'width': 411, 'height': 411, 'widthPercent': 0.45, 'rescaleHeight': False, 'trialN': 24, 'loaded': True, 'loadedTime': 4032, 'positionName': 'LEFT', 'positionCoords': [241.8, 178.5], 'bid': 6.140000000000001}, {'imgObject': {}, 'id': 'burger', 'src': '/static/foodstim60/burger.jpg', 'key': 'i', 'origWidth': 409, 'origHeight': 409, 'width': 409, 'height': 409, 'widthPercent': 0.45, 'rescaleHeight': False, 'trialN': 24, 'loaded': True, 'loadedTime': 4033, 'positionName': 'RIGHT', 'positionCoords': [707.2, 179.5], 'bid': 7.26}]",52169,1669844362213,Grapes,burger,6.140000000000001,7.26,1.1199999999999992,burger,1024,1048,1048,True,i,53719,1550,1669844363764,1551,HRV,HRV_0310,2022-11-30 21:44:49
25,"[{'imgObject': {}, 'id': 'blackbeanswithrice', 'src': '/static/foodstim60/blackbeanswithrice.jpg', 'key': 'u', 'origWidth': 410, 'origHeight': 410, 'width': 410, 'height': 410, 'widthPercent': 0.45, 'rescaleHeight': False, 'trialN': 25, 'loaded': True, 'loadedTime': 4034, 'positionName': 'LEFT', 'positionCoords': [242.8, 179], 'bid': 3.17}, {'imgObject': {}, 'id': 'Tribe humus pita', 'src': '/static/foodstim60/Tribe humus pita.jpg', 'key': 'i', 'origWidth': 411, 'origHeight': 411, 'width': 411, 'height': 411, 'widthPercent': 0.45, 'rescaleHeight': False, 'trialN': 25, 'loaded': True, 'loadedTime': 4008, 'positionName': 'RIGHT', 'positionCoords': [707.2, 178.5], 'bid': 1.39}]",53719,1669844363764,blackbeanswithrice,Tribe humus pita,3.17,1.39,-1.78,blackbeanswithrice,1645,1669,1670,True,u,55894,2175,1669844365938,2174,HRV,HRV_0310,2022-11-30 21:44:49
26,"[{'imgObject': {}, 'id': 'rigatoni', 'src': '/static/foodstim60/rigatoni.jpg', 'key': 'u', 'origWidth': 411, 'origHeight': 411, 'width': 411, 'height': 411, 'widthPercent': 0.45, 'rescaleHeight': False, 'trialN': 26, 'loaded': True, 'loadedTime': 4035, 'positionName': 'LEFT', 'positionCoords': [241.8, 178.5], 'bid': 5.83}, {'imgObject': {}, 'id': 'shreddedwheatwithmilk', 'src': '/static/foodstim60/shreddedwheatwithmilk.jpg', 'key': 'i', 'origWidth': 410, 'origHeight': 410, 'width': 410, 'height': 410, 'widthPercent': 0.45, 'rescaleHeight': False, 'trialN': 26, 'loaded': True, 'loadedTime': 4013, 'positionName': 'RIGHT', 'positionCoords': [707.2, 179], 'bid': 4.58}]",55895,1669844365938,rigatoni,shreddedwheatwithmilk,5.83,4.58,-1.25,rigatoni,1485,1504,1503,True,u,57900,2005,1669844367944,2006,HRV,HRV_0310,2022-11-30 21:44:49
27,"[{'imgObject': {}, 'id': 'avocado', 'src': '/static/foodstim60/avocado.jpg', 'key': 'u', 'origWidth': 409, 'origHeight': 409, 'width': 409, 'height': 409, 'widthPercent': 0.45, 'rescaleHeight': False, 'trialN': 27, 'loaded': True, 'loadedTime': 4036, 'positionName': 'LEFT', 'positionCoords': [243.8, 179.5], 'bid': 1.13}, {'imgObject': {}, 'id': 'baked potato', 'src': '/static/foodstim60/baked potato.jpg', 'key': 'i', 'origWidth': 409, 'origHeight': 410, 'width': 409, 'height': 410, 'widthPercent': 0.45, 'rescaleHeight': False, 'trialN': 27, 'loaded': True, 'loadedTime': 4037, 'positionName': 'RIGHT', 'positionCoords': [707.2, 179], 'bid': 2.95}]",57900,1669844367944,avocado,baked potato,1.13,2.95,1.8200000000000003,baked potato,1543,1570,1570,True,i,59975,2075,1669844370019,2075,HRV,HRV_0310,2022-11-30 21:44:49
28,"[{'imgObject': {}, 'id': 'mac & cheese', 'src': '/static/foodstim60/mac & cheese.jpg', 'key': 'u', 'origWidth': 410, 'origHeight': 410, 'width': 410, 'height': 410, 'widthPercent': 0.45, 'rescaleHeight': False, 'trialN': 28, 'loaded': True, 'loadedTime': 4016, 'positionName': 'LEFT', 'positionCoords': [242.8, 179], 'bid': 3.5700000000000003}, {'imgObject': {}, 'id': 'sushi w_condiments', 'src': '/static/foodstim60/sushi w_condiments.jpg', 'key': 'i', 'origWidth': 410, 'origHeight': 410, 'width': 410, 'height': 410, 'widthPercent': 0.45, 'rescaleHeight': False, 'trialN': 28, 'loaded': True, 'loadedTime': 4021, 'positionName': 'RIGHT', 'positionCoords': [707.2, 179], 'bid': 1.89}]",59975,1669844370019,mac & cheese,sushi w_condiments,3.5700000000000003,1.89,-1.6800000000000004,mac & cheese,1514,1523,1523,True,u,62011,2036,1669844372056,2037,HRV,HRV_0310,2022-11-30 21:44:49
29,"[{'imgObject': {}, 'id': 'ice cream sundae 002', 'src': '/static/foodstim60/ice cream sundae 002.jpg', 'key': 'u', 'origWidth': 409, 'origHeight': 409, 'width': 409, 'height': 409, 'widthPercent': 0.45, 'rescaleHeight': False, 'trialN': 29, 'loaded': True, 'loadedTime': 4039, 'positionName': 'LEFT', 'positionCoords': [243.8, 179.5], 'bid': 5.83}, {'imgObject': {}, 'id': 'eggsalad', 'src': '/static/foodstim60/eggsalad.jpg', 'key': 'i', 'origWidth': 410, 'origHeight': 409, 'width': 410, 'height': 409, 'widthPercent': 0.45, 'rescaleHeight': False, 'trialN': 29, 'loaded': True, 'loadedTime': 4005, 'positionName': 'RIGHT', 'positionCoords': [707.2, 179.5], 'bid': 4.83}]",62011,1669844372056,ice cream sundae 002,eggsalad,5.83,4.83,-1.0,ice cream sundae 002,1526,1539,1540,True,u,64064,2053,1669844374108,2052,HRV,HRV_0310,2022-11-30 21:44:49
30,"[{'imgObject': {}, 'id': 'cocktailshrimp', 'src': '/static/foodstim60/cocktailshrimp.jpg', 'key': 'u', 'origWidth': 410, 'origHeight': 410, 'width': 410, 'height': 410, 'widthPercent': 0.45, 'rescaleHeight': False, 'trialN': 30, 'loaded': True, 'loadedTime': 4040, 'positionName': 'LEFT', 'positionCoords': [242.8, 179], 'bid': 4.97}, {'imgObject': {}, 'id': 'blueberries', 'src': '/static/foodstim60/blueberries.jpg', 'key': 'i', 'origWidth': 411, 'origHeight': 411, 'width': 411, 'height': 411, 'widthPercent': 0.45, 'rescaleHeight': False, 'trialN': 30, 'loaded': True, 'loadedTime': 4032, 'positionName': 'RIGHT', 'positionCoords': [707.2, 178.5], 'bid': 5.1000000000000005}]",64065,1669844374108,cocktailshrimp,blueberries,4.97,5.1000000000000005,0.13000000000000078,cocktailshrimp,1237,1255,1254,True,u,65822,1757,1669844375867,1759,HRV,HRV_0310,2022-11-30 21:44:49
31,"[{'imgObject': {}, 'id': 'raspberries', 'src': '/static/foodstim60/raspberries.jpg', 'key': 'u', 'origWidth': 411, 'origHeight': 411, 'width': 411, 'height': 411, 'widthPercent': 0.45, 'rescaleHeight': False, 'trialN': 31, 'loaded': True, 'loadedTime': 4001, 'positionName': 'LEFT', 'positionCoords': [241.8, 178.5], 'bid': 5.7}, {'imgObject': {}, 'id': 'fruitsalad', 'src': '/static/foodstim60/fruitsalad.jpg', 'key': 'i', 'origWidth': 410, 'origHeight': 410, 'width': 410, 'height': 410, 'widthPercent': 0.45, 'rescaleHeight': False, 'trialN': 31, 'loaded': True, 'loadedTime': 4041, 'positionName': 'RIGHT', 'positionCoords': [707.2, 179], 'bid': 9.83}]",65823,1669844375867,raspberries,fruitsalad,5.7,9.83,4.13,fruitsalad,1010,1019,1019,True,i,67343,1520,1669844377386,1519,HRV,HRV_0310,2022-11-30 21:44:49
32,"[{'imgObject': {}, 'id': 'grilled chicken strips', 'src': '/static/foodstim60/grilled chicken strips.jpg', 'key': 'u', 'origWidth': 410, 'origHeight': 411, 'width': 410, 'height': 411, 'widthPercent': 0.45, 'rescaleHeight': False, 'trialN': 32, 'loaded': True, 'loadedTime': 3997, 'positionName': 'LEFT', 'positionCoords': [242.8, 178.5], 'bid': 5.75}, {'imgObject': {}, 'id': 'chicken nuggets2', 'src': '/static/foodstim60/chicken nuggets2.jpg', 'key': 'i', 'origWidth': 410, 'origHeight': 409, 'width': 410, 'height': 409, 'widthPercent': 0.45, 'rescaleHeight': False, 'trialN': 32, 'loaded': True, 'loadedTime': 4003, 'positionName': 'RIGHT', 'positionCoords': [707.2, 179.5], 'bid': 5.75}]",67343,1669844377387,grilled chicken strips,chicken nuggets2,5.75,5.75,0.0,chicken nuggets2,1193,1206,1206,True,i,69063,1720,1669844379107,1720,HRV,HRV_0310,2022-11-30 21:44:49
33,"[{'imgObject': {}, 'id': 'chickenfingers', 'src': '/static/foodstim60/chickenfingers.jpg', 'key': 'u', 'origWidth': 410, 'origHeight': 410, 'width': 410, 'height': 410, 'widthPercent': 0.45, 'rescaleHeight': False, 'trialN': 33, 'loaded': True, 'loadedTime': 4042, 'positionName': 'LEFT', 'positionCoords': [242.8, 179], 'bid': 6.51}, {'imgObject': {}, 'id': 'blueberries', 'src': '/static/foodstim60/blueberries.jpg', 'key': 'i', 'origWidth': 411, 'origHeight': 411, 'width': 411, 'height': 411, 'widthPercent': 0.45, 'rescaleHeight': False, 'trialN': 33, 'loaded': True, 'loadedTime': 4032, 'positionName': 'RIGHT', 'positionCoords': [707.2, 178.5], 'bid': 5.1000000000000005}]",69064,1669844379108,chickenfingers,blueberries,6.51,5.1000000000000005,-1.4099999999999993,chickenfingers,1019,1028,1028,True,u,70605,1541,1669844380649,1541,HRV,HRV_0310,2022-11-30 21:44:49
34,"[{'imgObject': {}, 'id': 'roastedpotatoes', 'src': '/static/foodstim60/roastedpotatoes.jpg', 'key': 'u', 'origWidth': 409, 'origHeight': 410, 'width': 409, 'height': 410, 'widthPercent': 0.45, 'rescaleHeight': False, 'trialN': 34, 'loaded': True, 'loadedTime': 3995, 'positionName': 'LEFT', 'positionCoords': [243.8, 179], 'bid': 2.63}, {'imgObject': {}, 'id': 'popsicles', 'src': '/static/foodstim60/popsicles.jpg', 'key': 'i', 'origWidth': 410, 'origHeight': 410, 'width': 410, 'height': 410, 'widthPercent': 0.45, 'rescaleHeight': False, 'trialN': 34, 'loaded': True, 'loadedTime': 4017, 'positionName': 'RIGHT', 'positionCoords': [707.2, 179], 'bid': 1.94}]",70605,1669844380649,roastedpotatoes,popsicles,2.63,1.94,-0.69,roastedpotatoes,1494,1519,1518,True,u,72626,2021,1669844382670,2021,HRV,HRV_0310,2022-11-30 21:44:49
35,"[{'imgObject': {}, 'id': 'mac & cheese', 'src': '/static/foodstim60/mac & cheese.jpg', 'key': 'u', 'origWidth': 410, 'origHeight': 410, 'width': 410, 'height': 410, 'widthPercent': 0.45, 'rescaleHeight': False, 'trialN': 35, 'loaded': True, 'loadedTime': 4016, 'positionName': 'LEFT', 'positionCoords': [242.8, 179], 'bid': 3.5700000000000003}, {'imgObject': {}, 'id': 'veggieswithdip', 'src': '/static/foodstim60/veggieswithdip.jpg', 'key': 'i', 'origWidth': 409, 'origHeight': 409, 'width': 409, 'height': 409, 'widthPercent': 0.45, 'rescaleHeight': False, 'trialN': 35, 'loaded': True, 'loadedTime': 4018, 'positionName': 'RIGHT', 'positionCoords': [707.2, 179.5], 'bid': 4.41}]",72626,1669844382670,mac & cheese,veggieswithdip,3.5700000000000003,4.41,0.8399999999999999,veggieswithdip,1786,1792,1792,True,i,74933,2307,1669844384977,2307,HRV,HRV_0310,2022-11-30 21:44:49
36,"[{'imgObject': {}, 'id': 'seaweed', 'src': '/static/foodstim60/seaweed.jpg', 'key': 'u', 'origWidth': 410, 'origHeight': 410, 'width': 410, 'height': 410, 'widthPercent': 0.45, 'rescaleHeight': False, 'trialN': 36, 'loaded': True, 'loadedTime': 4058, 'positionName': 'LEFT', 'positionCoords': [242.8, 179], 'bid': 0.32}, {'imgObject': {}, 'id': 'corn cob', 'src': '/static/foodstim60/corn cob.jpg', 'key': 'i', 'origWidth': 411, 'origHeight': 411, 'width': 411, 'height': 411, 'widthPercent': 0.45, 'rescaleHeight': False, 'trialN': 36, 'loaded': True, 'loadedTime': 4031, 'positionName': 'RIGHT', 'positionCoords': [707.2, 178.5], 'bid': 2.3000000000000003}]",74933,1669844384977,seaweed,corn cob,0.32,2.3000000000000003,1.9800000000000002,corn cob,1197,1209,1209,True,i,76653,1720,1669844386698,1721,HRV,HRV_0310,2022-11-30 21:44:49
37,"[{'imgObject': {}, 'id': 'mashed potato', 'src': '/static/foodstim60/mashed potato.jpg', 'key': 'u', 'origWidth': 409, 'origHeight': 409, 'width': 409, 'height': 409, 'widthPercent': 0.45, 'rescaleHeight': False, 'trialN': 37, 'loaded': True, 'loadedTime': 4027, 'positionName': 'LEFT', 'positionCoords': [243.8, 179.5], 'bid': 2.94}, {'imgObject': {}, 'id': 'Grapes', 'src': '/static/foodstim60/Grapes.jpg', 'key': 'i', 'origWidth': 411, 'origHeight': 411, 'width': 411, 'height': 411, 'widthPercent': 0.45, 'rescaleHeight': False, 'trialN': 37, 'loaded': True, 'loadedTime': 4033, 'positionName': 'RIGHT', 'positionCoords': [707.2, 178.5], 'bid': 6.140000000000001}]",76654,1669844386698,mashed potato,Grapes,2.94,6.140000000000001,3.2000000000000006,mashed potato,1179,1195,1194,True,u,78358,1704,1669844388402,1704,HRV,HRV_0310,2022-11-30 21:44:49
38,"[{'imgObject': {}, 'id': 'ice cream sundae 002', 'src': '/static/foodstim60/ice cream sundae 002.jpg', 'key': 'u', 'origWidth': 409, 'origHeight': 409, 'width': 409, 'height': 409, 'widthPercent': 0.45, 'rescaleHeight': False, 'trialN': 38, 'loaded': True, 'loadedTime': 4040, 'positionName': 'LEFT', 'positionCoords': [243.8, 179.5], 'bid': 5.83}, {'imgObject': {}, 'id': 'tacos', 'src': '/static/foodstim60/tacos.jpg', 'key': 'i', 'origWidth': 411, 'origHeight': 411, 'width': 411, 'height': 411, 'widthPercent': 0.45, 'rescaleHeight': False, 'trialN': 38, 'loaded': True, 'loadedTime': 3994, 'positionName': 'RIGHT', 'positionCoords': [707.2, 178.5], 'bid': 2.89}]",78358,1669844388402,ice cream sundae 002,tacos,5.83,2.89,-2.94,ice cream sundae 002,2320,2331,2331,True,u,81197,2839,1669844391242,2840,HRV,HRV_0310,2022-11-30 21:44:49
39,"[{'imgObject': {}, 'id': 'Grapes', 'src': '/static/foodstim60/Grapes.jpg', 'key': 'u', 'origWidth': 411, 'origHeight': 411, 'width': 411, 'height': 411, 'widthPercent': 0.45, 'rescaleHeight': False, 'trialN': 39, 'loaded': True, 'loadedTime': 4033, 'positionName': 'LEFT', 'positionCoords': [241.8, 178.5], 'bid': 6.140000000000001}, {'imgObject': {}, 'id': 'omelette', 'src': '/static/foodstim60/omelette.jpg', 'key': 'i', 'origWidth': 410, 'origHeight': 409, 'width': 410, 'height': 409, 'widthPercent': 0.45, 'rescaleHeight': False, 'trialN': 39, 'loaded': True, 'loadedTime': 4006, 'positionName': 'RIGHT', 'positionCoords': [707.2, 179.5], 'bid': 4.88}]",81198,1669844391242,Grapes,omelette,6.140000000000001,4.88,-1.2600000000000007,omelette,1682,1704,1703,True,i,83403,2205,1669844393448,2206,HRV,HRV_0310,2022-11-30 21:44:49
40,"[{'imgObject': {}, 'id': 'apple slices', 'src': '/static/foodstim60/apple slices.jpg', 'key': 'u', 'origWidth': 409, 'origHeight': 410, 'width': 409, 'height': 410, 'widthPercent': 0.45, 'rescaleHeight': False, 'trialN': 40, 'loaded': True, 'loadedTime': 3993, 'positionName': 'LEFT', 'positionCoords': [243.8, 179], 'bid': 4.91}, {'imgObject': {}, 'id': 'yogurt no spoon', 'src': '/static/foodstim60/yogurt no spoon.jpg', 'key': 'i', 'origWidth': 411, 'origHeight': 410, 'width': 411, 'height': 410, 'widthPercent': 0.45, 'rescaleHeight': False, 'trialN': 40, 'loaded': True, 'loadedTime': 4009, 'positionName': 'RIGHT', 'positionCoords': [707.2, 179], 'bid': 4.91}]",83404,1669844393449,apple slices,yogurt no spoon,4.91,4.91,0.0,yogurt no spoon,1851,1873,1874,True,i,85779,2375,1669844395823,2374,HRV,HRV_0310,2022-11-30 21:44:49
41,"[{'imgObject': {}, 'id': 'lox', 'src': '/static/foodstim60/lox.jpg', 'key': 'u', 'origWidth': 410, 'origHeight': 411, 'width': 410, 'height': 411, 'widthPercent': 0.45, 'rescaleHeight': False, 'trialN': 41, 'loaded': True, 'loadedTime': 4012, 'positionName': 'LEFT', 'positionCoords': [242.8, 178.5], 'bid': 3.64}, {'imgObject': {}, 'id': 'fruitsalad', 'src': '/static/foodstim60/fruitsalad.jpg', 'key': 'i', 'origWidth': 410, 'origHeight': 410, 'width': 410, 'height': 410, 'widthPercent': 0.45, 'rescaleHeight': False, 'trialN': 41, 'loaded': True, 'loadedTime': 4042, 'positionName': 'RIGHT', 'positionCoords': [707.2, 179], 'bid': 9.83}]",85779,1669844395823,lox,fruitsalad,3.64,9.83,6.1899999999999995,fruitsalad,914,923,924,True,i,87214,1435,1669844397258,1435,HRV,HRV_0310,2022-11-30 21:44:49
42,"[{'imgObject': {}, 'id': 'seaweed', 'src': '/static/foodstim60/seaweed.jpg', 'key': 'u', 'origWidth': 410, 'origHeight': 410, 'width': 410, 'height': 410, 'widthPercent': 0.45, 'rescaleHeight': False, 'trialN': 42, 'loaded': True, 'loadedTime': 4059, 'positionName': 'LEFT', 'positionCoords': [242.8, 179], 'bid': 0.32}, {'imgObject': {}, 'id': 'mango', 'src': '/static/foodstim60/mango.jpg', 'key': 'i', 'origWidth': 411, 'origHeight': 411, 'width': 411, 'height': 411, 'widthPercent': 0.45, 'rescaleHeight': False, 'trialN': 42, 'loaded': True, 'loadedTime': 4026, 'positionName': 'RIGHT', 'positionCoords': [707.2, 178.5], 'bid': 1.82}]",87215,1669844397258,seaweed,mango,0.32,1.82,1.5,mango,1743,1761,1760,True,i,89490,2275,1669844399534,2276,HRV,HRV_0310,2022-11-30 21:44:49
43,"[{'imgObject': {}, 'id': 'raisin bran w milk', 'src': '/static/foodstim60/raisin bran w milk.jpg', 'key': 'u', 'origWidth': 411, 'origHeight': 411, 'width': 411, 'height': 411, 'widthPercent': 0.45, 'rescaleHeight': False, 'trialN': 43, 'loaded': True, 'loadedTime': 4030, 'positionName': 'LEFT', 'positionCoords': [241.8, 178.5], 'bid': 4.36}, {'imgObject': {}, 'id': 'granola w milk', 'src': '/static/foodstim60/granola w milk.jpg', 'key': 'i', 'origWidth': 410, 'origHeight': 410, 'width': 410, 'height': 410, 'widthPercent': 0.45, 'rescaleHeight': False, 'trialN': 43, 'loaded': True, 'loadedTime': 4060, 'positionName': 'RIGHT', 'positionCoords': [707.2, 179], 'bid': 3.5700000000000003}]",89490,1669844399534,raisin bran w milk,granola w milk,4.36,3.5700000000000003,-0.79,raisin bran w milk,2484,2507,2507,True,u,92498,3008,1669844402543,3009,HRV,HRV_0310,2022-11-30 21:44:49
44,"[{'imgObject': {}, 'id': 'fruitsalad', 'src': '/static/foodstim60/fruitsalad.jpg', 'key': 'u', 'origWidth': 410, 'origHeight': 410, 'width': 410, 'height': 410, 'widthPercent': 0.45, 'rescaleHeight': False, 'trialN': 44, 'loaded': True, 'loadedTime': 4042, 'positionName': 'LEFT', 'positionCoords': [242.8, 179], 'bid': 9.83}, {'imgObject': {}, 'id': 'rigatoni', 'src': '/static/foodstim60/rigatoni.jpg', 'key': 'i', 'origWidth': 411, 'origHeight': 411, 'width': 411, 'height': 411, 'widthPercent': 0.45, 'rescaleHeight': False, 'trialN': 44, 'loaded': True, 'loadedTime': 4036, 'positionName': 'RIGHT', 'positionCoords': [707.2, 178.5], 'bid': 5.83}]",92498,1669844402543,fruitsalad,rigatoni,9.83,5.83,-4.0,fruitsalad,976,1001,1002,True,u,94002,1504,1669844404046,1503,HRV,HRV_0310,2022-11-30 21:44:49
45,"[{'imgObject': {}, 'id': 'fried eggs', 'src': '/static/foodstim60/fried eggs.jpg', 'key': 'u', 'origWidth': 410, 'origHeight': 410, 'width': 410, 'height': 410, 'widthPercent': 0.45, 'rescaleHeight': False, 'trialN': 45, 'loaded': True, 'loadedTime': 4062, 'positionName': 'LEFT', 'positionCoords': [242.8, 179], 'bid': 2.35}, {'imgObject': {}, 'id': 'hotdog w must', 'src': '/static/foodstim60/hotdog w must.jpg', 'key': 'i', 'origWidth': 409, 'origHeight': 409, 'width': 409, 'height': 409, 'widthPercent': 0.45, 'rescaleHeight': False, 'trialN': 45, 'loaded': True, 'loadedTime': 4064, 'positionName': 'RIGHT', 'positionCoords': [707.2, 179.5], 'bid': 2.61}]",94002,1669844404046,fried eggs,hotdog w must,2.35,2.61,0.2599999999999998,hotdog w must,1222,1249,1248,True,i,95755,1753,1669844405798,1752,HRV,HRV_0310,2022-11-30 21:44:49
46,"[{'imgObject': {}, 'id': 'veggieswithdip', 'src': '/static/foodstim60/veggieswithdip.jpg', 'key': 'u', 'origWidth': 409, 'origHeight': 409, 'width': 409, 'height': 409, 'widthPercent': 0.45, 'rescaleHeight': False, 'trialN': 46, 'loaded': True, 'loadedTime': 4018, 'positionName': 'LEFT', 'positionCoords': [243.8, 179.5], 'bid': 4.41}, {'imgObject': {}, 'id': 'shreddedwheatwithmilk', 'src': '/static/foodstim60/shreddedwheatwithmilk.jpg', 'key': 'i', 'origWidth': 410, 'origHeight': 410, 'width': 410, 'height': 410, 'widthPercent': 0.45, 'rescaleHeight': False, 'trialN': 46, 'loaded': True, 'loadedTime': 4013, 'positionName': 'RIGHT', 'positionCoords': [707.2, 179], 'bid': 4.58}]",95755,1669844405798,veggieswithdip,shreddedwheatwithmilk,4.41,4.58,0.16999999999999993,shreddedwheatwithmilk,2219,2235,2233,True,i,98499,2744,1669844408544,2746,HRV,HRV_0310,2022-11-30 21:44:49
47,"[{'imgObject': {}, 'id': 'raspberries', 'src': '/static/foodstim60/raspberries.jpg', 'key': 'u', 'origWidth': 411, 'origHeight': 411, 'width': 411, 'height': 411, 'widthPercent': 0.45, 'rescaleHeight': False, 'trialN': 47, 'loaded': True, 'loadedTime': 4001, 'positionName': 'LEFT', 'positionCoords': [241.8, 178.5], 'bid': 5.7}, {'imgObject': {}, 'id': 'salad w chicken', 'src': '/static/foodstim60/salad w chicken.jpg', 'key': 'i', 'origWidth': 411, 'origHeight': 411, 'width': 411, 'height': 411, 'widthPercent': 0.45, 'rescaleHeight': False, 'trialN': 47, 'loaded': True, 'loadedTime': 4066, 'positionName': 'RIGHT', 'positionCoords': [707.2, 178.5], 'bid': 5.47}]",98499,1669844408544,raspberries,salad w chicken,5.7,5.47,-0.23000000000000043,salad w chicken,1522,1541,1541,True,i,100552,2053,1669844410596,2052,HRV,HRV_0310,2022-11-30 21:44:49
48,"[{'imgObject': {}, 'id': 'luckycharms', 'src': '/static/foodstim60/luckycharms.jpg', 'key': 'u', 'origWidth': 410, 'origHeight': 409, 'width': 410, 'height': 409, 'widthPercent': 0.45, 'rescaleHeight': False, 'trialN': 48, 'loaded': True, 'loadedTime': 4068, 'positionName': 'LEFT', 'positionCoords': [242.8, 179.5], 'bid': 6.25}, {'imgObject': {}, 'id': 'salad w chicken', 'src': '/static/foodstim60/salad w chicken.jpg', 'key': 'i', 'origWidth': 411, 'origHeight': 411, 'width': 411, 'height': 411, 'widthPercent': 0.45, 'rescaleHeight': False, 'trialN': 48, 'loaded': True, 'loadedTime': 4067, 'positionName': 'RIGHT', 'positionCoords': [707.2, 178.5], 'bid': 5.47}]",100552,1669844410597,luckycharms,salad w chicken,6.25,5.47,-0.7800000000000002,salad w chicken,1312,1338,1338,True,i,102395,1843,1669844412439,1842,HRV,HRV_0310,2022-11-30 21:44:49
49,"[{'imgObject': {}, 'id': 'hotdog w must', 'src': '/static/foodstim60/hotdog w must.jpg', 'key': 'u', 'origWidth': 409, 'origHeight': 409, 'width': 409, 'height': 409, 'widthPercent': 0.45, 'rescaleHeight': False, 'trialN': 49, 'loaded': True, 'loadedTime': 4066, 'positionName': 'LEFT', 'positionCoords': [243.8, 179.5], 'bid': 2.61}, {'imgObject': {}, 'id': 'tacos', 'src': '/static/foodstim60/tacos.jpg', 'key': 'i', 'origWidth': 411, 'origHeight': 411, 'width': 411, 'height': 411, 'widthPercent': 0.45, 'rescaleHeight': False, 'trialN': 49, 'loaded': True, 'loadedTime': 3994, 'positionName': 'RIGHT', 'positionCoords': [707.2, 178.5], 'bid': 2.89}]",102395,1669844412439,hotdog w must,tacos,2.61,2.89,0.28000000000000025,hotdog w must,2454,2475,2475,True,u,105381,2986,1669844415426,2987,HRV,HRV_0310,2022-11-30 21:44:49
50,"[{'imgObject': {}, 'id': 'blackbeanswithrice', 'src': '/static/foodstim60/blackbeanswithrice.jpg', 'key': 'u', 'origWidth': 410, 'origHeight': 410, 'width': 410, 'height': 410, 'widthPercent': 0.45, 'rescaleHeight': False, 'trialN': 50, 'loaded': True, 'loadedTime': 4035, 'positionName': 'LEFT', 'positionCoords': [242.8, 179], 'bid': 3.17}, {'imgObject': {}, 'id': 'mashed potato', 'src': '/static/foodstim60/mashed potato.jpg', 'key': 'i', 'origWidth': 409, 'origHeight': 409, 'width': 409, 'height': 409, 'widthPercent': 0.45, 'rescaleHeight': False, 'trialN': 50, 'loaded': True, 'loadedTime': 4027, 'positionName': 'RIGHT', 'positionCoords': [707.2, 179.5], 'bid': 2.94}]",105382,1669844415426,blackbeanswithrice,mashed potato,3.17,2.94,-0.22999999999999998,mashed potato,1498,1520,1520,True,i,107409,2027,1669844417453,2027,HRV,HRV_0310,2022-11-30 21:44:49
51,"[{'imgObject': {}, 'id': 'yogurt no spoon', 'src': '/static/foodstim60/yogurt no spoon.jpg', 'key': 'u', 'origWidth': 411, 'origHeight': 410, 'width': 411, 'height': 410, 'widthPercent': 0.45, 'rescaleHeight': False, 'trialN': 51, 'loaded': True, 'loadedTime': 4009, 'positionName': 'LEFT', 'positionCoords': [241.8, 179], 'bid': 4.91}, {'imgObject': {}, 'id': 'raspberries', 'src': '/static/foodstim60/raspberries.jpg', 'key': 'i', 'origWidth': 411, 'origHeight': 411, 'width': 411, 'height': 411, 'widthPercent': 0.45, 'rescaleHeight': False, 'trialN': 51, 'loaded': True, 'loadedTime': 4001, 'positionName': 'RIGHT', 'positionCoords': [707.2, 178.5], 'bid': 5.7}]",107409,1669844417453,yogurt no spoon,raspberries,4.91,5.7,0.79,yogurt no spoon,1377,1401,1401,True,u,109312,1903,1669844419355,1902,HRV,HRV_0310,2022-11-30 21:44:49
52,"[{'imgObject': {}, 'id': 'bagel plain', 'src': '/static/foodstim60/bagel plain.jpg', 'key': 'u', 'origWidth': 410, 'origHeight': 410, 'width': 410, 'height': 410, 'widthPercent': 0.45, 'rescaleHeight': False, 'trialN': 52, 'loaded': True, 'loadedTime': 4028, 'positionName': 'LEFT', 'positionCoords': [242.8, 179], 'bid': 0.8300000000000001}, {'imgObject': {}, 'id': 'omelette', 'src': '/static/foodstim60/omelette.jpg', 'key': 'i', 'origWidth': 410, 'origHeight': 409, 'width': 410, 'height': 409, 'widthPercent': 0.45, 'rescaleHeight': False, 'trialN': 52, 'loaded': True, 'loadedTime': 4006, 'positionName': 'RIGHT', 'positionCoords': [707.2, 179.5], 'bid': 4.88}]",109312,1669844419355,bagel plain,omelette,0.8300000000000001,4.88,4.05,omelette,1741,1752,1751,True,i,111570,2258,1669844421615,2260,HRV,HRV_0310,2022-11-30 21:44:49
53,"[{'imgObject': {}, 'id': 'turkeysandwich', 'src': '/static/foodstim60/turkeysandwich.jpg', 'key': 'u', 'origWidth': 409, 'origHeight': 409, 'width': 409, 'height': 409, 'widthPercent': 0.45, 'rescaleHeight': False, 'trialN': 53, 'loaded': True, 'loadedTime': 4086, 'positionName': 'LEFT', 'positionCoords': [243.8, 179.5], 'bid': 6.2700000000000005}, {'imgObject': {}, 'id': 'chickenfingers', 'src': '/static/foodstim60/chickenfingers.jpg', 'key': 'i', 'origWidth': 410, 'origHeight': 410, 'width': 410, 'height': 410, 'widthPercent': 0.45, 'rescaleHeight': False, 'trialN': 53, 'loaded': True, 'loadedTime': 4054, 'positionName': 'RIGHT', 'positionCoords': [707.2, 179], 'bid': 6.51}]",111570,1669844421615,turkeysandwich,chickenfingers,6.2700000000000005,6.51,0.23999999999999932,chickenfingers,1482,1502,1503,True,i,113576,2006,1669844423620,2005,HRV,HRV_0310,2022-11-30 21:44:49
54,"[{'imgObject': {}, 'id': 'turkeysandwich', 'src': '/static/foodstim60/turkeysandwich.jpg', 'key': 'u', 'origWidth': 409, 'origHeight': 409, 'width': 409, 'height': 409, 'widthPercent': 0.45, 'rescaleHeight': False, 'trialN': 54, 'loaded': True, 'loadedTime': 4086, 'positionName': 'LEFT', 'positionCoords': [243.8, 179.5], 'bid': 6.2700000000000005}, {'imgObject': {}, 'id': 'yogurt no spoon', 'src': '/static/foodstim60/yogurt no spoon.jpg', 'key': 'i', 'origWidth': 411, 'origHeight': 410, 'width': 411, 'height': 410, 'widthPercent': 0.45, 'rescaleHeight': False, 'trialN': 54, 'loaded': True, 'loadedTime': 4009, 'positionName': 'RIGHT', 'positionCoords': [707.2, 179], 'bid': 4.91}]",113577,1669844423620,turkeysandwich,yogurt no spoon,6.2700000000000005,4.91,-1.3600000000000003,turkeysandwich,1116,1124,1123,True,u,115212,1635,1669844425256,1636,HRV,HRV_0310,2022-11-30 21:44:49
55,"[{'imgObject': {}, 'id': 'lox', 'src': '/static/foodstim60/lox.jpg', 'key': 'u', 'origWidth': 410, 'origHeight': 411, 'width': 410, 'height': 411, 'widthPercent': 0.45, 'rescaleHeight': False, 'trialN': 55, 'loaded': True, 'loadedTime': 4012, 'positionName': 'LEFT', 'positionCoords': [242.8, 178.5], 'bid': 3.64}, {'imgObject': {}, 'id': 'eggsalad', 'src': '/static/foodstim60/eggsalad.jpg', 'key': 'i', 'origWidth': 410, 'origHeight': 409, 'width': 410, 'height': 409, 'widthPercent': 0.45, 'rescaleHeight': False, 'trialN': 55, 'loaded': True, 'loadedTime': 4005, 'positionName': 'RIGHT', 'positionCoords': [707.2, 179.5], 'bid': 4.83}]",115212,1669844425256,lox,eggsalad,3.64,4.83,1.19,eggsalad,1215,1234,1234,True,i,116948,1736,1669844426992,1736,HRV,HRV_0310,2022-11-30 21:44:49
56,"[{'imgObject': {}, 'id': 'banana', 'src': '/static/foodstim60/banana.jpg', 'key': 'u', 'origWidth': 410, 'origHeight': 410, 'width': 410, 'height': 410, 'widthPercent': 0.45, 'rescaleHeight': False, 'trialN': 56, 'loaded': True, 'loadedTime': 4088, 'positionName': 'LEFT', 'positionCoords': [242.8, 179], 'bid': 5.76}, {'imgObject': {}, 'id': 'steak', 'src': '/static/foodstim60/steak.jpg', 'key': 'i', 'origWidth': 410, 'origHeight': 410, 'width': 410, 'height': 410, 'widthPercent': 0.45, 'rescaleHeight': False, 'trialN': 56, 'loaded': True, 'loadedTime': 4020, 'positionName': 'RIGHT', 'positionCoords': [707.2, 179], 'bid': 5.33}]",116949,1669844426992,banana,steak,5.76,5.33,-0.4299999999999997,steak,1165,1183,1182,True,i,118637,1688,1669844428682,1690,HRV,HRV_0310,2022-11-30 21:44:49
57,"[{'imgObject': {}, 'id': 'cherries', 'src': '/static/foodstim60/cherries.jpg', 'key': 'u', 'origWidth': 410, 'origHeight': 411, 'width': 410, 'height': 411, 'widthPercent': 0.45, 'rescaleHeight': False, 'trialN': 57, 'loaded': True, 'loadedTime': 4002, 'positionName': 'LEFT', 'positionCoords': [242.8, 178.5], 'bid': 1.95}, {'imgObject': {}, 'id': 'lox', 'src': '/static/foodstim60/lox.jpg', 'key': 'i', 'origWidth': 410, 'origHeight': 411, 'width': 410, 'height': 411, 'widthPercent': 0.45, 'rescaleHeight': False, 'trialN': 57, 'loaded': True, 'loadedTime': 4012, 'positionName': 'RIGHT', 'positionCoords': [707.2, 178.5], 'bid': 3.64}]",118638,1669844428682,cherries,lox,1.95,3.64,1.6900000000000002,lox,1930,1948,1948,True,i,121098,2460,1669844431141,2459,HRV,HRV_0310,2022-11-30 21:44:49
58,"[{'imgObject': {}, 'id': 'seaweed', 'src': '/static/foodstim60/seaweed.jpg', 'key': 'u', 'origWidth': 410, 'origHeight': 410, 'width': 410, 'height': 410, 'widthPercent': 0.45, 'rescaleHeight': False, 'trialN': 58, 'loaded': True, 'loadedTime': 4059, 'positionName': 'LEFT', 'positionCoords': [242.8, 179], 'bid': 0.32}, {'imgObject': {}, 'id': 'cherry tomato', 'src': '/static/foodstim60/cherry tomato.jpg', 'key': 'i', 'origWidth': 410, 'origHeight': 410, 'width': 410, 'height': 410, 'widthPercent': 0.45, 'rescaleHeight': False, 'trialN': 58, 'loaded': True, 'loadedTime': 4010, 'positionName': 'RIGHT', 'positionCoords': [707.2, 179], 'bid': 0.51}]",121098,1669844431141,seaweed,cherry tomato,0.32,0.51,0.19,cherry tomato,1376,1399,1398,True,i,123003,1905,1669844433047,1906,HRV,HRV_0310,2022-11-30 21:44:49
59,"[{'imgObject': {}, 'id': 'burrito', 'src': '/static/foodstim60/burrito.jpg', 'key': 'u', 'origWidth': 410, 'origHeight': 410, 'width': 410, 'height': 410, 'widthPercent': 0.45, 'rescaleHeight': False, 'trialN': 59, 'loaded': True, 'loadedTime': 4091, 'positionName': 'LEFT', 'positionCoords': [242.8, 179], 'bid': 3.41}, {'imgObject': {}, 'id': 'chickenfingers', 'src': '/static/foodstim60/chickenfingers.jpg', 'key': 'i', 'origWidth': 410, 'origHeight': 410, 'width': 410, 'height': 410, 'widthPercent': 0.45, 'rescaleHeight': False, 'trialN': 59, 'loaded': True, 'loadedTime': 4055, 'positionName': 'RIGHT', 'positionCoords': [707.2, 179], 'bid': 6.51}]",123003,1669844433047,burrito,chickenfingers,3.41,6.51,3.0999999999999996,chickenfingers,1252,1282,1282,True,i,124785,1782,1669844434830,1783,HRV,HRV_0310,2022-11-30 21:44:49
60,"[{'imgObject': {}, 'id': 'cocktailshrimp', 'src': '/static/foodstim60/cocktailshrimp.jpg', 'key': 'u', 'origWidth': 410, 'origHeight': 410, 'width': 410, 'height': 410, 'widthPercent': 0.45, 'rescaleHeight': False, 'trialN': 60, 'loaded': True, 'loadedTime': 4041, 'positionName': 'LEFT', 'positionCoords': [242.8, 179], 'bid': 4.97}, {'imgObject': {}, 'id': 'pear', 'src': '/static/foodstim60/pear.jpg', 'key': 'i', 'origWidth': 411, 'origHeight': 410, 'width': 411, 'height': 410, 'widthPercent': 0.45, 'rescaleHeight': False, 'trialN': 60, 'loaded': True, 'loadedTime': 4093, 'positionName': 'RIGHT', 'positionCoords': [707.2, 179], 'bid': 6.5}]",124785,1669844434830,cocktailshrimp,pear,4.97,6.5,1.5300000000000002,cocktailshrimp,1001,1021,1022,True,u,126312,1527,1669844436356,1526,HRV,HRV_0310,2022-11-30 21:44:49
61,"[{'imgObject': {}, 'id': 'granola w milk', 'src': '/static/foodstim60/granola w milk.jpg', 'key': 'u', 'origWidth': 410, 'origHeight': 410, 'width': 410, 'height': 410, 'widthPercent': 0.45, 'rescaleHeight': False, 'trialN': 61, 'loaded': True, 'loadedTime': 4061, 'positionName': 'LEFT', 'positionCoords': [242.8, 179], 'bid': 3.5700000000000003}, {'imgObject': {}, 'id': 'omelette', 'src': '/static/foodstim60/omelette.jpg', 'key': 'i', 'origWidth': 410, 'origHeight': 409, 'width': 410, 'height': 409, 'widthPercent': 0.45, 'rescaleHeight': False, 'trialN': 61, 'loaded': True, 'loadedTime': 4006, 'positionName': 'RIGHT', 'positionCoords': [707.2, 179.5], 'bid': 4.88}]",126312,1669844436356,granola w milk,omelette,3.5700000000000003,4.88,1.3099999999999996,granola w milk,1693,1708,1707,True,u,128533,2221,1669844438578,2222,HRV,HRV_0310,2022-11-30 21:44:49
62,"[{'imgObject': {}, 'id': 'pear', 'src': '/static/foodstim60/pear.jpg', 'key': 'u', 'origWidth': 411, 'origHeight': 410, 'width': 411, 'height': 410, 'widthPercent': 0.45, 'rescaleHeight': False, 'trialN': 62, 'loaded': True, 'loadedTime': 4094, 'positionName': 'LEFT', 'positionCoords': [241.8, 179], 'bid': 6.5}, {'imgObject': {}, 'id': 'cheerios', 'src': '/static/foodstim60/cheerios.jpg', 'key': 'i', 'origWidth': 409, 'origHeight': 410, 'width': 409, 'height': 410, 'widthPercent': 0.45, 'rescaleHeight': False, 'trialN': 62, 'loaded': True, 'loadedTime': 4095, 'positionName': 'RIGHT', 'positionCoords': [707.2, 179], 'bid': 3.22}]",128534,1669844438578,pear,cheerios,6.5,3.22,-3.28,pear,1941,1961,1961,True,u,131003,2469,1669844441047,2469,HRV,HRV_0310,2022-11-30 21:44:49
63,"[{'imgObject': {}, 'id': 'Grapes', 'src': '/static/foodstim60/Grapes.jpg', 'key': 'u', 'origWidth': 411, 'origHeight': 411, 'width': 411, 'height': 411, 'widthPercent': 0.45, 'rescaleHeight': False, 'trialN': 63, 'loaded': True, 'loadedTime': 4033, 'positionName': 'LEFT', 'positionCoords': [241.8, 178.5], 'bid': 6.140000000000001}, {'imgObject': {}, 'id': 'steak', 'src': '/static/foodstim60/steak.jpg', 'key': 'i', 'origWidth': 410, 'origHeight': 410, 'width': 410, 'height': 410, 'widthPercent': 0.45, 'rescaleHeight': False, 'trialN': 63, 'loaded': True, 'loadedTime': 4020, 'positionName': 'RIGHT', 'positionCoords': [707.2, 179], 'bid': 5.33}]",131003,1669844441047,Grapes,steak,6.140000000000001,5.33,-0.8100000000000005,steak,1909,1928,1928,True,i,133432,2429,1669844443476,2429,HRV,HRV_0310,2022-11-30 21:44:49
64,"[{'imgObject': {}, 'id': 'cheerios', 'src': '/static/foodstim60/cheerios.jpg', 'key': 'u', 'origWidth': 409, 'origHeight': 410, 'width': 409, 'height': 410, 'widthPercent': 0.45, 'rescaleHeight': False, 'trialN': 64, 'loaded': True, 'loadedTime': 4096, 'positionName': 'LEFT', 'positionCoords': [243.8, 179], 'bid': 3.22}, {'imgObject': {}, 'id': 'hotdog w must', 'src': '/static/foodstim60/hotdog w must.jpg', 'key': 'i', 'origWidth': 409, 'origHeight': 409, 'width': 409, 'height': 409, 'widthPercent': 0.45, 'rescaleHeight': False, 'trialN': 64, 'loaded': True, 'loadedTime': 4066, 'positionName': 'RIGHT', 'positionCoords': [707.2, 179.5], 'bid': 2.61}]",133432,1669844443476,cheerios,hotdog w must,3.22,2.61,-0.6100000000000003,hotdog w must,1682,1691,1691,True,i,135639,2207,1669844445682,2206,HRV,HRV_0310,2022-11-30 21:44:49
65,"[{'imgObject': {}, 'id': 'hotdog w must', 'src': '/static/foodstim60/hotdog w must.jpg', 'key': 'u', 'origWidth': 409, 'origHeight': 409, 'width': 409, 'height': 409, 'widthPercent': 0.45, 'rescaleHeight': False, 'trialN': 65, 'loaded': True, 'loadedTime': 4066, 'positionName': 'LEFT', 'positionCoords': [243.8, 179.5], 'bid': 2.61}, {'imgObject': {}, 'id': 'froot loops w milk', 'src': '/static/foodstim60/froot loops w milk.jpg', 'key': 'i', 'origWidth': 410, 'origHeight': 410, 'width': 410, 'height': 410, 'widthPercent': 0.45, 'rescaleHeight': False, 'trialN': 65, 'loaded': True, 'loadedTime': 4019, 'positionName': 'RIGHT', 'positionCoords': [707.2, 179], 'bid': 5.79}]",135639,1669844445682,hotdog w must,froot loops w milk,2.61,5.79,3.18,froot loops w milk,1273,1292,1291,True,i,137443,1804,1669844447488,1806,HRV,HRV_0310,2022-11-30 21:44:49
66,"[{'imgObject': {}, 'id': 'cantaloupe', 'src': '/static/foodstim60/cantaloupe.jpg', 'key': 'u', 'origWidth': 409, 'origHeight': 409, 'width': 409, 'height': 409, 'widthPercent': 0.45, 'rescaleHeight': False, 'trialN': 66, 'loaded': True, 'loadedTime': 4098, 'positionName': 'LEFT', 'positionCoords': [243.8, 179.5], 'bid': 7.83}, {'imgObject': {}, 'id': 'burger', 'src': '/static/foodstim60/burger.jpg', 'key': 'i', 'origWidth': 409, 'origHeight': 409, 'width': 409, 'height': 409, 'widthPercent': 0.45, 'rescaleHeight': False, 'trialN': 66, 'loaded': True, 'loadedTime': 4034, 'positionName': 'RIGHT', 'positionCoords': [707.2, 179.5], 'bid': 7.26}]",137443,1669844447488,cantaloupe,burger,7.83,7.26,-0.5700000000000003,burger,1140,1154,1155,True,i,139110,1667,1669844449155,1667,HRV,HRV_0310,2022-11-30 21:44:49
67,"[{'imgObject': {}, 'id': 'chickenfingers', 'src': '/static/foodstim60/chickenfingers.jpg', 'key': 'u', 'origWidth': 410, 'origHeight': 410, 'width': 410, 'height': 410, 'widthPercent': 0.45, 'rescaleHeight': False, 'trialN': 67, 'loaded': True, 'loadedTime': 4056, 'positionName': 'LEFT', 'positionCoords': [242.8, 179], 'bid': 6.51}, {'imgObject': {}, 'id': 'chicken nuggets2', 'src': '/static/foodstim60/chicken nuggets2.jpg', 'key': 'i', 'origWidth': 410, 'origHeight': 409, 'width': 410, 'height': 409, 'widthPercent': 0.45, 'rescaleHeight': False, 'trialN': 67, 'loaded': True, 'loadedTime': 4003, 'positionName': 'RIGHT', 'positionCoords': [707.2, 179.5], 'bid': 5.75}]",139111,1669844449155,chickenfingers,chicken nuggets2,6.51,5.75,-0.7599999999999998,chickenfingers,1332,1353,1353,True,u,140969,1858,1669844451013,1858,HRV,HRV_0310,2022-11-30 21:44:49
68,"[{'imgObject': {}, 'id': 'veggieswithdip', 'src': '/static/foodstim60/veggieswithdip.jpg', 'key': 'u', 'origWidth': 409, 'origHeight': 409, 'width': 409, 'height': 409, 'widthPercent': 0.45, 'rescaleHeight': False, 'trialN': 68, 'loaded': True, 'loadedTime': 4018, 'positionName': 'LEFT', 'positionCoords': [243.8, 179.5], 'bid': 4.41}, {'imgObject': {}, 'id': 'bagel and cc', 'src': '/static/foodstim60/bagel and cc.jpg', 'key': 'i', 'origWidth': 410, 'origHeight': 410, 'width': 410, 'height': 410, 'widthPercent': 0.45, 'rescaleHeight': False, 'trialN': 68, 'loaded': True, 'loadedTime': 4000, 'positionName': 'RIGHT', 'positionCoords': [707.2, 179], 'bid': 0.55}]",140969,1669844451013,veggieswithdip,bagel and cc,4.41,0.55,-3.8600000000000003,veggieswithdip,1364,1382,1382,True,u,142859,1890,1669844452903,1890,HRV,HRV_0310,2022-11-30 21:44:49
69,"[{'imgObject': {}, 'id': 'bagel plain', 'src': '/static/foodstim60/bagel plain.jpg', 'key': 'u', 'origWidth': 410, 'origHeight': 410, 'width': 410, 'height': 410, 'widthPercent': 0.45, 'rescaleHeight': False, 'trialN': 69, 'loaded': True, 'loadedTime': 4028, 'positionName': 'LEFT', 'positionCoords': [242.8, 179], 'bid': 0.8300000000000001}, {'imgObject': {}, 'id': 'sushi w_condiments', 'src': '/static/foodstim60/sushi w_condiments.jpg', 'key': 'i', 'origWidth': 410, 'origHeight': 410, 'width': 410, 'height': 410, 'widthPercent': 0.45, 'rescaleHeight': False, 'trialN': 69, 'loaded': True, 'loadedTime': 4022, 'positionName': 'RIGHT', 'positionCoords': [707.2, 179], 'bid': 1.89}]",142859,1669844452903,bagel plain,sushi w_condiments,0.8300000000000001,1.89,1.0599999999999998,sushi w_condiments,1334,1342,1341,True,i,144711,1852,1669844454755,1852,HRV,HRV_0310,2022-11-30 21:44:49
70,"[{'imgObject': {}, 'id': 'strawberries', 'src': '/static/foodstim60/strawberries.jpg', 'key': 'u', 'origWidth': 410, 'origHeight': 410, 'width': 410, 'height': 410, 'widthPercent': 0.45, 'rescaleHeight': False, 'trialN': 70, 'loaded': True, 'loadedTime': 4099, 'positionName': 'LEFT', 'positionCoords': [242.8, 179], 'bid': 9.88}, {'imgObject': {}, 'id': 'cantaloupe', 'src': '/static/foodstim60/cantaloupe.jpg', 'key': 'i', 'origWidth': 409, 'origHeight': 409, 'width': 409, 'height': 409, 'widthPercent': 0.45, 'rescaleHeight': False, 'trialN': 70, 'loaded': True, 'loadedTime': 4099, 'positionName': 'RIGHT', 'positionCoords': [707.2, 179.5], 'bid': 7.83}]",144711,1669844454755,strawberries,cantaloupe,9.88,7.83,-2.0500000000000007,cantaloupe,2607,2615,2615,True,i,147835,3124,1669844457879,3124,HRV,HRV_0310,2022-11-30 21:44:49
71,"[{'imgObject': {}, 'id': 'rigatoni and sauce', 'src': '/static/foodstim60/rigatoni and sauce.jpg', 'key': 'u', 'origWidth': 410, 'origHeight': 411, 'width': 410, 'height': 411, 'widthPercent': 0.45, 'rescaleHeight': False, 'trialN': 71, 'loaded': True, 'loadedTime': 3991, 'positionName': 'LEFT', 'positionCoords': [242.8, 178.5], 'bid': 5.64}, {'imgObject': {}, 'id': 'cantaloupe', 'src': '/static/foodstim60/cantaloupe.jpg', 'key': 'i', 'origWidth': 409, 'origHeight': 409, 'width': 409, 'height': 409, 'widthPercent': 0.45, 'rescaleHeight': False, 'trialN': 71, 'loaded': True, 'loadedTime': 4099, 'positionName': 'RIGHT', 'positionCoords': [707.2, 179.5], 'bid': 7.83}]",147836,1669844457880,rigatoni and sauce,cantaloupe,5.64,7.83,2.1900000000000004,cantaloupe,1982,2006,2007,True,i,150347,2511,1669844460391,2511,HRV,HRV_0310,2022-11-30 21:44:49
72,"[{'imgObject': {}, 'id': 'orange slices', 'src': '/static/foodstim60/orange slices.jpg', 'key': 'u', 'origWidth': 409, 'origHeight': 410, 'width': 409, 'height': 410, 'widthPercent': 0.45, 'rescaleHeight': False, 'trialN': 72, 'loaded': True, 'loadedTime': 4023, 'positionName': 'LEFT', 'positionCoords': [243.8, 179], 'bid': 1.72}, {'imgObject': {}, 'id': 'blueberries', 'src': '/static/foodstim60/blueberries.jpg', 'key': 'i', 'origWidth': 411, 'origHeight': 411, 'width': 411, 'height': 411, 'widthPercent': 0.45, 'rescaleHeight': False, 'trialN': 72, 'loaded': True, 'loadedTime': 4032, 'positionName': 'RIGHT', 'positionCoords': [707.2, 178.5], 'bid': 5.1000000000000005}]",150347,1669844460391,orange slices,blueberries,1.72,5.1000000000000005,3.380000000000001,blueberries,1705,1728,1727,True,i,152585,2238,1669844462628,2237,HRV,HRV_0310,2022-11-30 21:44:49
73,"[{'imgObject': {}, 'id': 'salad w chicken', 'src': '/static/foodstim60/salad w chicken.jpg', 'key': 'u', 'origWidth': 411, 'origHeight': 411, 'width': 411, 'height': 411, 'widthPercent': 0.45, 'rescaleHeight': False, 'trialN': 73, 'loaded': True, 'loadedTime': 4067, 'positionName': 'LEFT', 'positionCoords': [241.8, 178.5], 'bid': 5.47}, {'imgObject': {}, 'id': 'burger', 'src': '/static/foodstim60/burger.jpg', 'key': 'i', 'origWidth': 409, 'origHeight': 409, 'width': 409, 'height': 409, 'widthPercent': 0.45, 'rescaleHeight': False, 'trialN': 73, 'loaded': True, 'loadedTime': 4034, 'positionName': 'RIGHT', 'positionCoords': [707.2, 179.5], 'bid': 7.26}]",152585,1669844462628,salad w chicken,burger,5.47,7.26,1.79,burger,2218,2230,2229,True,i,155314,2729,1669844465358,2730,HRV,HRV_0310,2022-11-30 21:44:49
74,"[{'imgObject': {}, 'id': 'grilled chicken strips', 'src': '/static/foodstim60/grilled chicken strips.jpg', 'key': 'u', 'origWidth': 410, 'origHeight': 411, 'width': 410, 'height': 411, 'widthPercent': 0.45, 'rescaleHeight': False, 'trialN': 74, 'loaded': True, 'loadedTime': 3997, 'positionName': 'LEFT', 'positionCoords': [242.8, 178.5], 'bid': 5.75}, {'imgObject': {}, 'id': 'froot loops w milk', 'src': '/static/foodstim60/froot loops w milk.jpg', 'key': 'i', 'origWidth': 410, 'origHeight': 410, 'width': 410, 'height': 410, 'widthPercent': 0.45, 'rescaleHeight': False, 'trialN': 74, 'loaded': True, 'loadedTime': 4019, 'positionName': 'RIGHT', 'positionCoords': [707.2, 179], 'bid': 5.79}]",155314,1669844465358,grilled chicken strips,froot loops w milk,5.75,5.79,0.040000000000000036,grilled chicken strips,2082,2097,2097,True,u,157922,2608,1669844467966,2608,HRV,HRV_0310,2022-11-30 21:44:49
75,"[{'imgObject': {}, 'id': 'blueberries', 'src': '/static/foodstim60/blueberries.jpg', 'key': 'u', 'origWidth': 411, 'origHeight': 411, 'width': 411, 'height': 411, 'widthPercent': 0.45, 'rescaleHeight': False, 'trialN': 75, 'loaded': True, 'loadedTime': 4032, 'positionName': 'LEFT', 'positionCoords': [241.8, 178.5], 'bid': 5.1000000000000005}, {'imgObject': {}, 'id': 'salmon', 'src': '/static/foodstim60/salmon.jpg', 'key': 'i', 'origWidth': 410, 'origHeight': 409, 'width': 410, 'height': 409, 'widthPercent': 0.45, 'rescaleHeight': False, 'trialN': 75, 'loaded': True, 'loadedTime': 4011, 'positionName': 'RIGHT', 'positionCoords': [707.2, 179.5], 'bid': 4.05}]",157922,1669844467966,blueberries,salmon,5.1000000000000005,4.05,-1.0500000000000007,blueberries,2317,2329,2329,True,u,160761,2839,1669844470805,2839,HRV,HRV_0310,2022-11-30 21:44:49
76,"[{'imgObject': {}, 'id': 'sweetpotato', 'src': '/static/foodstim60/sweetpotato.jpg', 'key': 'u', 'origWidth': 410, 'origHeight': 410, 'width': 410, 'height': 410, 'widthPercent': 0.45, 'rescaleHeight': False, 'trialN': 76, 'loaded': True, 'loadedTime': 3999, 'positionName': 'LEFT', 'positionCoords': [242.8, 179], 'bid': 1.6}, {'imgObject': {}, 'id': 'orange slices', 'src': '/static/foodstim60/orange slices.jpg', 'key': 'i', 'origWidth': 409, 'origHeight': 410, 'width': 409, 'height': 410, 'widthPercent': 0.45, 'rescaleHeight': False, 'trialN': 76, 'loaded': True, 'loadedTime': 4023, 'positionName': 'RIGHT', 'positionCoords': [707.2, 179], 'bid': 1.72}]",160761,1669844470805,sweetpotato,orange slices,1.6,1.72,0.11999999999999988,orange slices,1447,1460,1461,True,i,162735,1974,1669844472779,1974,HRV,HRV_0310,2022-11-30 21:44:49
77,"[{'imgObject': {}, 'id': 'cherry tomato', 'src': '/static/foodstim60/cherry tomato.jpg', 'key': 'u', 'origWidth': 410, 'origHeight': 410, 'width': 410, 'height': 410, 'widthPercent': 0.45, 'rescaleHeight': False, 'trialN': 77, 'loaded': True, 'loadedTime': 4010, 'positionName': 'LEFT', 'positionCoords': [242.8, 179], 'bid': 0.51}, {'imgObject': {}, 'id': 'fried eggs', 'src': '/static/foodstim60/fried eggs.jpg', 'key': 'i', 'origWidth': 410, 'origHeight': 410, 'width': 410, 'height': 410, 'widthPercent': 0.45, 'rescaleHeight': False, 'trialN': 77, 'loaded': True, 'loadedTime': 4063, 'positionName': 'RIGHT', 'positionCoords': [707.2, 179], 'bid': 2.35}]",162735,1669844472780,cherry tomato,fried eggs,0.51,2.35,1.84,fried eggs,2224,2246,2247,True,i,165490,2755,1669844475534,2754,HRV,HRV_0310,2022-11-30 21:44:49
78,"[{'imgObject': {}, 'id': 'popsicles', 'src': '/static/foodstim60/popsicles.jpg', 'key': 'u', 'origWidth': 410, 'origHeight': 410, 'width': 410, 'height': 410, 'widthPercent': 0.45, 'rescaleHeight': False, 'trialN': 78, 'loaded': True, 'loadedTime': 4017, 'positionName': 'LEFT', 'positionCoords': [242.8, 179], 'bid': 1.94}, {'imgObject': {}, 'id': 'cherries', 'src': '/static/foodstim60/cherries.jpg', 'key': 'i', 'origWidth': 410, 'origHeight': 411, 'width': 410, 'height': 411, 'widthPercent': 0.45, 'rescaleHeight': False, 'trialN': 78, 'loaded': True, 'loadedTime': 4002, 'positionName': 'RIGHT', 'positionCoords': [707.2, 178.5], 'bid': 1.95}]",165490,1669844475534,popsicles,cherries,1.94,1.95,0.010000000000000009,popsicles,1421,1440,1440,True,u,167448,1958,1669844477493,1959,HRV,HRV_0310,2022-11-30 21:44:49
79,"[{'imgObject': {}, 'id': 'cocktailshrimp', 'src': '/static/foodstim60/cocktailshrimp.jpg', 'key': 'u', 'origWidth': 410, 'origHeight': 410, 'width': 410, 'height': 410, 'widthPercent': 0.45, 'rescaleHeight': False, 'trialN': 79, 'loaded': True, 'loadedTime': 4041, 'positionName': 'LEFT', 'positionCoords': [242.8, 179], 'bid': 4.97}, {'imgObject': {}, 'id': 'chicken nuggets2', 'src': '/static/foodstim60/chicken nuggets2.jpg', 'key': 'i', 'origWidth': 410, 'origHeight': 409, 'width': 410, 'height': 409, 'widthPercent': 0.45, 'rescaleHeight': False, 'trialN': 79, 'loaded': True, 'loadedTime': 4003, 'positionName': 'RIGHT', 'positionCoords': [707.2, 179.5], 'bid': 5.75}]",167449,1669844477493,cocktailshrimp,chicken nuggets2,4.97,5.75,0.7800000000000002,cocktailshrimp,1495,1512,1512,True,u,169470,2021,1669844479514,2021,HRV,HRV_0310,2022-11-30 21:44:49
80,"[{'imgObject': {}, 'id': 'tacos', 'src': '/static/foodstim60/tacos.jpg', 'key': 'u', 'origWidth': 411, 'origHeight': 411, 'width': 411, 'height': 411, 'widthPercent': 0.45, 'rescaleHeight': False, 'trialN': 80, 'loaded': True, 'loadedTime': 3994, 'positionName': 'LEFT', 'positionCoords': [241.8, 178.5], 'bid': 2.89}, {'imgObject': {}, 'id': 'cherries', 'src': '/static/foodstim60/cherries.jpg', 'key': 'i', 'origWidth': 410, 'origHeight': 411, 'width': 410, 'height': 411, 'widthPercent': 0.45, 'rescaleHeight': False, 'trialN': 80, 'loaded': True, 'loadedTime': 4002, 'positionName': 'RIGHT', 'positionCoords': [707.2, 178.5], 'bid': 1.95}]",169470,1669844479514,tacos,cherries,2.89,1.95,-0.9400000000000002,tacos,2051,2069,2068,True,u,172039,2569,1669844482084,2570,HRV,HRV_0310,2022-11-30 21:44:49
81,"[{'imgObject': {}, 'id': 'luckycharms', 'src': '/static/foodstim60/luckycharms.jpg', 'key': 'u', 'origWidth': 410, 'origHeight': 409, 'width': 410, 'height': 409, 'widthPercent': 0.45, 'rescaleHeight': False, 'trialN': 81, 'loaded': True, 'loadedTime': 4069, 'positionName': 'LEFT', 'positionCoords': [242.8, 179.5], 'bid': 6.25}, {'imgObject': {}, 'id': 'apple slices', 'src': '/static/foodstim60/apple slices.jpg', 'key': 'i', 'origWidth': 409, 'origHeight': 410, 'width': 409, 'height': 410, 'widthPercent': 0.45, 'rescaleHeight': False, 'trialN': 81, 'loaded': True, 'loadedTime': 3993, 'positionName': 'RIGHT', 'positionCoords': [707.2, 179], 'bid': 4.91}]",172039,1669844482084,luckycharms,apple slices,6.25,4.91,-1.3399999999999999,luckycharms,1294,1306,1306,True,u,173866,1827,1669844483911,1827,HRV,HRV_0310,2022-11-30 21:44:49
82,"[{'imgObject': {}, 'id': 'edamame', 'src': '/static/foodstim60/edamame.jpg', 'key': 'u', 'origWidth': 409, 'origHeight': 410, 'width': 409, 'height': 410, 'widthPercent': 0.45, 'rescaleHeight': False, 'trialN': 82, 'loaded': True, 'loadedTime': 4004, 'positionName': 'LEFT', 'positionCoords': [243.8, 179], 'bid': 2.13}, {'imgObject': {}, 'id': 'mashed potato', 'src': '/static/foodstim60/mashed potato.jpg', 'key': 'i', 'origWidth': 409, 'origHeight': 409, 'width': 409, 'height': 409, 'widthPercent': 0.45, 'rescaleHeight': False, 'trialN': 82, 'loaded': True, 'loadedTime': 4027, 'positionName': 'RIGHT', 'positionCoords': [707.2, 179.5], 'bid': 2.94}]",173867,1669844483911,edamame,mashed potato,2.13,2.94,0.81,mashed potato,1419,1449,1448,True,i,175819,1952,1669844485863,1952,HRV,HRV_0310,2022-11-30 21:44:49
83,"[{'imgObject': {}, 'id': 'omelette', 'src': '/static/foodstim60/omelette.jpg', 'key': 'u', 'origWidth': 410, 'origHeight': 409, 'width': 410, 'height': 409, 'widthPercent': 0.45, 'rescaleHeight': False, 'trialN': 83, 'loaded': True, 'loadedTime': 4006, 'positionName': 'LEFT', 'positionCoords': [242.8, 179.5], 'bid': 4.88}, {'imgObject': {}, 'id': 'shreddedwheatwithmilk', 'src': '/static/foodstim60/shreddedwheatwithmilk.jpg', 'key': 'i', 'origWidth': 410, 'origHeight': 410, 'width': 410, 'height': 410, 'widthPercent': 0.45, 'rescaleHeight': False, 'trialN': 83, 'loaded': True, 'loadedTime': 4013, 'positionName': 'RIGHT', 'positionCoords': [707.2, 179], 'bid': 4.58}]",175819,1669844485864,omelette,shreddedwheatwithmilk,4.88,4.58,-0.2999999999999998,shreddedwheatwithmilk,1670,1688,1689,True,i,178009,2190,1669844488054,2190,HRV,HRV_0310,2022-11-30 21:44:49
84,"[{'imgObject': {}, 'id': 'blackbeanswithrice', 'src': '/static/foodstim60/blackbeanswithrice.jpg', 'key': 'u', 'origWidth': 410, 'origHeight': 410, 'width': 410, 'height': 410, 'widthPercent': 0.45, 'rescaleHeight': False, 'trialN': 84, 'loaded': True, 'loadedTime': 4035, 'positionName': 'LEFT', 'positionCoords': [242.8, 179], 'bid': 3.17}, {'imgObject': {}, 'id': 'cheerios', 'src': '/static/foodstim60/cheerios.jpg', 'key': 'i', 'origWidth': 409, 'origHeight': 410, 'width': 409, 'height': 410, 'widthPercent': 0.45, 'rescaleHeight': False, 'trialN': 84, 'loaded': True, 'loadedTime': 4097, 'positionName': 'RIGHT', 'positionCoords': [707.2, 179], 'bid': 3.22}]",178009,1669844488054,blackbeanswithrice,cheerios,3.17,3.22,0.050000000000000266,cheerios,1621,1651,1652,True,i,180163,2154,1669844490207,2153,HRV,HRV_0310,2022-11-30 21:44:49
85,"[{'imgObject': {}, 'id': 'fruitsalad', 'src': '/static/foodstim60/fruitsalad.jpg', 'key': 'u', 'origWidth': 410, 'origHeight': 410, 'width': 410, 'height': 410, 'widthPercent': 0.45, 'rescaleHeight': False, 'trialN': 85, 'loaded': True, 'loadedTime': 4042, 'positionName': 'LEFT', 'positionCoords': [242.8, 179], 'bid': 9.83}, {'imgObject': {}, 'id': 'strawberries', 'src': '/static/foodstim60/strawberries.jpg', 'key': 'i', 'origWidth': 410, 'origHeight': 410, 'width': 410, 'height': 410, 'widthPercent': 0.45, 'rescaleHeight': False, 'trialN': 85, 'loaded': True, 'loadedTime': 4100, 'positionName': 'RIGHT', 'positionCoords': [707.2, 179], 'bid': 9.88}]",180163,1669844490207,fruitsalad,strawberries,9.83,9.88,0.05000000000000071,fruitsalad,1983,1994,1994,True,u,182670,2507,1669844492713,2506,HRV,HRV_0310,2022-11-30 21:44:49
86,"[{'imgObject': {}, 'id': 'kiwi', 'src': '/static/foodstim60/kiwi.jpg', 'key': 'u', 'origWidth': 410, 'origHeight': 410, 'width': 410, 'height': 410, 'widthPercent': 0.45, 'rescaleHeight': False, 'trialN': 86, 'loaded': True, 'loadedTime': 4029, 'positionName': 'LEFT', 'positionCoords': [242.8, 179], 'bid': 4.13}, {'imgObject': {}, 'id': 'burrito', 'src': '/static/foodstim60/burrito.jpg', 'key': 'i', 'origWidth': 410, 'origHeight': 410, 'width': 410, 'height': 410, 'widthPercent': 0.45, 'rescaleHeight': False, 'trialN': 86, 'loaded': True, 'loadedTime': 4092, 'positionName': 'RIGHT', 'positionCoords': [707.2, 179], 'bid': 3.41}]",182670,1669844492713,kiwi,burrito,4.13,3.41,-0.7199999999999998,burrito,1569,1579,1579,True,i,184759,2089,1669844494804,2091,HRV,HRV_0310,2022-11-30 21:44:49
87,"[{'imgObject': {}, 'id': 'roastedpotatoes', 'src': '/static/foodstim60/roastedpotatoes.jpg', 'key': 'u', 'origWidth': 409, 'origHeight': 410, 'width': 409, 'height': 410, 'widthPercent': 0.45, 'rescaleHeight': False, 'trialN': 87, 'loaded': True, 'loadedTime': 3995, 'positionName': 'LEFT', 'positionCoords': [243.8, 179], 'bid': 2.63}, {'imgObject': {}, 'id': 'sweetpotato', 'src': '/static/foodstim60/sweetpotato.jpg', 'key': 'i', 'origWidth': 410, 'origHeight': 410, 'width': 410, 'height': 410, 'widthPercent': 0.45, 'rescaleHeight': False, 'trialN': 87, 'loaded': True, 'loadedTime': 3999, 'positionName': 'RIGHT', 'positionCoords': [707.2, 179], 'bid': 1.6}]",184760,1669844494804,roastedpotatoes,sweetpotato,2.63,1.6,-1.0299999999999998,roastedpotatoes,979,992,992,True,u,186264,1504,1669844496308,1504,HRV,HRV_0310,2022-11-30 21:44:49
88,"[{'imgObject': {}, 'id': 'chicken nuggets2', 'src': '/static/foodstim60/chicken nuggets2.jpg', 'key': 'u', 'origWidth': 410, 'origHeight': 409, 'width': 410, 'height': 409, 'widthPercent': 0.45, 'rescaleHeight': False, 'trialN': 88, 'loaded': True, 'loadedTime': 4003, 'positionName': 'LEFT', 'positionCoords': [242.8, 179.5], 'bid': 5.75}, {'imgObject': {}, 'id': 'strawberries', 'src': '/static/foodstim60/strawberries.jpg', 'key': 'i', 'origWidth': 410, 'origHeight': 410, 'width': 410, 'height': 410, 'widthPercent': 0.45, 'rescaleHeight': False, 'trialN': 88, 'loaded': True, 'loadedTime': 4108, 'positionName': 'RIGHT', 'positionCoords': [707.2, 179], 'bid': 9.88}]",186264,1669844496308,chicken nuggets2,strawberries,5.75,9.88,4.130000000000001,strawberries,1319,1338,1337,True,i,188107,1843,1669844498151,1843,HRV,HRV_0310,2022-11-30 21:44:49
89,"[{'imgObject': {}, 'id': 'fried eggs', 'src': '/static/foodstim60/fried eggs.jpg', 'key': 'u', 'origWidth': 410, 'origHeight': 410, 'width': 410, 'height': 410, 'widthPercent': 0.45, 'rescaleHeight': False, 'trialN': 89, 'loaded': True, 'loadedTime': 4063, 'positionName': 'LEFT', 'positionCoords': [242.8, 179], 'bid': 2.35}, {'imgObject': {}, 'id': 'roastedpotatoes', 'src': '/static/foodstim60/roastedpotatoes.jpg', 'key': 'i', 'origWidth': 409, 'origHeight': 410, 'width': 409, 'height': 410, 'widthPercent': 0.45, 'rescaleHeight': False, 'trialN': 89, 'loaded': True, 'loadedTime': 3995, 'positionName': 'RIGHT', 'positionCoords': [707.2, 179], 'bid': 2.63}]",188108,1669844498151,fried eggs,roastedpotatoes,2.35,2.63,0.2799999999999998,roastedpotatoes,1506,1526,1525,True,i,190144,2036,1669844500188,2037,HRV,HRV_0310,2022-11-30 21:44:49
90,"[{'imgObject': {}, 'id': 'mashed potato', 'src': '/static/foodstim60/mashed potato.jpg', 'key': 'u', 'origWidth': 409, 'origHeight': 409, 'width': 409, 'height': 409, 'widthPercent': 0.45, 'rescaleHeight': False, 'trialN': 90, 'loaded': True, 'loadedTime': 4027, 'positionName': 'LEFT', 'positionCoords': [243.8, 179.5], 'bid': 2.94}, {'imgObject': {}, 'id': 'baked potato', 'src': '/static/foodstim60/baked potato.jpg', 'key': 'i', 'origWidth': 409, 'origHeight': 410, 'width': 409, 'height': 410, 'widthPercent': 0.45, 'rescaleHeight': False, 'trialN': 90, 'loaded': True, 'loadedTime': 4039, 'positionName': 'RIGHT', 'positionCoords': [707.2, 179], 'bid': 2.95}]",197533,1669844507578,mashed potato,baked potato,2.94,2.95,0.010000000000000231,mashed potato,1644,1652,1654,True,u,199702,2169,1669844509746,2168,HRV,HRV_0310,2022-11-30 21:44:49
91,"[{'imgObject': {}, 'id': 'eggs', 'src': '/static/foodstim60/eggs.jpg', 'key': 'u', 'origWidth': 409, 'origHeight': 409, 'width': 409, 'height': 409, 'widthPercent': 0.45, 'rescaleHeight': False, 'trialN': 91, 'loaded': True, 'loadedTime': 4109, 'positionName': 'LEFT', 'positionCoords': [243.8, 179.5], 'bid': 0.5700000000000001}, {'imgObject': {}, 'id': 'shreddedwheatwithmilk', 'src': '/static/foodstim60/shreddedwheatwithmilk.jpg', 'key': 'i', 'origWidth': 410, 'origHeight': 410, 'width': 410, 'height': 410, 'widthPercent': 0.45, 'rescaleHeight': False, 'trialN': 91, 'loaded': True, 'loadedTime': 4013, 'positionName': 'RIGHT', 'positionCoords': [707.2, 179], 'bid': 4.58}]",199702,1669844509746,eggs,shreddedwheatwithmilk,0.5700000000000001,4.58,4.01,shreddedwheatwithmilk,1569,1578,1578,True,i,201792,2090,1669844511837,2091,HRV,HRV_0310,2022-11-30 21:44:49
92,"[{'imgObject': {}, 'id': 'bagel and cc', 'src': '/static/foodstim60/bagel and cc.jpg', 'key': 'u', 'origWidth': 410, 'origHeight': 410, 'width': 410, 'height': 410, 'widthPercent': 0.45, 'rescaleHeight': False, 'trialN': 92, 'loaded': True, 'loadedTime': 4000, 'positionName': 'LEFT', 'positionCoords': [242.8, 179], 'bid': 0.55}, {'imgObject': {}, 'id': 'seaweed', 'src': '/static/foodstim60/seaweed.jpg', 'key': 'i', 'origWidth': 410, 'origHeight': 410, 'width': 410, 'height': 410, 'widthPercent': 0.45, 'rescaleHeight': False, 'trialN': 92, 'loaded': True, 'loadedTime': 4059, 'positionName': 'RIGHT', 'positionCoords': [707.2, 179], 'bid': 0.32}]",201792,1669844511837,bagel and cc,seaweed,0.55,0.32,-0.23000000000000004,bagel and cc,932,950,950,True,u,203249,1457,1669844513293,1456,HRV,HRV_0310,2022-11-30 21:44:49
93,"[{'imgObject': {}, 'id': 'Grapes', 'src': '/static/foodstim60/Grapes.jpg', 'key': 'u', 'origWidth': 411, 'origHeight': 411, 'width': 411, 'height': 411, 'widthPercent': 0.45, 'rescaleHeight': False, 'trialN': 93, 'loaded': True, 'loadedTime': 4033, 'positionName': 'LEFT', 'positionCoords': [241.8, 178.5], 'bid': 6.140000000000001}, {'imgObject': {}, 'id': 'luckycharms', 'src': '/static/foodstim60/luckycharms.jpg', 'key': 'i', 'origWidth': 410, 'origHeight': 409, 'width': 410, 'height': 409, 'widthPercent': 0.45, 'rescaleHeight': False, 'trialN': 93, 'loaded': True, 'loadedTime': 4069, 'positionName': 'RIGHT', 'positionCoords': [707.2, 179.5], 'bid': 6.25}]",203250,1669844513293,Grapes,luckycharms,6.140000000000001,6.25,0.10999999999999943,luckycharms,897,917,917,True,i,204669,1419,1669844514713,1420,HRV,HRV_0310,2022-11-30 21:44:49
94,"[{'imgObject': {}, 'id': 'fried eggs', 'src': '/static/foodstim60/fried eggs.jpg', 'key': 'u', 'origWidth': 410, 'origHeight': 410, 'width': 410, 'height': 410, 'widthPercent': 0.45, 'rescaleHeight': False, 'trialN': 94, 'loaded': True, 'loadedTime': 4063, 'positionName': 'LEFT', 'positionCoords': [242.8, 179], 'bid': 2.35}, {'imgObject': {}, 'id': 'banana', 'src': '/static/foodstim60/banana.jpg', 'key': 'i', 'origWidth': 410, 'origHeight': 410, 'width': 410, 'height': 410, 'widthPercent': 0.45, 'rescaleHeight': False, 'trialN': 94, 'loaded': True, 'loadedTime': 4089, 'positionName': 'RIGHT', 'positionCoords': [707.2, 179], 'bid': 5.76}]",204669,1669844514713,fried eggs,banana,2.35,5.76,3.4099999999999997,banana,1977,1995,1996,True,i,207176,2507,1669844517220,2507,HRV,HRV_0310,2022-11-30 21:44:49
95,"[{'imgObject': {}, 'id': 'burrito', 'src': '/static/foodstim60/burrito.jpg', 'key': 'u', 'origWidth': 410, 'origHeight': 410, 'width': 410, 'height': 410, 'widthPercent': 0.45, 'rescaleHeight': False, 'trialN': 95, 'loaded': True, 'loadedTime': 4092, 'positionName': 'LEFT', 'positionCoords': [242.8, 179], 'bid': 3.41}, {'imgObject': {}, 'id': 'mac & cheese', 'src': '/static/foodstim60/mac & cheese.jpg', 'key': 'i', 'origWidth': 410, 'origHeight': 410, 'width': 410, 'height': 410, 'widthPercent': 0.45, 'rescaleHeight': False, 'trialN': 95, 'loaded': True, 'loadedTime': 4016, 'positionName': 'RIGHT', 'positionCoords': [707.2, 179], 'bid': 3.5700000000000003}]",207177,1669844517221,burrito,mac & cheese,3.41,3.5700000000000003,0.16000000000000014,burrito,1422,1437,1438,True,u,209128,1951,1669844519172,1951,HRV,HRV_0310,2022-11-30 21:44:49
96,"[{'imgObject': {}, 'id': 'lox', 'src': '/static/foodstim60/lox.jpg', 'key': 'u', 'origWidth': 410, 'origHeight': 411, 'width': 410, 'height': 411, 'widthPercent': 0.45, 'rescaleHeight': False, 'trialN': 96, 'loaded': True, 'loadedTime': 4012, 'positionName': 'LEFT', 'positionCoords': [242.8, 178.5], 'bid': 3.64}, {'imgObject': {}, 'id': 'cocktailshrimp', 'src': '/static/foodstim60/cocktailshrimp.jpg', 'key': 'i', 'origWidth': 410, 'origHeight': 410, 'width': 410, 'height': 410, 'widthPercent': 0.45, 'rescaleHeight': False, 'trialN': 96, 'loaded': True, 'loadedTime': 4041, 'positionName': 'RIGHT', 'positionCoords': [707.2, 179], 'bid': 4.97}]",209128,1669844519173,lox,cocktailshrimp,3.64,4.97,1.3299999999999996,cocktailshrimp,893,909,910,True,i,210548,1420,1669844520592,1419,HRV,HRV_0310,2022-11-30 21:44:49
97,"[{'imgObject': {}, 'id': 'turkey sandwich', 'src': '/static/foodstim60/turkey sandwich.jpg', 'key': 'u', 'origWidth': 409, 'origHeight': 409, 'width': 409, 'height': 409, 'widthPercent': 0.45, 'rescaleHeight': False, 'trialN': 97, 'loaded': True, 'loadedTime': 3998, 'positionName': 'LEFT', 'positionCoords': [243.8, 179.5], 'bid': 7.04}, {'imgObject': {}, 'id': 'steak', 'src': '/static/foodstim60/steak.jpg', 'key': 'i', 'origWidth': 410, 'origHeight': 410, 'width': 410, 'height': 410, 'widthPercent': 0.45, 'rescaleHeight': False, 'trialN': 97, 'loaded': True, 'loadedTime': 4020, 'positionName': 'RIGHT', 'positionCoords': [707.2, 179], 'bid': 5.33}]",210548,1669844520592,turkey sandwich,steak,7.04,5.33,-1.71,turkey sandwich,1660,1680,1681,True,u,212738,2190,1669844522783,2191,HRV,HRV_0310,2022-11-30 21:44:49
98,"[{'imgObject': {}, 'id': 'Tribe humus pita', 'src': '/static/foodstim60/Tribe humus pita.jpg', 'key': 'u', 'origWidth': 411, 'origHeight': 411, 'width': 411, 'height': 411, 'widthPercent': 0.45, 'rescaleHeight': False, 'trialN': 98, 'loaded': True, 'loadedTime': 4008, 'positionName': 'LEFT', 'positionCoords': [241.8, 178.5], 'bid': 1.39}, {'imgObject': {}, 'id': 'hotdog w must', 'src': '/static/foodstim60/hotdog w must.jpg', 'key': 'i', 'origWidth': 409, 'origHeight': 409, 'width': 409, 'height': 409, 'widthPercent': 0.45, 'rescaleHeight': False, 'trialN': 98, 'loaded': True, 'loadedTime': 4066, 'positionName': 'RIGHT', 'positionCoords': [707.2, 179.5], 'bid': 2.61}]",212738,1669844522783,Tribe humus pita,hotdog w must,1.39,2.61,1.22,hotdog w must,1376,1399,1400,True,i,214644,1906,1669844524688,1905,HRV,HRV_0310,2022-11-30 21:44:49
99,"[{'imgObject': {}, 'id': 'turkey sandwich', 'src': '/static/foodstim60/turkey sandwich.jpg', 'key': 'u', 'origWidth': 409, 'origHeight': 409, 'width': 409, 'height': 409, 'widthPercent': 0.45, 'rescaleHeight': False, 'trialN': 99, 'loaded': True, 'loadedTime': 3998, 'positionName': 'LEFT', 'positionCoords': [243.8, 179.5], 'bid': 7.04}, {'imgObject': {}, 'id': 'pear', 'src': '/static/foodstim60/pear.jpg', 'key': 'i', 'origWidth': 411, 'origHeight': 410, 'width': 411, 'height': 410, 'widthPercent': 0.45, 'rescaleHeight': False, 'trialN': 99, 'loaded': True, 'loadedTime': 4094, 'positionName': 'RIGHT', 'positionCoords': [707.2, 179], 'bid': 6.5}]",214644,1669844524688,turkey sandwich,pear,7.04,6.5,-0.54,turkey sandwich,1345,1362,1361,True,u,216518,1874,1669844526562,1874,HRV,HRV_0310,2022-11-30 21:44:49
100,"[{'imgObject': {}, 'id': 'edamame', 'src': '/static/foodstim60/edamame.jpg', 'key': 'u', 'origWidth': 409, 'origHeight': 410, 'width': 409, 'height': 410, 'widthPercent': 0.45, 'rescaleHeight': False, 'trialN': 100, 'loaded': True, 'loadedTime': 4004, 'positionName': 'LEFT', 'positionCoords': [243.8, 179], 'bid': 2.13}, {'imgObject': {}, 'id': 'salmon', 'src': '/static/foodstim60/salmon.jpg', 'key': 'i', 'origWidth': 410, 'origHeight': 409, 'width': 410, 'height': 409, 'widthPercent': 0.45, 'rescaleHeight': False, 'trialN': 100, 'loaded': True, 'loadedTime': 4011, 'positionName': 'RIGHT', 'positionCoords': [707.2, 179.5], 'bid': 4.05}]",216518,1669844526562,edamame,salmon,2.13,4.05,1.92,salmon,1659,1681,1681,True,i,218709,2191,1669844528753,2191,HRV,HRV_0310,2022-11-30 21:44:49
101,"[{'imgObject': {}, 'id': 'granola w milk', 'src': '/static/foodstim60/granola w milk.jpg', 'key': 'u', 'origWidth': 410, 'origHeight': 410, 'width': 410, 'height': 410, 'widthPercent': 0.45, 'rescaleHeight': False, 'trialN': 101, 'loaded': True, 'loadedTime': 4061, 'positionName': 'LEFT', 'positionCoords': [242.8, 179], 'bid': 3.5700000000000003}, {'imgObject': {}, 'id': 'mango', 'src': '/static/foodstim60/mango.jpg', 'key': 'i', 'origWidth': 411, 'origHeight': 411, 'width': 411, 'height': 411, 'widthPercent': 0.45, 'rescaleHeight': False, 'trialN': 101, 'loaded': True, 'loadedTime': 4026, 'positionName': 'RIGHT', 'positionCoords': [707.2, 178.5], 'bid': 1.82}]",218709,1669844528753,granola w milk,mango,3.5700000000000003,1.82,-1.7500000000000002,granola w milk,1015,1035,1035,True,u,220260,1551,1669844530304,1551,HRV,HRV_0310,2022-11-30 21:44:49
102,"[{'imgObject': {}, 'id': 'fried eggs', 'src': '/static/foodstim60/fried eggs.jpg', 'key': 'u', 'origWidth': 410, 'origHeight': 410, 'width': 410, 'height': 410, 'widthPercent': 0.45, 'rescaleHeight': False, 'trialN': 102, 'loaded': True, 'loadedTime': 4064, 'positionName': 'LEFT', 'positionCoords': [242.8, 179], 'bid': 2.35}, {'imgObject': {}, 'id': 'blackbeanswithrice', 'src': '/static/foodstim60/blackbeanswithrice.jpg', 'key': 'i', 'origWidth': 410, 'origHeight': 410, 'width': 410, 'height': 410, 'widthPercent': 0.45, 'rescaleHeight': False, 'trialN': 102, 'loaded': True, 'loadedTime': 4035, 'positionName': 'RIGHT', 'positionCoords': [707.2, 179], 'bid': 3.17}]",220260,1669844530304,fried eggs,blackbeanswithrice,2.35,3.17,0.8199999999999998,fried eggs,1449,1474,1473,True,u,222234,1974,1669844532279,1975,HRV,HRV_0310,2022-11-30 21:44:49
103,"[{'imgObject': {}, 'id': 'cheerios', 'src': '/static/foodstim60/cheerios.jpg', 'key': 'u', 'origWidth': 409, 'origHeight': 410, 'width': 409, 'height': 410, 'widthPercent': 0.45, 'rescaleHeight': False, 'trialN': 103, 'loaded': True, 'loadedTime': 4097, 'positionName': 'LEFT', 'positionCoords': [243.8, 179], 'bid': 3.22}, {'imgObject': {}, 'id': 'sweetpotato', 'src': '/static/foodstim60/sweetpotato.jpg', 'key': 'i', 'origWidth': 410, 'origHeight': 410, 'width': 410, 'height': 410, 'widthPercent': 0.45, 'rescaleHeight': False, 'trialN': 103, 'loaded': True, 'loadedTime': 3999, 'positionName': 'RIGHT', 'positionCoords': [707.2, 179], 'bid': 1.6}]",222234,1669844532279,cheerios,sweetpotato,3.22,1.6,-1.62,cheerios,1412,1426,1427,True,u,224171,1937,1669844534216,1937,HRV,HRV_0310,2022-11-30 21:44:49
104,"[{'imgObject': {}, 'id': 'turkeysandwich', 'src': '/static/foodstim60/turkeysandwich.jpg', 'key': 'u', 'origWidth': 409, 'origHeight': 409, 'width': 409, 'height': 409, 'widthPercent': 0.45, 'rescaleHeight': False, 'trialN': 104, 'loaded': True, 'loadedTime': 4086, 'positionName': 'LEFT', 'positionCoords': [243.8, 179.5], 'bid': 6.2700000000000005}, {'imgObject': {}, 'id': 'fruitsalad', 'src': '/static/foodstim60/fruitsalad.jpg', 'key': 'i', 'origWidth': 410, 'origHeight': 410, 'width': 410, 'height': 410, 'widthPercent': 0.45, 'rescaleHeight': False, 'trialN': 104, 'loaded': True, 'loadedTime': 4042, 'positionName': 'RIGHT', 'positionCoords': [707.2, 179], 'bid': 9.83}]",224171,1669844534216,turkeysandwich,fruitsalad,6.2700000000000005,9.83,3.5599999999999996,fruitsalad,1287,1298,1298,True,i,225976,1805,1669844536020,1804,HRV,HRV_0310,2022-11-30 21:44:49
105,"[{'imgObject': {}, 'id': 'grilled chicken strips', 'src': '/static/foodstim60/grilled chicken strips.jpg', 'key': 'u', 'origWidth': 410, 'origHeight': 411, 'width': 410, 'height': 411, 'widthPercent': 0.45, 'rescaleHeight': False, 'trialN': 105, 'loaded': True, 'loadedTime': 3997, 'positionName': 'LEFT', 'positionCoords': [242.8, 178.5], 'bid': 5.75}, {'imgObject': {}, 'id': 'kiwi', 'src': '/static/foodstim60/kiwi.jpg', 'key': 'i', 'origWidth': 410, 'origHeight': 410, 'width': 410, 'height': 410, 'widthPercent': 0.45, 'rescaleHeight': False, 'trialN': 105, 'loaded': True, 'loadedTime': 4029, 'positionName': 'RIGHT', 'positionCoords': [707.2, 179], 'bid': 4.13}]",225976,1669844536021,grilled chicken strips,kiwi,5.75,4.13,-1.62,grilled chicken strips,1639,1644,1645,True,u,228135,2159,1669844538180,2159,HRV,HRV_0310,2022-11-30 21:44:49
106,"[{'imgObject': {}, 'id': 'ice cream sundae 002', 'src': '/static/foodstim60/ice cream sundae 002.jpg', 'key': 'u', 'origWidth': 409, 'origHeight': 409, 'width': 409, 'height': 409, 'widthPercent': 0.45, 'rescaleHeight': False, 'trialN': 106, 'loaded': True, 'loadedTime': 4040, 'positionName': 'LEFT', 'positionCoords': [243.8, 179.5], 'bid': 5.83}, {'imgObject': {}, 'id': 'strawberries', 'src': '/static/foodstim60/strawberries.jpg', 'key': 'i', 'origWidth': 410, 'origHeight': 410, 'width': 410, 'height': 410, 'widthPercent': 0.45, 'rescaleHeight': False, 'trialN': 106, 'loaded': True, 'loadedTime': 4108, 'positionName': 'RIGHT', 'positionCoords': [707.2, 179], 'bid': 9.88}]",228135,1669844538180,ice cream sundae 002,strawberries,5.83,9.88,4.050000000000001,strawberries,1261,1274,1275,True,i,229925,1790,1669844539969,1789,HRV,HRV_0310,2022-11-30 21:44:49
107,"[{'imgObject': {}, 'id': 'burrito', 'src': '/static/foodstim60/burrito.jpg', 'key': 'u', 'origWidth': 410, 'origHeight': 410, 'width': 410, 'height': 410, 'widthPercent': 0.45, 'rescaleHeight': False, 'trialN': 107, 'loaded': True, 'loadedTime': 4092, 'positionName': 'LEFT', 'positionCoords': [242.8, 179], 'bid': 3.41}, {'imgObject': {}, 'id': 'granola w milk', 'src': '/static/foodstim60/granola w milk.jpg', 'key': 'i', 'origWidth': 410, 'origHeight': 410, 'width': 410, 'height': 410, 'widthPercent': 0.45, 'rescaleHeight': False, 'trialN': 107, 'loaded': True, 'loadedTime': 4061, 'positionName': 'RIGHT', 'positionCoords': [707.2, 179], 'bid': 3.5700000000000003}]",229925,1669844539970,burrito,granola w milk,3.41,3.5700000000000003,0.16000000000000014,burrito,1299,1313,1315,True,u,231746,1821,1669844541790,1820,HRV,HRV_0310,2022-11-30 21:44:49
108,"[{'imgObject': {}, 'id': 'hashbrowns', 'src': '/static/foodstim60/hashbrowns.jpg', 'key': 'u', 'origWidth': 411, 'origHeight': 410, 'width': 411, 'height': 410, 'widthPercent': 0.45, 'rescaleHeight': False, 'trialN': 108, 'loaded': True, 'loadedTime': 4015, 'positionName': 'LEFT', 'positionCoords': [241.8, 179], 'bid': 3.6}, {'imgObject': {}, 'id': 'cantaloupe', 'src': '/static/foodstim60/cantaloupe.jpg', 'key': 'i', 'origWidth': 409, 'origHeight': 409, 'width': 409, 'height': 409, 'widthPercent': 0.45, 'rescaleHeight': False, 'trialN': 108, 'loaded': True, 'loadedTime': 4099, 'positionName': 'RIGHT', 'positionCoords': [707.2, 179.5], 'bid': 7.83}]",231746,1669844541790,hashbrowns,cantaloupe,3.6,7.83,4.23,cantaloupe,1368,1384,1383,True,i,233636,1890,1669844543679,1889,HRV,HRV_0310,2022-11-30 21:44:49
109,"[{'imgObject': {}, 'id': 'salmon', 'src': '/static/foodstim60/salmon.jpg', 'key': 'u', 'origWidth': 410, 'origHeight': 409, 'width': 410, 'height': 409, 'widthPercent': 0.45, 'rescaleHeight': False, 'trialN': 109, 'loaded': True, 'loadedTime': 4011, 'positionName': 'LEFT', 'positionCoords': [242.8, 179.5], 'bid': 4.05}, {'imgObject': {}, 'id': 'omelette', 'src': '/static/foodstim60/omelette.jpg', 'key': 'i', 'origWidth': 410, 'origHeight': 409, 'width': 410, 'height': 409, 'widthPercent': 0.45, 'rescaleHeight': False, 'trialN': 109, 'loaded': True, 'loadedTime': 4006, 'positionName': 'RIGHT', 'positionCoords': [707.2, 179.5], 'bid': 4.88}]",233636,1669844543679,salmon,omelette,4.05,4.88,0.8300000000000001,omelette,1089,1119,1118,True,i,235256,1620,1669844545299,1620,HRV,HRV_0310,2022-11-30 21:44:49
110,"[{'imgObject': {}, 'id': 'apple slices', 'src': '/static/foodstim60/apple slices.jpg', 'key': 'u', 'origWidth': 409, 'origHeight': 410, 'width': 409, 'height': 410, 'widthPercent': 0.45, 'rescaleHeight': False, 'trialN': 110, 'loaded': True, 'loadedTime': 3993, 'positionName': 'LEFT', 'positionCoords': [243.8, 179], 'bid': 4.91}, {'imgObject': {}, 'id': 'cocktailshrimp', 'src': '/static/foodstim60/cocktailshrimp.jpg', 'key': 'i', 'origWidth': 410, 'origHeight': 410, 'width': 410, 'height': 410, 'widthPercent': 0.45, 'rescaleHeight': False, 'trialN': 110, 'loaded': True, 'loadedTime': 4041, 'positionName': 'RIGHT', 'positionCoords': [707.2, 179], 'bid': 4.97}]",235256,1669844545300,apple slices,cocktailshrimp,4.91,4.97,0.05999999999999961,cocktailshrimp,1905,1935,1936,True,i,237693,2437,1669844547738,2438,HRV,HRV_0310,2022-11-30 21:44:49
111,"[{'imgObject': {}, 'id': 'burrito', 'src': '/static/foodstim60/burrito.jpg', 'key': 'u', 'origWidth': 410, 'origHeight': 410, 'width': 410, 'height': 410, 'widthPercent': 0.45, 'rescaleHeight': False, 'trialN': 111, 'loaded': True, 'loadedTime': 4092, 'positionName': 'LEFT', 'positionCoords': [242.8, 179], 'bid': 3.41}, {'imgObject': {}, 'id': 'orange slices', 'src': '/static/foodstim60/orange slices.jpg', 'key': 'i', 'origWidth': 409, 'origHeight': 410, 'width': 409, 'height': 410, 'widthPercent': 0.45, 'rescaleHeight': False, 'trialN': 111, 'loaded': True, 'loadedTime': 4023, 'positionName': 'RIGHT', 'positionCoords': [707.2, 179], 'bid': 1.72}]",237693,1669844547738,burrito,orange slices,3.41,1.72,-1.6900000000000002,burrito,984,998,999,True,u,239197,1504,1669844549242,1504,HRV,HRV_0310,2022-11-30 21:44:49
112,"[{'imgObject': {}, 'id': 'banana', 'src': '/static/foodstim60/banana.jpg', 'key': 'u', 'origWidth': 410, 'origHeight': 410, 'width': 410, 'height': 410, 'widthPercent': 0.45, 'rescaleHeight': False, 'trialN': 112, 'loaded': True, 'loadedTime': 4089, 'positionName': 'LEFT', 'positionCoords': [242.8, 179], 'bid': 5.76}, {'imgObject': {}, 'id': 'chicken nuggets2', 'src': '/static/foodstim60/chicken nuggets2.jpg', 'key': 'i', 'origWidth': 410, 'origHeight': 409, 'width': 410, 'height': 409, 'widthPercent': 0.45, 'rescaleHeight': False, 'trialN': 112, 'loaded': True, 'loadedTime': 4003, 'positionName': 'RIGHT', 'positionCoords': [707.2, 179.5], 'bid': 5.75}]",239197,1669844549242,banana,chicken nuggets2,5.76,5.75,-0.009999999999999787,chicken nuggets2,1027,1040,1042,True,i,240755,1558,1669844550799,1557,HRV,HRV_0310,2022-11-30 21:44:49
113,"[{'imgObject': {}, 'id': 'hashbrowns', 'src': '/static/foodstim60/hashbrowns.jpg', 'key': 'u', 'origWidth': 411, 'origHeight': 410, 'width': 411, 'height': 410, 'widthPercent': 0.45, 'rescaleHeight': False, 'trialN': 113, 'loaded': True, 'loadedTime': 4015, 'positionName': 'LEFT', 'positionCoords': [241.8, 179], 'bid': 3.6}, {'imgObject': {}, 'id': 'mac & cheese', 'src': '/static/foodstim60/mac & cheese.jpg', 'key': 'i', 'origWidth': 410, 'origHeight': 410, 'width': 410, 'height': 410, 'widthPercent': 0.45, 'rescaleHeight': False, 'trialN': 113, 'loaded': True, 'loadedTime': 4016, 'positionName': 'RIGHT', 'positionCoords': [707.2, 179], 'bid': 3.5700000000000003}]",240755,1669844550800,hashbrowns,mac & cheese,3.6,3.5700000000000003,-0.029999999999999805,mac & cheese,1703,1715,1715,True,i,242977,2222,1669844553021,2221,HRV,HRV_0310,2022-11-30 21:44:49
114,"[{'imgObject': {}, 'id': 'avocado', 'src': '/static/foodstim60/avocado.jpg', 'key': 'u', 'origWidth': 409, 'origHeight': 409, 'width': 409, 'height': 409, 'widthPercent': 0.45, 'rescaleHeight': False, 'trialN': 114, 'loaded': True, 'loadedTime': 4037, 'positionName': 'LEFT', 'positionCoords': [243.8, 179.5], 'bid': 1.13}, {'imgObject': {}, 'id': 'apple slices', 'src': '/static/foodstim60/apple slices.jpg', 'key': 'i', 'origWidth': 409, 'origHeight': 410, 'width': 409, 'height': 410, 'widthPercent': 0.45, 'rescaleHeight': False, 'trialN': 114, 'loaded': True, 'loadedTime': 3993, 'positionName': 'RIGHT', 'positionCoords': [707.2, 179], 'bid': 4.91}]",242977,1669844553021,avocado,apple slices,1.13,4.91,3.7800000000000002,apple slices,1466,1484,1483,True,i,244967,1990,1669844555011,1990,HRV,HRV_0310,2022-11-30 21:44:49
115,"[{'imgObject': {}, 'id': 'chickenfingers', 'src': '/static/foodstim60/chickenfingers.jpg', 'key': 'u', 'origWidth': 410, 'origHeight': 410, 'width': 410, 'height': 410, 'widthPercent': 0.45, 'rescaleHeight': False, 'trialN': 115, 'loaded': True, 'loadedTime': 4056, 'positionName': 'LEFT', 'positionCoords': [242.8, 179], 'bid': 6.51}, {'imgObject': {}, 'id': 'rigatoni', 'src': '/static/foodstim60/rigatoni.jpg', 'key': 'i', 'origWidth': 411, 'origHeight': 411, 'width': 411, 'height': 411, 'widthPercent': 0.45, 'rescaleHeight': False, 'trialN': 115, 'loaded': True, 'loadedTime': 4036, 'positionName': 'RIGHT', 'positionCoords': [707.2, 178.5], 'bid': 5.83}]",244967,1669844555011,chickenfingers,rigatoni,6.51,5.83,-0.6799999999999997,chickenfingers,1179,1198,1199,True,u,246672,1705,1669844556716,1705,HRV,HRV_0310,2022-11-30 21:44:49
116,"[{'imgObject': {}, 'id': 'turkeysandwich', 'src': '/static/foodstim60/turkeysandwich.jpg', 'key': 'u', 'origWidth': 409, 'origHeight': 409, 'width': 409, 'height': 409, 'widthPercent': 0.45, 'rescaleHeight': False, 'trialN': 116, 'loaded': True, 'loadedTime': 4088, 'positionName': 'LEFT', 'positionCoords': [243.8, 179.5], 'bid': 6.2700000000000005}, {'imgObject': {}, 'id': 'blackbeanswithrice', 'src': '/static/foodstim60/blackbeanswithrice.jpg', 'key': 'i', 'origWidth': 410, 'origHeight': 410, 'width': 410, 'height': 410, 'widthPercent': 0.45, 'rescaleHeight': False, 'trialN': 116, 'loaded': True, 'loadedTime': 4035, 'positionName': 'RIGHT', 'positionCoords': [707.2, 179], 'bid': 3.17}]",246672,1669844556716,turkeysandwich,blackbeanswithrice,6.2700000000000005,3.17,-3.1000000000000005,turkeysandwich,927,935,936,True,u,248123,1451,1669844558167,1451,HRV,HRV_0310,2022-11-30 21:44:49
117,"[{'imgObject': {}, 'id': 'granola w milk', 'src': '/static/foodstim60/granola w milk.jpg', 'key': 'u', 'origWidth': 410, 'origHeight': 410, 'width': 410, 'height': 410, 'widthPercent': 0.45, 'rescaleHeight': False, 'trialN': 117, 'loaded': True, 'loadedTime': 4061, 'positionName': 'LEFT', 'positionCoords': [242.8, 179], 'bid': 3.5700000000000003}, {'imgObject': {}, 'id': 'hashbrowns', 'src': '/static/foodstim60/hashbrowns.jpg', 'key': 'i', 'origWidth': 411, 'origHeight': 410, 'width': 411, 'height': 410, 'widthPercent': 0.45, 'rescaleHeight': False, 'trialN': 117, 'loaded': True, 'loadedTime': 4015, 'positionName': 'RIGHT', 'positionCoords': [707.2, 179], 'bid': 3.6}]",248123,1669844558167,granola w milk,hashbrowns,3.5700000000000003,3.6,0.029999999999999805,granola w milk,1413,1435,1435,True,u,250059,1936,1669844560103,1936,HRV,HRV_0310,2022-11-30 21:44:49
