trialN,stimuli,question,trialStartTime,trialStartTime_UNIX,stimulus1,rt,receivedResponse,rating,trialEndTime,trialDuration,stimulus1Loaded,exp,subjectId,date
0,"[{'imgObject': {}, 'id': 'luckycharms', 'src': '/static/foodstim60/luckycharms.jpg', 'key': 'NaN', 'origWidth': 410, 'origHeight': 409, 'width': 410, 'height': 409, 'widthPercent': 0.8, 'rescaleHeight': True, 'trialN': 0, 'loaded': True, 'loadedTime': 4049, 'positionName': 'CENTER', 'positionCoords': [475, 179.5]}]",Rate how much you want to eat this food from 0 (least) to 10 (most).,4457,1669843922920,luckycharms,3177,True,6.07,7634,3177,True,HRV,HRV_0310,2022-11-30 21:34:31
1,"[{'imgObject': {}, 'id': 'yogurt no spoon', 'src': '/static/foodstim60/yogurt no spoon.jpg', 'key': 'NaN', 'origWidth': 411, 'origHeight': 410, 'width': 411, 'height': 410, 'widthPercent': 0.8, 'rescaleHeight': True, 'trialN': 1, 'loaded': True, 'loadedTime': 4043, 'positionName': 'CENTER', 'positionCoords': [474.5, 179]}]",Rate how much you want to eat this food from 0 (least) to 10 (most).,7637,1669843926099,yogurt no spoon,2997,True,4.92,10634,2997,True,HRV,HRV_0310,2022-11-30 21:34:31
2,"[{'imgObject': {}, 'id': 'grilled chicken strips', 'src': '/static/foodstim60/grilled chicken strips.jpg', 'key': 'NaN', 'origWidth': 410, 'origHeight': 411, 'width': 410, 'height': 411, 'widthPercent': 0.8, 'rescaleHeight': True, 'trialN': 2, 'loaded': True, 'loadedTime': 4053, 'positionName': 'CENTER', 'positionCoords': [475, 178.5]}]",Rate how much you want to eat this food from 0 (least) to 10 (most).,10648,1669843929111,grilled chicken strips,1611,True,5.66,12259,1611,True,HRV,HRV_0310,2022-11-30 21:34:31
3,"[{'imgObject': {}, 'id': 'Tribe humus pita', 'src': '/static/foodstim60/Tribe humus pita.jpg', 'key': 'NaN', 'origWidth': 411, 'origHeight': 411, 'width': 411, 'height': 411, 'widthPercent': 0.8, 'rescaleHeight': True, 'trialN': 3, 'loaded': True, 'loadedTime': 4051, 'positionName': 'CENTER', 'positionCoords': [474.5, 178.5]}]",Rate how much you want to eat this food from 0 (least) to 10 (most).,12270,1669843930732,Tribe humus pita,3645,True,0.85,15915,3645,True,HRV,HRV_0310,2022-11-30 21:34:31
4,"[{'imgObject': {}, 'id': 'avocado', 'src': '/static/foodstim60/avocado.jpg', 'key': 'NaN', 'origWidth': 409, 'origHeight': 409, 'width': 409, 'height': 409, 'widthPercent': 0.8, 'rescaleHeight': True, 'trialN': 4, 'loaded': True, 'loadedTime': 4038, 'positionName': 'CENTER', 'positionCoords': [475.5, 179.5]}]",Rate how much you want to eat this food from 0 (least) to 10 (most).,15929,1669843934391,avocado,1846,True,0.3,17775,1846,True,HRV,HRV_0310,2022-11-30 21:34:31
5,"[{'imgObject': {}, 'id': 'hashbrowns', 'src': '/static/foodstim60/hashbrowns.jpg', 'key': 'NaN', 'origWidth': 411, 'origHeight': 410, 'width': 411, 'height': 410, 'widthPercent': 0.8, 'rescaleHeight': True, 'trialN': 5, 'loaded': True, 'loadedTime': 4075, 'positionName': 'CENTER', 'positionCoords': [474.5, 179]}]",Rate how much you want to eat this food from 0 (least) to 10 (most).,17784,1669843936246,hashbrowns,4709,True,0.7000000000000001,22493,4709,True,HRV,HRV_0310,2022-11-30 21:34:31
6,"[{'imgObject': {}, 'id': 'burger', 'src': '/static/foodstim60/burger.jpg', 'key': 'NaN', 'origWidth': 409, 'origHeight': 409, 'width': 409, 'height': 409, 'widthPercent': 0.8, 'rescaleHeight': True, 'trialN': 6, 'loaded': True, 'loadedTime': 4083, 'positionName': 'CENTER', 'positionCoords': [475.5, 179.5]}]",Rate how much you want to eat this food from 0 (least) to 10 (most).,22507,1669843940969,burger,2971,True,8.42,25478,2971,True,HRV,HRV_0310,2022-11-30 21:34:31
7,"[{'imgObject': {}, 'id': 'bagel and cc', 'src': '/static/foodstim60/bagel and cc.jpg', 'key': 'NaN', 'origWidth': 410, 'origHeight': 410, 'width': 410, 'height': 410, 'widthPercent': 0.8, 'rescaleHeight': True, 'trialN': 7, 'loaded': True, 'loadedTime': 4081, 'positionName': 'CENTER', 'positionCoords': [475, 179]}]",Rate how much you want to eat this food from 0 (least) to 10 (most).,25481,1669843943943,bagel and cc,1825,True,0.6900000000000001,27306,1825,True,HRV,HRV_0310,2022-11-30 21:34:31
8,"[{'imgObject': {}, 'id': 'chicken nuggets2', 'src': '/static/foodstim60/chicken nuggets2.jpg', 'key': 'NaN', 'origWidth': 410, 'origHeight': 409, 'width': 410, 'height': 409, 'widthPercent': 0.8, 'rescaleHeight': True, 'trialN': 8, 'loaded': True, 'loadedTime': 4103, 'positionName': 'CENTER', 'positionCoords': [475, 179.5]}]",Rate how much you want to eat this food from 0 (least) to 10 (most).,27312,1669843945774,chicken nuggets2,2556,True,6.19,29868,2556,True,HRV,HRV_0310,2022-11-30 21:34:31
9,"[{'imgObject': {}, 'id': 'banana', 'src': '/static/foodstim60/banana.jpg', 'key': 'NaN', 'origWidth': 410, 'origHeight': 410, 'width': 410, 'height': 410, 'widthPercent': 0.8, 'rescaleHeight': True, 'trialN': 9, 'loaded': True, 'loadedTime': 4086, 'positionName': 'CENTER', 'positionCoords': [475, 179]}]",Rate how much you want to eat this food from 0 (least) to 10 (most).,29878,1669843948340,banana,2397,True,3.98,32275,2397,True,HRV,HRV_0310,2022-11-30 21:34:31
10,"[{'imgObject': {}, 'id': 'corn cob', 'src': '/static/foodstim60/corn cob.jpg', 'key': 'NaN', 'origWidth': 411, 'origHeight': 411, 'width': 411, 'height': 411, 'widthPercent': 0.8, 'rescaleHeight': True, 'trialN': 10, 'loaded': True, 'loadedTime': 4096, 'positionName': 'CENTER', 'positionCoords': [474.5, 178.5]}]",Rate how much you want to eat this food from 0 (least) to 10 (most).,32283,1669843950745,corn cob,3007,True,2.29,35290,3007,True,HRV,HRV_0310,2022-11-30 21:34:31
11,"[{'imgObject': {}, 'id': 'Grapes', 'src': '/static/foodstim60/Grapes.jpg', 'key': 'NaN', 'origWidth': 411, 'origHeight': 411, 'width': 411, 'height': 411, 'widthPercent': 0.8, 'rescaleHeight': True, 'trialN': 11, 'loaded': True, 'loadedTime': 4114, 'positionName': 'CENTER', 'positionCoords': [474.5, 178.5]}]",Rate how much you want to eat this food from 0 (least) to 10 (most).,35297,1669843953760,Grapes,1884,True,5.6000000000000005,37181,1884,True,HRV,HRV_0310,2022-11-30 21:34:31
12,"[{'imgObject': {}, 'id': 'ice cream sundae 002', 'src': '/static/foodstim60/ice cream sundae 002.jpg', 'key': 'NaN', 'origWidth': 409, 'origHeight': 409, 'width': 409, 'height': 409, 'widthPercent': 0.8, 'rescaleHeight': True, 'trialN': 12, 'loaded': True, 'loadedTime': 4116, 'positionName': 'CENTER', 'positionCoords': [475.5, 179.5]}]",Rate how much you want to eat this food from 0 (least) to 10 (most).,37184,1669843955646,ice cream sundae 002,2684,True,5.91,39868,2684,True,HRV,HRV_0310,2022-11-30 21:34:31
13,"[{'imgObject': {}, 'id': 'hotdog w must', 'src': '/static/foodstim60/hotdog w must.jpg', 'key': 'NaN', 'origWidth': 409, 'origHeight': 409, 'width': 409, 'height': 409, 'widthPercent': 0.8, 'rescaleHeight': True, 'trialN': 13, 'loaded': True, 'loadedTime': 4127, 'positionName': 'CENTER', 'positionCoords': [475.5, 179.5]}]",Rate how much you want to eat this food from 0 (least) to 10 (most).,39883,1669843958345,hotdog w must,1688,True,3.75,41571,1688,True,HRV,HRV_0310,2022-11-30 21:34:31
14,"[{'imgObject': {}, 'id': 'mac & cheese', 'src': '/static/foodstim60/mac & cheese.jpg', 'key': 'NaN', 'origWidth': 410, 'origHeight': 410, 'width': 410, 'height': 410, 'widthPercent': 0.8, 'rescaleHeight': True, 'trialN': 14, 'loaded': True, 'loadedTime': 4149, 'positionName': 'CENTER', 'positionCoords': [475, 179]}]",Rate how much you want to eat this food from 0 (least) to 10 (most).,41595,1669843960057,mac & cheese,2601,True,3.2,44196,2601,True,HRV,HRV_0310,2022-11-30 21:34:31
15,"[{'imgObject': {}, 'id': 'popsicles', 'src': '/static/foodstim60/popsicles.jpg', 'key': 'NaN', 'origWidth': 410, 'origHeight': 410, 'width': 410, 'height': 410, 'widthPercent': 0.8, 'rescaleHeight': True, 'trialN': 15, 'loaded': True, 'loadedTime': 4456, 'positionName': 'CENTER', 'positionCoords': [475, 179]}]",Rate how much you want to eat this food from 0 (least) to 10 (most).,44223,1669843962686,popsicles,2130,True,1.08,46353,2130,True,HRV,HRV_0310,2022-11-30 21:34:31
16,"[{'imgObject': {}, 'id': 'shreddedwheatwithmilk', 'src': '/static/foodstim60/shreddedwheatwithmilk.jpg', 'key': 'NaN', 'origWidth': 410, 'origHeight': 410, 'width': 410, 'height': 410, 'widthPercent': 0.8, 'rescaleHeight': True, 'trialN': 16, 'loaded': True, 'loadedTime': 4129, 'positionName': 'CENTER', 'positionCoords': [475, 179]}]",Rate how much you want to eat this food from 0 (least) to 10 (most).,46379,1669843964841,shreddedwheatwithmilk,3411,True,2.42,49790,3411,True,HRV,HRV_0310,2022-11-30 21:34:31
17,"[{'imgObject': {}, 'id': 'edamame', 'src': '/static/foodstim60/edamame.jpg', 'key': 'NaN', 'origWidth': 409, 'origHeight': 410, 'width': 409, 'height': 410, 'widthPercent': 0.8, 'rescaleHeight': True, 'trialN': 17, 'loaded': True, 'loadedTime': 4134, 'positionName': 'CENTER', 'positionCoords': [475.5, 179]}]",Rate how much you want to eat this food from 0 (least) to 10 (most).,49809,1669843968272,edamame,1887,True,1.36,51696,1887,True,HRV,HRV_0310,2022-11-30 21:34:31
18,"[{'imgObject': {}, 'id': 'roastedpotatoes', 'src': '/static/foodstim60/roastedpotatoes.jpg', 'key': 'NaN', 'origWidth': 409, 'origHeight': 410, 'width': 409, 'height': 410, 'widthPercent': 0.8, 'rescaleHeight': True, 'trialN': 18, 'loaded': True, 'loadedTime': 4148, 'positionName': 'CENTER', 'positionCoords': [475.5, 179]}]",Rate how much you want to eat this food from 0 (least) to 10 (most).,51726,1669843970189,roastedpotatoes,1549,True,2.38,53275,1549,True,HRV,HRV_0310,2022-11-30 21:34:31
19,"[{'imgObject': {}, 'id': 'cheerios', 'src': '/static/foodstim60/cheerios.jpg', 'key': 'NaN', 'origWidth': 409, 'origHeight': 410, 'width': 409, 'height': 410, 'widthPercent': 0.8, 'rescaleHeight': True, 'trialN': 19, 'loaded': True, 'loadedTime': 4143, 'positionName': 'CENTER', 'positionCoords': [475.5, 179]}]",Rate how much you want to eat this food from 0 (least) to 10 (most).,53293,1669843971755,cheerios,1716,True,2.7600000000000002,55009,1716,True,HRV,HRV_0310,2022-11-30 21:34:31
20,"[{'imgObject': {}, 'id': 'chickenfingers', 'src': '/static/foodstim60/chickenfingers.jpg', 'key': 'NaN', 'origWidth': 410, 'origHeight': 410, 'width': 410, 'height': 410, 'widthPercent': 0.8, 'rescaleHeight': True, 'trialN': 20, 'loaded': True, 'loadedTime': 4160, 'positionName': 'CENTER', 'positionCoords': [475, 179]}]",Rate how much you want to eat this food from 0 (least) to 10 (most).,55027,1669843973489,chickenfingers,2607,True,8.66,57634,2607,True,HRV,HRV_0310,2022-11-30 21:34:31
21,"[{'imgObject': {}, 'id': 'kiwi', 'src': '/static/foodstim60/kiwi.jpg', 'key': 'NaN', 'origWidth': 410, 'origHeight': 410, 'width': 410, 'height': 410, 'widthPercent': 0.8, 'rescaleHeight': True, 'trialN': 21, 'loaded': True, 'loadedTime': 4161, 'positionName': 'CENTER', 'positionCoords': [475, 179]}]",Rate how much you want to eat this food from 0 (least) to 10 (most).,57648,1669843976110,kiwi,1955,True,3.8000000000000003,59603,1955,True,HRV,HRV_0310,2022-11-30 21:34:31
22,"[{'imgObject': {}, 'id': 'rigatoni and sauce', 'src': '/static/foodstim60/rigatoni and sauce.jpg', 'key': 'NaN', 'origWidth': 410, 'origHeight': 411, 'width': 410, 'height': 411, 'widthPercent': 0.8, 'rescaleHeight': True, 'trialN': 22, 'loaded': True, 'loadedTime': 4166, 'positionName': 'CENTER', 'positionCoords': [475, 178.5]}]",Rate how much you want to eat this food from 0 (least) to 10 (most).,59624,1669843978086,rigatoni and sauce,2244,True,5.92,61868,2244,True,HRV,HRV_0310,2022-11-30 21:34:31
23,"[{'imgObject': {}, 'id': 'apple slices', 'src': '/static/foodstim60/apple slices.jpg', 'key': 'NaN', 'origWidth': 409, 'origHeight': 410, 'width': 409, 'height': 410, 'widthPercent': 0.8, 'rescaleHeight': True, 'trialN': 23, 'loaded': True, 'loadedTime': 4175, 'positionName': 'CENTER', 'positionCoords': [475.5, 179]}]",Rate how much you want to eat this food from 0 (least) to 10 (most).,61891,1669843980353,apple slices,2087,True,4.11,63978,2087,True,HRV,HRV_0310,2022-11-30 21:34:31
24,"[{'imgObject': {}, 'id': 'cantaloupe', 'src': '/static/foodstim60/cantaloupe.jpg', 'key': 'NaN', 'origWidth': 409, 'origHeight': 409, 'width': 409, 'height': 409, 'widthPercent': 0.8, 'rescaleHeight': True, 'trialN': 24, 'loaded': True, 'loadedTime': 4177, 'positionName': 'CENTER', 'positionCoords': [475.5, 179.5]}]",Rate how much you want to eat this food from 0 (least) to 10 (most).,63992,1669843982454,cantaloupe,3033,True,9.26,67025,3033,True,HRV,HRV_0310,2022-11-30 21:34:31
25,"[{'imgObject': {}, 'id': 'sweetpotato', 'src': '/static/foodstim60/sweetpotato.jpg', 'key': 'NaN', 'origWidth': 410, 'origHeight': 410, 'width': 410, 'height': 410, 'widthPercent': 0.8, 'rescaleHeight': True, 'trialN': 25, 'loaded': True, 'loadedTime': 4187, 'positionName': 'CENTER', 'positionCoords': [475, 179]}]",Rate how much you want to eat this food from 0 (least) to 10 (most).,67048,1669843985510,sweetpotato,2445,True,2.1,69493,2445,True,HRV,HRV_0310,2022-11-30 21:34:31
26,"[{'imgObject': {}, 'id': 'steak', 'src': '/static/foodstim60/steak.jpg', 'key': 'NaN', 'origWidth': 410, 'origHeight': 410, 'width': 410, 'height': 410, 'widthPercent': 0.8, 'rescaleHeight': True, 'trialN': 26, 'loaded': True, 'loadedTime': 4207, 'positionName': 'CENTER', 'positionCoords': [475, 179]}]",Rate how much you want to eat this food from 0 (least) to 10 (most).,69513,1669843987975,steak,2512,True,4.95,72025,2512,True,HRV,HRV_0310,2022-11-30 21:34:31
27,"[{'imgObject': {}, 'id': 'orange slices', 'src': '/static/foodstim60/orange slices.jpg', 'key': 'NaN', 'origWidth': 409, 'origHeight': 410, 'width': 409, 'height': 410, 'widthPercent': 0.8, 'rescaleHeight': True, 'trialN': 27, 'loaded': True, 'loadedTime': 4240, 'positionName': 'CENTER', 'positionCoords': [475.5, 179]}]",Rate how much you want to eat this food from 0 (least) to 10 (most).,72042,1669843990504,orange slices,2248,True,2.52,74290,2248,True,HRV,HRV_0310,2022-11-30 21:34:31
28,"[{'imgObject': {}, 'id': 'turkey sandwich', 'src': '/static/foodstim60/turkey sandwich.jpg', 'key': 'NaN', 'origWidth': 409, 'origHeight': 409, 'width': 409, 'height': 409, 'widthPercent': 0.8, 'rescaleHeight': True, 'trialN': 28, 'loaded': True, 'loadedTime': 4223, 'positionName': 'CENTER', 'positionCoords': [475.5, 179.5]}]",Rate how much you want to eat this food from 0 (least) to 10 (most).,74311,1669843992773,turkey sandwich,3104,True,6.55,77415,3104,True,HRV,HRV_0310,2022-11-30 21:34:31
29,"[{'imgObject': {}, 'id': 'burrito', 'src': '/static/foodstim60/burrito.jpg', 'key': 'NaN', 'origWidth': 410, 'origHeight': 410, 'width': 410, 'height': 410, 'widthPercent': 0.8, 'rescaleHeight': True, 'trialN': 29, 'loaded': True, 'loadedTime': 4213, 'positionName': 'CENTER', 'positionCoords': [475, 179]}]",Rate how much you want to eat this food from 0 (least) to 10 (most).,77428,1669843995891,burrito,2425,True,2.8000000000000003,79853,2425,True,HRV,HRV_0310,2022-11-30 21:34:31
30,"[{'imgObject': {}, 'id': 'tacos', 'src': '/static/foodstim60/tacos.jpg', 'key': 'NaN', 'origWidth': 411, 'origHeight': 411, 'width': 411, 'height': 411, 'widthPercent': 0.8, 'rescaleHeight': True, 'trialN': 30, 'loaded': True, 'loadedTime': 4235, 'positionName': 'CENTER', 'positionCoords': [474.5, 178.5]}]",Rate how much you want to eat this food from 0 (least) to 10 (most).,79861,1669843998323,tacos,1976,True,3.5700000000000003,81837,1976,True,HRV,HRV_0310,2022-11-30 21:34:31
31,"[{'imgObject': {}, 'id': 'granola w milk', 'src': '/static/foodstim60/granola w milk.jpg', 'key': 'NaN', 'origWidth': 410, 'origHeight': 410, 'width': 410, 'height': 410, 'widthPercent': 0.8, 'rescaleHeight': True, 'trialN': 31, 'loaded': True, 'loadedTime': 4221, 'positionName': 'CENTER', 'positionCoords': [475, 179]}]",Rate how much you want to eat this food from 0 (least) to 10 (most).,81851,1669844000313,granola w milk,2080,True,2.57,83931,2080,True,HRV,HRV_0310,2022-11-30 21:34:31
32,"[{'imgObject': {}, 'id': 'raspberries', 'src': '/static/foodstim60/raspberries.jpg', 'key': 'NaN', 'origWidth': 411, 'origHeight': 411, 'width': 411, 'height': 411, 'widthPercent': 0.8, 'rescaleHeight': True, 'trialN': 32, 'loaded': True, 'loadedTime': 4268, 'positionName': 'CENTER', 'positionCoords': [474.5, 178.5]}]",Rate how much you want to eat this food from 0 (least) to 10 (most).,83937,1669844002400,raspberries,1900,True,6.22,85837,1900,True,HRV,HRV_0310,2022-11-30 21:34:31
33,"[{'imgObject': {}, 'id': 'baked potato', 'src': '/static/foodstim60/baked potato.jpg', 'key': 'NaN', 'origWidth': 409, 'origHeight': 410, 'width': 409, 'height': 410, 'widthPercent': 0.8, 'rescaleHeight': True, 'trialN': 33, 'loaded': True, 'loadedTime': 4248, 'positionName': 'CENTER', 'positionCoords': [475.5, 179]}]",Rate how much you want to eat this food from 0 (least) to 10 (most).,85859,1669844004321,baked potato,2431,True,5.13,88290,2431,True,HRV,HRV_0310,2022-11-30 21:34:31
34,"[{'imgObject': {}, 'id': 'lox', 'src': '/static/foodstim60/lox.jpg', 'key': 'NaN', 'origWidth': 410, 'origHeight': 411, 'width': 410, 'height': 411, 'widthPercent': 0.8, 'rescaleHeight': True, 'trialN': 34, 'loaded': True, 'loadedTime': 4273, 'positionName': 'CENTER', 'positionCoords': [475, 178.5]}]",Rate how much you want to eat this food from 0 (least) to 10 (most).,88313,1669844006775,lox,2665,True,4.01,90978,2665,True,HRV,HRV_0310,2022-11-30 21:34:31
35,"[{'imgObject': {}, 'id': 'bagel plain', 'src': '/static/foodstim60/bagel plain.jpg', 'key': 'NaN', 'origWidth': 410, 'origHeight': 410, 'width': 410, 'height': 410, 'widthPercent': 0.8, 'rescaleHeight': True, 'trialN': 35, 'loaded': True, 'loadedTime': 4258, 'positionName': 'CENTER', 'positionCoords': [475, 179]}]",Rate how much you want to eat this food from 0 (least) to 10 (most).,90990,1669844009452,bagel plain,1956,True,0.42,92946,1956,True,HRV,HRV_0310,2022-11-30 21:34:31
36,"[{'imgObject': {}, 'id': 'eggs', 'src': '/static/foodstim60/eggs.jpg', 'key': 'NaN', 'origWidth': 409, 'origHeight': 409, 'width': 409, 'height': 409, 'widthPercent': 0.8, 'rescaleHeight': True, 'trialN': 36, 'loaded': True, 'loadedTime': 4274, 'positionName': 'CENTER', 'positionCoords': [475.5, 179.5]}]",Rate how much you want to eat this food from 0 (least) to 10 (most).,92958,1669844011422,eggs,2067,True,0.5700000000000001,95025,2067,True,HRV,HRV_0310,2022-11-30 21:34:31
37,"[{'imgObject': {}, 'id': 'raisin bran w milk', 'src': '/static/foodstim60/raisin bran w milk.jpg', 'key': 'NaN', 'origWidth': 411, 'origHeight': 411, 'width': 411, 'height': 411, 'widthPercent': 0.8, 'rescaleHeight': True, 'trialN': 37, 'loaded': True, 'loadedTime': 4289, 'positionName': 'CENTER', 'positionCoords': [474.5, 178.5]}]",Rate how much you want to eat this food from 0 (least) to 10 (most).,95036,1669844013499,raisin bran w milk,2223,True,4.04,97259,2223,True,HRV,HRV_0310,2022-11-30 21:34:31
38,"[{'imgObject': {}, 'id': 'olives', 'src': '/static/foodstim60/olives.jpg', 'key': 'NaN', 'origWidth': 410, 'origHeight': 410, 'width': 410, 'height': 410, 'widthPercent': 0.8, 'rescaleHeight': True, 'trialN': 38, 'loaded': True, 'loadedTime': 4292, 'positionName': 'CENTER', 'positionCoords': [475, 179]}]",Rate how much you want to eat this food from 0 (least) to 10 (most).,97276,1669844015739,olives,1702,True,1.83,98978,1702,True,HRV,HRV_0310,2022-11-30 21:34:31
39,"[{'imgObject': {}, 'id': 'pear', 'src': '/static/foodstim60/pear.jpg', 'key': 'NaN', 'origWidth': 411, 'origHeight': 410, 'width': 411, 'height': 410, 'widthPercent': 0.8, 'rescaleHeight': True, 'trialN': 39, 'loaded': True, 'loadedTime': 4305, 'positionName': 'CENTER', 'positionCoords': [474.5, 179]}]",Rate how much you want to eat this food from 0 (least) to 10 (most).,98995,1669844017458,pear,3310,True,6.92,102305,3310,True,HRV,HRV_0310,2022-11-30 21:34:31
40,"[{'imgObject': {}, 'id': 'blueberries', 'src': '/static/foodstim60/blueberries.jpg', 'key': 'NaN', 'origWidth': 411, 'origHeight': 411, 'width': 411, 'height': 411, 'widthPercent': 0.8, 'rescaleHeight': True, 'trialN': 40, 'loaded': True, 'loadedTime': 4299, 'positionName': 'CENTER', 'positionCoords': [474.5, 178.5]}]",Rate how much you want to eat this food from 0 (least) to 10 (most).,102327,1669844020789,blueberries,1588,True,5.76,103915,1588,True,HRV,HRV_0310,2022-11-30 21:34:31
41,"[{'imgObject': {}, 'id': 'cocktailshrimp', 'src': '/static/foodstim60/cocktailshrimp.jpg', 'key': 'NaN', 'origWidth': 410, 'origHeight': 410, 'width': 410, 'height': 410, 'widthPercent': 0.8, 'rescaleHeight': True, 'trialN': 41, 'loaded': True, 'loadedTime': 4309, 'positionName': 'CENTER', 'positionCoords': [475, 179]}]",Rate how much you want to eat this food from 0 (least) to 10 (most).,103934,1669844022396,cocktailshrimp,1934,True,5.07,105868,1934,True,HRV,HRV_0310,2022-11-30 21:34:31
42,"[{'imgObject': {}, 'id': 'blackbeanswithrice', 'src': '/static/foodstim60/blackbeanswithrice.jpg', 'key': 'NaN', 'origWidth': 410, 'origHeight': 410, 'width': 410, 'height': 410, 'widthPercent': 0.8, 'rescaleHeight': True, 'trialN': 42, 'loaded': True, 'loadedTime': 4308, 'positionName': 'CENTER', 'positionCoords': [475, 179]}]",Rate how much you want to eat this food from 0 (least) to 10 (most).,105892,1669844024355,blackbeanswithrice,2054,True,2.63,107946,2054,True,HRV,HRV_0310,2022-11-30 21:34:31
43,"[{'imgObject': {}, 'id': 'rigatoni', 'src': '/static/foodstim60/rigatoni.jpg', 'key': 'NaN', 'origWidth': 411, 'origHeight': 411, 'width': 411, 'height': 411, 'widthPercent': 0.8, 'rescaleHeight': True, 'trialN': 43, 'loaded': True, 'loadedTime': 4337, 'positionName': 'CENTER', 'positionCoords': [474.5, 178.5]}]",Rate how much you want to eat this food from 0 (least) to 10 (most).,107968,1669844026430,rigatoni,1853,True,6.01,109821,1853,True,HRV,HRV_0310,2022-11-30 21:34:31
44,"[{'imgObject': {}, 'id': 'strawberries', 'src': '/static/foodstim60/strawberries.jpg', 'key': 'NaN', 'origWidth': 410, 'origHeight': 410, 'width': 410, 'height': 410, 'widthPercent': 0.8, 'rescaleHeight': True, 'trialN': 44, 'loaded': True, 'loadedTime': 4341, 'positionName': 'CENTER', 'positionCoords': [475, 179]}]",Rate how much you want to eat this food from 0 (least) to 10 (most).,109850,1669844028314,strawberries,3378,True,9.8,113228,3378,True,HRV,HRV_0310,2022-11-30 21:34:31
45,"[{'imgObject': {}, 'id': 'mashed potato', 'src': '/static/foodstim60/mashed potato.jpg', 'key': 'NaN', 'origWidth': 409, 'origHeight': 409, 'width': 409, 'height': 409, 'widthPercent': 0.8, 'rescaleHeight': True, 'trialN': 45, 'loaded': True, 'loadedTime': 4342, 'positionName': 'CENTER', 'positionCoords': [475.5, 179.5]}]",Rate how much you want to eat this food from 0 (least) to 10 (most).,113232,1669844031694,mashed potato,2261,True,4.22,115493,2261,True,HRV,HRV_0310,2022-11-30 21:34:31
46,"[{'imgObject': {}, 'id': 'omelette', 'src': '/static/foodstim60/omelette.jpg', 'key': 'NaN', 'origWidth': 410, 'origHeight': 409, 'width': 410, 'height': 409, 'widthPercent': 0.8, 'rescaleHeight': True, 'trialN': 46, 'loaded': True, 'loadedTime': 4348, 'positionName': 'CENTER', 'positionCoords': [475, 179.5]}]",Rate how much you want to eat this food from 0 (least) to 10 (most).,115510,1669844033971,omelette,2374,True,5.5,117884,2374,True,HRV,HRV_0310,2022-11-30 21:34:31
47,"[{'imgObject': {}, 'id': 'eggsalad', 'src': '/static/foodstim60/eggsalad.jpg', 'key': 'NaN', 'origWidth': 410, 'origHeight': 409, 'width': 410, 'height': 409, 'widthPercent': 0.8, 'rescaleHeight': True, 'trialN': 47, 'loaded': True, 'loadedTime': 4347, 'positionName': 'CENTER', 'positionCoords': [475, 179.5]}]",Rate how much you want to eat this food from 0 (least) to 10 (most).,117910,1669844036373,eggsalad,2396,True,6.0,120306,2396,True,HRV,HRV_0310,2022-11-30 21:34:31
48,"[{'imgObject': {}, 'id': 'cherries', 'src': '/static/foodstim60/cherries.jpg', 'key': 'NaN', 'origWidth': 410, 'origHeight': 411, 'width': 410, 'height': 411, 'widthPercent': 0.8, 'rescaleHeight': True, 'trialN': 48, 'loaded': True, 'loadedTime': 4351, 'positionName': 'CENTER', 'positionCoords': [475, 178.5]}]",Rate how much you want to eat this food from 0 (least) to 10 (most).,120322,1669844038784,cherries,4140,True,1.05,124462,4140,True,HRV,HRV_0310,2022-11-30 21:34:31
49,"[{'imgObject': {}, 'id': 'fried eggs', 'src': '/static/foodstim60/fried eggs.jpg', 'key': 'NaN', 'origWidth': 410, 'origHeight': 410, 'width': 410, 'height': 410, 'widthPercent': 0.8, 'rescaleHeight': True, 'trialN': 49, 'loaded': True, 'loadedTime': 4371, 'positionName': 'CENTER', 'positionCoords': [475, 179]}]",Rate how much you want to eat this food from 0 (least) to 10 (most).,124487,1669844042949,fried eggs,2866,True,0.63,127353,2866,True,HRV,HRV_0310,2022-11-30 21:34:31
50,"[{'imgObject': {}, 'id': 'salmon', 'src': '/static/foodstim60/salmon.jpg', 'key': 'NaN', 'origWidth': 410, 'origHeight': 409, 'width': 410, 'height': 409, 'widthPercent': 0.8, 'rescaleHeight': True, 'trialN': 50, 'loaded': True, 'loadedTime': 4377, 'positionName': 'CENTER', 'positionCoords': [475, 179.5]}]",Rate how much you want to eat this food from 0 (least) to 10 (most).,127356,1669844045818,salmon,1481,True,2.19,128837,1481,True,HRV,HRV_0310,2022-11-30 21:34:31
51,"[{'imgObject': {}, 'id': 'froot loops w milk', 'src': '/static/foodstim60/froot loops w milk.jpg', 'key': 'NaN', 'origWidth': 410, 'origHeight': 410, 'width': 410, 'height': 410, 'widthPercent': 0.8, 'rescaleHeight': True, 'trialN': 51, 'loaded': True, 'loadedTime': 4403, 'positionName': 'CENTER', 'positionCoords': [475, 179]}]",Rate how much you want to eat this food from 0 (least) to 10 (most).,128845,1669844047308,froot loops w milk,2008,True,5.14,130853,2008,True,HRV,HRV_0310,2022-11-30 21:34:31
52,"[{'imgObject': {}, 'id': 'mango', 'src': '/static/foodstim60/mango.jpg', 'key': 'NaN', 'origWidth': 411, 'origHeight': 411, 'width': 411, 'height': 411, 'widthPercent': 0.8, 'rescaleHeight': True, 'trialN': 52, 'loaded': True, 'loadedTime': 4383, 'positionName': 'CENTER', 'positionCoords': [474.5, 178.5]}]",Rate how much you want to eat this food from 0 (least) to 10 (most).,130875,1669844049337,mango,2525,True,1.85,133400,2525,True,HRV,HRV_0310,2022-11-30 21:34:31
53,"[{'imgObject': {}, 'id': 'seaweed', 'src': '/static/foodstim60/seaweed.jpg', 'key': 'NaN', 'origWidth': 410, 'origHeight': 410, 'width': 410, 'height': 410, 'widthPercent': 0.8, 'rescaleHeight': True, 'trialN': 53, 'loaded': True, 'loadedTime': 4391, 'positionName': 'CENTER', 'positionCoords': [475, 179]}]",Rate how much you want to eat this food from 0 (least) to 10 (most).,133413,1669844051876,seaweed,2893,True,0.58,136306,2893,True,HRV,HRV_0310,2022-11-30 21:34:31
54,"[{'imgObject': {}, 'id': 'turkeysandwich', 'src': '/static/foodstim60/turkeysandwich.jpg', 'key': 'NaN', 'origWidth': 409, 'origHeight': 409, 'width': 409, 'height': 409, 'widthPercent': 0.8, 'rescaleHeight': True, 'trialN': 54, 'loaded': True, 'loadedTime': 4389, 'positionName': 'CENTER', 'positionCoords': [475.5, 179.5]}]",Rate how much you want to eat this food from 0 (least) to 10 (most).,136323,1669844054785,turkeysandwich,6452,True,5.91,142775,6452,True,HRV,HRV_0310,2022-11-30 21:34:31
55,"[{'imgObject': {}, 'id': 'salad w chicken', 'src': '/static/foodstim60/salad w chicken.jpg', 'key': 'NaN', 'origWidth': 411, 'origHeight': 411, 'width': 411, 'height': 411, 'widthPercent': 0.8, 'rescaleHeight': True, 'trialN': 55, 'loaded': True, 'loadedTime': 4452, 'positionName': 'CENTER', 'positionCoords': [474.5, 178.5]}]",Rate how much you want to eat this food from 0 (least) to 10 (most).,142795,1669844061258,salad w chicken,1823,True,4.3500000000000005,144618,1823,True,HRV,HRV_0310,2022-11-30 21:34:31
56,"[{'imgObject': {}, 'id': 'veggieswithdip', 'src': '/static/foodstim60/veggieswithdip.jpg', 'key': 'NaN', 'origWidth': 409, 'origHeight': 409, 'width': 409, 'height': 409, 'widthPercent': 0.8, 'rescaleHeight': True, 'trialN': 56, 'loaded': True, 'loadedTime': 4453, 'positionName': 'CENTER', 'positionCoords': [475.5, 179.5]}]",Rate how much you want to eat this food from 0 (least) to 10 (most).,144641,1669844063103,veggieswithdip,2618,True,5.04,147259,2618,True,HRV,HRV_0310,2022-11-30 21:34:31
57,"[{'imgObject': {}, 'id': 'sushi w_condiments', 'src': '/static/foodstim60/sushi w_condiments.jpg', 'key': 'NaN', 'origWidth': 410, 'origHeight': 410, 'width': 410, 'height': 410, 'widthPercent': 0.8, 'rescaleHeight': True, 'trialN': 57, 'loaded': True, 'loadedTime': 4454, 'positionName': 'CENTER', 'positionCoords': [475, 179]}]",Rate how much you want to eat this food from 0 (least) to 10 (most).,147265,1669844065727,sushi w_condiments,1931,True,2.6,149196,1931,True,HRV,HRV_0310,2022-11-30 21:34:31
58,"[{'imgObject': {}, 'id': 'cherry tomato', 'src': '/static/foodstim60/cherry tomato.jpg', 'key': 'NaN', 'origWidth': 410, 'origHeight': 410, 'width': 410, 'height': 410, 'widthPercent': 0.8, 'rescaleHeight': True, 'trialN': 58, 'loaded': True, 'loadedTime': 4455, 'positionName': 'CENTER', 'positionCoords': [475, 179]}]",Rate how much you want to eat this food from 0 (least) to 10 (most).,149212,1669844067674,cherry tomato,2313,True,0.79,151525,2313,True,HRV,HRV_0310,2022-11-30 21:34:31
59,"[{'imgObject': {}, 'id': 'fruitsalad', 'src': '/static/foodstim60/fruitsalad.jpg', 'key': 'NaN', 'origWidth': 410, 'origHeight': 410, 'width': 410, 'height': 410, 'widthPercent': 0.8, 'rescaleHeight': True, 'trialN': 59, 'loaded': True, 'loadedTime': 4456, 'positionName': 'CENTER', 'positionCoords': [475, 179]}]",Rate how much you want to eat this food from 0 (least) to 10 (most).,151552,1669844070015,fruitsalad,2379,True,9.36,153931,2379,True,HRV,HRV_0310,2022-11-30 21:34:31
