trialN,stimuli,question,trialStartTime,trialStartTime_UNIX,stimulus1,rt,receivedResponse,rating,trialEndTime,trialDuration,stimulus1Loaded,exp,subjectId,date
0,"[{'imgObject': {}, 'id': 'cantaloupe', 'src': '/static/foodstim60/cantaloupe.jpg', 'key': 'NaN', 'origWidth': 409, 'origHeight': 409, 'width': 409, 'height': 409, 'widthPercent': 0.8, 'rescaleHeight': True, 'trialN': 0, 'loaded': True, 'loadedTime': 3431, 'positionName': 'CENTER', 'positionCoords': [475.5, 179.5]}]",Rate how much you want to eat this food from 0 (least) to 10 (most).,3488,1669844088773,cantaloupe,3651,True,7.83,7139,3651,True,HRV,HRV_0310,2022-11-30 21:37:01
1,"[{'imgObject': {}, 'id': 'steak', 'src': '/static/foodstim60/steak.jpg', 'key': 'NaN', 'origWidth': 410, 'origHeight': 410, 'width': 410, 'height': 410, 'widthPercent': 0.8, 'rescaleHeight': True, 'trialN': 1, 'loaded': True, 'loadedTime': 3432, 'positionName': 'CENTER', 'positionCoords': [475, 179]}]",Rate how much you want to eat this food from 0 (least) to 10 (most).,7145,1669844092430,steak,2120,True,5.33,9265,2120,True,HRV,HRV_0310,2022-11-30 21:37:01
2,"[{'imgObject': {}, 'id': 'salmon', 'src': '/static/foodstim60/salmon.jpg', 'key': 'NaN', 'origWidth': 410, 'origHeight': 409, 'width': 410, 'height': 409, 'widthPercent': 0.8, 'rescaleHeight': True, 'trialN': 2, 'loaded': True, 'loadedTime': 3433, 'positionName': 'CENTER', 'positionCoords': [475, 179.5]}]",Rate how much you want to eat this food from 0 (least) to 10 (most).,9271,1669844094555,salmon,2399,True,4.05,11670,2399,True,HRV,HRV_0310,2022-11-30 21:37:01
3,"[{'imgObject': {}, 'id': 'eggs', 'src': '/static/foodstim60/eggs.jpg', 'key': 'NaN', 'origWidth': 409, 'origHeight': 409, 'width': 409, 'height': 409, 'widthPercent': 0.8, 'rescaleHeight': True, 'trialN': 3, 'loaded': True, 'loadedTime': 3434, 'positionName': 'CENTER', 'positionCoords': [475.5, 179.5]}]",Rate how much you want to eat this food from 0 (least) to 10 (most).,11678,1669844096963,eggs,1961,True,0.5700000000000001,13639,1961,True,HRV,HRV_0310,2022-11-30 21:37:01
4,"[{'imgObject': {}, 'id': 'burger', 'src': '/static/foodstim60/burger.jpg', 'key': 'NaN', 'origWidth': 409, 'origHeight': 409, 'width': 409, 'height': 409, 'widthPercent': 0.8, 'rescaleHeight': True, 'trialN': 4, 'loaded': True, 'loadedTime': 3435, 'positionName': 'CENTER', 'positionCoords': [475.5, 179.5]}]",Rate how much you want to eat this food from 0 (least) to 10 (most).,13642,1669844098927,burger,2278,True,7.26,15920,2278,True,HRV,HRV_0310,2022-11-30 21:37:01
5,"[{'imgObject': {}, 'id': 'seaweed', 'src': '/static/foodstim60/seaweed.jpg', 'key': 'NaN', 'origWidth': 410, 'origHeight': 410, 'width': 410, 'height': 410, 'widthPercent': 0.8, 'rescaleHeight': True, 'trialN': 5, 'loaded': True, 'loadedTime': 3436, 'positionName': 'CENTER', 'positionCoords': [475, 179]}]",Rate how much you want to eat this food from 0 (least) to 10 (most).,15925,1669844101211,seaweed,2136,True,0.32,18061,2136,True,HRV,HRV_0310,2022-11-30 21:37:01
6,"[{'imgObject': {}, 'id': 'sushi w_condiments', 'src': '/static/foodstim60/sushi w_condiments.jpg', 'key': 'NaN', 'origWidth': 410, 'origHeight': 410, 'width': 410, 'height': 410, 'widthPercent': 0.8, 'rescaleHeight': True, 'trialN': 6, 'loaded': True, 'loadedTime': 3437, 'positionName': 'CENTER', 'positionCoords': [475, 179]}]",Rate how much you want to eat this food from 0 (least) to 10 (most).,18067,1669844103351,sushi w_condiments,1729,True,1.8900000000000001,19796,1729,True,HRV,HRV_0310,2022-11-30 21:37:01
7,"[{'imgObject': {}, 'id': 'cheerios', 'src': '/static/foodstim60/cheerios.jpg', 'key': 'NaN', 'origWidth': 409, 'origHeight': 410, 'width': 409, 'height': 410, 'widthPercent': 0.8, 'rescaleHeight': True, 'trialN': 7, 'loaded': True, 'loadedTime': 3438, 'positionName': 'CENTER', 'positionCoords': [475.5, 179]}]",Rate how much you want to eat this food from 0 (least) to 10 (most).,19806,1669844105090,cheerios,1412,True,3.22,21218,1412,True,HRV,HRV_0310,2022-11-30 21:37:01
8,"[{'imgObject': {}, 'id': 'chicken nuggets2', 'src': '/static/foodstim60/chicken nuggets2.jpg', 'key': 'NaN', 'origWidth': 410, 'origHeight': 409, 'width': 410, 'height': 409, 'widthPercent': 0.8, 'rescaleHeight': True, 'trialN': 8, 'loaded': True, 'loadedTime': 3439, 'positionName': 'CENTER', 'positionCoords': [475, 179.5]}]",Rate how much you want to eat this food from 0 (least) to 10 (most).,21232,1669844106517,chicken nuggets2,1766,True,5.75,22998,1766,True,HRV,HRV_0310,2022-11-30 21:37:01
9,"[{'imgObject': {}, 'id': 'ice cream sundae 002', 'src': '/static/foodstim60/ice cream sundae 002.jpg', 'key': 'NaN', 'origWidth': 409, 'origHeight': 409, 'width': 409, 'height': 409, 'widthPercent': 0.8, 'rescaleHeight': True, 'trialN': 9, 'loaded': True, 'loadedTime': 3440, 'positionName': 'CENTER', 'positionCoords': [475.5, 179.5]}]",Rate how much you want to eat this food from 0 (least) to 10 (most).,23007,1669844108293,ice cream sundae 002,2163,True,5.83,25170,2163,True,HRV,HRV_0310,2022-11-30 21:37:01
10,"[{'imgObject': {}, 'id': 'edamame', 'src': '/static/foodstim60/edamame.jpg', 'key': 'NaN', 'origWidth': 409, 'origHeight': 410, 'width': 409, 'height': 410, 'widthPercent': 0.8, 'rescaleHeight': True, 'trialN': 10, 'loaded': True, 'loadedTime': 3441, 'positionName': 'CENTER', 'positionCoords': [475.5, 179]}]",Rate how much you want to eat this food from 0 (least) to 10 (most).,25185,1669844110470,edamame,1532,True,2.13,26717,1532,True,HRV,HRV_0310,2022-11-30 21:37:01
11,"[{'imgObject': {}, 'id': 'baked potato', 'src': '/static/foodstim60/baked potato.jpg', 'key': 'NaN', 'origWidth': 409, 'origHeight': 410, 'width': 409, 'height': 410, 'widthPercent': 0.8, 'rescaleHeight': True, 'trialN': 11, 'loaded': True, 'loadedTime': 3442, 'positionName': 'CENTER', 'positionCoords': [475.5, 179]}]",Rate how much you want to eat this food from 0 (least) to 10 (most).,26732,1669844112017,baked potato,1407,True,2.95,28139,1407,True,HRV,HRV_0310,2022-11-30 21:37:01
12,"[{'imgObject': {}, 'id': 'roastedpotatoes', 'src': '/static/foodstim60/roastedpotatoes.jpg', 'key': 'NaN', 'origWidth': 409, 'origHeight': 410, 'width': 409, 'height': 410, 'widthPercent': 0.8, 'rescaleHeight': True, 'trialN': 12, 'loaded': True, 'loadedTime': 3443, 'positionName': 'CENTER', 'positionCoords': [475.5, 179]}]",Rate how much you want to eat this food from 0 (least) to 10 (most).,28151,1669844113436,roastedpotatoes,1972,True,2.63,30123,1972,True,HRV,HRV_0310,2022-11-30 21:37:01
13,"[{'imgObject': {}, 'id': 'bagel and cc', 'src': '/static/foodstim60/bagel and cc.jpg', 'key': 'NaN', 'origWidth': 410, 'origHeight': 410, 'width': 410, 'height': 410, 'widthPercent': 0.8, 'rescaleHeight': True, 'trialN': 13, 'loaded': True, 'loadedTime': 3444, 'positionName': 'CENTER', 'positionCoords': [475, 179]}]",Rate how much you want to eat this food from 0 (least) to 10 (most).,30135,1669844115420,bagel and cc,1676,True,0.55,31811,1676,True,HRV,HRV_0310,2022-11-30 21:37:01
14,"[{'imgObject': {}, 'id': 'mango', 'src': '/static/foodstim60/mango.jpg', 'key': 'NaN', 'origWidth': 411, 'origHeight': 411, 'width': 411, 'height': 411, 'widthPercent': 0.8, 'rescaleHeight': True, 'trialN': 14, 'loaded': True, 'loadedTime': 3445, 'positionName': 'CENTER', 'positionCoords': [474.5, 178.5]}]",Rate how much you want to eat this food from 0 (least) to 10 (most).,31818,1669844117103,mango,2274,True,1.82,34092,2274,True,HRV,HRV_0310,2022-11-30 21:37:01
15,"[{'imgObject': {}, 'id': 'raspberries', 'src': '/static/foodstim60/raspberries.jpg', 'key': 'NaN', 'origWidth': 411, 'origHeight': 411, 'width': 411, 'height': 411, 'widthPercent': 0.8, 'rescaleHeight': True, 'trialN': 15, 'loaded': True, 'loadedTime': 3446, 'positionName': 'CENTER', 'positionCoords': [474.5, 178.5]}]",Rate how much you want to eat this food from 0 (least) to 10 (most).,34102,1669844119387,raspberries,1865,True,5.7,35967,1865,True,HRV,HRV_0310,2022-11-30 21:37:01
16,"[{'imgObject': {}, 'id': 'hashbrowns', 'src': '/static/foodstim60/hashbrowns.jpg', 'key': 'NaN', 'origWidth': 411, 'origHeight': 410, 'width': 411, 'height': 410, 'widthPercent': 0.8, 'rescaleHeight': True, 'trialN': 16, 'loaded': True, 'loadedTime': 3447, 'positionName': 'CENTER', 'positionCoords': [474.5, 179]}]",Rate how much you want to eat this food from 0 (least) to 10 (most).,35980,1669844121265,hashbrowns,1582,True,3.6,37562,1582,True,HRV,HRV_0310,2022-11-30 21:37:01
17,"[{'imgObject': {}, 'id': 'pear', 'src': '/static/foodstim60/pear.jpg', 'key': 'NaN', 'origWidth': 411, 'origHeight': 410, 'width': 411, 'height': 410, 'widthPercent': 0.8, 'rescaleHeight': True, 'trialN': 17, 'loaded': True, 'loadedTime': 3448, 'positionName': 'CENTER', 'positionCoords': [474.5, 179]}]",Rate how much you want to eat this food from 0 (least) to 10 (most).,37569,1669844122853,pear,1774,True,6.5,39343,1774,True,HRV,HRV_0310,2022-11-30 21:37:01
18,"[{'imgObject': {}, 'id': 'tacos', 'src': '/static/foodstim60/tacos.jpg', 'key': 'NaN', 'origWidth': 411, 'origHeight': 411, 'width': 411, 'height': 411, 'widthPercent': 0.8, 'rescaleHeight': True, 'trialN': 18, 'loaded': True, 'loadedTime': 3449, 'positionName': 'CENTER', 'positionCoords': [474.5, 178.5]}]",Rate how much you want to eat this food from 0 (least) to 10 (most).,39349,1669844124634,tacos,2150,True,2.89,41499,2150,True,HRV,HRV_0310,2022-11-30 21:37:01
19,"[{'imgObject': {}, 'id': 'apple slices', 'src': '/static/foodstim60/apple slices.jpg', 'key': 'NaN', 'origWidth': 409, 'origHeight': 410, 'width': 409, 'height': 410, 'widthPercent': 0.8, 'rescaleHeight': True, 'trialN': 19, 'loaded': True, 'loadedTime': 3450, 'positionName': 'CENTER', 'positionCoords': [475.5, 179]}]",Rate how much you want to eat this food from 0 (least) to 10 (most).,41510,1669844126795,apple slices,1832,True,4.91,43342,1832,True,HRV,HRV_0310,2022-11-30 21:37:01
20,"[{'imgObject': {}, 'id': 'corn cob', 'src': '/static/foodstim60/corn cob.jpg', 'key': 'NaN', 'origWidth': 411, 'origHeight': 411, 'width': 411, 'height': 411, 'widthPercent': 0.8, 'rescaleHeight': True, 'trialN': 20, 'loaded': True, 'loadedTime': 3451, 'positionName': 'CENTER', 'positionCoords': [474.5, 178.5]}]",Rate how much you want to eat this food from 0 (least) to 10 (most).,43357,1669844128642,corn cob,2329,True,2.3000000000000003,45686,2329,True,HRV,HRV_0310,2022-11-30 21:37:01
21,"[{'imgObject': {}, 'id': 'luckycharms', 'src': '/static/foodstim60/luckycharms.jpg', 'key': 'NaN', 'origWidth': 410, 'origHeight': 409, 'width': 410, 'height': 409, 'widthPercent': 0.8, 'rescaleHeight': True, 'trialN': 21, 'loaded': True, 'loadedTime': 3451, 'positionName': 'CENTER', 'positionCoords': [475, 179.5]}]",Rate how much you want to eat this food from 0 (least) to 10 (most).,45711,1669844130996,luckycharms,2209,True,6.25,47920,2209,True,HRV,HRV_0310,2022-11-30 21:37:01
22,"[{'imgObject': {}, 'id': 'raisin bran w milk', 'src': '/static/foodstim60/raisin bran w milk.jpg', 'key': 'NaN', 'origWidth': 411, 'origHeight': 411, 'width': 411, 'height': 411, 'widthPercent': 0.8, 'rescaleHeight': True, 'trialN': 22, 'loaded': True, 'loadedTime': 3453, 'positionName': 'CENTER', 'positionCoords': [474.5, 178.5]}]",Rate how much you want to eat this food from 0 (least) to 10 (most).,47931,1669844133216,raisin bran w milk,2647,True,4.36,50578,2647,True,HRV,HRV_0310,2022-11-30 21:37:01
23,"[{'imgObject': {}, 'id': 'sweetpotato', 'src': '/static/foodstim60/sweetpotato.jpg', 'key': 'NaN', 'origWidth': 410, 'origHeight': 410, 'width': 410, 'height': 410, 'widthPercent': 0.8, 'rescaleHeight': True, 'trialN': 23, 'loaded': True, 'loadedTime': 3453, 'positionName': 'CENTER', 'positionCoords': [475, 179]}]",Rate how much you want to eat this food from 0 (least) to 10 (most).,50596,1669844135880,sweetpotato,1810,True,1.6,52406,1810,True,HRV,HRV_0310,2022-11-30 21:37:01
24,"[{'imgObject': {}, 'id': 'strawberries', 'src': '/static/foodstim60/strawberries.jpg', 'key': 'NaN', 'origWidth': 410, 'origHeight': 410, 'width': 410, 'height': 410, 'widthPercent': 0.8, 'rescaleHeight': True, 'trialN': 24, 'loaded': True, 'loadedTime': 3454, 'positionName': 'CENTER', 'positionCoords': [475, 179]}]",Rate how much you want to eat this food from 0 (least) to 10 (most).,52422,1669844137706,strawberries,2343,True,9.88,54765,2343,True,HRV,HRV_0310,2022-11-30 21:37:01
25,"[{'imgObject': {}, 'id': 'granola w milk', 'src': '/static/foodstim60/granola w milk.jpg', 'key': 'NaN', 'origWidth': 410, 'origHeight': 410, 'width': 410, 'height': 410, 'widthPercent': 0.8, 'rescaleHeight': True, 'trialN': 25, 'loaded': True, 'loadedTime': 3455, 'positionName': 'CENTER', 'positionCoords': [475, 179]}]",Rate how much you want to eat this food from 0 (least) to 10 (most).,54778,1669844140063,granola w milk,5393,True,3.5700000000000003,60171,5393,True,HRV,HRV_0310,2022-11-30 21:37:01
26,"[{'imgObject': {}, 'id': 'rigatoni', 'src': '/static/foodstim60/rigatoni.jpg', 'key': 'NaN', 'origWidth': 411, 'origHeight': 411, 'width': 411, 'height': 411, 'widthPercent': 0.8, 'rescaleHeight': True, 'trialN': 26, 'loaded': True, 'loadedTime': 3456, 'positionName': 'CENTER', 'positionCoords': [474.5, 178.5]}]",Rate how much you want to eat this food from 0 (least) to 10 (most).,60181,1669844145466,rigatoni,1739,True,5.83,61920,1739,True,HRV,HRV_0310,2022-11-30 21:37:01
27,"[{'imgObject': {}, 'id': 'veggieswithdip', 'src': '/static/foodstim60/veggieswithdip.jpg', 'key': 'NaN', 'origWidth': 409, 'origHeight': 409, 'width': 409, 'height': 409, 'widthPercent': 0.8, 'rescaleHeight': True, 'trialN': 27, 'loaded': True, 'loadedTime': 3457, 'positionName': 'CENTER', 'positionCoords': [475.5, 179.5]}]",Rate how much you want to eat this food from 0 (least) to 10 (most).,61925,1669844147211,veggieswithdip,2902,True,4.41,64827,2902,True,HRV,HRV_0310,2022-11-30 21:37:01
28,"[{'imgObject': {}, 'id': 'Tribe humus pita', 'src': '/static/foodstim60/Tribe humus pita.jpg', 'key': 'NaN', 'origWidth': 411, 'origHeight': 411, 'width': 411, 'height': 411, 'widthPercent': 0.8, 'rescaleHeight': True, 'trialN': 28, 'loaded': True, 'loadedTime': 3458, 'positionName': 'CENTER', 'positionCoords': [474.5, 178.5]}]",Rate how much you want to eat this food from 0 (least) to 10 (most).,64843,1669844150128,Tribe humus pita,4922,True,1.3900000000000001,69765,4922,True,HRV,HRV_0310,2022-11-30 21:37:01
29,"[{'imgObject': {}, 'id': 'kiwi', 'src': '/static/foodstim60/kiwi.jpg', 'key': 'NaN', 'origWidth': 410, 'origHeight': 410, 'width': 410, 'height': 410, 'widthPercent': 0.8, 'rescaleHeight': True, 'trialN': 29, 'loaded': True, 'loadedTime': 3459, 'positionName': 'CENTER', 'positionCoords': [475, 179]}]",Rate how much you want to eat this food from 0 (least) to 10 (most).,69776,1669844155061,kiwi,1519,True,4.13,71295,1519,True,HRV,HRV_0310,2022-11-30 21:37:01
30,"[{'imgObject': {}, 'id': 'mac & cheese', 'src': '/static/foodstim60/mac & cheese.jpg', 'key': 'NaN', 'origWidth': 410, 'origHeight': 410, 'width': 410, 'height': 410, 'widthPercent': 0.8, 'rescaleHeight': True, 'trialN': 30, 'loaded': True, 'loadedTime': 3460, 'positionName': 'CENTER', 'positionCoords': [475, 179]}]",Rate how much you want to eat this food from 0 (least) to 10 (most).,71316,1669844156600,mac & cheese,2073,True,3.5700000000000003,73389,2073,True,HRV,HRV_0310,2022-11-30 21:37:01
31,"[{'imgObject': {}, 'id': 'burrito', 'src': '/static/foodstim60/burrito.jpg', 'key': 'NaN', 'origWidth': 410, 'origHeight': 410, 'width': 410, 'height': 410, 'widthPercent': 0.8, 'rescaleHeight': True, 'trialN': 31, 'loaded': True, 'loadedTime': 3461, 'positionName': 'CENTER', 'positionCoords': [475, 179]}]",Rate how much you want to eat this food from 0 (least) to 10 (most).,73401,1669844158686,burrito,1722,True,3.41,75123,1722,True,HRV,HRV_0310,2022-11-30 21:37:01
32,"[{'imgObject': {}, 'id': 'eggsalad', 'src': '/static/foodstim60/eggsalad.jpg', 'key': 'NaN', 'origWidth': 410, 'origHeight': 409, 'width': 410, 'height': 409, 'widthPercent': 0.8, 'rescaleHeight': True, 'trialN': 32, 'loaded': True, 'loadedTime': 3462, 'positionName': 'CENTER', 'positionCoords': [475, 179.5]}]",Rate how much you want to eat this food from 0 (least) to 10 (most).,75136,1669844160420,eggsalad,2769,True,4.83,77905,2769,True,HRV,HRV_0310,2022-11-30 21:37:01
33,"[{'imgObject': {}, 'id': 'omelette', 'src': '/static/foodstim60/omelette.jpg', 'key': 'NaN', 'origWidth': 410, 'origHeight': 409, 'width': 410, 'height': 409, 'widthPercent': 0.8, 'rescaleHeight': True, 'trialN': 33, 'loaded': True, 'loadedTime': 3463, 'positionName': 'CENTER', 'positionCoords': [475, 179.5]}]",Rate how much you want to eat this food from 0 (least) to 10 (most).,77911,1669844163195,omelette,1666,True,4.88,79577,1666,True,HRV,HRV_0310,2022-11-30 21:37:01
34,"[{'imgObject': {}, 'id': 'salad w chicken', 'src': '/static/foodstim60/salad w chicken.jpg', 'key': 'NaN', 'origWidth': 411, 'origHeight': 411, 'width': 411, 'height': 411, 'widthPercent': 0.8, 'rescaleHeight': True, 'trialN': 34, 'loaded': True, 'loadedTime': 3464, 'positionName': 'CENTER', 'positionCoords': [474.5, 178.5]}]",Rate how much you want to eat this food from 0 (least) to 10 (most).,79594,1669844164880,salad w chicken,2609,True,5.47,82203,2609,True,HRV,HRV_0310,2022-11-30 21:37:01
35,"[{'imgObject': {}, 'id': 'grilled chicken strips', 'src': '/static/foodstim60/grilled chicken strips.jpg', 'key': 'NaN', 'origWidth': 410, 'origHeight': 411, 'width': 410, 'height': 411, 'widthPercent': 0.8, 'rescaleHeight': True, 'trialN': 35, 'loaded': True, 'loadedTime': 3465, 'positionName': 'CENTER', 'positionCoords': [475, 178.5]}]",Rate how much you want to eat this food from 0 (least) to 10 (most).,82205,1669844167490,grilled chicken strips,1622,True,5.75,83827,1622,True,HRV,HRV_0310,2022-11-30 21:37:01
36,"[{'imgObject': {}, 'id': 'turkeysandwich', 'src': '/static/foodstim60/turkeysandwich.jpg', 'key': 'NaN', 'origWidth': 409, 'origHeight': 409, 'width': 409, 'height': 409, 'widthPercent': 0.8, 'rescaleHeight': True, 'trialN': 36, 'loaded': True, 'loadedTime': 3466, 'positionName': 'CENTER', 'positionCoords': [475.5, 179.5]}]",Rate how much you want to eat this food from 0 (least) to 10 (most).,83850,1669844169136,turkeysandwich,1711,True,6.2700000000000005,85561,1711,True,HRV,HRV_0310,2022-11-30 21:37:01
37,"[{'imgObject': {}, 'id': 'froot loops w milk', 'src': '/static/foodstim60/froot loops w milk.jpg', 'key': 'NaN', 'origWidth': 410, 'origHeight': 410, 'width': 410, 'height': 410, 'widthPercent': 0.8, 'rescaleHeight': True, 'trialN': 37, 'loaded': True, 'loadedTime': 3466, 'positionName': 'CENTER', 'positionCoords': [475, 179]}]",Rate how much you want to eat this food from 0 (least) to 10 (most).,85589,1669844170874,froot loops w milk,1457,True,5.79,87046,1457,True,HRV,HRV_0310,2022-11-30 21:37:01
38,"[{'imgObject': {}, 'id': 'lox', 'src': '/static/foodstim60/lox.jpg', 'key': 'NaN', 'origWidth': 410, 'origHeight': 411, 'width': 410, 'height': 411, 'widthPercent': 0.8, 'rescaleHeight': True, 'trialN': 38, 'loaded': True, 'loadedTime': 3467, 'positionName': 'CENTER', 'positionCoords': [475, 178.5]}]",Rate how much you want to eat this food from 0 (least) to 10 (most).,87052,1669844172337,lox,1743,True,3.64,88795,1743,True,HRV,HRV_0310,2022-11-30 21:37:01
39,"[{'imgObject': {}, 'id': 'rigatoni and sauce', 'src': '/static/foodstim60/rigatoni and sauce.jpg', 'key': 'NaN', 'origWidth': 410, 'origHeight': 411, 'width': 410, 'height': 411, 'widthPercent': 0.8, 'rescaleHeight': True, 'trialN': 39, 'loaded': True, 'loadedTime': 3468, 'positionName': 'CENTER', 'positionCoords': [475, 178.5]}]",Rate how much you want to eat this food from 0 (least) to 10 (most).,88814,1669844174100,rigatoni and sauce,1545,True,5.64,90359,1545,True,HRV,HRV_0310,2022-11-30 21:37:01
40,"[{'imgObject': {}, 'id': 'yogurt no spoon', 'src': '/static/foodstim60/yogurt no spoon.jpg', 'key': 'NaN', 'origWidth': 411, 'origHeight': 410, 'width': 411, 'height': 410, 'widthPercent': 0.8, 'rescaleHeight': True, 'trialN': 40, 'loaded': True, 'loadedTime': 3469, 'positionName': 'CENTER', 'positionCoords': [474.5, 179]}]",Rate how much you want to eat this food from 0 (least) to 10 (most).,90389,1669844175674,yogurt no spoon,5157,True,4.91,95546,5157,True,HRV,HRV_0310,2022-11-30 21:37:01
41,"[{'imgObject': {}, 'id': 'fried eggs', 'src': '/static/foodstim60/fried eggs.jpg', 'key': 'NaN', 'origWidth': 410, 'origHeight': 410, 'width': 410, 'height': 410, 'widthPercent': 0.8, 'rescaleHeight': True, 'trialN': 41, 'loaded': True, 'loadedTime': 3470, 'positionName': 'CENTER', 'positionCoords': [475, 179]}]",Rate how much you want to eat this food from 0 (least) to 10 (most).,95556,1669844180841,fried eggs,1583,True,2.35,97139,1583,True,HRV,HRV_0310,2022-11-30 21:37:01
42,"[{'imgObject': {}, 'id': 'cocktailshrimp', 'src': '/static/foodstim60/cocktailshrimp.jpg', 'key': 'NaN', 'origWidth': 410, 'origHeight': 410, 'width': 410, 'height': 410, 'widthPercent': 0.8, 'rescaleHeight': True, 'trialN': 42, 'loaded': True, 'loadedTime': 3471, 'positionName': 'CENTER', 'positionCoords': [475, 179]}]",Rate how much you want to eat this food from 0 (least) to 10 (most).,97156,1669844182441,cocktailshrimp,1500,True,4.97,98656,1500,True,HRV,HRV_0310,2022-11-30 21:37:01
43,"[{'imgObject': {}, 'id': 'fruitsalad', 'src': '/static/foodstim60/fruitsalad.jpg', 'key': 'NaN', 'origWidth': 410, 'origHeight': 410, 'width': 410, 'height': 410, 'widthPercent': 0.8, 'rescaleHeight': True, 'trialN': 43, 'loaded': True, 'loadedTime': 3472, 'positionName': 'CENTER', 'positionCoords': [475, 179]}]",Rate how much you want to eat this food from 0 (least) to 10 (most).,98674,1669844183959,fruitsalad,3263,True,9.83,101937,3263,True,HRV,HRV_0310,2022-11-30 21:37:01
44,"[{'imgObject': {}, 'id': 'blackbeanswithrice', 'src': '/static/foodstim60/blackbeanswithrice.jpg', 'key': 'NaN', 'origWidth': 410, 'origHeight': 410, 'width': 410, 'height': 410, 'widthPercent': 0.8, 'rescaleHeight': True, 'trialN': 44, 'loaded': True, 'loadedTime': 3474, 'positionName': 'CENTER', 'positionCoords': [475, 179]}]",Rate how much you want to eat this food from 0 (least) to 10 (most).,101955,1669844187240,blackbeanswithrice,1654,True,3.17,103609,1654,True,HRV,HRV_0310,2022-11-30 21:37:01
45,"[{'imgObject': {}, 'id': 'cherry tomato', 'src': '/static/foodstim60/cherry tomato.jpg', 'key': 'NaN', 'origWidth': 410, 'origHeight': 410, 'width': 410, 'height': 410, 'widthPercent': 0.8, 'rescaleHeight': True, 'trialN': 45, 'loaded': True, 'loadedTime': 3474, 'positionName': 'CENTER', 'positionCoords': [475, 179]}]",Rate how much you want to eat this food from 0 (least) to 10 (most).,103619,1669844188904,cherry tomato,2145,True,0.51,105764,2145,True,HRV,HRV_0310,2022-11-30 21:37:01
46,"[{'imgObject': {}, 'id': 'olives', 'src': '/static/foodstim60/olives.jpg', 'key': 'NaN', 'origWidth': 410, 'origHeight': 410, 'width': 410, 'height': 410, 'widthPercent': 0.8, 'rescaleHeight': True, 'trialN': 46, 'loaded': True, 'loadedTime': 3475, 'positionName': 'CENTER', 'positionCoords': [475, 179]}]",Rate how much you want to eat this food from 0 (least) to 10 (most).,105779,1669844191064,olives,4658,True,0.63,110437,4658,True,HRV,HRV_0310,2022-11-30 21:37:01
47,"[{'imgObject': {}, 'id': 'hotdog w must', 'src': '/static/foodstim60/hotdog w must.jpg', 'key': 'NaN', 'origWidth': 409, 'origHeight': 409, 'width': 409, 'height': 409, 'widthPercent': 0.8, 'rescaleHeight': True, 'trialN': 47, 'loaded': True, 'loadedTime': 3476, 'positionName': 'CENTER', 'positionCoords': [475.5, 179.5]}]",Rate how much you want to eat this food from 0 (least) to 10 (most).,110451,1669844195736,hotdog w must,1642,True,2.61,112093,1642,True,HRV,HRV_0310,2022-11-30 21:37:01
48,"[{'imgObject': {}, 'id': 'mashed potato', 'src': '/static/foodstim60/mashed potato.jpg', 'key': 'NaN', 'origWidth': 409, 'origHeight': 409, 'width': 409, 'height': 409, 'widthPercent': 0.8, 'rescaleHeight': True, 'trialN': 48, 'loaded': True, 'loadedTime': 3477, 'positionName': 'CENTER', 'positionCoords': [475.5, 179.5]}]",Rate how much you want to eat this food from 0 (least) to 10 (most).,112105,1669844197390,mashed potato,1675,True,2.94,113780,1675,True,HRV,HRV_0310,2022-11-30 21:37:01
49,"[{'imgObject': {}, 'id': 'turkey sandwich', 'src': '/static/foodstim60/turkey sandwich.jpg', 'key': 'NaN', 'origWidth': 409, 'origHeight': 409, 'width': 409, 'height': 409, 'widthPercent': 0.8, 'rescaleHeight': True, 'trialN': 49, 'loaded': True, 'loadedTime': 3477, 'positionName': 'CENTER', 'positionCoords': [475.5, 179.5]}]",Rate how much you want to eat this food from 0 (least) to 10 (most).,113796,1669844199082,turkey sandwich,1610,True,7.04,115406,1610,True,HRV,HRV_0310,2022-11-30 21:37:01
50,"[{'imgObject': {}, 'id': 'banana', 'src': '/static/foodstim60/banana.jpg', 'key': 'NaN', 'origWidth': 410, 'origHeight': 410, 'width': 410, 'height': 410, 'widthPercent': 0.8, 'rescaleHeight': True, 'trialN': 50, 'loaded': True, 'loadedTime': 3479, 'positionName': 'CENTER', 'positionCoords': [475, 179]}]",Rate how much you want to eat this food from 0 (least) to 10 (most).,115426,1669844200710,banana,1916,True,5.76,117342,1916,True,HRV,HRV_0310,2022-11-30 21:37:01
51,"[{'imgObject': {}, 'id': 'avocado', 'src': '/static/foodstim60/avocado.jpg', 'key': 'NaN', 'origWidth': 409, 'origHeight': 409, 'width': 409, 'height': 409, 'widthPercent': 0.8, 'rescaleHeight': True, 'trialN': 51, 'loaded': True, 'loadedTime': 3479, 'positionName': 'CENTER', 'positionCoords': [475.5, 179.5]}]",Rate how much you want to eat this food from 0 (least) to 10 (most).,117357,1669844202642,avocado,1549,True,1.1300000000000001,118906,1549,True,HRV,HRV_0310,2022-11-30 21:37:01
52,"[{'imgObject': {}, 'id': 'bagel plain', 'src': '/static/foodstim60/bagel plain.jpg', 'key': 'NaN', 'origWidth': 410, 'origHeight': 410, 'width': 410, 'height': 410, 'widthPercent': 0.8, 'rescaleHeight': True, 'trialN': 52, 'loaded': True, 'loadedTime': 3480, 'positionName': 'CENTER', 'positionCoords': [475, 179]}]",Rate how much you want to eat this food from 0 (least) to 10 (most).,118935,1669844204220,bagel plain,2049,True,0.8300000000000001,120984,2049,True,HRV,HRV_0310,2022-11-30 21:37:01
53,"[{'imgObject': {}, 'id': 'chickenfingers', 'src': '/static/foodstim60/chickenfingers.jpg', 'key': 'NaN', 'origWidth': 410, 'origHeight': 410, 'width': 410, 'height': 410, 'widthPercent': 0.8, 'rescaleHeight': True, 'trialN': 53, 'loaded': True, 'loadedTime': 3481, 'positionName': 'CENTER', 'positionCoords': [475, 179]}]",Rate how much you want to eat this food from 0 (least) to 10 (most).,120995,1669844206279,chickenfingers,2395,True,6.51,123390,2395,True,HRV,HRV_0310,2022-11-30 21:37:01
54,"[{'imgObject': {}, 'id': 'cherries', 'src': '/static/foodstim60/cherries.jpg', 'key': 'NaN', 'origWidth': 410, 'origHeight': 411, 'width': 410, 'height': 411, 'widthPercent': 0.8, 'rescaleHeight': True, 'trialN': 54, 'loaded': True, 'loadedTime': 3482, 'positionName': 'CENTER', 'positionCoords': [475, 178.5]}]",Rate how much you want to eat this food from 0 (least) to 10 (most).,123401,1669844208687,cherries,1770,True,1.95,125171,1770,True,HRV,HRV_0310,2022-11-30 21:37:01
55,"[{'imgObject': {}, 'id': 'Grapes', 'src': '/static/foodstim60/Grapes.jpg', 'key': 'NaN', 'origWidth': 411, 'origHeight': 411, 'width': 411, 'height': 411, 'widthPercent': 0.8, 'rescaleHeight': True, 'trialN': 55, 'loaded': True, 'loadedTime': 3483, 'positionName': 'CENTER', 'positionCoords': [474.5, 178.5]}]",Rate how much you want to eat this food from 0 (least) to 10 (most).,125189,1669844210475,Grapes,1419,True,6.140000000000001,126608,1419,True,HRV,HRV_0310,2022-11-30 21:37:01
56,"[{'imgObject': {}, 'id': 'shreddedwheatwithmilk', 'src': '/static/foodstim60/shreddedwheatwithmilk.jpg', 'key': 'NaN', 'origWidth': 410, 'origHeight': 410, 'width': 410, 'height': 410, 'widthPercent': 0.8, 'rescaleHeight': True, 'trialN': 56, 'loaded': True, 'loadedTime': 3485, 'positionName': 'CENTER', 'positionCoords': [475, 179]}]",Rate how much you want to eat this food from 0 (least) to 10 (most).,126628,1669844211912,shreddedwheatwithmilk,3824,True,4.58,130452,3824,True,HRV,HRV_0310,2022-11-30 21:37:01
57,"[{'imgObject': {}, 'id': 'blueberries', 'src': '/static/foodstim60/blueberries.jpg', 'key': 'NaN', 'origWidth': 411, 'origHeight': 411, 'width': 411, 'height': 411, 'widthPercent': 0.8, 'rescaleHeight': True, 'trialN': 57, 'loaded': True, 'loadedTime': 3486, 'positionName': 'CENTER', 'positionCoords': [474.5, 178.5]}]",Rate how much you want to eat this food from 0 (least) to 10 (most).,130455,1669844215741,blueberries,1810,True,5.1000000000000005,132265,1810,True,HRV,HRV_0310,2022-11-30 21:37:01
58,"[{'imgObject': {}, 'id': 'popsicles', 'src': '/static/foodstim60/popsicles.jpg', 'key': 'NaN', 'origWidth': 410, 'origHeight': 410, 'width': 410, 'height': 410, 'widthPercent': 0.8, 'rescaleHeight': True, 'trialN': 58, 'loaded': True, 'loadedTime': 3486, 'positionName': 'CENTER', 'positionCoords': [475, 179]}]",Rate how much you want to eat this food from 0 (least) to 10 (most).,132282,1669844217567,popsicles,2264,True,1.94,134546,2264,True,HRV,HRV_0310,2022-11-30 21:37:01
59,"[{'imgObject': {}, 'id': 'orange slices', 'src': '/static/foodstim60/orange slices.jpg', 'key': 'NaN', 'origWidth': 409, 'origHeight': 410, 'width': 409, 'height': 410, 'widthPercent': 0.8, 'rescaleHeight': True, 'trialN': 59, 'loaded': True, 'loadedTime': 3487, 'positionName': 'CENTER', 'positionCoords': [475.5, 179]}]",Rate how much you want to eat this food from 0 (least) to 10 (most).,134561,1669844219846,orange slices,3125,True,1.72,137686,3125,True,HRV,HRV_0310,2022-11-30 21:37:01
