success,trial_type,trial_index,time_elapsed,internal_node_id,Block,TrialNumber,TrialTime,trialTimeDiff,FPS_avg,FPS_med,FPS_mode,TrialDur,winResizeTime,rt,block,button_pressed,MotCoh,MotDir,ColCoh,Color,ChoiceKey,Choice,Accuracy,RT,nFrames,FPS,PPD,missTrial,missTrialMsg,onsetDelay,fullScreenExitTime,canvCenter,TrialType,Score,BlockTrial,stimulus,button_labels,exp,subjectId,date
True,fullscreen,0,4855,0.0-0.0,0.0,1.0,,,,,,,,,,,,,,,,,,,,,,,,,,,,,,,,HRV,HRV_0310,2022-11-30 22:13:22
,wl-check-fps,1,9849,0.0-1.0,0.0,2.0,"[5162.2, 5171, 5187.7, 5204.3, 5221, 5237.7, 5254.4, 5271, 5287.7, 5304.3, 5320.9, 5337.6, 5354.2, 5371, 5387.7, 5404.3, 5420.9, 5437.6, 5454.2, 5471, 5487.6, 5504.3, 5520.9, 5537.6, 5554.3, 5570.9, 5587.5, 5604.2, 5620.9, 5637.5, 5654.2, 5670.9, 5687.5, 5704.2, 5720.7, 5737.4, 5754.2, 5770.9, 5787.5, 5804.3, 5820.9, 5837.5, 5854.2, 5870.9, 5887.5, 5904.1, 5920.8, 5937.6, 5954, 5970.8, 5987.4, 6004.2, 6020.9, 6037.5, 6054.2, 6070.8, 6087.5, 6104.2, 6120.9, 6137.4, 6154.1, 6170.7, 6187.4, 6204, 6220.8, 6238.1, 6254, 6270.7, 6287.3, 6304.1, 6320.7, 6337.4, 6354, 6370.7, 6387.4, 6404, 6420.7, 6437.2, 6454, 6470.6, 6487.3, 6504, 6520.7, 6537.2, 6553.9, 6570.6, 6587.2, 6603.8, 6620.6, 6637.2, 6653.9, 6670.6, 6687.2, 6703.8, 6720.5, 6737.2, 6753.9, 6770.6, 6787.3, 6803.8, 6820.5, 6837.2, 6853.9, 6870.6, 6887.2, 6903.9, 6920.6, 6937.2, 6953.9, 6970.6, 6987.2, 7003.9, 7020.6, 7037.3, 7053.8, 7070.5, 7087.2, 7103.9, 7120.5, 7137.2, 7153.9, 7170.5, 7187, 7203.8, 7220.5, 7237.1, 7253.8, 7270.5, 7287.1, 7303.8, 7320.5, 7337.1, 7353.7, 7370.4, 7387.1, 7403.7, 7420.3, 7437.1, 7453.7, 7470.4, 7487.1, 7503.7, 7520.4, 7537, 7553.8, 7570.4, 7587, 7603.7, 7620.4, 7637.1, 7653.7, 7670.4, 7687.1, 7703.7, 7720.3, 7737, 7753.7, 7770.3, 7787, 7803.7, 7820.3, 7836.9, 7853.7, 7870.2, 7886.9, 7903.6, 7920.3, 7936.9, 7953.6, 7970.2, 7986.9, 8003.5, 8020.2, 8037, 8053.6, 8070.2, 8086.9, 8103.6, 8120.2, 8136.9, 8153.6, 8170.2, 8186.9, 8203.7, 8220.2, 8236.9, 8253.6, 8270.2, 8286.9, 8303.4, 8320.2, 8336.9, 8353.6, 8370.1, 8386.8, 8403.5, 8420.1, 8436.9, 8453.5, 8470.1, 8486.8, 8503.5, 8520.1, 8536.7, 8553.4, 8570.2, 8586.7, 8603.5, 8620.1, 8636.7, 8653.5, 8670.1, 8686.7, 8703.4, 8720, 8736.7, 8753.5, 8770.1, 8786.7, 8803.8, 8820.1, 8836.8, 8853.4, 8870.1, 8886.7, 8903.4, 8920.1, 8936.7, 8953.3, 8970, 8986.6, 9003.4, 9020, 9036.7, 9053.3, 9069.9, 9086.7, 9103.3, 9120, 9136.6, 9153.3, 9169.9, 9186.6, 9203.3, 9220, 9236.6, 9253.3, 9270, 9286.6, 9303.3, 9319.9, 9336.7, 9353.2, 9369.9, 9386.5, 9403.2, 9419.8, 9436.6, 9453.2, 9469.9, 9486.6, 9503.1, 9519.8, 9536.5, 9553.2, 9570, 9586.5, 9603.3, 9619.9, 9636.5, 9653.1, 9669.9, 9686.4, 9703.3, 9719.9, 9736.5, 9753.1, 9769.8, 9786.5, 9803.1, 9819.8, 9836.4, 9853.1, 9869.8, 9886.4, 9903, 9919.7, 9936.4, 9953, 9969.9, 9986.5, 10003.2, 10019.7, 10036.4, 10053.1, 10069.7, 10086.4, 10103, 10119.6, 10136.4]","[1.3, 8.8, 16.7, 16.6, 16.7, 16.7, 16.7, 16.6, 16.7, 16.6, 16.6, 16.7, 16.6, 16.8, 16.7, 16.6, 16.6, 16.7, 16.6, 16.8, 16.6, 16.7, 16.6, 16.7, 16.7, 16.6, 16.6, 16.7, 16.7, 16.6, 16.7, 16.7, 16.6, 16.7, 16.5, 16.7, 16.8, 16.7, 16.6, 16.8, 16.6, 16.6, 16.7, 16.7, 16.6, 16.6, 16.7, 16.8, 16.4, 16.8, 16.6, 16.8, 16.7, 16.6, 16.7, 16.6, 16.7, 16.7, 16.7, 16.5, 16.7, 16.6, 16.7, 16.6, 16.8, 17.3, 15.9, 16.7, 16.6, 16.8, 16.6, 16.7, 16.6, 16.7, 16.7, 16.6, 16.7, 16.5, 16.8, 16.6, 16.7, 16.7, 16.7, 16.5, 16.7, 16.7, 16.6, 16.6, 16.8, 16.6, 16.7, 16.7, 16.6, 16.6, 16.7, 16.7, 16.7, 16.7, 16.7, 16.5, 16.7, 16.7, 16.7, 16.7, 16.6, 16.7, 16.7, 16.6, 16.7, 16.7, 16.6, 16.7, 16.7, 16.7, 16.5, 16.7, 16.7, 16.7, 16.6, 16.7, 16.7, 16.6, 16.5, 16.8, 16.7, 16.6, 16.7, 16.7, 16.6, 16.7, 16.7, 16.6, 16.6, 16.7, 16.7, 16.6, 16.6, 16.8, 16.6, 16.7, 16.7, 16.6, 16.7, 16.6, 16.8, 16.6, 16.6, 16.7, 16.7, 16.7, 16.6, 16.7, 16.7, 16.6, 16.6, 16.7, 16.7, 16.6, 16.7, 16.7, 16.6, 16.6, 16.8, 16.5, 16.7, 16.7, 16.7, 16.6, 16.7, 16.6, 16.7, 16.6, 16.7, 16.8, 16.6, 16.6, 16.7, 16.7, 16.6, 16.7, 16.7, 16.6, 16.7, 16.8, 16.5, 16.7, 16.7, 16.6, 16.7, 16.5, 16.8, 16.7, 16.7, 16.5, 16.7, 16.7, 16.6, 16.8, 16.6, 16.6, 16.7, 16.7, 16.6, 16.6, 16.7, 16.8, 16.5, 16.8, 16.6, 16.6, 16.8, 16.6, 16.6, 16.7, 16.6, 16.7, 16.8, 16.6, 16.6, 17.1, 16.3, 16.7, 16.6, 16.7, 16.6, 16.7, 16.7, 16.6, 16.6, 16.7, 16.6, 16.8, 16.6, 16.7, 16.6, 16.6, 16.8, 16.6, 16.7, 16.6, 16.7, 16.6, 16.7, 16.7, 16.7, 16.6, 16.7, 16.7, 16.6, 16.7, 16.6, 16.8, 16.5, 16.7, 16.6, 16.7, 16.6, 16.8, 16.6, 16.7, 16.7, 16.5, 16.7, 16.7, 16.7, 16.8, 16.5, 16.8, 16.6, 16.6, 16.6, 16.8, 16.5, 16.9, 16.6, 16.6, 16.6, 16.7, 16.7, 16.6, 16.7, 16.6, 16.7, 16.7, 16.6, 16.6, 16.7, 16.7, 16.6, 16.9, 16.6, 16.7, 16.5, 16.7, 16.7, 16.6, 16.7, 16.6, 16.6, 16.8]",60.0,60.0,60.0,4992.1,[],,,,,,,,,,,,,,,,,,,,,,,,,HRV,HRV_0310,2022-11-30 22:13:22
,wl-html-keyboard-response,2,48067,0.0-2.0-0.0,0.0,3.0,,,,,,,,36208.20000000112,0.0,0,,,,,,,,,,,,,,,,,,,,,,HRV,HRV_0310,2022-11-30 22:13:22
,wl-rdm,3,55636,0.0-3.0-0.0,0.0,4.0,,,,,,,[],,,,0.0,0.0,87.9,0.0,u,0.0,True,1976.0999999977648,119.0,60.0,40.0,False,,3000.0,[],"[680, 384]",ColorTask_Demo,,,,,HRV,HRV_0310,2022-11-30 22:13:22
,wl-rdm,4,60619,0.0-3.0-1.0,0.0,5.0,,,,,,,[],,,,0.0,0.0,87.9,1.0,i,1.0,True,883.8000000026077,54.0,60.0,40.0,False,,2000.0,[],"[680, 384]",ColorTask_Demo,,,,,HRV,HRV_0310,2022-11-30 22:13:22
,wl-html-keyboard-response,5,70554,0.0-3.0-2.0,0.0,6.0,,,,,,,,7932.89999999851,0.0,1,,,,,,,,,,,,,,,,,,,,,,HRV,HRV_0310,2022-11-30 22:13:22
,wl-html-keyboard-response,6,90962,0.0-4.0-0.0,0.0,7.0,,,,,,,,18405.199999999255,0.0,0,,,,,,,,,,,,,,,,,,,,,,HRV,HRV_0310,2022-11-30 22:13:22
,wl-html-keyboard-response,7,121346,0.0-5.0-0.0,0.0,8.0,,,,,,,,28381.299999998882,0.0,0,,,,,,,,,,,,,,,,,,,,,,HRV,HRV_0310,2022-11-30 22:13:22
,wl-rdm,8,125669,0.0-6.0-0.0,0.0,8.0,,,,,,,[],,,,,,50.0,0.0,,,,,179.0,60.0,40.0,True,RT_timeout ,233.1520902444911,[],"[680, 384]",ColorTask,-1.0,1.0,,,HRV,HRV_0310,2022-11-30 22:13:22
,wl-rdm,9,128135,0.0-6.1-0.1,0.0,9.0,,,,,,,[],,,,,,87.9,1.0,i,1.0,True,1170.0,71.0,60.0,40.0,False,,215.3880047960942,[],"[680, 384]",ColorTask,0.0,2.0,,,HRV,HRV_0310,2022-11-30 22:13:22
,wl-rdm,10,130768,0.0-6.2-0.2,0.0,10.0,,,,,,,[],,,,,,56.4,0.0,u,0.0,True,1339.9000000003725,81.0,60.0,40.0,False,,202.84716958860906,[],"[680, 384]",ColorTask,1.0,3.0,,,HRV,HRV_0310,2022-11-30 22:13:22
,wl-rdm,11,133517,0.0-6.3-0.3,0.0,11.0,,,,,,,[],,,,,,56.4,0.0,i,1.0,False,1332.9000000003725,80.0,60.0,40.0,False,,338.57096835620274,[],"[680, 384]",ColorTask,0.0,4.0,,,HRV,HRV_0310,2022-11-30 22:13:22
,wl-rdm,12,135684,0.0-6.4-0.4,0.0,12.0,,,,,,,[],,,,,,87.9,1.0,i,1.0,True,818.7999999988824,50.0,60.0,40.0,False,,251.92935338308683,[],"[680, 384]",ColorTask,1.0,5.0,,,HRV,HRV_0310,2022-11-30 22:13:22
,wl-rdm,13,137983,0.0-6.5-0.5,0.0,13.0,,,,,,,[],,,,,,62.5,1.0,i,1.0,True,966.0,58.0,60.0,40.0,False,,263.07885472029784,[],"[680, 384]",ColorTask,2.0,6.0,,,HRV,HRV_0310,2022-11-30 22:13:22
,wl-rdm,14,140382,0.0-6.6-0.6,0.0,14.0,,,,,,,[],,,,,,62.5,0.0,u,0.0,True,1059.6000000014901,64.0,60.0,40.0,False,,263.61808109608523,[],"[680, 384]",ColorTask,3.0,7.0,,,HRV,HRV_0310,2022-11-30 22:13:22
,wl-rdm,15,142582,0.0-6.7-0.7,0.0,15.0,,,,,,,[],,,,,,73.6,0.0,u,0.0,True,835.1999999992549,51.0,60.0,40.0,False,,270.57407346580965,[],"[680, 384]",ColorTask,4.0,8.0,,,HRV,HRV_0310,2022-11-30 22:13:22
,wl-rdm,16,144731,0.0-6.8-0.8,0.0,16.0,,,,,,,[],,,,,,62.5,1.0,i,1.0,True,755.5999999996275,46.0,60.0,40.0,False,,302.12638268636647,[],"[680, 384]",ColorTask,5.0,9.0,,,HRV,HRV_0310,2022-11-30 22:13:22
,wl-rdm,17,146881,0.0-6.9-0.9,0.0,17.0,,,,,,,[],,,,,,53.2,0.0,i,1.0,False,741.3999999985099,45.0,60.0,40.0,False,,323.6104492995796,[],"[680, 384]",ColorTask,4.0,10.0,,,HRV,HRV_0310,2022-11-30 22:13:22
,wl-rdm,18,149263,0.0-6.10-0.10,0.0,18.0,,,,,,,[],,,,,,50.0,1.0,i,1.0,True,900.5999999996275,55.0,60.0,40.0,False,,395.0575518902681,[],"[680, 384]",ColorTask,5.0,11.0,,,HRV,HRV_0310,2022-11-30 22:13:22
,wl-rdm,19,151563,0.0-6.11-0.11,0.0,19.0,,,,,,,[],,,,,,73.6,1.0,i,1.0,True,847.2000000011176,51.0,60.0,40.0,False,,367.995404662989,[],"[680, 384]",ColorTask,6.0,12.0,,,HRV,HRV_0310,2022-11-30 22:13:22
,wl-rdm,20,154262,0.0-6.12-0.12,0.0,20.0,,,,,,,[],,,,,,53.2,0.0,i,1.0,False,1313.3999999985099,79.0,60.0,40.0,False,,310.93330084833514,[],"[680, 384]",ColorTask,5.0,13.0,,,HRV,HRV_0310,2022-11-30 22:13:22
,wl-rdm,21,156495,0.0-6.13-0.13,0.0,21.0,,,,,,,[],,,,,,50.0,0.0,u,0.0,True,880.5,53.0,60.0,40.0,False,,271.8805550622191,[],"[680, 384]",ColorTask,6.0,14.0,,,HRV,HRV_0310,2022-11-30 22:13:22
,wl-rdm,22,158944,0.0-6.14-0.14,0.0,22.0,,,,,,,[],,,,,,56.4,0.0,i,1.0,False,1069.9000000022352,65.0,60.0,40.0,False,,297.318659176751,[],"[680, 384]",ColorTask,5.0,15.0,,,HRV,HRV_0310,2022-11-30 22:13:22
,wl-rdm,23,161194,0.0-6.15-0.15,0.0,23.0,,,,,,,[],,,,,,73.6,0.0,u,0.0,True,902.9999999981374,55.0,60.0,40.0,False,,260.300749958839,[],"[680, 384]",ColorTask,6.0,16.0,,,HRV,HRV_0310,2022-11-30 22:13:22
,wl-rdm,24,163477,0.0-6.16-0.16,0.0,24.0,,,,,,,[],,,,,,50.0,0.0,i,1.0,False,830.9000000003725,50.0,60.0,40.0,False,,377.3545603407749,[],"[680, 384]",ColorTask,5.0,17.0,,,HRV,HRV_0310,2022-11-30 22:13:22
,wl-rdm,25,165743,0.0-6.17-0.17,0.0,25.0,,,,,,,[],,,,,,73.6,0.0,u,0.0,True,950.2999999988824,58.0,60.0,40.0,False,,225.50662727687455,[],"[680, 384]",ColorTask,6.0,18.0,,,HRV,HRV_0310,2022-11-30 22:13:22
,wl-rdm,26,168126,0.0-6.18-0.18,0.0,26.0,,,,,,,[],,,,,,50.0,1.0,i,1.0,True,1012.2999999988824,61.0,60.0,40.0,False,,298.20646203553736,[],"[680, 384]",ColorTask,7.0,19.0,,,HRV,HRV_0310,2022-11-30 22:13:22
,wl-rdm,27,170558,0.0-6.19-0.19,0.0,27.0,,,,,,,[],,,,,,62.5,0.0,u,0.0,True,1113.5,67.0,60.0,40.0,False,,236.8740268083374,[],"[680, 384]",ColorTask,8.0,20.0,,,HRV,HRV_0310,2022-11-30 22:13:22
,wl-rdm,28,172741,0.0-6.20-0.20,0.0,28.0,,,,,,,[],,,,,,50.0,1.0,i,1.0,True,887.1999999992549,54.0,60.0,40.0,False,,201.60707259489027,[],"[680, 384]",ColorTask,9.0,21.0,,,HRV,HRV_0310,2022-11-30 22:13:22
,wl-rdm,29,174974,0.0-6.21-0.21,0.0,29.0,,,,,,,[],,,,,,73.6,1.0,i,1.0,True,887.5,54.0,60.0,40.0,False,,254.08521164304744,[],"[680, 384]",ColorTask,10.0,22.0,,,HRV,HRV_0310,2022-11-30 22:13:22
,wl-rdm,30,177206,0.0-6.22-0.22,0.0,30.0,,,,,,,[],,,,,,87.9,1.0,i,1.0,True,787.7000000011176,48.0,60.0,40.0,False,,358.8403444546089,[],"[680, 384]",ColorTask,11.0,23.0,,,HRV,HRV_0310,2022-11-30 22:13:22
,wl-rdm,31,179556,0.0-6.23-0.23,0.0,31.0,,,,,,,[],,,,,,62.5,1.0,i,1.0,True,925.6000000014901,56.0,60.0,40.0,False,,342.3541072886875,[],"[680, 384]",ColorTask,12.0,24.0,,,HRV,HRV_0310,2022-11-30 22:13:22
,wl-rdm,32,182089,0.0-6.24-0.24,0.0,32.0,,,,,,,[],,,,,,73.6,1.0,i,1.0,True,1145.3999999985099,69.0,60.0,40.0,False,,310.373702540803,[],"[680, 384]",ColorTask,13.0,25.0,,,HRV,HRV_0310,2022-11-30 22:13:22
,wl-rdm,33,184555,0.0-6.25-0.25,0.0,33.0,,,,,,,[],,,,,,73.6,1.0,i,1.0,True,1067.800000000745,65.0,60.0,40.0,False,,306.62556034226,[],"[680, 384]",ColorTask,14.0,26.0,,,HRV,HRV_0310,2022-11-30 22:13:22
,wl-rdm,34,186821,0.0-6.26-0.26,0.0,34.0,,,,,,,[],,,,,,56.4,0.0,u,0.0,True,907.3000000007451,55.0,60.0,40.0,False,,268.9302090948034,[],"[680, 384]",ColorTask,15.0,27.0,,,HRV,HRV_0310,2022-11-30 22:13:22
,wl-rdm,35,189420,0.0-6.27-0.27,0.0,35.0,,,,,,,[],,,,,,50.0,1.0,i,1.0,True,1305.3999999985099,79.0,60.0,40.0,False,,206.6633232670721,[],"[680, 384]",ColorTask,16.0,28.0,,,HRV,HRV_0310,2022-11-30 22:13:22
,wl-rdm,36,192219,0.0-6.28-0.28,0.0,36.0,,,,,,,[],,,,,,50.0,1.0,i,1.0,True,1487.7000000011176,90.0,60.0,40.0,False,,220.8312814622456,[],"[680, 384]",ColorTask,17.0,29.0,,,HRV,HRV_0310,2022-11-30 22:13:22
,wl-rdm,37,194536,0.0-6.29-0.29,0.0,37.0,,,,,,,[],,,,,,50.0,1.0,u,0.0,False,884.5999999996275,54.0,60.0,40.0,False,,345.6418587818745,[],"[680, 384]",ColorTask,16.0,30.0,,,HRV,HRV_0310,2022-11-30 22:13:22
,wl-rdm,38,196685,0.0-6.30-0.30,0.0,38.0,,,,,,,[],,,,,,87.9,0.0,u,0.0,True,770.5999999996275,47.0,60.0,40.0,False,,297.76089497644284,[],"[680, 384]",ColorTask,17.0,31.0,,,HRV,HRV_0310,2022-11-30 22:13:22
,wl-rdm,39,199251,0.0-6.31-0.31,0.0,39.0,,,,,,,[],,,,,,53.2,0.0,u,0.0,True,1147.2000000011176,69.0,60.0,40.0,False,,338.0390071831527,[],"[680, 384]",ColorTask,18.0,32.0,,,HRV,HRV_0310,2022-11-30 22:13:22
,wl-rdm,40,201384,0.0-6.32-0.32,0.0,40.0,,,,,,,[],,,,,,87.9,0.0,u,0.0,True,763.3000000026077,46.0,60.0,40.0,False,,299.51498491903874,[],"[680, 384]",ColorTask,19.0,33.0,,,HRV,HRV_0310,2022-11-30 22:13:22
,wl-rdm,41,203800,0.0-6.33-0.33,0.0,41.0,,,,,,,[],,,,,,56.4,1.0,i,1.0,True,978.8000000007451,59.0,60.0,40.0,False,,352.38167579425294,[],"[680, 384]",ColorTask,20.0,34.0,,,HRV,HRV_0310,2022-11-30 22:13:22
,wl-rdm,42,206083,0.0-6.34-0.34,0.0,42.0,,,,,,,[],,,,,,62.5,1.0,i,1.0,True,868.9000000003725,53.0,60.0,40.0,False,,323.7166181655989,[],"[680, 384]",ColorTask,21.0,35.0,,,HRV,HRV_0310,2022-11-30 22:13:22
,wl-rdm,43,208332,0.0-6.35-0.35,0.0,43.0,,,,,,,[],,,,,,62.5,1.0,i,1.0,True,788.1000000014901,48.0,60.0,40.0,False,,376.1586692427891,[],"[680, 384]",ColorTask,22.0,36.0,,,HRV,HRV_0310,2022-11-30 22:13:22
,wl-rdm,44,210381,0.0-6.36-0.36,0.0,44.0,,,,,,,[],,,,,,87.9,0.0,u,0.0,True,704.6999999992549,43.0,60.0,40.0,False,,253.44991602578276,[],"[680, 384]",ColorTask,23.0,37.0,,,HRV,HRV_0310,2022-11-30 22:13:22
,wl-rdm,45,212548,0.0-6.37-0.37,0.0,45.0,,,,,,,[],,,,,,73.6,1.0,i,1.0,True,810.5000000018626,49.0,60.0,40.0,False,,280.22689639586304,[],"[680, 384]",ColorTask,24.0,38.0,,,HRV,HRV_0310,2022-11-30 22:13:22
,wl-rdm,46,214697,0.0-6.38-0.38,0.0,46.0,,,,,,,[],,,,,,87.9,1.0,i,1.0,True,862.7000000011176,52.0,60.0,40.0,False,,202.1244850865758,[],"[680, 384]",ColorTask,25.0,39.0,,,HRV,HRV_0310,2022-11-30 22:13:22
,wl-rdm,47,217480,0.0-6.39-0.39,0.0,47.0,,,,,,,[],,,,,,53.2,0.0,u,0.0,True,1374.5,83.0,60.0,40.0,False,,322.3405090832402,[],"[680, 384]",ColorTask,26.0,40.0,,,HRV,HRV_0310,2022-11-30 22:13:22
,wl-rdm,48,220045,0.0-6.40-0.40,0.0,48.0,,,,,,,[],,,,,,53.2,1.0,i,1.0,True,1234.2999999988824,75.0,60.0,40.0,False,,233.6109480446134,[],"[680, 384]",ColorTask,27.0,41.0,,,HRV,HRV_0310,2022-11-30 22:13:22
,wl-rdm,49,222328,0.0-6.41-0.41,0.0,49.0,,,,,,,[],,,,,,56.4,0.0,u,0.0,True,928.0,56.0,60.0,40.0,False,,276.1192160900861,[],"[680, 384]",ColorTask,28.0,42.0,,,HRV,HRV_0310,2022-11-30 22:13:22
,wl-rdm,50,224527,0.0-6.42-0.42,0.0,50.0,,,,,,,[],,,,,,87.9,1.0,i,1.0,True,871.5,53.0,60.0,40.0,False,,240.3674711077287,[],"[680, 384]",ColorTask,29.0,43.0,,,HRV,HRV_0310,2022-11-30 22:13:22
,wl-rdm,51,226843,0.0-6.43-0.43,0.0,51.0,,,,,,,[],,,,,,73.6,0.0,u,0.0,True,901.6999999992549,55.0,60.0,40.0,False,,327.1237840923034,[],"[680, 384]",ColorTask,30.0,44.0,,,HRV,HRV_0310,2022-11-30 22:13:22
,wl-rdm,52,229276,0.0-6.44-0.44,0.0,52.0,,,,,,,[],,,,,,62.5,1.0,i,1.0,True,1055.1000000014901,64.0,60.0,40.0,False,,285.7760141381169,[],"[680, 384]",ColorTask,31.0,45.0,,,HRV,HRV_0310,2022-11-30 22:13:22
,wl-rdm,53,231492,0.0-6.45-0.45,0.0,53.0,,,,,,,[],,,,,,53.2,1.0,i,1.0,True,901.8999999985099,55.0,60.0,40.0,False,,223.37998156274386,[],"[680, 384]",ColorTask,32.0,46.0,,,HRV,HRV_0310,2022-11-30 22:13:22
,wl-rdm,54,233592,0.0-6.46-0.46,0.0,54.0,,,,,,,[],,,,,,62.5,0.0,u,0.0,True,747.0,45.0,60.0,40.0,False,,279.34068336746583,[],"[680, 384]",ColorTask,33.0,47.0,,,HRV,HRV_0310,2022-11-30 22:13:22
,wl-rdm,55,235858,0.0-6.47-0.47,0.0,55.0,,,,,,,[],,,,,,73.6,1.0,i,1.0,True,901.2999999988824,55.0,60.0,40.0,False,,281.55703186562783,[],"[680, 384]",ColorTask,34.0,48.0,,,HRV,HRV_0310,2022-11-30 22:13:22
,wl-rdm,56,237874,0.0-6.48-0.48,0.0,56.0,,,,,,,[],,,,,,87.9,0.0,u,0.0,True,665.2999999988824,40.0,60.0,40.0,False,,274.8005784061018,[],"[680, 384]",ColorTask,35.0,49.0,,,HRV,HRV_0310,2022-11-30 22:13:22
,wl-rdm,57,240623,0.0-6.49-0.49,0.0,57.0,,,,,,,[],,,,,,53.2,0.0,u,0.0,True,1421.4000000003725,86.0,60.0,40.0,False,,245.52497568825467,[],"[680, 384]",ColorTask,36.0,50.0,,,HRV,HRV_0310,2022-11-30 22:13:22
,wl-rdm,58,242739,0.0-6.50-0.50,0.0,58.0,,,,,,,[],,,,,,56.4,1.0,i,1.0,True,751.9000000022352,46.0,60.0,40.0,False,,269.8884464860071,[],"[680, 384]",ColorTask,37.0,51.0,,,HRV,HRV_0310,2022-11-30 22:13:22
,wl-rdm,59,245572,0.0-6.51-0.51,0.0,59.0,,,,,,,[],,,,,,56.4,1.0,u,0.0,False,1459.0,88.0,60.0,40.0,False,,285.86324076272945,[],"[680, 384]",ColorTask,36.0,52.0,,,HRV,HRV_0310,2022-11-30 22:13:22
,wl-rdm,60,247721,0.0-6.52-0.52,0.0,60.0,,,,,,,[],,,,,,53.2,0.0,u,0.0,True,762.7000000011176,46.0,60.0,40.0,False,,302.530802220408,[],"[680, 384]",ColorTask,37.0,53.0,,,HRV,HRV_0310,2022-11-30 22:13:22
,wl-rdm,61,249854,0.0-6.53-0.53,0.0,61.0,,,,,,,[],,,,,,87.9,0.0,u,0.0,True,678.5999999996275,41.0,60.0,40.0,False,,375.9600436793573,[],"[680, 384]",ColorTask,38.0,54.0,,,HRV,HRV_0310,2022-11-30 22:13:22
,wl-rdm,62,251804,0.0-6.54-0.54,0.0,62.0,,,,,,,[],,,,,,62.5,1.0,i,1.0,True,663.5,40.0,60.0,40.0,False,,201.93780064366163,[],"[680, 384]",ColorTask,39.0,55.0,,,HRV,HRV_0310,2022-11-30 22:13:22
,wl-rdm,63,254086,0.0-6.55-0.55,0.0,63.0,,,,,,,[],,,,,,62.5,0.0,u,0.0,True,887.1999999992549,54.0,60.0,40.0,False,,315.85214044153554,[],"[680, 384]",ColorTask,40.0,56.0,,,HRV,HRV_0310,2022-11-30 22:13:22
,wl-rdm,64,256419,0.0-6.56-0.56,0.0,64.0,,,,,,,[],,,,,,56.4,0.0,u,0.0,True,1039.2000000011176,63.0,60.0,40.0,False,,200.16641975128067,[],"[680, 384]",ColorTask,41.0,57.0,,,HRV,HRV_0310,2022-11-30 22:13:22
,wl-rdm,65,258502,0.0-6.57-0.57,0.0,65.0,,,,,,,[],,,,,,50.0,0.0,i,1.0,False,782.8000000007451,47.0,60.0,40.0,False,,232.77254225813095,[],"[680, 384]",ColorTask,40.0,58.0,,,HRV,HRV_0310,2022-11-30 22:13:22
,wl-rdm,66,261135,0.0-6.58-0.58,0.0,66.0,,,,,,,[],,,,,,87.9,0.0,u,0.0,True,1300.300000000745,79.0,60.0,40.0,False,,236.55943781810265,[],"[680, 384]",ColorTask,41.0,59.0,,,HRV,HRV_0310,2022-11-30 22:13:22
,wl-rdm,67,263317,0.0-6.59-0.59,0.0,67.0,,,,,,,[],,,,,,87.9,0.0,u,0.0,True,826.0999999996275,50.0,60.0,40.0,False,,267.0011437364981,[],"[680, 384]",ColorTask,42.0,60.0,,,HRV,HRV_0310,2022-11-30 22:13:22
,wl-rdm,68,266217,0.0-6.60-0.60,0.0,68.0,,,,,,,[],,,,,,62.5,1.0,i,1.0,True,1612.0999999996275,97.0,60.0,40.0,False,,207.45412949797154,[],"[680, 384]",ColorTask,43.0,61.0,,,HRV,HRV_0310,2022-11-30 22:13:22
,wl-rdm,69,268683,0.0-6.61-0.61,0.0,69.0,,,,,,,[],,,,,,53.2,1.0,u,0.0,False,1018.0000000018626,62.0,60.0,40.0,False,,366.4007641189215,[],"[680, 384]",ColorTask,42.0,62.0,,,HRV,HRV_0310,2022-11-30 22:13:22
,wl-rdm,70,271449,0.0-6.62-0.62,0.0,70.0,,,,,,,[],,,,,,53.2,1.0,i,1.0,True,1466.2000000011176,88.0,60.0,40.0,False,,233.3064847651152,[],"[680, 384]",ColorTask,43.0,63.0,,,HRV,HRV_0310,2022-11-30 22:13:22
,wl-rdm,71,273615,0.0-6.63-0.63,0.0,71.0,,,,,,,[],,,,,,87.9,1.0,i,1.0,True,835.5,51.0,60.0,40.0,False,,241.0804026450454,[],"[680, 384]",ColorTask,44.0,64.0,,,HRV,HRV_0310,2022-11-30 22:13:22
,wl-rdm,72,276597,0.0-6.64-0.64,0.0,72.0,,,,,,,[],,,,,,53.2,0.0,u,0.0,True,1683.800000000745,102.0,60.0,40.0,False,,213.06058179203677,[],"[680, 384]",ColorTask,45.0,65.0,,,HRV,HRV_0310,2022-11-30 22:13:22
,wl-rdm,73,280314,0.0-6.65-0.65,0.0,73.0,,,,,,,[],,,,,,56.4,0.0,u,0.0,True,2282.2000000011176,137.0,60.0,40.0,False,,349.9560414480907,[],"[680, 384]",ColorTask,46.0,66.0,,,HRV,HRV_0310,2022-11-30 22:13:22
,wl-rdm,74,282863,0.0-6.66-0.66,0.0,74.0,,,,,,,[],,,,,,50.0,0.0,i,1.0,False,1071.300000000745,65.0,60.0,40.0,False,,393.67785005372707,[],"[680, 384]",ColorTask,45.0,67.0,,,HRV,HRV_0310,2022-11-30 22:13:22
,wl-rdm,75,286229,0.0-6.67-0.67,0.0,75.0,,,,,,,[],,,,,,50.0,1.0,i,1.0,True,2005.4000000003725,121.0,60.0,40.0,False,,282.08321431765955,[],"[680, 384]",ColorTask,46.0,68.0,,,HRV,HRV_0310,2022-11-30 22:13:22
,wl-rdm,76,288845,0.0-6.68-0.68,0.0,76.0,,,,,,,[],,,,,,53.2,1.0,u,0.0,False,1272.300000000745,77.0,60.0,40.0,False,,254.28814166340044,[],"[680, 384]",ColorTask,45.0,69.0,,,HRV,HRV_0310,2022-11-30 22:13:22
,wl-rdm,77,291145,0.0-6.69-0.69,0.0,77.0,,,,,,,[],,,,,,73.6,0.0,u,0.0,True,901.5,55.0,60.0,40.0,False,,301.4628090575666,[],"[680, 384]",ColorTask,46.0,70.0,,,HRV,HRV_0310,2022-11-30 22:13:22
,wl-rdm,78,293794,0.0-6.70-0.70,0.0,78.0,,,,,,,[],,,,,,62.5,0.0,i,1.0,False,1177.3999999985099,71.0,60.0,40.0,False,,390.77911149533475,[],"[680, 384]",ColorTask,45.0,71.0,,,HRV,HRV_0310,2022-11-30 22:13:22
,wl-rdm,79,296477,0.0-6.71-0.71,0.0,79.0,,,,,,,[],,,,,,73.6,0.0,u,0.0,True,1305.1000000014901,79.0,60.0,40.0,False,,290.61779130043715,[],"[680, 384]",ColorTask,46.0,72.0,,,HRV,HRV_0310,2022-11-30 22:13:22
,wl-rdm,80,299593,0.0-6.72-0.72,0.0,80.0,,,,,,,[],,,,,,53.2,0.0,i,1.0,False,1796.6000000014901,108.0,60.0,40.0,False,,236.54111560534582,[],"[680, 384]",ColorTask,45.0,73.0,,,HRV,HRV_0310,2022-11-30 22:13:22
,wl-rdm,81,302825,0.0-6.73-0.73,0.0,81.0,,,,,,,[],,,,,,56.4,1.0,i,1.0,True,1889.0999999996275,114.0,60.0,40.0,False,,261.8977366371232,[],"[680, 384]",ColorTask,46.0,74.0,,,HRV,HRV_0310,2022-11-30 22:13:22
,wl-rdm,82,305374,0.0-6.74-0.74,0.0,82.0,,,,,,,[],,,,,,56.4,1.0,i,1.0,True,1231.0,74.0,60.0,40.0,False,,235.38962131692153,[],"[680, 384]",ColorTask,47.0,75.0,,,HRV,HRV_0310,2022-11-30 22:13:22
,wl-rdm,83,307940,0.0-6.75-0.75,0.0,83.0,,,,,,,[],,,,,,56.4,0.0,u,0.0,True,1272.0,77.0,60.0,40.0,False,,202.13973794315976,[],"[680, 384]",ColorTask,48.0,76.0,,,HRV,HRV_0310,2022-11-30 22:13:22
,wl-rdm,84,310990,0.0-6.76-0.76,0.0,84.0,,,,,,,[],,,,,,50.0,0.0,i,1.0,False,1621.2000000011176,98.0,60.0,40.0,False,,352.9713865179513,[],"[680, 384]",ColorTask,47.0,77.0,,,HRV,HRV_0310,2022-11-30 22:13:22
,wl-rdm,85,313272,0.0-6.77-0.77,0.0,85.0,,,,,,,[],,,,,,87.9,0.0,u,0.0,True,810.5,49.0,60.0,40.0,False,,386.0373391127546,[],"[680, 384]",ColorTask,48.0,78.0,,,HRV,HRV_0310,2022-11-30 22:13:22
,wl-rdm,86,316588,0.0-6.78-0.78,0.0,86.0,,,,,,,[],,,,,,50.0,0.0,u,0.0,True,1851.5,112.0,60.0,40.0,False,,374.289237438555,[],"[680, 384]",ColorTask,49.0,79.0,,,HRV,HRV_0310,2022-11-30 22:13:22
,wl-rdm,87,319387,0.0-6.79-0.79,0.0,87.0,,,,,,,[],,,,,,62.5,0.0,u,0.0,True,1485.6000000014901,90.0,60.0,40.0,False,,219.33065524155685,[],"[680, 384]",ColorTask,50.0,80.0,,,HRV,HRV_0310,2022-11-30 22:13:22
,wl-rdm,88,321670,0.0-6.80-0.80,0.0,88.0,,,,,,,[],,,,,,50.0,1.0,i,1.0,True,946.9000000003725,57.0,60.0,40.0,False,,265.35613509189466,[],"[680, 384]",ColorTask,51.0,81.0,,,HRV,HRV_0310,2022-11-30 22:13:22
,wl-rdm,89,323820,0.0-6.81-0.81,0.0,89.0,,,,,,,[],,,,,,87.9,1.0,i,1.0,True,783.0,47.0,60.0,40.0,False,,299.58027128417075,[],"[680, 384]",ColorTask,52.0,82.0,,,HRV,HRV_0310,2022-11-30 22:13:22
,wl-rdm,90,326569,0.0-6.82-0.82,0.0,90.0,,,,,,,[],,,,,,56.4,1.0,i,1.0,True,1422.199999999255,86.0,60.0,40.0,False,,246.3608936717405,[],"[680, 384]",ColorTask,53.0,83.0,,,HRV,HRV_0310,2022-11-30 22:13:22
,wl-rdm,91,329302,0.0-6.83-0.83,0.0,91.0,,,,,,,[],,,,,,50.0,0.0,i,1.0,False,1362.0,82.0,60.0,40.0,False,,284.7517462394606,[],"[680, 384]",ColorTask,52.0,84.0,,,HRV,HRV_0310,2022-11-30 22:13:22
,wl-rdm,92,331485,0.0-6.84-0.84,0.0,92.0,,,,,,,[],,,,,,73.6,0.0,u,0.0,True,868.1000000014901,53.0,60.0,40.0,False,,226.0022653934687,[],"[680, 384]",ColorTask,53.0,85.0,,,HRV,HRV_0310,2022-11-30 22:13:22
,wl-rdm,93,334200,0.0-6.85-0.85,0.0,93.0,,,,,,,[],,,,,,87.9,1.0,i,1.0,True,1238.7000000011176,75.0,60.0,40.0,False,,396.2075840450374,[],"[680, 384]",ColorTask,54.0,86.0,,,HRV,HRV_0310,2022-11-30 22:13:22
,wl-rdm,94,336500,0.0-6.86-0.86,0.0,94.0,,,,,,,[],,,,,,73.6,1.0,i,1.0,True,983.5,60.0,60.0,40.0,False,,231.9622008731672,[],"[680, 384]",ColorTask,55.0,87.0,,,HRV,HRV_0310,2022-11-30 22:13:22
,wl-rdm,95,339132,0.0-6.87-0.87,0.0,95.0,,,,,,,[],,,,,,53.2,0.0,u,0.0,True,1187.5999999996275,72.0,60.0,40.0,False,,358.20754839785417,[],"[680, 384]",ColorTask,56.0,88.0,,,HRV,HRV_0310,2022-11-30 22:13:22
,wl-rdm,96,341448,0.0-6.88-0.88,0.0,96.0,,,,,,,[],,,,,,87.9,1.0,i,1.0,True,969.8999999985099,59.0,60.0,40.0,False,,263.8315285818861,[],"[680, 384]",ColorTask,57.0,89.0,,,HRV,HRV_0310,2022-11-30 22:13:22
,wl-rdm,97,343798,0.0-6.89-0.89,0.0,97.0,,,,,,,[],,,,,,53.2,1.0,u,0.0,False,923.5,56.0,60.0,40.0,False,,343.3272740221585,[],"[680, 384]",ColorTask,56.0,90.0,,,HRV,HRV_0310,2022-11-30 22:13:22
,wl-rdm,98,346514,0.0-6.90-0.90,0.0,98.0,,,,,,,[],,,,,,62.5,0.0,u,0.0,True,1326.4000000003725,80.0,60.0,40.0,False,,313.1706193029952,[],"[680, 384]",ColorTask,57.0,91.0,,,HRV,HRV_0310,2022-11-30 22:13:22
,wl-rdm,99,349213,0.0-6.91-0.91,0.0,99.0,,,,,,,[],,,,,,56.4,1.0,u,0.0,False,1225.1000000014901,74.0,60.0,40.0,False,,383.4721210611731,[],"[680, 384]",ColorTask,56.0,92.0,,,HRV,HRV_0310,2022-11-30 22:13:22
,wl-rdm,100,351446,0.0-6.92-0.92,0.0,100.0,,,,,,,[],,,,,,87.9,0.0,u,0.0,True,808.7000000011176,49.0,60.0,40.0,False,,343.1994860937906,[],"[680, 384]",ColorTask,57.0,93.0,,,HRV,HRV_0310,2022-11-30 22:13:22
,wl-rdm,101,354345,0.0-6.93-0.93,0.0,101.0,,,,,,,[],,,,,,50.0,1.0,i,1.0,True,1561.2000000011176,94.0,60.0,40.0,False,,256.44170320281523,[],"[680, 384]",ColorTask,58.0,94.0,,,HRV,HRV_0310,2022-11-30 22:13:22
,wl-rdm,102,357411,0.0-6.94-0.94,0.0,102.0,,,,,,,[],,,,,,50.0,0.0,i,1.0,False,1740.800000000745,105.0,60.0,40.0,False,,246.83851378180603,[],"[680, 384]",ColorTask,57.0,95.0,,,HRV,HRV_0310,2022-11-30 22:13:22
,wl-rdm,103,359544,0.0-6.95-0.95,0.0,103.0,,,,,,,[],,,,,,62.5,1.0,i,1.0,True,839.2000000011176,51.0,60.0,40.0,False,,209.96132508443307,[],"[680, 384]",ColorTask,58.0,96.0,,,HRV,HRV_0310,2022-11-30 22:13:22
,wl-rdm,104,361977,0.0-6.96-0.96,0.0,104.0,,,,,,,[],,,,,,73.6,1.0,i,1.0,True,975.7000000011176,59.0,60.0,40.0,False,,367.06820654563023,[],"[680, 384]",ColorTask,59.0,97.0,,,HRV,HRV_0310,2022-11-30 22:13:22
,wl-rdm,105,364793,0.0-6.97-0.97,0.0,105.0,,,,,,,[],,,,,,53.2,1.0,i,1.0,True,1463.0999999996275,88.0,60.0,40.0,False,,271.04758867339734,[],"[680, 384]",ColorTask,60.0,98.0,,,HRV,HRV_0310,2022-11-30 22:13:22
,wl-rdm,106,368408,0.0-6.98-0.98,0.0,106.0,,,,,,,[],,,,,,56.4,1.0,i,1.0,True,2172.7000000011176,131.0,60.0,40.0,False,,350.56201904125703,[],"[680, 384]",ColorTask,61.0,99.0,,,HRV,HRV_0310,2022-11-30 22:13:22
,wl-rdm,107,370575,0.0-6.99-0.99,0.0,107.0,,,,,,,[],,,,,,62.5,0.0,u,0.0,True,777.9000000003725,47.0,60.0,40.0,False,,313.56254302559154,[],"[680, 384]",ColorTask,62.0,100.0,,,HRV,HRV_0310,2022-11-30 22:13:22
,wl-rdm,108,373374,0.0-6.100-0.100,0.0,108.0,,,,,,,[],,,,,,56.4,0.0,u,0.0,True,1394.0999999996275,84.0,60.0,40.0,False,,329.46595241066416,[],"[680, 384]",ColorTask,63.0,101.0,,,HRV,HRV_0310,2022-11-30 22:13:22
,wl-rdm,109,376406,0.0-6.101-0.101,0.0,109.0,,,,,,,[],,,,,,56.4,1.0,u,0.0,False,1666.5999999996275,101.0,60.0,40.0,False,,277.91723294062217,[],"[680, 384]",ColorTask,62.0,102.0,,,HRV,HRV_0310,2022-11-30 22:13:22
,wl-rdm,110,379072,0.0-6.102-0.102,0.0,110.0,,,,,,,[],,,,,,73.6,0.0,u,0.0,True,1344.7000000011176,81.0,60.0,40.0,False,,247.47763405605718,[],"[680, 384]",ColorTask,63.0,103.0,,,HRV,HRV_0310,2022-11-30 22:13:22
,wl-rdm,111,381289,0.0-6.103-0.103,0.0,111.0,,,,,,,[],,,,,,73.6,0.0,u,0.0,True,858.2000000011176,52.0,60.0,40.0,False,,282.5826916267088,[],"[680, 384]",ColorTask,64.0,104.0,,,HRV,HRV_0310,2022-11-30 22:13:22
,wl-rdm,112,383421,0.0-6.104-0.104,0.0,112.0,,,,,,,[],,,,,,50.0,0.0,i,1.0,False,840.5999999996275,51.0,60.0,40.0,False,,215.15132513888312,[],"[680, 384]",ColorTask,63.0,105.0,,,HRV,HRV_0310,2022-11-30 22:13:22
,wl-rdm,113,385537,0.0-6.105-0.105,0.0,113.0,,,,,,,[],,,,,,62.5,0.0,u,0.0,True,801.2000000011176,49.0,60.0,40.0,False,,229.73997774378597,[],"[680, 384]",ColorTask,64.0,106.0,,,HRV,HRV_0310,2022-11-30 22:13:22
,wl-rdm,114,387787,0.0-6.106-0.106,0.0,114.0,,,,,,,[],,,,,,53.2,1.0,i,1.0,True,805.9000000003725,49.0,60.0,40.0,False,,360.86652250369093,[],"[680, 384]",ColorTask,65.0,107.0,,,HRV,HRV_0310,2022-11-30 22:13:22
,wl-rdm,115,391236,0.0-6.107-0.107,0.0,115.0,,,,,,,[],,,,,,53.2,1.0,i,1.0,True,2086.9000000003725,126.0,60.0,40.0,False,,282.43510214191735,[],"[680, 384]",ColorTask,66.0,108.0,,,HRV,HRV_0310,2022-11-30 22:13:22
,wl-rdm,116,393469,0.0-6.108-0.108,0.0,116.0,,,,,,,[],,,,,,73.6,1.0,i,1.0,True,903.8999999985099,55.0,60.0,40.0,False,,244.8469949775489,[],"[680, 384]",ColorTask,67.0,109.0,,,HRV,HRV_0310,2022-11-30 22:13:22
,wl-html-keyboard-response,117,407049,0.0-7.0-0.0,1.0,117.0,,,,,,,,11577.5,1.0,0,,,,,,,,,,,,,,,,,,,,,,HRV,HRV_0310,2022-11-30 22:13:22
,wl-rdm,118,409398,0.0-8.0-0.0,1.0,118.0,,,,,,,[],,,,,,50.0,0.0,i,1.0,False,914.8000000007451,55.0,60.0,40.0,False,,354.19843404503735,[],"[680, 384]",ColorTask,66.0,1.0,,,HRV,HRV_0310,2022-11-30 22:13:22
,wl-rdm,119,411798,0.0-8.1-0.1,1.0,119.0,,,,,,,[],,,,,,62.5,0.0,u,0.0,True,1042.5999999996275,63.0,60.0,40.0,False,,279.76686327541285,[],"[680, 384]",ColorTask,67.0,2.0,,,HRV,HRV_0310,2022-11-30 22:13:22
,wl-rdm,120,414297,0.0-8.2-0.2,1.0,120.0,,,,,,,[],,,,,,53.2,1.0,i,1.0,True,1024.7000000011176,62.0,60.0,40.0,False,,385.20725548651615,[],"[680, 384]",ColorTask,68.0,3.0,,,HRV,HRV_0310,2022-11-30 22:13:22
,wl-rdm,121,416547,0.0-8.3-0.3,1.0,121.0,,,,,,,[],,,,,,62.5,1.0,i,1.0,True,877.1000000014901,53.0,60.0,40.0,False,,285.9448006689703,[],"[680, 384]",ColorTask,69.0,4.0,,,HRV,HRV_0310,2022-11-30 22:13:22
,wl-rdm,122,419046,0.0-8.4-0.4,1.0,122.0,,,,,,,[],,,,,,62.5,0.0,u,0.0,True,1089.4000000003725,66.0,60.0,40.0,False,,331.26215125980565,[],"[680, 384]",ColorTask,70.0,5.0,,,HRV,HRV_0310,2022-11-30 22:13:22
,wl-rdm,123,421512,0.0-8.5-0.5,1.0,123.0,,,,,,,[],,,,,,62.5,0.0,u,0.0,True,1098.3000000026077,66.0,60.0,40.0,False,,296.92688336334396,[],"[680, 384]",ColorTask,71.0,6.0,,,HRV,HRV_0310,2022-11-30 22:13:22
,wl-rdm,124,424111,0.0-8.6-0.6,1.0,124.0,,,,,,,[],,,,,,53.2,0.0,u,0.0,True,1230.300000000745,74.0,60.0,40.0,False,,297.1027061183181,[],"[680, 384]",ColorTask,72.0,7.0,,,HRV,HRV_0310,2022-11-30 22:13:22
,wl-rdm,125,426327,0.0-8.7-0.7,1.0,125.0,,,,,,,[],,,,,,87.9,1.0,u,0.0,False,743.9000000003725,45.0,60.0,40.0,False,,387.9024356890898,[],"[680, 384]",ColorTask,71.0,8.0,,,HRV,HRV_0310,2022-11-30 22:13:22
,wl-rdm,126,429643,0.0-8.8-0.8,1.0,126.0,,,,,,,[],,,,,,53.2,1.0,i,1.0,True,1934.300000000745,117.0,60.0,40.0,False,,286.3466378537826,[],"[680, 384]",ColorTask,72.0,9.0,,,HRV,HRV_0310,2022-11-30 22:13:22
,wl-rdm,127,432742,0.0-8.9-0.9,1.0,127.0,,,,,,,[],,,,,,50.0,1.0,u,0.0,False,1771.0,107.0,60.0,40.0,False,,234.89679853257917,[],"[680, 384]",ColorTask,71.0,10.0,,,HRV,HRV_0310,2022-11-30 22:13:22
,wl-rdm,128,434925,0.0-8.10-0.10,1.0,128.0,,,,,,,[],,,,,,50.0,0.0,u,0.0,True,731.2999999988824,44.0,60.0,40.0,False,,379.73379106378906,[],"[680, 384]",ColorTask,72.0,11.0,,,HRV,HRV_0310,2022-11-30 22:13:22
,wl-rdm,129,437391,0.0-8.11-0.11,1.0,129.0,,,,,,,[],,,,,,50.0,1.0,i,1.0,True,1171.4000000003725,71.0,60.0,40.0,False,,215.62330966050058,[],"[680, 384]",ColorTask,73.0,12.0,,,HRV,HRV_0310,2022-11-30 22:13:22
,wl-rdm,130,439674,0.0-8.12-0.12,1.0,130.0,,,,,,,[],,,,,,62.5,0.0,u,0.0,True,998.2999999988824,60.0,60.0,40.0,False,,202.2201852912593,[],"[680, 384]",ColorTask,74.0,13.0,,,HRV,HRV_0310,2022-11-30 22:13:22
,wl-rdm,131,441773,0.0-8.13-0.13,1.0,131.0,,,,,,,[],,,,,,87.9,1.0,i,1.0,True,790.5999999996275,48.0,60.0,40.0,False,,219.18418155992165,[],"[680, 384]",ColorTask,75.0,14.0,,,HRV,HRV_0310,2022-11-30 22:13:22
,wl-rdm,132,444306,0.0-8.14-0.14,1.0,132.0,,,,,,,[],,,,,,50.0,1.0,u,0.0,False,1244.9000000003725,75.0,60.0,40.0,False,,211.5224409539231,[],"[680, 384]",ColorTask,74.0,15.0,,,HRV,HRV_0310,2022-11-30 22:13:22
,wl-rdm,133,446539,0.0-8.15-0.15,1.0,133.0,,,,,,,[],,,,,,73.6,0.0,u,0.0,True,912.7999999988824,55.0,60.0,40.0,False,,233.5196667679965,[],"[680, 384]",ColorTask,75.0,16.0,,,HRV,HRV_0310,2022-11-30 22:13:22
,wl-rdm,134,448722,0.0-8.16-0.16,1.0,134.0,,,,,,,[],,,,,,56.4,1.0,u,0.0,False,819.9000000003725,50.0,60.0,40.0,False,,281.2901280978998,[],"[680, 384]",ColorTask,74.0,17.0,,,HRV,HRV_0310,2022-11-30 22:13:22
,wl-rdm,135,450888,0.0-8.17-0.17,1.0,135.0,,,,,,,[],,,,,,73.6,0.0,u,0.0,True,859.3000000007451,52.0,60.0,40.0,False,,230.02375999948592,[],"[680, 384]",ColorTask,75.0,18.0,,,HRV,HRV_0310,2022-11-30 22:13:22
,wl-rdm,136,453954,0.0-8.18-0.18,1.0,136.0,,,,,,,[],,,,,,56.4,0.0,u,0.0,True,1639.0999999996275,99.0,60.0,40.0,False,,334.67517171761835,[],"[680, 384]",ColorTask,76.0,19.0,,,HRV,HRV_0310,2022-11-30 22:13:22
,wl-rdm,137,456070,0.0-8.19-0.19,1.0,137.0,,,,,,,[],,,,,,87.9,0.0,u,0.0,True,652.1000000014901,40.0,60.0,40.0,False,,369.7426551084924,[],"[680, 384]",ColorTask,77.0,20.0,,,HRV,HRV_0310,2022-11-30 22:13:22
,wl-rdm,138,458386,0.0-8.20-0.20,1.0,138.0,,,,,,,[],,,,,,50.0,0.0,i,1.0,False,868.5,53.0,60.0,40.0,False,,352.1939708206161,[],"[680, 384]",ColorTask,76.0,21.0,,,HRV,HRV_0310,2022-11-30 22:13:22
,wl-rdm,139,461501,0.0-8.21-0.21,1.0,139.0,,,,,,,[],,,,,,56.4,1.0,u,0.0,False,1692.3000000026077,102.0,60.0,40.0,False,,346.80369790943325,[],"[680, 384]",ColorTask,75.0,22.0,,,HRV,HRV_0310,2022-11-30 22:13:22
,wl-rdm,140,463817,0.0-8.22-0.22,1.0,140.0,,,,,,,[],,,,,,56.4,1.0,u,0.0,False,957.0,58.0,60.0,40.0,False,,275.20600753043976,[],"[680, 384]",ColorTask,74.0,23.0,,,HRV,HRV_0310,2022-11-30 22:13:22
,wl-rdm,141,466133,0.0-8.23-0.23,1.0,141.0,,,,,,,[],,,,,,73.6,0.0,u,0.0,True,1021.5,62.0,60.0,40.0,False,,206.44263960216745,[],"[680, 384]",ColorTask,75.0,24.0,,,HRV,HRV_0310,2022-11-30 22:13:22
,wl-rdm,142,468966,0.0-8.24-0.24,1.0,142.0,,,,,,,[],,,,,,62.5,0.0,u,0.0,True,1478.699999999255,89.0,60.0,40.0,False,,281.8873937995344,[],"[680, 384]",ColorTask,76.0,25.0,,,HRV,HRV_0310,2022-11-30 22:13:22
,wl-rdm,143,472815,0.0-8.25-0.25,1.0,143.0,,,,,,,[],,,,,,56.4,0.0,u,0.0,True,2466.0,148.0,60.0,40.0,False,,314.5392891113525,[],"[680, 384]",ColorTask,77.0,26.0,,,HRV,HRV_0310,2022-11-30 22:13:22
,wl-rdm,144,475214,0.0-8.26-0.26,1.0,144.0,,,,,,,[],,,,,,56.4,0.0,u,0.0,True,1113.7000000011176,67.0,60.0,40.0,False,,215.94340708847056,[],"[680, 384]",ColorTask,78.0,27.0,,,HRV,HRV_0310,2022-11-30 22:13:22
,wl-rdm,145,477430,0.0-8.27-0.27,1.0,145.0,,,,,,,[],,,,,,87.9,0.0,u,0.0,True,778.5,47.0,60.0,40.0,False,,363.0881347847503,[],"[680, 384]",ColorTask,79.0,28.0,,,HRV,HRV_0310,2022-11-30 22:13:22
,wl-rdm,146,479630,0.0-8.28-0.28,1.0,146.0,,,,,,,[],,,,,,50.0,1.0,i,1.0,True,722.9000000003725,44.0,60.0,40.0,False,,393.39556610282443,[],"[680, 384]",ColorTask,80.0,29.0,,,HRV,HRV_0310,2022-11-30 22:13:22
,wl-rdm,147,482462,0.0-8.29-0.29,1.0,147.0,,,,,,,[],,,,,,73.6,0.0,u,0.0,True,1445.7999999988824,87.0,60.0,40.0,False,,302.09892949523265,[],"[680, 384]",ColorTask,81.0,30.0,,,HRV,HRV_0310,2022-11-30 22:13:22
,wl-rdm,148,485078,0.0-8.30-0.30,1.0,148.0,,,,,,,[],,,,,,73.6,0.0,u,0.0,True,1231.300000000745,74.0,60.0,40.0,False,,309.1746648718632,[],"[680, 384]",ColorTask,82.0,31.0,,,HRV,HRV_0310,2022-11-30 22:13:22
,wl-rdm,149,487694,0.0-8.31-0.31,1.0,149.0,,,,,,,[],,,,,,50.0,1.0,u,0.0,False,1315.5,79.0,60.0,40.0,False,,222.50615353840226,[],"[680, 384]",ColorTask,81.0,32.0,,,HRV,HRV_0310,2022-11-30 22:13:22
,wl-rdm,150,490444,0.0-8.32-0.32,1.0,150.0,,,,,,,[],,,,,,53.2,0.0,u,0.0,True,1422.800000000745,86.0,60.0,40.0,False,,245.3734905524699,[],"[680, 384]",ColorTask,82.0,33.0,,,HRV,HRV_0310,2022-11-30 22:13:22
,wl-rdm,151,494059,0.0-8.33-0.33,1.0,151.0,,,,,,,[],,,,,,53.2,1.0,i,1.0,True,2185.5999999996275,132.0,60.0,40.0,False,,346.7576063398393,[],"[680, 384]",ColorTask,83.0,34.0,,,HRV,HRV_0310,2022-11-30 22:13:22
,wl-rdm,152,496992,0.0-8.34-0.34,1.0,152.0,,,,,,,[],,,,,,50.0,0.0,u,0.0,True,1645.300000000745,99.0,60.0,40.0,False,,200.51206246798253,[],"[680, 384]",ColorTask,84.0,35.0,,,HRV,HRV_0310,2022-11-30 22:13:22
,wl-rdm,153,499375,0.0-8.35-0.35,1.0,153.0,,,,,,,[],,,,,,53.2,1.0,i,1.0,True,1087.5,66.0,60.0,40.0,False,,208.89453369804363,[],"[680, 384]",ColorTask,85.0,36.0,,,HRV,HRV_0310,2022-11-30 22:13:22
,wl-rdm,154,502157,0.0-8.36-0.36,1.0,154.0,,,,,,,[],,,,,,62.5,1.0,i,1.0,True,1484.699999999255,90.0,60.0,40.0,False,,211.65202926233795,[],"[680, 384]",ColorTask,86.0,37.0,,,HRV,HRV_0310,2022-11-30 22:13:22
,wl-rdm,155,505057,0.0-8.37-0.37,1.0,155.0,,,,,,,[],,,,,,62.5,1.0,i,1.0,True,1588.5,96.0,60.0,40.0,False,,232.6665107495597,[],"[680, 384]",ColorTask,87.0,38.0,,,HRV,HRV_0310,2022-11-30 22:13:22
,wl-rdm,156,508156,0.0-8.38-0.38,1.0,156.0,,,,,,,[],,,,,,53.2,0.0,u,0.0,True,1675.7000000011176,101.0,60.0,40.0,False,,348.42245466105294,[],"[680, 384]",ColorTask,88.0,39.0,,,HRV,HRV_0310,2022-11-30 22:13:22
,wl-rdm,157,511022,0.0-8.39-0.39,1.0,157.0,,,,,,,[],,,,,,50.0,1.0,i,1.0,True,1553.8999999985099,94.0,60.0,40.0,False,,220.31551290859016,[],"[680, 384]",ColorTask,89.0,40.0,,,HRV,HRV_0310,2022-11-30 22:13:22
,wl-rdm,158,513121,0.0-8.40-0.40,1.0,158.0,,,,,,,[],,,,,,87.9,1.0,i,1.0,True,749.1000000014901,45.0,60.0,40.0,False,,266.83656513074953,[],"[680, 384]",ColorTask,90.0,41.0,,,HRV,HRV_0310,2022-11-30 22:13:22
,wl-rdm,159,515304,0.0-8.41-0.41,1.0,159.0,,,,,,,[],,,,,,87.9,0.0,u,0.0,True,753.9000000003725,46.0,60.0,40.0,False,,346.2169444962,[],"[680, 384]",ColorTask,91.0,42.0,,,HRV,HRV_0310,2022-11-30 22:13:22
,wl-rdm,160,517637,0.0-8.42-0.42,1.0,160.0,,,,,,,[],,,,,,87.9,0.0,u,0.0,True,988.5,60.0,60.0,40.0,False,,259.3982842764878,[],"[680, 384]",ColorTask,92.0,43.0,,,HRV,HRV_0310,2022-11-30 22:13:22
,wl-rdm,161,519787,0.0-8.43-0.43,1.0,161.0,,,,,,,[],,,,,,73.6,1.0,i,1.0,True,825.4000000003725,50.0,60.0,40.0,False,,243.51138009054478,[],"[680, 384]",ColorTask,93.0,44.0,,,HRV,HRV_0310,2022-11-30 22:13:22
,wl-rdm,162,522853,0.0-8.44-0.44,1.0,162.0,,,,,,,[],,,,,,50.0,0.0,i,1.0,False,1755.5999999996275,106.0,60.0,40.0,False,,227.73005646885215,[],"[680, 384]",ColorTask,92.0,45.0,,,HRV,HRV_0310,2022-11-30 22:13:22
,wl-rdm,163,526669,0.0-8.45-0.45,1.0,163.0,,,,,,,[],,,,,,53.2,0.0,u,0.0,True,2416.699999999255,146.0,60.0,40.0,False,,302.43307492303677,[],"[680, 384]",ColorTask,93.0,46.0,,,HRV,HRV_0310,2022-11-30 22:13:22
,wl-rdm,164,529185,0.0-8.46-0.46,1.0,164.0,,,,,,,[],,,,,,62.5,1.0,i,1.0,True,1085.0999999996275,66.0,60.0,40.0,False,,335.6862787593015,[],"[680, 384]",ColorTask,94.0,47.0,,,HRV,HRV_0310,2022-11-30 22:13:22
,wl-rdm,165,532317,0.0-8.47-0.47,1.0,165.0,,,,,,,[],,,,,,56.4,1.0,i,1.0,True,1796.5999999996275,108.0,60.0,40.0,False,,251.13452390739846,[],"[680, 384]",ColorTask,95.0,48.0,,,HRV,HRV_0310,2022-11-30 22:13:22
,wl-rdm,166,534417,0.0-8.48-0.48,1.0,166.0,,,,,,,[],,,,,,56.4,0.0,u,0.0,True,803.2000000011176,49.0,60.0,40.0,False,,203.26003077412298,[],"[680, 384]",ColorTask,96.0,49.0,,,HRV,HRV_0310,2022-11-30 22:13:22
,wl-rdm,167,536483,0.0-8.49-0.49,1.0,167.0,,,,,,,[],,,,,,73.6,1.0,i,1.0,True,674.5,41.0,60.0,40.0,False,,305.6495889133571,[],"[680, 384]",ColorTask,97.0,50.0,,,HRV,HRV_0310,2022-11-30 22:13:22
,wl-rdm,168,539265,0.0-8.50-0.50,1.0,168.0,,,,,,,[],,,,,,56.4,1.0,i,1.0,True,1370.6000000014901,83.0,60.0,40.0,False,,327.70090039933723,[],"[680, 384]",ColorTask,98.0,51.0,,,HRV,HRV_0310,2022-11-30 22:13:22
,wl-rdm,169,542648,0.0-8.51-0.51,1.0,169.0,,,,,,,[],,,,,,53.2,1.0,i,1.0,True,2090.0,126.0,60.0,40.0,False,,215.31499417598863,[],"[680, 384]",ColorTask,99.0,52.0,,,HRV,HRV_0310,2022-11-30 22:13:22
,wl-rdm,170,545447,0.0-8.52-0.52,1.0,170.0,,,,,,,[],,,,,,56.4,0.0,i,1.0,False,1490.6000000014901,90.0,60.0,40.0,False,,219.77170053037554,[],"[680, 384]",ColorTask,98.0,53.0,,,HRV,HRV_0310,2022-11-30 22:13:22
,wl-rdm,171,547430,0.0-8.53-0.53,1.0,171.0,,,,,,,[],,,,,,73.6,0.0,u,0.0,True,630.3000000007451,38.0,60.0,40.0,False,,282.17112555508317,[],"[680, 384]",ColorTask,99.0,54.0,,,HRV,HRV_0310,2022-11-30 22:13:22
,wl-rdm,172,549430,0.0-8.54-0.54,1.0,172.0,,,,,,,[],,,,,,53.2,1.0,u,0.0,False,654.2000000011176,40.0,60.0,40.0,False,,259.10643021785313,[],"[680, 384]",ColorTask,98.0,55.0,,,HRV,HRV_0310,2022-11-30 22:13:22
,wl-rdm,173,551496,0.0-8.55-0.55,1.0,173.0,,,,,,,[],,,,,,87.9,0.0,u,0.0,True,775.6000000014901,47.0,60.0,40.0,False,,216.65923226793194,[],"[680, 384]",ColorTask,99.0,56.0,,,HRV,HRV_0310,2022-11-30 22:13:22
,wl-rdm,174,553712,0.0-8.56-0.56,1.0,174.0,,,,,,,[],,,,,,73.6,1.0,i,1.0,True,922.6999999992549,56.0,60.0,40.0,False,,212.18220524304212,[],"[680, 384]",ColorTask,100.0,57.0,,,HRV,HRV_0310,2022-11-30 22:13:22
,wl-rdm,175,556078,0.0-8.57-0.57,1.0,175.0,,,,,,,[],,,,,,73.6,1.0,i,1.0,True,1063.800000000745,64.0,60.0,40.0,False,,221.0745943724747,[],"[680, 384]",ColorTask,101.0,58.0,,,HRV,HRV_0310,2022-11-30 22:13:22
,wl-rdm,176,558311,0.0-8.58-0.58,1.0,176.0,,,,,,,[],,,,,,56.4,0.0,i,1.0,False,814.2000000011176,49.0,60.0,40.0,False,,344.73024801322117,[],"[680, 384]",ColorTask,100.0,59.0,,,HRV,HRV_0310,2022-11-30 22:13:22
,wl-rdm,177,560577,0.0-8.59-0.59,1.0,177.0,,,,,,,[],,,,,,87.9,0.0,u,0.0,True,834.4000000003725,51.0,60.0,40.0,False,,343.47160188805987,[],"[680, 384]",ColorTask,101.0,60.0,,,HRV,HRV_0310,2022-11-30 22:13:22
,wl-rdm,178,562843,0.0-8.60-0.60,1.0,178.0,,,,,,,[],,,,,,53.2,1.0,i,1.0,True,843.3000000007451,51.0,60.0,40.0,False,,338.38756198504706,[],"[680, 384]",ColorTask,102.0,61.0,,,HRV,HRV_0310,2022-11-30 22:13:22
,wl-rdm,179,565242,0.0-8.61-0.61,1.0,179.0,,,,,,,[],,,,,,73.6,1.0,i,1.0,True,954.5,58.0,60.0,40.0,False,,360.07656002107876,[],"[680, 384]",ColorTask,103.0,62.0,,,HRV,HRV_0310,2022-11-30 22:13:22
,wl-rdm,180,568241,0.0-8.62-0.62,1.0,180.0,,,,,,,[],,,,,,62.5,1.0,i,1.0,True,1623.6000000014901,98.0,60.0,40.0,False,,291.6763412153984,[],"[680, 384]",ColorTask,104.0,63.0,,,HRV,HRV_0310,2022-11-30 22:13:22
,wl-rdm,181,571391,0.0-8.63-0.63,1.0,181.0,,,,,,,[],,,,,,53.2,0.0,i,1.0,False,1818.4000000003725,110.0,60.0,40.0,False,,244.0815553982813,[],"[680, 384]",ColorTask,103.0,64.0,,,HRV,HRV_0310,2022-11-30 22:13:22
,wl-rdm,182,574290,0.0-8.64-0.64,1.0,182.0,,,,,,,[],,,,,,56.4,0.0,u,0.0,True,1552.2999999988824,94.0,60.0,40.0,False,,254.84274539369918,[],"[680, 384]",ColorTask,104.0,65.0,,,HRV,HRV_0310,2022-11-30 22:13:22
,wl-rdm,183,576956,0.0-8.65-0.65,1.0,183.0,,,,,,,[],,,,,,50.0,0.0,i,1.0,False,1281.4000000003725,77.0,60.0,40.0,False,,313.6355392164144,[],"[680, 384]",ColorTask,103.0,66.0,,,HRV,HRV_0310,2022-11-30 22:13:22
,wl-rdm,184,580671,0.0-8.66-0.66,1.0,184.0,,,,,,,[],,,,,,50.0,0.0,u,0.0,True,2308.7000000011176,139.0,60.0,40.0,False,,328.8072445277137,[],"[680, 384]",ColorTask,104.0,67.0,,,HRV,HRV_0310,2022-11-30 22:13:22
,wl-rdm,185,582971,0.0-8.67-0.67,1.0,185.0,,,,,,,[],,,,,,56.4,1.0,i,1.0,True,888.0,54.0,60.0,40.0,False,,318.7573225054631,[],"[680, 384]",ColorTask,105.0,68.0,,,HRV,HRV_0310,2022-11-30 22:13:22
,wl-rdm,186,585203,0.0-8.68-0.68,1.0,186.0,,,,,,,[],,,,,,87.9,1.0,i,1.0,True,921.4000000003725,56.0,60.0,40.0,False,,229.80400417549603,[],"[680, 384]",ColorTask,106.0,69.0,,,HRV,HRV_0310,2022-11-30 22:13:22
,wl-rdm,187,587986,0.0-8.69-0.69,1.0,187.0,,,,,,,[],,,,,,53.2,0.0,u,0.0,True,1316.800000000745,80.0,60.0,40.0,False,,370.1489407615033,[],"[680, 384]",ColorTask,107.0,70.0,,,HRV,HRV_0310,2022-11-30 22:13:22
,wl-rdm,188,590069,0.0-8.70-0.70,1.0,188.0,,,,,,,[],,,,,,87.9,0.0,u,0.0,True,676.1000000014901,41.0,60.0,40.0,False,,328.50805518488494,[],"[680, 384]",ColorTask,108.0,71.0,,,HRV,HRV_0310,2022-11-30 22:13:22
,wl-rdm,189,592118,0.0-8.71-0.71,1.0,189.0,,,,,,,[],,,,,,87.9,1.0,i,1.0,True,660.9000000003725,40.0,60.0,40.0,False,,310.46021221445363,[],"[680, 384]",ColorTask,109.0,72.0,,,HRV,HRV_0310,2022-11-30 22:13:22
,wl-rdm,190,595434,0.0-8.72-0.72,1.0,190.0,,,,,,,[],,,,,,50.0,1.0,i,1.0,True,1918.5,116.0,60.0,40.0,False,,316.08281701386613,[],"[680, 384]",ColorTask,110.0,73.0,,,HRV,HRV_0310,2022-11-30 22:13:22
,wl-rdm,191,598267,0.0-8.73-0.73,1.0,191.0,,,,,,,[],,,,,,62.5,0.0,u,0.0,True,1491.800000000745,90.0,60.0,40.0,False,,260.84324227238073,[],"[680, 384]",ColorTask,111.0,74.0,,,HRV,HRV_0310,2022-11-30 22:13:22
,wl-rdm,192,600699,0.0-8.74-0.74,1.0,192.0,,,,,,,[],,,,,,73.6,0.0,u,0.0,True,978.4000000003725,59.0,60.0,40.0,False,,381.53550280032937,[],"[680, 384]",ColorTask,112.0,75.0,,,HRV,HRV_0310,2022-11-30 22:13:22
,wl-rdm,193,602866,0.0-8.75-0.75,1.0,193.0,,,,,,,[],,,,,,87.9,0.0,u,0.0,True,885.2000000011176,54.0,60.0,40.0,False,,204.01056366060257,[],"[680, 384]",ColorTask,113.0,76.0,,,HRV,HRV_0310,2022-11-30 22:13:22
,wl-rdm,194,605948,0.0-8.76-0.76,1.0,194.0,,,,,,,[],,,,,,62.5,0.0,u,0.0,True,1734.0,105.0,60.0,40.0,False,,262.6201592271282,[],"[680, 384]",ColorTask,114.0,77.0,,,HRV,HRV_0310,2022-11-30 22:13:22
,wl-rdm,195,609064,0.0-8.77-0.77,1.0,195.0,,,,,,,[],,,,,,62.5,1.0,i,1.0,True,1797.699999999255,108.0,60.0,40.0,False,,258.8063219660707,[],"[680, 384]",ColorTask,115.0,78.0,,,HRV,HRV_0310,2022-11-30 22:13:22
,wl-rdm,196,611363,0.0-8.78-0.78,1.0,196.0,,,,,,,[],,,,,,87.9,0.0,u,0.0,True,871.5,53.0,60.0,40.0,False,,339.80856967593616,[],"[680, 384]",ColorTask,116.0,79.0,,,HRV,HRV_0310,2022-11-30 22:13:22
,wl-rdm,197,614646,0.0-8.79-0.79,1.0,197.0,,,,,,,[],,,,,,56.4,0.0,u,0.0,True,1858.800000000745,112.0,60.0,40.0,False,,345.68867921456206,[],"[680, 384]",ColorTask,117.0,80.0,,,HRV,HRV_0310,2022-11-30 22:13:22
,wl-rdm,198,618778,0.0-8.80-0.80,1.0,198.0,,,,,,,[],,,,,,62.5,1.0,u,0.0,False,2797.800000000745,168.0,60.0,40.0,False,,258.6643944696524,[],"[680, 384]",ColorTask,116.0,81.0,,,HRV,HRV_0310,2022-11-30 22:13:22
,wl-rdm,199,622161,0.0-8.81-0.81,1.0,199.0,,,,,,,[],,,,,,53.2,0.0,i,1.0,False,1900.4000000003725,115.0,60.0,40.0,False,,386.6767149621395,[],"[680, 384]",ColorTask,115.0,82.0,,,HRV,HRV_0310,2022-11-30 22:13:22
,wl-rdm,200,625260,0.0-8.82-0.82,1.0,200.0,,,,,,,[],,,,,,53.2,0.0,u,0.0,True,1769.6000000014901,107.0,60.0,40.0,False,,247.10480380904232,[],"[680, 384]",ColorTask,116.0,83.0,,,HRV,HRV_0310,2022-11-30 22:13:22
,wl-rdm,201,628576,0.0-8.83-0.83,1.0,201.0,,,,,,,[],,,,,,53.2,0.0,u,0.0,True,1979.6000000014901,119.0,60.0,40.0,False,,254.53198287052467,[],"[680, 384]",ColorTask,117.0,84.0,,,HRV,HRV_0310,2022-11-30 22:13:22
,wl-rdm,202,630675,0.0-8.84-0.84,1.0,202.0,,,,,,,[],,,,,,87.9,1.0,i,1.0,True,672.5,41.0,60.0,40.0,False,,337.22475774038264,[],"[680, 384]",ColorTask,118.0,85.0,,,HRV,HRV_0310,2022-11-30 22:13:22
,wl-rdm,203,634391,0.0-8.85-0.85,1.0,203.0,,,,,,,[],,,,,,62.5,0.0,u,0.0,True,2266.699999999255,137.0,60.0,40.0,False,,362.88281171575136,[],"[680, 384]",ColorTask,119.0,86.0,,,HRV,HRV_0310,2022-11-30 22:13:22
,wl-rdm,204,636590,0.0-8.86-0.86,1.0,204.0,,,,,,,[],,,,,,50.0,0.0,i,1.0,False,748.0,45.0,60.0,40.0,False,,376.93689842529443,[],"[680, 384]",ColorTask,118.0,87.0,,,HRV,HRV_0310,2022-11-30 22:13:22
,wl-rdm,205,639956,0.0-8.87-0.87,1.0,205.0,,,,,,,[],,,,,,53.2,1.0,i,1.0,True,2014.7000000011176,121.0,60.0,40.0,False,,282.91107180663477,[],"[680, 384]",ColorTask,119.0,88.0,,,HRV,HRV_0310,2022-11-30 22:13:22
,wl-rdm,206,643006,0.0-8.88-0.88,1.0,206.0,,,,,,,[],,,,,,56.4,1.0,i,1.0,True,1658.2999999988824,100.0,60.0,40.0,False,,302.66411736559894,[],"[680, 384]",ColorTask,120.0,89.0,,,HRV,HRV_0310,2022-11-30 22:13:22
,wl-rdm,207,645355,0.0-8.89-0.89,1.0,207.0,,,,,,,[],,,,,,50.0,1.0,u,0.0,False,1046.5999999996275,63.0,60.0,40.0,False,,221.97663889862645,[],"[680, 384]",ColorTask,119.0,90.0,,,HRV,HRV_0310,2022-11-30 22:13:22
,wl-rdm,208,649221,0.0-8.90-0.90,1.0,208.0,,,,,,,[],,,,,,50.0,0.0,u,0.0,True,2516.9000000003725,152.0,60.0,40.0,False,,257.1609911882153,[],"[680, 384]",ColorTask,120.0,91.0,,,HRV,HRV_0310,2022-11-30 22:13:22
,wl-rdm,209,651370,0.0-8.91-0.91,1.0,209.0,,,,,,,[],,,,,,73.6,1.0,i,1.0,True,688.4000000003725,42.0,60.0,40.0,False,,369.7023092934829,[],"[680, 384]",ColorTask,121.0,92.0,,,HRV,HRV_0310,2022-11-30 22:13:22
,wl-rdm,210,653420,0.0-8.92-0.92,1.0,210.0,,,,,,,[],,,,,,73.6,1.0,i,1.0,True,690.9000000003725,42.0,60.0,40.0,False,,266.5440308389968,[],"[680, 384]",ColorTask,122.0,93.0,,,HRV,HRV_0310,2022-11-30 22:13:22
,wl-rdm,211,655586,0.0-8.93-0.93,1.0,211.0,,,,,,,[],,,,,,73.6,1.0,i,1.0,True,863.6999999992549,52.0,60.0,40.0,False,,228.0244072278632,[],"[680, 384]",ColorTask,123.0,94.0,,,HRV,HRV_0310,2022-11-30 22:13:22
,wl-rdm,212,657969,0.0-8.94-0.94,1.0,212.0,,,,,,,[],,,,,,73.6,1.0,i,1.0,True,1021.5999999996275,62.0,60.0,40.0,False,,277.8248544074835,[],"[680, 384]",ColorTask,124.0,95.0,,,HRV,HRV_0310,2022-11-30 22:13:22
,wl-rdm,213,660051,0.0-8.95-0.95,1.0,213.0,,,,,,,[],,,,,,87.9,1.0,i,1.0,True,680.6000000014901,41.0,60.0,40.0,False,,316.8966989707169,[],"[680, 384]",ColorTask,125.0,96.0,,,HRV,HRV_0310,2022-11-30 22:13:22
,wl-rdm,214,662417,0.0-8.96-0.96,1.0,214.0,,,,,,,[],,,,,,73.6,0.0,u,0.0,True,984.0,60.0,60.0,40.0,False,,287.6048960521272,[],"[680, 384]",ColorTask,126.0,97.0,,,HRV,HRV_0310,2022-11-30 22:13:22
,wl-rdm,215,666016,0.0-8.97-0.97,1.0,215.0,,,,,,,[],,,,,,56.4,0.0,i,1.0,False,2262.5,136.0,60.0,40.0,False,,252.35559605234238,[],"[680, 384]",ColorTask,125.0,98.0,,,HRV,HRV_0310,2022-11-30 22:13:22
,wl-rdm,216,668116,0.0-8.98-0.98,1.0,216.0,,,,,,,[],,,,,,56.4,1.0,i,1.0,True,620.0,38.0,60.0,40.0,False,,388.44793508514226,[],"[680, 384]",ColorTask,126.0,99.0,,,HRV,HRV_0310,2022-11-30 22:13:22
,wl-rdm,217,670349,0.0-8.99-0.99,1.0,217.0,,,,,,,[],,,,,,62.5,1.0,i,1.0,True,870.2000000011176,53.0,60.0,40.0,False,,268.7903455357431,[],"[680, 384]",ColorTask,127.0,100.0,,,HRV,HRV_0310,2022-11-30 22:13:22
,wl-rdm,218,672981,0.0-8.100-0.100,1.0,218.0,,,,,,,[],,,,,,53.2,1.0,i,1.0,True,1291.8999999985099,78.0,60.0,40.0,False,,250.68019575270895,[],"[680, 384]",ColorTask,128.0,101.0,,,HRV,HRV_0310,2022-11-30 22:13:22
,wl-rdm,219,676247,0.0-8.101-0.101,1.0,219.0,,,,,,,[],,,,,,62.5,0.0,u,0.0,True,1906.7000000011176,115.0,60.0,40.0,False,,270.3220131180246,[],"[680, 384]",ColorTask,129.0,102.0,,,HRV,HRV_0310,2022-11-30 22:13:22
,wl-rdm,220,678380,0.0-8.102-0.102,1.0,220.0,,,,,,,[],,,,,,87.9,1.0,i,1.0,True,806.1000000014901,49.0,60.0,40.0,False,,235.0298146918447,[],"[680, 384]",ColorTask,130.0,103.0,,,HRV,HRV_0310,2022-11-30 22:13:22
,wl-rdm,221,680430,0.0-8.103-0.103,1.0,221.0,,,,,,,[],,,,,,50.0,1.0,u,0.0,False,723.4000000003725,44.0,60.0,40.0,False,,242.06107562158883,[],"[680, 384]",ColorTask,129.0,104.0,,,HRV,HRV_0310,2022-11-30 22:13:22
,wl-rdm,222,682562,0.0-8.104-0.104,1.0,222.0,,,,,,,[],,,,,,73.6,0.0,u,0.0,True,756.0,46.0,60.0,40.0,False,,296.11837569551545,[],"[680, 384]",ColorTask,130.0,105.0,,,HRV,HRV_0310,2022-11-30 22:13:22
,wl-rdm,223,685662,0.0-8.105-0.105,1.0,223.0,,,,,,,[],,,,,,62.5,1.0,i,1.0,True,1729.0999999996275,104.0,60.0,40.0,False,,287.0790980559012,[],"[680, 384]",ColorTask,131.0,106.0,,,HRV,HRV_0310,2022-11-30 22:13:22
,wl-rdm,224,688894,0.0-8.106-0.106,1.0,224.0,,,,,,,[],,,,,,56.4,1.0,i,1.0,True,1841.4000000003725,111.0,60.0,40.0,False,,309.45819819500514,[],"[680, 384]",ColorTask,132.0,107.0,,,HRV,HRV_0310,2022-11-30 22:13:22
,wl-rdm,225,691010,0.0-8.107-0.107,1.0,225.0,,,,,,,[],,,,,,87.9,1.0,i,1.0,True,820.6000000014901,50.0,60.0,40.0,False,,212.83438075752446,[],"[680, 384]",ColorTask,133.0,108.0,,,HRV,HRV_0310,2022-11-30 22:13:22
,wl-html-button-response,226,695748,0.0-9.0-0.0,,,,,,,,,,4735.299999998882,,0,,,,,,,,,,,,,,,,,,,,<h3>End of this session. Thank you!</h3><br>,['Close window'],HRV,HRV_0310,2022-11-30 22:13:22
