success,trial_type,trial_index,time_elapsed,internal_node_id,Block,TrialNumber,TrialTime,trialTimeDiff,FPS_avg,FPS_med,FPS_mode,TrialDur,winResizeTime,rt,block,button_pressed,MotCoh,MotDir,ColCoh,Color,ChoiceKey,Choice,Accuracy,RT,nFrames,FPS,PPD,missTrial,missTrialMsg,onsetDelay,fullScreenExitTime,canvCenter,TrialType,Score,BlockTrial,stimulus,button_labels,exp,subjectId,date
True,fullscreen,0,2370,0.0-0.0,0.0,1.0,,,,,,,,,,,,,,,,,,,,,,,,,,,,,,,,HRV,HRV_0196,2022-11-30 18:45:21
,wl-check-fps,1,12203,0.0-1.0,0.0,2.0,"[7925.7, 7928, 7942.6, 7963.2, 7978.3, 7992.3, 8011.4, 8027.9, 8042.6, 8059.5, 8077.8, 8092.5, 8109.3, 8127.4, 8142.6, 8159.4, 8176.2, 8194.8, 8210.9, 8228.3, 8245.1, 8260.9, 8275.7, 8293.2, 8311, 8326, 8344.3, 8361.1, 8376.4, 8393.7, 8409.6, 8426.7, 8442.8, 8463.1, 8479.9, 8496.6, 8530.8, 8531.3, 8542.9, 8559.7, 8578, 8593.3, 8611.3, 8626.3, 8643.4, 8662.3, 8676.3, 8694, 8712.5, 8729.1, 8743.3, 8763.4, 8776.3, 8794.3, 8809.9, 8826.9, 8842.9, 8860.5, 8878.1, 8893.5, 8912.6, 8926.6, 8943.6, 8961.2, 8978.5, 8993.8, 9010.7, 9027.3, 9044.1, 9062, 9080, 9097.6, 9117, 9130.4, 9146.6, 9172.6, 9179.8, 9194.2, 9210.3, 9228.6, 9243.9, 9261.9, 9276.9, 9294.8, 9310.1, 9327.2, 9343.5, 9360.7, 9378.3, 9394.2, 9411.7, 9430.1, 9444.2, 9461.5, 9480.5, 9496.9, 9511.7, 9528.2, 9546.5, 9563.2, 9577.8, 9595.9, 9610.5, 9627.6, 9645.1, 9662.4, 9679.9, 9696.3, 9710.4, 9727.5, 9745.9, 9760.6, 9780.1, 9806.4, 9813, 9827.3, 9844.4, 9863, 9877.5, 9895.5, 9911.3, 9930.1, 9945.7, 9965.6, 9980.2, 9994.5, 10012.4, 10028.8, 10044.6, 10061.4, 10080.2, 10094.7, 10114.2, 10128.2, 10149, 10164.5, 10180.6, 10197, 10213.1, 10228.8, 10244.9, 10262, 10277.8, 10294.8, 10312.6, 10328.2, 10345.1, 10362.3, 10380.5, 10395.2, 10412.5, 10428.4, 10446.8, 10464, 10479.9, 10496.3, 10514.3, 10531.2, 10545.9, 10561.6, 10580.9, 10595.2, 10613.8, 10631.3, 10646, 10662.6, 10679.7, 10696.4, 10713.9, 10730.6, 10745.6, 10764.6, 10780.6, 10795.3, 10813.7, 10830, 10845.2, 10862.5, 10879.5, 10895.5, 10913.7, 10932.4, 10946.1, 10964.7, 10980.3, 10997.1, 11012.5, 11029.5, 11045.4, 11062.3, 11081.2, 11097.1, 11112.6, 11129.4, 11148, 11165.4, 11179.3, 11197.4, 11212.8, 11230, 11247.8, 11264.6, 11281.7, 11297.1, 11312.5, 11329, 11346, 11364.6, 11379.5, 11397.1, 11412.9, 11430.8, 11447.8, 11463.4, 11479.6, 11496.4, 11513.3, 11530.5, 11548.2, 11563.8, 11582, 11598.4, 11615.3, 11630.3, 11647.8, 11665.3, 11682.2, 11696.7, 11715.7, 11730, 11746.7, 11764.2, 11779.5, 11798.9, 11815.5, 11831.8, 11849, 11863.7, 11880.5, 11898.8, 11913.3, 11931.6, 11947.6, 11963.3, 11980.6, 11997.7, 12014.1, 12030.7, 12049.3, 12063.6, 12082.5, 12098.3, 12113.5, 12132.3, 12149.7, 12164.3, 12181.2, 12198.1, 12213.8, 12231.7, 12247.8, 12265.4, 12280.2, 12297.8, 12313.5, 12332, 12348.4, 12363.8, 12383.1, 12397.2, 12414.1, 12432, 12447.5, 12464.7, 12481.8, 12498, 12515.5, 12530.5, 12547.5, 12566.3, 12581.7, 12597.5, 12614.5, 12630.7, 12647.9, 12665, 12680.8, 12699.9, 12717, 12730.9, 12747.9, 12765.2, 12780.9, 12798.1, 12814.2, 12831.2, 12848.3, 12864.3, 12881.3, 12900.3]","[1.3, 2.3, 14.6, 20.6, 15.1, 14, 19.1, 16.5, 14.7, 16.9, 18.3, 14.7, 16.8, 18.1, 15.2, 16.8, 16.8, 18.6, 16.1, 17.4, 16.8, 15.8, 14.8, 17.5, 17.8, 15, 18.3, 16.8, 15.3, 17.3, 15.9, 17.1, 16.1, 20.3, 16.8, 16.7, 34.2, 0.5, 11.6, 16.8, 18.3, 15.3, 18, 15, 17.1, 18.9, 14, 17.7, 18.5, 16.6, 14.2, 20.1, 12.9, 18, 15.6, 17, 16, 17.6, 17.6, 15.4, 19.1, 14, 17, 17.6, 17.3, 15.3, 16.9, 16.6, 16.8, 17.9, 18, 17.6, 19.4, 13.4, 16.2, 26, 7.2, 14.4, 16.1, 18.3, 15.3, 18, 15, 17.9, 15.3, 17.1, 16.3, 17.2, 17.6, 15.9, 17.5, 18.4, 14.1, 17.3, 19, 16.4, 14.8, 16.5, 18.3, 16.7, 14.6, 18.1, 14.6, 17.1, 17.5, 17.3, 17.5, 16.4, 14.1, 17.1, 18.4, 14.7, 19.5, 26.3, 6.6, 14.3, 17.1, 18.6, 14.5, 18, 15.8, 18.8, 15.6, 19.9, 14.6, 14.3, 17.9, 16.4, 15.8, 16.8, 18.8, 14.5, 19.5, 14, 20.8, 15.5, 16.1, 16.4, 16.1, 15.7, 16.1, 17.1, 15.8, 17, 17.8, 15.6, 16.9, 17.2, 18.2, 14.7, 17.3, 15.9, 18.4, 17.2, 15.9, 16.4, 18, 16.9, 14.7, 15.7, 19.3, 14.3, 18.6, 17.5, 14.7, 16.6, 17.1, 16.7, 17.5, 16.7, 15, 19, 16, 14.7, 18.4, 16.3, 15.2, 17.3, 17, 16, 18.2, 18.7, 13.7, 18.6, 15.6, 16.8, 15.4, 17, 15.9, 16.9, 18.9, 15.9, 15.5, 16.8, 18.6, 17.4, 13.9, 18.1, 15.4, 17.2, 17.8, 16.8, 17.1, 15.4, 15.4, 16.5, 17, 18.6, 14.9, 17.6, 15.8, 17.9, 17, 15.6, 16.2, 16.8, 16.9, 17.2, 17.7, 15.6, 18.2, 16.4, 16.9, 15, 17.5, 17.5, 16.9, 14.5, 19, 14.3, 16.7, 17.5, 15.3, 19.4, 16.6, 16.3, 17.2, 14.7, 16.8, 18.3, 14.5, 18.3, 16, 15.7, 17.3, 17.1, 16.4, 16.6, 18.6, 14.3, 18.9, 15.8, 15.2, 18.8, 17.4, 14.6, 16.9, 16.9, 15.7, 17.9, 16.1, 17.6, 14.8, 17.6, 15.7, 18.5, 16.4, 15.4, 19.3, 14.1, 16.9, 17.9, 15.5, 17.2, 17.1, 16.2, 17.5, 15, 17, 18.8, 15.4, 15.8, 17, 16.2, 17.2, 17.1, 15.8, 19.1, 17.1, 13.9, 17, 17.3, 15.7, 17.2, 16.1, 17, 17.1, 16, 17, 19]",60.0,63.0,59.0,4990.4,[],,,,,,,,,,,,,,,,,,,,,,,,,HRV,HRV_0196,2022-11-30 18:45:21
,wl-html-keyboard-response,2,27456,0.0-2.0-0.0,0.0,3.0,,,,,,,,13237.400000095367,0.0,0,,,,,,,,,,,,,,,,,,,,,,HRV,HRV_0196,2022-11-30 18:45:21
,wl-rdm,3,34537,0.0-3.0-0.0,0.0,4.0,,,,,,,[],,,,0.0,0.0,87.9,0.0,u,0.0,True,1511.0000002384186,91.0,59.0,40.0,False,,3000.0,[],"[960, 540]",ColorTask_Demo,,,,,HRV,HRV_0196,2022-11-30 18:45:21
,wl-rdm,4,39422,0.0-3.0-1.0,0.0,5.0,,,,,,,[],,,,0.0,0.0,87.9,1.0,i,1.0,True,809.5000002384186,49.0,59.0,40.0,False,,2000.0,[],"[960, 540]",ColorTask_Demo,,,,,HRV,HRV_0196,2022-11-30 18:45:21
,wl-html-keyboard-response,5,47300,0.0-3.0-2.0,0.0,6.0,,,,,,,,5863.399999856949,0.0,1,,,,,,,,,,,,,,,,,,,,,,HRV,HRV_0196,2022-11-30 18:45:21
,wl-html-keyboard-response,6,55052,0.0-4.0-0.0,0.0,7.0,,,,,,,,5739.200000047684,0.0,0,,,,,,,,,,,,,,,,,,,,,,HRV,HRV_0196,2022-11-30 18:45:21
,wl-html-keyboard-response,7,70056,0.0-5.0-0.0,0.0,8.0,,,,,,,,12999.799999952316,0.0,0,,,,,,,,,,,,,,,,,,,,,,HRV,HRV_0196,2022-11-30 18:45:21
,wl-rdm,8,72091,0.0-6.0-0.0,0.0,9.0,,,,,,,[],,,,,,73.6,1.0,i,1.0,True,627.4000000953674,38.0,59.0,40.0,False,,348.26928906464417,[],"[960, 540]",ColorTask,1.0,1.0,,,HRV,HRV_0196,2022-11-30 18:45:21
,wl-rdm,9,74294,0.0-6.1-0.1,0.0,10.0,,,,,,,[],,,,,,87.9,0.0,u,0.0,True,829.9000000953674,50.0,59.0,40.0,False,,308.4683368662603,[],"[960, 540]",ColorTask,2.0,2.0,,,HRV,HRV_0196,2022-11-30 18:45:21
,wl-rdm,10,76463,0.0-6.2-0.2,0.0,11.0,,,,,,,[],,,,,,53.2,1.0,i,1.0,True,878.9000000953674,53.0,59.0,40.0,False,,225.10453780103683,[],"[960, 540]",ColorTask,3.0,3.0,,,HRV,HRV_0196,2022-11-30 18:45:21
,wl-rdm,11,78649,0.0-6.3-0.3,0.0,12.0,,,,,,,[],,,,,,53.2,0.0,u,0.0,True,794.8999998569489,48.0,59.0,40.0,False,,328.62588846825236,[],"[960, 540]",ColorTask,4.0,4.0,,,HRV,HRV_0196,2022-11-30 18:45:21
,wl-rdm,12,80970,0.0-6.4-0.4,0.0,13.0,,,,,,,[],,,,,,50.0,0.0,u,0.0,True,954.7999999523163,58.0,59.0,40.0,False,,284.59841627735466,[],"[960, 540]",ColorTask,5.0,5.0,,,HRV,HRV_0196,2022-11-30 18:45:21
,wl-rdm,13,82955,0.0-6.5-0.5,0.0,14.0,,,,,,,[],,,,,,73.6,0.0,u,0.0,True,592.0999999046326,36.0,59.0,40.0,False,,307.46543813217136,[],"[960, 540]",ColorTask,6.0,6.0,,,HRV,HRV_0196,2022-11-30 18:45:21
,wl-rdm,14,84807,0.0-6.6-0.6,0.0,15.0,,,,,,,[],,,,,,56.4,1.0,i,1.0,True,559.0999999046326,34.0,59.0,40.0,False,,218.20334041952475,[],"[960, 540]",ColorTask,7.0,7.0,,,HRV,HRV_0196,2022-11-30 18:45:21
,wl-rdm,15,86696,0.0-6.7-0.7,0.0,16.0,,,,,,,[],,,,,,56.4,0.0,i,1.0,False,591.4000000953674,36.0,59.0,40.0,False,,213.0535550269163,[],"[960, 540]",ColorTask,6.0,8.0,,,HRV,HRV_0196,2022-11-30 18:45:21
,wl-rdm,16,88760,0.0-6.8-0.8,0.0,17.0,,,,,,,[],,,,,,56.4,1.0,i,1.0,True,642.8999998569489,39.0,59.0,40.0,False,,361.65004499035257,[],"[960, 540]",ColorTask,7.0,9.0,,,HRV,HRV_0196,2022-11-30 18:45:21
,wl-rdm,17,90747,0.0-6.9-0.9,0.0,18.0,,,,,,,[],,,,,,73.6,0.0,i,1.0,False,668.7999999523163,41.0,59.0,40.0,False,,236.84549737861667,[],"[960, 540]",ColorTask,6.0,10.0,,,HRV,HRV_0196,2022-11-30 18:45:21
,wl-rdm,18,92898,0.0-6.10-0.10,0.0,19.0,,,,,,,[],,,,,,50.0,0.0,i,1.0,False,807.0,49.0,59.0,40.0,False,,266.54234120201994,[],"[960, 540]",ColorTask,5.0,11.0,,,HRV,HRV_0196,2022-11-30 18:45:21
,wl-rdm,19,94751,0.0-6.11-0.11,0.0,20.0,,,,,,,[],,,,,,87.9,0.0,u,0.0,True,563.7999999523163,34.0,59.0,40.0,False,,232.57437343171776,[],"[960, 540]",ColorTask,6.0,12.0,,,HRV,HRV_0196,2022-11-30 18:45:21
,wl-rdm,20,96785,0.0-6.12-0.12,0.0,21.0,,,,,,,[],,,,,,53.2,1.0,u,0.0,False,607.8999998569489,37.0,59.0,40.0,False,,347.49733191895206,[],"[960, 540]",ColorTask,5.0,13.0,,,HRV,HRV_0196,2022-11-30 18:45:21
,wl-rdm,21,98737,0.0-6.13-0.13,0.0,22.0,,,,,,,[],,,,,,62.5,1.0,i,1.0,True,542.2000000476837,33.0,59.0,40.0,False,,333.74628412472686,[],"[960, 540]",ColorTask,6.0,14.0,,,HRV,HRV_0196,2022-11-30 18:45:21
,wl-rdm,22,100756,0.0-6.14-0.14,0.0,23.0,,,,,,,[],,,,,,50.0,1.0,i,1.0,True,698.0,42.0,59.0,40.0,False,,259.4498757126185,[],"[960, 540]",ColorTask,7.0,15.0,,,HRV,HRV_0196,2022-11-30 18:45:21
,wl-rdm,23,102677,0.0-6.15-0.15,0.0,24.0,,,,,,,[],,,,,,62.5,0.0,i,1.0,False,593.0,36.0,59.0,40.0,False,,247.0499838063771,[],"[960, 540]",ColorTask,6.0,16.0,,,HRV,HRV_0196,2022-11-30 18:45:21
,wl-rdm,24,104628,0.0-6.16-0.16,0.0,25.0,,,,,,,[],,,,,,56.4,0.0,u,0.0,True,580.2000000476837,34.0,59.0,40.0,False,,315.42775134088794,[],"[960, 540]",ColorTask,7.0,17.0,,,HRV,HRV_0196,2022-11-30 18:45:21
,wl-rdm,25,106579,0.0-6.17-0.17,0.0,26.0,,,,,,,[],,,,,,50.0,1.0,u,0.0,False,498.2000000476837,30.0,59.0,40.0,False,,382.11068831899433,[],"[960, 540]",ColorTask,6.0,18.0,,,HRV,HRV_0196,2022-11-30 18:45:21
,wl-rdm,26,108531,0.0-6.18-0.18,0.0,27.0,,,,,,,[],,,,,,62.5,0.0,i,1.0,False,514.3999998569489,31.0,59.0,40.0,False,,371.823194026031,[],"[960, 540]",ColorTask,5.0,19.0,,,HRV,HRV_0196,2022-11-30 18:45:21
,wl-rdm,27,110384,0.0-6.19-0.19,0.0,28.0,,,,,,,[],,,,,,53.2,0.0,u,0.0,True,578.1000001430511,35.0,59.0,40.0,False,,204.87492199844618,[],"[960, 540]",ColorTask,6.0,20.0,,,HRV,HRV_0196,2022-11-30 18:45:21
,wl-rdm,28,112252,0.0-6.20-0.20,0.0,29.0,,,,,,,[],,,,,,73.6,0.0,u,0.0,True,492.60000014305115,30.0,59.0,40.0,False,,310.00066026518346,[],"[960, 540]",ColorTask,7.0,21.0,,,HRV,HRV_0196,2022-11-30 18:45:21
,wl-rdm,29,114122,0.0-6.21-0.21,0.0,30.0,,,,,,,[],,,,,,56.4,1.0,u,0.0,False,560.7000000476837,34.0,59.0,40.0,False,,217.64949468920943,[],"[960, 540]",ColorTask,6.0,22.0,,,HRV,HRV_0196,2022-11-30 18:45:21
,wl-rdm,30,115941,0.0-6.22-0.22,0.0,31.0,,,,,,,[],,,,,,53.2,1.0,u,0.0,False,497.2999999523163,30.0,59.0,40.0,False,,244.11177206737892,[],"[960, 540]",ColorTask,5.0,23.0,,,HRV,HRV_0196,2022-11-30 18:45:21
,wl-rdm,31,117825,0.0-6.23-0.23,0.0,32.0,,,,,,,[],,,,,,62.5,1.0,i,1.0,True,522.5999999046326,32.0,59.0,40.0,False,,274.3208915609937,[],"[960, 540]",ColorTask,6.0,24.0,,,HRV,HRV_0196,2022-11-30 18:45:21
,wl-rdm,32,119777,0.0-6.24-0.24,0.0,33.0,,,,,,,[],,,,,,73.6,1.0,i,1.0,True,509.39999985694885,31.0,59.0,40.0,False,,367.9489038597733,[],"[960, 540]",ColorTask,7.0,25.0,,,HRV,HRV_0196,2022-11-30 18:45:21
,wl-rdm,33,121846,0.0-6.25-0.25,0.0,34.0,,,,,,,[],,,,,,73.6,1.0,i,1.0,True,623.7999999523163,38.0,59.0,40.0,False,,353.14694495688553,[],"[960, 540]",ColorTask,8.0,26.0,,,HRV,HRV_0196,2022-11-30 18:45:21
,wl-rdm,34,123668,0.0-6.26-0.26,0.0,35.0,,,,,,,[],,,,,,73.6,1.0,i,1.0,True,496.5,30.0,59.0,40.0,False,,261.32400574824175,[],"[960, 540]",ColorTask,9.0,27.0,,,HRV,HRV_0196,2022-11-30 18:45:21
,wl-rdm,35,125656,0.0-6.27-0.27,0.0,36.0,,,,,,,[],,,,,,53.2,1.0,i,1.0,True,594.2999999523163,36.0,59.0,40.0,False,,322.5838624483969,[],"[960, 540]",ColorTask,10.0,28.0,,,HRV,HRV_0196,2022-11-30 18:45:21
,wl-rdm,36,127521,0.0-6.28-0.28,0.0,37.0,,,,,,,[],,,,,,50.0,0.0,i,1.0,False,594.8999998569489,36.0,59.0,40.0,False,,201.86520721914133,[],"[960, 540]",ColorTask,9.0,29.0,,,HRV,HRV_0196,2022-11-30 18:45:21
,wl-rdm,37,129490,0.0-6.29-0.29,0.0,38.0,,,,,,,[],,,,,,73.6,0.0,i,1.0,False,605.7999999523163,37.0,59.0,40.0,False,,299.32768338799406,[],"[960, 540]",ColorTask,8.0,30.0,,,HRV,HRV_0196,2022-11-30 18:45:21
,wl-rdm,38,131374,0.0-6.30-0.30,0.0,39.0,,,,,,,[],,,,,,73.6,1.0,i,1.0,True,578.2000000476837,35.0,59.0,40.0,False,,244.16220204054002,[],"[960, 540]",ColorTask,9.0,31.0,,,HRV,HRV_0196,2022-11-30 18:45:21
,wl-rdm,39,133561,0.0-6.31-0.31,0.0,40.0,,,,,,,[],,,,,,56.4,0.0,i,1.0,False,762.3999998569489,46.0,59.0,40.0,False,,354.39831787784954,[],"[960, 540]",ColorTask,8.0,32.0,,,HRV,HRV_0196,2022-11-30 18:45:21
,wl-rdm,40,135361,0.0-6.32-0.32,0.0,41.0,,,,,,,[],,,,,,50.0,1.0,u,0.0,False,495.89999985694885,30.0,59.0,40.0,False,,246.84863945964855,[],"[960, 540]",ColorTask,7.0,33.0,,,HRV,HRV_0196,2022-11-30 18:45:21
,wl-rdm,41,137134,0.0-6.33-0.33,0.0,42.0,,,,,,,[],,,,,,53.2,1.0,i,1.0,True,474.7000000476837,29.0,59.0,40.0,False,,228.680543480891,[],"[960, 540]",ColorTask,8.0,34.0,,,HRV,HRV_0196,2022-11-30 18:45:21
,wl-rdm,42,138916,0.0-6.34-0.34,0.0,43.0,,,,,,,[],,,,,,50.0,1.0,i,1.0,True,475.60000014305115,29.0,59.0,40.0,False,,239.61394574454724,[],"[960, 540]",ColorTask,9.0,35.0,,,HRV,HRV_0196,2022-11-30 18:45:21
,wl-rdm,43,140917,0.0-6.35-0.35,0.0,44.0,,,,,,,[],,,,,,87.9,0.0,i,1.0,False,596.900000333786,36.0,59.0,40.0,False,,339.5464739754619,[],"[960, 540]",ColorTask,8.0,36.0,,,HRV,HRV_0196,2022-11-30 18:45:21
,wl-rdm,44,142988,0.0-6.36-0.36,0.0,45.0,,,,,,,[],,,,,,87.9,1.0,i,1.0,True,665.8999998569489,40.0,59.0,40.0,False,,332.33092141871566,[],"[960, 540]",ColorTask,9.0,37.0,,,HRV,HRV_0196,2022-11-30 18:45:21
,wl-rdm,45,144971,0.0-6.37-0.37,0.0,46.0,,,,,,,[],,,,,,62.5,0.0,i,1.0,False,681.2999999523163,41.0,59.0,40.0,False,,244.7712273751149,[],"[960, 540]",ColorTask,8.0,38.0,,,HRV,HRV_0196,2022-11-30 18:45:21
,wl-rdm,46,146807,0.0-6.38-0.38,0.0,47.0,,,,,,,[],,,,,,56.4,0.0,i,1.0,False,464.4999997615814,28.0,59.0,40.0,False,,294.6725007333358,[],"[960, 540]",ColorTask,7.0,39.0,,,HRV,HRV_0196,2022-11-30 18:45:21
,wl-rdm,47,148912,0.0-6.39-0.39,0.0,48.0,,,,,,,[],,,,,,53.2,0.0,i,1.0,False,706.7999999523163,43.0,59.0,40.0,False,,288.32830557204863,[],"[960, 540]",ColorTask,6.0,40.0,,,HRV,HRV_0196,2022-11-30 18:45:21
,wl-rdm,48,150846,0.0-6.40-0.40,0.0,49.0,,,,,,,[],,,,,,73.6,1.0,i,1.0,True,662.5999999046326,40.0,59.0,40.0,False,,207.64449059121884,[],"[960, 540]",ColorTask,7.0,41.0,,,HRV,HRV_0196,2022-11-30 18:45:21
,wl-rdm,49,152915,0.0-6.41-0.41,0.0,50.0,,,,,,,[],,,,,,73.6,1.0,i,1.0,True,610.2000000476837,37.0,59.0,40.0,False,,366.3932389297079,[],"[960, 540]",ColorTask,8.0,42.0,,,HRV,HRV_0196,2022-11-30 18:45:21
,wl-rdm,50,154749,0.0-6.42-0.42,0.0,51.0,,,,,,,[],,,,,,62.5,1.0,i,1.0,True,513.5,31.0,59.0,40.0,False,,266.6181823142931,[],"[960, 540]",ColorTask,9.0,43.0,,,HRV,HRV_0196,2022-11-30 18:45:21
,wl-rdm,51,156837,0.0-6.43-0.43,0.0,52.0,,,,,,,[],,,,,,62.5,1.0,i,1.0,True,642.7000000476837,39.0,59.0,40.0,False,,365.1198401134925,[],"[960, 540]",ColorTask,10.0,44.0,,,HRV,HRV_0196,2022-11-30 18:45:21
,wl-rdm,52,158908,0.0-6.44-0.44,0.0,53.0,,,,,,,[],,,,,,62.5,1.0,i,1.0,True,662.0000002384186,40.0,59.0,40.0,False,,319.395860863191,[],"[960, 540]",ColorTask,11.0,45.0,,,HRV,HRV_0196,2022-11-30 18:45:21
,wl-rdm,53,160990,0.0-6.45-0.45,0.0,54.0,,,,,,,[],,,,,,87.9,0.0,u,0.0,True,780.0,47.0,59.0,40.0,False,,249.7611799821339,[],"[960, 540]",ColorTask,12.0,46.0,,,HRV,HRV_0196,2022-11-30 18:45:21
,wl-rdm,54,163143,0.0-6.46-0.46,0.0,55.0,,,,,,,[],,,,,,50.0,0.0,u,0.0,True,876.0,53.0,59.0,40.0,False,,213.67395360177454,[],"[960, 540]",ColorTask,13.0,47.0,,,HRV,HRV_0196,2022-11-30 18:45:21
,wl-rdm,55,164960,0.0-6.47-0.47,0.0,56.0,,,,,,,[],,,,,,62.5,0.0,u,0.0,True,507.09999990463257,31.0,59.0,40.0,False,,247.38439596939963,[],"[960, 540]",ColorTask,14.0,48.0,,,HRV,HRV_0196,2022-11-30 18:45:21
,wl-rdm,56,166946,0.0-6.48-0.48,0.0,57.0,,,,,,,[],,,,,,87.9,1.0,i,1.0,True,610.1000001430511,37.0,59.0,40.0,False,,307.95365684327953,[],"[960, 540]",ColorTask,15.0,49.0,,,HRV,HRV_0196,2022-11-30 18:45:21
,wl-rdm,57,168834,0.0-6.49-0.49,0.0,58.0,,,,,,,[],,,,,,50.0,1.0,i,1.0,True,593.3999998569489,36.0,59.0,40.0,False,,214.89720987347494,[],"[960, 540]",ColorTask,16.0,50.0,,,HRV,HRV_0196,2022-11-30 18:45:21
,wl-rdm,58,171034,0.0-6.50-0.50,0.0,59.0,,,,,,,[],,,,,,56.4,0.0,u,0.0,True,794.7000000476837,48.0,59.0,40.0,False,,350.3061662409996,[],"[960, 540]",ColorTask,17.0,51.0,,,HRV,HRV_0196,2022-11-30 18:45:21
,wl-rdm,59,172971,0.0-6.51-0.51,0.0,60.0,,,,,,,[],,,,,,73.6,1.0,i,1.0,True,627.2999999523163,38.0,59.0,40.0,False,,242.4511873446837,[],"[960, 540]",ColorTask,18.0,52.0,,,HRV,HRV_0196,2022-11-30 18:45:21
,wl-rdm,60,175071,0.0-6.52-0.52,0.0,61.0,,,,,,,[],,,,,,56.4,0.0,i,1.0,False,727.9000000953674,44.0,59.0,40.0,False,,313.59352343265977,[],"[960, 540]",ColorTask,17.0,53.0,,,HRV,HRV_0196,2022-11-30 18:45:21
,wl-rdm,61,176924,0.0-6.53-0.53,0.0,62.0,,,,,,,[],,,,,,87.9,1.0,i,1.0,True,546.0,34.0,59.0,40.0,False,,208.3560488747518,[],"[960, 540]",ColorTask,18.0,54.0,,,HRV,HRV_0196,2022-11-30 18:45:21
,wl-rdm,62,178908,0.0-6.54-0.54,0.0,63.0,,,,,,,[],,,,,,62.5,1.0,i,1.0,True,697.0,42.0,59.0,40.0,False,,232.30927009675293,[],"[960, 540]",ColorTask,19.0,55.0,,,HRV,HRV_0196,2022-11-30 18:45:21
,wl-rdm,63,180878,0.0-6.55-0.55,0.0,64.0,,,,,,,[],,,,,,87.9,0.0,i,1.0,False,645.2000000476837,39.0,59.0,40.0,False,,251.97042322143562,[],"[960, 540]",ColorTask,18.0,56.0,,,HRV,HRV_0196,2022-11-30 18:45:21
,wl-rdm,64,183033,0.0-6.56-0.56,0.0,65.0,,,,,,,[],,,,,,50.0,0.0,u,0.0,True,706.6000001430511,43.0,59.0,40.0,False,,368.2839192873058,[],"[960, 540]",ColorTask,19.0,57.0,,,HRV,HRV_0196,2022-11-30 18:45:21
,wl-rdm,65,185200,0.0-6.57-0.57,0.0,66.0,,,,,,,[],,,,,,73.6,0.0,u,0.0,True,893.4999997615814,54.0,59.0,40.0,False,,215.7438780521645,[],"[960, 540]",ColorTask,20.0,58.0,,,HRV,HRV_0196,2022-11-30 18:45:21
,wl-rdm,66,187104,0.0-6.58-0.58,0.0,67.0,,,,,,,[],,,,,,87.9,1.0,i,1.0,True,612.7999999523163,37.0,59.0,40.0,False,,221.78795826485532,[],"[960, 540]",ColorTask,21.0,59.0,,,HRV,HRV_0196,2022-11-30 18:45:21
,wl-rdm,67,189737,0.0-6.59-0.59,0.0,68.0,,,,,,,[],,,,,,62.5,0.0,u,0.0,True,1207.1000001430511,73.0,59.0,40.0,False,,359.00879955018934,[],"[960, 540]",ColorTask,22.0,60.0,,,HRV,HRV_0196,2022-11-30 18:45:21
,wl-rdm,68,192490,0.0-6.60-0.60,0.0,69.0,,,,,,,[],,,,,,53.2,0.0,i,1.0,False,1317.8000001907349,79.0,59.0,40.0,False,,351.6794447586019,[],"[960, 540]",ColorTask,21.0,61.0,,,HRV,HRV_0196,2022-11-30 18:45:21
,wl-rdm,69,195294,0.0-6.61-0.61,0.0,70.0,,,,,,,[],,,,,,73.6,0.0,u,0.0,True,1445.099999666214,87.0,59.0,40.0,False,,291.85171705081166,[],"[960, 540]",ColorTask,22.0,62.0,,,HRV,HRV_0196,2022-11-30 18:45:21
,wl-rdm,70,199669,0.0-6.62-0.62,0.0,71.0,,,,,,,[],,,,,,50.0,0.0,i,1.0,False,2997.2000000476837,176.0,59.0,40.0,False,,286.48168365485833,[],"[960, 540]",ColorTask,21.0,63.0,,,HRV,HRV_0196,2022-11-30 18:45:21
,wl-rdm,71,201817,0.0-6.63-0.63,0.0,72.0,,,,,,,[],,,,,,87.9,1.0,i,1.0,True,728.8999998569489,44.0,59.0,40.0,False,,336.7035080238461,[],"[960, 540]",ColorTask,22.0,64.0,,,HRV,HRV_0196,2022-11-30 18:45:21
,wl-rdm,72,204439,0.0-6.64-0.64,0.0,73.0,,,,,,,[],,,,,,56.4,1.0,i,1.0,True,1279.5,77.0,59.0,40.0,False,,258.19392305271145,[],"[960, 540]",ColorTask,23.0,65.0,,,HRV,HRV_0196,2022-11-30 18:45:21
,wl-rdm,73,206739,0.0-6.65-0.65,0.0,74.0,,,,,,,[],,,,,,73.6,0.0,u,0.0,True,1009.5000002384186,61.0,59.0,40.0,False,,217.50411273130894,[],"[960, 540]",ColorTask,24.0,66.0,,,HRV,HRV_0196,2022-11-30 18:45:21
,wl-rdm,74,209394,0.0-6.66-0.66,0.0,75.0,,,,,,,[],,,,,,62.5,0.0,u,0.0,True,1311.2000000476837,79.0,59.0,40.0,False,,276.7390536794678,[],"[960, 540]",ColorTask,25.0,67.0,,,HRV,HRV_0196,2022-11-30 18:45:21
,wl-rdm,75,211463,0.0-6.67-0.67,0.0,76.0,,,,,,,[],,,,,,87.9,1.0,i,1.0,True,646.2000002861023,39.0,59.0,40.0,False,,365.65419124769574,[],"[960, 540]",ColorTask,26.0,68.0,,,HRV,HRV_0196,2022-11-30 18:45:21
,wl-rdm,76,213780,0.0-6.68-0.68,0.0,77.0,,,,,,,[],,,,,,56.4,1.0,i,1.0,True,1035.9999997615814,62.0,59.0,40.0,False,,211.53992580827966,[],"[960, 540]",ColorTask,27.0,69.0,,,HRV,HRV_0196,2022-11-30 18:45:21
,wl-rdm,77,216067,0.0-6.69-0.69,0.0,78.0,,,,,,,[],,,,,,62.5,1.0,i,1.0,True,931.9000000953674,56.0,59.0,40.0,False,,295.11947196677,[],"[960, 540]",ColorTask,28.0,70.0,,,HRV,HRV_0196,2022-11-30 18:45:21
,wl-rdm,78,218338,0.0-6.70-0.70,0.0,79.0,,,,,,,[],,,,,,87.9,0.0,u,0.0,True,842.6999998092651,51.0,59.0,40.0,False,,351.5875080194118,[],"[960, 540]",ColorTask,29.0,71.0,,,HRV,HRV_0196,2022-11-30 18:45:21
,wl-rdm,79,220890,0.0-6.71-0.71,0.0,80.0,,,,,,,[],,,,,,53.2,0.0,i,1.0,False,1110.5999999046326,67.0,59.0,40.0,False,,374.03816330344716,[],"[960, 540]",ColorTask,28.0,72.0,,,HRV,HRV_0196,2022-11-30 18:45:21
,wl-rdm,80,223126,0.0-6.72-0.72,0.0,81.0,,,,,,,[],,,,,,62.5,1.0,i,1.0,True,874.8999998569489,53.0,59.0,40.0,False,,290.49393175823883,[],"[960, 540]",ColorTask,29.0,73.0,,,HRV,HRV_0196,2022-11-30 18:45:21
,wl-rdm,81,225893,0.0-6.73-0.73,0.0,82.0,,,,,,,[],,,,,,73.6,0.0,u,0.0,True,1389.7000000476837,84.0,59.0,40.0,False,,313.2832643028654,[],"[960, 540]",ColorTask,30.0,74.0,,,HRV,HRV_0196,2022-11-30 18:45:21
,wl-rdm,82,227946,0.0-6.74-0.74,0.0,83.0,,,,,,,[],,,,,,87.9,1.0,i,1.0,True,778.1000001430511,46.0,59.0,40.0,False,,213.95482072078423,[],"[960, 540]",ColorTask,31.0,75.0,,,HRV,HRV_0196,2022-11-30 18:45:21
,wl-rdm,83,230199,0.0-6.75-0.75,0.0,84.0,,,,,,,[],,,,,,53.2,1.0,i,1.0,True,971.0999999046326,59.0,59.0,40.0,False,,205.8334100092473,[],"[960, 540]",ColorTask,32.0,76.0,,,HRV,HRV_0196,2022-11-30 18:45:21
,wl-rdm,84,232952,0.0-6.76-0.76,0.0,85.0,,,,,,,[],,,,,,50.0,1.0,u,0.0,False,1342.4999997615814,81.0,59.0,40.0,False,,322.9610653755842,[],"[960, 540]",ColorTask,31.0,77.0,,,HRV,HRV_0196,2022-11-30 18:45:21
,wl-rdm,85,234988,0.0-6.77-0.77,0.0,86.0,,,,,,,[],,,,,,62.5,1.0,i,1.0,True,725.1999998092651,44.0,59.0,40.0,False,,243.34436691506545,[],"[960, 540]",ColorTask,32.0,78.0,,,HRV,HRV_0196,2022-11-30 18:45:21
,wl-rdm,86,237190,0.0-6.78-0.78,0.0,87.0,,,,,,,[],,,,,,50.0,1.0,i,1.0,True,862.7000002861023,51.0,59.0,40.0,False,,273.20067423426565,[],"[960, 540]",ColorTask,33.0,79.0,,,HRV,HRV_0196,2022-11-30 18:45:21
,wl-rdm,87,240010,0.0-6.79-0.79,0.0,88.0,,,,,,,[],,,,,,53.2,0.0,u,0.0,True,1423.3999998569489,86.0,59.0,40.0,False,,311.8786493228586,[],"[960, 540]",ColorTask,34.0,80.0,,,HRV,HRV_0196,2022-11-30 18:45:21
,wl-rdm,88,242428,0.0-6.80-0.80,0.0,89.0,,,,,,,[],,,,,,50.0,0.0,u,0.0,True,1094.8000001907349,66.0,59.0,40.0,False,,249.34386812900567,[],"[960, 540]",ColorTask,35.0,81.0,,,HRV,HRV_0196,2022-11-30 18:45:21
,wl-rdm,89,244631,0.0-6.81-0.81,0.0,90.0,,,,,,,[],,,,,,87.9,0.0,u,0.0,True,774.3000001907349,47.0,59.0,40.0,False,,363.08260977143914,[],"[960, 540]",ColorTask,36.0,82.0,,,HRV,HRV_0196,2022-11-30 18:45:21
,wl-rdm,90,247000,0.0-6.82-0.82,0.0,91.0,,,,,,,[],,,,,,56.4,1.0,u,0.0,False,1008.9000000953674,61.0,59.0,40.0,False,,294.57113023922096,[],"[960, 540]",ColorTask,35.0,83.0,,,HRV,HRV_0196,2022-11-30 18:45:21
,wl-rdm,91,248888,0.0-6.83-0.83,0.0,92.0,,,,,,,[],,,,,,53.2,0.0,i,1.0,False,613.6000001430511,37.0,59.0,40.0,False,,203.11383608100655,[],"[960, 540]",ColorTask,34.0,84.0,,,HRV,HRV_0196,2022-11-30 18:45:21
,wl-rdm,92,250823,0.0-6.84-0.84,0.0,93.0,,,,,,,[],,,,,,73.6,0.0,u,0.0,True,629.7000000476837,38.0,59.0,40.0,False,,246.01152900037093,[],"[960, 540]",ColorTask,35.0,85.0,,,HRV,HRV_0196,2022-11-30 18:45:21
,wl-rdm,93,252775,0.0-6.85-0.85,0.0,94.0,,,,,,,[],,,,,,73.6,1.0,i,1.0,True,672.0999999046326,41.0,59.0,40.0,False,,203.28116176478147,[],"[960, 540]",ColorTask,36.0,86.0,,,HRV,HRV_0196,2022-11-30 18:45:21
,wl-rdm,94,254909,0.0-6.86-0.86,0.0,95.0,,,,,,,[],,,,,,56.4,0.0,u,0.0,True,827.0999999046326,50.0,59.0,40.0,False,,244.12332931426403,[],"[960, 540]",ColorTask,37.0,87.0,,,HRV,HRV_0196,2022-11-30 18:45:21
,wl-rdm,95,257029,0.0-6.87-0.87,0.0,96.0,,,,,,,[],,,,,,62.5,0.0,i,1.0,False,826.7999999523163,50.0,59.0,40.0,False,,220.72354495557266,[],"[960, 540]",ColorTask,36.0,88.0,,,HRV,HRV_0196,2022-11-30 18:45:21
,wl-rdm,96,259200,0.0-6.88-0.88,0.0,97.0,,,,,,,[],,,,,,56.4,1.0,i,1.0,True,730.4999997615814,44.0,59.0,40.0,False,,371.4302463194464,[],"[960, 540]",ColorTask,37.0,89.0,,,HRV,HRV_0196,2022-11-30 18:45:21
,wl-rdm,97,261249,0.0-6.89-0.89,0.0,98.0,,,,,,,[],,,,,,87.9,0.0,u,0.0,True,769.2999999523163,46.0,59.0,40.0,False,,207.70919179496113,[],"[960, 540]",ColorTask,38.0,90.0,,,HRV,HRV_0196,2022-11-30 18:45:21
,wl-rdm,98,263236,0.0-6.90-0.90,0.0,99.0,,,,,,,[],,,,,,50.0,1.0,i,1.0,True,647.5,39.0,59.0,40.0,False,,277.58343629608055,[],"[960, 540]",ColorTask,39.0,91.0,,,HRV,HRV_0196,2022-11-30 18:45:21
,wl-rdm,99,265105,0.0-6.91-0.91,0.0,100.0,,,,,,,[],,,,,,50.0,1.0,i,1.0,True,554.5999999046326,33.0,59.0,40.0,False,,246.87181572878555,[],"[960, 540]",ColorTask,40.0,92.0,,,HRV,HRV_0196,2022-11-30 18:45:21
,wl-rdm,100,267123,0.0-6.92-0.92,0.0,101.0,,,,,,,[],,,,,,56.4,1.0,i,1.0,True,678.0,41.0,59.0,40.0,False,,279.11973267983313,[],"[960, 540]",ColorTask,41.0,93.0,,,HRV,HRV_0196,2022-11-30 18:45:21
,wl-rdm,101,269375,0.0-6.93-0.93,0.0,102.0,,,,,,,[],,,,,,56.4,0.0,i,1.0,False,946.4000000953674,56.0,59.0,40.0,False,,218.74767265706058,[],"[960, 540]",ColorTask,40.0,94.0,,,HRV,HRV_0196,2022-11-30 18:45:21
,wl-rdm,102,271445,0.0-6.94-0.94,0.0,103.0,,,,,,,[],,,,,,87.9,1.0,i,1.0,True,758.6000001430511,46.0,59.0,40.0,False,,248.35756007320498,[],"[960, 540]",ColorTask,41.0,95.0,,,HRV,HRV_0196,2022-11-30 18:45:21
,wl-rdm,103,273313,0.0-6.95-0.95,0.0,104.0,,,,,,,[],,,,,,87.9,1.0,i,1.0,True,574.8999998569489,35.0,59.0,40.0,False,,226.4561187656211,[],"[960, 540]",ColorTask,42.0,96.0,,,HRV,HRV_0196,2022-11-30 18:45:21
,wl-rdm,104,275684,0.0-6.96-0.96,0.0,105.0,,,,,,,[],,,,,,53.2,1.0,u,0.0,False,909.3999998569489,55.0,59.0,40.0,False,,370.7442776473373,[],"[960, 540]",ColorTask,41.0,97.0,,,HRV,HRV_0196,2022-11-30 18:45:21
,wl-rdm,105,277753,0.0-6.97-0.97,0.0,106.0,,,,,,,[],,,,,,87.9,0.0,u,0.0,True,777.7999999523163,47.0,59.0,40.0,False,,229.26072075159692,[],"[960, 540]",ColorTask,42.0,98.0,,,HRV,HRV_0196,2022-11-30 18:45:21
,wl-rdm,106,280189,0.0-6.98-0.98,0.0,107.0,,,,,,,[],,,,,,53.2,0.0,i,1.0,False,1064.6999998092651,63.0,59.0,40.0,False,,309.59265404124034,[],"[960, 540]",ColorTask,41.0,99.0,,,HRV,HRV_0196,2022-11-30 18:45:21
,wl-rdm,107,282256,0.0-6.99-0.99,0.0,108.0,,,,,,,[],,,,,,53.2,1.0,i,1.0,True,677.6000001430511,41.0,59.0,40.0,False,,307.4056465449222,[],"[960, 540]",ColorTask,42.0,100.0,,,HRV,HRV_0196,2022-11-30 18:45:21
,wl-rdm,108,284508,0.0-6.100-0.100,0.0,109.0,,,,,,,[],,,,,,53.2,1.0,i,1.0,True,964.7000000476837,58.0,59.0,40.0,False,,215.07440211491624,[],"[960, 540]",ColorTask,43.0,101.0,,,HRV,HRV_0196,2022-11-30 18:45:21
,wl-rdm,109,286596,0.0-6.101-0.101,0.0,110.0,,,,,,,[],,,,,,50.0,0.0,i,1.0,False,716.3999998569489,43.0,59.0,40.0,False,,308.5144892431022,[],"[960, 540]",ColorTask,42.0,102.0,,,HRV,HRV_0196,2022-11-30 18:45:21
,wl-rdm,110,288698,0.0-6.102-0.102,0.0,111.0,,,,,,,[],,,,,,56.4,0.0,i,1.0,False,710.5999999046326,43.0,59.0,40.0,False,,332.205580735633,[],"[960, 540]",ColorTask,41.0,103.0,,,HRV,HRV_0196,2022-11-30 18:45:21
,wl-rdm,111,290749,0.0-6.103-0.103,0.0,112.0,,,,,,,[],,,,,,56.4,1.0,i,1.0,True,747.4000000953674,45.0,59.0,40.0,False,,243.2990183186336,[],"[960, 540]",ColorTask,42.0,104.0,,,HRV,HRV_0196,2022-11-30 18:45:21
,wl-rdm,112,293051,0.0-6.104-0.104,0.0,113.0,,,,,,,[],,,,,,62.5,0.0,i,1.0,False,895.2999997138977,54.0,59.0,40.0,False,,328.63781008910314,[],"[960, 540]",ColorTask,41.0,105.0,,,HRV,HRV_0196,2022-11-30 18:45:21
,wl-rdm,113,295370,0.0-6.105-0.105,0.0,114.0,,,,,,,[],,,,,,50.0,0.0,u,0.0,True,915.7000000476837,55.0,59.0,40.0,False,,318.9219600551076,[],"[960, 540]",ColorTask,42.0,106.0,,,HRV,HRV_0196,2022-11-30 18:45:21
,wl-rdm,114,297657,0.0-6.106-0.106,0.0,115.0,,,,,,,[],,,,,,62.5,0.0,u,0.0,True,944.6000001430511,57.0,59.0,40.0,False,,251.42851382035977,[],"[960, 540]",ColorTask,43.0,107.0,,,HRV,HRV_0196,2022-11-30 18:45:21
,wl-rdm,115,300019,0.0-6.107-0.107,0.0,116.0,,,,,,,[],,,,,,53.2,0.0,i,1.0,False,1058.0999999046326,64.0,59.0,40.0,False,,209.76311365362136,[],"[960, 540]",ColorTask,42.0,108.0,,,HRV,HRV_0196,2022-11-30 18:45:21
,wl-html-keyboard-response,116,311029,0.0-7.0-0.0,1.0,117.0,,,,,,,,8997.5,1.0,0,,,,,,,,,,,,,,,,,,,,,,HRV,HRV_0196,2022-11-30 18:45:21
,wl-rdm,117,312975,0.0-8.0-0.0,1.0,118.0,,,,,,,[],,,,,,53.2,0.0,i,1.0,False,588.2999999523163,36.0,59.0,40.0,False,,283.4880576994847,[],"[960, 540]",ColorTask,41.0,1.0,,,HRV,HRV_0196,2022-11-30 18:45:21
,wl-rdm,118,314977,0.0-8.1-0.1,1.0,119.0,,,,,,,[],,,,,,62.5,1.0,i,1.0,True,690.2999999523163,40.0,59.0,40.0,False,,236.2377649442216,[],"[960, 540]",ColorTask,42.0,2.0,,,HRV,HRV_0196,2022-11-30 18:45:21
,wl-rdm,119,316828,0.0-8.2-0.2,1.0,120.0,,,,,,,[],,,,,,53.2,1.0,i,1.0,True,579.8999998569489,35.0,59.0,40.0,False,,211.7280035642576,[],"[960, 540]",ColorTask,43.0,3.0,,,HRV,HRV_0196,2022-11-30 18:45:21
,wl-rdm,120,318932,0.0-8.3-0.3,1.0,121.0,,,,,,,[],,,,,,73.6,0.0,u,0.0,True,798.2999999523163,48.0,59.0,40.0,False,,234.14821321738535,[],"[960, 540]",ColorTask,44.0,4.0,,,HRV,HRV_0196,2022-11-30 18:45:21
,wl-rdm,121,321132,0.0-8.4-0.4,1.0,122.0,,,,,,,[],,,,,,62.5,0.0,i,1.0,False,913.1000001430511,55.0,59.0,40.0,False,,210.71680861936753,[],"[960, 540]",ColorTask,43.0,5.0,,,HRV,HRV_0196,2022-11-30 18:45:21
,wl-rdm,122,323001,0.0-8.5-0.5,1.0,123.0,,,,,,,[],,,,,,87.9,0.0,u,0.0,True,545.9000000953674,32.0,59.0,40.0,False,,262.40402927805684,[],"[960, 540]",ColorTask,44.0,6.0,,,HRV,HRV_0196,2022-11-30 18:45:21
,wl-rdm,123,325055,0.0-8.6-0.6,1.0,124.0,,,,,,,[],,,,,,56.4,1.0,i,1.0,True,779.3999998569489,47.0,59.0,40.0,False,,208.66699967568633,[],"[960, 540]",ColorTask,45.0,7.0,,,HRV,HRV_0196,2022-11-30 18:45:21
,wl-rdm,124,327039,0.0-8.7-0.7,1.0,125.0,,,,,,,[],,,,,,73.6,1.0,i,1.0,True,705.0,42.0,59.0,40.0,False,,212.59290643201848,[],"[960, 540]",ColorTask,46.0,8.0,,,HRV,HRV_0196,2022-11-30 18:45:21
,wl-rdm,125,329508,0.0-8.8-0.8,1.0,126.0,,,,,,,[],,,,,,56.4,0.0,i,1.0,False,1163.5999999046326,70.0,59.0,40.0,False,,247.9397619938618,[],"[960, 540]",ColorTask,45.0,9.0,,,HRV,HRV_0196,2022-11-30 18:45:21
,wl-rdm,126,331877,0.0-8.9-0.9,1.0,127.0,,,,,,,[],,,,,,62.5,1.0,i,1.0,True,1049.0999999046326,63.0,59.0,40.0,False,,248.70823082385147,[],"[960, 540]",ColorTask,46.0,10.0,,,HRV,HRV_0196,2022-11-30 18:45:21
,wl-rdm,127,334048,0.0-8.10-0.10,1.0,128.0,,,,,,,[],,,,,,53.2,0.0,u,0.0,True,742.3999998569489,45.0,59.0,40.0,False,,348.40450964835645,[],"[960, 540]",ColorTask,47.0,11.0,,,HRV,HRV_0196,2022-11-30 18:45:21
,wl-rdm,128,336132,0.0-8.11-0.11,1.0,129.0,,,,,,,[],,,,,,73.6,0.0,u,0.0,True,655.9000000953674,40.0,59.0,40.0,False,,363.585346861866,[],"[960, 540]",ColorTask,48.0,12.0,,,HRV,HRV_0196,2022-11-30 18:45:21
,wl-rdm,129,338284,0.0-8.12-0.12,1.0,130.0,,,,,,,[],,,,,,50.0,0.0,i,1.0,False,881.3999998569489,53.0,59.0,40.0,False,,202.07159595177174,[],"[960, 540]",ColorTask,47.0,13.0,,,HRV,HRV_0196,2022-11-30 18:45:21
,wl-rdm,130,340436,0.0-8.13-0.13,1.0,131.0,,,,,,,[],,,,,,53.2,0.0,i,1.0,False,844.9999997615814,51.0,59.0,40.0,False,,239.58318048042221,[],"[960, 540]",ColorTask,46.0,14.0,,,HRV,HRV_0196,2022-11-30 18:45:21
,wl-rdm,131,342558,0.0-8.14-0.14,1.0,132.0,,,,,,,[],,,,,,50.0,0.0,u,0.0,True,828.1000001430511,50.0,59.0,40.0,False,,216.71719786061172,[],"[960, 540]",ColorTask,47.0,15.0,,,HRV,HRV_0196,2022-11-30 18:45:21
,wl-rdm,132,344727,0.0-8.15-0.15,1.0,133.0,,,,,,,[],,,,,,50.0,0.0,i,1.0,False,879.7999999523163,53.0,59.0,40.0,False,,212.53262000043836,[],"[960, 540]",ColorTask,46.0,16.0,,,HRV,HRV_0196,2022-11-30 18:45:21
,wl-rdm,133,346929,0.0-8.16-0.16,1.0,134.0,,,,,,,[],,,,,,73.6,1.0,i,1.0,True,876.3000001907349,53.0,59.0,40.0,False,,268.21978182933384,[],"[960, 540]",ColorTask,47.0,17.0,,,HRV,HRV_0196,2022-11-30 18:45:21
,wl-rdm,134,349113,0.0-8.17-0.17,1.0,135.0,,,,,,,[],,,,,,62.5,0.0,i,1.0,False,860.4000000953674,52.0,59.0,40.0,False,,262.74772178720684,[],"[960, 540]",ColorTask,46.0,18.0,,,HRV,HRV_0196,2022-11-30 18:45:21
,wl-rdm,135,351317,0.0-8.18-0.18,1.0,136.0,,,,,,,[],,,,,,56.4,0.0,i,1.0,False,876.3999998569489,53.0,59.0,40.0,False,,254.31683900612347,[],"[960, 540]",ColorTask,45.0,19.0,,,HRV,HRV_0196,2022-11-30 18:45:21
,wl-rdm,136,353268,0.0-8.19-0.19,1.0,137.0,,,,,,,[],,,,,,62.5,0.0,u,0.0,True,548.0999999046326,33.0,59.0,40.0,False,,327.11351588728576,[],"[960, 540]",ColorTask,46.0,20.0,,,HRV,HRV_0196,2022-11-30 18:45:21
,wl-rdm,137,355471,0.0-8.20-0.20,1.0,138.0,,,,,,,[],,,,,,53.2,1.0,u,0.0,False,762.2999997138977,46.0,59.0,40.0,False,,371.73764745790186,[],"[960, 540]",ColorTask,45.0,21.0,,,HRV,HRV_0196,2022-11-30 18:45:21
,wl-rdm,138,357757,0.0-8.21-0.21,1.0,139.0,,,,,,,[],,,,,,87.9,0.0,u,0.0,True,981.9000000953674,58.0,59.0,40.0,False,,241.17599983292496,[],"[960, 540]",ColorTask,46.0,22.0,,,HRV,HRV_0196,2022-11-30 18:45:21
,wl-rdm,139,359859,0.0-8.22-0.22,1.0,140.0,,,,,,,[],,,,,,56.4,1.0,u,0.0,False,728.0,44.0,59.0,40.0,False,,315.70864726197567,[],"[960, 540]",ColorTask,45.0,23.0,,,HRV,HRV_0196,2022-11-30 18:45:21
,wl-rdm,140,361810,0.0-8.23-0.23,1.0,141.0,,,,,,,[],,,,,,50.0,0.0,i,1.0,False,641.4000000953674,38.0,59.0,40.0,False,,220.52311076097845,[],"[960, 540]",ColorTask,44.0,24.0,,,HRV,HRV_0196,2022-11-30 18:45:21
,wl-rdm,141,363945,0.0-8.24-0.24,1.0,142.0,,,,,,,[],,,,,,56.4,1.0,u,0.0,False,749.2999999523163,45.0,59.0,40.0,False,,310.8005709239171,[],"[960, 540]",ColorTask,43.0,25.0,,,HRV,HRV_0196,2022-11-30 18:45:21
,wl-rdm,142,365734,0.0-8.25-0.25,1.0,143.0,,,,,,,[],,,,,,62.5,0.0,u,0.0,True,439.2000000476837,27.0,59.0,40.0,False,,268.6862600387013,[],"[960, 540]",ColorTask,44.0,26.0,,,HRV,HRV_0196,2022-11-30 18:45:21
,wl-rdm,143,367749,0.0-8.26-0.26,1.0,144.0,,,,,,,[],,,,,,62.5,1.0,u,0.0,False,645.6000001430511,39.0,59.0,40.0,False,,309.71914372796095,[],"[960, 540]",ColorTask,43.0,27.0,,,HRV,HRV_0196,2022-11-30 18:45:21
,wl-rdm,144,369769,0.0-8.27-0.27,1.0,145.0,,,,,,,[],,,,,,87.9,1.0,u,0.0,False,578.0000002384186,35.0,59.0,40.0,False,,372.59141303833303,[],"[960, 540]",ColorTask,42.0,28.0,,,HRV,HRV_0196,2022-11-30 18:45:21
,wl-rdm,145,372022,0.0-8.28-0.28,1.0,146.0,,,,,,,[],,,,,,53.2,1.0,i,1.0,True,791.9000000953674,48.0,59.0,40.0,False,,393.7758042194463,[],"[960, 540]",ColorTask,43.0,29.0,,,HRV,HRV_0196,2022-11-30 18:45:21
,wl-rdm,146,374307,0.0-8.29-0.29,1.0,147.0,,,,,,,[],,,,,,50.0,1.0,i,1.0,True,849.7999999523163,51.0,59.0,40.0,False,,372.51819158149783,[],"[960, 540]",ColorTask,44.0,30.0,,,HRV,HRV_0196,2022-11-30 18:45:21
,wl-rdm,147,376359,0.0-8.30-0.30,1.0,148.0,,,,,,,[],,,,,,50.0,0.0,i,1.0,False,708.7999999523163,43.0,59.0,40.0,False,,251.05232305792595,[],"[960, 540]",ColorTask,43.0,31.0,,,HRV,HRV_0196,2022-11-30 18:45:21
,wl-rdm,148,378280,0.0-8.31-0.31,1.0,149.0,,,,,,,[],,,,,,50.0,1.0,i,1.0,True,507.5,30.0,59.0,40.0,False,,337.02259835961945,[],"[960, 540]",ColorTask,44.0,32.0,,,HRV,HRV_0196,2022-11-30 18:45:21
,wl-rdm,149,380314,0.0-8.32-0.32,1.0,150.0,,,,,,,[],,,,,,56.4,1.0,i,1.0,True,649.8999998569489,39.0,59.0,40.0,False,,313.26761358870186,[],"[960, 540]",ColorTask,45.0,33.0,,,HRV,HRV_0196,2022-11-30 18:45:21
,wl-rdm,150,382366,0.0-8.33-0.33,1.0,151.0,,,,,,,[],,,,,,73.6,1.0,i,1.0,True,692.0999999046326,41.0,59.0,40.0,False,,285.98196799829884,[],"[960, 540]",ColorTask,46.0,34.0,,,HRV,HRV_0196,2022-11-30 18:45:21
,wl-rdm,151,384454,0.0-8.34-0.34,1.0,152.0,,,,,,,[],,,,,,62.5,1.0,i,1.0,True,777.4999997615814,47.0,59.0,40.0,False,,244.08465129709634,[],"[960, 540]",ColorTask,47.0,35.0,,,HRV,HRV_0196,2022-11-30 18:45:21
,wl-rdm,152,386606,0.0-8.35-0.35,1.0,153.0,,,,,,,[],,,,,,62.5,0.0,i,1.0,False,697.3999998569489,41.0,59.0,40.0,False,,398.57131277950793,[],"[960, 540]",ColorTask,46.0,36.0,,,HRV,HRV_0196,2022-11-30 18:45:21
,wl-rdm,153,388672,0.0-8.36-0.36,1.0,154.0,,,,,,,[],,,,,,73.6,1.0,i,1.0,True,800.1999998092651,48.0,59.0,40.0,False,,216.97131722228193,[],"[960, 540]",ColorTask,47.0,37.0,,,HRV,HRV_0196,2022-11-30 18:45:21
,wl-rdm,154,390726,0.0-8.37-0.37,1.0,155.0,,,,,,,[],,,,,,87.9,1.0,i,1.0,True,606.900000333786,37.0,59.0,40.0,False,,367.8211109322857,[],"[960, 540]",ColorTask,48.0,38.0,,,HRV,HRV_0196,2022-11-30 18:45:21
,wl-rdm,155,392811,0.0-8.38-0.38,1.0,156.0,,,,,,,[],,,,,,56.4,1.0,i,1.0,True,732.7000000476837,44.0,59.0,40.0,False,,281.2405148158141,[],"[960, 540]",ColorTask,49.0,39.0,,,HRV,HRV_0196,2022-11-30 18:45:21
,wl-rdm,156,394946,0.0-8.39-0.39,1.0,157.0,,,,,,,[],,,,,,62.5,1.0,i,1.0,True,750.2000000476837,45.0,59.0,40.0,False,,316.4394483618375,[],"[960, 540]",ColorTask,50.0,40.0,,,HRV,HRV_0196,2022-11-30 18:45:21
,wl-rdm,157,397083,0.0-8.40-0.40,1.0,158.0,,,,,,,[],,,,,,56.4,0.0,i,1.0,False,725.8000001907349,44.0,59.0,40.0,False,,341.15183420413825,[],"[960, 540]",ColorTask,49.0,41.0,,,HRV,HRV_0196,2022-11-30 18:45:21
,wl-rdm,158,399267,0.0-8.41-0.41,1.0,159.0,,,,,,,[],,,,,,62.5,0.0,i,1.0,False,757.7000002861023,45.0,59.0,40.0,False,,360.6219844733661,[],"[960, 540]",ColorTask,48.0,42.0,,,HRV,HRV_0196,2022-11-30 18:45:21
,wl-rdm,159,401389,0.0-8.42-0.42,1.0,160.0,,,,,,,[],,,,,,87.9,0.0,u,0.0,True,749.5,45.0,59.0,40.0,False,,290.99978985050967,[],"[960, 540]",ColorTask,49.0,43.0,,,HRV,HRV_0196,2022-11-30 18:45:21
,wl-rdm,160,403522,0.0-8.43-0.43,1.0,161.0,,,,,,,[],,,,,,62.5,1.0,i,1.0,True,843.6000001430511,50.0,59.0,40.0,False,,222.75226531316852,[],"[960, 540]",ColorTask,50.0,44.0,,,HRV,HRV_0196,2022-11-30 18:45:21
,wl-rdm,161,405526,0.0-8.44-0.44,1.0,162.0,,,,,,,[],,,,,,87.9,1.0,u,0.0,False,682.0,41.0,59.0,40.0,False,,253.5026915499288,[],"[960, 540]",ColorTask,49.0,45.0,,,HRV,HRV_0196,2022-11-30 18:45:21
,wl-rdm,162,407560,0.0-8.45-0.45,1.0,163.0,,,,,,,[],,,,,,50.0,1.0,i,1.0,True,587.7000002861023,35.0,59.0,40.0,False,,368.5629982921069,[],"[960, 540]",ColorTask,50.0,46.0,,,HRV,HRV_0196,2022-11-30 18:45:21
,wl-rdm,163,409646,0.0-8.46-0.46,1.0,164.0,,,,,,,[],,,,,,56.4,0.0,i,1.0,False,793.5999999046326,48.0,59.0,40.0,False,,224.0160329381889,[],"[960, 540]",ColorTask,49.0,47.0,,,HRV,HRV_0196,2022-11-30 18:45:21
,wl-rdm,164,411481,0.0-8.47-0.47,1.0,165.0,,,,,,,[],,,,,,73.6,1.0,i,1.0,True,523.4000000953674,32.0,59.0,40.0,False,,240.19133027975036,[],"[960, 540]",ColorTask,50.0,48.0,,,HRV,HRV_0196,2022-11-30 18:45:21
,wl-rdm,165,413469,0.0-8.48-0.48,1.0,166.0,,,,,,,[],,,,,,62.5,1.0,i,1.0,True,531.7000000476837,32.0,59.0,40.0,False,,384.3776443200296,[],"[960, 540]",ColorTask,51.0,49.0,,,HRV,HRV_0196,2022-11-30 18:45:21
,wl-rdm,166,415602,0.0-8.49-0.49,1.0,167.0,,,,,,,[],,,,,,73.6,0.0,i,1.0,False,809.2999997138977,49.0,59.0,40.0,False,,228.25153743559144,[],"[960, 540]",ColorTask,50.0,50.0,,,HRV,HRV_0196,2022-11-30 18:45:21
,wl-rdm,167,417623,0.0-8.50-0.50,1.0,168.0,,,,,,,[],,,,,,87.9,1.0,i,1.0,True,675.1000001430511,41.0,59.0,40.0,False,,234.70628755820033,[],"[960, 540]",ColorTask,51.0,51.0,,,HRV,HRV_0196,2022-11-30 18:45:21
,wl-rdm,168,420024,0.0-8.51-0.51,1.0,169.0,,,,,,,[],,,,,,50.0,0.0,u,0.0,True,990.7000000476837,60.0,59.0,40.0,False,,332.3692861718164,[],"[960, 540]",ColorTask,52.0,52.0,,,HRV,HRV_0196,2022-11-30 18:45:21
,wl-rdm,169,422111,0.0-8.52-0.52,1.0,170.0,,,,,,,[],,,,,,73.6,1.0,i,1.0,True,776.0,46.0,59.0,40.0,False,,229.1249792735917,[],"[960, 540]",ColorTask,53.0,53.0,,,HRV,HRV_0196,2022-11-30 18:45:21
,wl-rdm,170,424028,0.0-8.53-0.53,1.0,171.0,,,,,,,[],,,,,,87.9,1.0,i,1.0,True,646.7000000476837,39.0,59.0,40.0,False,,201.73919784158184,[],"[960, 540]",ColorTask,54.0,54.0,,,HRV,HRV_0196,2022-11-30 18:45:21
,wl-rdm,171,426247,0.0-8.54-0.54,1.0,172.0,,,,,,,[],,,,,,87.9,1.0,i,1.0,True,829.0999999046326,50.0,59.0,40.0,False,,317.58446488652453,[],"[960, 540]",ColorTask,55.0,55.0,,,HRV,HRV_0196,2022-11-30 18:45:21
,wl-rdm,172,428434,0.0-8.55-0.55,1.0,173.0,,,,,,,[],,,,,,50.0,1.0,i,1.0,True,811.7999999523163,49.0,59.0,40.0,False,,309.16857814944774,[],"[960, 540]",ColorTask,56.0,56.0,,,HRV,HRV_0196,2022-11-30 18:45:21
,wl-rdm,173,430869,0.0-8.56-0.56,1.0,174.0,,,,,,,[],,,,,,87.9,0.0,u,0.0,True,975.7000000476837,59.0,59.0,40.0,False,,385.1814944620563,[],"[960, 540]",ColorTask,57.0,57.0,,,HRV,HRV_0196,2022-11-30 18:45:21
,wl-rdm,174,433121,0.0-8.57-0.57,1.0,175.0,,,,,,,[],,,,,,56.4,0.0,u,0.0,True,949.2999997138977,57.0,59.0,40.0,False,,241.79954995197537,[],"[960, 540]",ColorTask,58.0,58.0,,,HRV,HRV_0196,2022-11-30 18:45:21
,wl-rdm,175,435345,0.0-8.58-0.58,1.0,176.0,,,,,,,[],,,,,,53.2,1.0,i,1.0,True,928.9000000953674,56.0,59.0,40.0,False,,218.57981087476924,[],"[960, 540]",ColorTask,59.0,59.0,,,HRV,HRV_0196,2022-11-30 18:45:21
,wl-rdm,176,437329,0.0-8.59-0.59,1.0,177.0,,,,,,,[],,,,,,56.4,1.0,i,1.0,True,662.5999999046326,40.0,59.0,40.0,False,,253.07705678923472,[],"[960, 540]",ColorTask,60.0,60.0,,,HRV,HRV_0196,2022-11-30 18:45:21
,wl-rdm,177,439796,0.0-8.60-0.60,1.0,178.0,,,,,,,[],,,,,,53.2,0.0,u,0.0,True,1126.9999997615814,68.0,59.0,40.0,False,,279.4923970551163,[],"[960, 540]",ColorTask,61.0,61.0,,,HRV,HRV_0196,2022-11-30 18:45:21
,wl-rdm,178,441965,0.0-8.61-0.61,1.0,179.0,,,,,,,[],,,,,,62.5,0.0,i,1.0,False,825.8999998569489,49.0,59.0,40.0,False,,276.5313019561012,[],"[960, 540]",ColorTask,60.0,62.0,,,HRV,HRV_0196,2022-11-30 18:45:21
,wl-rdm,179,444218,0.0-8.62-0.62,1.0,180.0,,,,,,,[],,,,,,53.2,1.0,u,0.0,False,868.0,52.0,59.0,40.0,False,,301.3607373917242,[],"[960, 540]",ColorTask,59.0,63.0,,,HRV,HRV_0196,2022-11-30 18:45:21
,wl-rdm,180,446391,0.0-8.63-0.63,1.0,181.0,,,,,,,[],,,,,,50.0,1.0,i,1.0,True,832.6999998092651,50.0,59.0,40.0,False,,249.0514207090705,[],"[960, 540]",ColorTask,60.0,64.0,,,HRV,HRV_0196,2022-11-30 18:45:21
,wl-rdm,181,448572,0.0-8.64-0.64,1.0,182.0,,,,,,,[],,,,,,62.5,1.0,i,1.0,True,730.2999999523163,44.0,59.0,40.0,False,,375.651630444691,[],"[960, 540]",ColorTask,61.0,65.0,,,HRV,HRV_0196,2022-11-30 18:45:21
,wl-rdm,182,451308,0.0-8.65-0.65,1.0,183.0,,,,,,,[],,,,,,73.6,0.0,u,0.0,True,1339.2999997138977,81.0,59.0,40.0,False,,299.3411817155697,[],"[960, 540]",ColorTask,62.0,66.0,,,HRV,HRV_0196,2022-11-30 18:45:21
,wl-rdm,183,453627,0.0-8.66-0.66,1.0,184.0,,,,,,,[],,,,,,50.0,1.0,u,0.0,False,912.6000001430511,55.0,59.0,40.0,False,,343.11239450761855,[],"[960, 540]",ColorTask,61.0,67.0,,,HRV,HRV_0196,2022-11-30 18:45:21
,wl-rdm,184,455798,0.0-8.67-0.67,1.0,185.0,,,,,,,[],,,,,,56.4,0.0,i,1.0,False,879.3999998569489,53.0,59.0,40.0,False,,233.75662550638089,[],"[960, 540]",ColorTask,60.0,68.0,,,HRV,HRV_0196,2022-11-30 18:45:21
,wl-rdm,185,458099,0.0-8.68-0.68,1.0,186.0,,,,,,,[],,,,,,56.4,0.0,i,1.0,False,996.4000000953674,60.0,59.0,40.0,False,,251.39219898583636,[],"[960, 540]",ColorTask,59.0,69.0,,,HRV,HRV_0196,2022-11-30 18:45:21
,wl-rdm,186,460287,0.0-8.69-0.69,1.0,187.0,,,,,,,[],,,,,,53.2,1.0,i,1.0,True,841.2000002861023,51.0,59.0,40.0,False,,256.0075585675132,[],"[960, 540]",ColorTask,60.0,70.0,,,HRV,HRV_0196,2022-11-30 18:45:21
,wl-rdm,187,462537,0.0-8.70-0.70,1.0,188.0,,,,,,,[],,,,,,73.6,0.0,u,0.0,True,901.0,54.0,59.0,40.0,False,,279.43913607365727,[],"[960, 540]",ColorTask,61.0,71.0,,,HRV,HRV_0196,2022-11-30 18:45:21
,wl-rdm,188,464839,0.0-8.71-0.71,1.0,189.0,,,,,,,[],,,,,,50.0,1.0,i,1.0,True,908.1000001430511,55.0,59.0,40.0,False,,333.1652500414313,[],"[960, 540]",ColorTask,62.0,72.0,,,HRV,HRV_0196,2022-11-30 18:45:21
,wl-rdm,189,467526,0.0-8.72-0.72,1.0,190.0,,,,,,,[],,,,,,50.0,0.0,i,1.0,False,1226.1000001430511,74.0,59.0,40.0,False,,371.1697464524001,[],"[960, 540]",ColorTask,61.0,73.0,,,HRV,HRV_0196,2022-11-30 18:45:21
,wl-rdm,190,469680,0.0-8.73-0.73,1.0,191.0,,,,,,,[],,,,,,53.2,0.0,u,0.0,True,695.4000000953674,41.0,59.0,40.0,False,,381.6464315492683,[],"[960, 540]",ColorTask,62.0,74.0,,,HRV,HRV_0196,2022-11-30 18:45:21
,wl-rdm,191,471766,0.0-8.74-0.74,1.0,192.0,,,,,,,[],,,,,,73.6,0.0,u,0.0,True,731.3999998569489,44.0,59.0,40.0,False,,280.69662670543715,[],"[960, 540]",ColorTask,63.0,75.0,,,HRV,HRV_0196,2022-11-30 18:45:21
,wl-rdm,192,474033,0.0-8.75-0.75,1.0,193.0,,,,,,,[],,,,,,53.2,1.0,u,0.0,False,995.2000000476837,59.0,59.0,40.0,False,,215.87189194193192,[],"[960, 540]",ColorTask,62.0,76.0,,,HRV,HRV_0196,2022-11-30 18:45:21
,wl-rdm,193,476271,0.0-8.76-0.76,1.0,194.0,,,,,,,[],,,,,,53.2,0.0,i,1.0,False,894.4999997615814,54.0,59.0,40.0,False,,265.78969033916866,[],"[960, 540]",ColorTask,61.0,77.0,,,HRV,HRV_0196,2022-11-30 18:45:21
,wl-rdm,194,478706,0.0-8.77-0.77,1.0,195.0,,,,,,,[],,,,,,56.4,0.0,u,0.0,True,1128.5999999046326,68.0,59.0,40.0,False,,247.3798965827657,[],"[960, 540]",ColorTask,62.0,78.0,,,HRV,HRV_0196,2022-11-30 18:45:21
,wl-rdm,195,480857,0.0-8.78-0.78,1.0,196.0,,,,,,,[],,,,,,73.6,0.0,u,0.0,True,849.9000000953674,51.0,59.0,40.0,False,,242.3305305749789,[],"[960, 540]",ColorTask,63.0,79.0,,,HRV,HRV_0196,2022-11-30 18:45:21
,wl-rdm,196,482879,0.0-8.79-0.79,1.0,197.0,,,,,,,[],,,,,,73.6,1.0,i,1.0,True,625.2000000476837,38.0,59.0,40.0,False,,317.771038960888,[],"[960, 540]",ColorTask,64.0,80.0,,,HRV,HRV_0196,2022-11-30 18:45:21
,wl-rdm,197,485029,0.0-8.80-0.80,1.0,198.0,,,,,,,[],,,,,,73.6,0.0,u,0.0,True,874.9000000953674,53.0,59.0,40.0,False,,202.16574241425045,[],"[960, 540]",ColorTask,65.0,81.0,,,HRV,HRV_0196,2022-11-30 18:45:21
,wl-rdm,198,487167,0.0-8.81-0.81,1.0,199.0,,,,,,,[],,,,,,62.5,0.0,u,0.0,True,857.0000002384186,52.0,59.0,40.0,False,,200.48067363894228,[],"[960, 540]",ColorTask,66.0,82.0,,,HRV,HRV_0196,2022-11-30 18:45:21
,wl-rdm,199,489984,0.0-8.82-0.82,1.0,200.0,,,,,,,[],,,,,,53.2,0.0,u,0.0,True,1512.0,91.0,59.0,40.0,False,,214.4459229587156,[],"[960, 540]",ColorTask,67.0,83.0,,,HRV,HRV_0196,2022-11-30 18:45:21
,wl-rdm,200,492971,0.0-8.83-0.83,1.0,201.0,,,,,,,[],,,,,,62.5,0.0,u,0.0,True,1684.0999999046326,100.0,59.0,40.0,False,,237.81515594810367,[],"[960, 540]",ColorTask,68.0,84.0,,,HRV,HRV_0196,2022-11-30 18:45:21
,wl-rdm,201,496508,0.0-8.84-0.84,1.0,202.0,,,,,,,[],,,,,,50.0,1.0,i,1.0,True,2112.0999999046326,127.0,59.0,40.0,False,,357.9655547101238,[],"[960, 540]",ColorTask,69.0,85.0,,,HRV,HRV_0196,2022-11-30 18:45:21
,wl-rdm,202,498980,0.0-8.85-0.85,1.0,203.0,,,,,,,[],,,,,,87.9,0.0,u,0.0,True,1116.9000000953674,67.0,59.0,40.0,False,,294.7251474604376,[],"[960, 540]",ColorTask,70.0,86.0,,,HRV,HRV_0196,2022-11-30 18:45:21
,wl-rdm,203,501063,0.0-8.86-0.86,1.0,204.0,,,,,,,[],,,,,,87.9,1.0,i,1.0,True,707.3000001907349,43.0,59.0,40.0,False,,283.2757630975086,[],"[960, 540]",ColorTask,71.0,87.0,,,HRV,HRV_0196,2022-11-30 18:45:21
,wl-rdm,204,504319,0.0-8.87-0.87,1.0,205.0,,,,,,,[],,,,,,56.4,1.0,i,1.0,True,1961.3000001907349,118.0,59.0,40.0,False,,221.61235025260228,[],"[960, 540]",ColorTask,72.0,88.0,,,HRV,HRV_0196,2022-11-30 18:45:21
,wl-rdm,205,507771,0.0-8.88-0.88,1.0,206.0,,,,,,,[],,,,,,62.5,1.0,u,0.0,False,1997.6000001430511,120.0,59.0,40.0,False,,385.4891535399184,[],"[960, 540]",ColorTask,71.0,89.0,,,HRV,HRV_0196,2022-11-30 18:45:21
,wl-rdm,206,509790,0.0-8.89-0.89,1.0,207.0,,,,,,,[],,,,,,56.4,1.0,i,1.0,True,711.2000000476837,43.0,59.0,40.0,False,,241.67207876050333,[],"[960, 540]",ColorTask,72.0,90.0,,,HRV,HRV_0196,2022-11-30 18:45:21
,wl-rdm,207,511743,0.0-8.90-0.90,1.0,208.0,,,,,,,[],,,,,,87.9,1.0,u,0.0,False,661.9999997615814,40.0,59.0,40.0,False,,226.19098640016696,[],"[960, 540]",ColorTask,71.0,91.0,,,HRV,HRV_0196,2022-11-30 18:45:21
,wl-rdm,208,513978,0.0-8.91-0.91,1.0,209.0,,,,,,,[],,,,,,87.9,0.0,u,0.0,True,849.5,51.0,59.0,40.0,False,,317.8310118838449,[],"[960, 540]",ColorTask,72.0,92.0,,,HRV,HRV_0196,2022-11-30 18:45:21
,wl-rdm,209,516230,0.0-8.92-0.92,1.0,210.0,,,,,,,[],,,,,,53.2,0.0,i,1.0,False,942.6000001430511,57.0,59.0,40.0,False,,240.38169570097494,[],"[960, 540]",ColorTask,71.0,93.0,,,HRV,HRV_0196,2022-11-30 18:45:21
,wl-rdm,210,518617,0.0-8.93-0.93,1.0,211.0,,,,,,,[],,,,,,50.0,0.0,u,0.0,True,1053.8999998569489,63.0,59.0,40.0,False,,266.6190037776012,[],"[960, 540]",ColorTask,72.0,94.0,,,HRV,HRV_0196,2022-11-30 18:45:21
,wl-rdm,211,521002,0.0-8.94-0.94,1.0,212.0,,,,,,,[],,,,,,50.0,0.0,u,0.0,True,916.5999999046326,55.0,59.0,40.0,False,,399.50981474777416,[],"[960, 540]",ColorTask,73.0,95.0,,,HRV,HRV_0196,2022-11-30 18:45:21
,wl-rdm,212,523137,0.0-8.95-0.95,1.0,213.0,,,,,,,[],,,,,,87.9,0.0,u,0.0,True,787.8000001907349,46.0,59.0,40.0,False,,279.30092734208546,[],"[960, 540]",ColorTask,74.0,96.0,,,HRV,HRV_0196,2022-11-30 18:45:21
,wl-rdm,213,525290,0.0-8.96-0.96,1.0,214.0,,,,,,,[],,,,,,73.6,0.0,u,0.0,True,744.5999999046326,45.0,59.0,40.0,False,,349.2170163981353,[],"[960, 540]",ColorTask,75.0,97.0,,,HRV,HRV_0196,2022-11-30 18:45:21
,wl-rdm,214,527761,0.0-8.97-0.97,1.0,215.0,,,,,,,[],,,,,,56.4,1.0,i,1.0,True,1027.9000000953674,61.0,59.0,40.0,False,,377.78904477289893,[],"[960, 540]",ColorTask,76.0,98.0,,,HRV,HRV_0196,2022-11-30 18:45:21
,wl-rdm,215,529813,0.0-8.98-0.98,1.0,216.0,,,,,,,[],,,,,,53.2,0.0,i,1.0,False,694.7999999523163,42.0,59.0,40.0,False,,285.478665527124,[],"[960, 540]",ColorTask,75.0,99.0,,,HRV,HRV_0196,2022-11-30 18:45:21
,wl-rdm,216,531814,0.0-8.99-0.99,1.0,217.0,,,,,,,[],,,,,,87.9,0.0,u,0.0,True,608.8999998569489,37.0,59.0,40.0,False,,327.6910758424576,[],"[960, 540]",ColorTask,76.0,100.0,,,HRV,HRV_0196,2022-11-30 18:45:21
,wl-rdm,217,534099,0.0-8.100-0.100,1.0,218.0,,,,,,,[],,,,,,73.6,1.0,u,0.0,False,897.9999997615814,54.0,59.0,40.0,False,,302.3462921290525,[],"[960, 540]",ColorTask,75.0,101.0,,,HRV,HRV_0196,2022-11-30 18:45:21
,wl-rdm,218,536186,0.0-8.101-0.101,1.0,219.0,,,,,,,[],,,,,,53.2,1.0,i,1.0,True,682.0999999046326,41.0,59.0,40.0,False,,327.4252951572207,[],"[960, 540]",ColorTask,76.0,102.0,,,HRV,HRV_0196,2022-11-30 18:45:21
,wl-rdm,219,538371,0.0-8.102-0.102,1.0,220.0,,,,,,,[],,,,,,56.4,0.0,i,1.0,False,791.2000000476837,47.0,59.0,40.0,False,,327.862185334022,[],"[960, 540]",ColorTask,75.0,103.0,,,HRV,HRV_0196,2022-11-30 18:45:21
,wl-rdm,220,540623,0.0-8.103-0.103,1.0,221.0,,,,,,,[],,,,,,53.2,1.0,i,1.0,True,905.2000000476837,55.0,59.0,40.0,False,,279.1034077681478,[],"[960, 540]",ColorTask,76.0,104.0,,,HRV,HRV_0196,2022-11-30 18:45:21
,wl-rdm,221,542692,0.0-8.104-0.104,1.0,222.0,,,,,,,[],,,,,,50.0,1.0,i,1.0,True,777.7000000476837,46.0,59.0,40.0,False,,230.7600551933018,[],"[960, 540]",ColorTask,77.0,105.0,,,HRV,HRV_0196,2022-11-30 18:45:21
,wl-rdm,222,544846,0.0-8.105-0.105,1.0,223.0,,,,,,,[],,,,,,87.9,1.0,i,1.0,True,679.2999999523163,41.0,59.0,40.0,False,,384.4310805577065,[],"[960, 540]",ColorTask,78.0,106.0,,,HRV,HRV_0196,2022-11-30 18:45:21
,wl-rdm,223,546864,0.0-8.106-0.106,1.0,224.0,,,,,,,[],,,,,,87.9,0.0,u,0.0,True,722.9000000953674,44.0,59.0,40.0,False,,221.7370020752104,[],"[960, 540]",ColorTask,79.0,107.0,,,HRV,HRV_0196,2022-11-30 18:45:21
,wl-rdm,224,549083,0.0-8.107-0.107,1.0,225.0,,,,,,,[],,,,,,73.6,1.0,i,1.0,True,817.5,49.0,59.0,40.0,False,,330.7549971248583,[],"[960, 540]",ColorTask,80.0,108.0,,,HRV,HRV_0196,2022-11-30 18:45:21
,wl-html-button-response,225,551940,0.0-9.0-0.0,,,,,,,,,,2845.9000000953674,,0,,,,,,,,,,,,,,,,,,,,<h3>End of this session. Thank you!</h3><br>,['Close window'],HRV,HRV_0196,2022-11-30 18:45:21
