trialN,stimuli,question,trialStartTime,trialStartTime_UNIX,stimulus1,trialEvents,rt,receivedResponse,rating,trialEndTime,trialDuration,stimulus1Loaded,exp,subjectId,date
0,"[{'imgObject': {}, 'id': 'rigatoni', 'src': '/static/foodstim60/rigatoni.jpg', 'key': 'NaN', 'origWidth': 411, 'origHeight': 411, 'width': 411, 'height': 411, 'widthPercent': 0.8, 'rescaleHeight': True, 'trialN': 0, 'loaded': True, 'loadedTime': 3369.5, 'positionName': 'CENTER', 'positionCoords': [569, 219.5]}]",Rate how much you want to eat this food from 0 (least) to 10 (most).,3308.100000143051,1669831805548,rigatoni,"[{'event': 'fullscreenchange', 'details': 'fullscreenexit', 'performance time': 3328.100000143051, 'date time': 1669831805568}]",2409.5999999046326,True,7.53,5717.700000047684,2409.5999999046326,True,HRV,HRV_0196,2022-11-30 18:16:07
1,"[{'imgObject': {}, 'id': 'orange slices', 'src': '/static/foodstim60/orange slices.jpg', 'key': 'NaN', 'origWidth': 409, 'origHeight': 410, 'width': 409, 'height': 410, 'widthPercent': 0.8, 'rescaleHeight': True, 'trialN': 1, 'loaded': True, 'loadedTime': 5732.299999952316, 'positionName': 'CENTER', 'positionCoords': [570, 220]}]",Rate how much you want to eat this food from 0 (least) to 10 (most).,5719.5,1669831807959,orange slices,,1742.0,True,4.98,7461.5,1742.0,True,HRV,HRV_0196,2022-11-30 18:16:07
2,"[{'imgObject': {}, 'id': 'mac & cheese', 'src': '/static/foodstim60/mac & cheese.jpg', 'key': 'NaN', 'origWidth': 410, 'origHeight': 410, 'width': 410, 'height': 410, 'widthPercent': 0.8, 'rescaleHeight': True, 'trialN': 2, 'loaded': True, 'loadedTime': 7465.700000047684, 'positionName': 'CENTER', 'positionCoords': [569.5, 220]}]",Rate how much you want to eat this food from 0 (least) to 10 (most).,7462.900000095367,1669831809703,mac & cheese,,1110.7000000476837,True,6.54,8573.600000143051,1110.7000000476837,True,HRV,HRV_0196,2022-11-30 18:16:07
3,"[{'imgObject': {}, 'id': 'roastedpotatoes', 'src': '/static/foodstim60/roastedpotatoes.jpg', 'key': 'NaN', 'origWidth': 409, 'origHeight': 410, 'width': 409, 'height': 410, 'widthPercent': 0.8, 'rescaleHeight': True, 'trialN': 3, 'loaded': True, 'loadedTime': 8577.5, 'positionName': 'CENTER', 'positionCoords': [570, 220]}]",Rate how much you want to eat this food from 0 (least) to 10 (most).,8574.700000047684,1669831810814,roastedpotatoes,,1222.5999999046326,True,7.24,9797.299999952316,1222.5999999046326,True,HRV,HRV_0196,2022-11-30 18:16:07
4,"[{'imgObject': {}, 'id': 'hashbrowns', 'src': '/static/foodstim60/hashbrowns.jpg', 'key': 'NaN', 'origWidth': 411, 'origHeight': 410, 'width': 411, 'height': 410, 'widthPercent': 0.8, 'rescaleHeight': True, 'trialN': 4, 'loaded': True, 'loadedTime': 9801.600000143051, 'positionName': 'CENTER', 'positionCoords': [569, 220]}]",Rate how much you want to eat this food from 0 (least) to 10 (most).,9798.400000095367,1669831812038,hashbrowns,,1287.3999998569489,True,5.72,11085.799999952316,1287.3999998569489,True,HRV,HRV_0196,2022-11-30 18:16:07
5,"[{'imgObject': {}, 'id': 'hotdog w must', 'src': '/static/foodstim60/hotdog w must.jpg', 'key': 'NaN', 'origWidth': 409, 'origHeight': 409, 'width': 409, 'height': 409, 'widthPercent': 0.8, 'rescaleHeight': True, 'trialN': 5, 'loaded': True, 'loadedTime': 11090.200000047684, 'positionName': 'CENTER', 'positionCoords': [570, 220.5]}]",Rate how much you want to eat this food from 0 (least) to 10 (most).,11087.100000143051,1669831813327,hotdog w must,,1662.2999999523163,True,8.49,12749.400000095367,1662.2999999523163,True,HRV,HRV_0196,2022-11-30 18:16:07
6,"[{'imgObject': {}, 'id': 'granola w milk', 'src': '/static/foodstim60/granola w milk.jpg', 'key': 'NaN', 'origWidth': 410, 'origHeight': 410, 'width': 410, 'height': 410, 'widthPercent': 0.8, 'rescaleHeight': True, 'trialN': 6, 'loaded': True, 'loadedTime': 12753.700000047684, 'positionName': 'CENTER', 'positionCoords': [569.5, 220]}]",Rate how much you want to eat this food from 0 (least) to 10 (most).,12750.400000095367,1669831814990,granola w milk,,1287.0,True,2.87,14037.400000095367,1287.0,True,HRV,HRV_0196,2022-11-30 18:16:07
7,"[{'imgObject': {}, 'id': 'yogurt no spoon', 'src': '/static/foodstim60/yogurt no spoon.jpg', 'key': 'NaN', 'origWidth': 411, 'origHeight': 410, 'width': 411, 'height': 410, 'widthPercent': 0.8, 'rescaleHeight': True, 'trialN': 7, 'loaded': True, 'loadedTime': 14042.700000047684, 'positionName': 'CENTER', 'positionCoords': [569, 220]}]",Rate how much you want to eat this food from 0 (least) to 10 (most).,14038.600000143051,1669831816278,yogurt no spoon,,1007.0999999046326,True,3.74,15045.700000047684,1007.0999999046326,True,HRV,HRV_0196,2022-11-30 18:16:07
8,"[{'imgObject': {}, 'id': 'rigatoni and sauce', 'src': '/static/foodstim60/rigatoni and sauce.jpg', 'key': 'NaN', 'origWidth': 410, 'origHeight': 411, 'width': 410, 'height': 411, 'widthPercent': 0.8, 'rescaleHeight': True, 'trialN': 8, 'loaded': True, 'loadedTime': 15050.400000095367, 'positionName': 'CENTER', 'positionCoords': [569.5, 219.5]}]",Rate how much you want to eat this food from 0 (least) to 10 (most).,15046.900000095367,1669831817287,rigatoni and sauce,,1078.7999999523163,True,6.99,16125.700000047684,1078.7999999523163,True,HRV,HRV_0196,2022-11-30 18:16:07
9,"[{'imgObject': {}, 'id': 'chickenfingers', 'src': '/static/foodstim60/chickenfingers.jpg', 'key': 'NaN', 'origWidth': 410, 'origHeight': 410, 'width': 410, 'height': 410, 'widthPercent': 0.8, 'rescaleHeight': True, 'trialN': 9, 'loaded': True, 'loadedTime': 16130, 'positionName': 'CENTER', 'positionCoords': [569.5, 220]}]",Rate how much you want to eat this food from 0 (least) to 10 (most).,16126.799999952316,1669831818367,chickenfingers,,2134.800000190735,True,8.620000000000001,18261.60000014305,2134.800000190735,True,HRV,HRV_0196,2022-11-30 18:16:07
10,"[{'imgObject': {}, 'id': 'strawberries', 'src': '/static/foodstim60/strawberries.jpg', 'key': 'NaN', 'origWidth': 410, 'origHeight': 410, 'width': 410, 'height': 410, 'widthPercent': 0.8, 'rescaleHeight': True, 'trialN': 10, 'loaded': True, 'loadedTime': 18265.900000095367, 'positionName': 'CENTER', 'positionCoords': [569.5, 220]}]",Rate how much you want to eat this food from 0 (least) to 10 (most).,18262.700000047684,1669831820502,strawberries,,1286.7000000476837,True,3.87,19549.400000095367,1286.7000000476837,True,HRV,HRV_0196,2022-11-30 18:16:07
11,"[{'imgObject': {}, 'id': 'baked potato', 'src': '/static/foodstim60/baked potato.jpg', 'key': 'NaN', 'origWidth': 409, 'origHeight': 410, 'width': 409, 'height': 410, 'widthPercent': 0.8, 'rescaleHeight': True, 'trialN': 11, 'loaded': True, 'loadedTime': 19555.10000014305, 'positionName': 'CENTER', 'positionCoords': [570, 220]}]",Rate how much you want to eat this food from 0 (least) to 10 (most).,19550.60000014305,1669831821790,baked potato,,1495.0,True,6.28,21045.60000014305,1495.0,True,HRV,HRV_0196,2022-11-30 18:16:07
12,"[{'imgObject': {}, 'id': 'chicken nuggets2', 'src': '/static/foodstim60/chicken nuggets2.jpg', 'key': 'NaN', 'origWidth': 410, 'origHeight': 409, 'width': 410, 'height': 409, 'widthPercent': 0.8, 'rescaleHeight': True, 'trialN': 12, 'loaded': True, 'loadedTime': 21050.299999952316, 'positionName': 'CENTER', 'positionCoords': [569.5, 220.5]}]",Rate how much you want to eat this food from 0 (least) to 10 (most).,21046.799999952316,1669831823286,chicken nuggets2,,2255.0,True,8.22,23301.799999952316,2255.0,True,HRV,HRV_0196,2022-11-30 18:16:07
13,"[{'imgObject': {}, 'id': 'turkey sandwich', 'src': '/static/foodstim60/turkey sandwich.jpg', 'key': 'NaN', 'origWidth': 409, 'origHeight': 409, 'width': 409, 'height': 409, 'widthPercent': 0.8, 'rescaleHeight': True, 'trialN': 13, 'loaded': True, 'loadedTime': 23305.60000014305, 'positionName': 'CENTER', 'positionCoords': [570, 220.5]}]",Rate how much you want to eat this food from 0 (least) to 10 (most).,23302.900000095367,1669831825543,turkey sandwich,,3174.7000000476837,True,5.03,26477.60000014305,3174.7000000476837,True,HRV,HRV_0196,2022-11-30 18:16:07
14,"[{'imgObject': {}, 'id': 'eggs', 'src': '/static/foodstim60/eggs.jpg', 'key': 'NaN', 'origWidth': 409, 'origHeight': 409, 'width': 409, 'height': 409, 'widthPercent': 0.8, 'rescaleHeight': True, 'trialN': 14, 'loaded': True, 'loadedTime': 26481.700000047684, 'positionName': 'CENTER', 'positionCoords': [570, 220.5]}]",Rate how much you want to eat this food from 0 (least) to 10 (most).,26478.799999952316,1669831828718,eggs,,2406.7000000476837,True,6.8100000000000005,28885.5,2406.7000000476837,True,HRV,HRV_0196,2022-11-30 18:16:07
15,"[{'imgObject': {}, 'id': 'luckycharms', 'src': '/static/foodstim60/luckycharms.jpg', 'key': 'NaN', 'origWidth': 410, 'origHeight': 409, 'width': 410, 'height': 409, 'widthPercent': 0.8, 'rescaleHeight': True, 'trialN': 15, 'loaded': True, 'loadedTime': 28891.200000047684, 'positionName': 'CENTER', 'positionCoords': [569.5, 220.5]}]",Rate how much you want to eat this food from 0 (least) to 10 (most).,28886.799999952316,1669831831126,luckycharms,,1726.8000001907349,True,2.3000000000000003,30613.60000014305,1726.8000001907349,True,HRV,HRV_0196,2022-11-30 18:16:07
16,"[{'imgObject': {}, 'id': 'bagel and cc', 'src': '/static/foodstim60/bagel and cc.jpg', 'key': 'NaN', 'origWidth': 410, 'origHeight': 410, 'width': 410, 'height': 410, 'widthPercent': 0.8, 'rescaleHeight': True, 'trialN': 16, 'loaded': True, 'loadedTime': 30617.799999952316, 'positionName': 'CENTER', 'positionCoords': [569.5, 220]}]",Rate how much you want to eat this food from 0 (least) to 10 (most).,30614.900000095367,1669831832855,bagel and cc,,3798.7000000476837,True,1.3,34413.60000014305,3798.7000000476837,True,HRV,HRV_0196,2022-11-30 18:16:07
17,"[{'imgObject': {}, 'id': 'corn cob', 'src': '/static/foodstim60/corn cob.jpg', 'key': 'NaN', 'origWidth': 411, 'origHeight': 411, 'width': 411, 'height': 411, 'widthPercent': 0.8, 'rescaleHeight': True, 'trialN': 17, 'loaded': True, 'loadedTime': 34419, 'positionName': 'CENTER', 'positionCoords': [569, 219.5]}]",Rate how much you want to eat this food from 0 (least) to 10 (most).,34414.799999952316,1669831836655,corn cob,,1030.9000000953674,True,5.44,35445.700000047684,1030.9000000953674,True,HRV,HRV_0196,2022-11-30 18:16:07
18,"[{'imgObject': {}, 'id': 'cheerios', 'src': '/static/foodstim60/cheerios.jpg', 'key': 'NaN', 'origWidth': 409, 'origHeight': 410, 'width': 409, 'height': 410, 'widthPercent': 0.8, 'rescaleHeight': True, 'trialN': 18, 'loaded': True, 'loadedTime': 35449.90000009537, 'positionName': 'CENTER', 'positionCoords': [570, 220]}]",Rate how much you want to eat this food from 0 (least) to 10 (most).,35446.90000009537,1669831837687,cheerios,,1094.7000000476837,True,6.55,36541.60000014305,1094.7000000476837,True,HRV,HRV_0196,2022-11-30 18:16:07
19,"[{'imgObject': {}, 'id': 'olives', 'src': '/static/foodstim60/olives.jpg', 'key': 'NaN', 'origWidth': 410, 'origHeight': 410, 'width': 410, 'height': 410, 'widthPercent': 0.8, 'rescaleHeight': True, 'trialN': 19, 'loaded': True, 'loadedTime': 36545.90000009537, 'positionName': 'CENTER', 'positionCoords': [569.5, 220]}]",Rate how much you want to eat this food from 0 (least) to 10 (most).,36543.0,1669831838783,olives,,1878.7000000476837,True,0.6900000000000001,38421.700000047684,1878.7000000476837,True,HRV,HRV_0196,2022-11-30 18:16:07
20,"[{'imgObject': {}, 'id': 'popsicles', 'src': '/static/foodstim60/popsicles.jpg', 'key': 'NaN', 'origWidth': 410, 'origHeight': 410, 'width': 410, 'height': 410, 'widthPercent': 0.8, 'rescaleHeight': True, 'trialN': 20, 'loaded': True, 'loadedTime': 38426.90000009537, 'positionName': 'CENTER', 'positionCoords': [569.5, 220]}]",Rate how much you want to eat this food from 0 (least) to 10 (most).,38423.40000009537,1669831840663,popsicles,,1214.0999999046326,True,7.33,39637.5,1214.0999999046326,True,HRV,HRV_0196,2022-11-30 18:16:07
21,"[{'imgObject': {}, 'id': 'blueberries', 'src': '/static/foodstim60/blueberries.jpg', 'key': 'NaN', 'origWidth': 411, 'origHeight': 411, 'width': 411, 'height': 411, 'widthPercent': 0.8, 'rescaleHeight': True, 'trialN': 21, 'loaded': True, 'loadedTime': 39644.799999952316, 'positionName': 'CENTER', 'positionCoords': [569, 219.5]}]",Rate how much you want to eat this food from 0 (least) to 10 (most).,39639.60000014305,1669831841879,blueberries,,1558.0,True,8.14,41197.60000014305,1558.0,True,HRV,HRV_0196,2022-11-30 18:16:07
22,"[{'imgObject': {}, 'id': 'avocado', 'src': '/static/foodstim60/avocado.jpg', 'key': 'NaN', 'origWidth': 409, 'origHeight': 409, 'width': 409, 'height': 409, 'widthPercent': 0.8, 'rescaleHeight': True, 'trialN': 22, 'loaded': True, 'loadedTime': 41202, 'positionName': 'CENTER', 'positionCoords': [570, 220.5]}]",Rate how much you want to eat this food from 0 (least) to 10 (most).,41199.0,1669831843439,avocado,,1078.6000001430511,True,7.92,42277.60000014305,1078.6000001430511,True,HRV,HRV_0196,2022-11-30 18:16:07
23,"[{'imgObject': {}, 'id': 'sweetpotato', 'src': '/static/foodstim60/sweetpotato.jpg', 'key': 'NaN', 'origWidth': 410, 'origHeight': 410, 'width': 410, 'height': 410, 'widthPercent': 0.8, 'rescaleHeight': True, 'trialN': 23, 'loaded': True, 'loadedTime': 42282.200000047684, 'positionName': 'CENTER', 'positionCoords': [569.5, 220]}]",Rate how much you want to eat this food from 0 (least) to 10 (most).,42279.0,1669831844519,sweetpotato,,950.5,True,5.58,43229.5,950.5,True,HRV,HRV_0196,2022-11-30 18:16:07
24,"[{'imgObject': {}, 'id': 'cherries', 'src': '/static/foodstim60/cherries.jpg', 'key': 'NaN', 'origWidth': 410, 'origHeight': 411, 'width': 410, 'height': 411, 'widthPercent': 0.8, 'rescaleHeight': True, 'trialN': 24, 'loaded': True, 'loadedTime': 43235.10000014305, 'positionName': 'CENTER', 'positionCoords': [569.5, 219.5]}]",Rate how much you want to eat this food from 0 (least) to 10 (most).,43231.0,1669831845471,cherries,,2310.7000000476837,True,8.370000000000001,45541.700000047684,2310.7000000476837,True,HRV,HRV_0196,2022-11-30 18:16:07
25,"[{'imgObject': {}, 'id': 'raisin bran w milk', 'src': '/static/foodstim60/raisin bran w milk.jpg', 'key': 'NaN', 'origWidth': 411, 'origHeight': 411, 'width': 411, 'height': 411, 'widthPercent': 0.8, 'rescaleHeight': True, 'trialN': 25, 'loaded': True, 'loadedTime': 45545.299999952316, 'positionName': 'CENTER', 'positionCoords': [569, 219.5]}]",Rate how much you want to eat this food from 0 (least) to 10 (most).,45542.700000047684,1669831847783,raisin bran w milk,,1263.0,True,3.18,46805.700000047684,1263.0,True,HRV,HRV_0196,2022-11-30 18:16:07
26,"[{'imgObject': {}, 'id': 'grilled chicken strips', 'src': '/static/foodstim60/grilled chicken strips.jpg', 'key': 'NaN', 'origWidth': 410, 'origHeight': 411, 'width': 410, 'height': 411, 'widthPercent': 0.8, 'rescaleHeight': True, 'trialN': 26, 'loaded': True, 'loadedTime': 46809.40000009537, 'positionName': 'CENTER', 'positionCoords': [569.5, 219.5]}]",Rate how much you want to eat this food from 0 (least) to 10 (most).,46806.60000014305,1669831849046,grilled chicken strips,,1310.7999999523163,True,7.36,48117.40000009537,1310.7999999523163,True,HRV,HRV_0196,2022-11-30 18:16:07
27,"[{'imgObject': {}, 'id': 'cherry tomato', 'src': '/static/foodstim60/cherry tomato.jpg', 'key': 'NaN', 'origWidth': 410, 'origHeight': 410, 'width': 410, 'height': 410, 'widthPercent': 0.8, 'rescaleHeight': True, 'trialN': 27, 'loaded': True, 'loadedTime': 48121.40000009537, 'positionName': 'CENTER', 'positionCoords': [569.5, 220]}]",Rate how much you want to eat this food from 0 (least) to 10 (most).,48118.5,1669831850358,cherry tomato,,1598.9000000953674,True,7.29,49717.40000009537,1598.9000000953674,True,HRV,HRV_0196,2022-11-30 18:16:07
28,"[{'imgObject': {}, 'id': 'apple slices', 'src': '/static/foodstim60/apple slices.jpg', 'key': 'NaN', 'origWidth': 409, 'origHeight': 410, 'width': 409, 'height': 410, 'widthPercent': 0.8, 'rescaleHeight': True, 'trialN': 28, 'loaded': True, 'loadedTime': 49721.700000047684, 'positionName': 'CENTER', 'positionCoords': [570, 220]}]",Rate how much you want to eat this food from 0 (least) to 10 (most).,49718.799999952316,1669831851959,apple slices,,1846.7000000476837,True,3.67,51565.5,1846.7000000476837,True,HRV,HRV_0196,2022-11-30 18:16:07
29,"[{'imgObject': {}, 'id': 'edamame', 'src': '/static/foodstim60/edamame.jpg', 'key': 'NaN', 'origWidth': 409, 'origHeight': 410, 'width': 409, 'height': 410, 'widthPercent': 0.8, 'rescaleHeight': True, 'trialN': 29, 'loaded': True, 'loadedTime': 51569.40000009537, 'positionName': 'CENTER', 'positionCoords': [570, 220]}]",Rate how much you want to eat this food from 0 (least) to 10 (most).,51566.5,1669831853806,edamame,,1495.1000001430511,True,2.19,53061.60000014305,1495.1000001430511,True,HRV,HRV_0196,2022-11-30 18:16:07
30,"[{'imgObject': {}, 'id': 'mashed potato', 'src': '/static/foodstim60/mashed potato.jpg', 'key': 'NaN', 'origWidth': 409, 'origHeight': 409, 'width': 409, 'height': 409, 'widthPercent': 0.8, 'rescaleHeight': True, 'trialN': 30, 'loaded': True, 'loadedTime': 53066.90000009537, 'positionName': 'CENTER', 'positionCoords': [570, 220.5]}]",Rate how much you want to eat this food from 0 (least) to 10 (most).,53063.200000047684,1669831855303,mashed potato,,1214.2000000476837,True,6.45,54277.40000009537,1214.2000000476837,True,HRV,HRV_0196,2022-11-30 18:16:07
31,"[{'imgObject': {}, 'id': 'blackbeanswithrice', 'src': '/static/foodstim60/blackbeanswithrice.jpg', 'key': 'NaN', 'origWidth': 410, 'origHeight': 410, 'width': 410, 'height': 410, 'widthPercent': 0.8, 'rescaleHeight': True, 'trialN': 31, 'loaded': True, 'loadedTime': 54282.10000014305, 'positionName': 'CENTER', 'positionCoords': [569.5, 220]}]",Rate how much you want to eat this food from 0 (least) to 10 (most).,54279.200000047684,1669831856519,blackbeanswithrice,,1582.5,True,7.29,55861.700000047684,1582.5,True,HRV,HRV_0196,2022-11-30 18:16:07
32,"[{'imgObject': {}, 'id': 'lox', 'src': '/static/foodstim60/lox.jpg', 'key': 'NaN', 'origWidth': 410, 'origHeight': 411, 'width': 410, 'height': 411, 'widthPercent': 0.8, 'rescaleHeight': True, 'trialN': 32, 'loaded': True, 'loadedTime': 55866.60000014305, 'positionName': 'CENTER', 'positionCoords': [569.5, 219.5]}]",Rate how much you want to eat this food from 0 (least) to 10 (most).,55863.200000047684,1669831858103,lox,,3598.4000000953674,True,3.92,59461.60000014305,3598.4000000953674,True,HRV,HRV_0196,2022-11-30 18:16:07
33,"[{'imgObject': {}, 'id': 'ice cream sundae 002', 'src': '/static/foodstim60/ice cream sundae 002.jpg', 'key': 'NaN', 'origWidth': 409, 'origHeight': 409, 'width': 409, 'height': 409, 'widthPercent': 0.8, 'rescaleHeight': True, 'trialN': 33, 'loaded': True, 'loadedTime': 59466.10000014305, 'positionName': 'CENTER', 'positionCoords': [570, 220.5]}]",Rate how much you want to eat this food from 0 (least) to 10 (most).,59463.10000014305,1669831861703,ice cream sundae 002,,5038.5,True,3.22,64501.60000014305,5038.5,True,HRV,HRV_0196,2022-11-30 18:16:07
34,"[{'imgObject': {}, 'id': 'veggieswithdip', 'src': '/static/foodstim60/veggieswithdip.jpg', 'key': 'NaN', 'origWidth': 409, 'origHeight': 409, 'width': 409, 'height': 409, 'widthPercent': 0.8, 'rescaleHeight': True, 'trialN': 34, 'loaded': True, 'loadedTime': 64505.90000009537, 'positionName': 'CENTER', 'positionCoords': [570, 220.5]}]",Rate how much you want to eat this food from 0 (least) to 10 (most).,64502.90000009537,1669831866743,veggieswithdip,,1710.7000000476837,True,6.8100000000000005,66213.60000014305,1710.7000000476837,True,HRV,HRV_0196,2022-11-30 18:16:07
35,"[{'imgObject': {}, 'id': 'omelette', 'src': '/static/foodstim60/omelette.jpg', 'key': 'NaN', 'origWidth': 410, 'origHeight': 409, 'width': 410, 'height': 409, 'widthPercent': 0.8, 'rescaleHeight': True, 'trialN': 35, 'loaded': True, 'loadedTime': 66217.90000009537, 'positionName': 'CENTER', 'positionCoords': [569.5, 220.5]}]",Rate how much you want to eat this food from 0 (least) to 10 (most).,66214.79999995232,1669831868455,omelette,,3102.5,True,7.43,69317.29999995232,3102.5,True,HRV,HRV_0196,2022-11-30 18:16:07
36,"[{'imgObject': {}, 'id': 'raspberries', 'src': '/static/foodstim60/raspberries.jpg', 'key': 'NaN', 'origWidth': 411, 'origHeight': 411, 'width': 411, 'height': 411, 'widthPercent': 0.8, 'rescaleHeight': True, 'trialN': 36, 'loaded': True, 'loadedTime': 69322.40000009537, 'positionName': 'CENTER', 'positionCoords': [569, 219.5]}]",Rate how much you want to eat this food from 0 (least) to 10 (most).,69318.5,1669831871558,raspberries,,9247.100000143051,True,4.8100000000000005,78565.60000014305,9247.100000143051,True,HRV,HRV_0196,2022-11-30 18:16:07
37,"[{'imgObject': {}, 'id': 'turkeysandwich', 'src': '/static/foodstim60/turkeysandwich.jpg', 'key': 'NaN', 'origWidth': 409, 'origHeight': 409, 'width': 409, 'height': 409, 'widthPercent': 0.8, 'rescaleHeight': True, 'trialN': 37, 'loaded': True, 'loadedTime': 78570.40000009537, 'positionName': 'CENTER', 'positionCoords': [570, 220.5]}]",Rate how much you want to eat this food from 0 (least) to 10 (most).,78567.20000004768,1669831880807,turkeysandwich,,1214.5,True,7.61,79781.70000004768,1214.5,True,HRV,HRV_0196,2022-11-30 18:16:07
38,"[{'imgObject': {}, 'id': 'Grapes', 'src': '/static/foodstim60/Grapes.jpg', 'key': 'NaN', 'origWidth': 411, 'origHeight': 411, 'width': 411, 'height': 411, 'widthPercent': 0.8, 'rescaleHeight': True, 'trialN': 38, 'loaded': True, 'loadedTime': 79786.70000004768, 'positionName': 'CENTER', 'positionCoords': [569, 219.5]}]",Rate how much you want to eat this food from 0 (least) to 10 (most).,79783.0,1669831882023,Grapes,,1918.5,True,3.4,81701.5,1918.5,True,HRV,HRV_0196,2022-11-30 18:16:07
39,"[{'imgObject': {}, 'id': 'fruitsalad', 'src': '/static/foodstim60/fruitsalad.jpg', 'key': 'NaN', 'origWidth': 410, 'origHeight': 410, 'width': 410, 'height': 410, 'widthPercent': 0.8, 'rescaleHeight': True, 'trialN': 39, 'loaded': True, 'loadedTime': 81706.70000004768, 'positionName': 'CENTER', 'positionCoords': [569.5, 220]}]",Rate how much you want to eat this food from 0 (least) to 10 (most).,81702.90000009537,1669831883943,fruitsalad,,1166.7000000476837,True,6.54,82869.60000014305,1166.7000000476837,True,HRV,HRV_0196,2022-11-30 18:16:07
40,"[{'imgObject': {}, 'id': 'cocktailshrimp', 'src': '/static/foodstim60/cocktailshrimp.jpg', 'key': 'NaN', 'origWidth': 410, 'origHeight': 410, 'width': 410, 'height': 410, 'widthPercent': 0.8, 'rescaleHeight': True, 'trialN': 40, 'loaded': True, 'loadedTime': 82875.10000014305, 'positionName': 'CENTER', 'positionCoords': [569.5, 220]}]",Rate how much you want to eat this food from 0 (least) to 10 (most).,82870.90000009537,1669831885111,cocktailshrimp,,1606.5,True,2.24,84477.40000009537,1606.5,True,HRV,HRV_0196,2022-11-30 18:16:07
41,"[{'imgObject': {}, 'id': 'steak', 'src': '/static/foodstim60/steak.jpg', 'key': 'NaN', 'origWidth': 410, 'origHeight': 410, 'width': 410, 'height': 410, 'widthPercent': 0.8, 'rescaleHeight': True, 'trialN': 41, 'loaded': True, 'loadedTime': 84481.70000004768, 'positionName': 'CENTER', 'positionCoords': [569.5, 220]}]",Rate how much you want to eat this food from 0 (least) to 10 (most).,84478.60000014305,1669831886718,steak,,959.0999999046326,True,7.65,85437.70000004768,959.0999999046326,True,HRV,HRV_0196,2022-11-30 18:16:07
42,"[{'imgObject': {}, 'id': 'burrito', 'src': '/static/foodstim60/burrito.jpg', 'key': 'NaN', 'origWidth': 410, 'origHeight': 410, 'width': 410, 'height': 410, 'widthPercent': 0.8, 'rescaleHeight': True, 'trialN': 42, 'loaded': True, 'loadedTime': 85441.79999995232, 'positionName': 'CENTER', 'positionCoords': [569.5, 220]}]",Rate how much you want to eat this food from 0 (least) to 10 (most).,85438.60000014305,1669831887678,burrito,,1071.0,True,2.87,86509.60000014305,1071.0,True,HRV,HRV_0196,2022-11-30 18:16:07
43,"[{'imgObject': {}, 'id': 'salmon', 'src': '/static/foodstim60/salmon.jpg', 'key': 'NaN', 'origWidth': 410, 'origHeight': 409, 'width': 410, 'height': 409, 'widthPercent': 0.8, 'rescaleHeight': True, 'trialN': 43, 'loaded': True, 'loadedTime': 86513.5, 'positionName': 'CENTER', 'positionCoords': [569.5, 220.5]}]",Rate how much you want to eat this food from 0 (least) to 10 (most).,86510.60000014305,1669831888750,salmon,,1478.8999998569489,True,2.63,87989.5,1478.8999998569489,True,HRV,HRV_0196,2022-11-30 18:16:07
44,"[{'imgObject': {}, 'id': 'bagel plain', 'src': '/static/foodstim60/bagel plain.jpg', 'key': 'NaN', 'origWidth': 410, 'origHeight': 410, 'width': 410, 'height': 410, 'widthPercent': 0.8, 'rescaleHeight': True, 'trialN': 44, 'loaded': True, 'loadedTime': 87993.5, 'positionName': 'CENTER', 'positionCoords': [569.5, 220]}]",Rate how much you want to eat this food from 0 (least) to 10 (most).,87990.5,1669831890230,bagel plain,,2071.100000143051,True,1.71,90061.60000014305,2071.100000143051,True,HRV,HRV_0196,2022-11-30 18:16:07
45,"[{'imgObject': {}, 'id': 'sushi w_condiments', 'src': '/static/foodstim60/sushi w_condiments.jpg', 'key': 'NaN', 'origWidth': 410, 'origHeight': 410, 'width': 410, 'height': 410, 'widthPercent': 0.8, 'rescaleHeight': True, 'trialN': 45, 'loaded': True, 'loadedTime': 90065.90000009537, 'positionName': 'CENTER', 'positionCoords': [569.5, 220]}]",Rate how much you want to eat this food from 0 (least) to 10 (most).,90062.70000004768,1669831892303,sushi w_condiments,,1086.5999999046326,True,7.88,91149.29999995232,1086.5999999046326,True,HRV,HRV_0196,2022-11-30 18:16:07
46,"[{'imgObject': {}, 'id': 'kiwi', 'src': '/static/foodstim60/kiwi.jpg', 'key': 'NaN', 'origWidth': 410, 'origHeight': 410, 'width': 410, 'height': 410, 'widthPercent': 0.8, 'rescaleHeight': True, 'trialN': 46, 'loaded': True, 'loadedTime': 91153.79999995232, 'positionName': 'CENTER', 'positionCoords': [569.5, 220]}]",Rate how much you want to eat this food from 0 (least) to 10 (most).,91150.40000009537,1669831893390,kiwi,,1566.8999998569489,True,5.87,92717.29999995232,1566.8999998569489,True,HRV,HRV_0196,2022-11-30 18:16:07
47,"[{'imgObject': {}, 'id': 'burger', 'src': '/static/foodstim60/burger.jpg', 'key': 'NaN', 'origWidth': 409, 'origHeight': 409, 'width': 409, 'height': 409, 'widthPercent': 0.8, 'rescaleHeight': True, 'trialN': 47, 'loaded': True, 'loadedTime': 92721.90000009537, 'positionName': 'CENTER', 'positionCoords': [570, 220.5]}]",Rate how much you want to eat this food from 0 (least) to 10 (most).,92718.70000004768,1669831894958,burger,,1214.5999999046326,True,7.95,93933.29999995232,1214.5999999046326,True,HRV,HRV_0196,2022-11-30 18:16:07
48,"[{'imgObject': {}, 'id': 'Tribe humus pita', 'src': '/static/foodstim60/Tribe humus pita.jpg', 'key': 'NaN', 'origWidth': 411, 'origHeight': 411, 'width': 411, 'height': 411, 'widthPercent': 0.8, 'rescaleHeight': True, 'trialN': 48, 'loaded': True, 'loadedTime': 93938.90000009537, 'positionName': 'CENTER', 'positionCoords': [569, 219.5]}]",Rate how much you want to eat this food from 0 (least) to 10 (most).,93935.10000014305,1669831896175,Tribe humus pita,,1318.2999999523163,True,3.0100000000000002,95253.40000009537,1318.2999999523163,True,HRV,HRV_0196,2022-11-30 18:16:07
49,"[{'imgObject': {}, 'id': 'mango', 'src': '/static/foodstim60/mango.jpg', 'key': 'NaN', 'origWidth': 411, 'origHeight': 411, 'width': 411, 'height': 411, 'widthPercent': 0.8, 'rescaleHeight': True, 'trialN': 49, 'loaded': True, 'loadedTime': 95257.5, 'positionName': 'CENTER', 'positionCoords': [569, 219.5]}]",Rate how much you want to eat this food from 0 (least) to 10 (most).,95254.60000014305,1669831897494,mango,,2502.899999856949,True,6.1000000000000005,97757.5,2502.899999856949,True,HRV,HRV_0196,2022-11-30 18:16:07
50,"[{'imgObject': {}, 'id': 'shreddedwheatwithmilk', 'src': '/static/foodstim60/shreddedwheatwithmilk.jpg', 'key': 'NaN', 'origWidth': 410, 'origHeight': 410, 'width': 410, 'height': 410, 'widthPercent': 0.8, 'rescaleHeight': True, 'trialN': 50, 'loaded': True, 'loadedTime': 97761.70000004768, 'positionName': 'CENTER', 'positionCoords': [569.5, 220]}]",Rate how much you want to eat this food from 0 (least) to 10 (most).,97758.90000009537,1669831899999,shreddedwheatwithmilk,,1478.7000000476837,True,3.66,99237.60000014305,1478.7000000476837,True,HRV,HRV_0196,2022-11-30 18:16:07
51,"[{'imgObject': {}, 'id': 'pear', 'src': '/static/foodstim60/pear.jpg', 'key': 'NaN', 'origWidth': 411, 'origHeight': 410, 'width': 411, 'height': 410, 'widthPercent': 0.8, 'rescaleHeight': True, 'trialN': 51, 'loaded': True, 'loadedTime': 99242.20000004768, 'positionName': 'CENTER', 'positionCoords': [569, 220]}]",Rate how much you want to eat this food from 0 (least) to 10 (most).,99238.70000004768,1669831901479,pear,,1622.7999999523163,True,3.7,100861.5,1622.7999999523163,True,HRV,HRV_0196,2022-11-30 18:16:07
52,"[{'imgObject': {}, 'id': 'fried eggs', 'src': '/static/foodstim60/fried eggs.jpg', 'key': 'NaN', 'origWidth': 410, 'origHeight': 410, 'width': 410, 'height': 410, 'widthPercent': 0.8, 'rescaleHeight': True, 'trialN': 52, 'loaded': True, 'loadedTime': 100865.10000014305, 'positionName': 'CENTER', 'positionCoords': [569.5, 220]}]",Rate how much you want to eat this food from 0 (least) to 10 (most).,100862.70000004768,1669831903103,fried eggs,,3110.7999999523163,True,6.05,103973.5,3110.7999999523163,True,HRV,HRV_0196,2022-11-30 18:16:07
53,"[{'imgObject': {}, 'id': 'tacos', 'src': '/static/foodstim60/tacos.jpg', 'key': 'NaN', 'origWidth': 411, 'origHeight': 411, 'width': 411, 'height': 411, 'widthPercent': 0.8, 'rescaleHeight': True, 'trialN': 53, 'loaded': True, 'loadedTime': 103978.70000004768, 'positionName': 'CENTER', 'positionCoords': [569, 219.5]}]",Rate how much you want to eat this food from 0 (least) to 10 (most).,103974.70000004768,1669831906215,tacos,,15598.700000047684,True,7.25,119573.40000009537,15598.700000047684,True,HRV,HRV_0196,2022-11-30 18:16:07
54,"[{'imgObject': {}, 'id': 'froot loops w milk', 'src': '/static/foodstim60/froot loops w milk.jpg', 'key': 'NaN', 'origWidth': 410, 'origHeight': 410, 'width': 410, 'height': 410, 'widthPercent': 0.8, 'rescaleHeight': True, 'trialN': 54, 'loaded': True, 'loadedTime': 119577.60000014305, 'positionName': 'CENTER', 'positionCoords': [569.5, 220]}]",Rate how much you want to eat this food from 0 (least) to 10 (most).,119574.60000014305,1669831921815,froot loops w milk,,28374.89999985695,True,5.88,147949.5,28374.89999985695,True,HRV,HRV_0196,2022-11-30 18:16:07
55,"[{'imgObject': {}, 'id': 'seaweed', 'src': '/static/foodstim60/seaweed.jpg', 'key': 'NaN', 'origWidth': 410, 'origHeight': 410, 'width': 410, 'height': 410, 'widthPercent': 0.8, 'rescaleHeight': True, 'trialN': 55, 'loaded': True, 'loadedTime': 147954, 'positionName': 'CENTER', 'positionCoords': [569.5, 220]}]",Rate how much you want to eat this food from 0 (least) to 10 (most).,147950.79999995232,1669831950191,seaweed,,2598.600000143051,True,1.7,150549.40000009537,2598.600000143051,True,HRV,HRV_0196,2022-11-30 18:16:07
56,"[{'imgObject': {}, 'id': 'eggsalad', 'src': '/static/foodstim60/eggsalad.jpg', 'key': 'NaN', 'origWidth': 410, 'origHeight': 409, 'width': 410, 'height': 409, 'widthPercent': 0.8, 'rescaleHeight': True, 'trialN': 56, 'loaded': True, 'loadedTime': 150553.79999995232, 'positionName': 'CENTER', 'positionCoords': [569.5, 220.5]}]",Rate how much you want to eat this food from 0 (least) to 10 (most).,150550.60000014305,1669831952791,eggsalad,,1454.8999998569489,True,7.07,152005.5,1454.8999998569489,True,HRV,HRV_0196,2022-11-30 18:16:07
57,"[{'imgObject': {}, 'id': 'banana', 'src': '/static/foodstim60/banana.jpg', 'key': 'NaN', 'origWidth': 410, 'origHeight': 410, 'width': 410, 'height': 410, 'widthPercent': 0.8, 'rescaleHeight': True, 'trialN': 57, 'loaded': True, 'loadedTime': 152009.90000009537, 'positionName': 'CENTER', 'positionCoords': [569.5, 220]}]",Rate how much you want to eat this food from 0 (least) to 10 (most).,152006.90000009537,1669831954247,banana,,1582.5,True,7.24,153589.40000009537,1582.5,True,HRV,HRV_0196,2022-11-30 18:16:07
58,"[{'imgObject': {}, 'id': 'cantaloupe', 'src': '/static/foodstim60/cantaloupe.jpg', 'key': 'NaN', 'origWidth': 409, 'origHeight': 409, 'width': 409, 'height': 409, 'widthPercent': 0.8, 'rescaleHeight': True, 'trialN': 58, 'loaded': True, 'loadedTime': 153593.90000009537, 'positionName': 'CENTER', 'positionCoords': [570, 220.5]}]",Rate how much you want to eat this food from 0 (least) to 10 (most).,153590.79999995232,1669831955831,cantaloupe,,1182.7000000476837,True,3.79,154773.5,1182.7000000476837,True,HRV,HRV_0196,2022-11-30 18:16:07
59,"[{'imgObject': {}, 'id': 'salad w chicken', 'src': '/static/foodstim60/salad w chicken.jpg', 'key': 'NaN', 'origWidth': 411, 'origHeight': 411, 'width': 411, 'height': 411, 'widthPercent': 0.8, 'rescaleHeight': True, 'trialN': 59, 'loaded': True, 'loadedTime': 154777.10000014305, 'positionName': 'CENTER', 'positionCoords': [569, 219.5]}]",Rate how much you want to eat this food from 0 (least) to 10 (most).,154774.40000009537,1669831957015,salad w chicken,,1430.8999998569489,True,6.49,156205.29999995232,1430.8999998569489,True,HRV,HRV_0196,2022-11-30 18:16:07
