trialN,stimuli,trialStartTime,trialStartTime_UNIX,stimulus1,stimulus2,stimulus1Bid,stimulus2Bid,delta,trialEvents,selected,rsp,rt,rt_UNIX,receivedResponse,trialEndTime,trialDuration,trialEndTime_UNIX,trialDuration_UNIX,rt_perfnow,exp,subjectId,date
0,"[{'imgObject': {}, 'id': 'veggieswithdip', 'src': '/static/foodstim60/veggieswithdip.jpg', 'key': 'u', 'origWidth': 409, 'origHeight': 409, 'width': 409, 'height': 409, 'widthPercent': 0.45, 'rescaleHeight': False, 'trialN': 0, 'loaded': True, 'loadedTime': 2891.600000143051, 'positionName': 'LEFT', 'positionCoords': [512.6, 335.5], 'bid': 5.75}, {'imgObject': {}, 'id': 'mango', 'src': '/static/foodstim60/mango.jpg', 'key': 'i', 'origWidth': 411, 'origHeight': 411, 'width': 411, 'height': 411, 'widthPercent': 0.45, 'rescaleHeight': False, 'trialN': 0, 'loaded': True, 'loadedTime': 2992.5, 'positionName': 'RIGHT', 'positionCoords': [998.4, 334.5], 'bid': 4.41}]",4118.900000095367,1669832122878,veggieswithdip,mango,5.75,4.41,-1.3399999999999999,"[{'event': 'fullscreenchange', 'details': 'fullscreenexit', 'performance time': 4132.299999952316, 'date time': 1669832122892}]",NaN,NaN,NaN,NaN,False,8133.400000095367,4014.5,1669832126893,4015,,HRV,HRV_0196,2022-11-30 18:23:13
1,"[{'imgObject': {}, 'id': 'eggsalad', 'src': '/static/foodstim60/eggsalad.jpg', 'key': 'u', 'origWidth': 410, 'origHeight': 409, 'width': 410, 'height': 409, 'widthPercent': 0.45, 'rescaleHeight': False, 'trialN': 1, 'loaded': True, 'loadedTime': 8179.600000143051, 'positionName': 'LEFT', 'positionCoords': [333.52, 220.5], 'bid': 5.2700000000000005}, {'imgObject': {}, 'id': 'cherries', 'src': '/static/foodstim60/cherries.jpg', 'key': 'i', 'origWidth': 410, 'origHeight': 411, 'width': 410, 'height': 411, 'widthPercent': 0.45, 'rescaleHeight': False, 'trialN': 1, 'loaded': True, 'loadedTime': 8182, 'positionName': 'RIGHT', 'positionCoords': [805.48, 219.5], 'bid': 6.23}]",8154.400000095367,1669832126914,eggsalad,cherries,5.2700000000000005,6.23,0.96,,eggsalad,u,1667.5,1668,True,10337.600000143051,2183.2000000476837,1669832129097,2183,1668.2000000476837,HRV,HRV_0196,2022-11-30 18:23:13
2,"[{'imgObject': {}, 'id': 'cocktailshrimp', 'src': '/static/foodstim60/cocktailshrimp.jpg', 'key': 'u', 'origWidth': 410, 'origHeight': 410, 'width': 410, 'height': 410, 'widthPercent': 0.45, 'rescaleHeight': False, 'trialN': 2, 'loaded': True, 'loadedTime': 10342.100000143051, 'positionName': 'LEFT', 'positionCoords': [333.52, 220], 'bid': 1.54}, {'imgObject': {}, 'id': 'salmon', 'src': '/static/foodstim60/salmon.jpg', 'key': 'i', 'origWidth': 410, 'origHeight': 409, 'width': 410, 'height': 409, 'widthPercent': 0.45, 'rescaleHeight': False, 'trialN': 2, 'loaded': True, 'loadedTime': 10343.400000095367, 'positionName': 'RIGHT', 'positionCoords': [805.48, 220.5], 'bid': 2.08}]",10339.0,1669832129098,cocktailshrimp,salmon,1.54,2.08,0.54,,salmon,i,3444.600000143051,3446,True,14285.400000095367,3946.4000000953674,1669832133045,3947,3445.4000000953674,HRV,HRV_0196,2022-11-30 18:23:13
3,"[{'imgObject': {}, 'id': 'tacos', 'src': '/static/foodstim60/tacos.jpg', 'key': 'u', 'origWidth': 411, 'origHeight': 411, 'width': 411, 'height': 411, 'widthPercent': 0.45, 'rescaleHeight': False, 'trialN': 3, 'loaded': True, 'loadedTime': 14290, 'positionName': 'LEFT', 'positionCoords': [332.52, 219.5], 'bid': 6}, {'imgObject': {}, 'id': 'strawberries', 'src': '/static/foodstim60/strawberries.jpg', 'key': 'i', 'origWidth': 410, 'origHeight': 410, 'width': 410, 'height': 410, 'widthPercent': 0.45, 'rescaleHeight': False, 'trialN': 3, 'loaded': True, 'loadedTime': 14293.5, 'positionName': 'RIGHT', 'positionCoords': [805.48, 220], 'bid': 4.65}]",14286.700000047684,1669832133046,tacos,strawberries,6.0,4.65,-1.3499999999999996,,tacos,u,990.9000000953674,991,True,15795.5,1508.7999999523163,1669832134555,1509,991.2000000476837,HRV,HRV_0196,2022-11-30 18:23:13
4,"[{'imgObject': {}, 'id': 'chicken nuggets2', 'src': '/static/foodstim60/chicken nuggets2.jpg', 'key': 'u', 'origWidth': 410, 'origHeight': 409, 'width': 410, 'height': 409, 'widthPercent': 0.45, 'rescaleHeight': False, 'trialN': 4, 'loaded': True, 'loadedTime': 15800.299999952316, 'positionName': 'LEFT', 'positionCoords': [333.52, 220.5], 'bid': 8.040000000000001}, {'imgObject': {}, 'id': 'mac & cheese', 'src': '/static/foodstim60/mac & cheese.jpg', 'key': 'i', 'origWidth': 410, 'origHeight': 410, 'width': 410, 'height': 410, 'widthPercent': 0.45, 'rescaleHeight': False, 'trialN': 4, 'loaded': True, 'loadedTime': 15803.600000143051, 'positionName': 'RIGHT', 'positionCoords': [805.48, 220], 'bid': 7.4}]",15796.799999952316,1669832134556,chicken nuggets2,mac & cheese,8.040000000000001,7.4,-0.6400000000000006,,chicken nuggets2,u,808.8000001907349,809,True,17113.200000047684,1316.4000000953674,1669832135873,1317,809.1000001430511,HRV,HRV_0196,2022-11-30 18:23:13
5,"[{'imgObject': {}, 'id': 'strawberries', 'src': '/static/foodstim60/strawberries.jpg', 'key': 'u', 'origWidth': 410, 'origHeight': 410, 'width': 410, 'height': 410, 'widthPercent': 0.45, 'rescaleHeight': False, 'trialN': 5, 'loaded': True, 'loadedTime': 17117.400000095367, 'positionName': 'LEFT', 'positionCoords': [333.52, 220], 'bid': 4.65}, {'imgObject': {}, 'id': 'eggs', 'src': '/static/foodstim60/eggs.jpg', 'key': 'i', 'origWidth': 409, 'origHeight': 409, 'width': 409, 'height': 409, 'widthPercent': 0.45, 'rescaleHeight': False, 'trialN': 5, 'loaded': True, 'loadedTime': 17119.900000095367, 'positionName': 'RIGHT', 'positionCoords': [805.48, 220.5], 'bid': 8}]",17114.400000095367,1669832135874,strawberries,eggs,4.65,8.0,3.3499999999999996,,eggs,i,899.2999999523163,899,True,18531.799999952316,1417.3999998569489,1669832137291,1417,899.5999999046326,HRV,HRV_0196,2022-11-30 18:23:13
6,"[{'imgObject': {}, 'id': 'raisin bran w milk', 'src': '/static/foodstim60/raisin bran w milk.jpg', 'key': 'u', 'origWidth': 411, 'origHeight': 411, 'width': 411, 'height': 411, 'widthPercent': 0.45, 'rescaleHeight': False, 'trialN': 6, 'loaded': True, 'loadedTime': 18536.10000014305, 'positionName': 'LEFT', 'positionCoords': [332.52, 219.5], 'bid': 3.23}, {'imgObject': {}, 'id': 'hashbrowns', 'src': '/static/foodstim60/hashbrowns.jpg', 'key': 'i', 'origWidth': 411, 'origHeight': 410, 'width': 411, 'height': 410, 'widthPercent': 0.45, 'rescaleHeight': False, 'trialN': 6, 'loaded': True, 'loadedTime': 18539, 'positionName': 'RIGHT', 'positionCoords': [805.48, 220], 'bid': 2.81}]",18532.700000047684,1669832137292,raisin bran w milk,hashbrowns,3.23,2.81,-0.41999999999999993,,hashbrowns,i,1137.5999999046326,1138,True,20183.700000047684,1651.0,1669832138943,1651,1138.2999999523163,HRV,HRV_0196,2022-11-30 18:23:13
7,"[{'imgObject': {}, 'id': 'veggieswithdip', 'src': '/static/foodstim60/veggieswithdip.jpg', 'key': 'u', 'origWidth': 409, 'origHeight': 409, 'width': 409, 'height': 409, 'widthPercent': 0.45, 'rescaleHeight': False, 'trialN': 7, 'loaded': True, 'loadedTime': 20185.900000095367, 'positionName': 'LEFT', 'positionCoords': [334.52, 220.5], 'bid': 5.75}, {'imgObject': {}, 'id': 'raspberries', 'src': '/static/foodstim60/raspberries.jpg', 'key': 'i', 'origWidth': 411, 'origHeight': 411, 'width': 411, 'height': 411, 'widthPercent': 0.45, 'rescaleHeight': False, 'trialN': 7, 'loaded': True, 'loadedTime': 20188, 'positionName': 'RIGHT', 'positionCoords': [805.48, 219.5], 'bid': 5.67}]",20184.299999952316,1669832138944,veggieswithdip,raspberries,5.75,5.67,-0.08000000000000007,,veggieswithdip,u,725.9000000953674,726,True,21426.5,1242.2000000476837,1669832140186,1242,726.6000001430511,HRV,HRV_0196,2022-11-30 18:23:13
8,"[{'imgObject': {}, 'id': 'raisin bran w milk', 'src': '/static/foodstim60/raisin bran w milk.jpg', 'key': 'u', 'origWidth': 411, 'origHeight': 411, 'width': 411, 'height': 411, 'widthPercent': 0.45, 'rescaleHeight': False, 'trialN': 8, 'loaded': True, 'loadedTime': 21430.700000047684, 'positionName': 'LEFT', 'positionCoords': [332.52, 219.5], 'bid': 3.23}, {'imgObject': {}, 'id': 'edamame', 'src': '/static/foodstim60/edamame.jpg', 'key': 'i', 'origWidth': 409, 'origHeight': 410, 'width': 409, 'height': 410, 'widthPercent': 0.45, 'rescaleHeight': False, 'trialN': 8, 'loaded': True, 'loadedTime': 21433.900000095367, 'positionName': 'RIGHT', 'positionCoords': [805.48, 220], 'bid': 5.44}]",21427.700000047684,1669832140187,raisin bran w milk,edamame,3.23,5.44,2.2100000000000004,,edamame,i,834.5999999046326,835,True,22780.200000047684,1352.5,1669832141540,1353,835.2000000476837,HRV,HRV_0196,2022-11-30 18:23:13
9,"[{'imgObject': {}, 'id': 'granola w milk', 'src': '/static/foodstim60/granola w milk.jpg', 'key': 'u', 'origWidth': 410, 'origHeight': 410, 'width': 410, 'height': 410, 'widthPercent': 0.45, 'rescaleHeight': False, 'trialN': 9, 'loaded': True, 'loadedTime': 22783.10000014305, 'positionName': 'LEFT', 'positionCoords': [333.52, 220], 'bid': 1.58}, {'imgObject': {}, 'id': 'sweetpotato', 'src': '/static/foodstim60/sweetpotato.jpg', 'key': 'i', 'origWidth': 410, 'origHeight': 410, 'width': 410, 'height': 410, 'widthPercent': 0.45, 'rescaleHeight': False, 'trialN': 9, 'loaded': True, 'loadedTime': 22785.700000047684, 'positionName': 'RIGHT', 'positionCoords': [805.48, 220], 'bid': 1.48}]",22781.0,1669832141541,granola w milk,sweetpotato,1.58,1.48,-0.10000000000000009,,granola w milk,u,856.4000000953674,856,True,24155.10000014305,1374.1000001430511,1669832142915,1374,856.6000001430511,HRV,HRV_0196,2022-11-30 18:23:13
10,"[{'imgObject': {}, 'id': 'rigatoni and sauce', 'src': '/static/foodstim60/rigatoni and sauce.jpg', 'key': 'u', 'origWidth': 410, 'origHeight': 411, 'width': 410, 'height': 411, 'widthPercent': 0.45, 'rescaleHeight': False, 'trialN': 10, 'loaded': True, 'loadedTime': 24168.400000095367, 'positionName': 'LEFT', 'positionCoords': [333.52, 219.5], 'bid': 6.05}, {'imgObject': {}, 'id': 'yogurt no spoon', 'src': '/static/foodstim60/yogurt no spoon.jpg', 'key': 'i', 'origWidth': 411, 'origHeight': 410, 'width': 411, 'height': 410, 'widthPercent': 0.45, 'rescaleHeight': False, 'trialN': 10, 'loaded': True, 'loadedTime': 24174.799999952316, 'positionName': 'RIGHT', 'positionCoords': [805.48, 220], 'bid': 5.93}]",24156.400000095367,1669832142916,rigatoni and sauce,yogurt no spoon,6.05,5.93,-0.1200000000000001,,rigatoni and sauce,u,851.2000000476837,852,True,25523.0,1366.5999999046326,1669832144283,1367,852.0999999046326,HRV,HRV_0196,2022-11-30 18:23:13
11,"[{'imgObject': {}, 'id': 'orange slices', 'src': '/static/foodstim60/orange slices.jpg', 'key': 'u', 'origWidth': 409, 'origHeight': 410, 'width': 409, 'height': 410, 'widthPercent': 0.45, 'rescaleHeight': False, 'trialN': 11, 'loaded': True, 'loadedTime': 25528.799999952316, 'positionName': 'LEFT', 'positionCoords': [334.52, 220], 'bid': 5.76}, {'imgObject': {}, 'id': 'yogurt no spoon', 'src': '/static/foodstim60/yogurt no spoon.jpg', 'key': 'i', 'origWidth': 411, 'origHeight': 410, 'width': 411, 'height': 410, 'widthPercent': 0.45, 'rescaleHeight': False, 'trialN': 11, 'loaded': True, 'loadedTime': 25532.5, 'positionName': 'RIGHT', 'positionCoords': [805.48, 220], 'bid': 5.93}]",25524.5,1669832144284,orange slices,yogurt no spoon,5.76,5.93,0.16999999999999993,,orange slices,u,721.7000000476837,723,True,26757.0,1232.5,1669832145517,1233,722.7000000476837,HRV,HRV_0196,2022-11-30 18:23:13
12,"[{'imgObject': {}, 'id': 'granola w milk', 'src': '/static/foodstim60/granola w milk.jpg', 'key': 'u', 'origWidth': 410, 'origHeight': 410, 'width': 410, 'height': 410, 'widthPercent': 0.45, 'rescaleHeight': False, 'trialN': 12, 'loaded': True, 'loadedTime': 26758.799999952316, 'positionName': 'LEFT', 'positionCoords': [333.52, 220], 'bid': 1.58}, {'imgObject': {}, 'id': 'bagel plain', 'src': '/static/foodstim60/bagel plain.jpg', 'key': 'i', 'origWidth': 410, 'origHeight': 410, 'width': 410, 'height': 410, 'widthPercent': 0.45, 'rescaleHeight': False, 'trialN': 12, 'loaded': True, 'loadedTime': 26761.200000047684, 'positionName': 'RIGHT', 'positionCoords': [805.48, 220], 'bid': 2.28}]",26757.700000047684,1669832145517,granola w milk,bagel plain,1.58,2.28,0.6999999999999997,,bagel plain,i,1072.0999999046326,1073,True,28342.60000014305,1584.9000000953674,1669832147102,1585,1072.5999999046326,HRV,HRV_0196,2022-11-30 18:23:13
13,"[{'imgObject': {}, 'id': 'yogurt no spoon', 'src': '/static/foodstim60/yogurt no spoon.jpg', 'key': 'u', 'origWidth': 411, 'origHeight': 410, 'width': 411, 'height': 410, 'widthPercent': 0.45, 'rescaleHeight': False, 'trialN': 13, 'loaded': True, 'loadedTime': 28344.400000095367, 'positionName': 'LEFT', 'positionCoords': [332.52, 220], 'bid': 5.93}, {'imgObject': {}, 'id': 'granola w milk', 'src': '/static/foodstim60/granola w milk.jpg', 'key': 'i', 'origWidth': 410, 'origHeight': 410, 'width': 410, 'height': 410, 'widthPercent': 0.45, 'rescaleHeight': False, 'trialN': 13, 'loaded': True, 'loadedTime': 28345, 'positionName': 'RIGHT', 'positionCoords': [805.48, 220], 'bid': 1.58}]",28343.10000014305,1669832147103,yogurt no spoon,granola w milk,5.93,1.58,-4.35,,yogurt no spoon,u,671.0999999046326,672,True,29527.200000047684,1184.0999999046326,1669832148287,1184,671.8999998569489,HRV,HRV_0196,2022-11-30 18:23:13
14,"[{'imgObject': {}, 'id': 'raisin bran w milk', 'src': '/static/foodstim60/raisin bran w milk.jpg', 'key': 'u', 'origWidth': 411, 'origHeight': 411, 'width': 411, 'height': 411, 'widthPercent': 0.45, 'rescaleHeight': False, 'trialN': 14, 'loaded': True, 'loadedTime': 29531.299999952316, 'positionName': 'LEFT', 'positionCoords': [332.52, 219.5], 'bid': 3.23}, {'imgObject': {}, 'id': 'fried eggs', 'src': '/static/foodstim60/fried eggs.jpg', 'key': 'i', 'origWidth': 410, 'origHeight': 410, 'width': 410, 'height': 410, 'widthPercent': 0.45, 'rescaleHeight': False, 'trialN': 14, 'loaded': True, 'loadedTime': 29533.60000014305, 'positionName': 'RIGHT', 'positionCoords': [805.48, 220], 'bid': 6.73}]",29528.299999952316,1669832148288,raisin bran w milk,fried eggs,3.23,6.73,3.5000000000000004,,raisin bran w milk,u,837.9000000953674,839,True,30878.200000047684,1349.9000000953674,1669832149638,1350,838.8000001907349,HRV,HRV_0196,2022-11-30 18:23:13
15,"[{'imgObject': {}, 'id': 'bagel and cc', 'src': '/static/foodstim60/bagel and cc.jpg', 'key': 'u', 'origWidth': 410, 'origHeight': 410, 'width': 410, 'height': 410, 'widthPercent': 0.45, 'rescaleHeight': False, 'trialN': 15, 'loaded': True, 'loadedTime': 30880.10000014305, 'positionName': 'LEFT', 'positionCoords': [333.52, 220], 'bid': 1.62}, {'imgObject': {}, 'id': 'blueberries', 'src': '/static/foodstim60/blueberries.jpg', 'key': 'i', 'origWidth': 411, 'origHeight': 411, 'width': 411, 'height': 411, 'widthPercent': 0.45, 'rescaleHeight': False, 'trialN': 15, 'loaded': True, 'loadedTime': 30883.299999952316, 'positionName': 'RIGHT', 'positionCoords': [805.48, 219.5], 'bid': 4.1}]",30878.799999952316,1669832149639,bagel and cc,blueberries,1.62,4.1,2.4799999999999995,,blueberries,i,959,959,True,32351.5,1472.7000000476837,1669832151111,1472,959.5,HRV,HRV_0196,2022-11-30 18:23:13
16,"[{'imgObject': {}, 'id': 'steak', 'src': '/static/foodstim60/steak.jpg', 'key': 'u', 'origWidth': 410, 'origHeight': 410, 'width': 410, 'height': 410, 'widthPercent': 0.45, 'rescaleHeight': False, 'trialN': 16, 'loaded': True, 'loadedTime': 32353.400000095367, 'positionName': 'LEFT', 'positionCoords': [333.52, 220], 'bid': 6.36}, {'imgObject': {}, 'id': 'bagel plain', 'src': '/static/foodstim60/bagel plain.jpg', 'key': 'i', 'origWidth': 410, 'origHeight': 410, 'width': 410, 'height': 410, 'widthPercent': 0.45, 'rescaleHeight': False, 'trialN': 16, 'loaded': True, 'loadedTime': 32356.5, 'positionName': 'RIGHT', 'positionCoords': [805.48, 220], 'bid': 2.28}]",32352.0,1669832151112,steak,bagel plain,6.36,2.28,-4.08,,bagel plain,i,997.7999999523163,998,True,33866.0,1514.0,1669832152626,1514,998.4000000953674,HRV,HRV_0196,2022-11-30 18:23:13
17,"[{'imgObject': {}, 'id': 'sweetpotato', 'src': '/static/foodstim60/sweetpotato.jpg', 'key': 'u', 'origWidth': 410, 'origHeight': 410, 'width': 410, 'height': 410, 'widthPercent': 0.45, 'rescaleHeight': False, 'trialN': 17, 'loaded': True, 'loadedTime': 33870.200000047684, 'positionName': 'LEFT', 'positionCoords': [333.52, 220], 'bid': 1.48}, {'imgObject': {}, 'id': 'olives', 'src': '/static/foodstim60/olives.jpg', 'key': 'i', 'origWidth': 410, 'origHeight': 410, 'width': 410, 'height': 410, 'widthPercent': 0.45, 'rescaleHeight': False, 'trialN': 17, 'loaded': True, 'loadedTime': 33872.200000047684, 'positionName': 'RIGHT', 'positionCoords': [805.48, 220], 'bid': 0.64}]",33867.10000014305,1669832152627,sweetpotato,olives,1.48,0.64,-0.84,,olives,i,946.2999999523163,947,True,35321.10000014305,1454.0,1669832154081,1454,946.6999998092651,HRV,HRV_0196,2022-11-30 18:23:13
18,"[{'imgObject': {}, 'id': 'blackbeanswithrice', 'src': '/static/foodstim60/blackbeanswithrice.jpg', 'key': 'u', 'origWidth': 410, 'origHeight': 410, 'width': 410, 'height': 410, 'widthPercent': 0.45, 'rescaleHeight': False, 'trialN': 18, 'loaded': True, 'loadedTime': 35323, 'positionName': 'LEFT', 'positionCoords': [333.52, 220], 'bid': 6.33}, {'imgObject': {}, 'id': 'salmon', 'src': '/static/foodstim60/salmon.jpg', 'key': 'i', 'origWidth': 410, 'origHeight': 409, 'width': 410, 'height': 409, 'widthPercent': 0.45, 'rescaleHeight': False, 'trialN': 18, 'loaded': True, 'loadedTime': 35325, 'positionName': 'RIGHT', 'positionCoords': [805.48, 220.5], 'bid': 2.08}]",35321.60000014305,1669832154081,blackbeanswithrice,salmon,6.33,2.08,-4.25,,blackbeanswithrice,u,878.1999998092651,879,True,36701.10000014305,1379.5,1669832155461,1380,879.0,HRV,HRV_0196,2022-11-30 18:23:13
19,"[{'imgObject': {}, 'id': 'chicken nuggets2', 'src': '/static/foodstim60/chicken nuggets2.jpg', 'key': 'u', 'origWidth': 410, 'origHeight': 409, 'width': 410, 'height': 409, 'widthPercent': 0.45, 'rescaleHeight': False, 'trialN': 19, 'loaded': True, 'loadedTime': 36706.200000047684, 'positionName': 'LEFT', 'positionCoords': [333.52, 220.5], 'bid': 8.040000000000001}, {'imgObject': {}, 'id': 'rigatoni', 'src': '/static/foodstim60/rigatoni.jpg', 'key': 'i', 'origWidth': 411, 'origHeight': 411, 'width': 411, 'height': 411, 'widthPercent': 0.45, 'rescaleHeight': False, 'trialN': 19, 'loaded': True, 'loadedTime': 36709.700000047684, 'positionName': 'RIGHT', 'positionCoords': [805.48, 219.5], 'bid': 6.7700000000000005}]",36702.5,1669832155462,chicken nuggets2,rigatoni,8.040000000000001,6.7700000000000005,-1.2700000000000005,,chicken nuggets2,u,799,800,True,38034.299999952316,1331.7999999523163,1669832156794,1332,799.5,HRV,HRV_0196,2022-11-30 18:23:13
20,"[{'imgObject': {}, 'id': 'edamame', 'src': '/static/foodstim60/edamame.jpg', 'key': 'u', 'origWidth': 409, 'origHeight': 410, 'width': 409, 'height': 410, 'widthPercent': 0.45, 'rescaleHeight': False, 'trialN': 20, 'loaded': True, 'loadedTime': 38036.299999952316, 'positionName': 'LEFT', 'positionCoords': [334.52, 220], 'bid': 5.44}, {'imgObject': {}, 'id': 'blackbeanswithrice', 'src': '/static/foodstim60/blackbeanswithrice.jpg', 'key': 'i', 'origWidth': 410, 'origHeight': 410, 'width': 410, 'height': 410, 'widthPercent': 0.45, 'rescaleHeight': False, 'trialN': 20, 'loaded': True, 'loadedTime': 38038.10000014305, 'positionName': 'RIGHT', 'positionCoords': [805.48, 220], 'bid': 6.33}]",38034.90000009537,1669832156795,edamame,blackbeanswithrice,5.44,6.33,0.8899999999999997,,blackbeanswithrice,i,986.3999998569489,986,True,39525.799999952316,1490.8999998569489,1669832158286,1491,986.7999999523163,HRV,HRV_0196,2022-11-30 18:23:13
21,"[{'imgObject': {}, 'id': 'roastedpotatoes', 'src': '/static/foodstim60/roastedpotatoes.jpg', 'key': 'u', 'origWidth': 409, 'origHeight': 410, 'width': 409, 'height': 410, 'widthPercent': 0.45, 'rescaleHeight': False, 'trialN': 21, 'loaded': True, 'loadedTime': 39530, 'positionName': 'LEFT', 'positionCoords': [334.52, 220], 'bid': 6.37}, {'imgObject': {}, 'id': 'grilled chicken strips', 'src': '/static/foodstim60/grilled chicken strips.jpg', 'key': 'i', 'origWidth': 410, 'origHeight': 411, 'width': 410, 'height': 411, 'widthPercent': 0.45, 'rescaleHeight': False, 'trialN': 21, 'loaded': True, 'loadedTime': 39532.5, 'positionName': 'RIGHT', 'positionCoords': [805.48, 219.5], 'bid': 6.62}]",39527.0,1669832158287,roastedpotatoes,grilled chicken strips,6.37,6.62,0.25,,grilled chicken strips,i,1134.5,1135,True,41176.10000014305,1649.1000001430511,1669832159936,1649,1134.9000000953674,HRV,HRV_0196,2022-11-30 18:23:13
22,"[{'imgObject': {}, 'id': 'cocktailshrimp', 'src': '/static/foodstim60/cocktailshrimp.jpg', 'key': 'u', 'origWidth': 410, 'origHeight': 410, 'width': 410, 'height': 410, 'widthPercent': 0.45, 'rescaleHeight': False, 'trialN': 22, 'loaded': True, 'loadedTime': 41179, 'positionName': 'LEFT', 'positionCoords': [333.52, 220], 'bid': 1.54}, {'imgObject': {}, 'id': 'orange slices', 'src': '/static/foodstim60/orange slices.jpg', 'key': 'i', 'origWidth': 409, 'origHeight': 410, 'width': 409, 'height': 410, 'widthPercent': 0.45, 'rescaleHeight': False, 'trialN': 22, 'loaded': True, 'loadedTime': 41182.5, 'positionName': 'RIGHT', 'positionCoords': [805.48, 220], 'bid': 5.76}]",41176.90000009537,1669832159937,cocktailshrimp,orange slices,1.54,5.76,4.22,,orange slices,i,797.2999999523163,798,True,42483.5,1306.5999999046326,1669832161243,1306,798.0999999046326,HRV,HRV_0196,2022-11-30 18:23:13
23,"[{'imgObject': {}, 'id': 'froot loops w milk', 'src': '/static/foodstim60/froot loops w milk.jpg', 'key': 'u', 'origWidth': 410, 'origHeight': 410, 'width': 410, 'height': 410, 'widthPercent': 0.45, 'rescaleHeight': False, 'trialN': 23, 'loaded': True, 'loadedTime': 42487.90000009537, 'positionName': 'LEFT', 'positionCoords': [333.52, 220], 'bid': 4.25}, {'imgObject': {}, 'id': 'kiwi', 'src': '/static/foodstim60/kiwi.jpg', 'key': 'i', 'origWidth': 410, 'origHeight': 410, 'width': 410, 'height': 410, 'widthPercent': 0.45, 'rescaleHeight': False, 'trialN': 23, 'loaded': True, 'loadedTime': 42493.5, 'positionName': 'RIGHT', 'positionCoords': [805.48, 220], 'bid': 4.48}]",42484.700000047684,1669832161244,froot loops w milk,kiwi,4.25,4.48,0.23000000000000043,,froot loops w milk,u,848.5999999046326,849,True,43850.60000014305,1365.9000000953674,1669832162610,1366,849.0,HRV,HRV_0196,2022-11-30 18:23:13
24,"[{'imgObject': {}, 'id': 'burrito', 'src': '/static/foodstim60/burrito.jpg', 'key': 'u', 'origWidth': 410, 'origHeight': 410, 'width': 410, 'height': 410, 'widthPercent': 0.45, 'rescaleHeight': False, 'trialN': 24, 'loaded': True, 'loadedTime': 43853.200000047684, 'positionName': 'LEFT', 'positionCoords': [333.52, 220], 'bid': 4.64}, {'imgObject': {}, 'id': 'kiwi', 'src': '/static/foodstim60/kiwi.jpg', 'key': 'i', 'origWidth': 410, 'origHeight': 410, 'width': 410, 'height': 410, 'widthPercent': 0.45, 'rescaleHeight': False, 'trialN': 24, 'loaded': True, 'loadedTime': 43856, 'positionName': 'RIGHT', 'positionCoords': [805.48, 220], 'bid': 4.48}]",43851.299999952316,1669832162611,burrito,kiwi,4.64,4.48,-0.15999999999999925,,burrito,u,1322.8000001907349,1324,True,45679.10000014305,1827.8000001907349,1669832164439,1828,1323.7000000476837,HRV,HRV_0196,2022-11-30 18:23:13
25,"[{'imgObject': {}, 'id': 'fried eggs', 'src': '/static/foodstim60/fried eggs.jpg', 'key': 'u', 'origWidth': 410, 'origHeight': 410, 'width': 410, 'height': 410, 'widthPercent': 0.45, 'rescaleHeight': False, 'trialN': 25, 'loaded': True, 'loadedTime': 45683.200000047684, 'positionName': 'LEFT', 'positionCoords': [333.52, 220], 'bid': 6.73}, {'imgObject': {}, 'id': 'grilled chicken strips', 'src': '/static/foodstim60/grilled chicken strips.jpg', 'key': 'i', 'origWidth': 410, 'origHeight': 411, 'width': 410, 'height': 411, 'widthPercent': 0.45, 'rescaleHeight': False, 'trialN': 25, 'loaded': True, 'loadedTime': 45688, 'positionName': 'RIGHT', 'positionCoords': [805.48, 219.5], 'bid': 6.62}]",45680.200000047684,1669832164440,fried eggs,grilled chicken strips,6.73,6.62,-0.11000000000000032,,grilled chicken strips,i,799.2000000476837,800,True,46989.10000014305,1308.9000000953674,1669832165749,1309,800.0999999046326,HRV,HRV_0196,2022-11-30 18:23:13
26,"[{'imgObject': {}, 'id': 'chickenfingers', 'src': '/static/foodstim60/chickenfingers.jpg', 'key': 'u', 'origWidth': 410, 'origHeight': 410, 'width': 410, 'height': 410, 'widthPercent': 0.45, 'rescaleHeight': False, 'trialN': 26, 'loaded': True, 'loadedTime': 46991.40000009537, 'positionName': 'LEFT', 'positionCoords': [333.52, 220], 'bid': 9}, {'imgObject': {}, 'id': 'ice cream sundae 002', 'src': '/static/foodstim60/ice cream sundae 002.jpg', 'key': 'i', 'origWidth': 409, 'origHeight': 409, 'width': 409, 'height': 409, 'widthPercent': 0.45, 'rescaleHeight': False, 'trialN': 26, 'loaded': True, 'loadedTime': 46993.799999952316, 'positionName': 'RIGHT', 'positionCoords': [805.48, 220.5], 'bid': 8.13}]",46989.90000009537,1669832165750,chickenfingers,ice cream sundae 002,9.0,8.13,-0.8699999999999992,,chickenfingers,u,896.0999999046326,897,True,48401.299999952316,1411.3999998569489,1669832167161,1411,897.0999999046326,HRV,HRV_0196,2022-11-30 18:23:13
27,"[{'imgObject': {}, 'id': 'froot loops w milk', 'src': '/static/foodstim60/froot loops w milk.jpg', 'key': 'u', 'origWidth': 410, 'origHeight': 410, 'width': 410, 'height': 410, 'widthPercent': 0.45, 'rescaleHeight': False, 'trialN': 27, 'loaded': True, 'loadedTime': 48405.5, 'positionName': 'LEFT', 'positionCoords': [333.52, 220], 'bid': 4.25}, {'imgObject': {}, 'id': 'raspberries', 'src': '/static/foodstim60/raspberries.jpg', 'key': 'i', 'origWidth': 411, 'origHeight': 411, 'width': 411, 'height': 411, 'widthPercent': 0.45, 'rescaleHeight': False, 'trialN': 27, 'loaded': True, 'loadedTime': 48410.60000014305, 'positionName': 'RIGHT', 'positionCoords': [805.48, 219.5], 'bid': 5.67}]",48402.60000014305,1669832167162,froot loops w milk,raspberries,4.25,5.67,1.42,,froot loops w milk,u,1107.3999998569489,1109,True,50016.0,1613.3999998569489,1669832168776,1614,1108.2999999523163,HRV,HRV_0196,2022-11-30 18:23:13
28,"[{'imgObject': {}, 'id': 'grilled chicken strips', 'src': '/static/foodstim60/grilled chicken strips.jpg', 'key': 'u', 'origWidth': 410, 'origHeight': 411, 'width': 410, 'height': 411, 'widthPercent': 0.45, 'rescaleHeight': False, 'trialN': 28, 'loaded': True, 'loadedTime': 50021.10000014305, 'positionName': 'LEFT', 'positionCoords': [333.52, 219.5], 'bid': 6.62}, {'imgObject': {}, 'id': 'popsicles', 'src': '/static/foodstim60/popsicles.jpg', 'key': 'i', 'origWidth': 410, 'origHeight': 410, 'width': 410, 'height': 410, 'widthPercent': 0.45, 'rescaleHeight': False, 'trialN': 28, 'loaded': True, 'loadedTime': 50022.200000047684, 'positionName': 'RIGHT', 'positionCoords': [805.48, 220], 'bid': 7.21}]",50017.5,1669832168777,grilled chicken strips,popsicles,6.62,7.21,0.5899999999999999,,grilled chicken strips,u,772.2000000476837,773,True,51300.5,1283.0,1669832170060,1283,772.9000000953674,HRV,HRV_0196,2022-11-30 18:23:13
29,"[{'imgObject': {}, 'id': 'tacos', 'src': '/static/foodstim60/tacos.jpg', 'key': 'u', 'origWidth': 411, 'origHeight': 411, 'width': 411, 'height': 411, 'widthPercent': 0.45, 'rescaleHeight': False, 'trialN': 29, 'loaded': True, 'loadedTime': 51304.799999952316, 'positionName': 'LEFT', 'positionCoords': [332.52, 219.5], 'bid': 6}, {'imgObject': {}, 'id': 'mac & cheese', 'src': '/static/foodstim60/mac & cheese.jpg', 'key': 'i', 'origWidth': 410, 'origHeight': 410, 'width': 410, 'height': 410, 'widthPercent': 0.45, 'rescaleHeight': False, 'trialN': 29, 'loaded': True, 'loadedTime': 51312, 'positionName': 'RIGHT', 'positionCoords': [805.48, 220], 'bid': 7.4}]",51301.799999952316,1669832170062,tacos,mac & cheese,6.0,7.4,1.4000000000000004,,tacos,u,999.7000000476837,1000,True,52819.200000047684,1517.4000000953674,1669832171579,1517,1000.3000001907349,HRV,HRV_0196,2022-11-30 18:23:13
30,"[{'imgObject': {}, 'id': 'chickenfingers', 'src': '/static/foodstim60/chickenfingers.jpg', 'key': 'u', 'origWidth': 410, 'origHeight': 410, 'width': 410, 'height': 410, 'widthPercent': 0.45, 'rescaleHeight': False, 'trialN': 30, 'loaded': True, 'loadedTime': 52823.5, 'positionName': 'LEFT', 'positionCoords': [333.52, 220], 'bid': 9}, {'imgObject': {}, 'id': 'banana', 'src': '/static/foodstim60/banana.jpg', 'key': 'i', 'origWidth': 410, 'origHeight': 410, 'width': 410, 'height': 410, 'widthPercent': 0.45, 'rescaleHeight': False, 'trialN': 30, 'loaded': True, 'loadedTime': 52825.40000009537, 'positionName': 'RIGHT', 'positionCoords': [805.48, 220], 'bid': 5.49}]",52820.40000009537,1669832171580,chickenfingers,banana,9.0,5.49,-3.51,,chickenfingers,u,850.2000000476837,851,True,54187.40000009537,1367.0,1669832172947,1367,850.5999999046326,HRV,HRV_0196,2022-11-30 18:23:13
31,"[{'imgObject': {}, 'id': 'strawberries', 'src': '/static/foodstim60/strawberries.jpg', 'key': 'u', 'origWidth': 410, 'origHeight': 410, 'width': 410, 'height': 410, 'widthPercent': 0.45, 'rescaleHeight': False, 'trialN': 31, 'loaded': True, 'loadedTime': 54189, 'positionName': 'LEFT', 'positionCoords': [333.52, 220], 'bid': 4.65}, {'imgObject': {}, 'id': 'Grapes', 'src': '/static/foodstim60/Grapes.jpg', 'key': 'i', 'origWidth': 411, 'origHeight': 411, 'width': 411, 'height': 411, 'widthPercent': 0.45, 'rescaleHeight': False, 'trialN': 31, 'loaded': True, 'loadedTime': 54191.799999952316, 'positionName': 'RIGHT', 'positionCoords': [805.48, 219.5], 'bid': 5.17}]",54187.799999952316,1669832172948,strawberries,Grapes,4.65,5.17,0.5199999999999996,,strawberries,u,1538.5,1539,True,56237.0,2049.2000000476837,1669832174997,2049,1539.4000000953674,HRV,HRV_0196,2022-11-30 18:23:13
32,"[{'imgObject': {}, 'id': 'roastedpotatoes', 'src': '/static/foodstim60/roastedpotatoes.jpg', 'key': 'u', 'origWidth': 409, 'origHeight': 410, 'width': 409, 'height': 410, 'widthPercent': 0.45, 'rescaleHeight': False, 'trialN': 32, 'loaded': True, 'loadedTime': 56242.799999952316, 'positionName': 'LEFT', 'positionCoords': [334.52, 220], 'bid': 6.37}, {'imgObject': {}, 'id': 'cherry tomato', 'src': '/static/foodstim60/cherry tomato.jpg', 'key': 'i', 'origWidth': 410, 'origHeight': 410, 'width': 410, 'height': 410, 'widthPercent': 0.45, 'rescaleHeight': False, 'trialN': 32, 'loaded': True, 'loadedTime': 56248.90000009537, 'positionName': 'RIGHT', 'positionCoords': [805.48, 220], 'bid': 2.56}]",56238.700000047684,1669832174998,roastedpotatoes,cherry tomato,6.37,2.56,-3.81,,cherry tomato,i,1288.7999999523163,1290,True,58042.10000014305,1803.4000000953674,1669832176802,1804,1289.5999999046326,HRV,HRV_0196,2022-11-30 18:23:13
33,"[{'imgObject': {}, 'id': 'orange slices', 'src': '/static/foodstim60/orange slices.jpg', 'key': 'u', 'origWidth': 409, 'origHeight': 410, 'width': 409, 'height': 410, 'widthPercent': 0.45, 'rescaleHeight': False, 'trialN': 33, 'loaded': True, 'loadedTime': 58045.10000014305, 'positionName': 'LEFT', 'positionCoords': [334.52, 220], 'bid': 5.76}, {'imgObject': {}, 'id': 'eggsalad', 'src': '/static/foodstim60/eggsalad.jpg', 'key': 'i', 'origWidth': 410, 'origHeight': 409, 'width': 410, 'height': 409, 'widthPercent': 0.45, 'rescaleHeight': False, 'trialN': 33, 'loaded': True, 'loadedTime': 58047.5, 'positionName': 'RIGHT', 'positionCoords': [805.48, 220.5], 'bid': 5.2700000000000005}]",58042.700000047684,1669832176802,orange slices,eggsalad,5.76,5.2700000000000005,-0.4899999999999993,,orange slices,u,907.4000000953674,909,True,59460.40000009537,1417.7000000476837,1669832178220,1418,908.4000000953674,HRV,HRV_0196,2022-11-30 18:23:13
34,"[{'imgObject': {}, 'id': 'olives', 'src': '/static/foodstim60/olives.jpg', 'key': 'u', 'origWidth': 410, 'origHeight': 410, 'width': 410, 'height': 410, 'widthPercent': 0.45, 'rescaleHeight': False, 'trialN': 34, 'loaded': True, 'loadedTime': 59464.700000047684, 'positionName': 'LEFT', 'positionCoords': [333.52, 220], 'bid': 0.64}, {'imgObject': {}, 'id': 'lox', 'src': '/static/foodstim60/lox.jpg', 'key': 'i', 'origWidth': 410, 'origHeight': 411, 'width': 410, 'height': 411, 'widthPercent': 0.45, 'rescaleHeight': False, 'trialN': 34, 'loaded': True, 'loadedTime': 59468.60000014305, 'positionName': 'RIGHT', 'positionCoords': [805.48, 219.5], 'bid': 1.97}]",59461.5,1669832178221,olives,lox,0.64,1.97,1.33,,olives,u,1344.7000000476837,1346,True,61313.200000047684,1851.7000000476837,1669832180073,1852,1345.5,HRV,HRV_0196,2022-11-30 18:23:13
35,"[{'imgObject': {}, 'id': 'cocktailshrimp', 'src': '/static/foodstim60/cocktailshrimp.jpg', 'key': 'u', 'origWidth': 410, 'origHeight': 410, 'width': 410, 'height': 410, 'widthPercent': 0.45, 'rescaleHeight': False, 'trialN': 35, 'loaded': True, 'loadedTime': 61317.5, 'positionName': 'LEFT', 'positionCoords': [333.52, 220], 'bid': 1.54}, {'imgObject': {}, 'id': 'cantaloupe', 'src': '/static/foodstim60/cantaloupe.jpg', 'key': 'i', 'origWidth': 409, 'origHeight': 409, 'width': 409, 'height': 409, 'widthPercent': 0.45, 'rescaleHeight': False, 'trialN': 35, 'loaded': True, 'loadedTime': 61321, 'positionName': 'RIGHT', 'positionCoords': [805.48, 220.5], 'bid': 3.43}]",61314.5,1669832180074,cocktailshrimp,cantaloupe,1.54,3.43,1.8900000000000001,,cantaloupe,i,1171,1172,True,62997.40000009537,1682.9000000953674,1669832181757,1683,1171.4000000953674,HRV,HRV_0196,2022-11-30 18:23:13
36,"[{'imgObject': {}, 'id': 'salad w chicken', 'src': '/static/foodstim60/salad w chicken.jpg', 'key': 'u', 'origWidth': 411, 'origHeight': 411, 'width': 411, 'height': 411, 'widthPercent': 0.45, 'rescaleHeight': False, 'trialN': 36, 'loaded': True, 'loadedTime': 63001.700000047684, 'positionName': 'LEFT', 'positionCoords': [332.52, 219.5], 'bid': 6.69}, {'imgObject': {}, 'id': 'cherries', 'src': '/static/foodstim60/cherries.jpg', 'key': 'i', 'origWidth': 410, 'origHeight': 411, 'width': 410, 'height': 411, 'widthPercent': 0.45, 'rescaleHeight': False, 'trialN': 36, 'loaded': True, 'loadedTime': 63009.799999952316, 'positionName': 'RIGHT', 'positionCoords': [805.48, 219.5], 'bid': 6.23}]",62998.60000014305,1669832181758,salad w chicken,cherries,6.69,6.23,-0.45999999999999996,,salad w chicken,u,999.5999999046326,1001,True,64515.200000047684,1516.5999999046326,1669832183275,1517,1000.3999998569489,HRV,HRV_0196,2022-11-30 18:23:13
37,"[{'imgObject': {}, 'id': 'luckycharms', 'src': '/static/foodstim60/luckycharms.jpg', 'key': 'u', 'origWidth': 410, 'origHeight': 409, 'width': 410, 'height': 409, 'widthPercent': 0.45, 'rescaleHeight': False, 'trialN': 37, 'loaded': True, 'loadedTime': 64519.299999952316, 'positionName': 'LEFT', 'positionCoords': [333.52, 220.5], 'bid': 7.88}, {'imgObject': {}, 'id': 'burrito', 'src': '/static/foodstim60/burrito.jpg', 'key': 'i', 'origWidth': 410, 'origHeight': 410, 'width': 410, 'height': 410, 'widthPercent': 0.45, 'rescaleHeight': False, 'trialN': 37, 'loaded': True, 'loadedTime': 64521.700000047684, 'positionName': 'RIGHT', 'positionCoords': [805.48, 220], 'bid': 4.64}]",64516.299999952316,1669832183276,luckycharms,burrito,7.88,4.64,-3.24,,burrito,i,1217,1217,True,66251.0,1734.7000000476837,1669832185011,1735,1217.3000001907349,HRV,HRV_0196,2022-11-30 18:23:13
38,"[{'imgObject': {}, 'id': 'rigatoni and sauce', 'src': '/static/foodstim60/rigatoni and sauce.jpg', 'key': 'u', 'origWidth': 410, 'origHeight': 411, 'width': 410, 'height': 411, 'widthPercent': 0.45, 'rescaleHeight': False, 'trialN': 38, 'loaded': True, 'loadedTime': 66255.29999995232, 'positionName': 'LEFT', 'positionCoords': [333.52, 219.5], 'bid': 6.05}, {'imgObject': {}, 'id': 'tacos', 'src': '/static/foodstim60/tacos.jpg', 'key': 'i', 'origWidth': 411, 'origHeight': 411, 'width': 411, 'height': 411, 'widthPercent': 0.45, 'rescaleHeight': False, 'trialN': 38, 'loaded': True, 'loadedTime': 66259.60000014305, 'positionName': 'RIGHT', 'positionCoords': [805.48, 219.5], 'bid': 6}]",66252.20000004768,1669832185012,rigatoni and sauce,tacos,6.05,6.0,-0.04999999999999982,,rigatoni and sauce,u,777.7000000476837,778,True,67535.29999995232,1283.0999999046326,1669832186295,1283,778.2999999523163,HRV,HRV_0196,2022-11-30 18:23:13
39,"[{'imgObject': {}, 'id': 'luckycharms', 'src': '/static/foodstim60/luckycharms.jpg', 'key': 'u', 'origWidth': 410, 'origHeight': 409, 'width': 410, 'height': 409, 'widthPercent': 0.45, 'rescaleHeight': False, 'trialN': 39, 'loaded': True, 'loadedTime': 67539, 'positionName': 'LEFT', 'positionCoords': [333.52, 220.5], 'bid': 7.88}, {'imgObject': {}, 'id': 'chicken nuggets2', 'src': '/static/foodstim60/chicken nuggets2.jpg', 'key': 'i', 'origWidth': 410, 'origHeight': 409, 'width': 410, 'height': 409, 'widthPercent': 0.45, 'rescaleHeight': False, 'trialN': 39, 'loaded': True, 'loadedTime': 67546.70000004768, 'positionName': 'RIGHT', 'positionCoords': [805.48, 220.5], 'bid': 8.040000000000001}]",67536.5,1669832186296,luckycharms,chicken nuggets2,7.88,8.040000000000001,0.16000000000000103,,chicken nuggets2,i,1758.9000000953674,1760,True,69809.29999995232,2272.7999999523163,1669832188569,2273,1759.7000000476837,HRV,HRV_0196,2022-11-30 18:23:13
40,"[{'imgObject': {}, 'id': 'cherries', 'src': '/static/foodstim60/cherries.jpg', 'key': 'u', 'origWidth': 410, 'origHeight': 411, 'width': 410, 'height': 411, 'widthPercent': 0.45, 'rescaleHeight': False, 'trialN': 40, 'loaded': True, 'loadedTime': 69817.5, 'positionName': 'LEFT', 'positionCoords': [333.52, 219.5], 'bid': 6.23}, {'imgObject': {}, 'id': 'shreddedwheatwithmilk', 'src': '/static/foodstim60/shreddedwheatwithmilk.jpg', 'key': 'i', 'origWidth': 410, 'origHeight': 410, 'width': 410, 'height': 410, 'widthPercent': 0.45, 'rescaleHeight': False, 'trialN': 40, 'loaded': True, 'loadedTime': 69819.10000014305, 'positionName': 'RIGHT', 'positionCoords': [805.48, 220], 'bid': 6.3100000000000005}]",69810.79999995232,1669832188570,cherries,shreddedwheatwithmilk,6.23,6.3100000000000005,0.08000000000000007,,shreddedwheatwithmilk,i,1875.3000001907349,1877,True,72200.5,2389.7000000476837,1669832190960,2390,1876.2000000476837,HRV,HRV_0196,2022-11-30 18:23:13
41,"[{'imgObject': {}, 'id': 'rigatoni and sauce', 'src': '/static/foodstim60/rigatoni and sauce.jpg', 'key': 'u', 'origWidth': 410, 'origHeight': 411, 'width': 410, 'height': 411, 'widthPercent': 0.45, 'rescaleHeight': False, 'trialN': 41, 'loaded': True, 'loadedTime': 72204.70000004768, 'positionName': 'LEFT', 'positionCoords': [333.52, 219.5], 'bid': 6.05}, {'imgObject': {}, 'id': 'Grapes', 'src': '/static/foodstim60/Grapes.jpg', 'key': 'i', 'origWidth': 411, 'origHeight': 411, 'width': 411, 'height': 411, 'widthPercent': 0.45, 'rescaleHeight': False, 'trialN': 41, 'loaded': True, 'loadedTime': 72213.60000014305, 'positionName': 'RIGHT', 'positionCoords': [805.48, 219.5], 'bid': 5.17}]",72201.60000014305,1669832190961,rigatoni and sauce,Grapes,6.05,5.17,-0.8799999999999999,,rigatoni and sauce,u,1372.3999998569489,1373,True,74092.5,1890.8999998569489,1669832192852,1891,1373.0999999046326,HRV,HRV_0196,2022-11-30 18:23:13
42,"[{'imgObject': {}, 'id': 'burrito', 'src': '/static/foodstim60/burrito.jpg', 'key': 'u', 'origWidth': 410, 'origHeight': 410, 'width': 410, 'height': 410, 'widthPercent': 0.45, 'rescaleHeight': False, 'trialN': 42, 'loaded': True, 'loadedTime': 74094.60000014305, 'positionName': 'LEFT', 'positionCoords': [333.52, 220], 'bid': 4.64}, {'imgObject': {}, 'id': 'mango', 'src': '/static/foodstim60/mango.jpg', 'key': 'i', 'origWidth': 411, 'origHeight': 411, 'width': 411, 'height': 411, 'widthPercent': 0.45, 'rescaleHeight': False, 'trialN': 42, 'loaded': True, 'loadedTime': 74096.90000009537, 'positionName': 'RIGHT', 'positionCoords': [805.48, 219.5], 'bid': 4.41}]",74093.0,1669832192853,burrito,mango,4.64,4.41,-0.22999999999999954,,mango,i,2009.2000000476837,2010,True,76612.40000009537,2519.4000000953674,1669832195372,2519,2010.0,HRV,HRV_0196,2022-11-30 18:23:13
43,"[{'imgObject': {}, 'id': 'raisin bran w milk', 'src': '/static/foodstim60/raisin bran w milk.jpg', 'key': 'u', 'origWidth': 411, 'origHeight': 411, 'width': 411, 'height': 411, 'widthPercent': 0.45, 'rescaleHeight': False, 'trialN': 43, 'loaded': True, 'loadedTime': 76614.29999995232, 'positionName': 'LEFT', 'positionCoords': [332.52, 219.5], 'bid': 3.23}, {'imgObject': {}, 'id': 'blueberries', 'src': '/static/foodstim60/blueberries.jpg', 'key': 'i', 'origWidth': 411, 'origHeight': 411, 'width': 411, 'height': 411, 'widthPercent': 0.45, 'rescaleHeight': False, 'trialN': 43, 'loaded': True, 'loadedTime': 76617.70000004768, 'positionName': 'RIGHT', 'positionCoords': [805.48, 219.5], 'bid': 4.1}]",76612.79999995232,1669832195373,raisin bran w milk,blueberries,3.23,4.1,0.8699999999999997,,blueberries,i,889.3000001907349,890,True,78013.90000009537,1401.1000001430511,1669832196774,1401,890.1000001430511,HRV,HRV_0196,2022-11-30 18:23:13
44,"[{'imgObject': {}, 'id': 'cocktailshrimp', 'src': '/static/foodstim60/cocktailshrimp.jpg', 'key': 'u', 'origWidth': 410, 'origHeight': 410, 'width': 410, 'height': 410, 'widthPercent': 0.45, 'rescaleHeight': False, 'trialN': 44, 'loaded': True, 'loadedTime': 78018.20000004768, 'positionName': 'LEFT', 'positionCoords': [333.52, 220], 'bid': 1.54}, {'imgObject': {}, 'id': 'olives', 'src': '/static/foodstim60/olives.jpg', 'key': 'i', 'origWidth': 410, 'origHeight': 410, 'width': 410, 'height': 410, 'widthPercent': 0.45, 'rescaleHeight': False, 'trialN': 44, 'loaded': True, 'loadedTime': 78021.29999995232, 'positionName': 'RIGHT', 'positionCoords': [805.48, 220], 'bid': 0.64}]",78015.10000014305,1669832196775,cocktailshrimp,olives,1.54,0.64,-0.9,,cocktailshrimp,u,830.2999999523163,831,True,79349.40000009537,1334.2999999523163,1669832198109,1334,830.8999998569489,HRV,HRV_0196,2022-11-30 18:23:13
45,"[{'imgObject': {}, 'id': 'steak', 'src': '/static/foodstim60/steak.jpg', 'key': 'u', 'origWidth': 410, 'origHeight': 410, 'width': 410, 'height': 410, 'widthPercent': 0.45, 'rescaleHeight': False, 'trialN': 45, 'loaded': True, 'loadedTime': 79353.79999995232, 'positionName': 'LEFT', 'positionCoords': [333.52, 220], 'bid': 6.36}, {'imgObject': {}, 'id': 'shreddedwheatwithmilk', 'src': '/static/foodstim60/shreddedwheatwithmilk.jpg', 'key': 'i', 'origWidth': 410, 'origHeight': 410, 'width': 410, 'height': 410, 'widthPercent': 0.45, 'rescaleHeight': False, 'trialN': 45, 'loaded': True, 'loadedTime': 79356.40000009537, 'positionName': 'RIGHT', 'positionCoords': [805.48, 220], 'bid': 6.3100000000000005}]",79350.60000014305,1669832198110,steak,shreddedwheatwithmilk,6.36,6.3100000000000005,-0.04999999999999982,,steak,u,776.7999999523163,778,True,80635.20000004768,1284.5999999046326,1669832199395,1285,777.7999999523163,HRV,HRV_0196,2022-11-30 18:23:13
46,"[{'imgObject': {}, 'id': 'burger', 'src': '/static/foodstim60/burger.jpg', 'key': 'u', 'origWidth': 409, 'origHeight': 409, 'width': 409, 'height': 409, 'widthPercent': 0.45, 'rescaleHeight': False, 'trialN': 46, 'loaded': True, 'loadedTime': 80637.10000014305, 'positionName': 'LEFT', 'positionCoords': [334.52, 220.5], 'bid': 7.8}, {'imgObject': {}, 'id': 'salad w chicken', 'src': '/static/foodstim60/salad w chicken.jpg', 'key': 'i', 'origWidth': 411, 'origHeight': 411, 'width': 411, 'height': 411, 'widthPercent': 0.45, 'rescaleHeight': False, 'trialN': 46, 'loaded': True, 'loadedTime': 80639.79999995232, 'positionName': 'RIGHT', 'positionCoords': [805.48, 219.5], 'bid': 6.69}]",80635.70000004768,1669832199395,burger,salad w chicken,7.8,6.69,-1.1099999999999994,,burger,u,746.4000000953674,748,True,81886.10000014305,1250.4000000953674,1669832200646,1251,747.2999999523163,HRV,HRV_0196,2022-11-30 18:23:13
47,"[{'imgObject': {}, 'id': 'steak', 'src': '/static/foodstim60/steak.jpg', 'key': 'u', 'origWidth': 410, 'origHeight': 410, 'width': 410, 'height': 410, 'widthPercent': 0.45, 'rescaleHeight': False, 'trialN': 47, 'loaded': True, 'loadedTime': 81890.29999995232, 'positionName': 'LEFT', 'positionCoords': [333.52, 220], 'bid': 6.36}, {'imgObject': {}, 'id': 'eggs', 'src': '/static/foodstim60/eggs.jpg', 'key': 'i', 'origWidth': 409, 'origHeight': 409, 'width': 409, 'height': 409, 'widthPercent': 0.45, 'rescaleHeight': False, 'trialN': 47, 'loaded': True, 'loadedTime': 81895.5, 'positionName': 'RIGHT', 'positionCoords': [805.48, 220.5], 'bid': 8}]",81887.20000004768,1669832200647,steak,eggs,6.36,8.0,1.6399999999999997,,eggs,i,854.7000000476837,852,True,83253.29999995232,1366.0999999046326,1669832202009,1362,855.7999999523163,HRV,HRV_0196,2022-11-30 18:23:13
48,"[{'imgObject': {}, 'id': 'blueberries', 'src': '/static/foodstim60/blueberries.jpg', 'key': 'u', 'origWidth': 411, 'origHeight': 411, 'width': 411, 'height': 411, 'widthPercent': 0.45, 'rescaleHeight': False, 'trialN': 48, 'loaded': True, 'loadedTime': 83257.5, 'positionName': 'LEFT', 'positionCoords': [332.52, 219.5], 'bid': 4.1}, {'imgObject': {}, 'id': 'apple slices', 'src': '/static/foodstim60/apple slices.jpg', 'key': 'i', 'origWidth': 409, 'origHeight': 410, 'width': 409, 'height': 410, 'widthPercent': 0.45, 'rescaleHeight': False, 'trialN': 48, 'loaded': True, 'loadedTime': 83260.10000014305, 'positionName': 'RIGHT', 'positionCoords': [805.48, 220], 'bid': 3.79}]",83254.40000009537,1669832202010,blueberries,apple slices,4.1,3.79,-0.3099999999999996,,blueberries,u,767.5,769,True,84538.60000014305,1284.2000000476837,1669832203294,1284,768.2999999523163,HRV,HRV_0196,2022-11-30 18:23:13
49,"[{'imgObject': {}, 'id': 'ice cream sundae 002', 'src': '/static/foodstim60/ice cream sundae 002.jpg', 'key': 'u', 'origWidth': 409, 'origHeight': 409, 'width': 409, 'height': 409, 'widthPercent': 0.45, 'rescaleHeight': False, 'trialN': 49, 'loaded': True, 'loadedTime': 84542.90000009537, 'positionName': 'LEFT', 'positionCoords': [334.52, 220.5], 'bid': 8.13}, {'imgObject': {}, 'id': 'salad w chicken', 'src': '/static/foodstim60/salad w chicken.jpg', 'key': 'i', 'origWidth': 411, 'origHeight': 411, 'width': 411, 'height': 411, 'widthPercent': 0.45, 'rescaleHeight': False, 'trialN': 49, 'loaded': True, 'loadedTime': 84545.20000004768, 'positionName': 'RIGHT', 'positionCoords': [805.48, 219.5], 'bid': 6.69}]",84539.90000009537,1669832203296,ice cream sundae 002,salad w chicken,8.13,6.69,-1.4400000000000004,,ice cream sundae 002,u,1026.2000000476837,1027,True,86073.29999995232,1533.3999998569489,1669832204829,1533,1027.0999999046326,HRV,HRV_0196,2022-11-30 18:23:13
50,"[{'imgObject': {}, 'id': 'Grapes', 'src': '/static/foodstim60/Grapes.jpg', 'key': 'u', 'origWidth': 411, 'origHeight': 411, 'width': 411, 'height': 411, 'widthPercent': 0.45, 'rescaleHeight': False, 'trialN': 50, 'loaded': True, 'loadedTime': 86075.90000009537, 'positionName': 'LEFT', 'positionCoords': [332.52, 219.5], 'bid': 5.17}, {'imgObject': {}, 'id': 'pear', 'src': '/static/foodstim60/pear.jpg', 'key': 'i', 'origWidth': 411, 'origHeight': 410, 'width': 411, 'height': 410, 'widthPercent': 0.45, 'rescaleHeight': False, 'trialN': 50, 'loaded': True, 'loadedTime': 86080, 'positionName': 'RIGHT', 'positionCoords': [805.48, 220], 'bid': 5.41}]",86074.0,1669832204830,Grapes,pear,5.17,5.41,0.2400000000000002,,Grapes,u,916.1000001430511,917,True,87508.29999995232,1434.2999999523163,1669832206264,1434,917.2000000476837,HRV,HRV_0196,2022-11-30 18:23:13
51,"[{'imgObject': {}, 'id': 'omelette', 'src': '/static/foodstim60/omelette.jpg', 'key': 'u', 'origWidth': 410, 'origHeight': 409, 'width': 410, 'height': 409, 'widthPercent': 0.45, 'rescaleHeight': False, 'trialN': 51, 'loaded': True, 'loadedTime': 87512.79999995232, 'positionName': 'LEFT', 'positionCoords': [333.52, 220.5], 'bid': 7.35}, {'imgObject': {}, 'id': 'apple slices', 'src': '/static/foodstim60/apple slices.jpg', 'key': 'i', 'origWidth': 409, 'origHeight': 410, 'width': 409, 'height': 410, 'widthPercent': 0.45, 'rescaleHeight': False, 'trialN': 51, 'loaded': True, 'loadedTime': 87515.70000004768, 'positionName': 'RIGHT', 'positionCoords': [805.48, 220], 'bid': 3.79}]",87509.40000009537,1669832206265,omelette,apple slices,7.35,3.79,-3.5599999999999996,,apple slices,i,592.2000000476837,593,True,88609.40000009537,1100.0,1669832207365,1100,592.5999999046326,HRV,HRV_0196,2022-11-30 18:23:13
52,"[{'imgObject': {}, 'id': 'mashed potato', 'src': '/static/foodstim60/mashed potato.jpg', 'key': 'u', 'origWidth': 409, 'origHeight': 409, 'width': 409, 'height': 409, 'widthPercent': 0.45, 'rescaleHeight': False, 'trialN': 52, 'loaded': True, 'loadedTime': 88613.60000014305, 'positionName': 'LEFT', 'positionCoords': [334.52, 220.5], 'bid': 3.31}, {'imgObject': {}, 'id': 'banana', 'src': '/static/foodstim60/banana.jpg', 'key': 'i', 'origWidth': 410, 'origHeight': 410, 'width': 410, 'height': 410, 'widthPercent': 0.45, 'rescaleHeight': False, 'trialN': 52, 'loaded': True, 'loadedTime': 88616.20000004768, 'positionName': 'RIGHT', 'positionCoords': [805.48, 220], 'bid': 5.49}]",88610.5,1669832207366,mashed potato,banana,3.31,5.49,2.18,,mashed potato,u,1107.6000001430511,1109,True,90226.20000004768,1615.7000000476837,1669832208982,1616,1108.4000000953674,HRV,HRV_0196,2022-11-30 18:23:13
53,"[{'imgObject': {}, 'id': 'fried eggs', 'src': '/static/foodstim60/fried eggs.jpg', 'key': 'u', 'origWidth': 410, 'origHeight': 410, 'width': 410, 'height': 410, 'widthPercent': 0.45, 'rescaleHeight': False, 'trialN': 53, 'loaded': True, 'loadedTime': 90228, 'positionName': 'LEFT', 'positionCoords': [333.52, 220], 'bid': 6.73}, {'imgObject': {}, 'id': 'hotdog w must', 'src': '/static/foodstim60/hotdog w must.jpg', 'key': 'i', 'origWidth': 409, 'origHeight': 409, 'width': 409, 'height': 409, 'widthPercent': 0.45, 'rescaleHeight': False, 'trialN': 53, 'loaded': True, 'loadedTime': 90229.79999995232, 'positionName': 'RIGHT', 'positionCoords': [805.48, 220.5], 'bid': 8.89}]",90226.70000004768,1669832208983,fried eggs,hotdog w must,6.73,8.89,2.16,,hotdog w must,i,587.2999999523163,587,True,91328.0,1101.2999999523163,1669832210084,1101,587.5999999046326,HRV,HRV_0196,2022-11-30 18:23:13
54,"[{'imgObject': {}, 'id': 'baked potato', 'src': '/static/foodstim60/baked potato.jpg', 'key': 'u', 'origWidth': 409, 'origHeight': 410, 'width': 409, 'height': 410, 'widthPercent': 0.45, 'rescaleHeight': False, 'trialN': 54, 'loaded': True, 'loadedTime': 91329.60000014305, 'positionName': 'LEFT', 'positionCoords': [334.52, 220], 'bid': 3.36}, {'imgObject': {}, 'id': 'mashed potato', 'src': '/static/foodstim60/mashed potato.jpg', 'key': 'i', 'origWidth': 409, 'origHeight': 409, 'width': 409, 'height': 409, 'widthPercent': 0.45, 'rescaleHeight': False, 'trialN': 54, 'loaded': True, 'loadedTime': 91332.40000009537, 'positionName': 'RIGHT', 'positionCoords': [805.48, 220.5], 'bid': 3.31}]",91328.5,1669832210084,baked potato,mashed potato,3.36,3.31,-0.04999999999999982,,mashed potato,i,877.2999999523163,878,True,92709.5,1381.0,1669832211465,1381,877.9000000953674,HRV,HRV_0196,2022-11-30 18:23:13
55,"[{'imgObject': {}, 'id': 'Tribe humus pita', 'src': '/static/foodstim60/Tribe humus pita.jpg', 'key': 'u', 'origWidth': 411, 'origHeight': 411, 'width': 411, 'height': 411, 'widthPercent': 0.45, 'rescaleHeight': False, 'trialN': 55, 'loaded': True, 'loadedTime': 92713.20000004768, 'positionName': 'LEFT', 'positionCoords': [332.52, 219.5], 'bid': 2.07}, {'imgObject': {}, 'id': 'kiwi', 'src': '/static/foodstim60/kiwi.jpg', 'key': 'i', 'origWidth': 410, 'origHeight': 410, 'width': 410, 'height': 410, 'widthPercent': 0.45, 'rescaleHeight': False, 'trialN': 55, 'loaded': True, 'loadedTime': 92717.5, 'positionName': 'RIGHT', 'positionCoords': [805.48, 220], 'bid': 4.48}]",92710.5,1669832211466,Tribe humus pita,kiwi,2.07,4.48,2.4100000000000006,,kiwi,i,1239.4000000953674,1241,True,94464.90000009537,1754.4000000953674,1669832213221,1755,1240.2000000476837,HRV,HRV_0196,2022-11-30 18:23:13
56,"[{'imgObject': {}, 'id': 'rigatoni', 'src': '/static/foodstim60/rigatoni.jpg', 'key': 'u', 'origWidth': 411, 'origHeight': 411, 'width': 411, 'height': 411, 'widthPercent': 0.45, 'rescaleHeight': False, 'trialN': 56, 'loaded': True, 'loadedTime': 94467.90000009537, 'positionName': 'LEFT', 'positionCoords': [332.52, 219.5], 'bid': 6.7700000000000005}, {'imgObject': {}, 'id': 'raspberries', 'src': '/static/foodstim60/raspberries.jpg', 'key': 'i', 'origWidth': 411, 'origHeight': 411, 'width': 411, 'height': 411, 'widthPercent': 0.45, 'rescaleHeight': False, 'trialN': 56, 'loaded': True, 'loadedTime': 94471, 'positionName': 'RIGHT', 'positionCoords': [805.48, 219.5], 'bid': 5.67}]",94465.70000004768,1669832213222,rigatoni,raspberries,6.7700000000000005,5.67,-1.1000000000000005,,rigatoni,u,1012.2999999523163,1013,True,95984.40000009537,1518.7000000476837,1669832214740,1518,1013.2999999523163,HRV,HRV_0196,2022-11-30 18:23:13
57,"[{'imgObject': {}, 'id': 'Grapes', 'src': '/static/foodstim60/Grapes.jpg', 'key': 'u', 'origWidth': 411, 'origHeight': 411, 'width': 411, 'height': 411, 'widthPercent': 0.45, 'rescaleHeight': False, 'trialN': 57, 'loaded': True, 'loadedTime': 95986.10000014305, 'positionName': 'LEFT', 'positionCoords': [332.52, 219.5], 'bid': 5.17}, {'imgObject': {}, 'id': 'cherry tomato', 'src': '/static/foodstim60/cherry tomato.jpg', 'key': 'i', 'origWidth': 410, 'origHeight': 410, 'width': 410, 'height': 410, 'widthPercent': 0.45, 'rescaleHeight': False, 'trialN': 57, 'loaded': True, 'loadedTime': 95989.29999995232, 'positionName': 'RIGHT', 'positionCoords': [805.48, 220], 'bid': 2.56}]",95984.70000004768,1669832214741,Grapes,cherry tomato,5.17,2.56,-2.61,,Grapes,u,677,677,True,97169.60000014305,1184.9000000953674,1669832215925,1184,677.5999999046326,HRV,HRV_0196,2022-11-30 18:23:13
58,"[{'imgObject': {}, 'id': 'roastedpotatoes', 'src': '/static/foodstim60/roastedpotatoes.jpg', 'key': 'u', 'origWidth': 409, 'origHeight': 410, 'width': 409, 'height': 410, 'widthPercent': 0.45, 'rescaleHeight': False, 'trialN': 58, 'loaded': True, 'loadedTime': 97173.90000009537, 'positionName': 'LEFT', 'positionCoords': [334.52, 220], 'bid': 6.37}, {'imgObject': {}, 'id': 'chicken nuggets2', 'src': '/static/foodstim60/chicken nuggets2.jpg', 'key': 'i', 'origWidth': 410, 'origHeight': 409, 'width': 410, 'height': 409, 'widthPercent': 0.45, 'rescaleHeight': False, 'trialN': 58, 'loaded': True, 'loadedTime': 97176.79999995232, 'positionName': 'RIGHT', 'positionCoords': [805.48, 220.5], 'bid': 8.040000000000001}]",97170.90000009537,1669832215927,roastedpotatoes,chicken nuggets2,6.37,8.040000000000001,1.6700000000000008,,chicken nuggets2,i,523,523,True,98209.5,1038.5999999046326,1669832216965,1038,523.7000000476837,HRV,HRV_0196,2022-11-30 18:23:13
59,"[{'imgObject': {}, 'id': 'bagel and cc', 'src': '/static/foodstim60/bagel and cc.jpg', 'key': 'u', 'origWidth': 410, 'origHeight': 410, 'width': 410, 'height': 410, 'widthPercent': 0.45, 'rescaleHeight': False, 'trialN': 59, 'loaded': True, 'loadedTime': 98214, 'positionName': 'LEFT', 'positionCoords': [333.52, 220], 'bid': 1.62}, {'imgObject': {}, 'id': 'cherry tomato', 'src': '/static/foodstim60/cherry tomato.jpg', 'key': 'i', 'origWidth': 410, 'origHeight': 410, 'width': 410, 'height': 410, 'widthPercent': 0.45, 'rescaleHeight': False, 'trialN': 59, 'loaded': True, 'loadedTime': 98217, 'positionName': 'RIGHT', 'positionCoords': [805.48, 220], 'bid': 2.56}]",98210.70000004768,1669832216966,bagel and cc,cherry tomato,1.62,2.56,0.94,,cherry tomato,i,715.2999999523163,717,True,99436.60000014305,1225.9000000953674,1669832218192,1226,716.0999999046326,HRV,HRV_0196,2022-11-30 18:23:13
60,"[{'imgObject': {}, 'id': 'turkey sandwich', 'src': '/static/foodstim60/turkey sandwich.jpg', 'key': 'u', 'origWidth': 409, 'origHeight': 409, 'width': 409, 'height': 409, 'widthPercent': 0.45, 'rescaleHeight': False, 'trialN': 60, 'loaded': True, 'loadedTime': 99438.29999995232, 'positionName': 'LEFT', 'positionCoords': [334.52, 220.5], 'bid': 7.42}, {'imgObject': {}, 'id': 'turkeysandwich', 'src': '/static/foodstim60/turkeysandwich.jpg', 'key': 'i', 'origWidth': 409, 'origHeight': 409, 'width': 409, 'height': 409, 'widthPercent': 0.45, 'rescaleHeight': False, 'trialN': 60, 'loaded': True, 'loadedTime': 99440.29999995232, 'positionName': 'RIGHT', 'positionCoords': [805.48, 220.5], 'bid': 8.05}]",99437.10000014305,1669832218193,turkey sandwich,turkeysandwich,7.42,8.05,0.6300000000000008,,turkeysandwich,i,968.1999998092651,969,True,100923.29999995232,1486.1999998092651,1669832219679,1486,968.5999999046326,HRV,HRV_0196,2022-11-30 18:23:13
61,"[{'imgObject': {}, 'id': 'cantaloupe', 'src': '/static/foodstim60/cantaloupe.jpg', 'key': 'u', 'origWidth': 409, 'origHeight': 409, 'width': 409, 'height': 409, 'widthPercent': 0.45, 'rescaleHeight': False, 'trialN': 61, 'loaded': True, 'loadedTime': 100925, 'positionName': 'LEFT', 'positionCoords': [334.52, 220.5], 'bid': 3.43}, {'imgObject': {}, 'id': 'corn cob', 'src': '/static/foodstim60/corn cob.jpg', 'key': 'i', 'origWidth': 411, 'origHeight': 411, 'width': 411, 'height': 411, 'widthPercent': 0.45, 'rescaleHeight': False, 'trialN': 61, 'loaded': True, 'loadedTime': 100928, 'positionName': 'RIGHT', 'positionCoords': [805.48, 219.5], 'bid': 3.39}]",100923.60000014305,1669832219679,cantaloupe,corn cob,3.43,3.39,-0.040000000000000036,,corn cob,i,778.1999998092651,779,True,102208.29999995232,1284.6999998092651,1669832220964,1285,778.3999998569489,HRV,HRV_0196,2022-11-30 18:23:13
62,"[{'imgObject': {}, 'id': 'yogurt no spoon', 'src': '/static/foodstim60/yogurt no spoon.jpg', 'key': 'u', 'origWidth': 411, 'origHeight': 410, 'width': 411, 'height': 410, 'widthPercent': 0.45, 'rescaleHeight': False, 'trialN': 62, 'loaded': True, 'loadedTime': 102212.5, 'positionName': 'LEFT', 'positionCoords': [332.52, 220], 'bid': 5.93}, {'imgObject': {}, 'id': 'burrito', 'src': '/static/foodstim60/burrito.jpg', 'key': 'i', 'origWidth': 410, 'origHeight': 410, 'width': 410, 'height': 410, 'widthPercent': 0.45, 'rescaleHeight': False, 'trialN': 62, 'loaded': True, 'loadedTime': 102214.60000014305, 'positionName': 'RIGHT', 'positionCoords': [805.48, 220], 'bid': 4.64}]",102209.5,1669832220965,yogurt no spoon,burrito,5.93,4.64,-1.29,,burrito,i,844.6000001430511,846,True,103559.60000014305,1350.1000001430511,1669832222315,1350,845.6000001430511,HRV,HRV_0196,2022-11-30 18:23:13
63,"[{'imgObject': {}, 'id': 'hotdog w must', 'src': '/static/foodstim60/hotdog w must.jpg', 'key': 'u', 'origWidth': 409, 'origHeight': 409, 'width': 409, 'height': 409, 'widthPercent': 0.45, 'rescaleHeight': False, 'trialN': 63, 'loaded': True, 'loadedTime': 103563.79999995232, 'positionName': 'LEFT', 'positionCoords': [334.52, 220.5], 'bid': 8.89}, {'imgObject': {}, 'id': 'turkeysandwich', 'src': '/static/foodstim60/turkeysandwich.jpg', 'key': 'i', 'origWidth': 409, 'origHeight': 409, 'width': 409, 'height': 409, 'widthPercent': 0.45, 'rescaleHeight': False, 'trialN': 63, 'loaded': True, 'loadedTime': 103566.5, 'positionName': 'RIGHT', 'positionCoords': [805.48, 220.5], 'bid': 8.05}]",103560.79999995232,1669832222317,hotdog w must,turkeysandwich,8.89,8.05,-0.8399999999999999,,hotdog w must,u,901.3000001907349,902,True,104977.0,1416.2000000476837,1669832223733,1416,902.1000001430511,HRV,HRV_0196,2022-11-30 18:23:13
64,"[{'imgObject': {}, 'id': 'blackbeanswithrice', 'src': '/static/foodstim60/blackbeanswithrice.jpg', 'key': 'u', 'origWidth': 410, 'origHeight': 410, 'width': 410, 'height': 410, 'widthPercent': 0.45, 'rescaleHeight': False, 'trialN': 64, 'loaded': True, 'loadedTime': 104981.5, 'positionName': 'LEFT', 'positionCoords': [333.52, 220], 'bid': 6.33}, {'imgObject': {}, 'id': 'cheerios', 'src': '/static/foodstim60/cheerios.jpg', 'key': 'i', 'origWidth': 409, 'origHeight': 410, 'width': 409, 'height': 410, 'widthPercent': 0.45, 'rescaleHeight': False, 'trialN': 64, 'loaded': True, 'loadedTime': 104983.60000014305, 'positionName': 'RIGHT', 'positionCoords': [805.48, 220], 'bid': 6.74}]",104978.29999995232,1669832223734,blackbeanswithrice,cheerios,6.33,6.74,0.41000000000000014,,blackbeanswithrice,u,939.8000001907349,941,True,106428.5,1450.2000000476837,1669832225184,1450,940.7000000476837,HRV,HRV_0196,2022-11-30 18:23:13
65,"[{'imgObject': {}, 'id': 'omelette', 'src': '/static/foodstim60/omelette.jpg', 'key': 'u', 'origWidth': 410, 'origHeight': 409, 'width': 410, 'height': 409, 'widthPercent': 0.45, 'rescaleHeight': False, 'trialN': 65, 'loaded': True, 'loadedTime': 106432.70000004768, 'positionName': 'LEFT', 'positionCoords': [333.52, 220.5], 'bid': 7.35}, {'imgObject': {}, 'id': 'eggs', 'src': '/static/foodstim60/eggs.jpg', 'key': 'i', 'origWidth': 409, 'origHeight': 409, 'width': 409, 'height': 409, 'widthPercent': 0.45, 'rescaleHeight': False, 'trialN': 65, 'loaded': True, 'loadedTime': 106436.10000014305, 'positionName': 'RIGHT', 'positionCoords': [805.48, 220.5], 'bid': 8}]",106429.60000014305,1669832225185,omelette,eggs,7.35,8.0,0.6500000000000004,,eggs,i,736.5999999046326,738,True,107680.10000014305,1250.5,1669832226436,1251,737.3999998569489,HRV,HRV_0196,2022-11-30 18:23:13
66,"[{'imgObject': {}, 'id': 'fruitsalad', 'src': '/static/foodstim60/fruitsalad.jpg', 'key': 'u', 'origWidth': 410, 'origHeight': 410, 'width': 410, 'height': 410, 'widthPercent': 0.45, 'rescaleHeight': False, 'trialN': 66, 'loaded': True, 'loadedTime': 107683.40000009537, 'positionName': 'LEFT', 'positionCoords': [333.52, 220], 'bid': 7.58}, {'imgObject': {}, 'id': 'cherries', 'src': '/static/foodstim60/cherries.jpg', 'key': 'i', 'origWidth': 410, 'origHeight': 411, 'width': 410, 'height': 411, 'widthPercent': 0.45, 'rescaleHeight': False, 'trialN': 66, 'loaded': True, 'loadedTime': 107685.79999995232, 'positionName': 'RIGHT', 'positionCoords': [805.48, 219.5], 'bid': 6.23}]",107681.29999995232,1669832226437,fruitsalad,cherries,7.58,6.23,-1.3499999999999996,,fruitsalad,u,1044.9000000953674,1046,True,109232.60000014305,1551.3000001907349,1669832227988,1551,1045.6000001430511,HRV,HRV_0196,2022-11-30 18:23:13
67,"[{'imgObject': {}, 'id': 'banana', 'src': '/static/foodstim60/banana.jpg', 'key': 'u', 'origWidth': 410, 'origHeight': 410, 'width': 410, 'height': 410, 'widthPercent': 0.45, 'rescaleHeight': False, 'trialN': 67, 'loaded': True, 'loadedTime': 109236.5, 'positionName': 'LEFT', 'positionCoords': [333.52, 220], 'bid': 5.49}, {'imgObject': {}, 'id': 'edamame', 'src': '/static/foodstim60/edamame.jpg', 'key': 'i', 'origWidth': 409, 'origHeight': 410, 'width': 409, 'height': 410, 'widthPercent': 0.45, 'rescaleHeight': False, 'trialN': 67, 'loaded': True, 'loadedTime': 109238.40000009537, 'positionName': 'RIGHT', 'positionCoords': [805.48, 220], 'bid': 5.44}]",109235.20000004768,1669832227991,banana,edamame,5.49,5.44,-0.04999999999999982,,edamame,i,986.2999999523163,987,True,110733.70000004768,1498.5,1669832229489,1498,986.9000000953674,HRV,HRV_0196,2022-11-30 18:23:13
68,"[{'imgObject': {}, 'id': 'froot loops w milk', 'src': '/static/foodstim60/froot loops w milk.jpg', 'key': 'u', 'origWidth': 410, 'origHeight': 410, 'width': 410, 'height': 410, 'widthPercent': 0.45, 'rescaleHeight': False, 'trialN': 68, 'loaded': True, 'loadedTime': 110738, 'positionName': 'LEFT', 'positionCoords': [333.52, 220], 'bid': 4.25}, {'imgObject': {}, 'id': 'turkey sandwich', 'src': '/static/foodstim60/turkey sandwich.jpg', 'key': 'i', 'origWidth': 409, 'origHeight': 409, 'width': 409, 'height': 409, 'widthPercent': 0.45, 'rescaleHeight': False, 'trialN': 68, 'loaded': True, 'loadedTime': 110742.40000009537, 'positionName': 'RIGHT', 'positionCoords': [805.48, 220.5], 'bid': 7.42}]",110734.60000014305,1669832229490,froot loops w milk,turkey sandwich,4.25,7.42,3.17,,turkey sandwich,i,615.5,617,True,111854.70000004768,1120.0999999046326,1669832230610,1120,616.3999998569489,HRV,HRV_0196,2022-11-30 18:23:13
69,"[{'imgObject': {}, 'id': 'fruitsalad', 'src': '/static/foodstim60/fruitsalad.jpg', 'key': 'u', 'origWidth': 410, 'origHeight': 410, 'width': 410, 'height': 410, 'widthPercent': 0.45, 'rescaleHeight': False, 'trialN': 69, 'loaded': True, 'loadedTime': 111856.29999995232, 'positionName': 'LEFT', 'positionCoords': [333.52, 220], 'bid': 7.58}, {'imgObject': {}, 'id': 'grilled chicken strips', 'src': '/static/foodstim60/grilled chicken strips.jpg', 'key': 'i', 'origWidth': 410, 'origHeight': 411, 'width': 410, 'height': 411, 'widthPercent': 0.45, 'rescaleHeight': False, 'trialN': 69, 'loaded': True, 'loadedTime': 111859.10000014305, 'positionName': 'RIGHT', 'positionCoords': [805.48, 219.5], 'bid': 6.62}]",111855.10000014305,1669832230611,fruitsalad,grilled chicken strips,7.58,6.62,-0.96,,fruitsalad,u,998.7999999523163,999,True,113358.79999995232,1503.6999998092651,1669832232115,1504,999.0999999046326,HRV,HRV_0196,2022-11-30 18:23:13
70,"[{'imgObject': {}, 'id': 'eggs', 'src': '/static/foodstim60/eggs.jpg', 'key': 'u', 'origWidth': 409, 'origHeight': 409, 'width': 409, 'height': 409, 'widthPercent': 0.45, 'rescaleHeight': False, 'trialN': 70, 'loaded': True, 'loadedTime': 113364.40000009537, 'positionName': 'LEFT', 'positionCoords': [334.52, 220.5], 'bid': 8}, {'imgObject': {}, 'id': 'burger', 'src': '/static/foodstim60/burger.jpg', 'key': 'i', 'origWidth': 409, 'origHeight': 409, 'width': 409, 'height': 409, 'widthPercent': 0.45, 'rescaleHeight': False, 'trialN': 70, 'loaded': True, 'loadedTime': 113366.40000009537, 'positionName': 'RIGHT', 'positionCoords': [805.48, 220.5], 'bid': 7.8}]",113360.10000014305,1669832232116,eggs,burger,8.0,7.8,-0.20000000000000018,,eggs,u,1157.5999999046326,1158,True,115023.20000004768,1663.0999999046326,1669832233779,1663,1158.0999999046326,HRV,HRV_0196,2022-11-30 18:23:13
71,"[{'imgObject': {}, 'id': 'cherry tomato', 'src': '/static/foodstim60/cherry tomato.jpg', 'key': 'u', 'origWidth': 410, 'origHeight': 410, 'width': 410, 'height': 410, 'widthPercent': 0.45, 'rescaleHeight': False, 'trialN': 71, 'loaded': True, 'loadedTime': 115028.10000014305, 'positionName': 'LEFT', 'positionCoords': [333.52, 220], 'bid': 2.56}, {'imgObject': {}, 'id': 'seaweed', 'src': '/static/foodstim60/seaweed.jpg', 'key': 'i', 'origWidth': 410, 'origHeight': 410, 'width': 410, 'height': 410, 'widthPercent': 0.45, 'rescaleHeight': False, 'trialN': 71, 'loaded': True, 'loadedTime': 115033.10000014305, 'positionName': 'RIGHT', 'positionCoords': [805.48, 220], 'bid': 2.75}]",115024.5,1669832233780,cherry tomato,seaweed,2.56,2.75,0.18999999999999995,,cherry tomato,u,860.7999999523163,862,True,116391.20000004768,1366.7000000476837,1669832235147,1367,861.2999999523163,HRV,HRV_0196,2022-11-30 18:23:13
72,"[{'imgObject': {}, 'id': 'blueberries', 'src': '/static/foodstim60/blueberries.jpg', 'key': 'u', 'origWidth': 411, 'origHeight': 411, 'width': 411, 'height': 411, 'widthPercent': 0.45, 'rescaleHeight': False, 'trialN': 72, 'loaded': True, 'loadedTime': 116393.10000014305, 'positionName': 'LEFT', 'positionCoords': [332.52, 219.5], 'bid': 4.1}, {'imgObject': {}, 'id': 'cantaloupe', 'src': '/static/foodstim60/cantaloupe.jpg', 'key': 'i', 'origWidth': 409, 'origHeight': 409, 'width': 409, 'height': 409, 'widthPercent': 0.45, 'rescaleHeight': False, 'trialN': 72, 'loaded': True, 'loadedTime': 116395.90000009537, 'positionName': 'RIGHT', 'positionCoords': [805.48, 220.5], 'bid': 3.43}]",116391.70000004768,1669832235148,blueberries,cantaloupe,4.1,3.43,-0.6699999999999995,,blueberries,u,718.4000000953674,719,True,117624.20000004768,1232.5,1669832236380,1232,719.2999999523163,HRV,HRV_0196,2022-11-30 18:23:13
73,"[{'imgObject': {}, 'id': 'omelette', 'src': '/static/foodstim60/omelette.jpg', 'key': 'u', 'origWidth': 410, 'origHeight': 409, 'width': 410, 'height': 409, 'widthPercent': 0.45, 'rescaleHeight': False, 'trialN': 73, 'loaded': True, 'loadedTime': 117628.40000009537, 'positionName': 'LEFT', 'positionCoords': [333.52, 220.5], 'bid': 7.35}, {'imgObject': {}, 'id': 'hotdog w must', 'src': '/static/foodstim60/hotdog w must.jpg', 'key': 'i', 'origWidth': 409, 'origHeight': 409, 'width': 409, 'height': 409, 'widthPercent': 0.45, 'rescaleHeight': False, 'trialN': 73, 'loaded': True, 'loadedTime': 117630.40000009537, 'positionName': 'RIGHT', 'positionCoords': [805.48, 220.5], 'bid': 8.89}]",117625.40000009537,1669832236381,omelette,hotdog w must,7.35,8.89,1.540000000000001,,hotdog w must,i,636.5999999046326,638,True,118775.20000004768,1149.7999999523163,1669832237531,1150,637.5,HRV,HRV_0196,2022-11-30 18:23:13
74,"[{'imgObject': {}, 'id': 'hashbrowns', 'src': '/static/foodstim60/hashbrowns.jpg', 'key': 'u', 'origWidth': 411, 'origHeight': 410, 'width': 411, 'height': 410, 'widthPercent': 0.45, 'rescaleHeight': False, 'trialN': 74, 'loaded': True, 'loadedTime': 118776.90000009537, 'positionName': 'LEFT', 'positionCoords': [332.52, 220], 'bid': 2.81}, {'imgObject': {}, 'id': 'salad w chicken', 'src': '/static/foodstim60/salad w chicken.jpg', 'key': 'i', 'origWidth': 411, 'origHeight': 411, 'width': 411, 'height': 411, 'widthPercent': 0.45, 'rescaleHeight': False, 'trialN': 74, 'loaded': True, 'loadedTime': 118779.29999995232, 'positionName': 'RIGHT', 'positionCoords': [805.48, 219.5], 'bid': 6.69}]",118775.60000014305,1669832237531,hashbrowns,salad w chicken,2.81,6.69,3.8800000000000003,,hashbrowns,u,854.5,856,True,120145.40000009537,1369.7999999523163,1669832238901,1370,855.5,HRV,HRV_0196,2022-11-30 18:23:13
75,"[{'imgObject': {}, 'id': 'hotdog w must', 'src': '/static/foodstim60/hotdog w must.jpg', 'key': 'u', 'origWidth': 409, 'origHeight': 409, 'width': 409, 'height': 409, 'widthPercent': 0.45, 'rescaleHeight': False, 'trialN': 75, 'loaded': True, 'loadedTime': 120147.5, 'positionName': 'LEFT', 'positionCoords': [334.52, 220.5], 'bid': 8.89}, {'imgObject': {}, 'id': 'chickenfingers', 'src': '/static/foodstim60/chickenfingers.jpg', 'key': 'i', 'origWidth': 410, 'origHeight': 410, 'width': 410, 'height': 410, 'widthPercent': 0.45, 'rescaleHeight': False, 'trialN': 75, 'loaded': True, 'loadedTime': 120148.20000004768, 'positionName': 'RIGHT', 'positionCoords': [805.48, 220], 'bid': 9}]",120146.0,1669832238902,hotdog w must,chickenfingers,8.89,9.0,0.10999999999999943,,chickenfingers,i,579.6000001430511,580,True,121229.29999995232,1083.2999999523163,1669832239985,1083,580.1000001430511,HRV,HRV_0196,2022-11-30 18:23:13
76,"[{'imgObject': {}, 'id': 'ice cream sundae 002', 'src': '/static/foodstim60/ice cream sundae 002.jpg', 'key': 'u', 'origWidth': 409, 'origHeight': 409, 'width': 409, 'height': 409, 'widthPercent': 0.45, 'rescaleHeight': False, 'trialN': 76, 'loaded': True, 'loadedTime': 121239.10000014305, 'positionName': 'LEFT', 'positionCoords': [334.52, 220.5], 'bid': 8.13}, {'imgObject': {}, 'id': 'popsicles', 'src': '/static/foodstim60/popsicles.jpg', 'key': 'i', 'origWidth': 410, 'origHeight': 410, 'width': 410, 'height': 410, 'widthPercent': 0.45, 'rescaleHeight': False, 'trialN': 76, 'loaded': True, 'loadedTime': 121241.90000009537, 'positionName': 'RIGHT', 'positionCoords': [805.48, 220], 'bid': 7.21}]",121230.5,1669832239986,ice cream sundae 002,popsicles,8.13,7.21,-0.9200000000000008,,popsicles,i,671.2000000476837,672,True,122418.20000004768,1187.7000000476837,1669832241174,1188,671.7999999523163,HRV,HRV_0196,2022-11-30 18:23:13
77,"[{'imgObject': {}, 'id': 'steak', 'src': '/static/foodstim60/steak.jpg', 'key': 'u', 'origWidth': 410, 'origHeight': 410, 'width': 410, 'height': 410, 'widthPercent': 0.45, 'rescaleHeight': False, 'trialN': 77, 'loaded': True, 'loadedTime': 122422.40000009537, 'positionName': 'LEFT', 'positionCoords': [333.52, 220], 'bid': 6.36}, {'imgObject': {}, 'id': 'blackbeanswithrice', 'src': '/static/foodstim60/blackbeanswithrice.jpg', 'key': 'i', 'origWidth': 410, 'origHeight': 410, 'width': 410, 'height': 410, 'widthPercent': 0.45, 'rescaleHeight': False, 'trialN': 77, 'loaded': True, 'loadedTime': 122429.40000009537, 'positionName': 'RIGHT', 'positionCoords': [805.48, 220], 'bid': 6.33}]",122419.20000004768,1669832241175,steak,blackbeanswithrice,6.36,6.33,-0.03000000000000025,,steak,u,740.0999999046326,741,True,123666.10000014305,1246.9000000953674,1669832242422,1247,740.7999999523163,HRV,HRV_0196,2022-11-30 18:23:13
78,"[{'imgObject': {}, 'id': 'apple slices', 'src': '/static/foodstim60/apple slices.jpg', 'key': 'u', 'origWidth': 409, 'origHeight': 410, 'width': 409, 'height': 410, 'widthPercent': 0.45, 'rescaleHeight': False, 'trialN': 78, 'loaded': True, 'loadedTime': 123670.40000009537, 'positionName': 'LEFT', 'positionCoords': [334.52, 220], 'bid': 3.79}, {'imgObject': {}, 'id': 'salmon', 'src': '/static/foodstim60/salmon.jpg', 'key': 'i', 'origWidth': 410, 'origHeight': 409, 'width': 410, 'height': 409, 'widthPercent': 0.45, 'rescaleHeight': False, 'trialN': 78, 'loaded': True, 'loadedTime': 123672.70000004768, 'positionName': 'RIGHT', 'positionCoords': [805.48, 220.5], 'bid': 2.08}]",123667.40000009537,1669832242423,apple slices,salmon,3.79,2.08,-1.71,,apple slices,u,730.0999999046326,731,True,124915.5,1248.0999999046326,1669832243671,1248,730.5,HRV,HRV_0196,2022-11-30 18:23:13
79,"[{'imgObject': {}, 'id': 'ice cream sundae 002', 'src': '/static/foodstim60/ice cream sundae 002.jpg', 'key': 'u', 'origWidth': 409, 'origHeight': 409, 'width': 409, 'height': 409, 'widthPercent': 0.45, 'rescaleHeight': False, 'trialN': 79, 'loaded': True, 'loadedTime': 124917.5, 'positionName': 'LEFT', 'positionCoords': [334.52, 220.5], 'bid': 8.13}, {'imgObject': {}, 'id': 'pear', 'src': '/static/foodstim60/pear.jpg', 'key': 'i', 'origWidth': 411, 'origHeight': 410, 'width': 411, 'height': 410, 'widthPercent': 0.45, 'rescaleHeight': False, 'trialN': 79, 'loaded': True, 'loadedTime': 124918.29999995232, 'positionName': 'RIGHT', 'positionCoords': [805.48, 220], 'bid': 5.41}]",124916.10000014305,1669832243672,ice cream sundae 002,pear,8.13,5.41,-2.7200000000000006,,pear,i,601.2999999523163,602,True,126033.0,1116.8999998569489,1669832244789,1117,601.7999999523163,HRV,HRV_0196,2022-11-30 18:23:13
80,"[{'imgObject': {}, 'id': 'froot loops w milk', 'src': '/static/foodstim60/froot loops w milk.jpg', 'key': 'u', 'origWidth': 410, 'origHeight': 410, 'width': 410, 'height': 410, 'widthPercent': 0.45, 'rescaleHeight': False, 'trialN': 80, 'loaded': True, 'loadedTime': 126037.20000004768, 'positionName': 'LEFT', 'positionCoords': [333.52, 220], 'bid': 4.25}, {'imgObject': {}, 'id': 'sushi w_condiments', 'src': '/static/foodstim60/sushi w_condiments.jpg', 'key': 'i', 'origWidth': 410, 'origHeight': 410, 'width': 410, 'height': 410, 'widthPercent': 0.45, 'rescaleHeight': False, 'trialN': 80, 'loaded': True, 'loadedTime': 126040.70000004768, 'positionName': 'RIGHT', 'positionCoords': [805.48, 220], 'bid': 1.8}]",126034.20000004768,1669832244790,froot loops w milk,sushi w_condiments,4.25,1.8,-2.45,,sushi w_condiments,i,795.7999999523163,797,True,127336.60000014305,1302.4000000953674,1669832246092,1302,796.7000000476837,HRV,HRV_0196,2022-11-30 18:23:13
81,"[{'imgObject': {}, 'id': 'salad w chicken', 'src': '/static/foodstim60/salad w chicken.jpg', 'key': 'u', 'origWidth': 411, 'origHeight': 411, 'width': 411, 'height': 411, 'widthPercent': 0.45, 'rescaleHeight': False, 'trialN': 81, 'loaded': True, 'loadedTime': 127341.20000004768, 'positionName': 'LEFT', 'positionCoords': [332.52, 219.5], 'bid': 6.69}, {'imgObject': {}, 'id': 'roastedpotatoes', 'src': '/static/foodstim60/roastedpotatoes.jpg', 'key': 'i', 'origWidth': 409, 'origHeight': 410, 'width': 409, 'height': 410, 'widthPercent': 0.45, 'rescaleHeight': False, 'trialN': 81, 'loaded': True, 'loadedTime': 127343.40000009537, 'positionName': 'RIGHT', 'positionCoords': [805.48, 220], 'bid': 6.37}]",127337.70000004768,1669832246094,salad w chicken,roastedpotatoes,6.69,6.37,-0.3200000000000003,,roastedpotatoes,i,644.4000000953674,645,True,128488.10000014305,1150.4000000953674,1669832247244,1150,645.2000000476837,HRV,HRV_0196,2022-11-30 18:23:13
82,"[{'imgObject': {}, 'id': 'ice cream sundae 002', 'src': '/static/foodstim60/ice cream sundae 002.jpg', 'key': 'u', 'origWidth': 409, 'origHeight': 409, 'width': 409, 'height': 409, 'widthPercent': 0.45, 'rescaleHeight': False, 'trialN': 82, 'loaded': True, 'loadedTime': 128489.90000009537, 'positionName': 'LEFT', 'positionCoords': [334.52, 220.5], 'bid': 8.13}, {'imgObject': {}, 'id': 'turkeysandwich', 'src': '/static/foodstim60/turkeysandwich.jpg', 'key': 'i', 'origWidth': 409, 'origHeight': 409, 'width': 409, 'height': 409, 'widthPercent': 0.45, 'rescaleHeight': False, 'trialN': 82, 'loaded': True, 'loadedTime': 128492.20000004768, 'positionName': 'RIGHT', 'positionCoords': [805.48, 220.5], 'bid': 8.05}]",128488.60000014305,1669832247244,ice cream sundae 002,turkeysandwich,8.13,8.05,-0.08000000000000007,,turkeysandwich,i,669.5,671,True,129671.20000004768,1182.5999999046326,1669832248427,1183,670.2999999523163,HRV,HRV_0196,2022-11-30 18:23:13
83,"[{'imgObject': {}, 'id': 'hotdog w must', 'src': '/static/foodstim60/hotdog w must.jpg', 'key': 'u', 'origWidth': 409, 'origHeight': 409, 'width': 409, 'height': 409, 'widthPercent': 0.45, 'rescaleHeight': False, 'trialN': 83, 'loaded': True, 'loadedTime': 129675.20000004768, 'positionName': 'LEFT', 'positionCoords': [334.52, 220.5], 'bid': 8.89}, {'imgObject': {}, 'id': 'burger', 'src': '/static/foodstim60/burger.jpg', 'key': 'i', 'origWidth': 409, 'origHeight': 409, 'width': 409, 'height': 409, 'widthPercent': 0.45, 'rescaleHeight': False, 'trialN': 83, 'loaded': True, 'loadedTime': 129678.20000004768, 'positionName': 'RIGHT', 'positionCoords': [805.48, 220.5], 'bid': 7.8}]",129672.40000009537,1669832248428,hotdog w must,burger,8.89,7.8,-1.0900000000000007,,hotdog w must,u,877.0999999046326,878,True,131056.90000009537,1384.5,1669832249813,1385,877.5999999046326,HRV,HRV_0196,2022-11-30 18:23:13
84,"[{'imgObject': {}, 'id': 'raspberries', 'src': '/static/foodstim60/raspberries.jpg', 'key': 'u', 'origWidth': 411, 'origHeight': 411, 'width': 411, 'height': 411, 'widthPercent': 0.45, 'rescaleHeight': False, 'trialN': 84, 'loaded': True, 'loadedTime': 131058.90000009537, 'positionName': 'LEFT', 'positionCoords': [332.52, 219.5], 'bid': 5.67}, {'imgObject': {}, 'id': 'olives', 'src': '/static/foodstim60/olives.jpg', 'key': 'i', 'origWidth': 410, 'origHeight': 410, 'width': 410, 'height': 410, 'widthPercent': 0.45, 'rescaleHeight': False, 'trialN': 84, 'loaded': True, 'loadedTime': 131062.5, 'positionName': 'RIGHT', 'positionCoords': [805.48, 220], 'bid': 0.64}]",131057.40000009537,1669832249813,raspberries,olives,5.67,0.64,-5.03,,raspberries,u,628.5999999046326,630,True,132191.29999995232,1133.8999998569489,1669832250947,1134,629.5,HRV,HRV_0196,2022-11-30 18:23:13
85,"[{'imgObject': {}, 'id': 'seaweed', 'src': '/static/foodstim60/seaweed.jpg', 'key': 'u', 'origWidth': 410, 'origHeight': 410, 'width': 410, 'height': 410, 'widthPercent': 0.45, 'rescaleHeight': False, 'trialN': 85, 'loaded': True, 'loadedTime': 132193.29999995232, 'positionName': 'LEFT', 'positionCoords': [333.52, 220], 'bid': 2.75}, {'imgObject': {}, 'id': 'sweetpotato', 'src': '/static/foodstim60/sweetpotato.jpg', 'key': 'i', 'origWidth': 410, 'origHeight': 410, 'width': 410, 'height': 410, 'widthPercent': 0.45, 'rescaleHeight': False, 'trialN': 85, 'loaded': True, 'loadedTime': 132195.79999995232, 'positionName': 'RIGHT', 'positionCoords': [805.48, 220], 'bid': 1.48}]",132191.79999995232,1669832250948,seaweed,sweetpotato,2.75,1.48,-1.27,,seaweed,u,734.1000001430511,735,True,133442.0,1250.2000000476837,1669832252198,1250,735.1000001430511,HRV,HRV_0196,2022-11-30 18:23:13
86,"[{'imgObject': {}, 'id': 'yogurt no spoon', 'src': '/static/foodstim60/yogurt no spoon.jpg', 'key': 'u', 'origWidth': 411, 'origHeight': 410, 'width': 411, 'height': 410, 'widthPercent': 0.45, 'rescaleHeight': False, 'trialN': 86, 'loaded': True, 'loadedTime': 133443.79999995232, 'positionName': 'LEFT', 'positionCoords': [332.52, 220], 'bid': 5.93}, {'imgObject': {}, 'id': 'omelette', 'src': '/static/foodstim60/omelette.jpg', 'key': 'i', 'origWidth': 410, 'origHeight': 409, 'width': 410, 'height': 409, 'widthPercent': 0.45, 'rescaleHeight': False, 'trialN': 86, 'loaded': True, 'loadedTime': 133446, 'positionName': 'RIGHT', 'positionCoords': [805.48, 220.5], 'bid': 7.35}]",133442.40000009537,1669832252198,yogurt no spoon,omelette,5.93,7.35,1.42,,omelette,i,627.7000000476837,628,True,134575.70000004768,1133.2999999523163,1669832253331,1133,628.0,HRV,HRV_0196,2022-11-30 18:23:13
87,"[{'imgObject': {}, 'id': 'shreddedwheatwithmilk', 'src': '/static/foodstim60/shreddedwheatwithmilk.jpg', 'key': 'u', 'origWidth': 410, 'origHeight': 410, 'width': 410, 'height': 410, 'widthPercent': 0.45, 'rescaleHeight': False, 'trialN': 87, 'loaded': True, 'loadedTime': 134578.29999995232, 'positionName': 'LEFT', 'positionCoords': [333.52, 220], 'bid': 6.3100000000000005}, {'imgObject': {}, 'id': 'fried eggs', 'src': '/static/foodstim60/fried eggs.jpg', 'key': 'i', 'origWidth': 410, 'origHeight': 410, 'width': 410, 'height': 410, 'widthPercent': 0.45, 'rescaleHeight': False, 'trialN': 87, 'loaded': True, 'loadedTime': 134581, 'positionName': 'RIGHT', 'positionCoords': [805.48, 220], 'bid': 6.73}]",134576.5,1669832253332,shreddedwheatwithmilk,fried eggs,6.3100000000000005,6.73,0.41999999999999993,,fried eggs,i,732.7000000476837,733,True,135827.5,1251.0,1669832254583,1251,733.2000000476837,HRV,HRV_0196,2022-11-30 18:23:13
88,"[{'imgObject': {}, 'id': 'sushi w_condiments', 'src': '/static/foodstim60/sushi w_condiments.jpg', 'key': 'u', 'origWidth': 410, 'origHeight': 410, 'width': 410, 'height': 410, 'widthPercent': 0.45, 'rescaleHeight': False, 'trialN': 88, 'loaded': True, 'loadedTime': 135831.60000014305, 'positionName': 'LEFT', 'positionCoords': [333.52, 220], 'bid': 1.8}, {'imgObject': {}, 'id': 'Tribe humus pita', 'src': '/static/foodstim60/Tribe humus pita.jpg', 'key': 'i', 'origWidth': 411, 'origHeight': 411, 'width': 411, 'height': 411, 'widthPercent': 0.45, 'rescaleHeight': False, 'trialN': 88, 'loaded': True, 'loadedTime': 135834.10000014305, 'positionName': 'RIGHT', 'positionCoords': [805.48, 219.5], 'bid': 2.07}]",135828.60000014305,1669832254584,sushi w_condiments,Tribe humus pita,1.8,2.07,0.2699999999999998,,sushi w_condiments,u,889.1999998092651,890,True,137227.0,1398.3999998569489,1669832255983,1399,889.6999998092651,HRV,HRV_0196,2022-11-30 18:23:13
89,"[{'imgObject': {}, 'id': 'rigatoni and sauce', 'src': '/static/foodstim60/rigatoni and sauce.jpg', 'key': 'u', 'origWidth': 410, 'origHeight': 411, 'width': 410, 'height': 411, 'widthPercent': 0.45, 'rescaleHeight': False, 'trialN': 89, 'loaded': True, 'loadedTime': 137228.90000009537, 'positionName': 'LEFT', 'positionCoords': [333.52, 219.5], 'bid': 6.05}, {'imgObject': {}, 'id': 'turkey sandwich', 'src': '/static/foodstim60/turkey sandwich.jpg', 'key': 'i', 'origWidth': 409, 'origHeight': 409, 'width': 409, 'height': 409, 'widthPercent': 0.45, 'rescaleHeight': False, 'trialN': 89, 'loaded': True, 'loadedTime': 137232.5, 'positionName': 'RIGHT', 'positionCoords': [805.48, 220.5], 'bid': 7.42}]",137227.60000014305,1669832255984,rigatoni and sauce,turkey sandwich,6.05,7.42,1.37,,turkey sandwich,i,930,930,True,138665.90000009537,1438.2999999523163,1669832257422,1438,930.5999999046326,HRV,HRV_0196,2022-11-30 18:23:13
90,"[{'imgObject': {}, 'id': 'mango', 'src': '/static/foodstim60/mango.jpg', 'key': 'u', 'origWidth': 411, 'origHeight': 411, 'width': 411, 'height': 411, 'widthPercent': 0.45, 'rescaleHeight': False, 'trialN': 90, 'loaded': True, 'loadedTime': 3729.100000143051, 'positionName': 'LEFT', 'positionCoords': [510.6, 334.5], 'bid': 4.41}, {'imgObject': {}, 'id': 'baked potato', 'src': '/static/foodstim60/baked potato.jpg', 'key': 'i', 'origWidth': 409, 'origHeight': 410, 'width': 409, 'height': 410, 'widthPercent': 0.45, 'rescaleHeight': False, 'trialN': 90, 'loaded': True, 'loadedTime': 3730.9000000953674, 'positionName': 'RIGHT', 'positionCoords': [998.4, 335], 'bid': 3.36}]",141917.5,1669832260673,mango,baked potato,4.41,3.36,-1.0500000000000003,"[{'event': 'fullscreenchange', 'details': 'fullscreenenter', 'performance time': 141918.40000009537, 'date time': 1669832260674}, {'event': 'fullscreenchange', 'details': 'fullscreenexit', 'performance time': 143885.90000009537, 'date time': 1669832262646}]",mango,u,2649.600000143051,2655,True,145080.70000004768,3163.2000000476837,1669832263840,3167,2650.7999999523163,HRV,HRV_0196,2022-11-30 18:23:13
91,"[{'imgObject': {}, 'id': 'banana', 'src': '/static/foodstim60/banana.jpg', 'key': 'u', 'origWidth': 410, 'origHeight': 410, 'width': 410, 'height': 410, 'widthPercent': 0.45, 'rescaleHeight': False, 'trialN': 91, 'loaded': True, 'loadedTime': 145084.70000004768, 'positionName': 'LEFT', 'positionCoords': [333.52, 220], 'bid': 5.49}, {'imgObject': {}, 'id': 'rigatoni and sauce', 'src': '/static/foodstim60/rigatoni and sauce.jpg', 'key': 'i', 'origWidth': 410, 'origHeight': 411, 'width': 410, 'height': 411, 'widthPercent': 0.45, 'rescaleHeight': False, 'trialN': 91, 'loaded': True, 'loadedTime': 145087.10000014305, 'positionName': 'RIGHT', 'positionCoords': [805.48, 219.5], 'bid': 6.05}]",145081.70000004768,1669832263841,banana,rigatoni and sauce,5.49,6.05,0.5599999999999996,,rigatoni and sauce,i,596.2000000476837,597,True,146188.79999995232,1107.0999999046326,1669832264948,1107,597.0999999046326,HRV,HRV_0196,2022-11-30 18:23:13
92,"[{'imgObject': {}, 'id': 'salmon', 'src': '/static/foodstim60/salmon.jpg', 'key': 'u', 'origWidth': 410, 'origHeight': 409, 'width': 410, 'height': 409, 'widthPercent': 0.45, 'rescaleHeight': False, 'trialN': 92, 'loaded': True, 'loadedTime': 146193.20000004768, 'positionName': 'LEFT', 'positionCoords': [333.52, 220.5], 'bid': 2.08}, {'imgObject': {}, 'id': 'burrito', 'src': '/static/foodstim60/burrito.jpg', 'key': 'i', 'origWidth': 410, 'origHeight': 410, 'width': 410, 'height': 410, 'widthPercent': 0.45, 'rescaleHeight': False, 'trialN': 92, 'loaded': True, 'loadedTime': 146196.60000014305, 'positionName': 'RIGHT', 'positionCoords': [805.48, 220], 'bid': 4.64}]",146190.0,1669832264950,salmon,burrito,2.08,4.64,2.5599999999999996,,burrito,i,631.5,632,True,147339.79999995232,1149.7999999523163,1669832266099,1149,631.9000000953674,HRV,HRV_0196,2022-11-30 18:23:13
93,"[{'imgObject': {}, 'id': 'tacos', 'src': '/static/foodstim60/tacos.jpg', 'key': 'u', 'origWidth': 411, 'origHeight': 411, 'width': 411, 'height': 411, 'widthPercent': 0.45, 'rescaleHeight': False, 'trialN': 93, 'loaded': True, 'loadedTime': 147341.5, 'positionName': 'LEFT', 'positionCoords': [332.52, 219.5], 'bid': 6}, {'imgObject': {}, 'id': 'bagel and cc', 'src': '/static/foodstim60/bagel and cc.jpg', 'key': 'i', 'origWidth': 410, 'origHeight': 410, 'width': 410, 'height': 410, 'widthPercent': 0.45, 'rescaleHeight': False, 'trialN': 93, 'loaded': True, 'loadedTime': 147344.10000014305, 'positionName': 'RIGHT', 'positionCoords': [805.48, 220], 'bid': 1.62}]",147340.20000004768,1669832266100,tacos,bagel and cc,6.0,1.62,-4.38,,tacos,u,641.7999999523163,643,True,148491.79999995232,1151.5999999046326,1669832267251,1151,642.7000000476837,HRV,HRV_0196,2022-11-30 18:23:13
94,"[{'imgObject': {}, 'id': 'popsicles', 'src': '/static/foodstim60/popsicles.jpg', 'key': 'u', 'origWidth': 410, 'origHeight': 410, 'width': 410, 'height': 410, 'widthPercent': 0.45, 'rescaleHeight': False, 'trialN': 94, 'loaded': True, 'loadedTime': 148496.10000014305, 'positionName': 'LEFT', 'positionCoords': [333.52, 220], 'bid': 7.21}, {'imgObject': {}, 'id': 'orange slices', 'src': '/static/foodstim60/orange slices.jpg', 'key': 'i', 'origWidth': 409, 'origHeight': 410, 'width': 409, 'height': 410, 'widthPercent': 0.45, 'rescaleHeight': False, 'trialN': 94, 'loaded': True, 'loadedTime': 148498.5, 'positionName': 'RIGHT', 'positionCoords': [805.48, 220], 'bid': 5.76}]",148492.90000009537,1669832267253,popsicles,orange slices,7.21,5.76,-1.4500000000000002,,popsicles,u,617.0999999046326,617,True,149625.70000004768,1132.7999999523163,1669832268385,1132,617.8999998569489,HRV,HRV_0196,2022-11-30 18:23:13
95,"[{'imgObject': {}, 'id': 'mango', 'src': '/static/foodstim60/mango.jpg', 'key': 'u', 'origWidth': 411, 'origHeight': 411, 'width': 411, 'height': 411, 'widthPercent': 0.45, 'rescaleHeight': False, 'trialN': 95, 'loaded': True, 'loadedTime': 149629.90000009537, 'positionName': 'LEFT', 'positionCoords': [332.52, 219.5], 'bid': 4.41}, {'imgObject': {}, 'id': 'lox', 'src': '/static/foodstim60/lox.jpg', 'key': 'i', 'origWidth': 410, 'origHeight': 411, 'width': 410, 'height': 411, 'widthPercent': 0.45, 'rescaleHeight': False, 'trialN': 95, 'loaded': True, 'loadedTime': 149632, 'positionName': 'RIGHT', 'positionCoords': [805.48, 219.5], 'bid': 1.97}]",149626.79999995232,1669832268386,mango,lox,4.41,1.97,-2.4400000000000004,,mango,u,594.4000000953674,595,True,150734.5,1107.7000000476837,1669832269494,1108,594.7000000476837,HRV,HRV_0196,2022-11-30 18:23:13
96,"[{'imgObject': {}, 'id': 'corn cob', 'src': '/static/foodstim60/corn cob.jpg', 'key': 'u', 'origWidth': 411, 'origHeight': 411, 'width': 411, 'height': 411, 'widthPercent': 0.45, 'rescaleHeight': False, 'trialN': 96, 'loaded': True, 'loadedTime': 150736.40000009537, 'positionName': 'LEFT', 'positionCoords': [332.52, 219.5], 'bid': 3.39}, {'imgObject': {}, 'id': 'lox', 'src': '/static/foodstim60/lox.jpg', 'key': 'i', 'origWidth': 410, 'origHeight': 411, 'width': 410, 'height': 411, 'widthPercent': 0.45, 'rescaleHeight': False, 'trialN': 96, 'loaded': True, 'loadedTime': 150738.5, 'positionName': 'RIGHT', 'positionCoords': [805.48, 219.5], 'bid': 1.97}]",150734.90000009537,1669832269495,corn cob,lox,3.39,1.97,-1.4200000000000002,,corn cob,u,566.5999999046326,567,True,151811.5,1076.5999999046326,1669832270571,1076,567.0999999046326,HRV,HRV_0196,2022-11-30 18:23:13
97,"[{'imgObject': {}, 'id': 'mashed potato', 'src': '/static/foodstim60/mashed potato.jpg', 'key': 'u', 'origWidth': 409, 'origHeight': 409, 'width': 409, 'height': 409, 'widthPercent': 0.45, 'rescaleHeight': False, 'trialN': 97, 'loaded': True, 'loadedTime': 151816.40000009537, 'positionName': 'LEFT', 'positionCoords': [334.52, 220.5], 'bid': 3.31}, {'imgObject': {}, 'id': 'bagel and cc', 'src': '/static/foodstim60/bagel and cc.jpg', 'key': 'i', 'origWidth': 410, 'origHeight': 410, 'width': 410, 'height': 410, 'widthPercent': 0.45, 'rescaleHeight': False, 'trialN': 97, 'loaded': True, 'loadedTime': 151818.79999995232, 'positionName': 'RIGHT', 'positionCoords': [805.48, 220], 'bid': 1.62}]",151812.90000009537,1669832270573,mashed potato,bagel and cc,3.31,1.62,-1.69,,bagel and cc,i,520.2999999523163,520,True,152846.60000014305,1033.7000000476837,1669832271606,1033,520.7000000476837,HRV,HRV_0196,2022-11-30 18:23:13
98,"[{'imgObject': {}, 'id': 'lox', 'src': '/static/foodstim60/lox.jpg', 'key': 'u', 'origWidth': 410, 'origHeight': 411, 'width': 410, 'height': 411, 'widthPercent': 0.45, 'rescaleHeight': False, 'trialN': 98, 'loaded': True, 'loadedTime': 152848.60000014305, 'positionName': 'LEFT', 'positionCoords': [333.52, 219.5], 'bid': 1.97}, {'imgObject': {}, 'id': 'bagel and cc', 'src': '/static/foodstim60/bagel and cc.jpg', 'key': 'i', 'origWidth': 410, 'origHeight': 410, 'width': 410, 'height': 410, 'widthPercent': 0.45, 'rescaleHeight': False, 'trialN': 98, 'loaded': True, 'loadedTime': 152852.79999995232, 'positionName': 'RIGHT', 'positionCoords': [805.48, 220], 'bid': 1.62}]",152847.0,1669832271607,lox,bagel and cc,1.97,1.62,-0.34999999999999987,,bagel and cc,i,566.7000000476837,567,True,153920.29999995232,1073.2999999523163,1669832272680,1073,567.4000000953674,HRV,HRV_0196,2022-11-30 18:23:13
99,"[{'imgObject': {}, 'id': 'omelette', 'src': '/static/foodstim60/omelette.jpg', 'key': 'u', 'origWidth': 410, 'origHeight': 409, 'width': 410, 'height': 409, 'widthPercent': 0.45, 'rescaleHeight': False, 'trialN': 99, 'loaded': True, 'loadedTime': 153924.90000009537, 'positionName': 'LEFT', 'positionCoords': [333.52, 220.5], 'bid': 7.35}, {'imgObject': {}, 'id': 'mac & cheese', 'src': '/static/foodstim60/mac & cheese.jpg', 'key': 'i', 'origWidth': 410, 'origHeight': 410, 'width': 410, 'height': 410, 'widthPercent': 0.45, 'rescaleHeight': False, 'trialN': 99, 'loaded': True, 'loadedTime': 153929.79999995232, 'positionName': 'RIGHT', 'positionCoords': [805.48, 220], 'bid': 7.4}]",153921.5,1669832272681,omelette,mac & cheese,7.35,7.4,0.05000000000000071,,omelette,u,732.5,733,True,155165.10000014305,1243.6000001430511,1669832273925,1244,732.7999999523163,HRV,HRV_0196,2022-11-30 18:23:13
100,"[{'imgObject': {}, 'id': 'fried eggs', 'src': '/static/foodstim60/fried eggs.jpg', 'key': 'u', 'origWidth': 410, 'origHeight': 410, 'width': 410, 'height': 410, 'widthPercent': 0.45, 'rescaleHeight': False, 'trialN': 100, 'loaded': True, 'loadedTime': 155169.60000014305, 'positionName': 'LEFT', 'positionCoords': [333.52, 220], 'bid': 6.73}, {'imgObject': {}, 'id': 'salad w chicken', 'src': '/static/foodstim60/salad w chicken.jpg', 'key': 'i', 'origWidth': 411, 'origHeight': 411, 'width': 411, 'height': 411, 'widthPercent': 0.45, 'rescaleHeight': False, 'trialN': 100, 'loaded': True, 'loadedTime': 155171.79999995232, 'positionName': 'RIGHT', 'positionCoords': [805.48, 219.5], 'bid': 6.69}]",155166.40000009537,1669832273926,fried eggs,salad w chicken,6.73,6.69,-0.040000000000000036,,salad w chicken,i,655.5999999046326,657,True,156333.29999995232,1166.8999998569489,1669832275093,1167,656.5,HRV,HRV_0196,2022-11-30 18:23:13
101,"[{'imgObject': {}, 'id': 'froot loops w milk', 'src': '/static/foodstim60/froot loops w milk.jpg', 'key': 'u', 'origWidth': 410, 'origHeight': 410, 'width': 410, 'height': 410, 'widthPercent': 0.45, 'rescaleHeight': False, 'trialN': 101, 'loaded': True, 'loadedTime': 156343.79999995232, 'positionName': 'LEFT', 'positionCoords': [333.52, 220], 'bid': 4.25}, {'imgObject': {}, 'id': 'mango', 'src': '/static/foodstim60/mango.jpg', 'key': 'i', 'origWidth': 411, 'origHeight': 411, 'width': 411, 'height': 411, 'widthPercent': 0.45, 'rescaleHeight': False, 'trialN': 101, 'loaded': True, 'loadedTime': 156346.70000004768, 'positionName': 'RIGHT', 'positionCoords': [805.48, 219.5], 'bid': 4.41}]",156334.10000014305,1669832275094,froot loops w milk,mango,4.25,4.41,0.16000000000000014,,mango,i,679.2999999523163,680,True,157519.10000014305,1185.0,1669832276279,1185,679.7999999523163,HRV,HRV_0196,2022-11-30 18:23:13
102,"[{'imgObject': {}, 'id': 'burger', 'src': '/static/foodstim60/burger.jpg', 'key': 'u', 'origWidth': 409, 'origHeight': 409, 'width': 409, 'height': 409, 'widthPercent': 0.45, 'rescaleHeight': False, 'trialN': 102, 'loaded': True, 'loadedTime': 157523.79999995232, 'positionName': 'LEFT', 'positionCoords': [334.52, 220.5], 'bid': 7.8}, {'imgObject': {}, 'id': 'kiwi', 'src': '/static/foodstim60/kiwi.jpg', 'key': 'i', 'origWidth': 410, 'origHeight': 410, 'width': 410, 'height': 410, 'widthPercent': 0.45, 'rescaleHeight': False, 'trialN': 102, 'loaded': True, 'loadedTime': 157528.90000009537, 'positionName': 'RIGHT', 'positionCoords': [805.48, 220], 'bid': 4.48}]",157520.70000004768,1669832276280,burger,kiwi,7.8,4.48,-3.3199999999999994,,burger,u,500.59999990463257,502,True,158535.60000014305,1014.9000000953674,1669832277295,1015,501.09999990463257,HRV,HRV_0196,2022-11-30 18:23:13
103,"[{'imgObject': {}, 'id': 'strawberries', 'src': '/static/foodstim60/strawberries.jpg', 'key': 'u', 'origWidth': 410, 'origHeight': 410, 'width': 410, 'height': 410, 'widthPercent': 0.45, 'rescaleHeight': False, 'trialN': 103, 'loaded': True, 'loadedTime': 158537.60000014305, 'positionName': 'LEFT', 'positionCoords': [333.52, 220], 'bid': 4.65}, {'imgObject': {}, 'id': 'eggsalad', 'src': '/static/foodstim60/eggsalad.jpg', 'key': 'i', 'origWidth': 410, 'origHeight': 409, 'width': 410, 'height': 409, 'widthPercent': 0.45, 'rescaleHeight': False, 'trialN': 103, 'loaded': True, 'loadedTime': 158539.79999995232, 'positionName': 'RIGHT', 'positionCoords': [805.48, 220.5], 'bid': 5.2700000000000005}]",158536.20000004768,1669832277296,strawberries,eggsalad,4.65,5.2700000000000005,0.6200000000000001,,strawberries,u,845.7999999523163,847,True,159888.60000014305,1352.4000000953674,1669832278648,1352,846.9000000953674,HRV,HRV_0196,2022-11-30 18:23:13
104,"[{'imgObject': {}, 'id': 'orange slices', 'src': '/static/foodstim60/orange slices.jpg', 'key': 'u', 'origWidth': 409, 'origHeight': 410, 'width': 409, 'height': 410, 'widthPercent': 0.45, 'rescaleHeight': False, 'trialN': 104, 'loaded': True, 'loadedTime': 159892.79999995232, 'positionName': 'LEFT', 'positionCoords': [334.52, 220], 'bid': 5.76}, {'imgObject': {}, 'id': 'tacos', 'src': '/static/foodstim60/tacos.jpg', 'key': 'i', 'origWidth': 411, 'origHeight': 411, 'width': 411, 'height': 411, 'widthPercent': 0.45, 'rescaleHeight': False, 'trialN': 104, 'loaded': True, 'loadedTime': 159895.5, 'positionName': 'RIGHT', 'positionCoords': [805.48, 219.5], 'bid': 6}]",159889.79999995232,1669832278649,orange slices,tacos,5.76,6.0,0.2400000000000002,,tacos,i,636.2000000476837,638,True,161038.10000014305,1148.3000001907349,1669832279798,1149,637.2000000476837,HRV,HRV_0196,2022-11-30 18:23:13
105,"[{'imgObject': {}, 'id': 'eggs', 'src': '/static/foodstim60/eggs.jpg', 'key': 'u', 'origWidth': 409, 'origHeight': 409, 'width': 409, 'height': 409, 'widthPercent': 0.45, 'rescaleHeight': False, 'trialN': 105, 'loaded': True, 'loadedTime': 161040.29999995232, 'positionName': 'LEFT', 'positionCoords': [334.52, 220.5], 'bid': 8}, {'imgObject': {}, 'id': 'chicken nuggets2', 'src': '/static/foodstim60/chicken nuggets2.jpg', 'key': 'i', 'origWidth': 410, 'origHeight': 409, 'width': 410, 'height': 409, 'widthPercent': 0.45, 'rescaleHeight': False, 'trialN': 105, 'loaded': True, 'loadedTime': 161043, 'positionName': 'RIGHT', 'positionCoords': [805.48, 220.5], 'bid': 8.040000000000001}]",161038.70000004768,1669832279798,eggs,chicken nuggets2,8.0,8.040000000000001,0.040000000000000924,,chicken nuggets2,i,575.4000000953674,577,True,162122.90000009537,1084.2000000476837,1669832280883,1085,576.2000000476837,HRV,HRV_0196,2022-11-30 18:23:13
106,"[{'imgObject': {}, 'id': 'corn cob', 'src': '/static/foodstim60/corn cob.jpg', 'key': 'u', 'origWidth': 411, 'origHeight': 411, 'width': 411, 'height': 411, 'widthPercent': 0.45, 'rescaleHeight': False, 'trialN': 106, 'loaded': True, 'loadedTime': 162127.10000014305, 'positionName': 'LEFT', 'positionCoords': [332.52, 219.5], 'bid': 3.39}, {'imgObject': {}, 'id': 'kiwi', 'src': '/static/foodstim60/kiwi.jpg', 'key': 'i', 'origWidth': 410, 'origHeight': 410, 'width': 410, 'height': 410, 'widthPercent': 0.45, 'rescaleHeight': False, 'trialN': 106, 'loaded': True, 'loadedTime': 162129.60000014305, 'positionName': 'RIGHT', 'positionCoords': [805.48, 220], 'bid': 4.48}]",162124.0,1669832280884,corn cob,kiwi,3.39,4.48,1.0900000000000003,,kiwi,i,722,722,True,163357.5,1233.5,1669832282117,1233,722.7999999523163,HRV,HRV_0196,2022-11-30 18:23:13
107,"[{'imgObject': {}, 'id': 'banana', 'src': '/static/foodstim60/banana.jpg', 'key': 'u', 'origWidth': 410, 'origHeight': 410, 'width': 410, 'height': 410, 'widthPercent': 0.45, 'rescaleHeight': False, 'trialN': 107, 'loaded': True, 'loadedTime': 163359.40000009537, 'positionName': 'LEFT', 'positionCoords': [333.52, 220], 'bid': 5.49}, {'imgObject': {}, 'id': 'steak', 'src': '/static/foodstim60/steak.jpg', 'key': 'i', 'origWidth': 410, 'origHeight': 410, 'width': 410, 'height': 410, 'widthPercent': 0.45, 'rescaleHeight': False, 'trialN': 107, 'loaded': True, 'loadedTime': 163360.90000009537, 'positionName': 'RIGHT', 'positionCoords': [805.48, 220], 'bid': 6.36}]",163358.10000014305,1669832282118,banana,steak,5.49,6.36,0.8700000000000001,,steak,i,943.3999998569489,944,True,164809.79999995232,1451.6999998092651,1669832283569,1451,943.8999998569489,HRV,HRV_0196,2022-11-30 18:23:13
