success,trial_type,trial_index,time_elapsed,internal_node_id,missTrial,missTrialMsg,Block,TrialNumber,TrialTime,trialTimeDiff,FPS_avg,FPS_med,FPS_mode,TrialDur,winResizeTime,rt,block,button_pressed,MotCoh,MotDir,ColCoh,Color,ChoiceKey,Choice,Accuracy,RT,nFrames,FPS,PPD,onsetDelay,fullScreenExitTime,canvCenter,TrialType,Score,BlockTrial,stimulus,button_labels,exp,subjectId,date
True,fullscreen,0,23491,0.0-0.0,True,undefinedblurEvent ,0.0,0.0,,,,,,,,,,,,,,,,,,,,,,,,,,,,,,HRV,HRV_0231,2022-11-30 19:49:50
,wl-check-fps,1,35903,0.0-1.0,,,0.0,1.0,"[31542.7, 31558.7, 31575, 31591.9, 31608.8, 31625, 31642, 31658.9, 31675.2, 31692.2, 31709, 31724.8, 31741.9, 31758.8, 31774.9, 31792.1, 31808.7, 31825.6, 31842.1, 31859, 31875.7, 31894, 31910.8, 31927.7, 31944.9, 31961.5, 31978.1, 31994.8, 32009.9, 32031, 32047.7, 32062, 32076.7, 32097.6, 32129.6, 32161.9, 32170.1, 32180.2, 32193.6, 32209.2, 32226.8, 32242.9, 32260.3, 32275.3, 32292.7, 32309.6, 32325.9, 32342.9, 32359.8, 32377, 32393, 32409.8, 32426.9, 32443.5, 32460.1, 32477.4, 32493.5, 32510.5, 32526.4, 32543.4, 32559.7, 32576.5, 32593.5, 32609.7, 32653.2, 32658.7, 32687.4, 32700.2, 32711.2, 32726.9, 32743.6, 32759.8, 32777.6, 32794, 32810.7, 32826.8, 32843.5, 32860.4, 32876.6, 32893.4, 32911.6, 32926.7, 32943.5, 32960.4, 32976.8, 32993.5, 33009.4, 33026.4, 33043.4, 33059.5, 33076.7, 33094.4, 33110.4, 33126.7, 33143.8, 33161.1, 33176.3, 33193.6, 33210.3, 33226.7, 33244, 33260.3, 33276.7, 33293.8, 33309.9, 33327.1, 33343.9, 33359.9, 33377.1, 33394.1, 33410.9, 33427.1, 33444, 33460.9, 33477.8, 33493.9, 33510.8, 33527, 33544, 33559.8, 33577.1, 33594.1, 33610.8, 33627.1, 33643.9, 33660.6, 33676.7, 33694.5, 33711.7, 33727.9, 33744.8, 33760.7, 33778, 33794.7, 33811.7, 33827.8, 33844.2, 33861.4, 33878.3, 33894.4, 33910.4, 33928.5, 33944.9, 33961.5, 33977.7, 33994.4, 34011.4, 34027.6, 34044.4, 34061.3, 34078, 34093.8, 34111.1, 34127.8, 34144.8, 34161.8, 34178.8, 34194.7, 34211, 34227.9, 34244.7, 34261.8, 34278.7, 34294.8, 34311.3, 34328, 34343.9, 34361.9, 34378.8, 34393.9, 34411.9, 34428, 34444.9, 34461.1, 34479.1, 34495.9, 34511.1, 34528.1, 34545.8, 34561.9, 34578.1, 34596, 34611, 34628.2, 34645, 34661, 34678.2, 34695.3, 34711, 34729, 34744.7, 34761.8, 34778.2, 34794.9, 34811.8, 34827.9, 34845, 34862.8, 34877.9, 34895, 34911.9, 34927.8, 34945.2, 34961.9, 34979.8, 34995, 35011.8, 35028.7, 35045.8, 35062.8, 35079.7, 35095.7, 35112, 35128.9, 35145.8, 35162.4, 35179.3, 35196.4, 35212.4, 35228.7, 35245.5, 35263.4, 35278.4, 35295.5, 35312.4, 35328.7, 35345.6, 35363.3, 35379.4, 35395.7, 35412.6, 35428.9, 35445.7, 35462.6, 35478.8, 35495.7, 35513.7, 35529, 35546.6, 35563.6, 35578.9, 35596, 35612.8, 35629.7, 35646.1, 35663.7, 35678.9, 35696.2, 35713.7, 35729.9, 35746, 35762.3, 35780.6, 35795.8, 35812.8, 35829.9, 35846.1, 35863.7, 35879.8, 35896.1, 35913.5, 35929.6, 35945.7, 35962.8, 35979.8, 35996.1, 36013.7, 36030.7, 36046.1, 36063.8, 36079.7, 36096, 36113.7, 36129.8, 36146.8, 36163.1, 36179.9, 36196.1, 36213.3, 36230, 36246.8, 36263.7, 36280.7, 36297.7, 36313.7, 36329.9, 36347.5, 36362.7, 36379.8, 36396.8, 36412.5, 36430.2, 36447.1, 36467.7, 36480.2, 36497.2, 36513.3, 36530.2, 36547, 36563.5]","[17, 16, 16.3, 16.9, 16.9, 16.2, 17, 16.9, 16.3, 17, 16.8, 15.8, 17.1, 16.9, 16.1, 17.2, 16.6, 16.9, 16.5, 16.9, 16.7, 18.3, 16.8, 16.9, 17.2, 16.6, 16.6, 16.7, 15.1, 21.1, 16.7, 14.3, 14.7, 20.9, 32, 32.3, 8.2, 10.1, 13.4, 15.6, 17.6, 16.1, 17.4, 15, 17.4, 16.9, 16.3, 17, 16.9, 17.2, 16, 16.8, 17.1, 16.6, 16.6, 17.3, 16.1, 17, 15.9, 17, 16.3, 16.8, 17, 16.2, 43.5, 5.5, 28.7, 12.8, 11, 15.7, 16.7, 16.2, 17.8, 16.4, 16.7, 16.1, 16.7, 16.9, 16.2, 16.8, 18.2, 15.1, 16.8, 16.9, 16.4, 16.7, 15.9, 17, 17, 16.1, 17.2, 17.7, 16, 16.3, 17.1, 17.3, 15.2, 17.3, 16.7, 16.4, 17.3, 16.3, 16.4, 17.1, 16.1, 17.2, 16.8, 16, 17.2, 17, 16.8, 16.2, 16.9, 16.9, 16.9, 16.1, 16.9, 16.2, 17, 15.8, 17.3, 17, 16.7, 16.3, 16.8, 16.7, 16.1, 17.8, 17.2, 16.2, 16.9, 15.9, 17.3, 16.7, 17, 16.1, 16.4, 17.2, 16.9, 16.1, 16, 18.1, 16.4, 16.6, 16.2, 16.7, 17, 16.2, 16.8, 16.9, 16.7, 15.8, 17.3, 16.7, 17, 17, 17, 15.9, 16.3, 16.9, 16.8, 17.1, 16.9, 16.1, 16.5, 16.7, 15.9, 18, 16.9, 15.1, 18, 16.1, 16.9, 16.2, 18, 16.8, 15.2, 17, 17.7, 16.1, 16.2, 17.9, 15, 17.2, 16.8, 16, 17.2, 17.1, 15.7, 18, 15.7, 17.1, 16.4, 16.7, 16.9, 16.1, 17.1, 17.8, 15.1, 17.1, 16.9, 15.9, 17.4, 16.7, 17.9, 15.2, 16.8, 16.9, 17.1, 17, 16.9, 16, 16.3, 16.9, 16.9, 16.6, 16.9, 17.1, 16, 16.3, 16.8, 17.9, 15, 17.1, 16.9, 16.3, 16.9, 17.7, 16.1, 16.3, 16.9, 16.3, 16.8, 16.9, 16.2, 16.9, 18, 15.3, 17.6, 17, 15.3, 17.1, 16.8, 16.9, 16.4, 17.6, 15.2, 17.3, 17.5, 16.2, 16.1, 16.3, 18.3, 15.2, 17, 17.1, 16.2, 17.6, 16.1, 16.3, 17.4, 16.1, 16.1, 17.1, 17, 16.3, 17.6, 17, 15.4, 17.7, 15.9, 16.3, 17.7, 16.1, 17, 16.3, 16.8, 16.2, 17.2, 16.7, 16.8, 16.9, 17, 17, 16, 16.2, 17.6, 15.2, 17.1, 17, 15.7, 17.7, 16.9, 20.6, 12.5, 17, 16.1, 16.9, 16.8, 16.5]",60.0,60.0,59.0,5054.6,[],,,,,,,,,,,,,,,,,,,,,,,HRV,HRV_0231,2022-11-30 19:49:50
,wl-html-keyboard-response,2,45954,0.0-2.0-0.0,,,0.0,2.0,,,,,,,,8043.300000190735,0.0,0,,,,,,,,,,,,,,,,,,,,HRV,HRV_0231,2022-11-30 19:49:50
,wl-rdm,3,53236,0.0-3.0-0.0,False,,0.0,3.0,,,,,,,[],,,,0.0,0.0,87.9,0.0,u,0.0,True,1716.7999999523163,103.0,59.0,40.0,3000.0,[],"[960, 540]",ColorTask_Demo,,,,,HRV,HRV_0231,2022-11-30 19:49:50
,wl-rdm,4,58658,0.0-3.0-1.0,False,,0.0,4.0,,,,,,,[],,,,0.0,0.0,87.9,1.0,i,1.0,True,1367.5,82.0,59.0,40.0,2000.0,[],"[960, 540]",ColorTask_Demo,,,,,HRV,HRV_0231,2022-11-30 19:49:50
,wl-html-keyboard-response,5,89499,0.0-3.0-2.0,True,undefinedblurEvent ,0.0,4.0,,,,,,,,28833.200000047684,0.0,1,,,,,,,,,,,,,,,,,,,,HRV,HRV_0231,2022-11-30 19:49:50
,wl-html-keyboard-response,6,97043,0.0-4.0-0.0,,,0.0,5.0,,,,,,,,5539.099999904633,0.0,0,,,,,,,,,,,,,,,,,,,,HRV,HRV_0231,2022-11-30 19:49:50
,wl-html-keyboard-response,7,106275,0.0-5.0-0.0,,,0.0,6.0,,,,,,,,7229.200000047684,0.0,0,,,,,,,,,,,,,,,,,,,,HRV,HRV_0231,2022-11-30 19:49:50
,wl-rdm,8,108675,0.0-6.0-0.0,False,,0.0,7.0,,,,,,,[],,,,,,73.6,0.0,u,0.0,True,946.7999999523163,55.0,59.0,40.0,388.310869531512,[],"[960, 540]",ColorTask,1.0,1.0,,,HRV,HRV_0231,2022-11-30 19:49:50
,wl-rdm,9,111193,0.0-6.1-0.1,False,,0.0,8.0,,,,,,,[],,,,,,62.5,1.0,i,1.0,True,1149.2000000476837,69.0,59.0,40.0,301.47521990614666,[],"[960, 540]",ColorTask,2.0,2.0,,,HRV,HRV_0231,2022-11-30 19:49:50
,wl-rdm,10,113364,0.0-6.2-0.2,False,,0.0,9.0,,,,,,,[],,,,,,87.9,1.0,i,1.0,True,862.8999998569489,52.0,59.0,40.0,237.35948194933007,[],"[960, 540]",ColorTask,3.0,3.0,,,HRV,HRV_0231,2022-11-30 19:49:50
,wl-rdm,11,115349,0.0-6.3-0.3,False,,0.0,10.0,,,,,,,[],,,,,,87.9,0.0,u,0.0,True,588.7999999523163,36.0,59.0,40.0,319.64906936352645,[],"[960, 540]",ColorTask,4.0,4.0,,,HRV,HRV_0231,2022-11-30 19:49:50
,wl-rdm,12,117273,0.0-6.4-0.4,False,,0.0,11.0,,,,,,,[],,,,,,62.5,1.0,i,1.0,True,613.8999998569489,38.0,59.0,40.0,239.72225566315848,[],"[960, 540]",ColorTask,5.0,5.0,,,HRV,HRV_0231,2022-11-30 19:49:50
,wl-rdm,13,119252,0.0-6.5-0.5,False,,0.0,12.0,,,,,,,[],,,,,,73.6,0.0,i,1.0,False,593.6999998092651,36.0,59.0,40.0,325.55972040964303,[],"[960, 540]",ColorTask,4.0,6.0,,,HRV,HRV_0231,2022-11-30 19:49:50
,wl-rdm,14,121487,0.0-6.6-0.6,False,,0.0,13.0,,,,,,,[],,,,,,50.0,1.0,u,0.0,False,889.2000000476837,54.0,59.0,40.0,256.0059503999375,[],"[960, 540]",ColorTask,3.0,7.0,,,HRV,HRV_0231,2022-11-30 19:49:50
,wl-rdm,15,123673,0.0-6.7-0.7,False,,0.0,14.0,,,,,,,[],,,,,,56.4,0.0,u,0.0,True,814.3000001907349,49.0,59.0,40.0,306.5824550623875,[],"[960, 540]",ColorTask,4.0,8.0,,,HRV,HRV_0231,2022-11-30 19:49:50
,wl-rdm,16,125860,0.0-6.8-0.8,False,,0.0,15.0,,,,,,,[],,,,,,87.9,1.0,i,1.0,True,776.1000001430511,46.0,59.0,40.0,334.1259437356258,[],"[960, 540]",ColorTask,5.0,9.0,,,HRV,HRV_0231,2022-11-30 19:49:50
,wl-rdm,17,128161,0.0-6.9-0.9,False,,0.0,16.0,,,,,,,[],,,,,,56.4,1.0,i,1.0,True,974.0999999046326,59.0,59.0,40.0,254.12178323932955,[],"[960, 540]",ColorTask,6.0,10.0,,,HRV,HRV_0231,2022-11-30 19:49:50
,wl-rdm,18,130078,0.0-6.10-0.10,False,,0.0,17.0,,,,,,,[],,,,,,87.9,0.0,u,0.0,True,641.1999998092651,39.0,59.0,40.0,215.1640736380757,[],"[960, 540]",ColorTask,7.0,11.0,,,HRV,HRV_0231,2022-11-30 19:49:50
,wl-rdm,19,132281,0.0-6.11-0.11,False,,0.0,18.0,,,,,,,[],,,,,,53.2,0.0,i,1.0,False,760.0,45.0,59.0,40.0,362.6962978475138,[],"[960, 540]",ColorTask,6.0,12.0,,,HRV,HRV_0231,2022-11-30 19:49:50
,wl-rdm,20,134574,0.0-6.12-0.12,False,,0.0,19.0,,,,,,,[],,,,,,56.4,0.0,u,0.0,True,949.9000000953674,58.0,59.0,40.0,265.42096462651494,[],"[960, 540]",ColorTask,7.0,13.0,,,HRV,HRV_0231,2022-11-30 19:49:50
,wl-rdm,21,136796,0.0-6.13-0.13,False,,0.0,20.0,,,,,,,[],,,,,,50.0,0.0,i,1.0,False,823.2000000476837,48.0,59.0,40.0,314.0198848690546,[],"[960, 540]",ColorTask,6.0,14.0,,,HRV,HRV_0231,2022-11-30 19:49:50
,wl-rdm,22,139021,0.0-6.14-0.14,False,,0.0,21.0,,,,,,,[],,,,,,50.0,1.0,i,1.0,True,904.2000000476837,55.0,59.0,40.0,265.5379543352681,[],"[960, 540]",ColorTask,7.0,15.0,,,HRV,HRV_0231,2022-11-30 19:49:50
,wl-rdm,23,141707,0.0-6.15-0.15,False,,0.0,22.0,,,,,,,[],,,,,,50.0,1.0,u,0.0,False,1357.3999998569489,82.0,59.0,40.0,255.53111853674181,[],"[960, 540]",ColorTask,6.0,16.0,,,HRV,HRV_0231,2022-11-30 19:49:50
,wl-rdm,24,143828,0.0-6.16-0.16,False,,0.0,23.0,,,,,,,[],,,,,,73.6,1.0,i,1.0,True,821.2999999523163,50.0,59.0,40.0,228.25339237212157,[],"[960, 540]",ColorTask,7.0,17.0,,,HRV,HRV_0231,2022-11-30 19:49:50
,wl-rdm,25,146116,0.0-6.17-0.17,False,,0.0,24.0,,,,,,,[],,,,,,87.9,0.0,u,0.0,True,1010.0,60.0,59.0,40.0,204.7642114987622,[],"[960, 540]",ColorTask,8.0,18.0,,,HRV,HRV_0231,2022-11-30 19:49:50
,wl-rdm,26,148385,0.0-6.18-0.18,False,,0.0,25.0,,,,,,,[],,,,,,56.4,0.0,u,0.0,True,934.9999997615814,56.0,59.0,40.0,248.37789934200282,[],"[960, 540]",ColorTask,9.0,19.0,,,HRV,HRV_0231,2022-11-30 19:49:50
,wl-rdm,27,150422,0.0-6.19-0.19,False,,0.0,26.0,,,,,,,[],,,,,,73.6,0.0,u,0.0,True,667.0999999046326,41.0,59.0,40.0,292.82494438542386,[],"[960, 540]",ColorTask,10.0,20.0,,,HRV,HRV_0231,2022-11-30 19:49:50
,wl-rdm,28,152801,0.0-6.20-0.20,False,,0.0,27.0,,,,,,,[],,,,,,53.2,0.0,i,1.0,False,1089.2000000476837,66.0,59.0,40.0,224.47392122181589,[],"[960, 540]",ColorTask,9.0,21.0,,,HRV,HRV_0231,2022-11-30 19:49:50
,wl-rdm,29,155120,0.0-6.21-0.21,False,,0.0,28.0,,,,,,,[],,,,,,53.2,1.0,i,1.0,True,842.3000001907349,51.0,59.0,40.0,393.1517597614861,[],"[960, 540]",ColorTask,10.0,22.0,,,HRV,HRV_0231,2022-11-30 19:49:50
,wl-rdm,30,157639,0.0-6.22-0.22,False,,0.0,29.0,,,,,,,[],,,,,,56.4,1.0,i,1.0,True,1106.6000001430511,67.0,59.0,40.0,341.14826325409206,[],"[960, 540]",ColorTask,11.0,23.0,,,HRV,HRV_0231,2022-11-30 19:49:50
,wl-rdm,31,160009,0.0-6.23-0.23,False,,0.0,30.0,,,,,,,[],,,,,,56.4,1.0,i,1.0,True,997.7000000476837,60.0,59.0,40.0,297.42187622678034,[],"[960, 540]",ColorTask,12.0,24.0,,,HRV,HRV_0231,2022-11-30 19:49:50
,wl-rdm,32,162144,0.0-6.24-0.24,False,,0.0,31.0,,,,,,,[],,,,,,56.4,1.0,i,1.0,True,789.5,48.0,59.0,40.0,267.7309293441349,[],"[960, 540]",ColorTask,13.0,25.0,,,HRV,HRV_0231,2022-11-30 19:49:50
,wl-rdm,33,164530,0.0-6.25-0.25,False,,0.0,32.0,,,,,,,[],,,,,,50.0,0.0,u,0.0,True,923.0999999046326,56.0,59.0,40.0,381.4440036894854,[],"[960, 540]",ColorTask,14.0,26.0,,,HRV,HRV_0231,2022-11-30 19:49:50
,wl-rdm,34,167183,0.0-6.26-0.26,False,,0.0,33.0,,,,,,,[],,,,,,50.0,1.0,i,1.0,True,1339.5000002384186,79.0,59.0,40.0,246.7086326493495,[],"[960, 540]",ColorTask,15.0,27.0,,,HRV,HRV_0231,2022-11-30 19:49:50
,wl-rdm,35,169150,0.0-6.27-0.27,False,,0.0,34.0,,,,,,,[],,,,,,73.6,1.0,i,1.0,True,645.0,39.0,59.0,40.0,263.97650673764014,[],"[960, 540]",ColorTask,16.0,28.0,,,HRV,HRV_0231,2022-11-30 19:49:50
,wl-rdm,36,171239,0.0-6.28-0.28,False,,0.0,35.0,,,,,,,[],,,,,,73.6,1.0,i,1.0,True,719.0000002384186,43.0,59.0,40.0,295.23891647102425,[],"[960, 540]",ColorTask,17.0,29.0,,,HRV,HRV_0231,2022-11-30 19:49:50
,wl-rdm,37,173889,0.0-6.29-0.29,False,,0.0,36.0,,,,,,,[],,,,,,73.6,0.0,u,0.0,True,1262.3999998569489,77.0,59.0,40.0,320.8360230258158,[],"[960, 540]",ColorTask,18.0,30.0,,,HRV,HRV_0231,2022-11-30 19:49:50
,wl-rdm,38,175975,0.0-6.30-0.30,False,,0.0,37.0,,,,,,,[],,,,,,73.6,1.0,i,1.0,True,679.3999998569489,39.0,59.0,40.0,328.302773106259,[],"[960, 540]",ColorTask,19.0,31.0,,,HRV,HRV_0231,2022-11-30 19:49:50
,wl-rdm,39,178209,0.0-6.31-0.31,False,,0.0,38.0,,,,,,,[],,,,,,53.2,0.0,i,1.0,False,875.8999998569489,52.0,59.0,40.0,305.8119225413494,[],"[960, 540]",ColorTask,18.0,32.0,,,HRV,HRV_0231,2022-11-30 19:49:50
,wl-rdm,40,180062,0.0-6.32-0.32,False,,0.0,39.0,,,,,,,[],,,,,,73.6,1.0,i,1.0,True,560.8999998569489,34.0,59.0,40.0,222.76022204373325,[],"[960, 540]",ColorTask,19.0,33.0,,,HRV,HRV_0231,2022-11-30 19:49:50
,wl-rdm,41,182197,0.0-6.33-0.33,False,,0.0,40.0,,,,,,,[],,,,,,62.5,0.0,u,0.0,True,830.2999999523163,50.0,59.0,40.0,237.41654606423702,[],"[960, 540]",ColorTask,20.0,34.0,,,HRV,HRV_0231,2022-11-30 19:49:50
,wl-rdm,42,184566,0.0-6.34-0.34,False,,0.0,41.0,,,,,,,[],,,,,,50.0,0.0,i,1.0,False,1054.0999999046326,63.0,59.0,40.0,249.25592079744803,[],"[960, 540]",ColorTask,19.0,35.0,,,HRV,HRV_0231,2022-11-30 19:49:50
,wl-rdm,43,186685,0.0-6.35-0.35,False,,0.0,42.0,,,,,,,[],,,,,,87.9,0.0,u,0.0,True,651.0,39.0,59.0,40.0,399.18320406480973,[],"[960, 540]",ColorTask,20.0,36.0,,,HRV,HRV_0231,2022-11-30 19:49:50
,wl-rdm,44,188753,0.0-6.36-0.36,False,,0.0,43.0,,,,,,,[],,,,,,50.0,1.0,i,1.0,True,784.1000001430511,47.0,59.0,40.0,204.29050021792267,[],"[960, 540]",ColorTask,21.0,37.0,,,HRV,HRV_0231,2022-11-30 19:49:50
,wl-rdm,45,190925,0.0-6.37-0.37,False,,0.0,44.0,,,,,,,[],,,,,,62.5,1.0,i,1.0,True,787.3999998569489,45.0,59.0,40.0,311.7029413633994,[],"[960, 540]",ColorTask,22.0,38.0,,,HRV,HRV_0231,2022-11-30 19:49:50
,wl-rdm,46,193226,0.0-6.38-0.38,False,,0.0,45.0,,,,,,,[],,,,,,53.2,1.0,i,1.0,True,842.1000001430511,49.0,59.0,40.0,395.05743535634554,[],"[960, 540]",ColorTask,23.0,39.0,,,HRV,HRV_0231,2022-11-30 19:49:50
,wl-rdm,47,195477,0.0-6.39-0.39,False,,0.0,46.0,,,,,,,[],,,,,,50.0,1.0,i,1.0,True,863.5,51.0,59.0,40.0,302.0972668187489,[],"[960, 540]",ColorTask,24.0,40.0,,,HRV,HRV_0231,2022-11-30 19:49:50
,wl-rdm,48,198013,0.0-6.40-0.40,False,,0.0,47.0,,,,,,,[],,,,,,53.2,0.0,i,1.0,False,1189.9999997615814,72.0,59.0,40.0,262.1771515635895,[],"[960, 540]",ColorTask,23.0,41.0,,,HRV,HRV_0231,2022-11-30 19:49:50
,wl-rdm,49,200750,0.0-6.41-0.41,False,,0.0,48.0,,,,,,,[],,,,,,53.2,1.0,i,1.0,True,1379.2999999523163,80.0,59.0,40.0,280.4757279689457,[],"[960, 540]",ColorTask,24.0,42.0,,,HRV,HRV_0231,2022-11-30 19:49:50
,wl-rdm,50,203652,0.0-6.42-0.42,False,,0.0,49.0,,,,,,,[],,,,,,53.2,1.0,u,0.0,False,1438.2999999523163,87.0,59.0,40.0,380.42355614469466,[],"[960, 540]",ColorTask,23.0,43.0,,,HRV,HRV_0231,2022-11-30 19:49:50
,wl-rdm,51,205720,0.0-6.43-0.43,False,,0.0,50.0,,,,,,,[],,,,,,73.6,1.0,i,1.0,True,789.6999998092651,48.0,59.0,40.0,201.57550928082495,[],"[960, 540]",ColorTask,24.0,44.0,,,HRV,HRV_0231,2022-11-30 19:49:50
,wl-rdm,52,208008,0.0-6.44-0.44,False,,0.0,51.0,,,,,,,[],,,,,,62.5,0.0,u,0.0,True,990.5999999046326,58.0,59.0,40.0,230.2885058830523,[],"[960, 540]",ColorTask,25.0,45.0,,,HRV,HRV_0231,2022-11-30 19:49:50
,wl-rdm,53,210224,0.0-6.45-0.45,False,,0.0,52.0,,,,,,,[],,,,,,50.0,0.0,u,0.0,True,924.1000001430511,56.0,59.0,40.0,217.96119650134264,[],"[960, 540]",ColorTask,26.0,46.0,,,HRV,HRV_0231,2022-11-30 19:49:50
,wl-rdm,54,212210,0.0-6.46-0.46,False,,0.0,53.0,,,,,,,[],,,,,,73.6,1.0,i,1.0,True,697.5,42.0,59.0,40.0,224.7591185142711,[],"[960, 540]",ColorTask,27.0,47.0,,,HRV,HRV_0231,2022-11-30 19:49:50
,wl-rdm,55,214302,0.0-6.47-0.47,False,,0.0,54.0,,,,,,,[],,,,,,73.6,0.0,u,0.0,True,741.5,45.0,59.0,40.0,268.51329851955586,[],"[960, 540]",ColorTask,28.0,48.0,,,HRV,HRV_0231,2022-11-30 19:49:50
,wl-rdm,56,216335,0.0-6.48-0.48,False,,0.0,55.0,,,,,,,[],,,,,,73.6,0.0,u,0.0,True,747.5,45.0,59.0,40.0,220.80262511816147,[],"[960, 540]",ColorTask,29.0,49.0,,,HRV,HRV_0231,2022-11-30 19:49:50
,wl-rdm,57,218267,0.0-6.49-0.49,False,,0.0,56.0,,,,,,,[],,,,,,62.5,0.0,i,1.0,False,631.2999999523163,38.0,59.0,40.0,218.13667323910505,[],"[960, 540]",ColorTask,28.0,50.0,,,HRV,HRV_0231,2022-11-30 19:49:50
,wl-rdm,58,220268,0.0-6.50-0.50,False,,0.0,57.0,,,,,,,[],,,,,,87.9,0.0,u,0.0,True,607.0999999046326,37.0,59.0,40.0,330.88657134939683,[],"[960, 540]",ColorTask,29.0,51.0,,,HRV,HRV_0231,2022-11-30 19:49:50
,wl-rdm,59,222270,0.0-6.51-0.51,False,,0.0,58.0,,,,,,,[],,,,,,62.5,1.0,i,1.0,True,663.0,40.0,59.0,40.0,282.44834786399167,[],"[960, 540]",ColorTask,30.0,52.0,,,HRV,HRV_0231,2022-11-30 19:49:50
,wl-rdm,60,224290,0.0-6.52-0.52,False,,0.0,59.0,,,,,,,[],,,,,,87.9,1.0,i,1.0,True,697.2999999523163,42.0,59.0,40.0,237.99326239905662,[],"[960, 540]",ColorTask,31.0,53.0,,,HRV,HRV_0231,2022-11-30 19:49:50
,wl-rdm,61,226199,0.0-6.53-0.53,False,,0.0,60.0,,,,,,,[],,,,,,62.5,1.0,i,1.0,True,574.3000001907349,34.0,59.0,40.0,256.47385389075015,[],"[960, 540]",ColorTask,32.0,54.0,,,HRV,HRV_0231,2022-11-30 19:49:50
,wl-rdm,62,228259,0.0-6.54-0.54,False,,0.0,61.0,,,,,,,[],,,,,,62.5,1.0,i,1.0,True,773.0999999046326,47.0,59.0,40.0,207.1077143247744,[],"[960, 540]",ColorTask,33.0,55.0,,,HRV,HRV_0231,2022-11-30 19:49:50
,wl-rdm,63,230227,0.0-6.55-0.55,False,,0.0,62.0,,,,,,,[],,,,,,53.2,1.0,i,1.0,True,640.1000001430511,39.0,59.0,40.0,266.3881631648135,[],"[960, 540]",ColorTask,34.0,56.0,,,HRV,HRV_0231,2022-11-30 19:49:50
,wl-rdm,64,232282,0.0-6.56-0.56,False,,0.0,63.0,,,,,,,[],,,,,,87.9,1.0,i,1.0,True,626.1999998092651,38.0,59.0,40.0,349.3040357890807,[],"[960, 540]",ColorTask,35.0,57.0,,,HRV,HRV_0231,2022-11-30 19:49:50
,wl-rdm,65,234305,0.0-6.57-0.57,False,,0.0,64.0,,,,,,,[],,,,,,87.9,0.0,u,0.0,True,668.9999997615814,37.0,59.0,40.0,286.9850028216884,[],"[960, 540]",ColorTask,36.0,58.0,,,HRV,HRV_0231,2022-11-30 19:49:50
,wl-rdm,66,236417,0.0-6.58-0.58,False,,0.0,65.0,,,,,,,[],,,,,,50.0,0.0,i,1.0,False,838.6999998092651,51.0,59.0,40.0,204.46995870733076,[],"[960, 540]",ColorTask,35.0,59.0,,,HRV,HRV_0231,2022-11-30 19:49:50
,wl-rdm,67,238503,0.0-6.59-0.59,False,,0.0,66.0,,,,,,,[],,,,,,73.6,0.0,u,0.0,True,814.2000000476837,49.0,59.0,40.0,215.35772364523388,[],"[960, 540]",ColorTask,36.0,60.0,,,HRV,HRV_0231,2022-11-30 19:49:50
,wl-rdm,68,240589,0.0-6.60-0.60,False,,0.0,67.0,,,,,,,[],,,,,,56.4,0.0,i,1.0,False,631.9999997615814,38.0,59.0,40.0,380.90205025652756,[],"[960, 540]",ColorTask,35.0,61.0,,,HRV,HRV_0231,2022-11-30 19:49:50
,wl-rdm,69,242808,0.0-6.61-0.61,False,,0.0,68.0,,,,,,,[],,,,,,53.2,0.0,u,0.0,True,823.3999998569489,49.0,59.0,40.0,306.4139084779044,[],"[960, 540]",ColorTask,36.0,62.0,,,HRV,HRV_0231,2022-11-30 19:49:50
,wl-rdm,70,244759,0.0-6.62-0.62,False,,0.0,69.0,,,,,,,[],,,,,,87.9,1.0,i,1.0,True,596.1000001430511,36.0,59.0,40.0,297.1714475634357,[],"[960, 540]",ColorTask,37.0,63.0,,,HRV,HRV_0231,2022-11-30 19:49:50
,wl-rdm,71,247012,0.0-6.63-0.63,False,,0.0,70.0,,,,,,,[],,,,,,50.0,1.0,i,1.0,True,894.0999999046326,54.0,59.0,40.0,286.73560531204134,[],"[960, 540]",ColorTask,38.0,64.0,,,HRV,HRV_0231,2022-11-30 19:49:50
,wl-rdm,72,249283,0.0-6.64-0.64,False,,0.0,71.0,,,,,,,[],,,,,,62.5,0.0,u,0.0,True,898.4999997615814,54.0,59.0,40.0,300.9164312545061,[],"[960, 540]",ColorTask,39.0,65.0,,,HRV,HRV_0231,2022-11-30 19:49:50
,wl-rdm,73,251449,0.0-6.65-0.65,False,,0.0,72.0,,,,,,,[],,,,,,62.5,0.0,u,0.0,True,815.1000001430511,49.0,59.0,40.0,278.2131495211503,[],"[960, 540]",ColorTask,40.0,66.0,,,HRV,HRV_0231,2022-11-30 19:49:50
,wl-rdm,74,253534,0.0-6.66-0.66,False,,0.0,73.0,,,,,,,[],,,,,,56.4,1.0,i,1.0,True,774.0,47.0,59.0,40.0,217.59014588262352,[],"[960, 540]",ColorTask,41.0,67.0,,,HRV,HRV_0231,2022-11-30 19:49:50
,wl-rdm,75,255538,0.0-6.67-0.67,False,,0.0,74.0,,,,,,,[],,,,,,87.9,0.0,u,0.0,True,659.0,40.0,59.0,40.0,284.26263641373384,[],"[960, 540]",ColorTask,42.0,68.0,,,HRV,HRV_0231,2022-11-30 19:49:50
,wl-rdm,76,257706,0.0-6.68-0.68,False,,0.0,75.0,,,,,,,[],,,,,,62.5,0.0,u,0.0,True,864.3999998569489,52.0,59.0,40.0,231.07029429659028,[],"[960, 540]",ColorTask,43.0,69.0,,,HRV,HRV_0231,2022-11-30 19:49:50
,wl-rdm,77,259791,0.0-6.69-0.69,False,,0.0,76.0,,,,,,,[],,,,,,50.0,0.0,i,1.0,False,790.9000000953674,48.0,59.0,40.0,228.9840224233007,[],"[960, 540]",ColorTask,42.0,70.0,,,HRV,HRV_0231,2022-11-30 19:49:50
,wl-rdm,78,262043,0.0-6.70-0.70,False,,0.0,77.0,,,,,,,[],,,,,,53.2,1.0,i,1.0,True,877.0,52.0,59.0,40.0,308.8507544911025,[],"[960, 540]",ColorTask,43.0,71.0,,,HRV,HRV_0231,2022-11-30 19:49:50
,wl-rdm,79,264613,0.0-6.71-0.71,False,,0.0,78.0,,,,,,,[],,,,,,56.4,0.0,u,0.0,True,1128.0,68.0,59.0,40.0,369.09491780704434,[],"[960, 540]",ColorTask,44.0,72.0,,,HRV,HRV_0231,2022-11-30 19:49:50
,wl-rdm,80,267082,0.0-6.72-0.72,False,,0.0,79.0,,,,,,,[],,,,,,56.4,1.0,i,1.0,True,1131.3999998569489,68.0,59.0,40.0,273.89474132182113,[],"[960, 540]",ColorTask,45.0,73.0,,,HRV,HRV_0231,2022-11-30 19:49:50
,wl-rdm,81,269087,0.0-6.73-0.73,False,,0.0,80.0,,,,,,,[],,,,,,87.9,1.0,i,1.0,True,727.9000000953674,44.0,59.0,40.0,206.5207912669917,[],"[960, 540]",ColorTask,46.0,74.0,,,HRV,HRV_0231,2022-11-30 19:49:50
,wl-rdm,82,271102,0.0-6.74-0.74,False,,0.0,81.0,,,,,,,[],,,,,,50.0,0.0,i,1.0,False,740.3999998569489,45.0,59.0,40.0,206.96246968507856,[],"[960, 540]",ColorTask,45.0,75.0,,,HRV,HRV_0231,2022-11-30 19:49:50
,wl-rdm,83,273392,0.0-6.75-0.75,False,,0.0,82.0,,,,,,,[],,,,,,62.5,1.0,i,1.0,True,880.2999999523163,53.0,59.0,40.0,335.9462259137675,[],"[960, 540]",ColorTask,46.0,76.0,,,HRV,HRV_0231,2022-11-30 19:49:50
,wl-rdm,84,275556,0.0-6.76-0.76,False,,0.0,83.0,,,,,,,[],,,,,,62.5,0.0,u,0.0,True,688.8000001907349,42.0,59.0,40.0,393.4180406723889,[],"[960, 540]",ColorTask,47.0,77.0,,,HRV,HRV_0231,2022-11-30 19:49:50
,wl-rdm,85,277642,0.0-6.77-0.77,False,,0.0,84.0,,,,,,,[],,,,,,87.9,1.0,i,1.0,True,638.0,39.0,59.0,40.0,382.3798442515199,[],"[960, 540]",ColorTask,48.0,78.0,,,HRV,HRV_0231,2022-11-30 19:49:50
,wl-rdm,86,279686,0.0-6.78-0.78,False,,0.0,85.0,,,,,,,[],,,,,,87.9,1.0,i,1.0,True,631.3999998569489,38.0,59.0,40.0,320.5764867795306,[],"[960, 540]",ColorTask,49.0,79.0,,,HRV,HRV_0231,2022-11-30 19:49:50
,wl-rdm,87,281897,0.0-6.79-0.79,False,,0.0,86.0,,,,,,,[],,,,,,56.4,1.0,i,1.0,True,859.9000000953674,49.0,59.0,40.0,280.4346378614687,[],"[960, 540]",ColorTask,50.0,80.0,,,HRV,HRV_0231,2022-11-30 19:49:50
,wl-rdm,88,284149,0.0-6.80-0.80,False,,0.0,87.0,,,,,,,[],,,,,,56.4,0.0,u,0.0,True,890.9000000953674,53.0,59.0,40.0,288.38947437895183,[],"[960, 540]",ColorTask,51.0,81.0,,,HRV,HRV_0231,2022-11-30 19:49:50
,wl-rdm,89,286152,0.0-6.81-0.81,False,,0.0,88.0,,,,,,,[],,,,,,73.6,1.0,i,1.0,True,730.6999998092651,44.0,59.0,40.0,206.68633757775655,[],"[960, 540]",ColorTask,52.0,82.0,,,HRV,HRV_0231,2022-11-30 19:49:50
,wl-rdm,90,288137,0.0-6.82-0.82,False,,0.0,89.0,,,,,,,[],,,,,,87.9,0.0,u,0.0,True,733.5,44.0,59.0,40.0,207.47619501739047,[],"[960, 540]",ColorTask,53.0,83.0,,,HRV,HRV_0231,2022-11-30 19:49:50
,wl-rdm,91,290188,0.0-6.83-0.83,False,,0.0,90.0,,,,,,,[],,,,,,53.2,1.0,i,1.0,True,768.5999999046326,46.0,59.0,40.0,223.08237773651024,[],"[960, 540]",ColorTask,54.0,84.0,,,HRV,HRV_0231,2022-11-30 19:49:50
,wl-rdm,92,292240,0.0-6.84-0.84,False,,0.0,91.0,,,,,,,[],,,,,,87.9,1.0,i,1.0,True,663.2000000476837,40.0,59.0,40.0,330.0156281109762,[],"[960, 540]",ColorTask,55.0,85.0,,,HRV,HRV_0231,2022-11-30 19:49:50
,wl-rdm,93,294509,0.0-6.85-0.85,False,,0.0,92.0,,,,,,,[],,,,,,56.4,0.0,u,0.0,True,932.7000000476837,56.0,59.0,40.0,277.211108519357,[],"[960, 540]",ColorTask,56.0,86.0,,,HRV,HRV_0231,2022-11-30 19:49:50
,wl-rdm,94,296477,0.0-6.86-0.86,False,,0.0,93.0,,,,,,,[],,,,,,73.6,1.0,i,1.0,True,666.2999999523163,40.0,59.0,40.0,224.53353589357988,[],"[960, 540]",ColorTask,57.0,87.0,,,HRV,HRV_0231,2022-11-30 19:49:50
,wl-rdm,95,298630,0.0-6.87-0.87,False,,0.0,94.0,,,,,,,[],,,,,,73.6,0.0,u,0.0,True,747.2999999523163,45.0,59.0,40.0,360.28631809480953,[],"[960, 540]",ColorTask,58.0,88.0,,,HRV,HRV_0231,2022-11-30 19:49:50
,wl-rdm,96,300883,0.0-6.88-0.88,False,,0.0,95.0,,,,,,,[],,,,,,56.4,0.0,i,1.0,False,933.6999998092651,56.0,59.0,40.0,232.5751256654206,[],"[960, 540]",ColorTask,57.0,89.0,,,HRV,HRV_0231,2022-11-30 19:49:50
,wl-rdm,97,303270,0.0-6.89-0.89,False,,0.0,96.0,,,,,,,[],,,,,,50.0,0.0,u,0.0,True,1111.9999997615814,67.0,59.0,40.0,201.96401696851487,[],"[960, 540]",ColorTask,58.0,90.0,,,HRV,HRV_0231,2022-11-30 19:49:50
,wl-rdm,98,305970,0.0-6.90-0.90,False,,0.0,97.0,,,,,,,[],,,,,,53.2,0.0,i,1.0,False,1335.5999999046326,81.0,59.0,40.0,301.59152380131434,[],"[960, 540]",ColorTask,57.0,91.0,,,HRV,HRV_0231,2022-11-30 19:49:50
,wl-rdm,99,308140,0.0-6.91-0.91,False,,0.0,98.0,,,,,,,[],,,,,,50.0,1.0,i,1.0,True,780.5000002384186,47.0,59.0,40.0,315.16402421091067,[],"[960, 540]",ColorTask,58.0,92.0,,,HRV,HRV_0231,2022-11-30 19:49:50
,wl-rdm,100,310493,0.0-6.92-0.92,False,,0.0,99.0,,,,,,,[],,,,,,53.2,1.0,i,1.0,True,1057.0,64.0,59.0,40.0,204.76327971680337,[],"[960, 540]",ColorTask,59.0,93.0,,,HRV,HRV_0231,2022-11-30 19:49:50
,wl-rdm,101,313081,0.0-6.93-0.93,False,,0.0,100.0,,,,,,,[],,,,,,50.0,0.0,u,0.0,True,1209.0,71.0,59.0,40.0,300.1495138467914,[],"[960, 540]",ColorTask,60.0,94.0,,,HRV,HRV_0231,2022-11-30 19:49:50
,wl-rdm,102,315399,0.0-6.94-0.94,False,,0.0,101.0,,,,,,,[],,,,,,56.4,1.0,i,1.0,True,923.7000000476837,56.0,59.0,40.0,330.05093609987534,[],"[960, 540]",ColorTask,61.0,95.0,,,HRV,HRV_0231,2022-11-30 19:49:50
,wl-rdm,103,317750,0.0-6.95-0.95,False,,0.0,102.0,,,,,,,[],,,,,,53.2,1.0,i,1.0,True,1073.2999999523163,65.0,59.0,40.0,213.68288230757008,[],"[960, 540]",ColorTask,62.0,96.0,,,HRV,HRV_0231,2022-11-30 19:49:50
,wl-rdm,104,319802,0.0-6.96-0.96,False,,0.0,103.0,,,,,,,[],,,,,,56.4,1.0,i,1.0,True,716.0,43.0,59.0,40.0,264.65986656421484,[],"[960, 540]",ColorTask,63.0,97.0,,,HRV,HRV_0231,2022-11-30 19:49:50
,wl-rdm,105,321971,0.0-6.97-0.97,False,,0.0,104.0,,,,,,,[],,,,,,53.2,0.0,u,0.0,True,894.0000002384186,54.0,59.0,40.0,210.88367933829136,[],"[960, 540]",ColorTask,64.0,98.0,,,HRV,HRV_0231,2022-11-30 19:49:50
,wl-rdm,106,323988,0.0-6.98-0.98,False,,0.0,105.0,,,,,,,[],,,,,,53.2,0.0,u,0.0,True,722.1000001430511,44.0,59.0,40.0,217.77665526360315,[],"[960, 540]",ColorTask,65.0,99.0,,,HRV,HRV_0231,2022-11-30 19:49:50
,wl-rdm,107,326175,0.0-6.99-0.99,False,,0.0,106.0,,,,,,,[],,,,,,62.5,0.0,u,0.0,True,734.1000001430511,43.0,59.0,40.0,381.50144931522175,[],"[960, 540]",ColorTask,66.0,100.0,,,HRV,HRV_0231,2022-11-30 19:49:50
,wl-rdm,108,328209,0.0-6.100-0.100,False,,0.0,107.0,,,,,,,[],,,,,,62.5,1.0,i,1.0,True,613.9000000953674,37.0,59.0,40.0,356.9853206871935,[],"[960, 540]",ColorTask,67.0,101.0,,,HRV,HRV_0231,2022-11-30 19:49:50
,wl-rdm,109,330328,0.0-6.101-0.101,False,,0.0,108.0,,,,,,,[],,,,,,62.5,1.0,i,1.0,True,697.1000001430511,42.0,59.0,40.0,352.26554276081913,[],"[960, 540]",ColorTask,68.0,102.0,,,HRV,HRV_0231,2022-11-30 19:49:50
,wl-rdm,110,332430,0.0-6.102-0.102,False,,0.0,109.0,,,,,,,[],,,,,,56.4,0.0,u,0.0,True,760.3999998569489,46.0,59.0,40.0,255.6782929077575,[],"[960, 540]",ColorTask,69.0,103.0,,,HRV,HRV_0231,2022-11-30 19:49:50
,wl-rdm,111,334434,0.0-6.103-0.103,False,,0.0,110.0,,,,,,,[],,,,,,73.6,0.0,u,0.0,True,661.8999998569489,39.0,59.0,40.0,268.1207430926605,[],"[960, 540]",ColorTask,70.0,104.0,,,HRV,HRV_0231,2022-11-30 19:49:50
,wl-rdm,112,336502,0.0-6.104-0.104,False,,0.0,111.0,,,,,,,[],,,,,,53.2,0.0,i,1.0,False,642.1000001430511,39.0,59.0,40.0,366.24355691131336,[],"[960, 540]",ColorTask,69.0,105.0,,,HRV,HRV_0231,2022-11-30 19:49:50
,wl-rdm,113,338402,0.0-6.105-0.105,False,,0.0,112.0,,,,,,,[],,,,,,50.0,1.0,i,1.0,True,551.3999998569489,33.0,59.0,40.0,278.86249817756556,[],"[960, 540]",ColorTask,70.0,106.0,,,HRV,HRV_0231,2022-11-30 19:49:50
,wl-rdm,114,340505,0.0-6.106-0.106,False,,0.0,113.0,,,,,,,[],,,,,,62.5,0.0,u,0.0,True,774.7999999523163,47.0,59.0,40.0,255.50469455862589,[],"[960, 540]",ColorTask,71.0,107.0,,,HRV,HRV_0231,2022-11-30 19:49:50
,wl-rdm,115,342440,0.0-6.107-0.107,False,,0.0,114.0,,,,,,,[],,,,,,87.9,0.0,u,0.0,True,599.5000002384186,36.0,59.0,40.0,267.15415457212976,[],"[960, 540]",ColorTask,72.0,108.0,,,HRV,HRV_0231,2022-11-30 19:49:50
,wl-html-keyboard-response,116,349875,0.0-7.0-0.0,,,1.0,115.0,,,,,,,,5427.899999856949,1.0,0,,,,,,,,,,,,,,,,,,,,HRV,HRV_0231,2022-11-30 19:49:50
,wl-rdm,117,352033,0.0-8.0-0.0,False,,1.0,116.0,,,,,,,[],,,,,,62.5,0.0,u,0.0,True,823.0,50.0,59.0,40.0,266.565844181064,[],"[960, 540]",ColorTask,73.0,1.0,,,HRV,HRV_0231,2022-11-30 19:49:50
,wl-rdm,118,353986,0.0-8.1-0.1,False,,1.0,117.0,,,,,,,[],,,,,,53.2,0.0,u,0.0,True,638.2999999523163,36.0,59.0,40.0,257.88140456403255,[],"[960, 540]",ColorTask,74.0,2.0,,,HRV,HRV_0231,2022-11-30 19:49:50
,wl-rdm,119,355865,0.0-8.2-0.2,False,,1.0,118.0,,,,,,,[],,,,,,73.6,0.0,u,0.0,True,588.3000001907349,36.0,59.0,40.0,203.0235431966496,[],"[960, 540]",ColorTask,75.0,3.0,,,HRV,HRV_0231,2022-11-30 19:49:50
,wl-rdm,120,357888,0.0-8.3-0.3,False,,1.0,119.0,,,,,,,[],,,,,,73.6,1.0,i,1.0,True,556.0,32.0,59.0,40.0,389.38671140028316,[],"[960, 540]",ColorTask,76.0,4.0,,,HRV,HRV_0231,2022-11-30 19:49:50
,wl-rdm,121,359892,0.0-8.4-0.4,False,,1.0,120.0,,,,,,,[],,,,,,62.5,1.0,i,1.0,True,643.4000000953674,39.0,59.0,40.0,270.1360869044387,[],"[960, 540]",ColorTask,77.0,5.0,,,HRV,HRV_0231,2022-11-30 19:49:50
,wl-rdm,122,361793,0.0-8.5-0.5,False,,1.0,121.0,,,,,,,[],,,,,,62.5,0.0,u,0.0,True,621.4000000953674,38.0,59.0,40.0,212.8152524411988,[],"[960, 540]",ColorTask,78.0,6.0,,,HRV,HRV_0231,2022-11-30 19:49:50
,wl-rdm,123,364045,0.0-8.6-0.6,False,,1.0,122.0,,,,,,,[],,,,,,56.4,1.0,u,0.0,False,831.9000000953674,50.0,59.0,40.0,354.0290539718957,[],"[960, 540]",ColorTask,77.0,7.0,,,HRV,HRV_0231,2022-11-30 19:49:50
,wl-rdm,124,366620,0.0-8.7-0.7,False,,1.0,123.0,,,,,,,[],,,,,,56.4,1.0,i,1.0,True,1149.1000001430511,67.0,59.0,40.0,354.92360227242665,[],"[960, 540]",ColorTask,78.0,8.0,,,HRV,HRV_0231,2022-11-30 19:49:50
,wl-rdm,125,368738,0.0-8.8-0.8,False,,1.0,124.0,,,,,,,[],,,,,,73.6,0.0,u,0.0,True,824.5,47.0,59.0,40.0,203.1753500594178,[],"[960, 540]",ColorTask,79.0,9.0,,,HRV,HRV_0231,2022-11-30 19:49:50
,wl-rdm,126,370794,0.0-8.9-0.9,False,,1.0,125.0,,,,,,,[],,,,,,73.6,1.0,i,1.0,True,581.2000000476837,34.0,59.0,40.0,392.258512548604,[],"[960, 540]",ColorTask,80.0,10.0,,,HRV,HRV_0231,2022-11-30 19:49:50
,wl-rdm,127,372806,0.0-8.10-0.10,False,,1.0,126.0,,,,,,,[],,,,,,73.6,0.0,u,0.0,True,595.1999998092651,34.0,59.0,40.0,327.3791572267936,[],"[960, 540]",ColorTask,81.0,11.0,,,HRV,HRV_0231,2022-11-30 19:49:50
,wl-rdm,128,374956,0.0-8.11-0.11,False,,1.0,127.0,,,,,,,[],,,,,,62.5,1.0,i,1.0,True,746.1000001430511,45.0,59.0,40.0,331.60000506959796,[],"[960, 540]",ColorTask,82.0,12.0,,,HRV,HRV_0231,2022-11-30 19:49:50
,wl-rdm,129,377023,0.0-8.12-0.12,False,,1.0,128.0,,,,,,,[],,,,,,50.0,0.0,u,0.0,True,800.4999997615814,48.0,59.0,40.0,204.77571091286708,[],"[960, 540]",ColorTask,83.0,13.0,,,HRV,HRV_0231,2022-11-30 19:49:50
,wl-rdm,130,379593,0.0-8.13-0.13,False,,1.0,129.0,,,,,,,[],,,,,,50.0,0.0,i,1.0,False,1191.9999997615814,72.0,59.0,40.0,315.5860274887009,[],"[960, 540]",ColorTask,82.0,14.0,,,HRV,HRV_0231,2022-11-30 19:49:50
,wl-rdm,131,381629,0.0-8.14-0.14,False,,1.0,130.0,,,,,,,[],,,,,,87.9,0.0,u,0.0,True,756.1999998092651,45.0,59.0,40.0,211.42483126140755,[],"[960, 540]",ColorTask,83.0,15.0,,,HRV,HRV_0231,2022-11-30 19:49:50
,wl-rdm,132,383847,0.0-8.15-0.15,False,,1.0,131.0,,,,,,,[],,,,,,56.4,0.0,i,1.0,False,879.7000000476837,53.0,59.0,40.0,284.2403992372997,[],"[960, 540]",ColorTask,82.0,16.0,,,HRV,HRV_0231,2022-11-30 19:49:50
,wl-rdm,133,386240,0.0-8.16-0.16,False,,1.0,132.0,,,,,,,[],,,,,,50.0,0.0,u,0.0,True,1021.0999999046326,59.0,59.0,40.0,283.5781371294191,[],"[960, 540]",ColorTask,83.0,17.0,,,HRV,HRV_0231,2022-11-30 19:49:50
,wl-rdm,134,388303,0.0-8.17-0.17,False,,1.0,133.0,,,,,,,[],,,,,,56.4,1.0,i,1.0,True,790.4000000953674,48.0,59.0,40.0,215.2354691478137,[],"[960, 540]",ColorTask,84.0,18.0,,,HRV,HRV_0231,2022-11-30 19:49:50
,wl-rdm,135,390287,0.0-8.18-0.18,False,,1.0,134.0,,,,,,,[],,,,,,62.5,0.0,u,0.0,True,656.7999999523163,40.0,59.0,40.0,248.67340794709645,[],"[960, 540]",ColorTask,85.0,19.0,,,HRV,HRV_0231,2022-11-30 19:49:50
,wl-rdm,136,392491,0.0-8.19-0.19,False,,1.0,135.0,,,,,,,[],,,,,,62.5,0.0,u,0.0,True,845.2999999523163,48.0,59.0,40.0,288.9261978421076,[],"[960, 540]",ColorTask,86.0,20.0,,,HRV,HRV_0231,2022-11-30 19:49:50
,wl-rdm,137,394492,0.0-8.20-0.20,False,,1.0,136.0,,,,,,,[],,,,,,53.2,1.0,i,1.0,True,659.5,39.0,59.0,40.0,258.97765773041465,[],"[960, 540]",ColorTask,87.0,21.0,,,HRV,HRV_0231,2022-11-30 19:49:50
,wl-rdm,138,396593,0.0-8.21-0.21,False,,1.0,137.0,,,,,,,[],,,,,,73.6,0.0,u,0.0,True,812.6000001430511,49.0,59.0,40.0,206.79282282647196,[],"[960, 540]",ColorTask,88.0,22.0,,,HRV,HRV_0231,2022-11-30 19:49:50
,wl-rdm,139,398979,0.0-8.22-0.22,False,,1.0,138.0,,,,,,,[],,,,,,53.2,0.0,i,1.0,False,1059.5000002384186,64.0,59.0,40.0,276.5399936294808,[],"[960, 540]",ColorTask,87.0,23.0,,,HRV,HRV_0231,2022-11-30 19:49:50
,wl-rdm,140,401415,0.0-8.23-0.23,False,,1.0,139.0,,,,,,,[],,,,,,87.9,1.0,i,1.0,True,1072.6000001430511,65.0,59.0,40.0,281.55384733196126,[],"[960, 540]",ColorTask,88.0,24.0,,,HRV,HRV_0231,2022-11-30 19:49:50
,wl-rdm,141,405064,0.0-8.24-0.24,False,,1.0,140.0,,,,,,,[],,,,,,56.4,0.0,u,0.0,True,2372.4000000953674,135.0,59.0,40.0,226.24934045792807,[],"[960, 540]",ColorTask,89.0,25.0,,,HRV,HRV_0231,2022-11-30 19:49:50
,wl-rdm,142,407287,0.0-8.25-0.25,False,,1.0,141.0,,,,,,,[],,,,,,53.2,1.0,u,0.0,False,902.7000002861023,55.0,59.0,40.0,239.58753210144044,[],"[960, 540]",ColorTask,88.0,26.0,,,HRV,HRV_0231,2022-11-30 19:49:50
,wl-rdm,143,409289,0.0-8.26-0.26,False,,1.0,142.0,,,,,,,[],,,,,,87.9,0.0,u,0.0,True,693.2999999523163,40.0,59.0,40.0,228.06942683741687,[],"[960, 540]",ColorTask,89.0,27.0,,,HRV,HRV_0231,2022-11-30 19:49:50
,wl-rdm,144,411244,0.0-8.27-0.27,False,,1.0,143.0,,,,,,,[],,,,,,50.0,0.0,u,0.0,True,648.0999999046326,39.0,59.0,40.0,237.29377159683315,[],"[960, 540]",ColorTask,90.0,28.0,,,HRV,HRV_0231,2022-11-30 19:49:50
,wl-rdm,145,413410,0.0-8.28-0.28,False,,1.0,144.0,,,,,,,[],,,,,,56.4,0.0,i,1.0,False,868.5999999046326,48.0,59.0,40.0,212.55467456177217,[],"[960, 540]",ColorTask,89.0,29.0,,,HRV,HRV_0231,2022-11-30 19:49:50
,wl-rdm,146,416646,0.0-8.29-0.29,False,,1.0,145.0,,,,,,,[],,,,,,50.0,1.0,u,0.0,False,1883.3000001907349,113.0,59.0,40.0,278.6559272819426,[],"[960, 540]",ColorTask,88.0,30.0,,,HRV,HRV_0231,2022-11-30 19:49:50
,wl-rdm,147,419118,0.0-8.30-0.30,False,,1.0,146.0,,,,,,,[],,,,,,56.4,1.0,i,1.0,True,1025.2999997138977,62.0,59.0,40.0,353.8800191041376,[],"[960, 540]",ColorTask,89.0,31.0,,,HRV,HRV_0231,2022-11-30 19:49:50
,wl-rdm,148,421493,0.0-8.31-0.31,False,,1.0,147.0,,,,,,,[],,,,,,73.6,1.0,i,1.0,True,885.7999999523163,51.0,59.0,40.0,384.4562184276043,[],"[960, 540]",ColorTask,90.0,32.0,,,HRV,HRV_0231,2022-11-30 19:49:50
,wl-rdm,149,423970,0.0-8.32-0.32,False,,1.0,148.0,,,,,,,[],,,,,,56.4,1.0,u,0.0,False,1165.5,70.0,59.0,40.0,238.15782903721214,[],"[960, 540]",ColorTask,89.0,33.0,,,HRV,HRV_0231,2022-11-30 19:49:50
,wl-rdm,150,426361,0.0-8.33-0.33,False,,1.0,149.0,,,,,,,[],,,,,,50.0,1.0,i,1.0,True,1093.5000002384186,66.0,59.0,40.0,212.9042064683713,[],"[960, 540]",ColorTask,90.0,34.0,,,HRV,HRV_0231,2022-11-30 19:49:50
,wl-rdm,151,428610,0.0-8.34-0.34,False,,1.0,150.0,,,,,,,[],,,,,,50.0,0.0,u,0.0,True,819.7000000476837,50.0,59.0,40.0,369.81932568098716,[],"[960, 540]",ColorTask,91.0,35.0,,,HRV,HRV_0231,2022-11-30 19:49:50
,wl-rdm,152,430715,0.0-8.35-0.35,False,,1.0,151.0,,,,,,,[],,,,,,62.5,1.0,i,1.0,True,771.7999999523163,46.0,59.0,40.0,254.13198990786293,[],"[960, 540]",ColorTask,92.0,36.0,,,HRV,HRV_0231,2022-11-30 19:49:50
,wl-rdm,153,432912,0.0-8.36-0.36,False,,1.0,152.0,,,,,,,[],,,,,,73.6,1.0,i,1.0,True,776.0,47.0,59.0,40.0,355.02471542749856,[],"[960, 540]",ColorTask,93.0,37.0,,,HRV,HRV_0231,2022-11-30 19:49:50
,wl-rdm,154,435115,0.0-8.37-0.37,False,,1.0,153.0,,,,,,,[],,,,,,56.4,0.0,u,0.0,True,912.7000000476837,55.0,59.0,40.0,224.13802759281128,[],"[960, 540]",ColorTask,94.0,38.0,,,HRV,HRV_0231,2022-11-30 19:49:50
,wl-rdm,155,437451,0.0-8.38-0.38,False,,1.0,154.0,,,,,,,[],,,,,,50.0,0.0,i,1.0,False,979.5999999046326,56.0,59.0,40.0,282.41079075122656,[],"[960, 540]",ColorTask,93.0,39.0,,,HRV,HRV_0231,2022-11-30 19:49:50
,wl-rdm,156,440039,0.0-8.39-0.39,False,,1.0,155.0,,,,,,,[],,,,,,56.4,0.0,u,0.0,True,1159.5000002384186,70.0,59.0,40.0,365.07760626407116,[],"[960, 540]",ColorTask,94.0,40.0,,,HRV,HRV_0231,2022-11-30 19:49:50
,wl-rdm,157,442180,0.0-8.40-0.40,False,,1.0,156.0,,,,,,,[],,,,,,53.2,1.0,i,1.0,True,692.7000000476837,42.0,59.0,40.0,370.2995994178208,[],"[960, 540]",ColorTask,95.0,41.0,,,HRV,HRV_0231,2022-11-30 19:49:50
,wl-rdm,158,444141,0.0-8.41-0.41,False,,1.0,157.0,,,,,,,[],,,,,,87.9,0.0,u,0.0,True,700.400000333786,42.0,59.0,40.0,203.88562493965895,[],"[960, 540]",ColorTask,96.0,42.0,,,HRV,HRV_0231,2022-11-30 19:49:50
,wl-rdm,159,446728,0.0-8.42-0.42,False,,1.0,158.0,,,,,,,[],,,,,,56.4,0.0,u,0.0,True,1293.1999998092651,76.0,59.0,40.0,210.29578405791742,[],"[960, 540]",ColorTask,97.0,43.0,,,HRV,HRV_0231,2022-11-30 19:49:50
,wl-rdm,160,448897,0.0-8.43-0.43,False,,1.0,159.0,,,,,,,[],,,,,,87.9,1.0,i,1.0,True,722.8000001907349,44.0,59.0,40.0,379.60719934419535,[],"[960, 540]",ColorTask,98.0,44.0,,,HRV,HRV_0231,2022-11-30 19:49:50
,wl-rdm,161,450965,0.0-8.44-0.44,False,,1.0,160.0,,,,,,,[],,,,,,62.5,0.0,u,0.0,True,794.5000002384186,48.0,59.0,40.0,211.21645555751422,[],"[960, 540]",ColorTask,99.0,45.0,,,HRV,HRV_0231,2022-11-30 19:49:50
,wl-rdm,162,453167,0.0-8.45-0.45,False,,1.0,161.0,,,,,,,[],,,,,,73.6,0.0,u,0.0,True,879.2999999523163,53.0,59.0,40.0,221.75202862847001,[],"[960, 540]",ColorTask,100.0,46.0,,,HRV,HRV_0231,2022-11-30 19:49:50
,wl-rdm,163,455554,0.0-8.46-0.46,False,,1.0,162.0,,,,,,,[],,,,,,53.2,0.0,i,1.0,False,1061.3999996185303,64.0,59.0,40.0,240.3044657143328,[],"[960, 540]",ColorTask,99.0,47.0,,,HRV,HRV_0231,2022-11-30 19:49:50
,wl-rdm,164,457862,0.0-8.47-0.47,False,,1.0,163.0,,,,,,,[],,,,,,73.6,0.0,u,0.0,True,983.4000000953674,57.0,59.0,40.0,248.40845853835975,[],"[960, 540]",ColorTask,100.0,48.0,,,HRV,HRV_0231,2022-11-30 19:49:50
,wl-rdm,165,460603,0.0-8.48-0.48,False,,1.0,164.0,,,,,,,[],,,,,,87.9,0.0,u,0.0,True,1432.0,85.0,59.0,40.0,234.55586954080115,[],"[960, 540]",ColorTask,101.0,49.0,,,HRV,HRV_0231,2022-11-30 19:49:50
,wl-rdm,166,463377,0.0-8.49-0.49,False,,1.0,165.0,,,,,,,[],,,,,,53.2,1.0,u,0.0,False,1381.0,83.0,59.0,40.0,345.6111094593609,[],"[960, 540]",ColorTask,100.0,50.0,,,HRV,HRV_0231,2022-11-30 19:49:50
,wl-rdm,167,466399,0.0-8.50-0.50,False,,1.0,166.0,,,,,,,[],,,,,,53.2,0.0,u,0.0,True,1746.7999999523163,105.0,59.0,40.0,204.8727139471402,[],"[960, 540]",ColorTask,101.0,51.0,,,HRV,HRV_0231,2022-11-30 19:49:50
,wl-rdm,168,468548,0.0-8.51-0.51,False,,1.0,167.0,,,,,,,[],,,,,,62.5,0.0,u,0.0,True,854.7999999523163,49.0,59.0,40.0,231.95859003689733,[],"[960, 540]",ColorTask,102.0,52.0,,,HRV,HRV_0231,2022-11-30 19:49:50
,wl-rdm,169,470694,0.0-8.52-0.52,False,,1.0,168.0,,,,,,,[],,,,,,87.9,0.0,u,0.0,True,857.2000000476837,50.0,59.0,40.0,201.1181945554363,[],"[960, 540]",ColorTask,103.0,53.0,,,HRV,HRV_0231,2022-11-30 19:49:50
,wl-rdm,170,473170,0.0-8.53-0.53,False,,1.0,169.0,,,,,,,[],,,,,,56.4,1.0,i,1.0,True,1117.3000001907349,65.0,59.0,40.0,312.25324843007735,[],"[960, 540]",ColorTask,104.0,54.0,,,HRV,HRV_0231,2022-11-30 19:49:50
,wl-rdm,171,475556,0.0-8.54-0.54,False,,1.0,170.0,,,,,,,[],,,,,,62.5,1.0,i,1.0,True,1074.5,65.0,59.0,40.0,243.6809044495023,[],"[960, 540]",ColorTask,105.0,55.0,,,HRV,HRV_0231,2022-11-30 19:49:50
,wl-rdm,172,477808,0.0-8.55-0.55,False,,1.0,171.0,,,,,,,[],,,,,,62.5,1.0,i,1.0,True,791.5,48.0,59.0,40.0,388.8069339799073,[],"[960, 540]",ColorTask,106.0,56.0,,,HRV,HRV_0231,2022-11-30 19:49:50
,wl-rdm,173,481128,0.0-8.56-0.56,False,,1.0,172.0,,,,,,,[],,,,,,56.4,1.0,u,0.0,False,2017.2999999523163,121.0,59.0,40.0,238.56975916961312,[],"[960, 540]",ColorTask,105.0,57.0,,,HRV,HRV_0231,2022-11-30 19:49:50
,wl-rdm,174,483964,0.0-8.57-0.57,False,,1.0,173.0,,,,,,,[],,,,,,53.2,0.0,i,1.0,False,1558.1000001430511,94.0,59.0,40.0,208.7878940111099,[],"[960, 540]",ColorTask,104.0,58.0,,,HRV,HRV_0231,2022-11-30 19:49:50
,wl-rdm,175,486200,0.0-8.58-0.58,False,,1.0,174.0,,,,,,,[],,,,,,73.6,1.0,i,1.0,True,922.4000000953674,56.0,59.0,40.0,231.97062193954173,[],"[960, 540]",ColorTask,105.0,59.0,,,HRV,HRV_0231,2022-11-30 19:49:50
,wl-rdm,176,488252,0.0-8.59-0.59,False,,1.0,175.0,,,,,,,[],,,,,,50.0,1.0,u,0.0,False,692.6999998092651,42.0,59.0,40.0,289.98417184392247,[],"[960, 540]",ColorTask,104.0,60.0,,,HRV,HRV_0231,2022-11-30 19:49:50
,wl-rdm,177,490554,0.0-8.60-0.60,False,,1.0,176.0,,,,,,,[],,,,,,50.0,1.0,u,0.0,False,910.6000001430511,55.0,59.0,40.0,328.8558080227747,[],"[960, 540]",ColorTask,103.0,61.0,,,HRV,HRV_0231,2022-11-30 19:49:50
,wl-rdm,178,493410,0.0-8.61-0.61,False,,1.0,177.0,,,,,,,[],,,,,,50.0,1.0,i,1.0,True,1576.4000000953674,92.0,59.0,40.0,214.63928397930246,[],"[960, 540]",ColorTask,104.0,62.0,,,HRV,HRV_0231,2022-11-30 19:49:50
,wl-rdm,179,496195,0.0-8.62-0.62,False,,1.0,178.0,,,,,,,[],,,,,,50.0,1.0,u,0.0,False,1380.9999997615814,83.0,59.0,40.0,320.47198627919636,[],"[960, 540]",ColorTask,103.0,63.0,,,HRV,HRV_0231,2022-11-30 19:49:50
,wl-rdm,180,498261,0.0-8.63-0.63,False,,1.0,179.0,,,,,,,[],,,,,,87.9,0.0,u,0.0,True,771.2999999523163,47.0,59.0,40.0,225.46596036671752,[],"[960, 540]",ColorTask,104.0,64.0,,,HRV,HRV_0231,2022-11-30 19:49:50
,wl-rdm,181,500470,0.0-8.64-0.64,False,,1.0,180.0,,,,,,,[],,,,,,56.4,1.0,i,1.0,True,766.3999998569489,46.0,59.0,40.0,372.84741560117516,[],"[960, 540]",ColorTask,105.0,65.0,,,HRV,HRV_0231,2022-11-30 19:49:50
,wl-rdm,182,502639,0.0-8.65-0.65,False,,1.0,181.0,,,,,,,[],,,,,,50.0,1.0,u,0.0,False,738.4000000953674,45.0,59.0,40.0,364.5864741469219,[],"[960, 540]",ColorTask,104.0,66.0,,,HRV,HRV_0231,2022-11-30 19:49:50
,wl-rdm,183,504818,0.0-8.66-0.66,False,,1.0,182.0,,,,,,,[],,,,,,87.9,1.0,i,1.0,True,778.9000000953674,45.0,59.0,40.0,294.62371970041454,[],"[960, 540]",ColorTask,105.0,67.0,,,HRV,HRV_0231,2022-11-30 19:49:50
,wl-rdm,184,507121,0.0-8.67-0.67,False,,1.0,183.0,,,,,,,[],,,,,,73.6,0.0,u,0.0,True,940.0,57.0,59.0,40.0,300.8477967512622,[],"[960, 540]",ColorTask,106.0,68.0,,,HRV,HRV_0231,2022-11-30 19:49:50
,wl-rdm,185,509155,0.0-8.68-0.68,False,,1.0,184.0,,,,,,,[],,,,,,87.9,1.0,i,1.0,True,757.1000001430511,46.0,59.0,40.0,213.36833713295658,[],"[960, 540]",ColorTask,107.0,69.0,,,HRV,HRV_0231,2022-11-30 19:49:50
,wl-rdm,186,511891,0.0-8.69-0.69,False,,1.0,185.0,,,,,,,[],,,,,,50.0,0.0,i,1.0,False,1345.0999999046326,81.0,59.0,40.0,333.66369514452293,[],"[960, 540]",ColorTask,106.0,70.0,,,HRV,HRV_0231,2022-11-30 19:49:50
,wl-rdm,187,514277,0.0-8.70-0.70,False,,1.0,186.0,,,,,,,[],,,,,,53.2,0.0,u,0.0,True,1057.2000000476837,64.0,59.0,40.0,260.7782100995693,[],"[960, 540]",ColorTask,107.0,71.0,,,HRV,HRV_0231,2022-11-30 19:49:50
,wl-rdm,188,516363,0.0-8.71-0.71,False,,1.0,187.0,,,,,,,[],,,,,,73.6,0.0,u,0.0,True,757.4000000953674,46.0,59.0,40.0,234.43530065053574,[],"[960, 540]",ColorTask,108.0,72.0,,,HRV,HRV_0231,2022-11-30 19:49:50
,wl-rdm,189,518598,0.0-8.72-0.72,False,,1.0,188.0,,,,,,,[],,,,,,87.9,1.0,i,1.0,True,848.5,51.0,59.0,40.0,316.34768145452415,[],"[960, 540]",ColorTask,109.0,73.0,,,HRV,HRV_0231,2022-11-30 19:49:50
,wl-rdm,190,521067,0.0-8.73-0.73,False,,1.0,189.0,,,,,,,[],,,,,,53.2,1.0,u,0.0,False,1119.5999999046326,68.0,59.0,40.0,289.4766379912569,[],"[960, 540]",ColorTask,108.0,74.0,,,HRV,HRV_0231,2022-11-30 19:49:50
,wl-rdm,191,523052,0.0-8.74-0.74,False,,1.0,190.0,,,,,,,[],,,,,,87.9,0.0,u,0.0,True,677.1000001430511,41.0,59.0,40.0,247.44874497277863,[],"[960, 540]",ColorTask,109.0,75.0,,,HRV,HRV_0231,2022-11-30 19:49:50
,wl-rdm,192,525071,0.0-8.75-0.75,False,,1.0,191.0,,,,,,,[],,,,,,87.9,0.0,u,0.0,True,690.4999997615814,42.0,59.0,40.0,261.0547894811006,[],"[960, 540]",ColorTask,110.0,76.0,,,HRV,HRV_0231,2022-11-30 19:49:50
,wl-rdm,193,527091,0.0-8.76-0.76,False,,1.0,192.0,,,,,,,[],,,,,,73.6,1.0,i,1.0,True,723.5000002384186,41.0,59.0,40.0,227.72445841631608,[],"[960, 540]",ColorTask,111.0,77.0,,,HRV,HRV_0231,2022-11-30 19:49:50
,wl-rdm,194,529326,0.0-8.77-0.77,False,,1.0,193.0,,,,,,,[],,,,,,73.6,0.0,u,0.0,True,861.7000000476837,52.0,59.0,40.0,311.62138358393423,[],"[960, 540]",ColorTask,112.0,78.0,,,HRV,HRV_0231,2022-11-30 19:49:50
,wl-rdm,195,531411,0.0-8.78-0.78,False,,1.0,194.0,,,,,,,[],,,,,,53.2,0.0,i,1.0,False,784.0,47.0,59.0,40.0,249.16022938262873,[],"[960, 540]",ColorTask,111.0,79.0,,,HRV,HRV_0231,2022-11-30 19:49:50
,wl-rdm,196,533813,0.0-8.79-0.79,False,,1.0,195.0,,,,,,,[],,,,,,50.0,0.0,u,0.0,True,997.2000000476837,60.0,59.0,40.0,349.7290522530687,[],"[960, 540]",ColorTask,112.0,80.0,,,HRV,HRV_0231,2022-11-30 19:49:50
,wl-rdm,197,535924,0.0-8.80-0.80,False,,1.0,196.0,,,,,,,[],,,,,,73.6,1.0,i,1.0,True,704.2000000476837,42.0,59.0,40.0,349.40346948833474,[],"[960, 540]",ColorTask,113.0,81.0,,,HRV,HRV_0231,2022-11-30 19:49:50
,wl-rdm,198,538234,0.0-8.81-0.81,False,,1.0,197.0,,,,,,,[],,,,,,73.6,1.0,i,1.0,True,1004.1000001430511,60.0,59.0,40.0,236.72848259352085,[],"[960, 540]",ColorTask,114.0,82.0,,,HRV,HRV_0231,2022-11-30 19:49:50
,wl-rdm,199,540520,0.0-8.82-0.82,False,,1.0,198.0,,,,,,,[],,,,,,53.2,0.0,u,0.0,True,839.0999999046326,51.0,59.0,40.0,368.8318545392807,[],"[960, 540]",ColorTask,115.0,83.0,,,HRV,HRV_0231,2022-11-30 19:49:50
,wl-rdm,200,542655,0.0-8.83-0.83,False,,1.0,199.0,,,,,,,[],,,,,,53.2,0.0,i,1.0,False,799.8000001907349,48.0,59.0,40.0,282.7441817424177,[],"[960, 540]",ColorTask,114.0,84.0,,,HRV,HRV_0231,2022-11-30 19:49:50
,wl-rdm,201,546213,0.0-8.84-0.84,False,,1.0,200.0,,,,,,,[],,,,,,53.2,1.0,i,1.0,True,2245.0,133.0,59.0,40.0,232.21833051867227,[],"[960, 540]",ColorTask,115.0,85.0,,,HRV,HRV_0231,2022-11-30 19:49:50
,wl-rdm,202,548474,0.0-8.85-0.85,False,,1.0,201.0,,,,,,,[],,,,,,62.5,0.0,u,0.0,True,840.4999997615814,48.0,59.0,40.0,340.0775883561055,[],"[960, 540]",ColorTask,116.0,86.0,,,HRV,HRV_0231,2022-11-30 19:49:50
,wl-rdm,203,550613,0.0-8.86-0.86,False,,1.0,202.0,,,,,,,[],,,,,,62.5,1.0,i,1.0,True,787.7000002861023,48.0,59.0,40.0,270.1361211170093,[],"[960, 540]",ColorTask,117.0,87.0,,,HRV,HRV_0231,2022-11-30 19:49:50
,wl-rdm,204,552786,0.0-8.87-0.87,False,,1.0,203.0,,,,,,,[],,,,,,56.4,0.0,u,0.0,True,892.6999998092651,54.0,59.0,40.0,202.48222107369213,[],"[960, 540]",ColorTask,118.0,88.0,,,HRV,HRV_0231,2022-11-30 19:49:50
,wl-rdm,205,554841,0.0-8.88-0.88,False,,1.0,204.0,,,,,,,[],,,,,,87.9,1.0,i,1.0,True,715.2999999523163,43.0,59.0,40.0,279.69491493582024,[],"[960, 540]",ColorTask,119.0,89.0,,,HRV,HRV_0231,2022-11-30 19:49:50
,wl-rdm,206,557354,0.0-8.89-0.89,False,,1.0,205.0,,,,,,,[],,,,,,56.4,1.0,u,0.0,False,1259.2000002861023,72.0,59.0,40.0,209.06272657404642,[],"[960, 540]",ColorTask,118.0,90.0,,,HRV,HRV_0231,2022-11-30 19:49:50
,wl-rdm,207,559425,0.0-8.90-0.90,False,,1.0,206.0,,,,,,,[],,,,,,87.9,1.0,i,1.0,True,727.8999998569489,44.0,59.0,40.0,269.96415953717207,[],"[960, 540]",ColorTask,119.0,91.0,,,HRV,HRV_0231,2022-11-30 19:49:50
,wl-rdm,208,561810,0.0-8.91-0.91,False,,1.0,207.0,,,,,,,[],,,,,,56.4,0.0,u,0.0,True,1010.1999998092651,59.0,59.0,40.0,312.9342226964913,[],"[960, 540]",ColorTask,120.0,92.0,,,HRV,HRV_0231,2022-11-30 19:49:50
,wl-rdm,209,564111,0.0-8.92-0.92,False,,1.0,208.0,,,,,,,[],,,,,,62.5,0.0,u,0.0,True,892.8000001907349,54.0,59.0,40.0,340.9219553362615,[],"[960, 540]",ColorTask,121.0,93.0,,,HRV,HRV_0231,2022-11-30 19:49:50
,wl-rdm,210,566647,0.0-8.93-0.93,False,,1.0,209.0,,,,,,,[],,,,,,53.2,1.0,i,1.0,True,1090.0,66.0,59.0,40.0,379.2142091962566,[],"[960, 540]",ColorTask,122.0,94.0,,,HRV,HRV_0231,2022-11-30 19:49:50
,wl-rdm,211,569041,0.0-8.94-0.94,False,,1.0,210.0,,,,,,,[],,,,,,62.5,1.0,i,1.0,True,1066.2000000476837,64.0,59.0,40.0,260.4726135926285,[],"[960, 540]",ColorTask,123.0,95.0,,,HRV,HRV_0231,2022-11-30 19:49:50
,wl-rdm,212,571769,0.0-8.95-0.95,False,,1.0,211.0,,,,,,,[],,,,,,53.2,1.0,u,0.0,False,1327.0000002384186,80.0,59.0,40.0,317.73702881335316,[],"[960, 540]",ColorTask,122.0,96.0,,,HRV,HRV_0231,2022-11-30 19:49:50
,wl-rdm,213,574755,0.0-8.96-0.96,False,,1.0,212.0,,,,,,,[],,,,,,53.2,1.0,u,0.0,False,1682.6000001430511,100.0,59.0,40.0,238.26966438430873,[],"[960, 540]",ColorTask,121.0,97.0,,,HRV,HRV_0231,2022-11-30 19:49:50
,wl-rdm,214,577099,0.0-8.97-0.97,False,,1.0,213.0,,,,,,,[],,,,,,62.5,1.0,i,1.0,True,1043.0,63.0,59.0,40.0,218.42880270288697,[],"[960, 540]",ColorTask,122.0,98.0,,,HRV,HRV_0231,2022-11-30 19:49:50
,wl-rdm,215,579326,0.0-8.98-0.98,False,,1.0,214.0,,,,,,,[],,,,,,56.4,0.0,u,0.0,True,943.2000000476837,56.0,59.0,40.0,218.26902981736342,[],"[960, 540]",ColorTask,123.0,99.0,,,HRV,HRV_0231,2022-11-30 19:49:50
,wl-rdm,216,581961,0.0-8.99-0.99,False,,1.0,215.0,,,,,,,[],,,,,,50.0,1.0,i,1.0,True,1332.3000001907349,77.0,59.0,40.0,218.0742846648932,[],"[960, 540]",ColorTask,124.0,100.0,,,HRV,HRV_0231,2022-11-30 19:49:50
,wl-rdm,217,584314,0.0-8.100-0.100,False,,1.0,216.0,,,,,,,[],,,,,,87.9,0.0,u,0.0,True,1023.5,61.0,59.0,40.0,255.8548798833714,[],"[960, 540]",ColorTask,125.0,101.0,,,HRV,HRV_0231,2022-11-30 19:49:50
,wl-rdm,218,586332,0.0-8.101-0.101,False,,1.0,217.0,,,,,,,[],,,,,,87.9,1.0,i,1.0,True,648.7999999523163,38.0,59.0,40.0,259.670863536494,[],"[960, 540]",ColorTask,126.0,102.0,,,HRV,HRV_0231,2022-11-30 19:49:50
,wl-rdm,219,588486,0.0-8.102-0.102,False,,1.0,218.0,,,,,,,[],,,,,,62.5,0.0,u,0.0,True,842.1999998092651,51.0,59.0,40.0,240.2485684280108,[],"[960, 540]",ColorTask,127.0,103.0,,,HRV,HRV_0231,2022-11-30 19:49:50
,wl-rdm,220,590837,0.0-8.103-0.103,False,,1.0,219.0,,,,,,,[],,,,,,73.6,1.0,i,1.0,True,889.5,54.0,59.0,40.0,379.2141705474145,[],"[960, 540]",ColorTask,128.0,104.0,,,HRV,HRV_0231,2022-11-30 19:49:50
,wl-rdm,221,593413,0.0-8.104-0.104,False,,1.0,220.0,,,,,,,[],,,,,,50.0,1.0,u,0.0,False,1250.1999998092651,75.0,59.0,40.0,264.1005401711209,[],"[960, 540]",ColorTask,127.0,105.0,,,HRV,HRV_0231,2022-11-30 19:49:50
,wl-rdm,222,595525,0.0-8.105-0.105,False,,1.0,221.0,,,,,,,[],,,,,,87.9,1.0,i,1.0,True,679.6000001430511,41.0,59.0,40.0,360.5483996734901,[],"[960, 540]",ColorTask,128.0,106.0,,,HRV,HRV_0231,2022-11-30 19:49:50
,wl-rdm,223,597728,0.0-8.106-0.106,False,,1.0,222.0,,,,,,,[],,,,,,50.0,0.0,u,0.0,True,917.3999998569489,56.0,59.0,40.0,213.13498141935278,[],"[960, 540]",ColorTask,129.0,107.0,,,HRV,HRV_0231,2022-11-30 19:49:50
,wl-rdm,224,599662,0.0-8.107-0.107,False,,1.0,223.0,,,,,,,[],,,,,,62.5,1.0,i,1.0,True,645.7999999523163,37.0,59.0,40.0,207.34719827268722,[],"[960, 540]",ColorTask,130.0,108.0,,,HRV,HRV_0231,2022-11-30 19:49:50
,wl-html-button-response,225,602318,0.0-9.0-0.0,,,,,,,,,,,,2651.4000000953674,,0,,,,,,,,,,,,,,,,,,<h3>End of this session. Thank you!</h3><br>,['Close window'],HRV,HRV_0231,2022-11-30 19:49:50
