trialN,stimuli,trialStartTime,trialStartTime_UNIX,stimulus1,stimulus2,stimulus1Bid,stimulus2Bid,delta,trialEvents,selected,rt,rt_UNIX,rt_perfnow,receivedResponse,rsp,trialEndTime,trialDuration,trialEndTime_UNIX,trialDuration_UNIX,exp,subjectId,date
0,"[{'imgObject': {}, 'id': 'rigatoni', 'src': '/static/foodstim60/rigatoni.jpg', 'key': 'u', 'origWidth': 411, 'origHeight': 411, 'width': 411, 'height': 411, 'widthPercent': 0.45, 'rescaleHeight': False, 'trialN': 0, 'loaded': True, 'loadedTime': 231572.20000004768, 'positionName': 'LEFT', 'positionCoords': [510.6, 263], 'bid': 0.58}, {'imgObject': {}, 'id': 'cheerios', 'src': '/static/foodstim60/cheerios.jpg', 'key': 'i', 'origWidth': 409, 'origHeight': 410, 'width': 409, 'height': 410, 'widthPercent': 0.45, 'rescaleHeight': False, 'trialN': 0, 'loaded': True, 'loadedTime': 231577.60000014305, 'positionName': 'RIGHT', 'positionCoords': [998.4, 263.5], 'bid': 2.54}]",231439.29999995232,1669836863215,rigatoni,cheerios,0.58,2.54,1.96,"[{'event': 'fullscreenchange', 'details': 'fullscreenexit', 'performance time': 231440.40000009537, 'date time': 1669836863216}]",cheerios,2642.9000000953674,2644,2643.5,True,i,234598.40000009537,3159.100000143051,1669836866374,3159,HRV,HRV_0231,2022-11-30 19:39:41
1,"[{'imgObject': {}, 'id': 'luckycharms', 'src': '/static/foodstim60/luckycharms.jpg', 'key': 'u', 'origWidth': 410, 'origHeight': 409, 'width': 410, 'height': 409, 'widthPercent': 0.45, 'rescaleHeight': False, 'trialN': 1, 'loaded': True, 'loadedTime': 234604.60000014305, 'positionName': 'LEFT', 'positionCoords': [511.6, 264], 'bid': 4.14}, {'imgObject': {}, 'id': 'blueberries', 'src': '/static/foodstim60/blueberries.jpg', 'key': 'i', 'origWidth': 411, 'origHeight': 411, 'width': 411, 'height': 411, 'widthPercent': 0.45, 'rescaleHeight': False, 'trialN': 1, 'loaded': True, 'loadedTime': 234608.60000014305, 'positionName': 'RIGHT', 'positionCoords': [998.4, 263], 'bid': 7.75}]",234599.0,1669836866375,luckycharms,blueberries,4.14,7.75,3.6100000000000003,,blueberries,1083.1000001430511,1083,1083.2999999523163,True,i,236196.60000014305,1597.6000001430511,1669836867972,1597,HRV,HRV_0231,2022-11-30 19:39:41
2,"[{'imgObject': {}, 'id': 'tacos', 'src': '/static/foodstim60/tacos.jpg', 'key': 'u', 'origWidth': 411, 'origHeight': 411, 'width': 411, 'height': 411, 'widthPercent': 0.45, 'rescaleHeight': False, 'trialN': 2, 'loaded': True, 'loadedTime': 236202.5, 'positionName': 'LEFT', 'positionCoords': [510.6, 263], 'bid': 7.57}, {'imgObject': {}, 'id': 'avocado', 'src': '/static/foodstim60/avocado.jpg', 'key': 'i', 'origWidth': 409, 'origHeight': 409, 'width': 409, 'height': 409, 'widthPercent': 0.45, 'rescaleHeight': False, 'trialN': 2, 'loaded': True, 'loadedTime': 236207.40000009537, 'positionName': 'RIGHT', 'positionCoords': [998.4, 264], 'bid': 7.29}]",236196.90000009537,1669836867973,tacos,avocado,7.57,7.29,-0.28000000000000025,,tacos,1233.5,1233,1233.7999999523163,True,u,237944.10000014305,1747.2000000476837,1669836869720,1747,HRV,HRV_0231,2022-11-30 19:39:41
3,"[{'imgObject': {}, 'id': 'omelette', 'src': '/static/foodstim60/omelette.jpg', 'key': 'u', 'origWidth': 410, 'origHeight': 409, 'width': 410, 'height': 409, 'widthPercent': 0.45, 'rescaleHeight': False, 'trialN': 3, 'loaded': True, 'loadedTime': 237950.10000014305, 'positionName': 'LEFT', 'positionCoords': [511.6, 264], 'bid': 6.59}, {'imgObject': {}, 'id': 'raspberries', 'src': '/static/foodstim60/raspberries.jpg', 'key': 'i', 'origWidth': 411, 'origHeight': 411, 'width': 411, 'height': 411, 'widthPercent': 0.45, 'rescaleHeight': False, 'trialN': 3, 'loaded': True, 'loadedTime': 237955.10000014305, 'positionName': 'RIGHT', 'positionCoords': [998.4, 263], 'bid': 9.26}]",237944.5,1669836869720,omelette,raspberries,6.59,9.26,2.67,,raspberries,1097.2000000476837,1098,1097.4000000953674,True,i,239551.79999995232,1607.2999999523163,1669836871328,1608,HRV,HRV_0231,2022-11-30 19:39:41
4,"[{'imgObject': {}, 'id': 'sweetpotato', 'src': '/static/foodstim60/sweetpotato.jpg', 'key': 'u', 'origWidth': 410, 'origHeight': 410, 'width': 410, 'height': 410, 'widthPercent': 0.45, 'rescaleHeight': False, 'trialN': 4, 'loaded': True, 'loadedTime': 239560.79999995232, 'positionName': 'LEFT', 'positionCoords': [511.6, 263.5], 'bid': 3.6}, {'imgObject': {}, 'id': 'lox', 'src': '/static/foodstim60/lox.jpg', 'key': 'i', 'origWidth': 410, 'origHeight': 411, 'width': 410, 'height': 411, 'widthPercent': 0.45, 'rescaleHeight': False, 'trialN': 4, 'loaded': True, 'loadedTime': 239564.90000009537, 'positionName': 'RIGHT', 'positionCoords': [998.4, 263], 'bid': 3.62}]",239552.29999995232,1669836871328,sweetpotato,lox,3.6,3.62,0.020000000000000018,,sweetpotato,1563.5,1564,1563.7000000476837,True,u,241631.70000004768,2079.4000000953674,1669836873407,2079,HRV,HRV_0231,2022-11-30 19:39:41
5,"[{'imgObject': {}, 'id': 'salad w chicken', 'src': '/static/foodstim60/salad w chicken.jpg', 'key': 'u', 'origWidth': 411, 'origHeight': 411, 'width': 411, 'height': 411, 'widthPercent': 0.45, 'rescaleHeight': False, 'trialN': 5, 'loaded': True, 'loadedTime': 241636.60000014305, 'positionName': 'LEFT', 'positionCoords': [510.6, 263], 'bid': 7.88}, {'imgObject': {}, 'id': 'mango', 'src': '/static/foodstim60/mango.jpg', 'key': 'i', 'origWidth': 411, 'origHeight': 411, 'width': 411, 'height': 411, 'widthPercent': 0.45, 'rescaleHeight': False, 'trialN': 5, 'loaded': True, 'loadedTime': 241641.40000009537, 'positionName': 'RIGHT', 'positionCoords': [998.4, 263], 'bid': 6.640000000000001}]",241632.0,1669836873408,salad w chicken,mango,7.88,6.640000000000001,-1.2399999999999993,,salad w chicken,1102.0,1102,1102.2999999523163,True,u,243247.40000009537,1615.4000000953674,1669836875023,1615,HRV,HRV_0231,2022-11-30 19:39:41
6,"[{'imgObject': {}, 'id': 'grilled chicken strips', 'src': '/static/foodstim60/grilled chicken strips.jpg', 'key': 'u', 'origWidth': 410, 'origHeight': 411, 'width': 410, 'height': 411, 'widthPercent': 0.45, 'rescaleHeight': False, 'trialN': 6, 'loaded': True, 'loadedTime': 243253.10000014305, 'positionName': 'LEFT', 'positionCoords': [511.6, 263], 'bid': 4.97}, {'imgObject': {}, 'id': 'hashbrowns', 'src': '/static/foodstim60/hashbrowns.jpg', 'key': 'i', 'origWidth': 411, 'origHeight': 410, 'width': 411, 'height': 410, 'widthPercent': 0.45, 'rescaleHeight': False, 'trialN': 6, 'loaded': True, 'loadedTime': 243258.10000014305, 'positionName': 'RIGHT', 'positionCoords': [998.4, 263.5], 'bid': 4.84}]",243247.79999995232,1669836875024,grilled chicken strips,hashbrowns,4.97,4.84,-0.1299999999999999,,grilled chicken strips,1977.1000001430511,1977,1977.4000000953674,True,u,245741.90000009537,2494.100000143051,1669836877518,2494,HRV,HRV_0231,2022-11-30 19:39:41
7,"[{'imgObject': {}, 'id': 'omelette', 'src': '/static/foodstim60/omelette.jpg', 'key': 'u', 'origWidth': 410, 'origHeight': 409, 'width': 410, 'height': 409, 'widthPercent': 0.45, 'rescaleHeight': False, 'trialN': 7, 'loaded': True, 'loadedTime': 245750.70000004768, 'positionName': 'LEFT', 'positionCoords': [511.6, 264], 'bid': 6.59}, {'imgObject': {}, 'id': 'cherries', 'src': '/static/foodstim60/cherries.jpg', 'key': 'i', 'origWidth': 410, 'origHeight': 411, 'width': 410, 'height': 411, 'widthPercent': 0.45, 'rescaleHeight': False, 'trialN': 7, 'loaded': True, 'loadedTime': 245756.20000004768, 'positionName': 'RIGHT', 'positionCoords': [998.4, 263], 'bid': 7.84}]",245743.10000014305,1669836877519,omelette,cherries,6.59,7.84,1.25,,cherries,987.5999999046326,988,987.6999998092651,True,i,247247.20000004768,1504.0999999046326,1669836879023,1504,HRV,HRV_0231,2022-11-30 19:39:41
8,"[{'imgObject': {}, 'id': 'chickenfingers', 'src': '/static/foodstim60/chickenfingers.jpg', 'key': 'u', 'origWidth': 410, 'origHeight': 410, 'width': 410, 'height': 410, 'widthPercent': 0.45, 'rescaleHeight': False, 'trialN': 8, 'loaded': True, 'loadedTime': 247252.90000009537, 'positionName': 'LEFT', 'positionCoords': [511.6, 263.5], 'bid': 8.44}, {'imgObject': {}, 'id': 'orange slices', 'src': '/static/foodstim60/orange slices.jpg', 'key': 'i', 'origWidth': 409, 'origHeight': 410, 'width': 409, 'height': 410, 'widthPercent': 0.45, 'rescaleHeight': False, 'trialN': 8, 'loaded': True, 'loadedTime': 247253.40000009537, 'positionName': 'RIGHT', 'positionCoords': [998.4, 263.5], 'bid': 6.67}]",247247.70000004768,1669836879023,chickenfingers,orange slices,8.44,6.67,-1.7699999999999996,,chickenfingers,970.2999999523163,971,970.4000000953674,True,u,248730.70000004768,1483.0,1669836880507,1484,HRV,HRV_0231,2022-11-30 19:39:41
9,"[{'imgObject': {}, 'id': 'cantaloupe', 'src': '/static/foodstim60/cantaloupe.jpg', 'key': 'u', 'origWidth': 409, 'origHeight': 409, 'width': 409, 'height': 409, 'widthPercent': 0.45, 'rescaleHeight': False, 'trialN': 9, 'loaded': True, 'loadedTime': 248735.70000004768, 'positionName': 'LEFT', 'positionCoords': [512.6, 264], 'bid': 4.73}, {'imgObject': {}, 'id': 'baked potato', 'src': '/static/foodstim60/baked potato.jpg', 'key': 'i', 'origWidth': 409, 'origHeight': 410, 'width': 409, 'height': 410, 'widthPercent': 0.45, 'rescaleHeight': False, 'trialN': 9, 'loaded': True, 'loadedTime': 248736.60000014305, 'positionName': 'RIGHT', 'positionCoords': [998.4, 263.5], 'bid': 3.42}]",248731.20000004768,1669836880507,cantaloupe,baked potato,4.73,3.42,-1.3100000000000005,,cantaloupe,1276.9000000953674,1277,1277.0999999046326,True,u,250515.40000009537,1784.2000000476837,1669836882291,1784,HRV,HRV_0231,2022-11-30 19:39:41
10,"[{'imgObject': {}, 'id': 'pear', 'src': '/static/foodstim60/pear.jpg', 'key': 'u', 'origWidth': 411, 'origHeight': 410, 'width': 411, 'height': 410, 'widthPercent': 0.45, 'rescaleHeight': False, 'trialN': 10, 'loaded': True, 'loadedTime': 250521, 'positionName': 'LEFT', 'positionCoords': [510.6, 263.5], 'bid': 5.45}, {'imgObject': {}, 'id': 'cheerios', 'src': '/static/foodstim60/cheerios.jpg', 'key': 'i', 'origWidth': 409, 'origHeight': 410, 'width': 409, 'height': 410, 'widthPercent': 0.45, 'rescaleHeight': False, 'trialN': 10, 'loaded': True, 'loadedTime': 250525.20000004768, 'positionName': 'RIGHT', 'positionCoords': [998.4, 263.5], 'bid': 2.54}]",250515.90000009537,1669836882292,pear,cheerios,5.45,2.54,-2.91,,pear,953.5,953,953.7000000476837,True,u,251981.5,1465.5999999046326,1669836883757,1465,HRV,HRV_0231,2022-11-30 19:39:41
11,"[{'imgObject': {}, 'id': 'salad w chicken', 'src': '/static/foodstim60/salad w chicken.jpg', 'key': 'u', 'origWidth': 411, 'origHeight': 411, 'width': 411, 'height': 411, 'widthPercent': 0.45, 'rescaleHeight': False, 'trialN': 11, 'loaded': True, 'loadedTime': 251989.79999995232, 'positionName': 'LEFT', 'positionCoords': [510.6, 263], 'bid': 7.88}, {'imgObject': {}, 'id': 'cherries', 'src': '/static/foodstim60/cherries.jpg', 'key': 'i', 'origWidth': 410, 'origHeight': 411, 'width': 410, 'height': 411, 'widthPercent': 0.45, 'rescaleHeight': False, 'trialN': 11, 'loaded': True, 'loadedTime': 251994.40000009537, 'positionName': 'RIGHT', 'positionCoords': [998.4, 263], 'bid': 7.84}]",251982.20000004768,1669836883758,salad w chicken,cherries,7.88,7.84,-0.040000000000000036,,salad w chicken,993.4000000953674,994,993.5999999046326,True,u,253494.29999995232,1512.0999999046326,1669836885270,1512,HRV,HRV_0231,2022-11-30 19:39:41
12,"[{'imgObject': {}, 'id': 'ice cream sundae 002', 'src': '/static/foodstim60/ice cream sundae 002.jpg', 'key': 'u', 'origWidth': 409, 'origHeight': 409, 'width': 409, 'height': 409, 'widthPercent': 0.45, 'rescaleHeight': False, 'trialN': 12, 'loaded': True, 'loadedTime': 253499.40000009537, 'positionName': 'LEFT', 'positionCoords': [512.6, 264], 'bid': 4.53}, {'imgObject': {}, 'id': 'apple slices', 'src': '/static/foodstim60/apple slices.jpg', 'key': 'i', 'origWidth': 409, 'origHeight': 410, 'width': 409, 'height': 410, 'widthPercent': 0.45, 'rescaleHeight': False, 'trialN': 12, 'loaded': True, 'loadedTime': 253505.29999995232, 'positionName': 'RIGHT', 'positionCoords': [998.4, 263.5], 'bid': 5}]",253494.70000004768,1669836885270,ice cream sundae 002,apple slices,4.53,5.0,0.46999999999999975,,ice cream sundae 002,1375.5,1376,1375.7999999523163,True,u,255387.40000009537,1892.7000000476837,1669836887163,1893,HRV,HRV_0231,2022-11-30 19:39:41
13,"[{'imgObject': {}, 'id': 'cheerios', 'src': '/static/foodstim60/cheerios.jpg', 'key': 'u', 'origWidth': 409, 'origHeight': 410, 'width': 409, 'height': 410, 'widthPercent': 0.45, 'rescaleHeight': False, 'trialN': 13, 'loaded': True, 'loadedTime': 255392, 'positionName': 'LEFT', 'positionCoords': [512.6, 263.5], 'bid': 2.54}, {'imgObject': {}, 'id': 'seaweed', 'src': '/static/foodstim60/seaweed.jpg', 'key': 'i', 'origWidth': 410, 'origHeight': 410, 'width': 410, 'height': 410, 'widthPercent': 0.45, 'rescaleHeight': False, 'trialN': 13, 'loaded': True, 'loadedTime': 255392.40000009537, 'positionName': 'RIGHT', 'positionCoords': [998.4, 263.5], 'bid': 2.37}]",255387.79999995232,1669836887164,cheerios,seaweed,2.54,2.37,-0.16999999999999993,,cheerios,1039.7000000476837,1039,1039.8000001907349,True,u,256943.29999995232,1555.5,1669836888719,1555,HRV,HRV_0231,2022-11-30 19:39:41
14,"[{'imgObject': {}, 'id': 'edamame', 'src': '/static/foodstim60/edamame.jpg', 'key': 'u', 'origWidth': 409, 'origHeight': 410, 'width': 409, 'height': 410, 'widthPercent': 0.45, 'rescaleHeight': False, 'trialN': 14, 'loaded': True, 'loadedTime': 256948, 'positionName': 'LEFT', 'positionCoords': [512.6, 263.5], 'bid': 4.07}, {'imgObject': {}, 'id': 'seaweed', 'src': '/static/foodstim60/seaweed.jpg', 'key': 'i', 'origWidth': 410, 'origHeight': 410, 'width': 410, 'height': 410, 'widthPercent': 0.45, 'rescaleHeight': False, 'trialN': 14, 'loaded': True, 'loadedTime': 256951.90000009537, 'positionName': 'RIGHT', 'positionCoords': [998.4, 263.5], 'bid': 2.37}]",256943.79999995232,1669836888720,edamame,seaweed,4.07,2.37,-1.7000000000000002,,edamame,763.4000000953674,763,763.7000000476837,True,u,258222.60000014305,1278.8000001907349,1669836889998,1278,HRV,HRV_0231,2022-11-30 19:39:41
15,"[{'imgObject': {}, 'id': 'grilled chicken strips', 'src': '/static/foodstim60/grilled chicken strips.jpg', 'key': 'u', 'origWidth': 410, 'origHeight': 411, 'width': 410, 'height': 411, 'widthPercent': 0.45, 'rescaleHeight': False, 'trialN': 15, 'loaded': True, 'loadedTime': 258229.5, 'positionName': 'LEFT', 'positionCoords': [511.6, 263], 'bid': 4.97}, {'imgObject': {}, 'id': 'rigatoni and sauce', 'src': '/static/foodstim60/rigatoni and sauce.jpg', 'key': 'i', 'origWidth': 410, 'origHeight': 411, 'width': 410, 'height': 411, 'widthPercent': 0.45, 'rescaleHeight': False, 'trialN': 15, 'loaded': True, 'loadedTime': 258233.20000004768, 'positionName': 'RIGHT', 'positionCoords': [998.4, 263], 'bid': 3.95}]",258223.20000004768,1669836889999,grilled chicken strips,rigatoni and sauce,4.97,3.95,-1.0199999999999996,,grilled chicken strips,1526.2999999523163,1526,1526.5,True,u,260265.29999995232,2042.0999999046326,1669836892041,2042,HRV,HRV_0231,2022-11-30 19:39:41
16,"[{'imgObject': {}, 'id': 'rigatoni', 'src': '/static/foodstim60/rigatoni.jpg', 'key': 'u', 'origWidth': 411, 'origHeight': 411, 'width': 411, 'height': 411, 'widthPercent': 0.45, 'rescaleHeight': False, 'trialN': 16, 'loaded': True, 'loadedTime': 260270.70000004768, 'positionName': 'LEFT', 'positionCoords': [510.6, 263], 'bid': 0.58}, {'imgObject': {}, 'id': 'raisin bran w milk', 'src': '/static/foodstim60/raisin bran w milk.jpg', 'key': 'i', 'origWidth': 411, 'origHeight': 411, 'width': 411, 'height': 411, 'widthPercent': 0.45, 'rescaleHeight': False, 'trialN': 16, 'loaded': True, 'loadedTime': 260275.79999995232, 'positionName': 'RIGHT', 'positionCoords': [998.4, 263], 'bid': 1.83}]",260265.70000004768,1669836892042,rigatoni,raisin bran w milk,0.58,1.83,1.25,,raisin bran w milk,996.2000000476837,996,996.5,True,i,261777.40000009537,1511.7000000476837,1669836893553,1511,HRV,HRV_0231,2022-11-30 19:39:41
17,"[{'imgObject': {}, 'id': 'cantaloupe', 'src': '/static/foodstim60/cantaloupe.jpg', 'key': 'u', 'origWidth': 409, 'origHeight': 409, 'width': 409, 'height': 409, 'widthPercent': 0.45, 'rescaleHeight': False, 'trialN': 17, 'loaded': True, 'loadedTime': 261782.60000014305, 'positionName': 'LEFT', 'positionCoords': [512.6, 264], 'bid': 4.73}, {'imgObject': {}, 'id': 'ice cream sundae 002', 'src': '/static/foodstim60/ice cream sundae 002.jpg', 'key': 'i', 'origWidth': 409, 'origHeight': 409, 'width': 409, 'height': 409, 'widthPercent': 0.45, 'rescaleHeight': False, 'trialN': 17, 'loaded': True, 'loadedTime': 261783.10000014305, 'positionName': 'RIGHT', 'positionCoords': [998.4, 264], 'bid': 4.53}]",261777.79999995232,1669836893554,cantaloupe,ice cream sundae 002,4.73,4.53,-0.20000000000000018,,ice cream sundae 002,1193.1000001430511,1193,1193.3000001907349,True,i,263501.60000014305,1723.8000001907349,1669836895277,1723,HRV,HRV_0231,2022-11-30 19:39:41
18,"[{'imgObject': {}, 'id': 'chickenfingers', 'src': '/static/foodstim60/chickenfingers.jpg', 'key': 'u', 'origWidth': 410, 'origHeight': 410, 'width': 410, 'height': 410, 'widthPercent': 0.45, 'rescaleHeight': False, 'trialN': 18, 'loaded': True, 'loadedTime': 263508, 'positionName': 'LEFT', 'positionCoords': [511.6, 263.5], 'bid': 8.44}, {'imgObject': {}, 'id': 'corn cob', 'src': '/static/foodstim60/corn cob.jpg', 'key': 'i', 'origWidth': 411, 'origHeight': 411, 'width': 411, 'height': 411, 'widthPercent': 0.45, 'rescaleHeight': False, 'trialN': 18, 'loaded': True, 'loadedTime': 263513.40000009537, 'positionName': 'RIGHT', 'positionCoords': [998.4, 263], 'bid': 4.55}]",263502.0,1669836895278,chickenfingers,corn cob,8.44,4.55,-3.8899999999999997,,chickenfingers,1064.2000000476837,1064,1064.5,True,u,265082.40000009537,1580.4000000953674,1669836896858,1580,HRV,HRV_0231,2022-11-30 19:39:41
19,"[{'imgObject': {}, 'id': 'turkey sandwich', 'src': '/static/foodstim60/turkey sandwich.jpg', 'key': 'u', 'origWidth': 409, 'origHeight': 409, 'width': 409, 'height': 409, 'widthPercent': 0.45, 'rescaleHeight': False, 'trialN': 19, 'loaded': True, 'loadedTime': 265087.7999999523, 'positionName': 'LEFT', 'positionCoords': [512.6, 264], 'bid': 5.0200000000000005}, {'imgObject': {}, 'id': 'corn cob', 'src': '/static/foodstim60/corn cob.jpg', 'key': 'i', 'origWidth': 411, 'origHeight': 411, 'width': 411, 'height': 411, 'widthPercent': 0.45, 'rescaleHeight': False, 'trialN': 19, 'loaded': True, 'loadedTime': 265088.7999999523, 'positionName': 'RIGHT', 'positionCoords': [998.4, 263], 'bid': 4.55}]",265082.7999999523,1669836896859,turkey sandwich,corn cob,5.0200000000000005,4.55,-0.47000000000000064,,turkey sandwich,1254.7000000476837,1254,1254.8000001907349,True,u,266844.10000014305,1761.3000001907349,1669836898620,1761,HRV,HRV_0231,2022-11-30 19:39:41
20,"[{'imgObject': {}, 'id': 'avocado', 'src': '/static/foodstim60/avocado.jpg', 'key': 'u', 'origWidth': 409, 'origHeight': 409, 'width': 409, 'height': 409, 'widthPercent': 0.45, 'rescaleHeight': False, 'trialN': 20, 'loaded': True, 'loadedTime': 266855.10000014305, 'positionName': 'LEFT', 'positionCoords': [512.6, 264], 'bid': 7.29}, {'imgObject': {}, 'id': 'roastedpotatoes', 'src': '/static/foodstim60/roastedpotatoes.jpg', 'key': 'i', 'origWidth': 409, 'origHeight': 410, 'width': 409, 'height': 410, 'widthPercent': 0.45, 'rescaleHeight': False, 'trialN': 20, 'loaded': True, 'loadedTime': 266860.10000014305, 'positionName': 'RIGHT', 'positionCoords': [998.4, 263.5], 'bid': 5.88}]",266844.7000000477,1669836898620,avocado,roastedpotatoes,7.29,5.88,-1.4100000000000001,,avocado,2186.5999999046326,2187,2186.9000000953674,True,u,269547.2999999523,2702.5999999046326,1669836901323,2703,HRV,HRV_0231,2022-11-30 19:39:41
21,"[{'imgObject': {}, 'id': 'sweetpotato', 'src': '/static/foodstim60/sweetpotato.jpg', 'key': 'u', 'origWidth': 410, 'origHeight': 410, 'width': 410, 'height': 410, 'widthPercent': 0.45, 'rescaleHeight': False, 'trialN': 21, 'loaded': True, 'loadedTime': 269553.60000014305, 'positionName': 'LEFT', 'positionCoords': [511.6, 263.5], 'bid': 3.6}, {'imgObject': {}, 'id': 'rigatoni and sauce', 'src': '/static/foodstim60/rigatoni and sauce.jpg', 'key': 'i', 'origWidth': 410, 'origHeight': 411, 'width': 410, 'height': 411, 'widthPercent': 0.45, 'rescaleHeight': False, 'trialN': 21, 'loaded': True, 'loadedTime': 269558, 'positionName': 'RIGHT', 'positionCoords': [998.4, 263], 'bid': 3.95}]",269547.60000014305,1669836901323,sweetpotato,rigatoni and sauce,3.6,3.95,0.3500000000000001,,rigatoni and sauce,966.3999998569489,967,966.5,True,i,271018.2999999523,1470.6999998092651,1669836902794,1471,HRV,HRV_0231,2022-11-30 19:39:41
22,"[{'imgObject': {}, 'id': 'popsicles', 'src': '/static/foodstim60/popsicles.jpg', 'key': 'u', 'origWidth': 410, 'origHeight': 410, 'width': 410, 'height': 410, 'widthPercent': 0.45, 'rescaleHeight': False, 'trialN': 22, 'loaded': True, 'loadedTime': 271024.10000014305, 'positionName': 'LEFT', 'positionCoords': [511.6, 263.5], 'bid': 3.14}, {'imgObject': {}, 'id': 'granola w milk', 'src': '/static/foodstim60/granola w milk.jpg', 'key': 'i', 'origWidth': 410, 'origHeight': 410, 'width': 410, 'height': 410, 'widthPercent': 0.45, 'rescaleHeight': False, 'trialN': 22, 'loaded': True, 'loadedTime': 271028.60000014305, 'positionName': 'RIGHT', 'positionCoords': [998.4, 263.5], 'bid': 2.35}]",271018.7000000477,1669836902794,popsicles,granola w milk,3.14,2.35,-0.79,,granola w milk,1222.7000000476837,1223,1222.7999999523163,True,i,272751.2999999523,1732.5999999046326,1669836904527,1733,HRV,HRV_0231,2022-11-30 19:39:41
23,"[{'imgObject': {}, 'id': 'chickenfingers', 'src': '/static/foodstim60/chickenfingers.jpg', 'key': 'u', 'origWidth': 410, 'origHeight': 410, 'width': 410, 'height': 410, 'widthPercent': 0.45, 'rescaleHeight': False, 'trialN': 23, 'loaded': True, 'loadedTime': 272757.7000000477, 'positionName': 'LEFT', 'positionCoords': [511.6, 263.5], 'bid': 8.44}, {'imgObject': {}, 'id': 'eggsalad', 'src': '/static/foodstim60/eggsalad.jpg', 'key': 'i', 'origWidth': 410, 'origHeight': 409, 'width': 410, 'height': 409, 'widthPercent': 0.45, 'rescaleHeight': False, 'trialN': 23, 'loaded': True, 'loadedTime': 272762.10000014305, 'positionName': 'RIGHT', 'positionCoords': [998.4, 264], 'bid': 6.12}]",272751.60000014305,1669836904527,chickenfingers,eggsalad,8.44,6.12,-2.3199999999999994,,chickenfingers,1560.0999999046326,1560,1560.2999999523163,True,u,274817.10000014305,2065.5,1669836906593,2066,HRV,HRV_0231,2022-11-30 19:39:41
24,"[{'imgObject': {}, 'id': 'roastedpotatoes', 'src': '/static/foodstim60/roastedpotatoes.jpg', 'key': 'u', 'origWidth': 409, 'origHeight': 410, 'width': 409, 'height': 410, 'widthPercent': 0.45, 'rescaleHeight': False, 'trialN': 24, 'loaded': True, 'loadedTime': 274824.2000000477, 'positionName': 'LEFT', 'positionCoords': [512.6, 263.5], 'bid': 5.88}, {'imgObject': {}, 'id': 'turkeysandwich', 'src': '/static/foodstim60/turkeysandwich.jpg', 'key': 'i', 'origWidth': 409, 'origHeight': 409, 'width': 409, 'height': 409, 'widthPercent': 0.45, 'rescaleHeight': False, 'trialN': 24, 'loaded': True, 'loadedTime': 274828.40000009537, 'positionName': 'RIGHT', 'positionCoords': [998.4, 264], 'bid': 3.12}]",274817.60000014305,1669836906593,roastedpotatoes,turkeysandwich,5.88,3.12,-2.76,,roastedpotatoes,1603.2999999523163,1604,1603.5999999046326,True,u,276933.5,2115.899999856949,1669836908709,2116,HRV,HRV_0231,2022-11-30 19:39:41
25,"[{'imgObject': {}, 'id': 'chickenfingers', 'src': '/static/foodstim60/chickenfingers.jpg', 'key': 'u', 'origWidth': 410, 'origHeight': 410, 'width': 410, 'height': 410, 'widthPercent': 0.45, 'rescaleHeight': False, 'trialN': 25, 'loaded': True, 'loadedTime': 276939.7999999523, 'positionName': 'LEFT', 'positionCoords': [511.6, 263.5], 'bid': 8.44}, {'imgObject': {}, 'id': 'mac & cheese', 'src': '/static/foodstim60/mac & cheese.jpg', 'key': 'i', 'origWidth': 410, 'origHeight': 410, 'width': 410, 'height': 410, 'widthPercent': 0.45, 'rescaleHeight': False, 'trialN': 25, 'loaded': True, 'loadedTime': 276946.2999999523, 'positionName': 'RIGHT', 'positionCoords': [998.4, 263.5], 'bid': 8.66}]",276934.0,1669836908710,chickenfingers,mac & cheese,8.44,8.66,0.22000000000000064,,mac & cheese,1180.2000000476837,1180,1180.4000000953674,True,i,278626.5,1692.5,1669836910402,1692,HRV,HRV_0231,2022-11-30 19:39:41
26,"[{'imgObject': {}, 'id': 'burrito', 'src': '/static/foodstim60/burrito.jpg', 'key': 'u', 'origWidth': 410, 'origHeight': 410, 'width': 410, 'height': 410, 'widthPercent': 0.45, 'rescaleHeight': False, 'trialN': 26, 'loaded': True, 'loadedTime': 278631.7000000477, 'positionName': 'LEFT', 'positionCoords': [511.6, 263.5], 'bid': 8.82}, {'imgObject': {}, 'id': 'chickenfingers', 'src': '/static/foodstim60/chickenfingers.jpg', 'key': 'i', 'origWidth': 410, 'origHeight': 410, 'width': 410, 'height': 410, 'widthPercent': 0.45, 'rescaleHeight': False, 'trialN': 26, 'loaded': True, 'loadedTime': 278632.2000000477, 'positionName': 'RIGHT', 'positionCoords': [998.4, 263.5], 'bid': 8.44}]",278626.90000009537,1669836910403,burrito,chickenfingers,8.82,8.44,-0.3800000000000008,,burrito,1074.0,1074,1074.2000000476837,True,u,280211.40000009537,1584.5,1669836911987,1584,HRV,HRV_0231,2022-11-30 19:39:41
27,"[{'imgObject': {}, 'id': 'cherries', 'src': '/static/foodstim60/cherries.jpg', 'key': 'u', 'origWidth': 410, 'origHeight': 411, 'width': 410, 'height': 411, 'widthPercent': 0.45, 'rescaleHeight': False, 'trialN': 27, 'loaded': True, 'loadedTime': 280217.7000000477, 'positionName': 'LEFT', 'positionCoords': [511.6, 263], 'bid': 7.84}, {'imgObject': {}, 'id': 'blueberries', 'src': '/static/foodstim60/blueberries.jpg', 'key': 'i', 'origWidth': 411, 'origHeight': 411, 'width': 411, 'height': 411, 'widthPercent': 0.45, 'rescaleHeight': False, 'trialN': 27, 'loaded': True, 'loadedTime': 280222.40000009537, 'positionName': 'RIGHT', 'positionCoords': [998.4, 263], 'bid': 7.75}]",280211.90000009537,1669836911987,cherries,blueberries,7.84,7.75,-0.08999999999999986,,blueberries,879.5999999046326,880,879.7999999523163,True,i,281594.2999999523,1382.3999998569489,1669836913370,1383,HRV,HRV_0231,2022-11-30 19:39:41
28,"[{'imgObject': {}, 'id': 'burger', 'src': '/static/foodstim60/burger.jpg', 'key': 'u', 'origWidth': 409, 'origHeight': 409, 'width': 409, 'height': 409, 'widthPercent': 0.45, 'rescaleHeight': False, 'trialN': 28, 'loaded': True, 'loadedTime': 281600.7000000477, 'positionName': 'LEFT', 'positionCoords': [512.6, 264], 'bid': 5.7}, {'imgObject': {}, 'id': 'pear', 'src': '/static/foodstim60/pear.jpg', 'key': 'i', 'origWidth': 411, 'origHeight': 410, 'width': 411, 'height': 410, 'widthPercent': 0.45, 'rescaleHeight': False, 'trialN': 28, 'loaded': True, 'loadedTime': 281605.2999999523, 'positionName': 'RIGHT', 'positionCoords': [998.4, 263.5], 'bid': 5.45}]",281594.60000014305,1669836913370,burger,pear,5.7,5.45,-0.25,,burger,834.0999999046326,835,834.6999998092651,True,u,282944.2999999523,1349.6999998092651,1669836914720,1350,HRV,HRV_0231,2022-11-30 19:39:41
29,"[{'imgObject': {}, 'id': 'roastedpotatoes', 'src': '/static/foodstim60/roastedpotatoes.jpg', 'key': 'u', 'origWidth': 409, 'origHeight': 410, 'width': 409, 'height': 410, 'widthPercent': 0.45, 'rescaleHeight': False, 'trialN': 29, 'loaded': True, 'loadedTime': 282950.60000014305, 'positionName': 'LEFT', 'positionCoords': [512.6, 263.5], 'bid': 5.88}, {'imgObject': {}, 'id': 'orange slices', 'src': '/static/foodstim60/orange slices.jpg', 'key': 'i', 'origWidth': 409, 'origHeight': 410, 'width': 409, 'height': 410, 'widthPercent': 0.45, 'rescaleHeight': False, 'trialN': 29, 'loaded': True, 'loadedTime': 282955.10000014305, 'positionName': 'RIGHT', 'positionCoords': [998.4, 263.5], 'bid': 6.67}]",282944.7000000477,1669836914720,roastedpotatoes,orange slices,5.88,6.67,0.79,,orange slices,2412.5,2413,2412.7000000476837,True,i,285865.2999999523,2920.5999999046326,1669836917641,2921,HRV,HRV_0231,2022-11-30 19:39:41
30,"[{'imgObject': {}, 'id': 'fruitsalad', 'src': '/static/foodstim60/fruitsalad.jpg', 'key': 'u', 'origWidth': 410, 'origHeight': 410, 'width': 410, 'height': 410, 'widthPercent': 0.45, 'rescaleHeight': False, 'trialN': 30, 'loaded': True, 'loadedTime': 285871.10000014305, 'positionName': 'LEFT', 'positionCoords': [511.6, 263.5], 'bid': 7.8}, {'imgObject': {}, 'id': 'hotdog w must', 'src': '/static/foodstim60/hotdog w must.jpg', 'key': 'i', 'origWidth': 409, 'origHeight': 409, 'width': 409, 'height': 409, 'widthPercent': 0.45, 'rescaleHeight': False, 'trialN': 30, 'loaded': True, 'loadedTime': 285875.2999999523, 'positionName': 'RIGHT', 'positionCoords': [998.4, 264], 'bid': 4.23}]",285865.7999999523,1669836917641,fruitsalad,hotdog w must,7.8,4.23,-3.5699999999999994,,fruitsalad,1846.7000000476837,1847,1846.8000001907349,True,u,288226.90000009537,2361.100000143051,1669836920003,2362,HRV,HRV_0231,2022-11-30 19:39:41
31,"[{'imgObject': {}, 'id': 'banana', 'src': '/static/foodstim60/banana.jpg', 'key': 'u', 'origWidth': 410, 'origHeight': 410, 'width': 410, 'height': 410, 'widthPercent': 0.45, 'rescaleHeight': False, 'trialN': 31, 'loaded': True, 'loadedTime': 288232, 'positionName': 'LEFT', 'positionCoords': [511.6, 263.5], 'bid': 5.69}, {'imgObject': {}, 'id': 'bagel and cc', 'src': '/static/foodstim60/bagel and cc.jpg', 'key': 'i', 'origWidth': 410, 'origHeight': 410, 'width': 410, 'height': 410, 'widthPercent': 0.45, 'rescaleHeight': False, 'trialN': 31, 'loaded': True, 'loadedTime': 288236.2999999523, 'positionName': 'RIGHT', 'positionCoords': [998.4, 263.5], 'bid': 5.41}]",288227.2000000477,1669836920003,banana,bagel and cc,5.69,5.41,-0.28000000000000025,,bagel and cc,1633.2999999523163,1633,1633.5999999046326,True,i,290375.5,2148.2999999523163,1669836922151,2148,HRV,HRV_0231,2022-11-30 19:39:41
32,"[{'imgObject': {}, 'id': 'strawberries', 'src': '/static/foodstim60/strawberries.jpg', 'key': 'u', 'origWidth': 410, 'origHeight': 410, 'width': 410, 'height': 410, 'widthPercent': 0.45, 'rescaleHeight': False, 'trialN': 32, 'loaded': True, 'loadedTime': 290380.40000009537, 'positionName': 'LEFT', 'positionCoords': [511.6, 263.5], 'bid': 7.140000000000001}, {'imgObject': {}, 'id': 'salmon', 'src': '/static/foodstim60/salmon.jpg', 'key': 'i', 'origWidth': 410, 'origHeight': 409, 'width': 410, 'height': 409, 'widthPercent': 0.45, 'rescaleHeight': False, 'trialN': 32, 'loaded': True, 'loadedTime': 290384.10000014305, 'positionName': 'RIGHT', 'positionCoords': [998.4, 264], 'bid': 5.07}]",290375.90000009537,1669836922151,strawberries,salmon,7.140000000000001,5.07,-2.0700000000000003,,strawberries,943.0999999046326,944,943.2999999523163,True,u,291840.2999999523,1464.3999998569489,1669836923616,1465,HRV,HRV_0231,2022-11-30 19:39:41
33,"[{'imgObject': {}, 'id': 'fried eggs', 'src': '/static/foodstim60/fried eggs.jpg', 'key': 'u', 'origWidth': 410, 'origHeight': 410, 'width': 410, 'height': 410, 'widthPercent': 0.45, 'rescaleHeight': False, 'trialN': 33, 'loaded': True, 'loadedTime': 291846.60000014305, 'positionName': 'LEFT', 'positionCoords': [511.6, 263.5], 'bid': 6.17}, {'imgObject': {}, 'id': 'roastedpotatoes', 'src': '/static/foodstim60/roastedpotatoes.jpg', 'key': 'i', 'origWidth': 409, 'origHeight': 410, 'width': 409, 'height': 410, 'widthPercent': 0.45, 'rescaleHeight': False, 'trialN': 33, 'loaded': True, 'loadedTime': 291847, 'positionName': 'RIGHT', 'positionCoords': [998.4, 263.5], 'bid': 5.88}]",291840.7999999523,1669836923616,fried eggs,roastedpotatoes,6.17,5.88,-0.29000000000000004,,fried eggs,1515.4000000953674,1516,1515.8000001907349,True,u,293871.90000009537,2031.1000001430511,1669836925647,2031,HRV,HRV_0231,2022-11-30 19:39:41
34,"[{'imgObject': {}, 'id': 'cherry tomato', 'src': '/static/foodstim60/cherry tomato.jpg', 'key': 'u', 'origWidth': 410, 'origHeight': 410, 'width': 410, 'height': 410, 'widthPercent': 0.45, 'rescaleHeight': False, 'trialN': 34, 'loaded': True, 'loadedTime': 293878.2999999523, 'positionName': 'LEFT', 'positionCoords': [511.6, 263.5], 'bid': 3.85}, {'imgObject': {}, 'id': 'blackbeanswithrice', 'src': '/static/foodstim60/blackbeanswithrice.jpg', 'key': 'i', 'origWidth': 410, 'origHeight': 410, 'width': 410, 'height': 410, 'widthPercent': 0.45, 'rescaleHeight': False, 'trialN': 34, 'loaded': True, 'loadedTime': 293882.40000009537, 'positionName': 'RIGHT', 'positionCoords': [998.4, 263.5], 'bid': 3.85}]",293872.2000000477,1669836925648,cherry tomato,blackbeanswithrice,3.85,3.85,0.0,,blackbeanswithrice,1742.4000000953674,1742,1742.7000000476837,True,i,296134.2999999523,2262.0999999046326,1669836927910,2262,HRV,HRV_0231,2022-11-30 19:39:41
35,"[{'imgObject': {}, 'id': 'chicken nuggets2', 'src': '/static/foodstim60/chicken nuggets2.jpg', 'key': 'u', 'origWidth': 410, 'origHeight': 409, 'width': 410, 'height': 409, 'widthPercent': 0.45, 'rescaleHeight': False, 'trialN': 35, 'loaded': True, 'loadedTime': 296138.90000009537, 'positionName': 'LEFT', 'positionCoords': [511.6, 264], 'bid': 6.23}, {'imgObject': {}, 'id': 'eggsalad', 'src': '/static/foodstim60/eggsalad.jpg', 'key': 'i', 'origWidth': 410, 'origHeight': 409, 'width': 410, 'height': 409, 'widthPercent': 0.45, 'rescaleHeight': False, 'trialN': 35, 'loaded': True, 'loadedTime': 296144, 'positionName': 'RIGHT', 'positionCoords': [998.4, 264], 'bid': 6.12}]",296134.7000000477,1669836927910,chicken nuggets2,eggsalad,6.23,6.12,-0.11000000000000032,,chicken nuggets2,1281.2000000476837,1282,1281.5,True,u,297929.2999999523,1794.5999999046326,1669836929705,1795,HRV,HRV_0231,2022-11-30 19:39:41
36,"[{'imgObject': {}, 'id': 'bagel and cc', 'src': '/static/foodstim60/bagel and cc.jpg', 'key': 'u', 'origWidth': 410, 'origHeight': 410, 'width': 410, 'height': 410, 'widthPercent': 0.45, 'rescaleHeight': False, 'trialN': 36, 'loaded': True, 'loadedTime': 297935.7000000477, 'positionName': 'LEFT', 'positionCoords': [511.6, 263.5], 'bid': 5.41}, {'imgObject': {}, 'id': 'fried eggs', 'src': '/static/foodstim60/fried eggs.jpg', 'key': 'i', 'origWidth': 410, 'origHeight': 410, 'width': 410, 'height': 410, 'widthPercent': 0.45, 'rescaleHeight': False, 'trialN': 36, 'loaded': True, 'loadedTime': 297939.90000009537, 'positionName': 'RIGHT', 'positionCoords': [998.4, 263.5], 'bid': 6.17}]",297929.7999999523,1669836929705,bagel and cc,fried eggs,5.41,6.17,0.7599999999999998,,fried eggs,1233.7000000476837,1235,1234.6000001430511,True,i,299666.90000009537,1737.1000001430511,1669836931442,1737,HRV,HRV_0231,2022-11-30 19:39:41
37,"[{'imgObject': {}, 'id': 'cocktailshrimp', 'src': '/static/foodstim60/cocktailshrimp.jpg', 'key': 'u', 'origWidth': 410, 'origHeight': 410, 'width': 410, 'height': 410, 'widthPercent': 0.45, 'rescaleHeight': False, 'trialN': 37, 'loaded': True, 'loadedTime': 299671.7000000477, 'positionName': 'LEFT', 'positionCoords': [511.6, 263.5], 'bid': 0.21}, {'imgObject': {}, 'id': 'lox', 'src': '/static/foodstim60/lox.jpg', 'key': 'i', 'origWidth': 410, 'origHeight': 411, 'width': 410, 'height': 411, 'widthPercent': 0.45, 'rescaleHeight': False, 'trialN': 37, 'loaded': True, 'loadedTime': 299672.2000000477, 'positionName': 'RIGHT', 'positionCoords': [998.4, 263], 'bid': 3.62}]",299667.2000000477,1669836931443,cocktailshrimp,lox,0.21,3.62,3.41,,lox,1167.5999999046326,1168,1167.9000000953674,True,i,301344.0,1676.7999999523163,1669836933120,1677,HRV,HRV_0231,2022-11-30 19:39:41
38,"[{'imgObject': {}, 'id': 'bagel plain', 'src': '/static/foodstim60/bagel plain.jpg', 'key': 'u', 'origWidth': 410, 'origHeight': 410, 'width': 410, 'height': 410, 'widthPercent': 0.45, 'rescaleHeight': False, 'trialN': 38, 'loaded': True, 'loadedTime': 301351.7000000477, 'positionName': 'LEFT', 'positionCoords': [511.6, 263.5], 'bid': 2.59}, {'imgObject': {}, 'id': 'sushi w_condiments', 'src': '/static/foodstim60/sushi w_condiments.jpg', 'key': 'i', 'origWidth': 410, 'origHeight': 410, 'width': 410, 'height': 410, 'widthPercent': 0.45, 'rescaleHeight': False, 'trialN': 38, 'loaded': True, 'loadedTime': 301357, 'positionName': 'RIGHT', 'positionCoords': [998.4, 263.5], 'bid': 3.11}]",301344.5,1669836933120,bagel plain,sushi w_condiments,2.59,3.11,0.52,,sushi w_condiments,1456.4000000953674,1457,1456.9000000953674,True,i,303309.40000009537,1964.9000000953674,1669836935085,1965,HRV,HRV_0231,2022-11-30 19:39:41
39,"[{'imgObject': {}, 'id': 'eggsalad', 'src': '/static/foodstim60/eggsalad.jpg', 'key': 'u', 'origWidth': 410, 'origHeight': 409, 'width': 410, 'height': 409, 'widthPercent': 0.45, 'rescaleHeight': False, 'trialN': 39, 'loaded': True, 'loadedTime': 303316, 'positionName': 'LEFT', 'positionCoords': [511.6, 264], 'bid': 6.12}, {'imgObject': {}, 'id': 'roastedpotatoes', 'src': '/static/foodstim60/roastedpotatoes.jpg', 'key': 'i', 'origWidth': 409, 'origHeight': 410, 'width': 409, 'height': 410, 'widthPercent': 0.45, 'rescaleHeight': False, 'trialN': 39, 'loaded': True, 'loadedTime': 303321.5, 'positionName': 'RIGHT', 'positionCoords': [998.4, 263.5], 'bid': 5.88}]",303309.7999999523,1669836935085,eggsalad,roastedpotatoes,6.12,5.88,-0.2400000000000002,,roastedpotatoes,1824.0,1825,1824.3000001907349,True,i,305654.10000014305,2344.300000190735,1669836937430,2345,HRV,HRV_0231,2022-11-30 19:39:41
40,"[{'imgObject': {}, 'id': 'popsicles', 'src': '/static/foodstim60/popsicles.jpg', 'key': 'u', 'origWidth': 410, 'origHeight': 410, 'width': 410, 'height': 410, 'widthPercent': 0.45, 'rescaleHeight': False, 'trialN': 40, 'loaded': True, 'loadedTime': 305658.7999999523, 'positionName': 'LEFT', 'positionCoords': [511.6, 263.5], 'bid': 3.14}, {'imgObject': {}, 'id': 'eggsalad', 'src': '/static/foodstim60/eggsalad.jpg', 'key': 'i', 'origWidth': 410, 'origHeight': 409, 'width': 410, 'height': 409, 'widthPercent': 0.45, 'rescaleHeight': False, 'trialN': 40, 'loaded': True, 'loadedTime': 305659.10000014305, 'positionName': 'RIGHT', 'positionCoords': [998.4, 264], 'bid': 6.12}]",305654.5,1669836937430,popsicles,eggsalad,3.14,6.12,2.98,,eggsalad,1100.7000000476837,1101,1101.0,True,i,307270.5,1616.0,1669836939046,1616,HRV,HRV_0231,2022-11-30 19:39:41
41,"[{'imgObject': {}, 'id': 'Tribe humus pita', 'src': '/static/foodstim60/Tribe humus pita.jpg', 'key': 'u', 'origWidth': 411, 'origHeight': 411, 'width': 411, 'height': 411, 'widthPercent': 0.45, 'rescaleHeight': False, 'trialN': 41, 'loaded': True, 'loadedTime': 307277.40000009537, 'positionName': 'LEFT', 'positionCoords': [510.6, 263], 'bid': 4.95}, {'imgObject': {}, 'id': 'veggieswithdip', 'src': '/static/foodstim60/veggieswithdip.jpg', 'key': 'i', 'origWidth': 409, 'origHeight': 409, 'width': 409, 'height': 409, 'widthPercent': 0.45, 'rescaleHeight': False, 'trialN': 41, 'loaded': True, 'loadedTime': 307281.5, 'positionName': 'RIGHT', 'positionCoords': [998.4, 264], 'bid': 5.41}]",307271.2999999523,1669836939047,Tribe humus pita,veggieswithdip,4.95,5.41,0.45999999999999996,,veggieswithdip,2420.4000000953674,2420,2420.600000143051,True,i,310201.90000009537,2930.600000143051,1669836941977,2930,HRV,HRV_0231,2022-11-30 19:39:41
42,"[{'imgObject': {}, 'id': 'sweetpotato', 'src': '/static/foodstim60/sweetpotato.jpg', 'key': 'u', 'origWidth': 410, 'origHeight': 410, 'width': 410, 'height': 410, 'widthPercent': 0.45, 'rescaleHeight': False, 'trialN': 42, 'loaded': True, 'loadedTime': 310209.5, 'positionName': 'LEFT', 'positionCoords': [511.6, 263.5], 'bid': 3.6}, {'imgObject': {}, 'id': 'olives', 'src': '/static/foodstim60/olives.jpg', 'key': 'i', 'origWidth': 410, 'origHeight': 410, 'width': 410, 'height': 410, 'widthPercent': 0.45, 'rescaleHeight': False, 'trialN': 42, 'loaded': True, 'loadedTime': 310213.7999999523, 'positionName': 'RIGHT', 'positionCoords': [998.4, 263.5], 'bid': 1.95}]",310202.2999999523,1669836941978,sweetpotato,olives,3.6,1.95,-1.6500000000000001,,sweetpotato,1114.9000000953674,1115,1115.1000001430511,True,u,311835.40000009537,1633.1000001430511,1669836943611,1633,HRV,HRV_0231,2022-11-30 19:39:41
43,"[{'imgObject': {}, 'id': 'burrito', 'src': '/static/foodstim60/burrito.jpg', 'key': 'u', 'origWidth': 410, 'origHeight': 410, 'width': 410, 'height': 410, 'widthPercent': 0.45, 'rescaleHeight': False, 'trialN': 43, 'loaded': True, 'loadedTime': 311841.40000009537, 'positionName': 'LEFT', 'positionCoords': [511.6, 263.5], 'bid': 8.82}, {'imgObject': {}, 'id': 'chicken nuggets2', 'src': '/static/foodstim60/chicken nuggets2.jpg', 'key': 'i', 'origWidth': 410, 'origHeight': 409, 'width': 410, 'height': 409, 'widthPercent': 0.45, 'rescaleHeight': False, 'trialN': 43, 'loaded': True, 'loadedTime': 311846.2000000477, 'positionName': 'RIGHT', 'positionCoords': [998.4, 264], 'bid': 6.23}]",311835.90000009537,1669836943611,burrito,chicken nuggets2,8.82,6.23,-2.59,,burrito,2147.399999856949,2148,2147.7999999523163,True,u,314502.90000009537,2667.0,1669836946278,2667,HRV,HRV_0231,2022-11-30 19:39:41
44,"[{'imgObject': {}, 'id': 'hashbrowns', 'src': '/static/foodstim60/hashbrowns.jpg', 'key': 'u', 'origWidth': 411, 'origHeight': 410, 'width': 411, 'height': 410, 'widthPercent': 0.45, 'rescaleHeight': False, 'trialN': 44, 'loaded': True, 'loadedTime': 314508.10000014305, 'positionName': 'LEFT', 'positionCoords': [510.6, 263.5], 'bid': 4.84}, {'imgObject': {}, 'id': 'banana', 'src': '/static/foodstim60/banana.jpg', 'key': 'i', 'origWidth': 410, 'origHeight': 410, 'width': 410, 'height': 410, 'widthPercent': 0.45, 'rescaleHeight': False, 'trialN': 44, 'loaded': True, 'loadedTime': 314513.90000009537, 'positionName': 'RIGHT', 'positionCoords': [998.4, 263.5], 'bid': 5.69}]",314503.2999999523,1669836946279,hashbrowns,banana,4.84,5.69,0.8500000000000005,,banana,1691.2000000476837,1691,1691.5,True,i,316708.40000009537,2205.100000143051,1669836948484,2205,HRV,HRV_0231,2022-11-30 19:39:41
45,"[{'imgObject': {}, 'id': 'blackbeanswithrice', 'src': '/static/foodstim60/blackbeanswithrice.jpg', 'key': 'u', 'origWidth': 410, 'origHeight': 410, 'width': 410, 'height': 410, 'widthPercent': 0.45, 'rescaleHeight': False, 'trialN': 45, 'loaded': True, 'loadedTime': 316714.90000009537, 'positionName': 'LEFT', 'positionCoords': [511.6, 263.5], 'bid': 3.85}, {'imgObject': {}, 'id': 'mashed potato', 'src': '/static/foodstim60/mashed potato.jpg', 'key': 'i', 'origWidth': 409, 'origHeight': 409, 'width': 409, 'height': 409, 'widthPercent': 0.45, 'rescaleHeight': False, 'trialN': 45, 'loaded': True, 'loadedTime': 316719.2999999523, 'positionName': 'RIGHT', 'positionCoords': [998.4, 264], 'bid': 3.87}]",316708.7999999523,1669836948484,blackbeanswithrice,mashed potato,3.85,3.87,0.020000000000000018,,blackbeanswithrice,1665.3000001907349,1666,1665.5,True,u,318887.90000009537,2179.100000143051,1669836950663,2179,HRV,HRV_0231,2022-11-30 19:39:41
46,"[{'imgObject': {}, 'id': 'omelette', 'src': '/static/foodstim60/omelette.jpg', 'key': 'u', 'origWidth': 410, 'origHeight': 409, 'width': 410, 'height': 409, 'widthPercent': 0.45, 'rescaleHeight': False, 'trialN': 46, 'loaded': True, 'loadedTime': 318894.5, 'positionName': 'LEFT', 'positionCoords': [511.6, 264], 'bid': 6.59}, {'imgObject': {}, 'id': 'sweetpotato', 'src': '/static/foodstim60/sweetpotato.jpg', 'key': 'i', 'origWidth': 410, 'origHeight': 410, 'width': 410, 'height': 410, 'widthPercent': 0.45, 'rescaleHeight': False, 'trialN': 46, 'loaded': True, 'loadedTime': 318898.7000000477, 'positionName': 'RIGHT', 'positionCoords': [998.4, 263.5], 'bid': 3.6}]",318888.2999999523,1669836950664,omelette,sweetpotato,6.59,3.6,-2.9899999999999998,,omelette,1032.7000000476837,1033,1032.9000000953674,True,u,320457.60000014305,1569.3000001907349,1669836952233,1569,HRV,HRV_0231,2022-11-30 19:39:41
47,"[{'imgObject': {}, 'id': 'hashbrowns', 'src': '/static/foodstim60/hashbrowns.jpg', 'key': 'u', 'origWidth': 411, 'origHeight': 410, 'width': 411, 'height': 410, 'widthPercent': 0.45, 'rescaleHeight': False, 'trialN': 47, 'loaded': True, 'loadedTime': 320465.2000000477, 'positionName': 'LEFT', 'positionCoords': [510.6, 263.5], 'bid': 4.84}, {'imgObject': {}, 'id': 'burrito', 'src': '/static/foodstim60/burrito.jpg', 'key': 'i', 'origWidth': 410, 'origHeight': 410, 'width': 410, 'height': 410, 'widthPercent': 0.45, 'rescaleHeight': False, 'trialN': 47, 'loaded': True, 'loadedTime': 320465.7999999523, 'positionName': 'RIGHT', 'positionCoords': [998.4, 263.5], 'bid': 8.82}]",320459.0,1669836952235,hashbrowns,burrito,4.84,8.82,3.9800000000000004,,burrito,1065.7999999523163,1066,1066.0,True,i,322047.2000000477,1588.2000000476837,1669836953823,1588,HRV,HRV_0231,2022-11-30 19:39:41
48,"[{'imgObject': {}, 'id': 'mashed potato', 'src': '/static/foodstim60/mashed potato.jpg', 'key': 'u', 'origWidth': 409, 'origHeight': 409, 'width': 409, 'height': 409, 'widthPercent': 0.45, 'rescaleHeight': False, 'trialN': 48, 'loaded': True, 'loadedTime': 322053.2999999523, 'positionName': 'LEFT', 'positionCoords': [512.6, 264], 'bid': 3.87}, {'imgObject': {}, 'id': 'eggs', 'src': '/static/foodstim60/eggs.jpg', 'key': 'i', 'origWidth': 409, 'origHeight': 409, 'width': 409, 'height': 409, 'widthPercent': 0.45, 'rescaleHeight': False, 'trialN': 48, 'loaded': True, 'loadedTime': 322058.2999999523, 'positionName': 'RIGHT', 'positionCoords': [998.4, 264], 'bid': 3.5}]",322047.5,1669836953823,mashed potato,eggs,3.87,3.5,-0.3700000000000001,,mashed potato,1508.2000000476837,1508,1508.2999999523163,True,u,324069.2000000477,2021.7000000476837,1669836955845,2022,HRV,HRV_0231,2022-11-30 19:39:41
49,"[{'imgObject': {}, 'id': 'granola w milk', 'src': '/static/foodstim60/granola w milk.jpg', 'key': 'u', 'origWidth': 410, 'origHeight': 410, 'width': 410, 'height': 410, 'widthPercent': 0.45, 'rescaleHeight': False, 'trialN': 49, 'loaded': True, 'loadedTime': 324075.90000009537, 'positionName': 'LEFT', 'positionCoords': [511.6, 263.5], 'bid': 2.35}, {'imgObject': {}, 'id': 'veggieswithdip', 'src': '/static/foodstim60/veggieswithdip.jpg', 'key': 'i', 'origWidth': 409, 'origHeight': 409, 'width': 409, 'height': 409, 'widthPercent': 0.45, 'rescaleHeight': False, 'trialN': 49, 'loaded': True, 'loadedTime': 324080.40000009537, 'positionName': 'RIGHT', 'positionCoords': [998.4, 264], 'bid': 5.41}]",324069.7000000477,1669836955845,granola w milk,veggieswithdip,2.35,5.41,3.06,,veggieswithdip,1157.0999999046326,1158,1157.4000000953674,True,i,325732.7000000477,1663.0,1669836957508,1663,HRV,HRV_0231,2022-11-30 19:39:41
50,"[{'imgObject': {}, 'id': 'burger', 'src': '/static/foodstim60/burger.jpg', 'key': 'u', 'origWidth': 409, 'origHeight': 409, 'width': 409, 'height': 409, 'widthPercent': 0.45, 'rescaleHeight': False, 'trialN': 50, 'loaded': True, 'loadedTime': 325739.60000014305, 'positionName': 'LEFT', 'positionCoords': [512.6, 264], 'bid': 5.7}, {'imgObject': {}, 'id': 'cherries', 'src': '/static/foodstim60/cherries.jpg', 'key': 'i', 'origWidth': 410, 'origHeight': 411, 'width': 410, 'height': 411, 'widthPercent': 0.45, 'rescaleHeight': False, 'trialN': 50, 'loaded': True, 'loadedTime': 325744.5, 'positionName': 'RIGHT', 'positionCoords': [998.4, 263], 'bid': 7.84}]",325733.2999999523,1669836957509,burger,cherries,5.7,7.84,2.1399999999999997,,cherries,2160.9000000953674,2161,2161.0,True,i,328411.60000014305,2678.300000190735,1669836960187,2678,HRV,HRV_0231,2022-11-30 19:39:41
51,"[{'imgObject': {}, 'id': 'raspberries', 'src': '/static/foodstim60/raspberries.jpg', 'key': 'u', 'origWidth': 411, 'origHeight': 411, 'width': 411, 'height': 411, 'widthPercent': 0.45, 'rescaleHeight': False, 'trialN': 51, 'loaded': True, 'loadedTime': 328416.2999999523, 'positionName': 'LEFT', 'positionCoords': [510.6, 263], 'bid': 9.26}, {'imgObject': {}, 'id': 'Tribe humus pita', 'src': '/static/foodstim60/Tribe humus pita.jpg', 'key': 'i', 'origWidth': 411, 'origHeight': 411, 'width': 411, 'height': 411, 'widthPercent': 0.45, 'rescaleHeight': False, 'trialN': 51, 'loaded': True, 'loadedTime': 328416.7999999523, 'positionName': 'RIGHT', 'positionCoords': [998.4, 263], 'bid': 4.95}]",328412.0,1669836960188,raspberries,Tribe humus pita,9.26,4.95,-4.31,,raspberries,945.2999999523163,945,945.5,True,u,329867.40000009537,1455.4000000953674,1669836961643,1455,HRV,HRV_0231,2022-11-30 19:39:41
52,"[{'imgObject': {}, 'id': 'eggsalad', 'src': '/static/foodstim60/eggsalad.jpg', 'key': 'u', 'origWidth': 410, 'origHeight': 409, 'width': 410, 'height': 409, 'widthPercent': 0.45, 'rescaleHeight': False, 'trialN': 52, 'loaded': True, 'loadedTime': 329873.2999999523, 'positionName': 'LEFT', 'positionCoords': [511.6, 264], 'bid': 6.12}, {'imgObject': {}, 'id': 'tacos', 'src': '/static/foodstim60/tacos.jpg', 'key': 'i', 'origWidth': 411, 'origHeight': 411, 'width': 411, 'height': 411, 'widthPercent': 0.45, 'rescaleHeight': False, 'trialN': 52, 'loaded': True, 'loadedTime': 329878.7999999523, 'positionName': 'RIGHT', 'positionCoords': [998.4, 263], 'bid': 7.57}]",329867.7999999523,1669836961644,eggsalad,tacos,6.12,7.57,1.4500000000000002,,tacos,1072.8000001907349,1073,1072.9000000953674,True,i,331451.2000000477,1583.4000000953674,1669836963227,1583,HRV,HRV_0231,2022-11-30 19:39:41
53,"[{'imgObject': {}, 'id': 'olives', 'src': '/static/foodstim60/olives.jpg', 'key': 'u', 'origWidth': 410, 'origHeight': 410, 'width': 410, 'height': 410, 'widthPercent': 0.45, 'rescaleHeight': False, 'trialN': 53, 'loaded': True, 'loadedTime': 331458.7999999523, 'positionName': 'LEFT', 'positionCoords': [511.6, 263.5], 'bid': 1.95}, {'imgObject': {}, 'id': 'turkeysandwich', 'src': '/static/foodstim60/turkeysandwich.jpg', 'key': 'i', 'origWidth': 409, 'origHeight': 409, 'width': 409, 'height': 409, 'widthPercent': 0.45, 'rescaleHeight': False, 'trialN': 53, 'loaded': True, 'loadedTime': 331464.60000014305, 'positionName': 'RIGHT', 'positionCoords': [998.4, 264], 'bid': 3.12}]",331451.7000000477,1669836963227,olives,turkeysandwich,1.95,3.12,1.1700000000000002,,turkeysandwich,1040.5999999046326,1041,1040.7999999523163,True,i,333006.40000009537,1554.7000000476837,1669836964782,1555,HRV,HRV_0231,2022-11-30 19:39:41
54,"[{'imgObject': {}, 'id': 'cherry tomato', 'src': '/static/foodstim60/cherry tomato.jpg', 'key': 'u', 'origWidth': 410, 'origHeight': 410, 'width': 410, 'height': 410, 'widthPercent': 0.45, 'rescaleHeight': False, 'trialN': 54, 'loaded': True, 'loadedTime': 333011.60000014305, 'positionName': 'LEFT', 'positionCoords': [511.6, 263.5], 'bid': 3.85}, {'imgObject': {}, 'id': 'rigatoni', 'src': '/static/foodstim60/rigatoni.jpg', 'key': 'i', 'origWidth': 411, 'origHeight': 411, 'width': 411, 'height': 411, 'widthPercent': 0.45, 'rescaleHeight': False, 'trialN': 54, 'loaded': True, 'loadedTime': 333016.40000009537, 'positionName': 'RIGHT', 'positionCoords': [998.4, 263], 'bid': 0.58}]",333006.90000009537,1669836964783,cherry tomato,rigatoni,3.85,0.58,-3.27,,cherry tomato,743.2999999523163,744,744.3999998569489,True,u,334263.60000014305,1256.7000000476837,1669836966039,1256,HRV,HRV_0231,2022-11-30 19:39:41
55,"[{'imgObject': {}, 'id': 'salad w chicken', 'src': '/static/foodstim60/salad w chicken.jpg', 'key': 'u', 'origWidth': 411, 'origHeight': 411, 'width': 411, 'height': 411, 'widthPercent': 0.45, 'rescaleHeight': False, 'trialN': 55, 'loaded': True, 'loadedTime': 334272.7000000477, 'positionName': 'LEFT', 'positionCoords': [510.6, 263], 'bid': 7.88}, {'imgObject': {}, 'id': 'fruitsalad', 'src': '/static/foodstim60/fruitsalad.jpg', 'key': 'i', 'origWidth': 410, 'origHeight': 410, 'width': 410, 'height': 410, 'widthPercent': 0.45, 'rescaleHeight': False, 'trialN': 55, 'loaded': True, 'loadedTime': 334278.2000000477, 'positionName': 'RIGHT', 'positionCoords': [998.4, 263.5], 'bid': 7.8}]",334266.0,1669836966042,salad w chicken,fruitsalad,7.88,7.8,-0.08000000000000007,,salad w chicken,1031.2999999523163,1031,1031.5,True,u,335811.40000009537,1545.4000000953674,1669836967587,1545,HRV,HRV_0231,2022-11-30 19:39:41
56,"[{'imgObject': {}, 'id': 'hashbrowns', 'src': '/static/foodstim60/hashbrowns.jpg', 'key': 'u', 'origWidth': 411, 'origHeight': 410, 'width': 411, 'height': 410, 'widthPercent': 0.45, 'rescaleHeight': False, 'trialN': 56, 'loaded': True, 'loadedTime': 335817.7000000477, 'positionName': 'LEFT', 'positionCoords': [510.6, 263.5], 'bid': 4.84}, {'imgObject': {}, 'id': 'Tribe humus pita', 'src': '/static/foodstim60/Tribe humus pita.jpg', 'key': 'i', 'origWidth': 411, 'origHeight': 411, 'width': 411, 'height': 411, 'widthPercent': 0.45, 'rescaleHeight': False, 'trialN': 56, 'loaded': True, 'loadedTime': 335821.7999999523, 'positionName': 'RIGHT', 'positionCoords': [998.4, 263], 'bid': 4.95}]",335811.7999999523,1669836967588,hashbrowns,Tribe humus pita,4.84,4.95,0.11000000000000032,,Tribe humus pita,1320.6000001430511,1320,1320.7000000476837,True,i,337641.7000000477,1829.9000000953674,1669836969417,1829,HRV,HRV_0231,2022-11-30 19:39:41
57,"[{'imgObject': {}, 'id': 'burger', 'src': '/static/foodstim60/burger.jpg', 'key': 'u', 'origWidth': 409, 'origHeight': 409, 'width': 409, 'height': 409, 'widthPercent': 0.45, 'rescaleHeight': False, 'trialN': 57, 'loaded': True, 'loadedTime': 337646.40000009537, 'positionName': 'LEFT', 'positionCoords': [512.6, 264], 'bid': 5.7}, {'imgObject': {}, 'id': 'mango', 'src': '/static/foodstim60/mango.jpg', 'key': 'i', 'origWidth': 411, 'origHeight': 411, 'width': 411, 'height': 411, 'widthPercent': 0.45, 'rescaleHeight': False, 'trialN': 57, 'loaded': True, 'loadedTime': 337650.10000014305, 'positionName': 'RIGHT', 'positionCoords': [998.4, 263], 'bid': 6.640000000000001}]",337642.0,1669836969418,burger,mango,5.7,6.640000000000001,0.9400000000000004,,burger,1129.7999999523163,1130,1130.0,True,u,339282.2000000477,1640.2000000476837,1669836971058,1640,HRV,HRV_0231,2022-11-30 19:39:41
58,"[{'imgObject': {}, 'id': 'shreddedwheatwithmilk', 'src': '/static/foodstim60/shreddedwheatwithmilk.jpg', 'key': 'u', 'origWidth': 410, 'origHeight': 410, 'width': 410, 'height': 410, 'widthPercent': 0.45, 'rescaleHeight': False, 'trialN': 58, 'loaded': True, 'loadedTime': 339287.2999999523, 'positionName': 'LEFT', 'positionCoords': [511.6, 263.5], 'bid': 1.68}, {'imgObject': {}, 'id': 'bagel plain', 'src': '/static/foodstim60/bagel plain.jpg', 'key': 'i', 'origWidth': 410, 'origHeight': 410, 'width': 410, 'height': 410, 'widthPercent': 0.45, 'rescaleHeight': False, 'trialN': 58, 'loaded': True, 'loadedTime': 339291.90000009537, 'positionName': 'RIGHT', 'positionCoords': [998.4, 263.5], 'bid': 2.59}]",339282.40000009537,1669836971058,shreddedwheatwithmilk,bagel plain,1.68,2.59,0.9099999999999999,,shreddedwheatwithmilk,1836.7000000476837,1837,1836.7999999523163,True,u,341627.90000009537,2345.5,1669836973404,2346,HRV,HRV_0231,2022-11-30 19:39:41
59,"[{'imgObject': {}, 'id': 'blackbeanswithrice', 'src': '/static/foodstim60/blackbeanswithrice.jpg', 'key': 'u', 'origWidth': 410, 'origHeight': 410, 'width': 410, 'height': 410, 'widthPercent': 0.45, 'rescaleHeight': False, 'trialN': 59, 'loaded': True, 'loadedTime': 341633.7999999523, 'positionName': 'LEFT', 'positionCoords': [511.6, 263.5], 'bid': 3.85}, {'imgObject': {}, 'id': 'cheerios', 'src': '/static/foodstim60/cheerios.jpg', 'key': 'i', 'origWidth': 409, 'origHeight': 410, 'width': 409, 'height': 410, 'widthPercent': 0.45, 'rescaleHeight': False, 'trialN': 59, 'loaded': True, 'loadedTime': 341639.2000000477, 'positionName': 'RIGHT', 'positionCoords': [998.4, 263.5], 'bid': 2.54}]",341628.2999999523,1669836973404,blackbeanswithrice,cheerios,3.85,2.54,-1.31,,blackbeanswithrice,1315.6000001430511,1316,1315.7000000476837,True,u,343454.2000000477,1825.9000000953674,1669836975230,1826,HRV,HRV_0231,2022-11-30 19:39:41
60,"[{'imgObject': {}, 'id': 'burger', 'src': '/static/foodstim60/burger.jpg', 'key': 'u', 'origWidth': 409, 'origHeight': 409, 'width': 409, 'height': 409, 'widthPercent': 0.45, 'rescaleHeight': False, 'trialN': 60, 'loaded': True, 'loadedTime': 343461.2000000477, 'positionName': 'LEFT', 'positionCoords': [512.6, 264], 'bid': 5.7}, {'imgObject': {}, 'id': 'Tribe humus pita', 'src': '/static/foodstim60/Tribe humus pita.jpg', 'key': 'i', 'origWidth': 411, 'origHeight': 411, 'width': 411, 'height': 411, 'widthPercent': 0.45, 'rescaleHeight': False, 'trialN': 60, 'loaded': True, 'loadedTime': 343466.2999999523, 'positionName': 'RIGHT', 'positionCoords': [998.4, 263], 'bid': 4.95}]",343454.5,1669836975230,burger,Tribe humus pita,5.7,4.95,-0.75,,Tribe humus pita,1679.2000000476837,1680,1679.4000000953674,True,i,345650.2000000477,2195.7000000476837,1669836977426,2196,HRV,HRV_0231,2022-11-30 19:39:41
61,"[{'imgObject': {}, 'id': 'yogurt no spoon', 'src': '/static/foodstim60/yogurt no spoon.jpg', 'key': 'u', 'origWidth': 411, 'origHeight': 410, 'width': 411, 'height': 410, 'widthPercent': 0.45, 'rescaleHeight': False, 'trialN': 61, 'loaded': True, 'loadedTime': 345655.5, 'positionName': 'LEFT', 'positionCoords': [510.6, 263.5], 'bid': 7.08}, {'imgObject': {}, 'id': 'blackbeanswithrice', 'src': '/static/foodstim60/blackbeanswithrice.jpg', 'key': 'i', 'origWidth': 410, 'origHeight': 410, 'width': 410, 'height': 410, 'widthPercent': 0.45, 'rescaleHeight': False, 'trialN': 61, 'loaded': True, 'loadedTime': 345659.7999999523, 'positionName': 'RIGHT', 'positionCoords': [998.4, 263.5], 'bid': 3.85}]",345650.5,1669836977426,yogurt no spoon,blackbeanswithrice,7.08,3.85,-3.23,,yogurt no spoon,1463.4000000953674,1464,1463.7000000476837,True,u,347637.5,1987.0,1669836979413,1987,HRV,HRV_0231,2022-11-30 19:39:41
62,"[{'imgObject': {}, 'id': 'raspberries', 'src': '/static/foodstim60/raspberries.jpg', 'key': 'u', 'origWidth': 411, 'origHeight': 411, 'width': 411, 'height': 411, 'widthPercent': 0.45, 'rescaleHeight': False, 'trialN': 62, 'loaded': True, 'loadedTime': 347647, 'positionName': 'LEFT', 'positionCoords': [510.6, 263], 'bid': 9.26}, {'imgObject': {}, 'id': 'mac & cheese', 'src': '/static/foodstim60/mac & cheese.jpg', 'key': 'i', 'origWidth': 410, 'origHeight': 410, 'width': 410, 'height': 410, 'widthPercent': 0.45, 'rescaleHeight': False, 'trialN': 62, 'loaded': True, 'loadedTime': 347652.60000014305, 'positionName': 'RIGHT', 'positionCoords': [998.4, 263.5], 'bid': 8.66}]",347638.0,1669836979414,raspberries,mac & cheese,9.26,8.66,-0.5999999999999996,,mac & cheese,1392.4000000953674,1392,1392.6000001430511,True,i,349543.7999999523,1905.7999999523163,1669836981320,1906,HRV,HRV_0231,2022-11-30 19:39:41
63,"[{'imgObject': {}, 'id': 'pear', 'src': '/static/foodstim60/pear.jpg', 'key': 'u', 'origWidth': 411, 'origHeight': 410, 'width': 411, 'height': 410, 'widthPercent': 0.45, 'rescaleHeight': False, 'trialN': 63, 'loaded': True, 'loadedTime': 349551.10000014305, 'positionName': 'LEFT', 'positionCoords': [510.6, 263.5], 'bid': 5.45}, {'imgObject': {}, 'id': 'cantaloupe', 'src': '/static/foodstim60/cantaloupe.jpg', 'key': 'i', 'origWidth': 409, 'origHeight': 409, 'width': 409, 'height': 409, 'widthPercent': 0.45, 'rescaleHeight': False, 'trialN': 63, 'loaded': True, 'loadedTime': 349556, 'positionName': 'RIGHT', 'positionCoords': [998.4, 264], 'bid': 4.73}]",349544.10000014305,1669836981320,pear,cantaloupe,5.45,4.73,-0.7199999999999998,,cantaloupe,2070.899999856949,2071,2071.2999999523163,True,i,352127.0,2582.899999856949,1669836983903,2583,HRV,HRV_0231,2022-11-30 19:39:41
64,"[{'imgObject': {}, 'id': 'cheerios', 'src': '/static/foodstim60/cheerios.jpg', 'key': 'u', 'origWidth': 409, 'origHeight': 410, 'width': 409, 'height': 410, 'widthPercent': 0.45, 'rescaleHeight': False, 'trialN': 64, 'loaded': True, 'loadedTime': 352132.60000014305, 'positionName': 'LEFT', 'positionCoords': [512.6, 263.5], 'bid': 2.54}, {'imgObject': {}, 'id': 'granola w milk', 'src': '/static/foodstim60/granola w milk.jpg', 'key': 'i', 'origWidth': 410, 'origHeight': 410, 'width': 410, 'height': 410, 'widthPercent': 0.45, 'rescaleHeight': False, 'trialN': 64, 'loaded': True, 'loadedTime': 352137.90000009537, 'positionName': 'RIGHT', 'positionCoords': [998.4, 263.5], 'bid': 2.35}]",352127.2999999523,1669836983903,cheerios,granola w milk,2.54,2.35,-0.18999999999999995,,granola w milk,899.9000000953674,900,900.2000000476837,True,i,353531.40000009537,1404.1000001430511,1669836985307,1404,HRV,HRV_0231,2022-11-30 19:39:41
65,"[{'imgObject': {}, 'id': 'bagel and cc', 'src': '/static/foodstim60/bagel and cc.jpg', 'key': 'u', 'origWidth': 410, 'origHeight': 410, 'width': 410, 'height': 410, 'widthPercent': 0.45, 'rescaleHeight': False, 'trialN': 65, 'loaded': True, 'loadedTime': 353538.90000009537, 'positionName': 'LEFT', 'positionCoords': [511.6, 263.5], 'bid': 5.41}, {'imgObject': {}, 'id': 'seaweed', 'src': '/static/foodstim60/seaweed.jpg', 'key': 'i', 'origWidth': 410, 'origHeight': 410, 'width': 410, 'height': 410, 'widthPercent': 0.45, 'rescaleHeight': False, 'trialN': 65, 'loaded': True, 'loadedTime': 353543.2999999523, 'positionName': 'RIGHT', 'positionCoords': [998.4, 263.5], 'bid': 2.37}]",353532.40000009537,1669836985308,bagel and cc,seaweed,5.41,2.37,-3.04,,bagel and cc,874.5,875,874.8999998569489,True,u,354919.2000000477,1386.7999999523163,1669836986695,1387,HRV,HRV_0231,2022-11-30 19:39:41
66,"[{'imgObject': {}, 'id': 'apple slices', 'src': '/static/foodstim60/apple slices.jpg', 'key': 'u', 'origWidth': 409, 'origHeight': 410, 'width': 409, 'height': 410, 'widthPercent': 0.45, 'rescaleHeight': False, 'trialN': 66, 'loaded': True, 'loadedTime': 354925.2000000477, 'positionName': 'LEFT', 'positionCoords': [512.6, 263.5], 'bid': 5}, {'imgObject': {}, 'id': 'edamame', 'src': '/static/foodstim60/edamame.jpg', 'key': 'i', 'origWidth': 409, 'origHeight': 410, 'width': 409, 'height': 410, 'widthPercent': 0.45, 'rescaleHeight': False, 'trialN': 66, 'loaded': True, 'loadedTime': 354929, 'positionName': 'RIGHT', 'positionCoords': [998.4, 263.5], 'bid': 4.07}]",354919.7999999523,1669836986696,apple slices,edamame,5.0,4.07,-0.9299999999999997,,apple slices,1374.3000001907349,1374,1374.6000001430511,True,u,356803.7000000477,1883.9000000953674,1669836988580,1884,HRV,HRV_0231,2022-11-30 19:39:41
67,"[{'imgObject': {}, 'id': 'olives', 'src': '/static/foodstim60/olives.jpg', 'key': 'u', 'origWidth': 410, 'origHeight': 410, 'width': 410, 'height': 410, 'widthPercent': 0.45, 'rescaleHeight': False, 'trialN': 67, 'loaded': True, 'loadedTime': 356810, 'positionName': 'LEFT', 'positionCoords': [511.6, 263.5], 'bid': 1.95}, {'imgObject': {}, 'id': 'granola w milk', 'src': '/static/foodstim60/granola w milk.jpg', 'key': 'i', 'origWidth': 410, 'origHeight': 410, 'width': 410, 'height': 410, 'widthPercent': 0.45, 'rescaleHeight': False, 'trialN': 67, 'loaded': True, 'loadedTime': 356814.2000000477, 'positionName': 'RIGHT', 'positionCoords': [998.4, 263.5], 'bid': 2.35}]",356804.10000014305,1669836988580,olives,granola w milk,1.95,2.35,0.40000000000000013,,granola w milk,895.1999998092651,895,895.5,True,i,358212.2999999523,1408.1999998092651,1669836989988,1408,HRV,HRV_0231,2022-11-30 19:39:41
68,"[{'imgObject': {}, 'id': 'grilled chicken strips', 'src': '/static/foodstim60/grilled chicken strips.jpg', 'key': 'u', 'origWidth': 410, 'origHeight': 411, 'width': 410, 'height': 411, 'widthPercent': 0.45, 'rescaleHeight': False, 'trialN': 68, 'loaded': True, 'loadedTime': 358217.2999999523, 'positionName': 'LEFT', 'positionCoords': [511.6, 263], 'bid': 4.97}, {'imgObject': {}, 'id': 'mango', 'src': '/static/foodstim60/mango.jpg', 'key': 'i', 'origWidth': 411, 'origHeight': 411, 'width': 411, 'height': 411, 'widthPercent': 0.45, 'rescaleHeight': False, 'trialN': 68, 'loaded': True, 'loadedTime': 358220.7999999523, 'positionName': 'RIGHT', 'positionCoords': [998.4, 263], 'bid': 6.640000000000001}]",358212.7000000477,1669836989989,grilled chicken strips,mango,4.97,6.640000000000001,1.6700000000000008,,grilled chicken strips,1208.7999999523163,1209,1209.2000000476837,True,u,359933.2000000477,1720.5,1669836991709,1720,HRV,HRV_0231,2022-11-30 19:39:41
69,"[{'imgObject': {}, 'id': 'banana', 'src': '/static/foodstim60/banana.jpg', 'key': 'u', 'origWidth': 410, 'origHeight': 410, 'width': 410, 'height': 410, 'widthPercent': 0.45, 'rescaleHeight': False, 'trialN': 69, 'loaded': True, 'loadedTime': 359938, 'positionName': 'LEFT', 'positionCoords': [511.6, 263.5], 'bid': 5.69}, {'imgObject': {}, 'id': 'bagel plain', 'src': '/static/foodstim60/bagel plain.jpg', 'key': 'i', 'origWidth': 410, 'origHeight': 410, 'width': 410, 'height': 410, 'widthPercent': 0.45, 'rescaleHeight': False, 'trialN': 69, 'loaded': True, 'loadedTime': 359943.5, 'positionName': 'RIGHT', 'positionCoords': [998.4, 263.5], 'bid': 2.59}]",359933.5,1669836991709,banana,bagel plain,5.69,2.59,-3.1000000000000005,,banana,2108.9000000953674,2110,2109.4000000953674,True,u,362548.2000000477,2614.7000000476837,1669836994324,2615,HRV,HRV_0231,2022-11-30 19:39:41
70,"[{'imgObject': {}, 'id': 'raspberries', 'src': '/static/foodstim60/raspberries.jpg', 'key': 'u', 'origWidth': 411, 'origHeight': 411, 'width': 411, 'height': 411, 'widthPercent': 0.45, 'rescaleHeight': False, 'trialN': 70, 'loaded': True, 'loadedTime': 362553.7000000477, 'positionName': 'LEFT', 'positionCoords': [510.6, 263], 'bid': 9.26}, {'imgObject': {}, 'id': 'burrito', 'src': '/static/foodstim60/burrito.jpg', 'key': 'i', 'origWidth': 410, 'origHeight': 410, 'width': 410, 'height': 410, 'widthPercent': 0.45, 'rescaleHeight': False, 'trialN': 70, 'loaded': True, 'loadedTime': 362557.7000000477, 'positionName': 'RIGHT', 'positionCoords': [998.4, 263.5], 'bid': 8.82}]",362548.60000014305,1669836994324,raspberries,burrito,9.26,8.82,-0.4399999999999995,,burrito,707.7999999523163,708,708.0,True,i,363763.2999999523,1214.6999998092651,1669836995539,1215,HRV,HRV_0231,2022-11-30 19:39:41
71,"[{'imgObject': {}, 'id': 'blackbeanswithrice', 'src': '/static/foodstim60/blackbeanswithrice.jpg', 'key': 'u', 'origWidth': 410, 'origHeight': 410, 'width': 410, 'height': 410, 'widthPercent': 0.45, 'rescaleHeight': False, 'trialN': 71, 'loaded': True, 'loadedTime': 363767.5, 'positionName': 'LEFT', 'positionCoords': [511.6, 263.5], 'bid': 3.85}, {'imgObject': {}, 'id': 'hotdog w must', 'src': '/static/foodstim60/hotdog w must.jpg', 'key': 'i', 'origWidth': 409, 'origHeight': 409, 'width': 409, 'height': 409, 'widthPercent': 0.45, 'rescaleHeight': False, 'trialN': 71, 'loaded': True, 'loadedTime': 363767.90000009537, 'positionName': 'RIGHT', 'positionCoords': [998.4, 264], 'bid': 4.23}]",363763.7000000477,1669836995539,blackbeanswithrice,hotdog w must,3.85,4.23,0.38000000000000034,,hotdog w must,1456.7999999523163,1458,1457.0,True,i,365721.7000000477,1958.0,1669836997497,1958,HRV,HRV_0231,2022-11-30 19:39:41
72,"[{'imgObject': {}, 'id': 'raisin bran w milk', 'src': '/static/foodstim60/raisin bran w milk.jpg', 'key': 'u', 'origWidth': 411, 'origHeight': 411, 'width': 411, 'height': 411, 'widthPercent': 0.45, 'rescaleHeight': False, 'trialN': 72, 'loaded': True, 'loadedTime': 365726.90000009537, 'positionName': 'LEFT', 'positionCoords': [510.6, 263], 'bid': 1.83}, {'imgObject': {}, 'id': 'steak', 'src': '/static/foodstim60/steak.jpg', 'key': 'i', 'origWidth': 410, 'origHeight': 410, 'width': 410, 'height': 410, 'widthPercent': 0.45, 'rescaleHeight': False, 'trialN': 72, 'loaded': True, 'loadedTime': 365732.2999999523, 'positionName': 'RIGHT', 'positionCoords': [998.4, 263.5], 'bid': 3.86}]",365722.0,1669836997498,raisin bran w milk,steak,1.83,3.86,2.03,,raisin bran w milk,1767.0,1767,1767.2999999523163,True,u,368005.2000000477,2283.2000000476837,1669836999781,2283,HRV,HRV_0231,2022-11-30 19:39:41
73,"[{'imgObject': {}, 'id': 'froot loops w milk', 'src': '/static/foodstim60/froot loops w milk.jpg', 'key': 'u', 'origWidth': 410, 'origHeight': 410, 'width': 410, 'height': 410, 'widthPercent': 0.45, 'rescaleHeight': False, 'trialN': 73, 'loaded': True, 'loadedTime': 368010.40000009537, 'positionName': 'LEFT', 'positionCoords': [511.6, 263.5], 'bid': 4.3100000000000005}, {'imgObject': {}, 'id': 'Grapes', 'src': '/static/foodstim60/Grapes.jpg', 'key': 'i', 'origWidth': 411, 'origHeight': 411, 'width': 411, 'height': 411, 'widthPercent': 0.45, 'rescaleHeight': False, 'trialN': 73, 'loaded': True, 'loadedTime': 368015.7999999523, 'positionName': 'RIGHT', 'positionCoords': [998.4, 263], 'bid': 5.1000000000000005}]",368005.60000014305,1669836999781,froot loops w milk,Grapes,4.3100000000000005,5.1000000000000005,0.79,,Grapes,1451.5,1452,1451.7999999523163,True,i,369961.2000000477,1955.5999999046326,1669837001737,1956,HRV,HRV_0231,2022-11-30 19:39:41
74,"[{'imgObject': {}, 'id': 'tacos', 'src': '/static/foodstim60/tacos.jpg', 'key': 'u', 'origWidth': 411, 'origHeight': 411, 'width': 411, 'height': 411, 'widthPercent': 0.45, 'rescaleHeight': False, 'trialN': 74, 'loaded': True, 'loadedTime': 369968.2999999523, 'positionName': 'LEFT', 'positionCoords': [510.6, 263], 'bid': 7.57}, {'imgObject': {}, 'id': 'bagel and cc', 'src': '/static/foodstim60/bagel and cc.jpg', 'key': 'i', 'origWidth': 410, 'origHeight': 410, 'width': 410, 'height': 410, 'widthPercent': 0.45, 'rescaleHeight': False, 'trialN': 74, 'loaded': True, 'loadedTime': 369973.5, 'positionName': 'RIGHT', 'positionCoords': [998.4, 263.5], 'bid': 5.41}]",369961.60000014305,1669837001737,tacos,bagel and cc,7.57,5.41,-2.16,,tacos,865.6999998092651,866,865.7999999523163,True,u,371337.7000000477,1376.0999999046326,1669837003114,1377,HRV,HRV_0231,2022-11-30 19:39:41
75,"[{'imgObject': {}, 'id': 'mashed potato', 'src': '/static/foodstim60/mashed potato.jpg', 'key': 'u', 'origWidth': 409, 'origHeight': 409, 'width': 409, 'height': 409, 'widthPercent': 0.45, 'rescaleHeight': False, 'trialN': 75, 'loaded': True, 'loadedTime': 371342.40000009537, 'positionName': 'LEFT', 'positionCoords': [512.6, 264], 'bid': 3.87}, {'imgObject': {}, 'id': 'kiwi', 'src': '/static/foodstim60/kiwi.jpg', 'key': 'i', 'origWidth': 410, 'origHeight': 410, 'width': 410, 'height': 410, 'widthPercent': 0.45, 'rescaleHeight': False, 'trialN': 75, 'loaded': True, 'loadedTime': 371343, 'positionName': 'RIGHT', 'positionCoords': [998.4, 263.5], 'bid': 7.22}]",371338.10000014305,1669837003114,mashed potato,kiwi,3.87,7.22,3.3499999999999996,,kiwi,830.7999999523163,831,831.0999999046326,True,i,372687.40000009537,1349.2999999523163,1669837004463,1349,HRV,HRV_0231,2022-11-30 19:39:41
76,"[{'imgObject': {}, 'id': 'ice cream sundae 002', 'src': '/static/foodstim60/ice cream sundae 002.jpg', 'key': 'u', 'origWidth': 409, 'origHeight': 409, 'width': 409, 'height': 409, 'widthPercent': 0.45, 'rescaleHeight': False, 'trialN': 76, 'loaded': True, 'loadedTime': 372693, 'positionName': 'LEFT', 'positionCoords': [512.6, 264], 'bid': 4.53}, {'imgObject': {}, 'id': 'froot loops w milk', 'src': '/static/foodstim60/froot loops w milk.jpg', 'key': 'i', 'origWidth': 410, 'origHeight': 410, 'width': 410, 'height': 410, 'widthPercent': 0.45, 'rescaleHeight': False, 'trialN': 76, 'loaded': True, 'loadedTime': 372693.5, 'positionName': 'RIGHT', 'positionCoords': [998.4, 263.5], 'bid': 4.3100000000000005}]",372687.7999999523,1669837004464,ice cream sundae 002,froot loops w milk,4.53,4.3100000000000005,-0.21999999999999975,,ice cream sundae 002,1534.2000000476837,1534,1534.5,True,u,374743.2000000477,2055.4000000953674,1669837006519,2055,HRV,HRV_0231,2022-11-30 19:39:41
77,"[{'imgObject': {}, 'id': 'blueberries', 'src': '/static/foodstim60/blueberries.jpg', 'key': 'u', 'origWidth': 411, 'origHeight': 411, 'width': 411, 'height': 411, 'widthPercent': 0.45, 'rescaleHeight': False, 'trialN': 77, 'loaded': True, 'loadedTime': 374749, 'positionName': 'LEFT', 'positionCoords': [510.6, 263], 'bid': 7.75}, {'imgObject': {}, 'id': 'fried eggs', 'src': '/static/foodstim60/fried eggs.jpg', 'key': 'i', 'origWidth': 410, 'origHeight': 410, 'width': 410, 'height': 410, 'widthPercent': 0.45, 'rescaleHeight': False, 'trialN': 77, 'loaded': True, 'loadedTime': 374753.7999999523, 'positionName': 'RIGHT', 'positionCoords': [998.4, 263.5], 'bid': 6.17}]",374743.7000000477,1669837006519,blueberries,fried eggs,7.75,6.17,-1.58,,blueberries,1144.2000000476837,1145,1144.4000000953674,True,u,376408.2999999523,1664.5999999046326,1669837008184,1665,HRV,HRV_0231,2022-11-30 19:39:41
78,"[{'imgObject': {}, 'id': 'mac & cheese', 'src': '/static/foodstim60/mac & cheese.jpg', 'key': 'u', 'origWidth': 410, 'origHeight': 410, 'width': 410, 'height': 410, 'widthPercent': 0.45, 'rescaleHeight': False, 'trialN': 78, 'loaded': True, 'loadedTime': 376413.7999999523, 'positionName': 'LEFT', 'positionCoords': [511.6, 263.5], 'bid': 8.66}, {'imgObject': {}, 'id': 'cantaloupe', 'src': '/static/foodstim60/cantaloupe.jpg', 'key': 'i', 'origWidth': 409, 'origHeight': 409, 'width': 409, 'height': 409, 'widthPercent': 0.45, 'rescaleHeight': False, 'trialN': 78, 'loaded': True, 'loadedTime': 376417.7000000477, 'positionName': 'RIGHT', 'positionCoords': [998.4, 264], 'bid': 4.73}]",376408.7999999523,1669837008185,mac & cheese,cantaloupe,8.66,4.73,-3.9299999999999997,,mac & cheese,747.3000001907349,747,747.5,True,u,377671.5,1262.7000000476837,1669837009447,1262,HRV,HRV_0231,2022-11-30 19:39:41
79,"[{'imgObject': {}, 'id': 'salad w chicken', 'src': '/static/foodstim60/salad w chicken.jpg', 'key': 'u', 'origWidth': 411, 'origHeight': 411, 'width': 411, 'height': 411, 'widthPercent': 0.45, 'rescaleHeight': False, 'trialN': 79, 'loaded': True, 'loadedTime': 377677.5, 'positionName': 'LEFT', 'positionCoords': [510.6, 263], 'bid': 7.88}, {'imgObject': {}, 'id': 'roastedpotatoes', 'src': '/static/foodstim60/roastedpotatoes.jpg', 'key': 'i', 'origWidth': 409, 'origHeight': 410, 'width': 409, 'height': 410, 'widthPercent': 0.45, 'rescaleHeight': False, 'trialN': 79, 'loaded': True, 'loadedTime': 377681.60000014305, 'positionName': 'RIGHT', 'positionCoords': [998.4, 263.5], 'bid': 5.88}]",377671.7999999523,1669837009448,salad w chicken,roastedpotatoes,7.88,5.88,-2.0,,salad w chicken,649.4000000953674,649,649.7000000476837,True,u,378833.60000014305,1161.8000001907349,1669837010609,1161,HRV,HRV_0231,2022-11-30 19:39:41
80,"[{'imgObject': {}, 'id': 'steak', 'src': '/static/foodstim60/steak.jpg', 'key': 'u', 'origWidth': 410, 'origHeight': 410, 'width': 410, 'height': 410, 'widthPercent': 0.45, 'rescaleHeight': False, 'trialN': 80, 'loaded': True, 'loadedTime': 378838.7000000477, 'positionName': 'LEFT', 'positionCoords': [511.6, 263.5], 'bid': 3.86}, {'imgObject': {}, 'id': 'strawberries', 'src': '/static/foodstim60/strawberries.jpg', 'key': 'i', 'origWidth': 410, 'origHeight': 410, 'width': 410, 'height': 410, 'widthPercent': 0.45, 'rescaleHeight': False, 'trialN': 80, 'loaded': True, 'loadedTime': 378842.90000009537, 'positionName': 'RIGHT', 'positionCoords': [998.4, 263.5], 'bid': 7.140000000000001}]",378834.0,1669837010610,steak,strawberries,3.86,7.140000000000001,3.2800000000000007,,strawberries,594.7999999523163,595,595.0,True,i,379944.2000000477,1110.2000000476837,1669837011720,1110,HRV,HRV_0231,2022-11-30 19:39:41
81,"[{'imgObject': {}, 'id': 'yogurt no spoon', 'src': '/static/foodstim60/yogurt no spoon.jpg', 'key': 'u', 'origWidth': 411, 'origHeight': 410, 'width': 411, 'height': 410, 'widthPercent': 0.45, 'rescaleHeight': False, 'trialN': 81, 'loaded': True, 'loadedTime': 379948.7999999523, 'positionName': 'LEFT', 'positionCoords': [510.6, 263.5], 'bid': 7.08}, {'imgObject': {}, 'id': 'eggsalad', 'src': '/static/foodstim60/eggsalad.jpg', 'key': 'i', 'origWidth': 410, 'origHeight': 409, 'width': 410, 'height': 409, 'widthPercent': 0.45, 'rescaleHeight': False, 'trialN': 81, 'loaded': True, 'loadedTime': 379949.40000009537, 'positionName': 'RIGHT', 'positionCoords': [998.4, 264], 'bid': 6.12}]",379944.60000014305,1669837011720,yogurt no spoon,eggsalad,7.08,6.12,-0.96,,yogurt no spoon,840.0999999046326,841,840.2999999523163,True,u,381290.2000000477,1345.5999999046326,1669837013066,1346,HRV,HRV_0231,2022-11-30 19:39:41
82,"[{'imgObject': {}, 'id': 'lox', 'src': '/static/foodstim60/lox.jpg', 'key': 'u', 'origWidth': 410, 'origHeight': 411, 'width': 410, 'height': 411, 'widthPercent': 0.45, 'rescaleHeight': False, 'trialN': 82, 'loaded': True, 'loadedTime': 381296.2999999523, 'positionName': 'LEFT', 'positionCoords': [511.6, 263], 'bid': 3.62}, {'imgObject': {}, 'id': 'eggs', 'src': '/static/foodstim60/eggs.jpg', 'key': 'i', 'origWidth': 409, 'origHeight': 409, 'width': 409, 'height': 409, 'widthPercent': 0.45, 'rescaleHeight': False, 'trialN': 82, 'loaded': True, 'loadedTime': 381300.5, 'positionName': 'RIGHT', 'positionCoords': [998.4, 264], 'bid': 3.5}]",381290.7000000477,1669837013066,lox,eggs,3.62,3.5,-0.1200000000000001,,eggs,1661.2999999523163,1662,1661.5999999046326,True,i,383468.10000014305,2177.4000000953674,1669837015244,2178,HRV,HRV_0231,2022-11-30 19:39:41
83,"[{'imgObject': {}, 'id': 'apple slices', 'src': '/static/foodstim60/apple slices.jpg', 'key': 'u', 'origWidth': 409, 'origHeight': 410, 'width': 409, 'height': 410, 'widthPercent': 0.45, 'rescaleHeight': False, 'trialN': 83, 'loaded': True, 'loadedTime': 383474.2999999523, 'positionName': 'LEFT', 'positionCoords': [512.6, 263.5], 'bid': 5}, {'imgObject': {}, 'id': 'orange slices', 'src': '/static/foodstim60/orange slices.jpg', 'key': 'i', 'origWidth': 409, 'origHeight': 410, 'width': 409, 'height': 410, 'widthPercent': 0.45, 'rescaleHeight': False, 'trialN': 83, 'loaded': True, 'loadedTime': 383478.7000000477, 'positionName': 'RIGHT', 'positionCoords': [998.4, 263.5], 'bid': 6.67}]",383468.60000014305,1669837015244,apple slices,orange slices,5.0,6.67,1.67,,orange slices,1812.0999999046326,1813,1812.1999998092651,True,i,385799.2999999523,2330.699999809265,1669837017575,2331,HRV,HRV_0231,2022-11-30 19:39:41
84,"[{'imgObject': {}, 'id': 'rigatoni and sauce', 'src': '/static/foodstim60/rigatoni and sauce.jpg', 'key': 'u', 'origWidth': 410, 'origHeight': 411, 'width': 410, 'height': 411, 'widthPercent': 0.45, 'rescaleHeight': False, 'trialN': 84, 'loaded': True, 'loadedTime': 385804.90000009537, 'positionName': 'LEFT', 'positionCoords': [511.6, 263], 'bid': 3.95}, {'imgObject': {}, 'id': 'avocado', 'src': '/static/foodstim60/avocado.jpg', 'key': 'i', 'origWidth': 409, 'origHeight': 409, 'width': 409, 'height': 409, 'widthPercent': 0.45, 'rescaleHeight': False, 'trialN': 84, 'loaded': True, 'loadedTime': 385808.7999999523, 'positionName': 'RIGHT', 'positionCoords': [998.4, 264], 'bid': 7.29}]",385799.7999999523,1669837017576,rigatoni and sauce,avocado,3.95,7.29,3.34,,avocado,1331.9000000953674,1332,1332.1000001430511,True,i,387646.2999999523,1846.5,1669837019422,1846,HRV,HRV_0231,2022-11-30 19:39:41
85,"[{'imgObject': {}, 'id': 'corn cob', 'src': '/static/foodstim60/corn cob.jpg', 'key': 'u', 'origWidth': 411, 'origHeight': 411, 'width': 411, 'height': 411, 'widthPercent': 0.45, 'rescaleHeight': False, 'trialN': 85, 'loaded': True, 'loadedTime': 387652.60000014305, 'positionName': 'LEFT', 'positionCoords': [510.6, 263], 'bid': 4.55}, {'imgObject': {}, 'id': 'popsicles', 'src': '/static/foodstim60/popsicles.jpg', 'key': 'i', 'origWidth': 410, 'origHeight': 410, 'width': 410, 'height': 410, 'widthPercent': 0.45, 'rescaleHeight': False, 'trialN': 85, 'loaded': True, 'loadedTime': 387657.2000000477, 'positionName': 'RIGHT', 'positionCoords': [998.4, 263.5], 'bid': 3.14}]",387646.60000014305,1669837019422,corn cob,popsicles,4.55,3.14,-1.4099999999999997,,corn cob,2362.5,2363,2362.899999856949,True,u,390519.2000000477,2872.5999999046326,1669837022295,2873,HRV,HRV_0231,2022-11-30 19:39:41
86,"[{'imgObject': {}, 'id': 'omelette', 'src': '/static/foodstim60/omelette.jpg', 'key': 'u', 'origWidth': 410, 'origHeight': 409, 'width': 410, 'height': 409, 'widthPercent': 0.45, 'rescaleHeight': False, 'trialN': 86, 'loaded': True, 'loadedTime': 390525.2999999523, 'positionName': 'LEFT', 'positionCoords': [511.6, 264], 'bid': 6.59}, {'imgObject': {}, 'id': 'banana', 'src': '/static/foodstim60/banana.jpg', 'key': 'i', 'origWidth': 410, 'origHeight': 410, 'width': 410, 'height': 410, 'widthPercent': 0.45, 'rescaleHeight': False, 'trialN': 86, 'loaded': True, 'loadedTime': 390529.60000014305, 'positionName': 'RIGHT', 'positionCoords': [998.4, 263.5], 'bid': 5.69}]",390519.60000014305,1669837022295,omelette,banana,6.59,5.69,-0.8999999999999995,,omelette,1031.8999998569489,1032,1032.0,True,u,392067.90000009537,1548.2999999523163,1669837023844,1549,HRV,HRV_0231,2022-11-30 19:39:41
87,"[{'imgObject': {}, 'id': 'cherry tomato', 'src': '/static/foodstim60/cherry tomato.jpg', 'key': 'u', 'origWidth': 410, 'origHeight': 410, 'width': 410, 'height': 410, 'widthPercent': 0.45, 'rescaleHeight': False, 'trialN': 87, 'loaded': True, 'loadedTime': 392074.2999999523, 'positionName': 'LEFT', 'positionCoords': [511.6, 263.5], 'bid': 3.85}, {'imgObject': {}, 'id': 'steak', 'src': '/static/foodstim60/steak.jpg', 'key': 'i', 'origWidth': 410, 'origHeight': 410, 'width': 410, 'height': 410, 'widthPercent': 0.45, 'rescaleHeight': False, 'trialN': 87, 'loaded': True, 'loadedTime': 392079.10000014305, 'positionName': 'RIGHT', 'positionCoords': [998.4, 263.5], 'bid': 3.86}]",392068.2999999523,1669837023844,cherry tomato,steak,3.85,3.86,0.009999999999999787,,steak,1437.1000001430511,1437,1437.3000001907349,True,i,394010.2999999523,1942.0,1669837025786,1942,HRV,HRV_0231,2022-11-30 19:39:41
88,"[{'imgObject': {}, 'id': 'edamame', 'src': '/static/foodstim60/edamame.jpg', 'key': 'u', 'origWidth': 409, 'origHeight': 410, 'width': 409, 'height': 410, 'widthPercent': 0.45, 'rescaleHeight': False, 'trialN': 88, 'loaded': True, 'loadedTime': 394016.2000000477, 'positionName': 'LEFT', 'positionCoords': [512.6, 263.5], 'bid': 4.07}, {'imgObject': {}, 'id': 'lox', 'src': '/static/foodstim60/lox.jpg', 'key': 'i', 'origWidth': 410, 'origHeight': 411, 'width': 410, 'height': 411, 'widthPercent': 0.45, 'rescaleHeight': False, 'trialN': 88, 'loaded': True, 'loadedTime': 394021.10000014305, 'positionName': 'RIGHT', 'positionCoords': [998.4, 263], 'bid': 3.62}]",394010.7000000477,1669837025786,edamame,lox,4.07,3.62,-0.4500000000000002,,edamame,1363.4000000953674,1364,1363.5999999046326,True,u,395888.7000000477,1878.0,1669837027664,1878,HRV,HRV_0231,2022-11-30 19:39:41
89,"[{'imgObject': {}, 'id': 'luckycharms', 'src': '/static/foodstim60/luckycharms.jpg', 'key': 'u', 'origWidth': 410, 'origHeight': 409, 'width': 410, 'height': 409, 'widthPercent': 0.45, 'rescaleHeight': False, 'trialN': 89, 'loaded': True, 'loadedTime': 395894.7000000477, 'positionName': 'LEFT', 'positionCoords': [511.6, 264], 'bid': 4.14}, {'imgObject': {}, 'id': 'turkey sandwich', 'src': '/static/foodstim60/turkey sandwich.jpg', 'key': 'i', 'origWidth': 409, 'origHeight': 409, 'width': 409, 'height': 409, 'widthPercent': 0.45, 'rescaleHeight': False, 'trialN': 89, 'loaded': True, 'loadedTime': 395898.90000009537, 'positionName': 'RIGHT', 'positionCoords': [998.4, 264], 'bid': 5.0200000000000005}]",395889.0,1669837027665,luckycharms,turkey sandwich,4.14,5.0200000000000005,0.8800000000000008,,luckycharms,1493.0,1493,1493.2999999523163,True,u,397903.2000000477,2014.2000000476837,1669837029679,2014,HRV,HRV_0231,2022-11-30 19:39:41
90,"[{'imgObject': {}, 'id': 'apple slices', 'src': '/static/foodstim60/apple slices.jpg', 'key': 'u', 'origWidth': 409, 'origHeight': 410, 'width': 409, 'height': 410, 'widthPercent': 0.45, 'rescaleHeight': False, 'trialN': 90, 'loaded': True, 'loadedTime': 230979.29999995232, 'positionName': 'LEFT', 'positionCoords': [512.6, 335], 'bid': 5}, {'imgObject': {}, 'id': 'grilled chicken strips', 'src': '/static/foodstim60/grilled chicken strips.jpg', 'key': 'i', 'origWidth': 410, 'origHeight': 411, 'width': 410, 'height': 411, 'widthPercent': 0.45, 'rescaleHeight': False, 'trialN': 90, 'loaded': True, 'loadedTime': 230291.90000009537, 'positionName': 'RIGHT', 'positionCoords': [998.4, 334.5], 'bid': 4.97}]",400435.2999999523,1669837032211,apple slices,grilled chicken strips,5.0,4.97,-0.03000000000000025,"[{'event': 'fullscreenchange', 'details': 'fullscreenenter', 'performance time': 400436.10000014305, 'date time': 1669837032212}]",grilled chicken strips,2516.600000143051,2517,2516.800000190735,True,i,403463.10000014305,3027.800000190735,1669837035239,3028,HRV,HRV_0231,2022-11-30 19:39:41
91,"[{'imgObject': {}, 'id': 'avocado', 'src': '/static/foodstim60/avocado.jpg', 'key': 'u', 'origWidth': 409, 'origHeight': 409, 'width': 409, 'height': 409, 'widthPercent': 0.45, 'rescaleHeight': False, 'trialN': 91, 'loaded': True, 'loadedTime': 230540.70000004768, 'positionName': 'LEFT', 'positionCoords': [512.6, 335.5], 'bid': 7.29}, {'imgObject': {}, 'id': 'chickenfingers', 'src': '/static/foodstim60/chickenfingers.jpg', 'key': 'i', 'origWidth': 410, 'origHeight': 410, 'width': 410, 'height': 410, 'widthPercent': 0.45, 'rescaleHeight': False, 'trialN': 91, 'loaded': True, 'loadedTime': 230751.10000014305, 'positionName': 'RIGHT', 'positionCoords': [998.4, 335], 'bid': 8.44}]",403463.2999999523,1669837035239,avocado,chickenfingers,7.29,8.44,1.1499999999999995,,chickenfingers,855.8000001907349,856,856.2000000476837,True,i,404831.7000000477,1368.4000000953674,1669837036607,1368,HRV,HRV_0231,2022-11-30 19:39:41
92,"[{'imgObject': {}, 'id': 'corn cob', 'src': '/static/foodstim60/corn cob.jpg', 'key': 'u', 'origWidth': 411, 'origHeight': 411, 'width': 411, 'height': 411, 'widthPercent': 0.45, 'rescaleHeight': False, 'trialN': 92, 'loaded': True, 'loadedTime': 231076.60000014305, 'positionName': 'LEFT', 'positionCoords': [510.6, 334.5], 'bid': 4.55}, {'imgObject': {}, 'id': 'bagel and cc', 'src': '/static/foodstim60/bagel and cc.jpg', 'key': 'i', 'origWidth': 410, 'origHeight': 410, 'width': 410, 'height': 410, 'widthPercent': 0.45, 'rescaleHeight': False, 'trialN': 92, 'loaded': True, 'loadedTime': 231323.29999995232, 'positionName': 'RIGHT', 'positionCoords': [998.4, 335], 'bid': 5.41}]",404831.7999999523,1669837036607,corn cob,bagel and cc,4.55,5.41,0.8600000000000003,,bagel and cc,906.0,907,906.3000001907349,True,i,406245.0,1413.2000000476837,1669837038021,1414,HRV,HRV_0231,2022-11-30 19:39:41
93,"[{'imgObject': {}, 'id': 'Grapes', 'src': '/static/foodstim60/Grapes.jpg', 'key': 'u', 'origWidth': 411, 'origHeight': 411, 'width': 411, 'height': 411, 'widthPercent': 0.45, 'rescaleHeight': False, 'trialN': 93, 'loaded': True, 'loadedTime': 231540.90000009537, 'positionName': 'LEFT', 'positionCoords': [510.6, 263], 'bid': 5.1000000000000005}, {'imgObject': {}, 'id': 'veggieswithdip', 'src': '/static/foodstim60/veggieswithdip.jpg', 'key': 'i', 'origWidth': 409, 'origHeight': 409, 'width': 409, 'height': 409, 'widthPercent': 0.45, 'rescaleHeight': False, 'trialN': 93, 'loaded': True, 'loadedTime': 231462, 'positionName': 'RIGHT', 'positionCoords': [998.4, 264], 'bid': 5.41}]",406245.10000014305,1669837038021,Grapes,veggieswithdip,5.1000000000000005,5.41,0.3099999999999996,,veggieswithdip,1362.3999998569489,1362,1362.6999998092651,True,i,408123.5,1878.3999998569489,1669837039899,1878,HRV,HRV_0231,2022-11-30 19:39:41
94,"[{'imgObject': {}, 'id': 'cheerios', 'src': '/static/foodstim60/cheerios.jpg', 'key': 'u', 'origWidth': 409, 'origHeight': 410, 'width': 409, 'height': 410, 'widthPercent': 0.45, 'rescaleHeight': False, 'trialN': 94, 'loaded': True, 'loadedTime': 230415.40000009537, 'positionName': 'LEFT', 'positionCoords': [512.6, 335], 'bid': 2.54}, {'imgObject': {}, 'id': 'luckycharms', 'src': '/static/foodstim60/luckycharms.jpg', 'key': 'i', 'origWidth': 410, 'origHeight': 409, 'width': 410, 'height': 409, 'widthPercent': 0.45, 'rescaleHeight': False, 'trialN': 94, 'loaded': True, 'loadedTime': 230440.5, 'positionName': 'RIGHT', 'positionCoords': [998.4, 335.5], 'bid': 4.14}]",408123.60000014305,1669837039899,cheerios,luckycharms,2.54,4.14,1.5999999999999996,,luckycharms,2028.2999999523163,2029,2028.3999998569489,True,i,410664.2000000477,2540.5999999046326,1669837042440,2541,HRV,HRV_0231,2022-11-30 19:39:41
95,"[{'imgObject': {}, 'id': 'turkey sandwich', 'src': '/static/foodstim60/turkey sandwich.jpg', 'key': 'u', 'origWidth': 409, 'origHeight': 409, 'width': 409, 'height': 409, 'widthPercent': 0.45, 'rescaleHeight': False, 'trialN': 95, 'loaded': True, 'loadedTime': 231092.29999995232, 'positionName': 'LEFT', 'positionCoords': [512.6, 335.5], 'bid': 5.0200000000000005}, {'imgObject': {}, 'id': 'Grapes', 'src': '/static/foodstim60/Grapes.jpg', 'key': 'i', 'origWidth': 411, 'origHeight': 411, 'width': 411, 'height': 411, 'widthPercent': 0.45, 'rescaleHeight': False, 'trialN': 95, 'loaded': True, 'loadedTime': 231551.29999995232, 'positionName': 'RIGHT', 'positionCoords': [998.4, 263], 'bid': 5.1000000000000005}]",410664.2999999523,1669837042440,turkey sandwich,Grapes,5.0200000000000005,5.1000000000000005,0.08000000000000007,,turkey sandwich,1239.8000001907349,1240,1240.0,True,u,412414.7000000477,1750.4000000953674,1669837044190,1750,HRV,HRV_0231,2022-11-30 19:39:41
96,"[{'imgObject': {}, 'id': 'edamame', 'src': '/static/foodstim60/edamame.jpg', 'key': 'u', 'origWidth': 409, 'origHeight': 410, 'width': 409, 'height': 410, 'widthPercent': 0.45, 'rescaleHeight': False, 'trialN': 96, 'loaded': True, 'loadedTime': 231018.29999995232, 'positionName': 'LEFT', 'positionCoords': [512.6, 335], 'bid': 4.07}, {'imgObject': {}, 'id': 'rigatoni and sauce', 'src': '/static/foodstim60/rigatoni and sauce.jpg', 'key': 'i', 'origWidth': 410, 'origHeight': 411, 'width': 410, 'height': 411, 'widthPercent': 0.45, 'rescaleHeight': False, 'trialN': 96, 'loaded': True, 'loadedTime': 231024.70000004768, 'positionName': 'RIGHT', 'positionCoords': [998.4, 334.5], 'bid': 3.95}]",412414.90000009537,1669837044190,edamame,rigatoni and sauce,4.07,3.95,-0.1200000000000001,,rigatoni and sauce,1546.7000000476837,1548,1547.0,True,i,414471.60000014305,2056.7000000476837,1669837046247,2057,HRV,HRV_0231,2022-11-30 19:39:41
97,"[{'imgObject': {}, 'id': 'mac & cheese', 'src': '/static/foodstim60/mac & cheese.jpg', 'key': 'u', 'origWidth': 410, 'origHeight': 410, 'width': 410, 'height': 410, 'widthPercent': 0.45, 'rescaleHeight': False, 'trialN': 97, 'loaded': True, 'loadedTime': 231207.60000014305, 'positionName': 'LEFT', 'positionCoords': [511.6, 335], 'bid': 8.66}, {'imgObject': {}, 'id': 'yogurt no spoon', 'src': '/static/foodstim60/yogurt no spoon.jpg', 'key': 'i', 'origWidth': 411, 'origHeight': 410, 'width': 411, 'height': 410, 'widthPercent': 0.45, 'rescaleHeight': False, 'trialN': 97, 'loaded': True, 'loadedTime': 231527, 'positionName': 'RIGHT', 'positionCoords': [998.4, 263.5], 'bid': 7.08}]",414471.60000014305,1669837046247,mac & cheese,yogurt no spoon,8.66,7.08,-1.58,,mac & cheese,844.8999998569489,845,845.0999999046326,True,u,415821.2999999523,1349.6999998092651,1669837047597,1350,HRV,HRV_0231,2022-11-30 19:39:41
98,"[{'imgObject': {}, 'id': 'veggieswithdip', 'src': '/static/foodstim60/veggieswithdip.jpg', 'key': 'u', 'origWidth': 409, 'origHeight': 409, 'width': 409, 'height': 409, 'widthPercent': 0.45, 'rescaleHeight': False, 'trialN': 98, 'loaded': True, 'loadedTime': 231461.40000009537, 'positionName': 'LEFT', 'positionCoords': [512.6, 264], 'bid': 5.41}, {'imgObject': {}, 'id': 'ice cream sundae 002', 'src': '/static/foodstim60/ice cream sundae 002.jpg', 'key': 'i', 'origWidth': 409, 'origHeight': 409, 'width': 409, 'height': 409, 'widthPercent': 0.45, 'rescaleHeight': False, 'trialN': 98, 'loaded': True, 'loadedTime': 230936.60000014305, 'positionName': 'RIGHT', 'positionCoords': [998.4, 335.5], 'bid': 4.53}]",415821.5,1669837047597,veggieswithdip,ice cream sundae 002,5.41,4.53,-0.8799999999999999,,ice cream sundae 002,961.7000000476837,962,961.9000000953674,True,i,417300.7000000477,1479.2000000476837,1669837049076,1479,HRV,HRV_0231,2022-11-30 19:39:41
99,"[{'imgObject': {}, 'id': 'strawberries', 'src': '/static/foodstim60/strawberries.jpg', 'key': 'u', 'origWidth': 410, 'origHeight': 410, 'width': 410, 'height': 410, 'widthPercent': 0.45, 'rescaleHeight': False, 'trialN': 99, 'loaded': True, 'loadedTime': 231338.40000009537, 'positionName': 'LEFT', 'positionCoords': [511.6, 335], 'bid': 7.140000000000001}, {'imgObject': {}, 'id': 'avocado', 'src': '/static/foodstim60/avocado.jpg', 'key': 'i', 'origWidth': 409, 'origHeight': 409, 'width': 409, 'height': 409, 'widthPercent': 0.45, 'rescaleHeight': False, 'trialN': 99, 'loaded': True, 'loadedTime': 230525.40000009537, 'positionName': 'RIGHT', 'positionCoords': [998.4, 335.5], 'bid': 7.29}]",417301.2999999523,1669837049077,strawberries,avocado,7.140000000000001,7.29,0.14999999999999947,,strawberries,956.6000001430511,957,956.8000001907349,True,u,418768.2999999523,1467.0,1669837050544,1467,HRV,HRV_0231,2022-11-30 19:39:41
100,"[{'imgObject': {}, 'id': 'orange slices', 'src': '/static/foodstim60/orange slices.jpg', 'key': 'u', 'origWidth': 409, 'origHeight': 410, 'width': 409, 'height': 410, 'widthPercent': 0.45, 'rescaleHeight': False, 'trialN': 100, 'loaded': True, 'loadedTime': 230795.90000009537, 'positionName': 'LEFT', 'positionCoords': [512.6, 335], 'bid': 6.67}, {'imgObject': {}, 'id': 'cherry tomato', 'src': '/static/foodstim60/cherry tomato.jpg', 'key': 'i', 'origWidth': 410, 'origHeight': 410, 'width': 410, 'height': 410, 'widthPercent': 0.45, 'rescaleHeight': False, 'trialN': 100, 'loaded': True, 'loadedTime': 231376.10000014305, 'positionName': 'RIGHT', 'positionCoords': [998.4, 335], 'bid': 3.85}]",418768.5,1669837050544,orange slices,cherry tomato,6.67,3.85,-2.82,,orange slices,953.7000000476837,954,954.0,True,u,420226.2000000477,1457.7000000476837,1669837052002,1458,HRV,HRV_0231,2022-11-30 19:39:41
101,"[{'imgObject': {}, 'id': 'strawberries', 'src': '/static/foodstim60/strawberries.jpg', 'key': 'u', 'origWidth': 410, 'origHeight': 410, 'width': 410, 'height': 410, 'widthPercent': 0.45, 'rescaleHeight': False, 'trialN': 101, 'loaded': True, 'loadedTime': 231329.70000004768, 'positionName': 'LEFT', 'positionCoords': [511.6, 335], 'bid': 7.140000000000001}, {'imgObject': {}, 'id': 'cherries', 'src': '/static/foodstim60/cherries.jpg', 'key': 'i', 'origWidth': 410, 'origHeight': 411, 'width': 410, 'height': 411, 'widthPercent': 0.45, 'rescaleHeight': False, 'trialN': 101, 'loaded': True, 'loadedTime': 230356.90000009537, 'positionName': 'RIGHT', 'positionCoords': [998.4, 334.5], 'bid': 7.84}]",420226.2000000477,1669837052002,strawberries,cherries,7.140000000000001,7.84,0.6999999999999993,,strawberries,1569.2000000476837,1569,1569.4000000953674,True,u,422297.2999999523,2071.0999999046326,1669837054073,2071,HRV,HRV_0231,2022-11-30 19:39:41
102,"[{'imgObject': {}, 'id': 'fried eggs', 'src': '/static/foodstim60/fried eggs.jpg', 'key': 'u', 'origWidth': 410, 'origHeight': 410, 'width': 410, 'height': 410, 'widthPercent': 0.45, 'rescaleHeight': False, 'trialN': 102, 'loaded': True, 'loadedTime': 231361.10000014305, 'positionName': 'LEFT', 'positionCoords': [511.6, 335], 'bid': 6.17}, {'imgObject': {}, 'id': 'chicken nuggets2', 'src': '/static/foodstim60/chicken nuggets2.jpg', 'key': 'i', 'origWidth': 410, 'origHeight': 409, 'width': 410, 'height': 409, 'widthPercent': 0.45, 'rescaleHeight': False, 'trialN': 102, 'loaded': True, 'loadedTime': 231402.60000014305, 'positionName': 'RIGHT', 'positionCoords': [998.4, 335.5], 'bid': 6.23}]",422297.40000009537,1669837054073,fried eggs,chicken nuggets2,6.17,6.23,0.0600000000000005,,chicken nuggets2,1462.5,1463,1462.8999998569489,True,i,424265.2999999523,1967.8999998569489,1669837056041,1968,HRV,HRV_0231,2022-11-30 19:39:41
103,"[{'imgObject': {}, 'id': 'chicken nuggets2', 'src': '/static/foodstim60/chicken nuggets2.jpg', 'key': 'u', 'origWidth': 410, 'origHeight': 409, 'width': 410, 'height': 409, 'widthPercent': 0.45, 'rescaleHeight': False, 'trialN': 103, 'loaded': True, 'loadedTime': 231401.90000009537, 'positionName': 'LEFT', 'positionCoords': [511.6, 335.5], 'bid': 6.23}, {'imgObject': {}, 'id': 'fruitsalad', 'src': '/static/foodstim60/fruitsalad.jpg', 'key': 'i', 'origWidth': 410, 'origHeight': 410, 'width': 410, 'height': 410, 'widthPercent': 0.45, 'rescaleHeight': False, 'trialN': 103, 'loaded': True, 'loadedTime': 231265.10000014305, 'positionName': 'RIGHT', 'positionCoords': [998.4, 335], 'bid': 7.8}]",424265.5,1669837056041,chicken nuggets2,fruitsalad,6.23,7.8,1.5699999999999994,,chicken nuggets2,1075.6000001430511,1076,1075.7000000476837,True,u,425864.40000009537,1598.9000000953674,1669837057640,1599,HRV,HRV_0231,2022-11-30 19:39:41
104,"[{'imgObject': {}, 'id': 'burger', 'src': '/static/foodstim60/burger.jpg', 'key': 'u', 'origWidth': 409, 'origHeight': 409, 'width': 409, 'height': 409, 'widthPercent': 0.45, 'rescaleHeight': False, 'trialN': 104, 'loaded': True, 'loadedTime': 231236.29999995232, 'positionName': 'LEFT', 'positionCoords': [512.6, 335.5], 'bid': 5.7}, {'imgObject': {}, 'id': 'banana', 'src': '/static/foodstim60/banana.jpg', 'key': 'i', 'origWidth': 410, 'origHeight': 410, 'width': 410, 'height': 410, 'widthPercent': 0.45, 'rescaleHeight': False, 'trialN': 104, 'loaded': True, 'loadedTime': 231308.79999995232, 'positionName': 'RIGHT', 'positionCoords': [998.4, 335], 'bid': 5.69}]",425864.5,1669837057640,burger,banana,5.7,5.69,-0.009999999999999787,,burger,734.6000001430511,735,734.7999999523163,True,u,427108.2000000477,1243.7000000476837,1669837058884,1244,HRV,HRV_0231,2022-11-30 19:39:41
105,"[{'imgObject': {}, 'id': 'cantaloupe', 'src': '/static/foodstim60/cantaloupe.jpg', 'key': 'u', 'origWidth': 409, 'origHeight': 409, 'width': 409, 'height': 409, 'widthPercent': 0.45, 'rescaleHeight': False, 'trialN': 105, 'loaded': True, 'loadedTime': 230832.70000004768, 'positionName': 'LEFT', 'positionCoords': [512.6, 335.5], 'bid': 4.73}, {'imgObject': {}, 'id': 'salmon', 'src': '/static/foodstim60/salmon.jpg', 'key': 'i', 'origWidth': 410, 'origHeight': 409, 'width': 410, 'height': 409, 'widthPercent': 0.45, 'rescaleHeight': False, 'trialN': 105, 'loaded': True, 'loadedTime': 231339.70000004768, 'positionName': 'RIGHT', 'positionCoords': [998.4, 335.5], 'bid': 5.07}]",427108.2999999523,1669837058884,cantaloupe,salmon,4.73,5.07,0.33999999999999986,,salmon,1534.6000001430511,1535,1534.9000000953674,True,i,429157.60000014305,2049.300000190735,1669837060933,2049,HRV,HRV_0231,2022-11-30 19:39:41
106,"[{'imgObject': {}, 'id': 'pear', 'src': '/static/foodstim60/pear.jpg', 'key': 'u', 'origWidth': 411, 'origHeight': 410, 'width': 411, 'height': 410, 'widthPercent': 0.45, 'rescaleHeight': False, 'trialN': 106, 'loaded': True, 'loadedTime': 230923.70000004768, 'positionName': 'LEFT', 'positionCoords': [510.6, 335], 'bid': 5.45}, {'imgObject': {}, 'id': 'chicken nuggets2', 'src': '/static/foodstim60/chicken nuggets2.jpg', 'key': 'i', 'origWidth': 410, 'origHeight': 409, 'width': 410, 'height': 409, 'widthPercent': 0.45, 'rescaleHeight': False, 'trialN': 106, 'loaded': True, 'loadedTime': 231394.29999995232, 'positionName': 'RIGHT', 'positionCoords': [998.4, 335.5], 'bid': 6.23}]",429157.7000000477,1669837060933,pear,chicken nuggets2,5.45,6.23,0.7800000000000002,,chicken nuggets2,777.7999999523163,778,778.0999999046326,True,i,430452.2000000477,1294.5,1669837062228,1295,HRV,HRV_0231,2022-11-30 19:39:41
107,"[{'imgObject': {}, 'id': 'granola w milk', 'src': '/static/foodstim60/granola w milk.jpg', 'key': 'u', 'origWidth': 410, 'origHeight': 410, 'width': 410, 'height': 410, 'widthPercent': 0.45, 'rescaleHeight': False, 'trialN': 107, 'loaded': True, 'loadedTime': 231170.90000009537, 'positionName': 'LEFT', 'positionCoords': [511.6, 335], 'bid': 2.35}, {'imgObject': {}, 'id': 'lox', 'src': '/static/foodstim60/lox.jpg', 'key': 'i', 'origWidth': 410, 'origHeight': 411, 'width': 410, 'height': 411, 'widthPercent': 0.45, 'rescaleHeight': False, 'trialN': 107, 'loaded': True, 'loadedTime': 230700.90000009537, 'positionName': 'RIGHT', 'positionCoords': [998.4, 334.5], 'bid': 3.62}]",430452.2999999523,1669837062228,granola w milk,lox,2.35,3.62,1.27,,granola w milk,1154.6000001430511,1155,1154.9000000953674,True,u,432124.2999999523,1672.0,1669837063900,1672,HRV,HRV_0231,2022-11-30 19:39:41
