trialN,stimuli,trialStartTime,trialStartTime_UNIX,stimulus1,stimulus2,stimulus1Bid,stimulus2Bid,delta,selected,rt,rt_UNIX,rt_perfnow,receivedResponse,rsp,trialEndTime,trialDuration,trialEndTime_UNIX,trialDuration_UNIX,exp,subjectId,date
0,"[{'imgObject': {}, 'id': 'fruitsalad', 'src': '/static/foodstim60/fruitsalad.jpg', 'key': 'u', 'origWidth': 410, 'origHeight': 410, 'width': 410, 'height': 410, 'widthPercent': 0.45, 'rescaleHeight': False, 'trialN': 0, 'loaded': True, 'loadedTime': 2893, 'positionName': 'LEFT', 'positionCoords': [511.6, 335], 'bid': 5.33}, {'imgObject': {}, 'id': 'cherry tomato', 'src': '/static/foodstim60/cherry tomato.jpg', 'key': 'i', 'origWidth': 410, 'origHeight': 410, 'width': 410, 'height': 410, 'widthPercent': 0.45, 'rescaleHeight': False, 'trialN': 0, 'loaded': True, 'loadedTime': 2893, 'positionName': 'RIGHT', 'positionCoords': [998.4, 335], 'bid': 2.75}]",2940,1669830410374,fruitsalad,cherry tomato,5.33,2.75,-2.58,fruitsalad,1737,1739,1739,True,u,5184,2244,1669830412619,2245,HRV,HRV_0130,2022-11-30 17:52:51
1,"[{'imgObject': {}, 'id': 'turkeysandwich', 'src': '/static/foodstim60/turkeysandwich.jpg', 'key': 'u', 'origWidth': 409, 'origHeight': 409, 'width': 409, 'height': 409, 'widthPercent': 0.45, 'rescaleHeight': False, 'trialN': 1, 'loaded': True, 'loadedTime': 2895, 'positionName': 'LEFT', 'positionCoords': [512.6, 335.5], 'bid': 6.2700000000000005}, {'imgObject': {}, 'id': 'blackbeanswithrice', 'src': '/static/foodstim60/blackbeanswithrice.jpg', 'key': 'i', 'origWidth': 410, 'origHeight': 410, 'width': 410, 'height': 410, 'widthPercent': 0.45, 'rescaleHeight': False, 'trialN': 1, 'loaded': True, 'loadedTime': 2895, 'positionName': 'RIGHT', 'positionCoords': [998.4, 335], 'bid': 8.040000000000001}]",5184,1669830412619,turkeysandwich,blackbeanswithrice,6.2700000000000005,8.040000000000001,1.7700000000000005,blackbeanswithrice,1336,1344,1345,True,i,7030,1846,1669830414465,1846,HRV,HRV_0130,2022-11-30 17:52:51
2,"[{'imgObject': {}, 'id': 'chickenfingers', 'src': '/static/foodstim60/chickenfingers.jpg', 'key': 'u', 'origWidth': 410, 'origHeight': 410, 'width': 410, 'height': 410, 'widthPercent': 0.45, 'rescaleHeight': False, 'trialN': 2, 'loaded': True, 'loadedTime': 2896, 'positionName': 'LEFT', 'positionCoords': [511.6, 335], 'bid': 8.51}, {'imgObject': {}, 'id': 'mac & cheese', 'src': '/static/foodstim60/mac & cheese.jpg', 'key': 'i', 'origWidth': 410, 'origHeight': 410, 'width': 410, 'height': 410, 'widthPercent': 0.45, 'rescaleHeight': False, 'trialN': 2, 'loaded': True, 'loadedTime': 2897, 'positionName': 'RIGHT', 'positionCoords': [998.4, 335], 'bid': 6.68}]",7031,1669830414465,chickenfingers,mac & cheese,8.51,6.68,-1.83,chickenfingers,1332,1336,1336,True,u,8876,1845,1669830416310,1845,HRV,HRV_0130,2022-11-30 17:52:51
3,"[{'imgObject': {}, 'id': 'chicken nuggets2', 'src': '/static/foodstim60/chicken nuggets2.jpg', 'key': 'u', 'origWidth': 410, 'origHeight': 409, 'width': 410, 'height': 409, 'widthPercent': 0.45, 'rescaleHeight': False, 'trialN': 3, 'loaded': True, 'loadedTime': 2898, 'positionName': 'LEFT', 'positionCoords': [511.6, 335.5], 'bid': 7.44}, {'imgObject': {}, 'id': 'pear', 'src': '/static/foodstim60/pear.jpg', 'key': 'i', 'origWidth': 411, 'origHeight': 410, 'width': 411, 'height': 410, 'widthPercent': 0.45, 'rescaleHeight': False, 'trialN': 3, 'loaded': True, 'loadedTime': 2899, 'positionName': 'RIGHT', 'positionCoords': [998.4, 335], 'bid': 7.5}]",8876,1669830416310,chicken nuggets2,pear,7.44,7.5,0.05999999999999961,chicken nuggets2,1331,1337,1337,True,u,10719,1843,1669830418154,1844,HRV,HRV_0130,2022-11-30 17:52:51
4,"[{'imgObject': {}, 'id': 'raisin bran w milk', 'src': '/static/foodstim60/raisin bran w milk.jpg', 'key': 'u', 'origWidth': 411, 'origHeight': 411, 'width': 411, 'height': 411, 'widthPercent': 0.45, 'rescaleHeight': False, 'trialN': 4, 'loaded': True, 'loadedTime': 2900, 'positionName': 'LEFT', 'positionCoords': [510.6, 334.5], 'bid': 5.3100000000000005}, {'imgObject': {}, 'id': 'froot loops w milk', 'src': '/static/foodstim60/froot loops w milk.jpg', 'key': 'i', 'origWidth': 410, 'origHeight': 410, 'width': 410, 'height': 410, 'widthPercent': 0.45, 'rescaleHeight': False, 'trialN': 4, 'loaded': True, 'loadedTime': 2900, 'positionName': 'RIGHT', 'positionCoords': [998.4, 335], 'bid': 4.94}]",10720,1669830418154,raisin bran w milk,froot loops w milk,5.3100000000000005,4.94,-0.3700000000000001,froot loops w milk,1722,1723,1723,True,i,12950,2230,1669830420384,2230,HRV,HRV_0130,2022-11-30 17:52:51
5,"[{'imgObject': {}, 'id': 'veggieswithdip', 'src': '/static/foodstim60/veggieswithdip.jpg', 'key': 'u', 'origWidth': 409, 'origHeight': 409, 'width': 409, 'height': 409, 'widthPercent': 0.45, 'rescaleHeight': False, 'trialN': 5, 'loaded': True, 'loadedTime': 2901, 'positionName': 'LEFT', 'positionCoords': [512.6, 335.5], 'bid': 6.18}, {'imgObject': {}, 'id': 'sweetpotato', 'src': '/static/foodstim60/sweetpotato.jpg', 'key': 'i', 'origWidth': 410, 'origHeight': 410, 'width': 410, 'height': 410, 'widthPercent': 0.45, 'rescaleHeight': False, 'trialN': 5, 'loaded': True, 'loadedTime': 2902, 'positionName': 'RIGHT', 'positionCoords': [998.4, 335], 'bid': 0.86}]",12950,1669830420384,veggieswithdip,sweetpotato,6.18,0.86,-5.319999999999999,veggieswithdip,1007,1024,1023,True,u,14474,1524,1669830421909,1525,HRV,HRV_0130,2022-11-30 17:52:51
6,"[{'imgObject': {}, 'id': 'edamame', 'src': '/static/foodstim60/edamame.jpg', 'key': 'u', 'origWidth': 409, 'origHeight': 410, 'width': 409, 'height': 410, 'widthPercent': 0.45, 'rescaleHeight': False, 'trialN': 6, 'loaded': True, 'loadedTime': 2902, 'positionName': 'LEFT', 'positionCoords': [512.6, 335], 'bid': 4.42}, {'imgObject': {}, 'id': 'strawberries', 'src': '/static/foodstim60/strawberries.jpg', 'key': 'i', 'origWidth': 410, 'origHeight': 410, 'width': 410, 'height': 410, 'widthPercent': 0.45, 'rescaleHeight': False, 'trialN': 6, 'loaded': True, 'loadedTime': 2903, 'positionName': 'RIGHT', 'positionCoords': [998.4, 335], 'bid': 7.79}]",14474,1669830421909,edamame,strawberries,4.42,7.79,3.37,strawberries,1031,1038,1039,True,i,16026,1552,1669830423460,1551,HRV,HRV_0130,2022-11-30 17:52:51
7,"[{'imgObject': {}, 'id': 'eggsalad', 'src': '/static/foodstim60/eggsalad.jpg', 'key': 'u', 'origWidth': 410, 'origHeight': 409, 'width': 410, 'height': 409, 'widthPercent': 0.45, 'rescaleHeight': False, 'trialN': 7, 'loaded': True, 'loadedTime': 2904, 'positionName': 'LEFT', 'positionCoords': [511.6, 335.5], 'bid': 5.89}, {'imgObject': {}, 'id': 'rigatoni', 'src': '/static/foodstim60/rigatoni.jpg', 'key': 'i', 'origWidth': 411, 'origHeight': 411, 'width': 411, 'height': 411, 'widthPercent': 0.45, 'rescaleHeight': False, 'trialN': 7, 'loaded': True, 'loadedTime': 2905, 'positionName': 'RIGHT', 'positionCoords': [998.4, 334.5], 'bid': 5.48}]",16026,1669830423460,eggsalad,rigatoni,5.89,5.48,-0.40999999999999925,eggsalad,1776,1780,1779,True,u,18317,2291,1669830425750,2290,HRV,HRV_0130,2022-11-30 17:52:51
8,"[{'imgObject': {}, 'id': 'banana', 'src': '/static/foodstim60/banana.jpg', 'key': 'u', 'origWidth': 410, 'origHeight': 410, 'width': 410, 'height': 410, 'widthPercent': 0.45, 'rescaleHeight': False, 'trialN': 8, 'loaded': True, 'loadedTime': 2905, 'positionName': 'LEFT', 'positionCoords': [511.6, 335], 'bid': 1.15}, {'imgObject': {}, 'id': 'mashed potato', 'src': '/static/foodstim60/mashed potato.jpg', 'key': 'i', 'origWidth': 409, 'origHeight': 409, 'width': 409, 'height': 409, 'widthPercent': 0.45, 'rescaleHeight': False, 'trialN': 8, 'loaded': True, 'loadedTime': 2906, 'positionName': 'RIGHT', 'positionCoords': [998.4, 335.5], 'bid': 6.26}]",18317,1669830425750,banana,mashed potato,1.15,6.26,5.109999999999999,mashed potato,969,973,972,True,i,19793,1476,1669830427227,1477,HRV,HRV_0130,2022-11-30 17:52:51
9,"[{'imgObject': {}, 'id': 'Grapes', 'src': '/static/foodstim60/Grapes.jpg', 'key': 'u', 'origWidth': 411, 'origHeight': 411, 'width': 411, 'height': 411, 'widthPercent': 0.45, 'rescaleHeight': False, 'trialN': 9, 'loaded': True, 'loadedTime': 2907, 'positionName': 'LEFT', 'positionCoords': [510.6, 334.5], 'bid': 8.4}, {'imgObject': {}, 'id': 'roastedpotatoes', 'src': '/static/foodstim60/roastedpotatoes.jpg', 'key': 'i', 'origWidth': 409, 'origHeight': 410, 'width': 409, 'height': 410, 'widthPercent': 0.45, 'rescaleHeight': False, 'trialN': 9, 'loaded': True, 'loadedTime': 2908, 'positionName': 'RIGHT', 'positionCoords': [998.4, 335], 'bid': 8.64}]",19793,1669830427227,Grapes,roastedpotatoes,8.4,8.64,0.2400000000000002,roastedpotatoes,1524,1535,1535,True,i,21838,2045,1669830429272,2045,HRV,HRV_0130,2022-11-30 17:52:51
10,"[{'imgObject': {}, 'id': 'apple slices', 'src': '/static/foodstim60/apple slices.jpg', 'key': 'u', 'origWidth': 409, 'origHeight': 410, 'width': 409, 'height': 410, 'widthPercent': 0.45, 'rescaleHeight': False, 'trialN': 10, 'loaded': True, 'loadedTime': 2909, 'positionName': 'LEFT', 'positionCoords': [512.6, 335], 'bid': 9.36}, {'imgObject': {}, 'id': 'rigatoni and sauce', 'src': '/static/foodstim60/rigatoni and sauce.jpg', 'key': 'i', 'origWidth': 410, 'origHeight': 411, 'width': 410, 'height': 411, 'widthPercent': 0.45, 'rescaleHeight': False, 'trialN': 10, 'loaded': True, 'loadedTime': 2909, 'positionName': 'RIGHT', 'positionCoords': [998.4, 334.5], 'bid': 5.97}]",21838,1669830429273,apple slices,rigatoni and sauce,9.36,5.97,-3.3899999999999997,apple slices,1089,1096,1098,True,u,23440,1602,1669830430873,1600,HRV,HRV_0130,2022-11-30 17:52:51
11,"[{'imgObject': {}, 'id': 'cherries', 'src': '/static/foodstim60/cherries.jpg', 'key': 'u', 'origWidth': 410, 'origHeight': 411, 'width': 410, 'height': 411, 'widthPercent': 0.45, 'rescaleHeight': False, 'trialN': 11, 'loaded': True, 'loadedTime': 2910, 'positionName': 'LEFT', 'positionCoords': [511.6, 334.5], 'bid': 5.75}, {'imgObject': {}, 'id': 'fruitsalad', 'src': '/static/foodstim60/fruitsalad.jpg', 'key': 'i', 'origWidth': 410, 'origHeight': 410, 'width': 410, 'height': 410, 'widthPercent': 0.45, 'rescaleHeight': False, 'trialN': 11, 'loaded': True, 'loadedTime': 2893, 'positionName': 'RIGHT', 'positionCoords': [998.4, 335], 'bid': 5.33}]",23440,1669830430873,cherries,fruitsalad,5.75,5.33,-0.41999999999999993,cherries,1158,1167,1166,True,u,25116,1676,1669830432550,1677,HRV,HRV_0130,2022-11-30 17:52:51
12,"[{'imgObject': {}, 'id': 'popsicles', 'src': '/static/foodstim60/popsicles.jpg', 'key': 'u', 'origWidth': 410, 'origHeight': 410, 'width': 410, 'height': 410, 'widthPercent': 0.45, 'rescaleHeight': False, 'trialN': 12, 'loaded': True, 'loadedTime': 2911, 'positionName': 'LEFT', 'positionCoords': [511.6, 335], 'bid': 6.42}, {'imgObject': {}, 'id': 'blueberries', 'src': '/static/foodstim60/blueberries.jpg', 'key': 'i', 'origWidth': 411, 'origHeight': 411, 'width': 411, 'height': 411, 'widthPercent': 0.45, 'rescaleHeight': False, 'trialN': 12, 'loaded': True, 'loadedTime': 2912, 'positionName': 'RIGHT', 'positionCoords': [998.4, 334.5], 'bid': 6.54}]",25116,1669830432550,popsicles,blueberries,6.42,6.54,0.1200000000000001,blueberries,1060,1065,1065,True,i,26684,1568,1669830434118,1568,HRV,HRV_0130,2022-11-30 17:52:51
13,"[{'imgObject': {}, 'id': 'mango', 'src': '/static/foodstim60/mango.jpg', 'key': 'u', 'origWidth': 411, 'origHeight': 411, 'width': 411, 'height': 411, 'widthPercent': 0.45, 'rescaleHeight': False, 'trialN': 13, 'loaded': True, 'loadedTime': 2913, 'positionName': 'LEFT', 'positionCoords': [510.6, 334.5], 'bid': 3.47}, {'imgObject': {}, 'id': 'rigatoni', 'src': '/static/foodstim60/rigatoni.jpg', 'key': 'i', 'origWidth': 411, 'origHeight': 411, 'width': 411, 'height': 411, 'widthPercent': 0.45, 'rescaleHeight': False, 'trialN': 13, 'loaded': True, 'loadedTime': 2905, 'positionName': 'RIGHT', 'positionCoords': [998.4, 334.5], 'bid': 5.48}]",26684,1669830434118,mango,rigatoni,3.47,5.48,2.0100000000000002,mango,1288,1294,1294,True,u,28482,1798,1669830435916,1798,HRV,HRV_0130,2022-11-30 17:52:51
14,"[{'imgObject': {}, 'id': 'olives', 'src': '/static/foodstim60/olives.jpg', 'key': 'u', 'origWidth': 410, 'origHeight': 410, 'width': 410, 'height': 410, 'widthPercent': 0.45, 'rescaleHeight': False, 'trialN': 14, 'loaded': True, 'loadedTime': 2914, 'positionName': 'LEFT', 'positionCoords': [511.6, 335], 'bid': 2.08}, {'imgObject': {}, 'id': 'eggs', 'src': '/static/foodstim60/eggs.jpg', 'key': 'i', 'origWidth': 409, 'origHeight': 409, 'width': 409, 'height': 409, 'widthPercent': 0.45, 'rescaleHeight': False, 'trialN': 14, 'loaded': True, 'loadedTime': 2915, 'positionName': 'RIGHT', 'positionCoords': [998.4, 335.5], 'bid': 6.55}]",28482,1669830435916,olives,eggs,2.08,6.55,4.47,eggs,1007,1021,1021,True,i,30005,1523,1669830437438,1522,HRV,HRV_0130,2022-11-30 17:52:51
15,"[{'imgObject': {}, 'id': 'fried eggs', 'src': '/static/foodstim60/fried eggs.jpg', 'key': 'u', 'origWidth': 410, 'origHeight': 410, 'width': 410, 'height': 410, 'widthPercent': 0.45, 'rescaleHeight': False, 'trialN': 15, 'loaded': True, 'loadedTime': 2916, 'positionName': 'LEFT', 'positionCoords': [511.6, 335], 'bid': 7.85}, {'imgObject': {}, 'id': 'granola w milk', 'src': '/static/foodstim60/granola w milk.jpg', 'key': 'i', 'origWidth': 410, 'origHeight': 410, 'width': 410, 'height': 410, 'widthPercent': 0.45, 'rescaleHeight': False, 'trialN': 15, 'loaded': True, 'loadedTime': 2916, 'positionName': 'RIGHT', 'positionCoords': [998.4, 335], 'bid': 4.7}]",30005,1669830437438,fried eggs,granola w milk,7.85,4.7,-3.1499999999999995,fried eggs,967,973,973,True,u,31481,1476,1669830438915,1477,HRV,HRV_0130,2022-11-30 17:52:51
16,"[{'imgObject': {}, 'id': 'mac & cheese', 'src': '/static/foodstim60/mac & cheese.jpg', 'key': 'u', 'origWidth': 410, 'origHeight': 410, 'width': 410, 'height': 410, 'widthPercent': 0.45, 'rescaleHeight': False, 'trialN': 16, 'loaded': True, 'loadedTime': 2898, 'positionName': 'LEFT', 'positionCoords': [511.6, 335], 'bid': 6.68}, {'imgObject': {}, 'id': 'rigatoni and sauce', 'src': '/static/foodstim60/rigatoni and sauce.jpg', 'key': 'i', 'origWidth': 410, 'origHeight': 411, 'width': 410, 'height': 411, 'widthPercent': 0.45, 'rescaleHeight': False, 'trialN': 16, 'loaded': True, 'loadedTime': 2910, 'positionName': 'RIGHT', 'positionCoords': [998.4, 334.5], 'bid': 5.97}]",31481,1669830438915,mac & cheese,rigatoni and sauce,6.68,5.97,-0.71,mac & cheese,1352,1358,1359,True,u,33343,1862,1669830440776,1861,HRV,HRV_0130,2022-11-30 17:52:51
17,"[{'imgObject': {}, 'id': 'Grapes', 'src': '/static/foodstim60/Grapes.jpg', 'key': 'u', 'origWidth': 411, 'origHeight': 411, 'width': 411, 'height': 411, 'widthPercent': 0.45, 'rescaleHeight': False, 'trialN': 17, 'loaded': True, 'loadedTime': 2908, 'positionName': 'LEFT', 'positionCoords': [510.6, 334.5], 'bid': 8.4}, {'imgObject': {}, 'id': 'turkey sandwich', 'src': '/static/foodstim60/turkey sandwich.jpg', 'key': 'i', 'origWidth': 409, 'origHeight': 409, 'width': 409, 'height': 409, 'widthPercent': 0.45, 'rescaleHeight': False, 'trialN': 17, 'loaded': True, 'loadedTime': 2917, 'positionName': 'RIGHT', 'positionCoords': [998.4, 335.5], 'bid': 6.66}]",33343,1669830440776,Grapes,turkey sandwich,8.4,6.66,-1.7400000000000002,Grapes,1036,1052,1052,True,u,34896,1553,1669830442330,1554,HRV,HRV_0130,2022-11-30 17:52:51
18,"[{'imgObject': {}, 'id': 'luckycharms', 'src': '/static/foodstim60/luckycharms.jpg', 'key': 'u', 'origWidth': 410, 'origHeight': 409, 'width': 410, 'height': 409, 'widthPercent': 0.45, 'rescaleHeight': False, 'trialN': 18, 'loaded': True, 'loadedTime': 2917, 'positionName': 'LEFT', 'positionCoords': [511.6, 335.5], 'bid': 4.96}, {'imgObject': {}, 'id': 'cantaloupe', 'src': '/static/foodstim60/cantaloupe.jpg', 'key': 'i', 'origWidth': 409, 'origHeight': 409, 'width': 409, 'height': 409, 'widthPercent': 0.45, 'rescaleHeight': False, 'trialN': 18, 'loaded': True, 'loadedTime': 2918, 'positionName': 'RIGHT', 'positionCoords': [998.4, 335.5], 'bid': 2.68}]",34896,1669830442330,luckycharms,cantaloupe,4.96,2.68,-2.28,luckycharms,1406,1417,1417,True,u,36818,1922,1669830444252,1922,HRV,HRV_0130,2022-11-30 17:52:51
19,"[{'imgObject': {}, 'id': 'baked potato', 'src': '/static/foodstim60/baked potato.jpg', 'key': 'u', 'origWidth': 409, 'origHeight': 410, 'width': 409, 'height': 410, 'widthPercent': 0.45, 'rescaleHeight': False, 'trialN': 19, 'loaded': True, 'loadedTime': 2919, 'positionName': 'LEFT', 'positionCoords': [512.6, 335], 'bid': 8.09}, {'imgObject': {}, 'id': 'salad w chicken', 'src': '/static/foodstim60/salad w chicken.jpg', 'key': 'i', 'origWidth': 411, 'origHeight': 411, 'width': 411, 'height': 411, 'widthPercent': 0.45, 'rescaleHeight': False, 'trialN': 19, 'loaded': True, 'loadedTime': 2920, 'positionName': 'RIGHT', 'positionCoords': [998.4, 334.5], 'bid': 8.38}]",36818,1669830444252,baked potato,salad w chicken,8.09,8.38,0.2900000000000009,baked potato,1029,1034,1034,True,u,38356,1538,1669830445790,1538,HRV,HRV_0130,2022-11-30 17:52:51
20,"[{'imgObject': {}, 'id': 'roastedpotatoes', 'src': '/static/foodstim60/roastedpotatoes.jpg', 'key': 'u', 'origWidth': 409, 'origHeight': 410, 'width': 409, 'height': 410, 'widthPercent': 0.45, 'rescaleHeight': False, 'trialN': 20, 'loaded': True, 'loadedTime': 2909, 'positionName': 'LEFT', 'positionCoords': [512.6, 335], 'bid': 8.64}, {'imgObject': {}, 'id': 'blackbeanswithrice', 'src': '/static/foodstim60/blackbeanswithrice.jpg', 'key': 'i', 'origWidth': 410, 'origHeight': 410, 'width': 410, 'height': 410, 'widthPercent': 0.45, 'rescaleHeight': False, 'trialN': 20, 'loaded': True, 'loadedTime': 2896, 'positionName': 'RIGHT', 'positionCoords': [998.4, 335], 'bid': 8.040000000000001}]",38356,1669830445790,roastedpotatoes,blackbeanswithrice,8.64,8.040000000000001,-0.5999999999999996,roastedpotatoes,1632,1647,1648,True,u,40508,2152,1669830447942,2152,HRV,HRV_0130,2022-11-30 17:52:51
21,"[{'imgObject': {}, 'id': 'avocado', 'src': '/static/foodstim60/avocado.jpg', 'key': 'u', 'origWidth': 409, 'origHeight': 409, 'width': 409, 'height': 409, 'widthPercent': 0.45, 'rescaleHeight': False, 'trialN': 21, 'loaded': True, 'loadedTime': 2920, 'positionName': 'LEFT', 'positionCoords': [512.6, 335.5], 'bid': 1.66}, {'imgObject': {}, 'id': 'hotdog w must', 'src': '/static/foodstim60/hotdog w must.jpg', 'key': 'i', 'origWidth': 409, 'origHeight': 409, 'width': 409, 'height': 409, 'widthPercent': 0.45, 'rescaleHeight': False, 'trialN': 21, 'loaded': True, 'loadedTime': 2921, 'positionName': 'RIGHT', 'positionCoords': [998.4, 335.5], 'bid': 1.87}]",40508,1669830447942,avocado,hotdog w must,1.66,1.87,0.2100000000000002,avocado,2043,2059,2058,True,u,43077,2569,1669830450511,2569,HRV,HRV_0130,2022-11-30 17:52:51
22,"[{'imgObject': {}, 'id': 'raisin bran w milk', 'src': '/static/foodstim60/raisin bran w milk.jpg', 'key': 'u', 'origWidth': 411, 'origHeight': 411, 'width': 411, 'height': 411, 'widthPercent': 0.45, 'rescaleHeight': False, 'trialN': 22, 'loaded': True, 'loadedTime': 2900, 'positionName': 'LEFT', 'positionCoords': [510.6, 334.5], 'bid': 5.3100000000000005}, {'imgObject': {}, 'id': 'cheerios', 'src': '/static/foodstim60/cheerios.jpg', 'key': 'i', 'origWidth': 409, 'origHeight': 410, 'width': 409, 'height': 410, 'widthPercent': 0.45, 'rescaleHeight': False, 'trialN': 22, 'loaded': True, 'loadedTime': 2922, 'positionName': 'RIGHT', 'positionCoords': [998.4, 335], 'bid': 5.05}]",43077,1669830450511,raisin bran w milk,cheerios,5.3100000000000005,5.05,-0.2600000000000007,cheerios,1896,1911,1910,True,i,45488,2411,1669830452922,2411,HRV,HRV_0130,2022-11-30 17:52:51
23,"[{'imgObject': {}, 'id': 'burrito', 'src': '/static/foodstim60/burrito.jpg', 'key': 'u', 'origWidth': 410, 'origHeight': 410, 'width': 410, 'height': 410, 'widthPercent': 0.45, 'rescaleHeight': False, 'trialN': 23, 'loaded': True, 'loadedTime': 2923, 'positionName': 'LEFT', 'positionCoords': [511.6, 335], 'bid': 8.67}, {'imgObject': {}, 'id': 'baked potato', 'src': '/static/foodstim60/baked potato.jpg', 'key': 'i', 'origWidth': 409, 'origHeight': 410, 'width': 409, 'height': 410, 'widthPercent': 0.45, 'rescaleHeight': False, 'trialN': 23, 'loaded': True, 'loadedTime': 2920, 'positionName': 'RIGHT', 'positionCoords': [998.4, 335], 'bid': 8.09}]",45488,1669830452923,burrito,baked potato,8.67,8.09,-0.5800000000000001,baked potato,1376,1389,1389,True,i,47378,1890,1669830454813,1890,HRV,HRV_0130,2022-11-30 17:52:51
24,"[{'imgObject': {}, 'id': 'eggsalad', 'src': '/static/foodstim60/eggsalad.jpg', 'key': 'u', 'origWidth': 410, 'origHeight': 409, 'width': 410, 'height': 409, 'widthPercent': 0.45, 'rescaleHeight': False, 'trialN': 24, 'loaded': True, 'loadedTime': 2905, 'positionName': 'LEFT', 'positionCoords': [511.6, 335.5], 'bid': 5.89}, {'imgObject': {}, 'id': 'cherries', 'src': '/static/foodstim60/cherries.jpg', 'key': 'i', 'origWidth': 410, 'origHeight': 411, 'width': 410, 'height': 411, 'widthPercent': 0.45, 'rescaleHeight': False, 'trialN': 24, 'loaded': True, 'loadedTime': 2911, 'positionName': 'RIGHT', 'positionCoords': [998.4, 334.5], 'bid': 5.75}]",47378,1669830454813,eggsalad,cherries,5.89,5.75,-0.13999999999999968,cherries,1689,1695,1696,True,i,49578,2200,1669830457012,2199,HRV,HRV_0130,2022-11-30 17:52:51
25,"[{'imgObject': {}, 'id': 'cocktailshrimp', 'src': '/static/foodstim60/cocktailshrimp.jpg', 'key': 'u', 'origWidth': 410, 'origHeight': 410, 'width': 410, 'height': 410, 'widthPercent': 0.45, 'rescaleHeight': False, 'trialN': 25, 'loaded': True, 'loadedTime': 2924, 'positionName': 'LEFT', 'positionCoords': [511.6, 335], 'bid': 0.22}, {'imgObject': {}, 'id': 'banana', 'src': '/static/foodstim60/banana.jpg', 'key': 'i', 'origWidth': 410, 'origHeight': 410, 'width': 410, 'height': 410, 'widthPercent': 0.45, 'rescaleHeight': False, 'trialN': 25, 'loaded': True, 'loadedTime': 2906, 'positionName': 'RIGHT', 'positionCoords': [998.4, 335], 'bid': 1.15}]",49578,1669830457012,cocktailshrimp,banana,0.22,1.15,0.9299999999999999,banana,1974,1989,1989,True,i,52072,2494,1669830459506,2494,HRV,HRV_0130,2022-11-30 17:52:51
26,"[{'imgObject': {}, 'id': 'kiwi', 'src': '/static/foodstim60/kiwi.jpg', 'key': 'u', 'origWidth': 410, 'origHeight': 410, 'width': 410, 'height': 410, 'widthPercent': 0.45, 'rescaleHeight': False, 'trialN': 26, 'loaded': True, 'loadedTime': 2925, 'positionName': 'LEFT', 'positionCoords': [511.6, 335], 'bid': 3.69}, {'imgObject': {}, 'id': 'cherry tomato', 'src': '/static/foodstim60/cherry tomato.jpg', 'key': 'i', 'origWidth': 410, 'origHeight': 410, 'width': 410, 'height': 410, 'widthPercent': 0.45, 'rescaleHeight': False, 'trialN': 26, 'loaded': True, 'loadedTime': 2894, 'positionName': 'RIGHT', 'positionCoords': [998.4, 335], 'bid': 2.75}]",52072,1669830459506,kiwi,cherry tomato,3.69,2.75,-0.94,cherry tomato,1620,1629,1629,True,i,54209,2137,1669830461644,2138,HRV,HRV_0130,2022-11-30 17:52:51
27,"[{'imgObject': {}, 'id': 'froot loops w milk', 'src': '/static/foodstim60/froot loops w milk.jpg', 'key': 'u', 'origWidth': 410, 'origHeight': 410, 'width': 410, 'height': 410, 'widthPercent': 0.45, 'rescaleHeight': False, 'trialN': 27, 'loaded': True, 'loadedTime': 2901, 'positionName': 'LEFT', 'positionCoords': [511.6, 335], 'bid': 4.94}, {'imgObject': {}, 'id': 'tacos', 'src': '/static/foodstim60/tacos.jpg', 'key': 'i', 'origWidth': 411, 'origHeight': 411, 'width': 411, 'height': 411, 'widthPercent': 0.45, 'rescaleHeight': False, 'trialN': 27, 'loaded': True, 'loadedTime': 2925, 'positionName': 'RIGHT', 'positionCoords': [998.4, 334.5], 'bid': 7.98}]",54209,1669830461644,froot loops w milk,tacos,4.94,7.98,3.04,tacos,1311,1325,1327,True,i,56040,1831,1669830463475,1831,HRV,HRV_0130,2022-11-30 17:52:51
28,"[{'imgObject': {}, 'id': 'strawberries', 'src': '/static/foodstim60/strawberries.jpg', 'key': 'u', 'origWidth': 410, 'origHeight': 410, 'width': 410, 'height': 410, 'widthPercent': 0.45, 'rescaleHeight': False, 'trialN': 28, 'loaded': True, 'loadedTime': 2904, 'positionName': 'LEFT', 'positionCoords': [511.6, 335], 'bid': 7.79}, {'imgObject': {}, 'id': 'burrito', 'src': '/static/foodstim60/burrito.jpg', 'key': 'i', 'origWidth': 410, 'origHeight': 410, 'width': 410, 'height': 410, 'widthPercent': 0.45, 'rescaleHeight': False, 'trialN': 28, 'loaded': True, 'loadedTime': 2924, 'positionName': 'RIGHT', 'positionCoords': [998.4, 335], 'bid': 8.67}]",56040,1669830463475,strawberries,burrito,7.79,8.67,0.8799999999999999,burrito,1168,1182,1183,True,i,57733,1693,1669830465167,1692,HRV,HRV_0130,2022-11-30 17:52:51
29,"[{'imgObject': {}, 'id': 'shreddedwheatwithmilk', 'src': '/static/foodstim60/shreddedwheatwithmilk.jpg', 'key': 'u', 'origWidth': 410, 'origHeight': 410, 'width': 410, 'height': 410, 'widthPercent': 0.45, 'rescaleHeight': False, 'trialN': 29, 'loaded': True, 'loadedTime': 2926, 'positionName': 'LEFT', 'positionCoords': [511.6, 335], 'bid': 5}, {'imgObject': {}, 'id': 'bagel plain', 'src': '/static/foodstim60/bagel plain.jpg', 'key': 'i', 'origWidth': 410, 'origHeight': 410, 'width': 410, 'height': 410, 'widthPercent': 0.45, 'rescaleHeight': False, 'trialN': 29, 'loaded': True, 'loadedTime': 2927, 'positionName': 'RIGHT', 'positionCoords': [998.4, 335], 'bid': 4.37}]",57733,1669830465167,shreddedwheatwithmilk,bagel plain,5.0,4.37,-0.6299999999999999,shreddedwheatwithmilk,2022,2033,2033,True,u,60271,2538,1669830467704,2537,HRV,HRV_0130,2022-11-30 17:52:51
30,"[{'imgObject': {}, 'id': 'eggs', 'src': '/static/foodstim60/eggs.jpg', 'key': 'u', 'origWidth': 409, 'origHeight': 409, 'width': 409, 'height': 409, 'widthPercent': 0.45, 'rescaleHeight': False, 'trialN': 30, 'loaded': True, 'loadedTime': 2916, 'positionName': 'LEFT', 'positionCoords': [512.6, 335.5], 'bid': 6.55}, {'imgObject': {}, 'id': 'salad w chicken', 'src': '/static/foodstim60/salad w chicken.jpg', 'key': 'i', 'origWidth': 411, 'origHeight': 411, 'width': 411, 'height': 411, 'widthPercent': 0.45, 'rescaleHeight': False, 'trialN': 30, 'loaded': True, 'loadedTime': 2920, 'positionName': 'RIGHT', 'positionCoords': [998.4, 334.5], 'bid': 8.38}]",60271,1669830467704,eggs,salad w chicken,6.55,8.38,1.830000000000001,salad w chicken,1093,1096,1095,True,i,61870,1599,1669830469303,1599,HRV,HRV_0130,2022-11-30 17:52:51
31,"[{'imgObject': {}, 'id': 'roastedpotatoes', 'src': '/static/foodstim60/roastedpotatoes.jpg', 'key': 'u', 'origWidth': 409, 'origHeight': 410, 'width': 409, 'height': 410, 'widthPercent': 0.45, 'rescaleHeight': False, 'trialN': 31, 'loaded': True, 'loadedTime': 2909, 'positionName': 'LEFT', 'positionCoords': [512.6, 335], 'bid': 8.64}, {'imgObject': {}, 'id': 'burger', 'src': '/static/foodstim60/burger.jpg', 'key': 'i', 'origWidth': 409, 'origHeight': 409, 'width': 409, 'height': 409, 'widthPercent': 0.45, 'rescaleHeight': False, 'trialN': 31, 'loaded': True, 'loadedTime': 2928, 'positionName': 'RIGHT', 'positionCoords': [998.4, 335.5], 'bid': 7.15}]",61870,1669830469303,roastedpotatoes,burger,8.64,7.15,-1.4900000000000002,roastedpotatoes,1134,1147,1146,True,u,63516,1646,1669830470951,1648,HRV,HRV_0130,2022-11-30 17:52:51
32,"[{'imgObject': {}, 'id': 'ice cream sundae 002', 'src': '/static/foodstim60/ice cream sundae 002.jpg', 'key': 'u', 'origWidth': 409, 'origHeight': 409, 'width': 409, 'height': 409, 'widthPercent': 0.45, 'rescaleHeight': False, 'trialN': 32, 'loaded': True, 'loadedTime': 2929, 'positionName': 'LEFT', 'positionCoords': [512.6, 335.5], 'bid': 7.45}, {'imgObject': {}, 'id': 'eggs', 'src': '/static/foodstim60/eggs.jpg', 'key': 'i', 'origWidth': 409, 'origHeight': 409, 'width': 409, 'height': 409, 'widthPercent': 0.45, 'rescaleHeight': False, 'trialN': 32, 'loaded': True, 'loadedTime': 2916, 'positionName': 'RIGHT', 'positionCoords': [998.4, 335.5], 'bid': 6.55}]",63517,1669830470951,ice cream sundae 002,eggs,7.45,6.55,-0.9000000000000004,eggs,1346,1362,1361,True,i,65393,1876,1669830472827,1876,HRV,HRV_0130,2022-11-30 17:52:51
33,"[{'imgObject': {}, 'id': 'burger', 'src': '/static/foodstim60/burger.jpg', 'key': 'u', 'origWidth': 409, 'origHeight': 409, 'width': 409, 'height': 409, 'widthPercent': 0.45, 'rescaleHeight': False, 'trialN': 33, 'loaded': True, 'loadedTime': 2929, 'positionName': 'LEFT', 'positionCoords': [512.6, 335.5], 'bid': 7.15}, {'imgObject': {}, 'id': 'yogurt no spoon', 'src': '/static/foodstim60/yogurt no spoon.jpg', 'key': 'i', 'origWidth': 411, 'origHeight': 410, 'width': 411, 'height': 410, 'widthPercent': 0.45, 'rescaleHeight': False, 'trialN': 33, 'loaded': True, 'loadedTime': 2929, 'positionName': 'RIGHT', 'positionCoords': [998.4, 335], 'bid': 6.01}]",65393,1669830472827,burger,yogurt no spoon,7.15,6.01,-1.1400000000000006,yogurt no spoon,1126,1137,1137,True,i,67042,1649,1669830474476,1649,HRV,HRV_0130,2022-11-30 17:52:51
34,"[{'imgObject': {}, 'id': 'strawberries', 'src': '/static/foodstim60/strawberries.jpg', 'key': 'u', 'origWidth': 410, 'origHeight': 410, 'width': 410, 'height': 410, 'widthPercent': 0.45, 'rescaleHeight': False, 'trialN': 34, 'loaded': True, 'loadedTime': 2904, 'positionName': 'LEFT', 'positionCoords': [511.6, 335], 'bid': 7.79}, {'imgObject': {}, 'id': 'tacos', 'src': '/static/foodstim60/tacos.jpg', 'key': 'i', 'origWidth': 411, 'origHeight': 411, 'width': 411, 'height': 411, 'widthPercent': 0.45, 'rescaleHeight': False, 'trialN': 34, 'loaded': True, 'loadedTime': 2926, 'positionName': 'RIGHT', 'positionCoords': [998.4, 334.5], 'bid': 7.98}]",67042,1669830474476,strawberries,tacos,7.79,7.98,0.1900000000000004,tacos,1838,1848,1848,True,i,69395,2353,1669830476830,2354,HRV,HRV_0130,2022-11-30 17:52:51
35,"[{'imgObject': {}, 'id': 'blueberries', 'src': '/static/foodstim60/blueberries.jpg', 'key': 'u', 'origWidth': 411, 'origHeight': 411, 'width': 411, 'height': 411, 'widthPercent': 0.45, 'rescaleHeight': False, 'trialN': 35, 'loaded': True, 'loadedTime': 2913, 'positionName': 'LEFT', 'positionCoords': [510.6, 334.5], 'bid': 6.54}, {'imgObject': {}, 'id': 'salmon', 'src': '/static/foodstim60/salmon.jpg', 'key': 'i', 'origWidth': 410, 'origHeight': 409, 'width': 410, 'height': 409, 'widthPercent': 0.45, 'rescaleHeight': False, 'trialN': 35, 'loaded': True, 'loadedTime': 2930, 'positionName': 'RIGHT', 'positionCoords': [998.4, 335.5], 'bid': 8.3}]",69395,1669830476830,blueberries,salmon,6.54,8.3,1.7600000000000007,salmon,1546,1557,1557,True,i,71456,2061,1669830478890,2060,HRV,HRV_0130,2022-11-30 17:52:51
36,"[{'imgObject': {}, 'id': 'olives', 'src': '/static/foodstim60/olives.jpg', 'key': 'u', 'origWidth': 410, 'origHeight': 410, 'width': 410, 'height': 410, 'widthPercent': 0.45, 'rescaleHeight': False, 'trialN': 36, 'loaded': True, 'loadedTime': 2915, 'positionName': 'LEFT', 'positionCoords': [511.6, 335], 'bid': 2.08}, {'imgObject': {}, 'id': 'avocado', 'src': '/static/foodstim60/avocado.jpg', 'key': 'i', 'origWidth': 409, 'origHeight': 409, 'width': 409, 'height': 409, 'widthPercent': 0.45, 'rescaleHeight': False, 'trialN': 36, 'loaded': True, 'loadedTime': 2921, 'positionName': 'RIGHT', 'positionCoords': [998.4, 335.5], 'bid': 1.66}]",71456,1669830478890,olives,avocado,2.08,1.66,-0.42000000000000015,avocado,1735,1750,1749,True,i,73718,2262,1669830481152,2262,HRV,HRV_0130,2022-11-30 17:52:51
37,"[{'imgObject': {}, 'id': 'blackbeanswithrice', 'src': '/static/foodstim60/blackbeanswithrice.jpg', 'key': 'u', 'origWidth': 410, 'origHeight': 410, 'width': 410, 'height': 410, 'widthPercent': 0.45, 'rescaleHeight': False, 'trialN': 37, 'loaded': True, 'loadedTime': 2896, 'positionName': 'LEFT', 'positionCoords': [511.6, 335], 'bid': 8.040000000000001}, {'imgObject': {}, 'id': 'luckycharms', 'src': '/static/foodstim60/luckycharms.jpg', 'key': 'i', 'origWidth': 410, 'origHeight': 409, 'width': 410, 'height': 409, 'widthPercent': 0.45, 'rescaleHeight': False, 'trialN': 37, 'loaded': True, 'loadedTime': 2918, 'positionName': 'RIGHT', 'positionCoords': [998.4, 335.5], 'bid': 4.96}]",73718,1669830481152,blackbeanswithrice,luckycharms,8.040000000000001,4.96,-3.080000000000001,blackbeanswithrice,1255,1270,1270,True,u,75502,1784,1669830482936,1784,HRV,HRV_0130,2022-11-30 17:52:51
38,"[{'imgObject': {}, 'id': 'cheerios', 'src': '/static/foodstim60/cheerios.jpg', 'key': 'u', 'origWidth': 409, 'origHeight': 410, 'width': 409, 'height': 410, 'widthPercent': 0.45, 'rescaleHeight': False, 'trialN': 38, 'loaded': True, 'loadedTime': 2923, 'positionName': 'LEFT', 'positionCoords': [512.6, 335], 'bid': 5.05}, {'imgObject': {}, 'id': 'corn cob', 'src': '/static/foodstim60/corn cob.jpg', 'key': 'i', 'origWidth': 411, 'origHeight': 411, 'width': 411, 'height': 411, 'widthPercent': 0.45, 'rescaleHeight': False, 'trialN': 38, 'loaded': True, 'loadedTime': 2931, 'positionName': 'RIGHT', 'positionCoords': [998.4, 334.5], 'bid': 2.51}]",75502,1669830482936,cheerios,corn cob,5.05,2.51,-2.54,corn cob,1330,1345,1345,True,i,77359,1857,1669830484794,1858,HRV,HRV_0130,2022-11-30 17:52:51
39,"[{'imgObject': {}, 'id': 'popsicles', 'src': '/static/foodstim60/popsicles.jpg', 'key': 'u', 'origWidth': 410, 'origHeight': 410, 'width': 410, 'height': 410, 'widthPercent': 0.45, 'rescaleHeight': False, 'trialN': 39, 'loaded': True, 'loadedTime': 2912, 'positionName': 'LEFT', 'positionCoords': [511.6, 335], 'bid': 6.42}, {'imgObject': {}, 'id': 'fruitsalad', 'src': '/static/foodstim60/fruitsalad.jpg', 'key': 'i', 'origWidth': 410, 'origHeight': 410, 'width': 410, 'height': 410, 'widthPercent': 0.45, 'rescaleHeight': False, 'trialN': 39, 'loaded': True, 'loadedTime': 2893, 'positionName': 'RIGHT', 'positionCoords': [998.4, 335], 'bid': 5.33}]",77359,1669830484794,popsicles,fruitsalad,6.42,5.33,-1.0899999999999999,popsicles,1068,1069,1070,True,u,78930,1571,1669830486364,1570,HRV,HRV_0130,2022-11-30 17:52:51
40,"[{'imgObject': {}, 'id': 'corn cob', 'src': '/static/foodstim60/corn cob.jpg', 'key': 'u', 'origWidth': 411, 'origHeight': 411, 'width': 411, 'height': 411, 'widthPercent': 0.45, 'rescaleHeight': False, 'trialN': 40, 'loaded': True, 'loadedTime': 2932, 'positionName': 'LEFT', 'positionCoords': [510.6, 334.5], 'bid': 2.51}, {'imgObject': {}, 'id': 'hotdog w must', 'src': '/static/foodstim60/hotdog w must.jpg', 'key': 'i', 'origWidth': 409, 'origHeight': 409, 'width': 409, 'height': 409, 'widthPercent': 0.45, 'rescaleHeight': False, 'trialN': 40, 'loaded': True, 'loadedTime': 2922, 'positionName': 'RIGHT', 'positionCoords': [998.4, 335.5], 'bid': 1.87}]",78930,1669830486364,corn cob,hotdog w must,2.51,1.87,-0.6399999999999997,corn cob,1372,1382,1381,True,u,80820,1890,1669830488254,1890,HRV,HRV_0130,2022-11-30 17:52:51
41,"[{'imgObject': {}, 'id': 'blueberries', 'src': '/static/foodstim60/blueberries.jpg', 'key': 'u', 'origWidth': 411, 'origHeight': 411, 'width': 411, 'height': 411, 'widthPercent': 0.45, 'rescaleHeight': False, 'trialN': 41, 'loaded': True, 'loadedTime': 2913, 'positionName': 'LEFT', 'positionCoords': [510.6, 334.5], 'bid': 6.54}, {'imgObject': {}, 'id': 'rigatoni', 'src': '/static/foodstim60/rigatoni.jpg', 'key': 'i', 'origWidth': 411, 'origHeight': 411, 'width': 411, 'height': 411, 'widthPercent': 0.45, 'rescaleHeight': False, 'trialN': 41, 'loaded': True, 'loadedTime': 2905, 'positionName': 'RIGHT', 'positionCoords': [998.4, 334.5], 'bid': 5.48}]",80820,1669830488254,blueberries,rigatoni,6.54,5.48,-1.0599999999999996,blueberries,1277,1286,1286,True,u,82619,1799,1669830490053,1799,HRV,HRV_0130,2022-11-30 17:52:51
42,"[{'imgObject': {}, 'id': 'hashbrowns', 'src': '/static/foodstim60/hashbrowns.jpg', 'key': 'u', 'origWidth': 411, 'origHeight': 410, 'width': 411, 'height': 410, 'widthPercent': 0.45, 'rescaleHeight': False, 'trialN': 42, 'loaded': True, 'loadedTime': 2932, 'positionName': 'LEFT', 'positionCoords': [510.6, 335], 'bid': 5.03}, {'imgObject': {}, 'id': 'veggieswithdip', 'src': '/static/foodstim60/veggieswithdip.jpg', 'key': 'i', 'origWidth': 409, 'origHeight': 409, 'width': 409, 'height': 409, 'widthPercent': 0.45, 'rescaleHeight': False, 'trialN': 42, 'loaded': True, 'loadedTime': 2902, 'positionName': 'RIGHT', 'positionCoords': [998.4, 335.5], 'bid': 6.18}]",82619,1669830490053,hashbrowns,veggieswithdip,5.03,6.18,1.1499999999999995,veggieswithdip,1948,1955,1956,True,i,85078,2459,1669830492513,2460,HRV,HRV_0130,2022-11-30 17:52:51
43,"[{'imgObject': {}, 'id': 'corn cob', 'src': '/static/foodstim60/corn cob.jpg', 'key': 'u', 'origWidth': 411, 'origHeight': 411, 'width': 411, 'height': 411, 'widthPercent': 0.45, 'rescaleHeight': False, 'trialN': 43, 'loaded': True, 'loadedTime': 2932, 'positionName': 'LEFT', 'positionCoords': [510.6, 334.5], 'bid': 2.51}, {'imgObject': {}, 'id': 'olives', 'src': '/static/foodstim60/olives.jpg', 'key': 'i', 'origWidth': 410, 'origHeight': 410, 'width': 410, 'height': 410, 'widthPercent': 0.45, 'rescaleHeight': False, 'trialN': 43, 'loaded': True, 'loadedTime': 2915, 'positionName': 'RIGHT', 'positionCoords': [998.4, 335], 'bid': 2.08}]",85079,1669830492513,corn cob,olives,2.51,2.08,-0.4299999999999997,corn cob,1863,1876,1876,True,u,87464,2385,1669830494898,2385,HRV,HRV_0130,2022-11-30 17:52:51
44,"[{'imgObject': {}, 'id': 'apple slices', 'src': '/static/foodstim60/apple slices.jpg', 'key': 'u', 'origWidth': 409, 'origHeight': 410, 'width': 409, 'height': 410, 'widthPercent': 0.45, 'rescaleHeight': False, 'trialN': 44, 'loaded': True, 'loadedTime': 2909, 'positionName': 'LEFT', 'positionCoords': [512.6, 335], 'bid': 9.36}, {'imgObject': {}, 'id': 'Grapes', 'src': '/static/foodstim60/Grapes.jpg', 'key': 'i', 'origWidth': 411, 'origHeight': 411, 'width': 411, 'height': 411, 'widthPercent': 0.45, 'rescaleHeight': False, 'trialN': 44, 'loaded': True, 'loadedTime': 2908, 'positionName': 'RIGHT', 'positionCoords': [998.4, 334.5], 'bid': 8.4}]",87464,1669830494898,apple slices,Grapes,9.36,8.4,-0.9599999999999991,Grapes,2025,2036,2036,True,i,90000,2536,1669830497434,2536,HRV,HRV_0130,2022-11-30 17:52:51
45,"[{'imgObject': {}, 'id': 'cherries', 'src': '/static/foodstim60/cherries.jpg', 'key': 'u', 'origWidth': 410, 'origHeight': 411, 'width': 410, 'height': 411, 'widthPercent': 0.45, 'rescaleHeight': False, 'trialN': 45, 'loaded': True, 'loadedTime': 2911, 'positionName': 'LEFT', 'positionCoords': [511.6, 334.5], 'bid': 5.75}, {'imgObject': {}, 'id': 'mashed potato', 'src': '/static/foodstim60/mashed potato.jpg', 'key': 'i', 'origWidth': 409, 'origHeight': 409, 'width': 409, 'height': 409, 'widthPercent': 0.45, 'rescaleHeight': False, 'trialN': 45, 'loaded': True, 'loadedTime': 2907, 'positionName': 'RIGHT', 'positionCoords': [998.4, 335.5], 'bid': 6.26}]",90000,1669830497434,cherries,mashed potato,5.75,6.26,0.5099999999999998,mashed potato,1254,1267,1266,True,i,91771,1771,1669830499206,1772,HRV,HRV_0130,2022-11-30 17:52:51
46,"[{'imgObject': {}, 'id': 'orange slices', 'src': '/static/foodstim60/orange slices.jpg', 'key': 'u', 'origWidth': 409, 'origHeight': 410, 'width': 409, 'height': 410, 'widthPercent': 0.45, 'rescaleHeight': False, 'trialN': 46, 'loaded': True, 'loadedTime': 2933, 'positionName': 'LEFT', 'positionCoords': [512.6, 335], 'bid': 7.390000000000001}, {'imgObject': {}, 'id': 'burrito', 'src': '/static/foodstim60/burrito.jpg', 'key': 'i', 'origWidth': 410, 'origHeight': 410, 'width': 410, 'height': 410, 'widthPercent': 0.45, 'rescaleHeight': False, 'trialN': 46, 'loaded': True, 'loadedTime': 2924, 'positionName': 'RIGHT', 'positionCoords': [998.4, 335], 'bid': 8.67}]",91771,1669830499206,orange slices,burrito,7.390000000000001,8.67,1.2799999999999994,burrito,1499,1509,1511,True,i,93788,2017,1669830501222,2016,HRV,HRV_0130,2022-11-30 17:52:51
47,"[{'imgObject': {}, 'id': 'chicken nuggets2', 'src': '/static/foodstim60/chicken nuggets2.jpg', 'key': 'u', 'origWidth': 410, 'origHeight': 409, 'width': 410, 'height': 409, 'widthPercent': 0.45, 'rescaleHeight': False, 'trialN': 47, 'loaded': True, 'loadedTime': 2899, 'positionName': 'LEFT', 'positionCoords': [511.6, 335.5], 'bid': 7.44}, {'imgObject': {}, 'id': 'omelette', 'src': '/static/foodstim60/omelette.jpg', 'key': 'i', 'origWidth': 410, 'origHeight': 409, 'width': 410, 'height': 409, 'widthPercent': 0.45, 'rescaleHeight': False, 'trialN': 47, 'loaded': True, 'loadedTime': 2933, 'positionName': 'RIGHT', 'positionCoords': [998.4, 335.5], 'bid': 8.69}]",93788,1669830501222,chicken nuggets2,omelette,7.44,8.69,1.2499999999999991,omelette,1529,1543,1542,True,i,95835,2047,1669830503269,2047,HRV,HRV_0130,2022-11-30 17:52:51
48,"[{'imgObject': {}, 'id': 'mango', 'src': '/static/foodstim60/mango.jpg', 'key': 'u', 'origWidth': 411, 'origHeight': 411, 'width': 411, 'height': 411, 'widthPercent': 0.45, 'rescaleHeight': False, 'trialN': 48, 'loaded': True, 'loadedTime': 2914, 'positionName': 'LEFT', 'positionCoords': [510.6, 334.5], 'bid': 3.47}, {'imgObject': {}, 'id': 'avocado', 'src': '/static/foodstim60/avocado.jpg', 'key': 'i', 'origWidth': 409, 'origHeight': 409, 'width': 409, 'height': 409, 'widthPercent': 0.45, 'rescaleHeight': False, 'trialN': 48, 'loaded': True, 'loadedTime': 2921, 'positionName': 'RIGHT', 'positionCoords': [998.4, 335.5], 'bid': 1.66}]",95835,1669830503269,mango,avocado,3.47,1.66,-1.8100000000000003,mango,1153,1169,1170,True,u,97510,1675,1669830504944,1675,HRV,HRV_0130,2022-11-30 17:52:51
49,"[{'imgObject': {}, 'id': 'fried eggs', 'src': '/static/foodstim60/fried eggs.jpg', 'key': 'u', 'origWidth': 410, 'origHeight': 410, 'width': 410, 'height': 410, 'widthPercent': 0.45, 'rescaleHeight': False, 'trialN': 49, 'loaded': True, 'loadedTime': 2916, 'positionName': 'LEFT', 'positionCoords': [511.6, 335], 'bid': 7.85}, {'imgObject': {}, 'id': 'veggieswithdip', 'src': '/static/foodstim60/veggieswithdip.jpg', 'key': 'i', 'origWidth': 409, 'origHeight': 409, 'width': 409, 'height': 409, 'widthPercent': 0.45, 'rescaleHeight': False, 'trialN': 49, 'loaded': True, 'loadedTime': 2902, 'positionName': 'RIGHT', 'positionCoords': [998.4, 335.5], 'bid': 6.18}]",97510,1669830504944,fried eggs,veggieswithdip,7.85,6.18,-1.67,veggieswithdip,1791,1792,1792,True,i,99815,2305,1669830507250,2306,HRV,HRV_0130,2022-11-30 17:52:51
50,"[{'imgObject': {}, 'id': 'eggsalad', 'src': '/static/foodstim60/eggsalad.jpg', 'key': 'u', 'origWidth': 410, 'origHeight': 409, 'width': 410, 'height': 409, 'widthPercent': 0.45, 'rescaleHeight': False, 'trialN': 50, 'loaded': True, 'loadedTime': 2905, 'positionName': 'LEFT', 'positionCoords': [511.6, 335.5], 'bid': 5.89}, {'imgObject': {}, 'id': 'Tribe humus pita', 'src': '/static/foodstim60/Tribe humus pita.jpg', 'key': 'i', 'origWidth': 411, 'origHeight': 411, 'width': 411, 'height': 411, 'widthPercent': 0.45, 'rescaleHeight': False, 'trialN': 50, 'loaded': True, 'loadedTime': 2934, 'positionName': 'RIGHT', 'positionCoords': [998.4, 334.5], 'bid': 8.72}]",99816,1669830507250,eggsalad,Tribe humus pita,5.89,8.72,2.830000000000001,Tribe humus pita,1281,1292,1293,True,i,101613,1797,1669830509048,1798,HRV,HRV_0130,2022-11-30 17:52:51
51,"[{'imgObject': {}, 'id': 'ice cream sundae 002', 'src': '/static/foodstim60/ice cream sundae 002.jpg', 'key': 'u', 'origWidth': 409, 'origHeight': 409, 'width': 409, 'height': 409, 'widthPercent': 0.45, 'rescaleHeight': False, 'trialN': 51, 'loaded': True, 'loadedTime': 2929, 'positionName': 'LEFT', 'positionCoords': [512.6, 335.5], 'bid': 7.45}, {'imgObject': {}, 'id': 'Grapes', 'src': '/static/foodstim60/Grapes.jpg', 'key': 'i', 'origWidth': 411, 'origHeight': 411, 'width': 411, 'height': 411, 'widthPercent': 0.45, 'rescaleHeight': False, 'trialN': 51, 'loaded': True, 'loadedTime': 2908, 'positionName': 'RIGHT', 'positionCoords': [998.4, 334.5], 'bid': 8.4}]",101614,1669830509048,ice cream sundae 002,Grapes,7.45,8.4,0.9500000000000002,ice cream sundae 002,1766,1767,1768,True,u,103892,2278,1669830511326,2278,HRV,HRV_0130,2022-11-30 17:52:51
52,"[{'imgObject': {}, 'id': 'mashed potato', 'src': '/static/foodstim60/mashed potato.jpg', 'key': 'u', 'origWidth': 409, 'origHeight': 409, 'width': 409, 'height': 409, 'widthPercent': 0.45, 'rescaleHeight': False, 'trialN': 52, 'loaded': True, 'loadedTime': 2907, 'positionName': 'LEFT', 'positionCoords': [512.6, 335.5], 'bid': 6.26}, {'imgObject': {}, 'id': 'cheerios', 'src': '/static/foodstim60/cheerios.jpg', 'key': 'i', 'origWidth': 409, 'origHeight': 410, 'width': 409, 'height': 410, 'widthPercent': 0.45, 'rescaleHeight': False, 'trialN': 52, 'loaded': True, 'loadedTime': 2923, 'positionName': 'RIGHT', 'positionCoords': [998.4, 335], 'bid': 5.05}]",103892,1669830511326,mashed potato,cheerios,6.26,5.05,-1.21,mashed potato,1174,1181,1181,True,u,105585,1693,1669830513019,1693,HRV,HRV_0130,2022-11-30 17:52:51
53,"[{'imgObject': {}, 'id': 'cherries', 'src': '/static/foodstim60/cherries.jpg', 'key': 'u', 'origWidth': 410, 'origHeight': 411, 'width': 410, 'height': 411, 'widthPercent': 0.45, 'rescaleHeight': False, 'trialN': 53, 'loaded': True, 'loadedTime': 2911, 'positionName': 'LEFT', 'positionCoords': [511.6, 334.5], 'bid': 5.75}, {'imgObject': {}, 'id': 'kiwi', 'src': '/static/foodstim60/kiwi.jpg', 'key': 'i', 'origWidth': 410, 'origHeight': 410, 'width': 410, 'height': 410, 'widthPercent': 0.45, 'rescaleHeight': False, 'trialN': 53, 'loaded': True, 'loadedTime': 2925, 'positionName': 'RIGHT', 'positionCoords': [998.4, 335], 'bid': 3.69}]",105585,1669830513019,cherries,kiwi,5.75,3.69,-2.06,cherries,1028,1044,1043,True,u,107138,1553,1669830514573,1554,HRV,HRV_0130,2022-11-30 17:52:51
54,"[{'imgObject': {}, 'id': 'Tribe humus pita', 'src': '/static/foodstim60/Tribe humus pita.jpg', 'key': 'u', 'origWidth': 411, 'origHeight': 411, 'width': 411, 'height': 411, 'widthPercent': 0.45, 'rescaleHeight': False, 'trialN': 54, 'loaded': True, 'loadedTime': 2934, 'positionName': 'LEFT', 'positionCoords': [510.6, 334.5], 'bid': 8.72}, {'imgObject': {}, 'id': 'omelette', 'src': '/static/foodstim60/omelette.jpg', 'key': 'i', 'origWidth': 410, 'origHeight': 409, 'width': 410, 'height': 409, 'widthPercent': 0.45, 'rescaleHeight': False, 'trialN': 54, 'loaded': True, 'loadedTime': 2934, 'positionName': 'RIGHT', 'positionCoords': [998.4, 335.5], 'bid': 8.69}]",107138,1669830514573,Tribe humus pita,omelette,8.72,8.69,-0.030000000000001137,omelette,960,973,974,True,i,108615,1477,1669830516049,1476,HRV,HRV_0130,2022-11-30 17:52:51
55,"[{'imgObject': {}, 'id': 'bagel and cc', 'src': '/static/foodstim60/bagel and cc.jpg', 'key': 'u', 'origWidth': 410, 'origHeight': 410, 'width': 410, 'height': 410, 'widthPercent': 0.45, 'rescaleHeight': False, 'trialN': 55, 'loaded': True, 'loadedTime': 2934, 'positionName': 'LEFT', 'positionCoords': [511.6, 335], 'bid': 4.96}, {'imgObject': {}, 'id': 'lox', 'src': '/static/foodstim60/lox.jpg', 'key': 'i', 'origWidth': 410, 'origHeight': 411, 'width': 410, 'height': 411, 'widthPercent': 0.45, 'rescaleHeight': False, 'trialN': 55, 'loaded': True, 'loadedTime': 2935, 'positionName': 'RIGHT', 'positionCoords': [998.4, 334.5], 'bid': 4.3100000000000005}]",108615,1669830516049,bagel and cc,lox,4.96,4.3100000000000005,-0.6499999999999995,bagel and cc,1639,1641,1642,True,u,110770,2155,1669830518205,2156,HRV,HRV_0130,2022-11-30 17:52:51
56,"[{'imgObject': {}, 'id': 'rigatoni', 'src': '/static/foodstim60/rigatoni.jpg', 'key': 'u', 'origWidth': 411, 'origHeight': 411, 'width': 411, 'height': 411, 'widthPercent': 0.45, 'rescaleHeight': False, 'trialN': 56, 'loaded': True, 'loadedTime': 2905, 'positionName': 'LEFT', 'positionCoords': [510.6, 334.5], 'bid': 5.48}, {'imgObject': {}, 'id': 'burrito', 'src': '/static/foodstim60/burrito.jpg', 'key': 'i', 'origWidth': 410, 'origHeight': 410, 'width': 410, 'height': 410, 'widthPercent': 0.45, 'rescaleHeight': False, 'trialN': 56, 'loaded': True, 'loadedTime': 2924, 'positionName': 'RIGHT', 'positionCoords': [998.4, 335], 'bid': 8.67}]",110771,1669830518205,rigatoni,burrito,5.48,8.67,3.1899999999999995,burrito,1201,1208,1209,True,i,112493,1722,1669830519927,1722,HRV,HRV_0130,2022-11-30 17:52:51
57,"[{'imgObject': {}, 'id': 'luckycharms', 'src': '/static/foodstim60/luckycharms.jpg', 'key': 'u', 'origWidth': 410, 'origHeight': 409, 'width': 410, 'height': 409, 'widthPercent': 0.45, 'rescaleHeight': False, 'trialN': 57, 'loaded': True, 'loadedTime': 2918, 'positionName': 'LEFT', 'positionCoords': [511.6, 335.5], 'bid': 4.96}, {'imgObject': {}, 'id': 'bagel and cc', 'src': '/static/foodstim60/bagel and cc.jpg', 'key': 'i', 'origWidth': 410, 'origHeight': 410, 'width': 410, 'height': 410, 'widthPercent': 0.45, 'rescaleHeight': False, 'trialN': 57, 'loaded': True, 'loadedTime': 2935, 'positionName': 'RIGHT', 'positionCoords': [998.4, 335], 'bid': 4.96}]",112493,1669830519927,luckycharms,bagel and cc,4.96,4.96,0.0,luckycharms,1152,1164,1164,True,u,114169,1676,1669830521603,1676,HRV,HRV_0130,2022-11-30 17:52:51
58,"[{'imgObject': {}, 'id': 'turkeysandwich', 'src': '/static/foodstim60/turkeysandwich.jpg', 'key': 'u', 'origWidth': 409, 'origHeight': 409, 'width': 409, 'height': 409, 'widthPercent': 0.45, 'rescaleHeight': False, 'trialN': 58, 'loaded': True, 'loadedTime': 2895, 'positionName': 'LEFT', 'positionCoords': [512.6, 335.5], 'bid': 6.2700000000000005}, {'imgObject': {}, 'id': 'eggsalad', 'src': '/static/foodstim60/eggsalad.jpg', 'key': 'i', 'origWidth': 410, 'origHeight': 409, 'width': 410, 'height': 409, 'widthPercent': 0.45, 'rescaleHeight': False, 'trialN': 58, 'loaded': True, 'loadedTime': 2905, 'positionName': 'RIGHT', 'positionCoords': [998.4, 335.5], 'bid': 5.89}]",114169,1669830521603,turkeysandwich,eggsalad,6.2700000000000005,5.89,-0.3800000000000008,turkeysandwich,1039,1053,1053,True,u,115724,1555,1669830523158,1555,HRV,HRV_0130,2022-11-30 17:52:51
59,"[{'imgObject': {}, 'id': 'luckycharms', 'src': '/static/foodstim60/luckycharms.jpg', 'key': 'u', 'origWidth': 410, 'origHeight': 409, 'width': 410, 'height': 409, 'widthPercent': 0.45, 'rescaleHeight': False, 'trialN': 59, 'loaded': True, 'loadedTime': 2918, 'positionName': 'LEFT', 'positionCoords': [511.6, 335.5], 'bid': 4.96}, {'imgObject': {}, 'id': 'seaweed', 'src': '/static/foodstim60/seaweed.jpg', 'key': 'i', 'origWidth': 410, 'origHeight': 410, 'width': 410, 'height': 410, 'widthPercent': 0.45, 'rescaleHeight': False, 'trialN': 59, 'loaded': True, 'loadedTime': 2936, 'positionName': 'RIGHT', 'positionCoords': [998.4, 335], 'bid': 1.6}]",115724,1669830523158,luckycharms,seaweed,4.96,1.6,-3.36,luckycharms,1389,1392,1391,True,u,117628,1904,1669830525063,1905,HRV,HRV_0130,2022-11-30 17:52:51
60,"[{'imgObject': {}, 'id': 'ice cream sundae 002', 'src': '/static/foodstim60/ice cream sundae 002.jpg', 'key': 'u', 'origWidth': 409, 'origHeight': 409, 'width': 409, 'height': 409, 'widthPercent': 0.45, 'rescaleHeight': False, 'trialN': 60, 'loaded': True, 'loadedTime': 2929, 'positionName': 'LEFT', 'positionCoords': [512.6, 335.5], 'bid': 7.45}, {'imgObject': {}, 'id': 'Tribe humus pita', 'src': '/static/foodstim60/Tribe humus pita.jpg', 'key': 'i', 'origWidth': 411, 'origHeight': 411, 'width': 411, 'height': 411, 'widthPercent': 0.45, 'rescaleHeight': False, 'trialN': 60, 'loaded': True, 'loadedTime': 2934, 'positionName': 'RIGHT', 'positionCoords': [998.4, 334.5], 'bid': 8.72}]",117628,1669830525063,ice cream sundae 002,Tribe humus pita,7.45,8.72,1.2700000000000005,Tribe humus pita,1188,1189,1190,True,i,119334,1706,1669830526768,1705,HRV,HRV_0130,2022-11-30 17:52:51
61,"[{'imgObject': {}, 'id': 'edamame', 'src': '/static/foodstim60/edamame.jpg', 'key': 'u', 'origWidth': 409, 'origHeight': 410, 'width': 409, 'height': 410, 'widthPercent': 0.45, 'rescaleHeight': False, 'trialN': 61, 'loaded': True, 'loadedTime': 2903, 'positionName': 'LEFT', 'positionCoords': [512.6, 335], 'bid': 4.42}, {'imgObject': {}, 'id': 'hotdog w must', 'src': '/static/foodstim60/hotdog w must.jpg', 'key': 'i', 'origWidth': 409, 'origHeight': 409, 'width': 409, 'height': 409, 'widthPercent': 0.45, 'rescaleHeight': False, 'trialN': 61, 'loaded': True, 'loadedTime': 2922, 'positionName': 'RIGHT', 'positionCoords': [998.4, 335.5], 'bid': 1.87}]",119334,1669830526768,edamame,hotdog w must,4.42,1.87,-2.55,edamame,1233,1235,1235,True,u,121070,1736,1669830528504,1736,HRV,HRV_0130,2022-11-30 17:52:51
62,"[{'imgObject': {}, 'id': 'lox', 'src': '/static/foodstim60/lox.jpg', 'key': 'u', 'origWidth': 410, 'origHeight': 411, 'width': 410, 'height': 411, 'widthPercent': 0.45, 'rescaleHeight': False, 'trialN': 62, 'loaded': True, 'loadedTime': 2936, 'positionName': 'LEFT', 'positionCoords': [511.6, 334.5], 'bid': 4.3100000000000005}, {'imgObject': {}, 'id': 'edamame', 'src': '/static/foodstim60/edamame.jpg', 'key': 'i', 'origWidth': 409, 'origHeight': 410, 'width': 409, 'height': 410, 'widthPercent': 0.45, 'rescaleHeight': False, 'trialN': 62, 'loaded': True, 'loadedTime': 2903, 'positionName': 'RIGHT', 'positionCoords': [998.4, 335], 'bid': 4.42}]",121070,1669830528504,lox,edamame,4.3100000000000005,4.42,0.10999999999999943,edamame,1810,1818,1818,True,i,123392,2322,1669830530826,2322,HRV,HRV_0130,2022-11-30 17:52:51
63,"[{'imgObject': {}, 'id': 'corn cob', 'src': '/static/foodstim60/corn cob.jpg', 'key': 'u', 'origWidth': 411, 'origHeight': 411, 'width': 411, 'height': 411, 'widthPercent': 0.45, 'rescaleHeight': False, 'trialN': 63, 'loaded': True, 'loadedTime': 2932, 'positionName': 'LEFT', 'positionCoords': [510.6, 334.5], 'bid': 2.51}, {'imgObject': {}, 'id': 'sweetpotato', 'src': '/static/foodstim60/sweetpotato.jpg', 'key': 'i', 'origWidth': 410, 'origHeight': 410, 'width': 410, 'height': 410, 'widthPercent': 0.45, 'rescaleHeight': False, 'trialN': 63, 'loaded': True, 'loadedTime': 2902, 'positionName': 'RIGHT', 'positionCoords': [998.4, 335], 'bid': 0.86}]",123392,1669830530826,corn cob,sweetpotato,2.51,0.86,-1.65,corn cob,1816,1827,1826,True,u,125731,2339,1669830533164,2338,HRV,HRV_0130,2022-11-30 17:52:51
64,"[{'imgObject': {}, 'id': 'rigatoni and sauce', 'src': '/static/foodstim60/rigatoni and sauce.jpg', 'key': 'u', 'origWidth': 410, 'origHeight': 411, 'width': 410, 'height': 411, 'widthPercent': 0.45, 'rescaleHeight': False, 'trialN': 64, 'loaded': True, 'loadedTime': 2910, 'positionName': 'LEFT', 'positionCoords': [511.6, 334.5], 'bid': 5.97}, {'imgObject': {}, 'id': 'popsicles', 'src': '/static/foodstim60/popsicles.jpg', 'key': 'i', 'origWidth': 410, 'origHeight': 410, 'width': 410, 'height': 410, 'widthPercent': 0.45, 'rescaleHeight': False, 'trialN': 64, 'loaded': True, 'loadedTime': 2912, 'positionName': 'RIGHT', 'positionCoords': [998.4, 335], 'bid': 6.42}]",125731,1669830533164,rigatoni and sauce,popsicles,5.97,6.42,0.4500000000000002,popsicles,1211,1227,1226,True,i,127470,1739,1669830534904,1740,HRV,HRV_0130,2022-11-30 17:52:51
65,"[{'imgObject': {}, 'id': 'shreddedwheatwithmilk', 'src': '/static/foodstim60/shreddedwheatwithmilk.jpg', 'key': 'u', 'origWidth': 410, 'origHeight': 410, 'width': 410, 'height': 410, 'widthPercent': 0.45, 'rescaleHeight': False, 'trialN': 65, 'loaded': True, 'loadedTime': 2927, 'positionName': 'LEFT', 'positionCoords': [511.6, 335], 'bid': 5}, {'imgObject': {}, 'id': 'hashbrowns', 'src': '/static/foodstim60/hashbrowns.jpg', 'key': 'i', 'origWidth': 411, 'origHeight': 410, 'width': 411, 'height': 410, 'widthPercent': 0.45, 'rescaleHeight': False, 'trialN': 65, 'loaded': True, 'loadedTime': 2933, 'positionName': 'RIGHT', 'positionCoords': [998.4, 335], 'bid': 5.03}]",127470,1669830534904,shreddedwheatwithmilk,hashbrowns,5.0,5.03,0.03000000000000025,shreddedwheatwithmilk,1393,1398,1399,True,u,129375,1905,1669830536810,1906,HRV,HRV_0130,2022-11-30 17:52:51
66,"[{'imgObject': {}, 'id': 'banana', 'src': '/static/foodstim60/banana.jpg', 'key': 'u', 'origWidth': 410, 'origHeight': 410, 'width': 410, 'height': 410, 'widthPercent': 0.45, 'rescaleHeight': False, 'trialN': 66, 'loaded': True, 'loadedTime': 2906, 'positionName': 'LEFT', 'positionCoords': [511.6, 335], 'bid': 1.15}, {'imgObject': {}, 'id': 'raspberries', 'src': '/static/foodstim60/raspberries.jpg', 'key': 'i', 'origWidth': 411, 'origHeight': 411, 'width': 411, 'height': 411, 'widthPercent': 0.45, 'rescaleHeight': False, 'trialN': 66, 'loaded': True, 'loadedTime': 2937, 'positionName': 'RIGHT', 'positionCoords': [998.4, 334.5], 'bid': 3.89}]",129375,1669830536810,banana,raspberries,1.15,3.89,2.74,raspberries,1192,1199,1201,True,i,131083,1708,1669830538517,1707,HRV,HRV_0130,2022-11-30 17:52:51
67,"[{'imgObject': {}, 'id': 'yogurt no spoon', 'src': '/static/foodstim60/yogurt no spoon.jpg', 'key': 'u', 'origWidth': 411, 'origHeight': 410, 'width': 411, 'height': 410, 'widthPercent': 0.45, 'rescaleHeight': False, 'trialN': 67, 'loaded': True, 'loadedTime': 2930, 'positionName': 'LEFT', 'positionCoords': [510.6, 335], 'bid': 6.01}, {'imgObject': {}, 'id': 'rigatoni and sauce', 'src': '/static/foodstim60/rigatoni and sauce.jpg', 'key': 'i', 'origWidth': 410, 'origHeight': 411, 'width': 410, 'height': 411, 'widthPercent': 0.45, 'rescaleHeight': False, 'trialN': 67, 'loaded': True, 'loadedTime': 2910, 'positionName': 'RIGHT', 'positionCoords': [998.4, 334.5], 'bid': 5.97}]",131083,1669830538517,yogurt no spoon,rigatoni and sauce,6.01,5.97,-0.040000000000000036,yogurt no spoon,1125,1126,1127,True,u,132713,1630,1669830540148,1631,HRV,HRV_0130,2022-11-30 17:52:51
68,"[{'imgObject': {}, 'id': 'baked potato', 'src': '/static/foodstim60/baked potato.jpg', 'key': 'u', 'origWidth': 409, 'origHeight': 410, 'width': 409, 'height': 410, 'widthPercent': 0.45, 'rescaleHeight': False, 'trialN': 68, 'loaded': True, 'loadedTime': 2920, 'positionName': 'LEFT', 'positionCoords': [512.6, 335], 'bid': 8.09}, {'imgObject': {}, 'id': 'steak', 'src': '/static/foodstim60/steak.jpg', 'key': 'i', 'origWidth': 410, 'origHeight': 410, 'width': 410, 'height': 410, 'widthPercent': 0.45, 'rescaleHeight': False, 'trialN': 68, 'loaded': True, 'loadedTime': 2937, 'positionName': 'RIGHT', 'positionCoords': [998.4, 335], 'bid': 9.36}]",132713,1669830540148,baked potato,steak,8.09,9.36,1.2699999999999996,steak,1073,1078,1079,True,i,134295,1582,1669830541729,1581,HRV,HRV_0130,2022-11-30 17:52:51
69,"[{'imgObject': {}, 'id': 'seaweed', 'src': '/static/foodstim60/seaweed.jpg', 'key': 'u', 'origWidth': 410, 'origHeight': 410, 'width': 410, 'height': 410, 'widthPercent': 0.45, 'rescaleHeight': False, 'trialN': 69, 'loaded': True, 'loadedTime': 2937, 'positionName': 'LEFT', 'positionCoords': [511.6, 335], 'bid': 1.6}, {'imgObject': {}, 'id': 'turkeysandwich', 'src': '/static/foodstim60/turkeysandwich.jpg', 'key': 'i', 'origWidth': 409, 'origHeight': 409, 'width': 409, 'height': 409, 'widthPercent': 0.45, 'rescaleHeight': False, 'trialN': 69, 'loaded': True, 'loadedTime': 2895, 'positionName': 'RIGHT', 'positionCoords': [998.4, 335.5], 'bid': 6.2700000000000005}]",134295,1669830541729,seaweed,turkeysandwich,1.6,6.2700000000000005,4.67,turkeysandwich,1272,1285,1285,True,i,136093,1798,1669830543527,1798,HRV,HRV_0130,2022-11-30 17:52:51
70,"[{'imgObject': {}, 'id': 'popsicles', 'src': '/static/foodstim60/popsicles.jpg', 'key': 'u', 'origWidth': 410, 'origHeight': 410, 'width': 410, 'height': 410, 'widthPercent': 0.45, 'rescaleHeight': False, 'trialN': 70, 'loaded': True, 'loadedTime': 2912, 'positionName': 'LEFT', 'positionCoords': [511.6, 335], 'bid': 6.42}, {'imgObject': {}, 'id': 'baked potato', 'src': '/static/foodstim60/baked potato.jpg', 'key': 'i', 'origWidth': 409, 'origHeight': 410, 'width': 409, 'height': 410, 'widthPercent': 0.45, 'rescaleHeight': False, 'trialN': 70, 'loaded': True, 'loadedTime': 2920, 'positionName': 'RIGHT', 'positionCoords': [998.4, 335], 'bid': 8.09}]",136093,1669830543527,popsicles,baked potato,6.42,8.09,1.67,baked potato,1084,1085,1085,True,i,137693,1600,1669830545127,1600,HRV,HRV_0130,2022-11-30 17:52:51
71,"[{'imgObject': {}, 'id': 'eggsalad', 'src': '/static/foodstim60/eggsalad.jpg', 'key': 'u', 'origWidth': 410, 'origHeight': 409, 'width': 410, 'height': 409, 'widthPercent': 0.45, 'rescaleHeight': False, 'trialN': 71, 'loaded': True, 'loadedTime': 2905, 'positionName': 'LEFT', 'positionCoords': [511.6, 335.5], 'bid': 5.89}, {'imgObject': {}, 'id': 'raspberries', 'src': '/static/foodstim60/raspberries.jpg', 'key': 'i', 'origWidth': 411, 'origHeight': 411, 'width': 411, 'height': 411, 'widthPercent': 0.45, 'rescaleHeight': False, 'trialN': 71, 'loaded': True, 'loadedTime': 2937, 'positionName': 'RIGHT', 'positionCoords': [998.4, 334.5], 'bid': 3.89}]",137693,1669830545127,eggsalad,raspberries,5.89,3.89,-1.9999999999999996,eggsalad,1655,1670,1670,True,u,139877,2184,1669830547311,2184,HRV,HRV_0130,2022-11-30 17:52:51
72,"[{'imgObject': {}, 'id': 'eggs', 'src': '/static/foodstim60/eggs.jpg', 'key': 'u', 'origWidth': 409, 'origHeight': 409, 'width': 409, 'height': 409, 'widthPercent': 0.45, 'rescaleHeight': False, 'trialN': 72, 'loaded': True, 'loadedTime': 2916, 'positionName': 'LEFT', 'positionCoords': [512.6, 335.5], 'bid': 6.55}, {'imgObject': {}, 'id': 'cherries', 'src': '/static/foodstim60/cherries.jpg', 'key': 'i', 'origWidth': 410, 'origHeight': 411, 'width': 410, 'height': 411, 'widthPercent': 0.45, 'rescaleHeight': False, 'trialN': 72, 'loaded': True, 'loadedTime': 2911, 'positionName': 'RIGHT', 'positionCoords': [998.4, 334.5], 'bid': 5.75}]",139877,1669830547311,eggs,cherries,6.55,5.75,-0.7999999999999998,eggs,1050,1054,1053,True,u,141445,1568,1669830548879,1568,HRV,HRV_0130,2022-11-30 17:52:51
73,"[{'imgObject': {}, 'id': 'salmon', 'src': '/static/foodstim60/salmon.jpg', 'key': 'u', 'origWidth': 410, 'origHeight': 409, 'width': 410, 'height': 409, 'widthPercent': 0.45, 'rescaleHeight': False, 'trialN': 73, 'loaded': True, 'loadedTime': 2931, 'positionName': 'LEFT', 'positionCoords': [511.6, 335.5], 'bid': 8.3}, {'imgObject': {}, 'id': 'shreddedwheatwithmilk', 'src': '/static/foodstim60/shreddedwheatwithmilk.jpg', 'key': 'i', 'origWidth': 410, 'origHeight': 410, 'width': 410, 'height': 410, 'widthPercent': 0.45, 'rescaleHeight': False, 'trialN': 73, 'loaded': True, 'loadedTime': 2927, 'positionName': 'RIGHT', 'positionCoords': [998.4, 335], 'bid': 5}]",141445,1669830548879,salmon,shreddedwheatwithmilk,8.3,5.0,-3.3000000000000007,salmon,1091,1104,1105,True,u,143059,1614,1669830550493,1614,HRV,HRV_0130,2022-11-30 17:52:51
74,"[{'imgObject': {}, 'id': 'blueberries', 'src': '/static/foodstim60/blueberries.jpg', 'key': 'u', 'origWidth': 411, 'origHeight': 411, 'width': 411, 'height': 411, 'widthPercent': 0.45, 'rescaleHeight': False, 'trialN': 74, 'loaded': True, 'loadedTime': 2913, 'positionName': 'LEFT', 'positionCoords': [510.6, 334.5], 'bid': 6.54}, {'imgObject': {}, 'id': 'turkeysandwich', 'src': '/static/foodstim60/turkeysandwich.jpg', 'key': 'i', 'origWidth': 409, 'origHeight': 409, 'width': 409, 'height': 409, 'widthPercent': 0.45, 'rescaleHeight': False, 'trialN': 74, 'loaded': True, 'loadedTime': 2895, 'positionName': 'RIGHT', 'positionCoords': [998.4, 335.5], 'bid': 6.2700000000000005}]",143059,1669830550493,blueberries,turkeysandwich,6.54,6.2700000000000005,-0.2699999999999996,turkeysandwich,1117,1118,1118,True,i,144689,1630,1669830552123,1630,HRV,HRV_0130,2022-11-30 17:52:51
75,"[{'imgObject': {}, 'id': 'turkey sandwich', 'src': '/static/foodstim60/turkey sandwich.jpg', 'key': 'u', 'origWidth': 409, 'origHeight': 409, 'width': 409, 'height': 409, 'widthPercent': 0.45, 'rescaleHeight': False, 'trialN': 75, 'loaded': True, 'loadedTime': 2917, 'positionName': 'LEFT', 'positionCoords': [512.6, 335.5], 'bid': 6.66}, {'imgObject': {}, 'id': 'eggs', 'src': '/static/foodstim60/eggs.jpg', 'key': 'i', 'origWidth': 409, 'origHeight': 409, 'width': 409, 'height': 409, 'widthPercent': 0.45, 'rescaleHeight': False, 'trialN': 75, 'loaded': True, 'loadedTime': 2916, 'positionName': 'RIGHT', 'positionCoords': [998.4, 335.5], 'bid': 6.55}]",144689,1669830552123,turkey sandwich,eggs,6.66,6.55,-0.11000000000000032,turkey sandwich,1627,1629,1629,True,u,146827,2138,1669830554261,2138,HRV,HRV_0130,2022-11-30 17:52:51
76,"[{'imgObject': {}, 'id': 'seaweed', 'src': '/static/foodstim60/seaweed.jpg', 'key': 'u', 'origWidth': 410, 'origHeight': 410, 'width': 410, 'height': 410, 'widthPercent': 0.45, 'rescaleHeight': False, 'trialN': 76, 'loaded': True, 'loadedTime': 2937, 'positionName': 'LEFT', 'positionCoords': [511.6, 335], 'bid': 1.6}, {'imgObject': {}, 'id': 'banana', 'src': '/static/foodstim60/banana.jpg', 'key': 'i', 'origWidth': 410, 'origHeight': 410, 'width': 410, 'height': 410, 'widthPercent': 0.45, 'rescaleHeight': False, 'trialN': 76, 'loaded': True, 'loadedTime': 2906, 'positionName': 'RIGHT', 'positionCoords': [998.4, 335], 'bid': 1.15}]",146827,1669830554261,seaweed,banana,1.6,1.15,-0.4500000000000002,seaweed,1239,1242,1242,True,u,148581,1754,1669830556016,1755,HRV,HRV_0130,2022-11-30 17:52:51
77,"[{'imgObject': {}, 'id': 'salmon', 'src': '/static/foodstim60/salmon.jpg', 'key': 'u', 'origWidth': 410, 'origHeight': 409, 'width': 410, 'height': 409, 'widthPercent': 0.45, 'rescaleHeight': False, 'trialN': 77, 'loaded': True, 'loadedTime': 2931, 'positionName': 'LEFT', 'positionCoords': [511.6, 335.5], 'bid': 8.3}, {'imgObject': {}, 'id': 'salad w chicken', 'src': '/static/foodstim60/salad w chicken.jpg', 'key': 'i', 'origWidth': 411, 'origHeight': 411, 'width': 411, 'height': 411, 'widthPercent': 0.45, 'rescaleHeight': False, 'trialN': 77, 'loaded': True, 'loadedTime': 2920, 'positionName': 'RIGHT', 'positionCoords': [998.4, 334.5], 'bid': 8.38}]",148581,1669830556016,salmon,salad w chicken,8.3,8.38,0.08000000000000007,salmon,1188,1197,1199,True,u,150288,1707,1669830557722,1706,HRV,HRV_0130,2022-11-30 17:52:51
78,"[{'imgObject': {}, 'id': 'roastedpotatoes', 'src': '/static/foodstim60/roastedpotatoes.jpg', 'key': 'u', 'origWidth': 409, 'origHeight': 410, 'width': 409, 'height': 410, 'widthPercent': 0.45, 'rescaleHeight': False, 'trialN': 78, 'loaded': True, 'loadedTime': 2909, 'positionName': 'LEFT', 'positionCoords': [512.6, 335], 'bid': 8.64}, {'imgObject': {}, 'id': 'fruitsalad', 'src': '/static/foodstim60/fruitsalad.jpg', 'key': 'i', 'origWidth': 410, 'origHeight': 410, 'width': 410, 'height': 410, 'widthPercent': 0.45, 'rescaleHeight': False, 'trialN': 78, 'loaded': True, 'loadedTime': 2893, 'positionName': 'RIGHT', 'positionCoords': [998.4, 335], 'bid': 5.33}]",150289,1669830557722,roastedpotatoes,fruitsalad,8.64,5.33,-3.3100000000000005,roastedpotatoes,1105,1122,1122,True,u,151921,1632,1669830559355,1633,HRV,HRV_0130,2022-11-30 17:52:51
79,"[{'imgObject': {}, 'id': 'lox', 'src': '/static/foodstim60/lox.jpg', 'key': 'u', 'origWidth': 410, 'origHeight': 411, 'width': 410, 'height': 411, 'widthPercent': 0.45, 'rescaleHeight': False, 'trialN': 79, 'loaded': True, 'loadedTime': 2936, 'positionName': 'LEFT', 'positionCoords': [511.6, 334.5], 'bid': 4.3100000000000005}, {'imgObject': {}, 'id': 'rigatoni and sauce', 'src': '/static/foodstim60/rigatoni and sauce.jpg', 'key': 'i', 'origWidth': 410, 'origHeight': 411, 'width': 410, 'height': 411, 'widthPercent': 0.45, 'rescaleHeight': False, 'trialN': 79, 'loaded': True, 'loadedTime': 2910, 'positionName': 'RIGHT', 'positionCoords': [998.4, 334.5], 'bid': 5.97}]",151921,1669830559355,lox,rigatoni and sauce,4.3100000000000005,5.97,1.6599999999999993,rigatoni and sauce,1473,1485,1485,True,i,153907,1986,1669830561341,1986,HRV,HRV_0130,2022-11-30 17:52:51
80,"[{'imgObject': {}, 'id': 'chicken nuggets2', 'src': '/static/foodstim60/chicken nuggets2.jpg', 'key': 'u', 'origWidth': 410, 'origHeight': 409, 'width': 410, 'height': 409, 'widthPercent': 0.45, 'rescaleHeight': False, 'trialN': 80, 'loaded': True, 'loadedTime': 2899, 'positionName': 'LEFT', 'positionCoords': [511.6, 335.5], 'bid': 7.44}, {'imgObject': {}, 'id': 'orange slices', 'src': '/static/foodstim60/orange slices.jpg', 'key': 'i', 'origWidth': 409, 'origHeight': 410, 'width': 409, 'height': 410, 'widthPercent': 0.45, 'rescaleHeight': False, 'trialN': 80, 'loaded': True, 'loadedTime': 2933, 'positionName': 'RIGHT', 'positionCoords': [998.4, 335], 'bid': 7.390000000000001}]",153907,1669830561341,chicken nuggets2,orange slices,7.44,7.390000000000001,-0.04999999999999982,chicken nuggets2,1112,1124,1125,True,u,155536,1629,1669830562970,1629,HRV,HRV_0130,2022-11-30 17:52:51
81,"[{'imgObject': {}, 'id': 'salad w chicken', 'src': '/static/foodstim60/salad w chicken.jpg', 'key': 'u', 'origWidth': 411, 'origHeight': 411, 'width': 411, 'height': 411, 'widthPercent': 0.45, 'rescaleHeight': False, 'trialN': 81, 'loaded': True, 'loadedTime': 2920, 'positionName': 'LEFT', 'positionCoords': [510.6, 334.5], 'bid': 8.38}, {'imgObject': {}, 'id': 'hashbrowns', 'src': '/static/foodstim60/hashbrowns.jpg', 'key': 'i', 'origWidth': 411, 'origHeight': 410, 'width': 411, 'height': 410, 'widthPercent': 0.45, 'rescaleHeight': False, 'trialN': 81, 'loaded': True, 'loadedTime': 2933, 'positionName': 'RIGHT', 'positionCoords': [998.4, 335], 'bid': 5.03}]",155536,1669830562970,salad w chicken,hashbrowns,8.38,5.03,-3.3500000000000005,salad w chicken,1015,1020,1020,True,u,157057,1521,1669830564492,1522,HRV,HRV_0130,2022-11-30 17:52:51
82,"[{'imgObject': {}, 'id': 'yogurt no spoon', 'src': '/static/foodstim60/yogurt no spoon.jpg', 'key': 'u', 'origWidth': 411, 'origHeight': 410, 'width': 411, 'height': 410, 'widthPercent': 0.45, 'rescaleHeight': False, 'trialN': 82, 'loaded': True, 'loadedTime': 2930, 'positionName': 'LEFT', 'positionCoords': [510.6, 335], 'bid': 6.01}, {'imgObject': {}, 'id': 'bagel plain', 'src': '/static/foodstim60/bagel plain.jpg', 'key': 'i', 'origWidth': 410, 'origHeight': 410, 'width': 410, 'height': 410, 'widthPercent': 0.45, 'rescaleHeight': False, 'trialN': 82, 'loaded': True, 'loadedTime': 2928, 'positionName': 'RIGHT', 'positionCoords': [998.4, 335], 'bid': 4.37}]",157057,1669830564492,yogurt no spoon,bagel plain,6.01,4.37,-1.6399999999999997,yogurt no spoon,995,1009,1011,True,u,158581,1524,1669830566015,1523,HRV,HRV_0130,2022-11-30 17:52:51
83,"[{'imgObject': {}, 'id': 'grilled chicken strips', 'src': '/static/foodstim60/grilled chicken strips.jpg', 'key': 'u', 'origWidth': 410, 'origHeight': 411, 'width': 410, 'height': 411, 'widthPercent': 0.45, 'rescaleHeight': False, 'trialN': 83, 'loaded': True, 'loadedTime': 2938, 'positionName': 'LEFT', 'positionCoords': [511.6, 334.5], 'bid': 7.76}, {'imgObject': {}, 'id': 'fried eggs', 'src': '/static/foodstim60/fried eggs.jpg', 'key': 'i', 'origWidth': 410, 'origHeight': 410, 'width': 410, 'height': 410, 'widthPercent': 0.45, 'rescaleHeight': False, 'trialN': 83, 'loaded': True, 'loadedTime': 2916, 'positionName': 'RIGHT', 'positionCoords': [998.4, 335], 'bid': 7.85}]",158581,1669830566015,grilled chicken strips,fried eggs,7.76,7.85,0.08999999999999986,grilled chicken strips,1032,1040,1040,True,u,160133,1552,1669830567567,1552,HRV,HRV_0130,2022-11-30 17:52:51
84,"[{'imgObject': {}, 'id': 'bagel plain', 'src': '/static/foodstim60/bagel plain.jpg', 'key': 'u', 'origWidth': 410, 'origHeight': 410, 'width': 410, 'height': 410, 'widthPercent': 0.45, 'rescaleHeight': False, 'trialN': 84, 'loaded': True, 'loadedTime': 2928, 'positionName': 'LEFT', 'positionCoords': [511.6, 335], 'bid': 4.37}, {'imgObject': {}, 'id': 'grilled chicken strips', 'src': '/static/foodstim60/grilled chicken strips.jpg', 'key': 'i', 'origWidth': 410, 'origHeight': 411, 'width': 410, 'height': 411, 'widthPercent': 0.45, 'rescaleHeight': False, 'trialN': 84, 'loaded': True, 'loadedTime': 2939, 'positionName': 'RIGHT', 'positionCoords': [998.4, 334.5], 'bid': 7.76}]",160133,1669830567567,bagel plain,grilled chicken strips,4.37,7.76,3.3899999999999997,grilled chicken strips,964,976,976,True,i,161610,1477,1669830569044,1477,HRV,HRV_0130,2022-11-30 17:52:51
85,"[{'imgObject': {}, 'id': 'raisin bran w milk', 'src': '/static/foodstim60/raisin bran w milk.jpg', 'key': 'u', 'origWidth': 411, 'origHeight': 411, 'width': 411, 'height': 411, 'widthPercent': 0.45, 'rescaleHeight': False, 'trialN': 85, 'loaded': True, 'loadedTime': 2900, 'positionName': 'LEFT', 'positionCoords': [510.6, 334.5], 'bid': 5.3100000000000005}, {'imgObject': {}, 'id': 'cantaloupe', 'src': '/static/foodstim60/cantaloupe.jpg', 'key': 'i', 'origWidth': 409, 'origHeight': 409, 'width': 409, 'height': 409, 'widthPercent': 0.45, 'rescaleHeight': False, 'trialN': 85, 'loaded': True, 'loadedTime': 2919, 'positionName': 'RIGHT', 'positionCoords': [998.4, 335.5], 'bid': 2.68}]",161610,1669830569044,raisin bran w milk,cantaloupe,5.3100000000000005,2.68,-2.6300000000000003,raisin bran w milk,1128,1143,1143,True,u,163253,1643,1669830570687,1643,HRV,HRV_0130,2022-11-30 17:52:51
86,"[{'imgObject': {}, 'id': 'salad w chicken', 'src': '/static/foodstim60/salad w chicken.jpg', 'key': 'u', 'origWidth': 411, 'origHeight': 411, 'width': 411, 'height': 411, 'widthPercent': 0.45, 'rescaleHeight': False, 'trialN': 86, 'loaded': True, 'loadedTime': 2920, 'positionName': 'LEFT', 'positionCoords': [510.6, 334.5], 'bid': 8.38}, {'imgObject': {}, 'id': 'chicken nuggets2', 'src': '/static/foodstim60/chicken nuggets2.jpg', 'key': 'i', 'origWidth': 410, 'origHeight': 409, 'width': 410, 'height': 409, 'widthPercent': 0.45, 'rescaleHeight': False, 'trialN': 86, 'loaded': True, 'loadedTime': 2899, 'positionName': 'RIGHT', 'positionCoords': [998.4, 335.5], 'bid': 7.44}]",163253,1669830570687,salad w chicken,chicken nuggets2,8.38,7.44,-0.9400000000000004,chicken nuggets2,1408,1421,1422,True,i,165175,1922,1669830572609,1922,HRV,HRV_0130,2022-11-30 17:52:51
87,"[{'imgObject': {}, 'id': 'mashed potato', 'src': '/static/foodstim60/mashed potato.jpg', 'key': 'u', 'origWidth': 409, 'origHeight': 409, 'width': 409, 'height': 409, 'widthPercent': 0.45, 'rescaleHeight': False, 'trialN': 87, 'loaded': True, 'loadedTime': 2907, 'positionName': 'LEFT', 'positionCoords': [512.6, 335.5], 'bid': 6.26}, {'imgObject': {}, 'id': 'popsicles', 'src': '/static/foodstim60/popsicles.jpg', 'key': 'i', 'origWidth': 410, 'origHeight': 410, 'width': 410, 'height': 410, 'widthPercent': 0.45, 'rescaleHeight': False, 'trialN': 87, 'loaded': True, 'loadedTime': 2912, 'positionName': 'RIGHT', 'positionCoords': [998.4, 335], 'bid': 6.42}]",165175,1669830572609,mashed potato,popsicles,6.26,6.42,0.16000000000000014,mashed potato,955,964,964,True,u,166652,1477,1669830574087,1478,HRV,HRV_0130,2022-11-30 17:52:51
88,"[{'imgObject': {}, 'id': 'raisin bran w milk', 'src': '/static/foodstim60/raisin bran w milk.jpg', 'key': 'u', 'origWidth': 411, 'origHeight': 411, 'width': 411, 'height': 411, 'widthPercent': 0.45, 'rescaleHeight': False, 'trialN': 88, 'loaded': True, 'loadedTime': 2900, 'positionName': 'LEFT', 'positionCoords': [510.6, 334.5], 'bid': 5.3100000000000005}, {'imgObject': {}, 'id': 'chickenfingers', 'src': '/static/foodstim60/chickenfingers.jpg', 'key': 'i', 'origWidth': 410, 'origHeight': 410, 'width': 410, 'height': 410, 'widthPercent': 0.45, 'rescaleHeight': False, 'trialN': 88, 'loaded': True, 'loadedTime': 2897, 'positionName': 'RIGHT', 'positionCoords': [998.4, 335], 'bid': 8.51}]",166652,1669830574087,raisin bran w milk,chickenfingers,5.3100000000000005,8.51,3.1999999999999993,chickenfingers,961,965,966,True,i,168130,1478,1669830575563,1476,HRV,HRV_0130,2022-11-30 17:52:51
89,"[{'imgObject': {}, 'id': 'grilled chicken strips', 'src': '/static/foodstim60/grilled chicken strips.jpg', 'key': 'u', 'origWidth': 410, 'origHeight': 411, 'width': 410, 'height': 411, 'widthPercent': 0.45, 'rescaleHeight': False, 'trialN': 89, 'loaded': True, 'loadedTime': 2939, 'positionName': 'LEFT', 'positionCoords': [511.6, 334.5], 'bid': 7.76}, {'imgObject': {}, 'id': 'steak', 'src': '/static/foodstim60/steak.jpg', 'key': 'i', 'origWidth': 410, 'origHeight': 410, 'width': 410, 'height': 410, 'widthPercent': 0.45, 'rescaleHeight': False, 'trialN': 89, 'loaded': True, 'loadedTime': 2938, 'positionName': 'RIGHT', 'positionCoords': [998.4, 335], 'bid': 9.36}]",168130,1669830575563,grilled chicken strips,steak,7.76,9.36,1.5999999999999996,steak,1062,1064,1063,True,i,169695,1565,1669830577129,1566,HRV,HRV_0130,2022-11-30 17:52:51
90,"[{'imgObject': {}, 'id': 'burger', 'src': '/static/foodstim60/burger.jpg', 'key': 'u', 'origWidth': 409, 'origHeight': 409, 'width': 409, 'height': 409, 'widthPercent': 0.45, 'rescaleHeight': False, 'trialN': 90, 'loaded': True, 'loadedTime': 2929, 'positionName': 'LEFT', 'positionCoords': [512.6, 335.5], 'bid': 7.15}, {'imgObject': {}, 'id': 'mac & cheese', 'src': '/static/foodstim60/mac & cheese.jpg', 'key': 'i', 'origWidth': 410, 'origHeight': 410, 'width': 410, 'height': 410, 'widthPercent': 0.45, 'rescaleHeight': False, 'trialN': 90, 'loaded': True, 'loadedTime': 2898, 'positionName': 'RIGHT', 'positionCoords': [998.4, 335], 'bid': 6.68}]",181552,1669830588985,burger,mac & cheese,7.15,6.68,-0.47000000000000064,mac & cheese,1562,1576,1575,True,i,183628,2076,1669830591062,2077,HRV,HRV_0130,2022-11-30 17:52:51
91,"[{'imgObject': {}, 'id': 'cherry tomato', 'src': '/static/foodstim60/cherry tomato.jpg', 'key': 'u', 'origWidth': 410, 'origHeight': 410, 'width': 410, 'height': 410, 'widthPercent': 0.45, 'rescaleHeight': False, 'trialN': 91, 'loaded': True, 'loadedTime': 2894, 'positionName': 'LEFT', 'positionCoords': [511.6, 335], 'bid': 2.75}, {'imgObject': {}, 'id': 'bagel and cc', 'src': '/static/foodstim60/bagel and cc.jpg', 'key': 'i', 'origWidth': 410, 'origHeight': 410, 'width': 410, 'height': 410, 'widthPercent': 0.45, 'rescaleHeight': False, 'trialN': 91, 'loaded': True, 'loadedTime': 2935, 'positionName': 'RIGHT', 'positionCoords': [998.4, 335], 'bid': 4.96}]",183628,1669830591062,cherry tomato,bagel and cc,2.75,4.96,2.21,bagel and cc,1549,1552,1553,True,i,185688,2060,1669830593121,2059,HRV,HRV_0130,2022-11-30 17:52:51
92,"[{'imgObject': {}, 'id': 'hashbrowns', 'src': '/static/foodstim60/hashbrowns.jpg', 'key': 'u', 'origWidth': 411, 'origHeight': 410, 'width': 411, 'height': 410, 'widthPercent': 0.45, 'rescaleHeight': False, 'trialN': 92, 'loaded': True, 'loadedTime': 2933, 'positionName': 'LEFT', 'positionCoords': [510.6, 335], 'bid': 5.03}, {'imgObject': {}, 'id': 'edamame', 'src': '/static/foodstim60/edamame.jpg', 'key': 'i', 'origWidth': 409, 'origHeight': 410, 'width': 409, 'height': 410, 'widthPercent': 0.45, 'rescaleHeight': False, 'trialN': 92, 'loaded': True, 'loadedTime': 2903, 'positionName': 'RIGHT', 'positionCoords': [998.4, 335], 'bid': 4.42}]",185688,1669830593121,hashbrowns,edamame,5.03,4.42,-0.6100000000000003,hashbrowns,1239,1251,1250,True,u,187440,1752,1669830594874,1753,HRV,HRV_0130,2022-11-30 17:52:51
93,"[{'imgObject': {}, 'id': 'apple slices', 'src': '/static/foodstim60/apple slices.jpg', 'key': 'u', 'origWidth': 409, 'origHeight': 410, 'width': 409, 'height': 410, 'widthPercent': 0.45, 'rescaleHeight': False, 'trialN': 93, 'loaded': True, 'loadedTime': 2909, 'positionName': 'LEFT', 'positionCoords': [512.6, 335], 'bid': 9.36}, {'imgObject': {}, 'id': 'steak', 'src': '/static/foodstim60/steak.jpg', 'key': 'i', 'origWidth': 410, 'origHeight': 410, 'width': 410, 'height': 410, 'widthPercent': 0.45, 'rescaleHeight': False, 'trialN': 93, 'loaded': True, 'loadedTime': 2938, 'positionName': 'RIGHT', 'positionCoords': [998.4, 335], 'bid': 9.36}]",187440,1669830594874,apple slices,steak,9.36,9.36,0.0,steak,1096,1099,1098,True,i,189039,1599,1669830596473,1599,HRV,HRV_0130,2022-11-30 17:52:51
94,"[{'imgObject': {}, 'id': 'grilled chicken strips', 'src': '/static/foodstim60/grilled chicken strips.jpg', 'key': 'u', 'origWidth': 410, 'origHeight': 411, 'width': 410, 'height': 411, 'widthPercent': 0.45, 'rescaleHeight': False, 'trialN': 94, 'loaded': True, 'loadedTime': 2939, 'positionName': 'LEFT', 'positionCoords': [511.6, 334.5], 'bid': 7.76}, {'imgObject': {}, 'id': 'roastedpotatoes', 'src': '/static/foodstim60/roastedpotatoes.jpg', 'key': 'i', 'origWidth': 409, 'origHeight': 410, 'width': 409, 'height': 410, 'widthPercent': 0.45, 'rescaleHeight': False, 'trialN': 94, 'loaded': True, 'loadedTime': 2909, 'positionName': 'RIGHT', 'positionCoords': [998.4, 335], 'bid': 8.64}]",189039,1669830596473,grilled chicken strips,roastedpotatoes,7.76,8.64,0.8800000000000008,roastedpotatoes,1402,1410,1409,True,i,190961,1922,1669830598394,1921,HRV,HRV_0130,2022-11-30 17:52:51
95,"[{'imgObject': {}, 'id': 'strawberries', 'src': '/static/foodstim60/strawberries.jpg', 'key': 'u', 'origWidth': 410, 'origHeight': 410, 'width': 410, 'height': 410, 'widthPercent': 0.45, 'rescaleHeight': False, 'trialN': 95, 'loaded': True, 'loadedTime': 2904, 'positionName': 'LEFT', 'positionCoords': [511.6, 335], 'bid': 7.79}, {'imgObject': {}, 'id': 'burger', 'src': '/static/foodstim60/burger.jpg', 'key': 'i', 'origWidth': 409, 'origHeight': 409, 'width': 409, 'height': 409, 'widthPercent': 0.45, 'rescaleHeight': False, 'trialN': 95, 'loaded': True, 'loadedTime': 2929, 'positionName': 'RIGHT', 'positionCoords': [998.4, 335.5], 'bid': 7.15}]",190961,1669830598394,strawberries,burger,7.79,7.15,-0.6399999999999997,strawberries,1402,1406,1406,True,u,192881,1920,1669830600315,1921,HRV,HRV_0130,2022-11-30 17:52:51
96,"[{'imgObject': {}, 'id': 'blueberries', 'src': '/static/foodstim60/blueberries.jpg', 'key': 'u', 'origWidth': 411, 'origHeight': 411, 'width': 411, 'height': 411, 'widthPercent': 0.45, 'rescaleHeight': False, 'trialN': 96, 'loaded': True, 'loadedTime': 2913, 'positionName': 'LEFT', 'positionCoords': [510.6, 334.5], 'bid': 6.54}, {'imgObject': {}, 'id': 'hotdog w must', 'src': '/static/foodstim60/hotdog w must.jpg', 'key': 'i', 'origWidth': 409, 'origHeight': 409, 'width': 409, 'height': 409, 'widthPercent': 0.45, 'rescaleHeight': False, 'trialN': 96, 'loaded': True, 'loadedTime': 2922, 'positionName': 'RIGHT', 'positionCoords': [998.4, 335.5], 'bid': 1.87}]",192881,1669830600315,blueberries,hotdog w must,6.54,1.87,-4.67,blueberries,936,944,945,True,u,194327,1446,1669830601761,1446,HRV,HRV_0130,2022-11-30 17:52:51
97,"[{'imgObject': {}, 'id': 'corn cob', 'src': '/static/foodstim60/corn cob.jpg', 'key': 'u', 'origWidth': 411, 'origHeight': 411, 'width': 411, 'height': 411, 'widthPercent': 0.45, 'rescaleHeight': False, 'trialN': 97, 'loaded': True, 'loadedTime': 2932, 'positionName': 'LEFT', 'positionCoords': [510.6, 334.5], 'bid': 2.51}, {'imgObject': {}, 'id': 'froot loops w milk', 'src': '/static/foodstim60/froot loops w milk.jpg', 'key': 'i', 'origWidth': 410, 'origHeight': 410, 'width': 410, 'height': 410, 'widthPercent': 0.45, 'rescaleHeight': False, 'trialN': 97, 'loaded': True, 'loadedTime': 2901, 'positionName': 'RIGHT', 'positionCoords': [998.4, 335], 'bid': 4.94}]",194327,1669830601761,corn cob,froot loops w milk,2.51,4.94,2.4300000000000006,froot loops w milk,1302,1310,1310,True,i,196142,1815,1669830603576,1815,HRV,HRV_0130,2022-11-30 17:52:51
98,"[{'imgObject': {}, 'id': 'cherries', 'src': '/static/foodstim60/cherries.jpg', 'key': 'u', 'origWidth': 410, 'origHeight': 411, 'width': 410, 'height': 411, 'widthPercent': 0.45, 'rescaleHeight': False, 'trialN': 98, 'loaded': True, 'loadedTime': 2911, 'positionName': 'LEFT', 'positionCoords': [511.6, 334.5], 'bid': 5.75}, {'imgObject': {}, 'id': 'omelette', 'src': '/static/foodstim60/omelette.jpg', 'key': 'i', 'origWidth': 410, 'origHeight': 409, 'width': 410, 'height': 409, 'widthPercent': 0.45, 'rescaleHeight': False, 'trialN': 98, 'loaded': True, 'loadedTime': 2934, 'positionName': 'RIGHT', 'positionCoords': [998.4, 335.5], 'bid': 8.69}]",196142,1669830603576,cherries,omelette,5.75,8.69,2.9399999999999995,omelette,878,879,879,True,i,197528,1386,1669830604962,1386,HRV,HRV_0130,2022-11-30 17:52:51
99,"[{'imgObject': {}, 'id': 'Tribe humus pita', 'src': '/static/foodstim60/Tribe humus pita.jpg', 'key': 'u', 'origWidth': 411, 'origHeight': 411, 'width': 411, 'height': 411, 'widthPercent': 0.45, 'rescaleHeight': False, 'trialN': 99, 'loaded': True, 'loadedTime': 2934, 'positionName': 'LEFT', 'positionCoords': [510.6, 334.5], 'bid': 8.72}, {'imgObject': {}, 'id': 'salad w chicken', 'src': '/static/foodstim60/salad w chicken.jpg', 'key': 'i', 'origWidth': 411, 'origHeight': 411, 'width': 411, 'height': 411, 'widthPercent': 0.45, 'rescaleHeight': False, 'trialN': 99, 'loaded': True, 'loadedTime': 2920, 'positionName': 'RIGHT', 'positionCoords': [998.4, 334.5], 'bid': 8.38}]",197528,1669830604962,Tribe humus pita,salad w chicken,8.72,8.38,-0.33999999999999986,Tribe humus pita,1024,1040,1039,True,u,199082,1554,1669830606516,1554,HRV,HRV_0130,2022-11-30 17:52:51
100,"[{'imgObject': {}, 'id': 'burrito', 'src': '/static/foodstim60/burrito.jpg', 'key': 'u', 'origWidth': 410, 'origHeight': 410, 'width': 410, 'height': 410, 'widthPercent': 0.45, 'rescaleHeight': False, 'trialN': 100, 'loaded': True, 'loadedTime': 2924, 'positionName': 'LEFT', 'positionCoords': [511.6, 335], 'bid': 8.67}, {'imgObject': {}, 'id': 'chickenfingers', 'src': '/static/foodstim60/chickenfingers.jpg', 'key': 'i', 'origWidth': 410, 'origHeight': 410, 'width': 410, 'height': 410, 'widthPercent': 0.45, 'rescaleHeight': False, 'trialN': 100, 'loaded': True, 'loadedTime': 2897, 'positionName': 'RIGHT', 'positionCoords': [998.4, 335], 'bid': 8.51}]",199082,1669830606516,burrito,chickenfingers,8.67,8.51,-0.16000000000000014,chickenfingers,1220,1233,1232,True,i,200819,1737,1669830608253,1737,HRV,HRV_0130,2022-11-30 17:52:51
101,"[{'imgObject': {}, 'id': 'bagel plain', 'src': '/static/foodstim60/bagel plain.jpg', 'key': 'u', 'origWidth': 410, 'origHeight': 410, 'width': 410, 'height': 410, 'widthPercent': 0.45, 'rescaleHeight': False, 'trialN': 101, 'loaded': True, 'loadedTime': 2928, 'positionName': 'LEFT', 'positionCoords': [511.6, 335], 'bid': 4.37}, {'imgObject': {}, 'id': 'avocado', 'src': '/static/foodstim60/avocado.jpg', 'key': 'i', 'origWidth': 409, 'origHeight': 409, 'width': 409, 'height': 409, 'widthPercent': 0.45, 'rescaleHeight': False, 'trialN': 101, 'loaded': True, 'loadedTime': 2921, 'positionName': 'RIGHT', 'positionCoords': [998.4, 335.5], 'bid': 1.66}]",200819,1669830608253,bagel plain,avocado,4.37,1.66,-2.71,bagel plain,1482,1489,1489,True,u,202818,1999,1669830610252,1999,HRV,HRV_0130,2022-11-30 17:52:51
102,"[{'imgObject': {}, 'id': 'mashed potato', 'src': '/static/foodstim60/mashed potato.jpg', 'key': 'u', 'origWidth': 409, 'origHeight': 409, 'width': 409, 'height': 409, 'widthPercent': 0.45, 'rescaleHeight': False, 'trialN': 102, 'loaded': True, 'loadedTime': 2907, 'positionName': 'LEFT', 'positionCoords': [512.6, 335.5], 'bid': 6.26}, {'imgObject': {}, 'id': 'turkeysandwich', 'src': '/static/foodstim60/turkeysandwich.jpg', 'key': 'i', 'origWidth': 409, 'origHeight': 409, 'width': 409, 'height': 409, 'widthPercent': 0.45, 'rescaleHeight': False, 'trialN': 102, 'loaded': True, 'loadedTime': 2895, 'positionName': 'RIGHT', 'positionCoords': [998.4, 335.5], 'bid': 6.2700000000000005}]",202818,1669830610252,mashed potato,turkeysandwich,6.26,6.2700000000000005,0.010000000000000675,mashed potato,2139,2141,2141,True,u,205464,2646,1669830612899,2647,HRV,HRV_0130,2022-11-30 17:52:51
103,"[{'imgObject': {}, 'id': 'yogurt no spoon', 'src': '/static/foodstim60/yogurt no spoon.jpg', 'key': 'u', 'origWidth': 411, 'origHeight': 410, 'width': 411, 'height': 410, 'widthPercent': 0.45, 'rescaleHeight': False, 'trialN': 103, 'loaded': True, 'loadedTime': 2930, 'positionName': 'LEFT', 'positionCoords': [510.6, 335], 'bid': 6.01}, {'imgObject': {}, 'id': 'blueberries', 'src': '/static/foodstim60/blueberries.jpg', 'key': 'i', 'origWidth': 411, 'origHeight': 411, 'width': 411, 'height': 411, 'widthPercent': 0.45, 'rescaleHeight': False, 'trialN': 103, 'loaded': True, 'loadedTime': 2913, 'positionName': 'RIGHT', 'positionCoords': [998.4, 334.5], 'bid': 6.54}]",205464,1669830612899,yogurt no spoon,blueberries,6.01,6.54,0.5300000000000002,blueberries,1275,1285,1287,True,i,207265,1801,1669830614699,1800,HRV,HRV_0130,2022-11-30 17:52:51
104,"[{'imgObject': {}, 'id': 'raspberries', 'src': '/static/foodstim60/raspberries.jpg', 'key': 'u', 'origWidth': 411, 'origHeight': 411, 'width': 411, 'height': 411, 'widthPercent': 0.45, 'rescaleHeight': False, 'trialN': 104, 'loaded': True, 'loadedTime': 2937, 'positionName': 'LEFT', 'positionCoords': [510.6, 334.5], 'bid': 3.89}, {'imgObject': {}, 'id': 'lox', 'src': '/static/foodstim60/lox.jpg', 'key': 'i', 'origWidth': 410, 'origHeight': 411, 'width': 410, 'height': 411, 'widthPercent': 0.45, 'rescaleHeight': False, 'trialN': 104, 'loaded': True, 'loadedTime': 2936, 'positionName': 'RIGHT', 'positionCoords': [998.4, 334.5], 'bid': 4.3100000000000005}]",207265,1669830614699,raspberries,lox,3.89,4.3100000000000005,0.4200000000000004,lox,1552,1560,1560,True,i,209326,2061,1669830616761,2062,HRV,HRV_0130,2022-11-30 17:52:51
105,"[{'imgObject': {}, 'id': 'sushi w_condiments', 'src': '/static/foodstim60/sushi w_condiments.jpg', 'key': 'u', 'origWidth': 410, 'origHeight': 410, 'width': 410, 'height': 410, 'widthPercent': 0.45, 'rescaleHeight': False, 'trialN': 105, 'loaded': True, 'loadedTime': 2939, 'positionName': 'LEFT', 'positionCoords': [511.6, 335], 'bid': 6.09}, {'imgObject': {}, 'id': 'fruitsalad', 'src': '/static/foodstim60/fruitsalad.jpg', 'key': 'i', 'origWidth': 410, 'origHeight': 410, 'width': 410, 'height': 410, 'widthPercent': 0.45, 'rescaleHeight': False, 'trialN': 105, 'loaded': True, 'loadedTime': 2893, 'positionName': 'RIGHT', 'positionCoords': [998.4, 335], 'bid': 5.33}]",209326,1669830616761,sushi w_condiments,fruitsalad,6.09,5.33,-0.7599999999999998,sushi w_condiments,1147,1156,1157,True,u,210989,1663,1669830618422,1661,HRV,HRV_0130,2022-11-30 17:52:51
106,"[{'imgObject': {}, 'id': 'kiwi', 'src': '/static/foodstim60/kiwi.jpg', 'key': 'u', 'origWidth': 410, 'origHeight': 410, 'width': 410, 'height': 410, 'widthPercent': 0.45, 'rescaleHeight': False, 'trialN': 106, 'loaded': True, 'loadedTime': 2925, 'positionName': 'LEFT', 'positionCoords': [511.6, 335], 'bid': 3.69}, {'imgObject': {}, 'id': 'mango', 'src': '/static/foodstim60/mango.jpg', 'key': 'i', 'origWidth': 411, 'origHeight': 411, 'width': 411, 'height': 411, 'widthPercent': 0.45, 'rescaleHeight': False, 'trialN': 106, 'loaded': True, 'loadedTime': 2914, 'positionName': 'RIGHT', 'positionCoords': [998.4, 334.5], 'bid': 3.47}]",210989,1669830618422,kiwi,mango,3.69,3.47,-0.21999999999999975,mango,1031,1035,1034,True,i,212529,1540,1669830619964,1542,HRV,HRV_0130,2022-11-30 17:52:51
107,"[{'imgObject': {}, 'id': 'chickenfingers', 'src': '/static/foodstim60/chickenfingers.jpg', 'key': 'u', 'origWidth': 410, 'origHeight': 410, 'width': 410, 'height': 410, 'widthPercent': 0.45, 'rescaleHeight': False, 'trialN': 107, 'loaded': True, 'loadedTime': 2897, 'positionName': 'LEFT', 'positionCoords': [511.6, 335], 'bid': 8.51}, {'imgObject': {}, 'id': 'pear', 'src': '/static/foodstim60/pear.jpg', 'key': 'i', 'origWidth': 411, 'origHeight': 410, 'width': 411, 'height': 410, 'widthPercent': 0.45, 'rescaleHeight': False, 'trialN': 107, 'loaded': True, 'loadedTime': 2899, 'positionName': 'RIGHT', 'positionCoords': [998.4, 335], 'bid': 7.5}]",212529,1669830619964,chickenfingers,pear,8.51,7.5,-1.0099999999999998,chickenfingers,1101,1104,1105,True,u,214144,1615,1669830621578,1614,HRV,HRV_0130,2022-11-30 17:52:51
108,"[{'imgObject': {}, 'id': 'raisin bran w milk', 'src': '/static/foodstim60/raisin bran w milk.jpg', 'key': 'u', 'origWidth': 411, 'origHeight': 411, 'width': 411, 'height': 411, 'widthPercent': 0.45, 'rescaleHeight': False, 'trialN': 108, 'loaded': True, 'loadedTime': 2900, 'positionName': 'LEFT', 'positionCoords': [510.6, 334.5], 'bid': 5.3100000000000005}, {'imgObject': {}, 'id': 'hashbrowns', 'src': '/static/foodstim60/hashbrowns.jpg', 'key': 'i', 'origWidth': 411, 'origHeight': 410, 'width': 411, 'height': 410, 'widthPercent': 0.45, 'rescaleHeight': False, 'trialN': 108, 'loaded': True, 'loadedTime': 2933, 'positionName': 'RIGHT', 'positionCoords': [998.4, 335], 'bid': 5.03}]",214144,1669830621578,raisin bran w milk,hashbrowns,5.3100000000000005,5.03,-0.28000000000000025,raisin bran w milk,2016,2026,2026,True,u,216684,2540,1669830624119,2541,HRV,HRV_0130,2022-11-30 17:52:51
109,"[{'imgObject': {}, 'id': 'steak', 'src': '/static/foodstim60/steak.jpg', 'key': 'u', 'origWidth': 410, 'origHeight': 410, 'width': 410, 'height': 410, 'widthPercent': 0.45, 'rescaleHeight': False, 'trialN': 109, 'loaded': True, 'loadedTime': 2938, 'positionName': 'LEFT', 'positionCoords': [511.6, 335], 'bid': 9.36}, {'imgObject': {}, 'id': 'Tribe humus pita', 'src': '/static/foodstim60/Tribe humus pita.jpg', 'key': 'i', 'origWidth': 411, 'origHeight': 411, 'width': 411, 'height': 411, 'widthPercent': 0.45, 'rescaleHeight': False, 'trialN': 109, 'loaded': True, 'loadedTime': 2934, 'positionName': 'RIGHT', 'positionCoords': [998.4, 334.5], 'bid': 8.72}]",216684,1669830624119,steak,Tribe humus pita,9.36,8.72,-0.6399999999999988,steak,1024,1024,1026,True,u,218222,1538,1669830625656,1537,HRV,HRV_0130,2022-11-30 17:52:51
110,"[{'imgObject': {}, 'id': 'burrito', 'src': '/static/foodstim60/burrito.jpg', 'key': 'u', 'origWidth': 410, 'origHeight': 410, 'width': 410, 'height': 410, 'widthPercent': 0.45, 'rescaleHeight': False, 'trialN': 110, 'loaded': True, 'loadedTime': 2924, 'positionName': 'LEFT', 'positionCoords': [511.6, 335], 'bid': 8.67}, {'imgObject': {}, 'id': 'roastedpotatoes', 'src': '/static/foodstim60/roastedpotatoes.jpg', 'key': 'i', 'origWidth': 409, 'origHeight': 410, 'width': 409, 'height': 410, 'widthPercent': 0.45, 'rescaleHeight': False, 'trialN': 110, 'loaded': True, 'loadedTime': 2909, 'positionName': 'RIGHT', 'positionCoords': [998.4, 335], 'bid': 8.64}]",218222,1669830625657,burrito,roastedpotatoes,8.67,8.64,-0.02999999999999936,roastedpotatoes,1205,1215,1215,True,i,219945,1723,1669830627379,1722,HRV,HRV_0130,2022-11-30 17:52:51
111,"[{'imgObject': {}, 'id': 'seaweed', 'src': '/static/foodstim60/seaweed.jpg', 'key': 'u', 'origWidth': 410, 'origHeight': 410, 'width': 410, 'height': 410, 'widthPercent': 0.45, 'rescaleHeight': False, 'trialN': 111, 'loaded': True, 'loadedTime': 2937, 'positionName': 'LEFT', 'positionCoords': [511.6, 335], 'bid': 1.6}, {'imgObject': {}, 'id': 'lox', 'src': '/static/foodstim60/lox.jpg', 'key': 'i', 'origWidth': 410, 'origHeight': 411, 'width': 410, 'height': 411, 'widthPercent': 0.45, 'rescaleHeight': False, 'trialN': 111, 'loaded': True, 'loadedTime': 2936, 'positionName': 'RIGHT', 'positionCoords': [998.4, 334.5], 'bid': 4.3100000000000005}]",219945,1669830627379,seaweed,lox,1.6,4.3100000000000005,2.7100000000000004,seaweed,1715,1721,1721,True,u,222174,2229,1669830629608,2229,HRV,HRV_0130,2022-11-30 17:52:51
112,"[{'imgObject': {}, 'id': 'mango', 'src': '/static/foodstim60/mango.jpg', 'key': 'u', 'origWidth': 411, 'origHeight': 411, 'width': 411, 'height': 411, 'widthPercent': 0.45, 'rescaleHeight': False, 'trialN': 112, 'loaded': True, 'loadedTime': 2914, 'positionName': 'LEFT', 'positionCoords': [510.6, 334.5], 'bid': 3.47}, {'imgObject': {}, 'id': 'cantaloupe', 'src': '/static/foodstim60/cantaloupe.jpg', 'key': 'i', 'origWidth': 409, 'origHeight': 409, 'width': 409, 'height': 409, 'widthPercent': 0.45, 'rescaleHeight': False, 'trialN': 112, 'loaded': True, 'loadedTime': 2919, 'positionName': 'RIGHT', 'positionCoords': [998.4, 335.5], 'bid': 2.68}]",222174,1669830629608,mango,cantaloupe,3.47,2.68,-0.79,mango,1236,1241,1241,True,u,223927,1753,1669830631361,1753,HRV,HRV_0130,2022-11-30 17:52:51
113,"[{'imgObject': {}, 'id': 'froot loops w milk', 'src': '/static/foodstim60/froot loops w milk.jpg', 'key': 'u', 'origWidth': 410, 'origHeight': 410, 'width': 410, 'height': 410, 'widthPercent': 0.45, 'rescaleHeight': False, 'trialN': 113, 'loaded': True, 'loadedTime': 2901, 'positionName': 'LEFT', 'positionCoords': [511.6, 335], 'bid': 4.94}, {'imgObject': {}, 'id': 'bagel and cc', 'src': '/static/foodstim60/bagel and cc.jpg', 'key': 'i', 'origWidth': 410, 'origHeight': 410, 'width': 410, 'height': 410, 'widthPercent': 0.45, 'rescaleHeight': False, 'trialN': 113, 'loaded': True, 'loadedTime': 2935, 'positionName': 'RIGHT', 'positionCoords': [998.4, 335], 'bid': 4.96}]",223927,1669830631361,froot loops w milk,bagel and cc,4.94,4.96,0.019999999999999574,froot loops w milk,1515,1531,1531,True,u,225958,2031,1669830633392,2031,HRV,HRV_0130,2022-11-30 17:52:51
114,"[{'imgObject': {}, 'id': 'olives', 'src': '/static/foodstim60/olives.jpg', 'key': 'u', 'origWidth': 410, 'origHeight': 410, 'width': 410, 'height': 410, 'widthPercent': 0.45, 'rescaleHeight': False, 'trialN': 114, 'loaded': True, 'loadedTime': 2915, 'positionName': 'LEFT', 'positionCoords': [511.6, 335], 'bid': 2.08}, {'imgObject': {}, 'id': 'granola w milk', 'src': '/static/foodstim60/granola w milk.jpg', 'key': 'i', 'origWidth': 410, 'origHeight': 410, 'width': 410, 'height': 410, 'widthPercent': 0.45, 'rescaleHeight': False, 'trialN': 114, 'loaded': True, 'loadedTime': 2917, 'positionName': 'RIGHT', 'positionCoords': [998.4, 335], 'bid': 4.7}]",225958,1669830633392,olives,granola w milk,2.08,4.7,2.62,granola w milk,1436,1446,1446,True,i,227910,1952,1669830635343,1951,HRV,HRV_0130,2022-11-30 17:52:51
115,"[{'imgObject': {}, 'id': 'luckycharms', 'src': '/static/foodstim60/luckycharms.jpg', 'key': 'u', 'origWidth': 410, 'origHeight': 409, 'width': 410, 'height': 409, 'widthPercent': 0.45, 'rescaleHeight': False, 'trialN': 115, 'loaded': True, 'loadedTime': 2918, 'positionName': 'LEFT', 'positionCoords': [511.6, 335.5], 'bid': 4.96}, {'imgObject': {}, 'id': 'raspberries', 'src': '/static/foodstim60/raspberries.jpg', 'key': 'i', 'origWidth': 411, 'origHeight': 411, 'width': 411, 'height': 411, 'widthPercent': 0.45, 'rescaleHeight': False, 'trialN': 115, 'loaded': True, 'loadedTime': 2937, 'positionName': 'RIGHT', 'positionCoords': [998.4, 334.5], 'bid': 3.89}]",227910,1669830635343,luckycharms,raspberries,4.96,3.89,-1.0699999999999998,luckycharms,937,947,945,True,u,229370,1460,1669830636804,1461,HRV,HRV_0130,2022-11-30 17:52:51
116,"[{'imgObject': {}, 'id': 'apple slices', 'src': '/static/foodstim60/apple slices.jpg', 'key': 'u', 'origWidth': 409, 'origHeight': 410, 'width': 409, 'height': 410, 'widthPercent': 0.45, 'rescaleHeight': False, 'trialN': 116, 'loaded': True, 'loadedTime': 2909, 'positionName': 'LEFT', 'positionCoords': [512.6, 335], 'bid': 9.36}, {'imgObject': {}, 'id': 'pear', 'src': '/static/foodstim60/pear.jpg', 'key': 'i', 'origWidth': 411, 'origHeight': 410, 'width': 411, 'height': 410, 'widthPercent': 0.45, 'rescaleHeight': False, 'trialN': 116, 'loaded': True, 'loadedTime': 2899, 'positionName': 'RIGHT', 'positionCoords': [998.4, 335], 'bid': 7.5}]",229370,1669830636804,apple slices,pear,9.36,7.5,-1.8599999999999994,apple slices,1353,1356,1356,True,u,231230,1860,1669830638664,1860,HRV,HRV_0130,2022-11-30 17:52:51
117,"[{'imgObject': {}, 'id': 'orange slices', 'src': '/static/foodstim60/orange slices.jpg', 'key': 'u', 'origWidth': 409, 'origHeight': 410, 'width': 409, 'height': 410, 'widthPercent': 0.45, 'rescaleHeight': False, 'trialN': 117, 'loaded': True, 'loadedTime': 2933, 'positionName': 'LEFT', 'positionCoords': [512.6, 335], 'bid': 7.390000000000001}, {'imgObject': {}, 'id': 'salmon', 'src': '/static/foodstim60/salmon.jpg', 'key': 'i', 'origWidth': 410, 'origHeight': 409, 'width': 410, 'height': 409, 'widthPercent': 0.45, 'rescaleHeight': False, 'trialN': 117, 'loaded': True, 'loadedTime': 2931, 'positionName': 'RIGHT', 'positionCoords': [998.4, 335.5], 'bid': 8.3}]",231230,1669830638664,orange slices,salmon,7.390000000000001,8.3,0.9100000000000001,salmon,1024,1027,1027,True,i,232768,1538,1669830640201,1537,HRV,HRV_0130,2022-11-30 17:52:51
