success,trial_type,trial_index,time_elapsed,internal_node_id,Block,TrialNumber,TrialTime,trialTimeDiff,FPS_avg,FPS_med,FPS_mode,TrialDur,winResizeTime,rt,block,button_pressed,MotCoh,MotDir,ColCoh,Color,ChoiceKey,Choice,Accuracy,RT,nFrames,FPS,PPD,missTrial,missTrialMsg,onsetDelay,fullScreenExitTime,canvCenter,TrialType,Score,BlockTrial,stimulus,button_labels,exp,subjectId,date
True,fullscreen,0,2512,0.0-0.0,0.0,1.0,,,,,,,,,,,,,,,,,,,,,,,,,,,,,,,,HRV,HRV_0130,2022-11-30 18:18:39
,wl-check-fps,1,7510,0.0-1.0,0.0,2.0,"[2915.7, 2927.6, 2944.3, 2961, 2977.6, 2994.2, 3010.9, 3027.7, 3044.3, 3060.9, 3077.6, 3094.2, 3110.9, 3127.6, 3144.4, 3161, 3177.6, 3194.3, 3211, 3227.6, 3244.2, 3260.9, 3277.6, 3294.3, 3310.9, 3327.6, 3344.3, 3361, 3377.6, 3394.2, 3411, 3427.6, 3444.3, 3460.9, 3477.6, 3494.3, 3511, 3527.6, 3544.3, 3561, 3577.7, 3594.2, 3610.9, 3627.7, 3644.2, 3660.9, 3677.5, 3694.2, 3710.9, 3727.6, 3744.2, 3760.9, 3777.6, 3794.3, 3811, 3827.6, 3844.3, 3861, 3877.6, 3894.3, 3910.9, 3927.6, 3944.2, 3960.9, 3977.6, 3994.2, 4010.9, 4027.6, 4044.2, 4061, 4077.6, 4094.3, 4111, 4127.6, 4144.3, 4161, 4177.6, 4194.2, 4210.9, 4227.6, 4244.2, 4261, 4277.6, 4294.2, 4310.9, 4327.6, 4344.3, 4361, 4377.7, 4394.2, 4411, 4427.7, 4444.3, 4460.9, 4477.6, 4494.2, 4511, 4527.7, 4544.3, 4560.9, 4577.6, 4594.2, 4610.9, 4627.5, 4644.3, 4660.9, 4677.6, 4694.3, 4711.1, 4727.6, 4744.3, 4761, 4777.6, 4794.2, 4810.9, 4827.5, 4844.3, 4861, 4877.6, 4894.3, 4910.9, 4927.6, 4944.3, 4960.9, 4977.6, 4994.2, 5010.9, 5027.6, 5044.3, 5060.9, 5077.6, 5094.4, 5110.9, 5127.5, 5144.4, 5160.9, 5177.6, 5194.3, 5210.8, 5227.6, 5244.3, 5260.9, 5277.6, 5294.3, 5310.9, 5327.6, 5344.3, 5360.9, 5377.6, 5394.3, 5410.9, 5427.6, 5444.4, 5460.9, 5477.6, 5494.3, 5511, 5527.7, 5544.3, 5561, 5577.6, 5594.3, 5611, 5627.7, 5644.3, 5660.9, 5677.7, 5694.3, 5711, 5727.6, 5744.3, 5760.8, 5777.6, 5794.3, 5810.9, 5827.5, 5844.3, 5860.9, 5877.6, 5894.2, 5911, 5927.7, 5944.3, 5960.9, 5977.5, 5994.4, 6011, 6027.6, 6044.4, 6060.9, 6077.7, 6094.2, 6110.9, 6127.7, 6144.2, 6161, 6177.7, 6194.2, 6211, 6227.5, 6244.3, 6260.9, 6277.6, 6294.3, 6310.9, 6327.6, 6344.3, 6360.9, 6377.6, 6394.3, 6410.9, 6427.6, 6444.2, 6461, 6477.6, 6494.3, 6510.9, 6527.6, 6544.3, 6561, 6577.7, 6594.3, 6611, 6627.6, 6644.2, 6660.9, 6677.6, 6694.3, 6710.9, 6727.6, 6744.2, 6761, 6777.6, 6794.2, 6810.9, 6827.5, 6844.2, 6861, 6877.6, 6894.2, 6910.9, 6927.6, 6944.3, 6960.9, 6977.6, 6994.3, 7010.9, 7027.7, 7044.3, 7061, 7077.6, 7094.2, 7111, 7127.6, 7144.3, 7161, 7177.6, 7194.2, 7210.9, 7227.6, 7244.3, 7260.9, 7277.7, 7294.2, 7310.9, 7327.6, 7344.3, 7361, 7377.6, 7394.2, 7411, 7427.5, 7444.3, 7461, 7477.6, 7494.2, 7511, 7527.6, 7544.2, 7560.9, 7577.6, 7594.3, 7610.9, 7627.5, 7644.3, 7660.9, 7677.6, 7694.1, 7710.9, 7727.6, 7744.3, 7760.9, 7777.6, 7794.3, 7810.9, 7827.6, 7844.2, 7860.9, 7877.6, 7894.2]","[1.7, 11.9, 16.7, 16.7, 16.6, 16.6, 16.7, 16.8, 16.6, 16.6, 16.7, 16.6, 16.7, 16.7, 16.8, 16.6, 16.6, 16.7, 16.7, 16.6, 16.6, 16.7, 16.7, 16.7, 16.6, 16.7, 16.7, 16.7, 16.6, 16.6, 16.8, 16.6, 16.7, 16.6, 16.7, 16.7, 16.7, 16.6, 16.7, 16.7, 16.7, 16.5, 16.7, 16.8, 16.5, 16.7, 16.6, 16.7, 16.7, 16.7, 16.6, 16.7, 16.7, 16.7, 16.7, 16.6, 16.7, 16.7, 16.6, 16.7, 16.6, 16.7, 16.6, 16.7, 16.7, 16.6, 16.7, 16.7, 16.6, 16.8, 16.6, 16.7, 16.7, 16.6, 16.7, 16.7, 16.6, 16.6, 16.7, 16.7, 16.6, 16.8, 16.6, 16.6, 16.7, 16.7, 16.7, 16.7, 16.7, 16.5, 16.8, 16.7, 16.6, 16.6, 16.7, 16.6, 16.8, 16.7, 16.6, 16.6, 16.7, 16.6, 16.7, 16.6, 16.8, 16.6, 16.7, 16.7, 16.8, 16.5, 16.7, 16.7, 16.6, 16.6, 16.7, 16.6, 16.8, 16.7, 16.6, 16.7, 16.6, 16.7, 16.7, 16.6, 16.7, 16.6, 16.7, 16.7, 16.7, 16.6, 16.7, 16.8, 16.5, 16.6, 16.9, 16.5, 16.7, 16.7, 16.5, 16.8, 16.7, 16.6, 16.7, 16.7, 16.6, 16.7, 16.7, 16.6, 16.7, 16.7, 16.6, 16.7, 16.8, 16.5, 16.7, 16.7, 16.7, 16.7, 16.6, 16.7, 16.6, 16.7, 16.7, 16.7, 16.6, 16.6, 16.8, 16.6, 16.7, 16.6, 16.7, 16.5, 16.8, 16.7, 16.6, 16.6, 16.8, 16.6, 16.7, 16.6, 16.8, 16.7, 16.6, 16.6, 16.6, 16.9, 16.6, 16.6, 16.8, 16.5, 16.8, 16.5, 16.7, 16.8, 16.5, 16.8, 16.7, 16.5, 16.8, 16.5, 16.8, 16.6, 16.7, 16.7, 16.6, 16.7, 16.7, 16.6, 16.7, 16.7, 16.6, 16.7, 16.6, 16.8, 16.6, 16.7, 16.6, 16.7, 16.7, 16.7, 16.7, 16.6, 16.7, 16.6, 16.6, 16.7, 16.7, 16.7, 16.6, 16.7, 16.6, 16.8, 16.6, 16.6, 16.7, 16.6, 16.7, 16.8, 16.6, 16.6, 16.7, 16.7, 16.7, 16.6, 16.7, 16.7, 16.6, 16.8, 16.6, 16.7, 16.6, 16.6, 16.8, 16.6, 16.7, 16.7, 16.6, 16.6, 16.7, 16.7, 16.7, 16.6, 16.8, 16.5, 16.7, 16.7, 16.7, 16.7, 16.6, 16.6, 16.8, 16.5, 16.8, 16.7, 16.6, 16.6, 16.8, 16.6, 16.6, 16.7, 16.7, 16.7, 16.6, 16.6, 16.8, 16.6, 16.7, 16.5, 16.8, 16.7, 16.7, 16.6, 16.7, 16.7, 16.6, 16.7, 16.6, 16.7, 16.7, 16.6]",60.0,60.0,60.0,4996.9,[],,,,,,,,,,,,,,,,,,,,,,,,,HRV,HRV_0130,2022-11-30 18:18:39
,wl-html-keyboard-response,2,49888,0.0-2.0-0.0,0.0,3.0,,,,,,,,40369.5,0.0,0,,,,,,,,,,,,,,,,,,,,,,HRV,HRV_0130,2022-11-30 18:18:39
,wl-rdm,3,56743,0.0-3.0-0.0,0.0,4.0,,,,,,,[],,,,0.0,0.0,87.9,0.0,u,0.0,True,1262.7999999523163,76.0,60.0,40.0,False,,3000.0,[],"[960, 540]",ColorTask_Demo,,,,,HRV,HRV_0130,2022-11-30 18:18:39
,wl-rdm,4,61610,0.0-3.0-1.0,0.0,5.0,,,,,,,[],,,,0.0,0.0,87.9,1.0,i,1.0,True,768.7000000476837,47.0,60.0,40.0,False,,2000.0,[],"[960, 540]",ColorTask_Demo,,,,,HRV,HRV_0130,2022-11-30 18:18:39
,wl-html-keyboard-response,5,70456,0.0-3.0-2.0,0.0,6.0,,,,,,,,6837.5,0.0,1,,,,,,,,,,,,,,,,,,,,,,HRV,HRV_0130,2022-11-30 18:18:39
,wl-html-keyboard-response,6,80816,0.0-4.0-0.0,0.0,7.0,,,,,,,,8354.299999952316,0.0,0,,,,,,,,,,,,,,,,,,,,,,HRV,HRV_0130,2022-11-30 18:18:39
,wl-html-keyboard-response,7,89976,0.0-5.0-0.0,0.0,8.0,,,,,,,,7155.0,0.0,0,,,,,,,,,,,,,,,,,,,,,,HRV,HRV_0130,2022-11-30 18:18:39
,wl-rdm,8,92643,0.0-6.0-0.0,0.0,9.0,,,,,,,[],,,,,,50.0,1.0,i,1.0,True,1235.3000000715256,75.0,60.0,40.0,False,,350.52872551394955,[],"[960, 540]",ColorTask,1.0,1.0,,,HRV,HRV_0130,2022-11-30 18:18:39
,wl-rdm,9,94676,0.0-6.1-0.1,0.0,10.0,,,,,,,[],,,,,,87.9,0.0,u,0.0,True,748.8999999761581,45.0,60.0,40.0,False,,210.0064802016107,[],"[960, 540]",ColorTask,2.0,2.0,,,HRV,HRV_0130,2022-11-30 18:18:39
,wl-rdm,10,96860,0.0-6.2-0.2,0.0,11.0,,,,,,,[],,,,,,53.2,0.0,i,1.0,False,755.1000000238419,46.0,60.0,40.0,False,,346.57513573843113,[],"[960, 540]",ColorTask,1.0,3.0,,,HRV,HRV_0130,2022-11-30 18:18:39
,wl-rdm,11,99110,0.0-6.3-0.3,0.0,12.0,,,,,,,[],,,,,,56.4,1.0,i,1.0,True,779.6000000238419,47.0,60.0,40.0,False,,398.49877723702195,[],"[960, 540]",ColorTask,2.0,4.0,,,HRV,HRV_0130,2022-11-30 18:18:39
,wl-rdm,12,101310,0.0-6.4-0.4,0.0,13.0,,,,,,,[],,,,,,56.4,0.0,i,1.0,False,797.3999999761581,48.0,60.0,40.0,False,,343.2966708717372,[],"[960, 540]",ColorTask,1.0,5.0,,,HRV,HRV_0130,2022-11-30 18:18:39
,wl-rdm,13,103493,0.0-6.5-0.5,0.0,14.0,,,,,,,[],,,,,,53.2,0.0,i,1.0,False,716.0,43.0,60.0,40.0,False,,387.51895754504267,[],"[960, 540]",ColorTask,0.0,6.0,,,HRV,HRV_0130,2022-11-30 18:18:39
,wl-rdm,14,105710,0.0-6.6-0.6,0.0,15.0,,,,,,,[],,,,,,53.2,1.0,i,1.0,True,857.3999999761581,52.0,60.0,40.0,False,,294.54325608444844,[],"[960, 540]",ColorTask,1.0,7.0,,,HRV,HRV_0130,2022-11-30 18:18:39
,wl-rdm,15,108026,0.0-6.7-0.7,0.0,16.0,,,,,,,[],,,,,,50.0,0.0,u,0.0,True,1041.2000000476837,63.0,60.0,40.0,False,,207.13753857356326,[],"[960, 540]",ColorTask,2.0,8.0,,,HRV,HRV_0130,2022-11-30 18:18:39
,wl-rdm,16,110060,0.0-6.8-0.8,0.0,17.0,,,,,,,[],,,,,,62.5,1.0,i,1.0,True,766.3999999761581,46.0,60.0,40.0,False,,207.11774342742612,[],"[960, 540]",ColorTask,3.0,9.0,,,HRV,HRV_0130,2022-11-30 18:18:39
,wl-rdm,17,112126,0.0-6.9-0.9,0.0,18.0,,,,,,,[],,,,,,53.2,0.0,u,0.0,True,745.3999999761581,45.0,60.0,40.0,False,,246.61086551456143,[],"[960, 540]",ColorTask,4.0,10.0,,,HRV,HRV_0130,2022-11-30 18:18:39
,wl-rdm,18,114093,0.0-6.10-0.10,0.0,19.0,,,,,,,[],,,,,,50.0,1.0,i,1.0,True,670.0,41.0,60.0,40.0,False,,221.74233718343535,[],"[960, 540]",ColorTask,5.0,11.0,,,HRV,HRV_0130,2022-11-30 18:18:39
,wl-rdm,19,116093,0.0-6.11-0.11,0.0,20.0,,,,,,,[],,,,,,53.2,0.0,i,1.0,False,663.2999999523163,40.0,60.0,40.0,False,,279.6622753297636,[],"[960, 540]",ColorTask,4.0,12.0,,,HRV,HRV_0130,2022-11-30 18:18:39
,wl-rdm,20,118026,0.0-6.12-0.12,0.0,21.0,,,,,,,[],,,,,,87.9,0.0,u,0.0,True,613.1000000238419,37.0,60.0,40.0,False,,253.61314833085405,[],"[960, 540]",ColorTask,5.0,13.0,,,HRV,HRV_0130,2022-11-30 18:18:39
,wl-rdm,21,120160,0.0-6.13-0.13,0.0,22.0,,,,,,,[],,,,,,62.5,0.0,i,1.0,False,844.0,51.0,60.0,40.0,False,,204.37283819430795,[],"[960, 540]",ColorTask,4.0,14.0,,,HRV,HRV_0130,2022-11-30 18:18:39
,wl-rdm,22,122426,0.0-6.14-0.14,0.0,23.0,,,,,,,[],,,,,,73.6,0.0,u,0.0,True,817.8999999761581,50.0,60.0,40.0,False,,359.7376642547714,[],"[960, 540]",ColorTask,5.0,15.0,,,HRV,HRV_0130,2022-11-30 18:18:39
,wl-rdm,23,124493,0.0-6.15-0.15,0.0,24.0,,,,,,,[],,,,,,87.9,1.0,i,1.0,True,732.6999999284744,44.0,60.0,40.0,False,,255.8177428893306,[],"[960, 540]",ColorTask,6.0,16.0,,,HRV,HRV_0130,2022-11-30 18:18:39
,wl-rdm,24,126943,0.0-6.16-0.16,0.0,25.0,,,,,,,[],,,,,,56.4,0.0,i,1.0,False,1110.8999999761581,67.0,60.0,40.0,False,,275.646797889112,[],"[960, 540]",ColorTask,5.0,17.0,,,HRV,HRV_0130,2022-11-30 18:18:39
,wl-rdm,25,129426,0.0-6.17-0.17,0.0,26.0,,,,,,,[],,,,,,56.4,1.0,u,0.0,False,1048.2000000476837,63.0,60.0,40.0,False,,367.1462773004755,[],"[960, 540]",ColorTask,4.0,18.0,,,HRV,HRV_0130,2022-11-30 18:18:39
,wl-rdm,26,131959,0.0-6.18-0.18,0.0,27.0,,,,,,,[],,,,,,56.4,0.0,i,1.0,False,1139.5,69.0,60.0,40.0,False,,305.4316879870428,[],"[960, 540]",ColorTask,3.0,19.0,,,HRV,HRV_0130,2022-11-30 18:18:39
,wl-rdm,27,134243,0.0-6.19-0.19,0.0,28.0,,,,,,,[],,,,,,53.2,1.0,i,1.0,True,866.0,52.0,60.0,40.0,False,,340.61018322526047,[],"[960, 540]",ColorTask,4.0,20.0,,,HRV,HRV_0130,2022-11-30 18:18:39
,wl-rdm,28,136426,0.0-6.20-0.20,0.0,29.0,,,,,,,[],,,,,,73.6,0.0,u,0.0,True,755.8999999761581,46.0,60.0,40.0,False,,341.6449029120704,[],"[960, 540]",ColorTask,5.0,21.0,,,HRV,HRV_0130,2022-11-30 18:18:39
,wl-rdm,29,138476,0.0-6.21-0.21,0.0,30.0,,,,,,,[],,,,,,87.9,0.0,u,0.0,True,734.6000000238419,45.0,60.0,40.0,False,,219.03634578889182,[],"[960, 540]",ColorTask,6.0,22.0,,,HRV,HRV_0130,2022-11-30 18:18:39
,wl-rdm,30,140709,0.0-6.22-0.22,0.0,31.0,,,,,,,[],,,,,,56.4,0.0,i,1.0,False,959.6999999284744,58.0,60.0,40.0,False,,215.38068153110527,[],"[960, 540]",ColorTask,5.0,23.0,,,HRV,HRV_0130,2022-11-30 18:18:39
,wl-rdm,31,143176,0.0-6.23-0.23,0.0,32.0,,,,,,,[],,,,,,50.0,1.0,i,1.0,True,1073.8999999761581,65.0,60.0,40.0,False,,306.6935129703845,[],"[960, 540]",ColorTask,6.0,24.0,,,HRV,HRV_0130,2022-11-30 18:18:39
,wl-rdm,32,145209,0.0-6.24-0.24,0.0,33.0,,,,,,,[],,,,,,87.9,1.0,i,1.0,True,717.1999999284744,44.0,60.0,40.0,False,,230.95645126262403,[],"[960, 540]",ColorTask,7.0,25.0,,,HRV,HRV_0130,2022-11-30 18:18:39
,wl-rdm,33,147343,0.0-6.25-0.25,0.0,34.0,,,,,,,[],,,,,,62.5,0.0,u,0.0,True,866.0,52.0,60.0,40.0,False,,207.7526565750182,[],"[960, 540]",ColorTask,8.0,26.0,,,HRV,HRV_0130,2022-11-30 18:18:39
,wl-rdm,34,149426,0.0-6.26-0.26,0.0,35.0,,,,,,,[],,,,,,62.5,1.0,i,1.0,True,769.8000000715256,47.0,60.0,40.0,False,,230.71149491341777,[],"[960, 540]",ColorTask,9.0,27.0,,,HRV,HRV_0130,2022-11-30 18:18:39
,wl-rdm,35,151843,0.0-6.27-0.27,0.0,36.0,,,,,,,[],,,,,,50.0,0.0,u,0.0,True,1076.7000000476837,65.0,60.0,40.0,False,,255.92602286371906,[],"[960, 540]",ColorTask,10.0,28.0,,,HRV,HRV_0130,2022-11-30 18:18:39
,wl-rdm,36,153926,0.0-6.28-0.28,0.0,37.0,,,,,,,[],,,,,,87.9,0.0,u,0.0,True,745.8999999761581,45.0,60.0,40.0,False,,270.71493812340407,[],"[960, 540]",ColorTask,11.0,29.0,,,HRV,HRV_0130,2022-11-30 18:18:39
,wl-rdm,37,156193,0.0-6.29-0.29,0.0,38.0,,,,,,,[],,,,,,73.6,1.0,i,1.0,True,820.3999999761581,50.0,60.0,40.0,False,,351.18063610654934,[],"[960, 540]",ColorTask,12.0,30.0,,,HRV,HRV_0130,2022-11-30 18:18:39
,wl-rdm,38,158543,0.0-6.30-0.30,0.0,39.0,,,,,,,[],,,,,,50.0,0.0,i,1.0,False,1026.7000000476837,62.0,60.0,40.0,False,,234.76413146738918,[],"[960, 540]",ColorTask,11.0,31.0,,,HRV,HRV_0130,2022-11-30 18:18:39
,wl-rdm,39,160660,0.0-6.31-0.31,0.0,40.0,,,,,,,[],,,,,,53.2,0.0,u,0.0,True,761.1000000238419,46.0,60.0,40.0,False,,279.04565879341243,[],"[960, 540]",ColorTask,12.0,32.0,,,HRV,HRV_0130,2022-11-30 18:18:39
,wl-rdm,40,162809,0.0-6.32-0.32,0.0,41.0,,,,,,,[],,,,,,87.9,0.0,u,0.0,True,835.3999999761581,51.0,60.0,40.0,False,,222.16665930579768,[],"[960, 540]",ColorTask,13.0,33.0,,,HRV,HRV_0130,2022-11-30 18:18:39
,wl-rdm,41,165010,0.0-6.33-0.33,0.0,42.0,,,,,,,[],,,,,,53.2,1.0,i,1.0,True,813.0,49.0,60.0,40.0,False,,308.4992370952817,[],"[960, 540]",ColorTask,14.0,34.0,,,HRV,HRV_0130,2022-11-30 18:18:39
,wl-rdm,42,167109,0.0-6.34-0.34,0.0,43.0,,,,,,,[],,,,,,87.9,0.0,u,0.0,True,775.3000000715256,47.0,60.0,40.0,False,,260.59320943763396,[],"[960, 540]",ColorTask,15.0,35.0,,,HRV,HRV_0130,2022-11-30 18:18:39
,wl-rdm,43,169359,0.0-6.35-0.35,0.0,44.0,,,,,,,[],,,,,,62.5,1.0,i,1.0,True,791.8000000715256,48.0,60.0,40.0,False,,376.5249892241724,[],"[960, 540]",ColorTask,16.0,36.0,,,HRV,HRV_0130,2022-11-30 18:18:39
,wl-rdm,44,171626,0.0-6.36-0.36,0.0,45.0,,,,,,,[],,,,,,56.4,1.0,i,1.0,True,969.8000000715256,59.0,60.0,40.0,False,,223.70101333185417,[],"[960, 540]",ColorTask,17.0,37.0,,,HRV,HRV_0130,2022-11-30 18:18:39
,wl-rdm,45,173959,0.0-6.37-0.37,0.0,46.0,,,,,,,[],,,,,,53.2,0.0,i,1.0,False,990.6000000238419,60.0,60.0,40.0,False,,250.31442103691919,[],"[960, 540]",ColorTask,16.0,38.0,,,HRV,HRV_0130,2022-11-30 18:18:39
,wl-rdm,46,176209,0.0-6.38-0.38,0.0,47.0,,,,,,,[],,,,,,73.6,1.0,i,1.0,True,855.6000000238419,52.0,60.0,40.0,False,,330.6580882704533,[],"[960, 540]",ColorTask,17.0,39.0,,,HRV,HRV_0130,2022-11-30 18:18:39
,wl-rdm,47,178459,0.0-6.39-0.39,0.0,48.0,,,,,,,[],,,,,,73.6,0.0,u,0.0,True,888.2999999523163,54.0,60.0,40.0,False,,276.8002395610992,[],"[960, 540]",ColorTask,18.0,40.0,,,HRV,HRV_0130,2022-11-30 18:18:39
,wl-rdm,48,180576,0.0-6.40-0.40,0.0,49.0,,,,,,,[],,,,,,87.9,0.0,u,0.0,True,763.8999999761581,46.0,60.0,40.0,False,,268.8152738262014,[],"[960, 540]",ColorTask,19.0,41.0,,,HRV,HRV_0130,2022-11-30 18:18:39
,wl-rdm,49,183176,0.0-6.41-0.41,0.0,50.0,,,,,,,[],,,,,,62.5,1.0,u,0.0,False,1256.5,76.0,60.0,40.0,False,,266.49281184056065,[],"[960, 540]",ColorTask,18.0,42.0,,,HRV,HRV_0130,2022-11-30 18:18:39
,wl-rdm,50,185659,0.0-6.42-0.42,0.0,51.0,,,,,,,[],,,,,,50.0,0.0,u,0.0,True,1152.0,70.0,60.0,40.0,False,,247.66391713785205,[],"[960, 540]",ColorTask,19.0,43.0,,,HRV,HRV_0130,2022-11-30 18:18:39
,wl-rdm,51,188226,0.0-6.43-0.43,0.0,52.0,,,,,,,[],,,,,,56.4,0.0,u,0.0,True,1212.7000000476837,73.0,60.0,40.0,False,,282.60669095684693,[],"[960, 540]",ColorTask,20.0,44.0,,,HRV,HRV_0130,2022-11-30 18:18:39
,wl-rdm,52,190359,0.0-6.44-0.44,0.0,53.0,,,,,,,[],,,,,,73.6,0.0,u,0.0,True,842.5,51.0,60.0,40.0,False,,204.9548200114672,[],"[960, 540]",ColorTask,21.0,45.0,,,HRV,HRV_0130,2022-11-30 18:18:39
,wl-rdm,53,192509,0.0-6.45-0.45,0.0,54.0,,,,,,,[],,,,,,73.6,1.0,i,1.0,True,804.3000000715256,49.0,60.0,40.0,False,,278.7855243963918,[],"[960, 540]",ColorTask,22.0,46.0,,,HRV,HRV_0130,2022-11-30 18:18:39
,wl-rdm,54,194643,0.0-6.46-0.46,0.0,55.0,,,,,,,[],,,,,,73.6,0.0,u,0.0,True,834.1999999284744,51.0,60.0,40.0,False,,207.31720101798436,[],"[960, 540]",ColorTask,23.0,47.0,,,HRV,HRV_0130,2022-11-30 18:18:39
,wl-rdm,55,196993,0.0-6.47-0.47,0.0,56.0,,,,,,,[],,,,,,56.4,1.0,i,1.0,True,940.9000000953674,57.0,60.0,40.0,False,,320.65714913739987,[],"[960, 540]",ColorTask,24.0,48.0,,,HRV,HRV_0130,2022-11-30 18:18:39
,wl-rdm,56,199276,0.0-6.48-0.48,0.0,57.0,,,,,,,[],,,,,,62.5,0.0,u,0.0,True,871.1000000238419,53.0,60.0,40.0,False,,337.5651646328645,[],"[960, 540]",ColorTask,25.0,49.0,,,HRV,HRV_0130,2022-11-30 18:18:39
,wl-rdm,57,201726,0.0-6.49-0.49,0.0,58.0,,,,,,,[],,,,,,56.4,0.0,i,1.0,False,1141.1000000238419,69.0,60.0,40.0,False,,229.38167980167782,[],"[960, 540]",ColorTask,24.0,50.0,,,HRV,HRV_0130,2022-11-30 18:18:39
,wl-rdm,58,204343,0.0-6.50-0.50,0.0,59.0,,,,,,,[],,,,,,56.4,1.0,u,0.0,False,1165.1999999284744,70.0,60.0,40.0,False,,374.4358782023075,[],"[960, 540]",ColorTask,23.0,51.0,,,HRV,HRV_0130,2022-11-30 18:18:39
,wl-rdm,59,206693,0.0-6.51-0.51,0.0,60.0,,,,,,,[],,,,,,50.0,1.0,i,1.0,True,976.9000000953674,59.0,60.0,40.0,False,,284.05248874945227,[],"[960, 540]",ColorTask,24.0,52.0,,,HRV,HRV_0130,2022-11-30 18:18:39
,wl-rdm,60,208759,0.0-6.52-0.52,0.0,61.0,,,,,,,[],,,,,,87.9,0.0,u,0.0,True,783.2000000476837,47.0,60.0,40.0,False,,203.1627091335706,[],"[960, 540]",ColorTask,25.0,53.0,,,HRV,HRV_0130,2022-11-30 18:18:39
,wl-rdm,61,211076,0.0-6.53-0.53,0.0,62.0,,,,,,,[],,,,,,73.6,1.0,i,1.0,True,884.0,54.0,60.0,40.0,False,,347.1745949963881,[],"[960, 540]",ColorTask,26.0,54.0,,,HRV,HRV_0130,2022-11-30 18:18:39
,wl-rdm,62,213359,0.0-6.54-0.54,0.0,63.0,,,,,,,[],,,,,,73.6,0.0,u,0.0,True,1014.7000000476837,61.0,60.0,40.0,False,,205.44523094165297,[],"[960, 540]",ColorTask,27.0,55.0,,,HRV,HRV_0130,2022-11-30 18:18:39
,wl-rdm,63,215826,0.0-6.55-0.55,0.0,64.0,,,,,,,[],,,,,,53.2,1.0,i,1.0,True,1038.7000000476837,63.0,60.0,40.0,False,,334.68091942138824,[],"[960, 540]",ColorTask,28.0,56.0,,,HRV,HRV_0130,2022-11-30 18:18:39
,wl-rdm,64,218242,0.0-6.56-0.56,0.0,65.0,,,,,,,[],,,,,,50.0,0.0,i,1.0,False,1072.4000000953674,65.0,60.0,40.0,False,,251.72436914300954,[],"[960, 540]",ColorTask,27.0,57.0,,,HRV,HRV_0130,2022-11-30 18:18:39
,wl-rdm,65,220542,0.0-6.57-0.57,0.0,66.0,,,,,,,[],,,,,,87.9,1.0,i,1.0,True,893.3999999761581,54.0,60.0,40.0,False,,320.1082593170405,[],"[960, 540]",ColorTask,28.0,58.0,,,HRV,HRV_0130,2022-11-30 18:18:39
,wl-rdm,66,223059,0.0-6.58-0.58,0.0,67.0,,,,,,,[],,,,,,56.4,0.0,i,1.0,False,1096.7000000476837,66.0,60.0,40.0,False,,338.68924314863295,[],"[960, 540]",ColorTask,27.0,59.0,,,HRV,HRV_0130,2022-11-30 18:18:39
,wl-rdm,67,225476,0.0-6.59-0.59,0.0,68.0,,,,,,,[],,,,,,56.4,1.0,u,0.0,False,1118.1999999284744,68.0,60.0,40.0,False,,207.28709702271203,[],"[960, 540]",ColorTask,26.0,60.0,,,HRV,HRV_0130,2022-11-30 18:18:39
,wl-rdm,68,228026,0.0-6.60-0.60,0.0,69.0,,,,,,,[],,,,,,53.2,0.0,u,0.0,True,1264.8000000715256,76.0,60.0,40.0,False,,229.59953399923745,[],"[960, 540]",ColorTask,27.0,61.0,,,HRV,HRV_0130,2022-11-30 18:18:39
,wl-rdm,69,230342,0.0-6.61-0.61,0.0,70.0,,,,,,,[],,,,,,56.4,1.0,i,1.0,True,941.6000000238419,57.0,60.0,40.0,False,,289.52986714789847,[],"[960, 540]",ColorTask,28.0,62.0,,,HRV,HRV_0130,2022-11-30 18:18:39
,wl-rdm,70,232726,0.0-6.62-0.62,0.0,71.0,,,,,,,[],,,,,,53.2,1.0,i,1.0,True,1037.5,63.0,60.0,40.0,False,,275.70988365152317,[],"[960, 540]",ColorTask,29.0,63.0,,,HRV,HRV_0130,2022-11-30 18:18:39
,wl-rdm,71,235142,0.0-6.63-0.63,0.0,72.0,,,,,,,[],,,,,,56.4,1.0,i,1.0,True,996.5,60.0,60.0,40.0,False,,345.5258590458718,[],"[960, 540]",ColorTask,30.0,64.0,,,HRV,HRV_0130,2022-11-30 18:18:39
,wl-rdm,72,237426,0.0-6.64-0.64,0.0,73.0,,,,,,,[],,,,,,62.5,1.0,i,1.0,True,932.2999999523163,56.0,60.0,40.0,False,,269.7750397016257,[],"[960, 540]",ColorTask,31.0,65.0,,,HRV,HRV_0130,2022-11-30 18:18:39
,wl-rdm,73,239826,0.0-6.65-0.65,0.0,74.0,,,,,,,[],,,,,,53.2,0.0,i,1.0,False,1091.9000000953674,66.0,60.0,40.0,False,,226.47193256236116,[],"[960, 540]",ColorTask,30.0,66.0,,,HRV,HRV_0130,2022-11-30 18:18:39
,wl-rdm,74,242076,0.0-6.66-0.66,0.0,75.0,,,,,,,[],,,,,,50.0,1.0,u,0.0,False,823.3999999761581,50.0,60.0,40.0,False,,365.27013580833153,[],"[960, 540]",ColorTask,29.0,67.0,,,HRV,HRV_0130,2022-11-30 18:18:39
,wl-rdm,75,244476,0.0-6.67-0.67,0.0,76.0,,,,,,,[],,,,,,50.0,1.0,i,1.0,True,1065.8999999761581,64.0,60.0,40.0,False,,253.98127090618846,[],"[960, 540]",ColorTask,30.0,68.0,,,HRV,HRV_0130,2022-11-30 18:18:39
,wl-rdm,76,246809,0.0-6.68-0.68,0.0,77.0,,,,,,,[],,,,,,62.5,0.0,u,0.0,True,1043.5999999046326,63.0,60.0,40.0,False,,200.65095558749746,[],"[960, 540]",ColorTask,31.0,69.0,,,HRV,HRV_0130,2022-11-30 18:18:39
,wl-rdm,77,248959,0.0-6.69-0.69,0.0,78.0,,,,,,,[],,,,,,87.9,0.0,u,0.0,True,752.6000000238419,46.0,60.0,40.0,False,,311.69687143049407,[],"[960, 540]",ColorTask,32.0,70.0,,,HRV,HRV_0130,2022-11-30 18:18:39
,wl-rdm,78,251192,0.0-6.70-0.70,0.0,79.0,,,,,,,[],,,,,,53.2,1.0,i,1.0,True,873.5999999046326,53.0,60.0,40.0,False,,279.2016471034656,[],"[960, 540]",ColorTask,33.0,71.0,,,HRV,HRV_0130,2022-11-30 18:18:39
,wl-rdm,79,253476,0.0-6.71-0.71,0.0,80.0,,,,,,,[],,,,,,62.5,0.0,i,1.0,False,865.2000000476837,52.0,60.0,40.0,False,,360.56585883991477,[],"[960, 540]",ColorTask,32.0,72.0,,,HRV,HRV_0130,2022-11-30 18:18:39
,wl-rdm,80,255476,0.0-6.72-0.72,0.0,81.0,,,,,,,[],,,,,,87.9,1.0,i,1.0,True,639.2000000476837,39.0,60.0,40.0,False,,268.25427722139295,[],"[960, 540]",ColorTask,33.0,73.0,,,HRV,HRV_0130,2022-11-30 18:18:39
,wl-rdm,81,257959,0.0-6.73-0.73,0.0,82.0,,,,,,,[],,,,,,50.0,1.0,i,1.0,True,1107.0,67.0,60.0,40.0,False,,302.07417468830033,[],"[960, 540]",ColorTask,34.0,74.0,,,HRV,HRV_0130,2022-11-30 18:18:39
,wl-rdm,82,260392,0.0-6.74-0.74,0.0,83.0,,,,,,,[],,,,,,53.2,0.0,i,1.0,False,1068.6999999284744,65.0,60.0,40.0,False,,282.37570956848344,[],"[960, 540]",ColorTask,33.0,75.0,,,HRV,HRV_0130,2022-11-30 18:18:39
,wl-rdm,83,262726,0.0-6.75-0.75,0.0,84.0,,,,,,,[],,,,,,62.5,1.0,i,1.0,True,885.0,54.0,60.0,40.0,False,,358.44675408268506,[],"[960, 540]",ColorTask,34.0,76.0,,,HRV,HRV_0130,2022-11-30 18:18:39
,wl-rdm,84,265059,0.0-6.76-0.76,0.0,85.0,,,,,,,[],,,,,,50.0,1.0,u,0.0,False,1009.3999998569489,61.0,60.0,40.0,False,,249.81193004918094,[],"[960, 540]",ColorTask,33.0,77.0,,,HRV,HRV_0130,2022-11-30 18:18:39
,wl-rdm,85,267309,0.0-6.77-0.77,0.0,86.0,,,,,,,[],,,,,,50.0,0.0,i,1.0,False,974.5,59.0,60.0,40.0,False,,200.75044449951776,[],"[960, 540]",ColorTask,32.0,78.0,,,HRV,HRV_0130,2022-11-30 18:18:39
,wl-rdm,86,269626,0.0-6.78-0.78,0.0,87.0,,,,,,,[],,,,,,73.6,0.0,u,0.0,True,896.3000000715256,54.0,60.0,40.0,False,,333.893010119495,[],"[960, 540]",ColorTask,33.0,79.0,,,HRV,HRV_0130,2022-11-30 18:18:39
,wl-rdm,87,271592,0.0-6.79-0.79,0.0,88.0,,,,,,,[],,,,,,87.9,1.0,i,1.0,True,675.2999999523163,41.0,60.0,40.0,False,,206.92701834653056,[],"[960, 540]",ColorTask,34.0,80.0,,,HRV,HRV_0130,2022-11-30 18:18:39
,wl-rdm,88,273476,0.0-6.80-0.80,0.0,89.0,,,,,,,[],,,,,,87.9,1.0,i,1.0,True,577.6000000238419,35.0,60.0,40.0,False,,232.82272248562083,[],"[960, 540]",ColorTask,35.0,81.0,,,HRV,HRV_0130,2022-11-30 18:18:39
,wl-rdm,89,275692,0.0-6.81-0.81,0.0,90.0,,,,,,,[],,,,,,53.2,1.0,u,0.0,False,820.6000000238419,50.0,60.0,40.0,False,,305.5295876817534,[],"[960, 540]",ColorTask,34.0,82.0,,,HRV,HRV_0130,2022-11-30 18:18:39
,wl-rdm,90,277809,0.0-6.82-0.82,0.0,91.0,,,,,,,[],,,,,,73.6,1.0,i,1.0,True,787.6000000238419,48.0,60.0,40.0,False,,239.05806387155752,[],"[960, 540]",ColorTask,35.0,83.0,,,HRV,HRV_0130,2022-11-30 18:18:39
,wl-rdm,91,280209,0.0-6.83-0.83,0.0,92.0,,,,,,,[],,,,,,62.5,1.0,i,1.0,True,960.2000000476837,58.0,60.0,40.0,False,,353.6353195697431,[],"[960, 540]",ColorTask,36.0,84.0,,,HRV,HRV_0130,2022-11-30 18:18:39
,wl-rdm,92,282926,0.0-6.84-0.84,0.0,93.0,,,,,,,[],,,,,,56.4,0.0,u,0.0,True,1337.2000000476837,81.0,60.0,40.0,False,,296.8129657034466,[],"[960, 540]",ColorTask,37.0,85.0,,,HRV,HRV_0130,2022-11-30 18:18:39
,wl-rdm,93,285009,0.0-6.85-0.85,0.0,94.0,,,,,,,[],,,,,,73.6,1.0,i,1.0,True,764.0,46.0,60.0,40.0,False,,254.25873986986414,[],"[960, 540]",ColorTask,38.0,86.0,,,HRV,HRV_0130,2022-11-30 18:18:39
,wl-rdm,94,287176,0.0-6.86-0.86,0.0,95.0,,,,,,,[],,,,,,62.5,0.0,u,0.0,True,817.8000000715256,50.0,60.0,40.0,False,,261.43961599709337,[],"[960, 540]",ColorTask,39.0,87.0,,,HRV,HRV_0130,2022-11-30 18:18:39
,wl-rdm,95,289409,0.0-6.87-0.87,0.0,96.0,,,,,,,[],,,,,,53.2,1.0,i,1.0,True,868.6000000238419,53.0,60.0,40.0,False,,274.0122501784461,[],"[960, 540]",ColorTask,40.0,88.0,,,HRV,HRV_0130,2022-11-30 18:18:39
,wl-rdm,96,291759,0.0-6.88-0.88,0.0,97.0,,,,,,,[],,,,,,50.0,1.0,i,1.0,True,901.4000000953674,55.0,60.0,40.0,False,,359.64859112749764,[],"[960, 540]",ColorTask,41.0,89.0,,,HRV,HRV_0130,2022-11-30 18:18:39
,wl-rdm,97,293842,0.0-6.89-0.89,0.0,98.0,,,,,,,[],,,,,,73.6,1.0,i,1.0,True,769.0,47.0,60.0,40.0,False,,232.65081211491403,[],"[960, 540]",ColorTask,42.0,90.0,,,HRV,HRV_0130,2022-11-30 18:18:39
,wl-rdm,98,295976,0.0-6.90-0.90,0.0,99.0,,,,,,,[],,,,,,73.6,1.0,i,1.0,True,723.9000000953674,44.0,60.0,40.0,False,,327.34193556435685,[],"[960, 540]",ColorTask,43.0,91.0,,,HRV,HRV_0130,2022-11-30 18:18:39
,wl-rdm,99,298542,0.0-6.91-0.91,0.0,100.0,,,,,,,[],,,,,,50.0,0.0,u,0.0,True,1175.0999999046326,71.0,60.0,40.0,False,,312.56885744172104,[],"[960, 540]",ColorTask,44.0,92.0,,,HRV,HRV_0130,2022-11-30 18:18:39
,wl-rdm,100,300976,0.0-6.92-0.92,0.0,101.0,,,,,,,[],,,,,,50.0,0.0,u,0.0,True,1036.1999999284744,63.0,60.0,40.0,False,,300.2139902649588,[],"[960, 540]",ColorTask,45.0,93.0,,,HRV,HRV_0130,2022-11-30 18:18:39
,wl-rdm,101,303009,0.0-6.93-0.93,0.0,102.0,,,,,,,[],,,,,,62.5,0.0,u,0.0,True,720.2999999523163,44.0,60.0,40.0,False,,226.0941919754732,[],"[960, 540]",ColorTask,46.0,94.0,,,HRV,HRV_0130,2022-11-30 18:18:39
,wl-rdm,102,305209,0.0-6.94-0.94,0.0,103.0,,,,,,,[],,,,,,73.6,0.0,u,0.0,True,796.1000000238419,48.0,60.0,40.0,False,,331.75366314928806,[],"[960, 540]",ColorTask,47.0,95.0,,,HRV,HRV_0130,2022-11-30 18:18:39
,wl-rdm,103,307426,0.0-6.95-0.95,0.0,104.0,,,,,,,[],,,,,,53.2,1.0,i,1.0,True,880.4000000953674,53.0,60.0,40.0,False,,279.99799273175955,[],"[960, 540]",ColorTask,48.0,96.0,,,HRV,HRV_0130,2022-11-30 18:18:39
,wl-rdm,104,309492,0.0-6.96-0.96,0.0,105.0,,,,,,,[],,,,,,73.6,1.0,i,1.0,True,725.5,44.0,60.0,40.0,False,,272.69185843615327,[],"[960, 540]",ColorTask,49.0,97.0,,,HRV,HRV_0130,2022-11-30 18:18:39
,wl-rdm,105,311509,0.0-6.97-0.97,0.0,106.0,,,,,,,[],,,,,,87.9,1.0,i,1.0,True,672.3999999761581,41.0,60.0,40.0,False,,271.7639400872545,[],"[960, 540]",ColorTask,50.0,98.0,,,HRV,HRV_0130,2022-11-30 18:18:39
,wl-rdm,106,313642,0.0-6.98-0.98,0.0,107.0,,,,,,,[],,,,,,62.5,1.0,i,1.0,True,822.2999999523163,50.0,60.0,40.0,False,,247.51597991397526,[],"[960, 540]",ColorTask,51.0,99.0,,,HRV,HRV_0130,2022-11-30 18:18:39
,wl-rdm,107,315676,0.0-6.99-0.99,0.0,108.0,,,,,,,[],,,,,,62.5,0.0,u,0.0,True,723.8999999761581,44.0,60.0,40.0,False,,230.4112229108093,[],"[960, 540]",ColorTask,52.0,100.0,,,HRV,HRV_0130,2022-11-30 18:18:39
,wl-rdm,108,318009,0.0-6.100-0.100,0.0,109.0,,,,,,,[],,,,,,56.4,0.0,u,0.0,True,980.2999999523163,59.0,60.0,40.0,False,,285.102062019534,[],"[960, 540]",ColorTask,53.0,101.0,,,HRV,HRV_0130,2022-11-30 18:18:39
,wl-rdm,109,319992,0.0-6.101-0.101,0.0,110.0,,,,,,,[],,,,,,87.9,1.0,i,1.0,True,626.2000000476837,38.0,60.0,40.0,False,,279.0737162260134,[],"[960, 540]",ColorTask,54.0,102.0,,,HRV,HRV_0130,2022-11-30 18:18:39
,wl-rdm,110,322075,0.0-6.102-0.102,0.0,111.0,,,,,,,[],,,,,,62.5,0.0,u,0.0,True,686.1999999284744,42.0,60.0,40.0,False,,313.09099837782713,[],"[960, 540]",ColorTask,55.0,103.0,,,HRV,HRV_0130,2022-11-30 18:18:39
,wl-rdm,111,324092,0.0-6.103-0.103,0.0,112.0,,,,,,,[],,,,,,62.5,1.0,i,1.0,True,649.8999999761581,39.0,60.0,40.0,False,,297.46819534360907,[],"[960, 540]",ColorTask,56.0,104.0,,,HRV,HRV_0130,2022-11-30 18:18:39
,wl-rdm,112,326375,0.0-6.104-0.104,0.0,113.0,,,,,,,[],,,,,,50.0,0.0,u,0.0,True,905.9999998807907,55.0,60.0,40.0,False,,289.91860812550726,[],"[960, 540]",ColorTask,57.0,105.0,,,HRV,HRV_0130,2022-11-30 18:18:39
,wl-rdm,113,328609,0.0-6.105-0.105,0.0,114.0,,,,,,,[],,,,,,73.6,0.0,u,0.0,True,772.5,47.0,60.0,40.0,False,,379.75802684582993,[],"[960, 540]",ColorTask,58.0,106.0,,,HRV,HRV_0130,2022-11-30 18:18:39
,wl-rdm,114,330742,0.0-6.106-0.106,0.0,115.0,,,,,,,[],,,,,,87.9,1.0,i,1.0,True,709.7999999523163,43.0,60.0,40.0,False,,362.50667987322413,[],"[960, 540]",ColorTask,59.0,107.0,,,HRV,HRV_0130,2022-11-30 18:18:39
,wl-rdm,115,332892,0.0-6.107-0.107,0.0,116.0,,,,,,,[],,,,,,56.4,1.0,u,0.0,False,856.3999999761581,52.0,60.0,40.0,False,,207.81465126088435,[],"[960, 540]",ColorTask,58.0,108.0,,,HRV,HRV_0130,2022-11-30 18:18:39
,wl-html-keyboard-response,116,341207,0.0-7.0-0.0,1.0,117.0,,,,,,,,6308.400000095367,1.0,0,,,,,,,,,,,,,,,,,,,,,,HRV,HRV_0130,2022-11-30 18:18:39
,wl-rdm,117,343492,0.0-8.0-0.0,1.0,118.0,,,,,,,[],,,,,,56.4,1.0,i,1.0,True,805.7999999523163,49.0,60.0,40.0,False,,398.14317255078896,[],"[960, 540]",ColorTask,59.0,1.0,,,HRV,HRV_0130,2022-11-30 18:18:39
,wl-rdm,118,345842,0.0-8.1-0.1,1.0,119.0,,,,,,,[],,,,,,62.5,0.0,u,0.0,True,1021.3999999761581,62.0,60.0,40.0,False,,246.41128277244965,[],"[960, 540]",ColorTask,60.0,2.0,,,HRV,HRV_0130,2022-11-30 18:18:39
,wl-rdm,119,348159,0.0-8.2-0.2,1.0,120.0,,,,,,,[],,,,,,73.6,0.0,u,0.0,True,932.8999999761581,56.0,60.0,40.0,False,,333.2974584982489,[],"[960, 540]",ColorTask,61.0,3.0,,,HRV,HRV_0130,2022-11-30 18:18:39
,wl-rdm,120,350442,0.0-8.3-0.3,1.0,121.0,,,,,,,[],,,,,,50.0,0.0,i,1.0,False,961.5,58.0,60.0,40.0,False,,239.5703722502864,[],"[960, 540]",ColorTask,60.0,4.0,,,HRV,HRV_0130,2022-11-30 18:18:39
,wl-rdm,121,352575,0.0-8.4-0.4,1.0,122.0,,,,,,,[],,,,,,73.6,0.0,u,0.0,True,797.9000000953674,48.0,60.0,40.0,False,,257.6015067046137,[],"[960, 540]",ColorTask,61.0,5.0,,,HRV,HRV_0130,2022-11-30 18:18:39
,wl-rdm,122,354725,0.0-8.5-0.5,1.0,123.0,,,,,,,[],,,,,,62.5,1.0,i,1.0,True,863.1000000238419,52.0,60.0,40.0,False,,222.59943822865512,[],"[960, 540]",ColorTask,62.0,6.0,,,HRV,HRV_0130,2022-11-30 18:18:39
,wl-rdm,123,357158,0.0-8.6-0.6,1.0,124.0,,,,,,,[],,,,,,62.5,0.0,u,0.0,True,1034.4000000953674,63.0,60.0,40.0,False,,303.5649200967704,[],"[960, 540]",ColorTask,63.0,7.0,,,HRV,HRV_0130,2022-11-30 18:18:39
,wl-rdm,124,359659,0.0-8.7-0.7,1.0,125.0,,,,,,,[],,,,,,87.9,0.0,i,1.0,False,1055.799999833107,64.0,60.0,40.0,False,,356.66636641162734,[],"[960, 540]",ColorTask,62.0,8.0,,,HRV,HRV_0130,2022-11-30 18:18:39
,wl-rdm,125,361759,0.0-8.8-0.8,1.0,126.0,,,,,,,[],,,,,,73.6,0.0,u,0.0,True,811.3999999761581,49.0,60.0,40.0,False,,210.86346615037894,[],"[960, 540]",ColorTask,63.0,9.0,,,HRV,HRV_0130,2022-11-30 18:18:39
,wl-rdm,126,364325,0.0-8.9-0.9,1.0,127.0,,,,,,,[],,,,,,62.5,1.0,i,1.0,True,1147.3999999761581,69.0,60.0,40.0,False,,348.6980021117927,[],"[960, 540]",ColorTask,64.0,10.0,,,HRV,HRV_0130,2022-11-30 18:18:39
,wl-rdm,127,366825,0.0-8.10-0.10,1.0,128.0,,,,,,,[],,,,,,73.6,1.0,i,1.0,True,1042.7000000476837,63.0,60.0,40.0,False,,374.2704093818786,[],"[960, 540]",ColorTask,65.0,11.0,,,HRV,HRV_0130,2022-11-30 18:18:39
,wl-rdm,128,369208,0.0-8.11-0.11,1.0,129.0,,,,,,,[],,,,,,73.6,1.0,i,1.0,True,985.8999999761581,60.0,60.0,40.0,False,,314.19177033303913,[],"[960, 540]",ColorTask,66.0,12.0,,,HRV,HRV_0130,2022-11-30 18:18:39
,wl-rdm,129,371608,0.0-8.12-0.12,1.0,130.0,,,,,,,[],,,,,,62.5,0.0,u,0.0,True,1106.7999999523163,67.0,60.0,40.0,False,,216.1901021734839,[],"[960, 540]",ColorTask,67.0,13.0,,,HRV,HRV_0130,2022-11-30 18:18:39
,wl-rdm,130,374009,0.0-8.13-0.13,1.0,131.0,,,,,,,[],,,,,,53.2,0.0,i,1.0,False,933.5999999046326,57.0,60.0,40.0,False,,379.16991772684196,[],"[960, 540]",ColorTask,66.0,14.0,,,HRV,HRV_0130,2022-11-30 18:18:39
,wl-rdm,131,376358,0.0-8.14-0.14,1.0,132.0,,,,,,,[],,,,,,73.6,1.0,i,1.0,True,989.2999999523163,60.0,60.0,40.0,False,,298.44387807016017,[],"[960, 540]",ColorTask,67.0,15.0,,,HRV,HRV_0130,2022-11-30 18:18:39
,wl-rdm,132,378808,0.0-8.15-0.15,1.0,133.0,,,,,,,[],,,,,,53.2,0.0,u,0.0,True,1017.2999999523163,62.0,60.0,40.0,False,,360.938881783051,[],"[960, 540]",ColorTask,68.0,16.0,,,HRV,HRV_0130,2022-11-30 18:18:39
,wl-rdm,133,381075,0.0-8.16-0.16,1.0,134.0,,,,,,,[],,,,,,53.2,1.0,u,0.0,False,894.7000000476837,54.0,60.0,40.0,False,,287.6251615640499,[],"[960, 540]",ColorTask,67.0,17.0,,,HRV,HRV_0130,2022-11-30 18:18:39
,wl-rdm,134,383458,0.0-8.17-0.17,1.0,135.0,,,,,,,[],,,,,,50.0,1.0,u,0.0,False,909.0,55.0,60.0,40.0,False,,391.1586913761652,[],"[960, 540]",ColorTask,66.0,18.0,,,HRV,HRV_0130,2022-11-30 18:18:39
,wl-rdm,135,385808,0.0-8.18-0.18,1.0,136.0,,,,,,,[],,,,,,50.0,0.0,u,0.0,True,957.7999999523163,58.0,60.0,40.0,False,,306.0293259665319,[],"[960, 540]",ColorTask,67.0,19.0,,,HRV,HRV_0130,2022-11-30 18:18:39
,wl-rdm,136,388025,0.0-8.19-0.19,1.0,137.0,,,,,,,[],,,,,,87.9,1.0,i,1.0,True,871.3999999761581,53.0,60.0,40.0,False,,281.56676459687225,[],"[960, 540]",ColorTask,68.0,20.0,,,HRV,HRV_0130,2022-11-30 18:18:39
,wl-rdm,137,390458,0.0-8.20-0.20,1.0,138.0,,,,,,,[],,,,,,53.2,1.0,u,0.0,False,1077.7999999523163,65.0,60.0,40.0,False,,286.6322595309332,[],"[960, 540]",ColorTask,67.0,21.0,,,HRV,HRV_0130,2022-11-30 18:18:39
,wl-rdm,138,392908,0.0-8.21-0.21,1.0,139.0,,,,,,,[],,,,,,73.6,0.0,u,0.0,True,1026.4000000953674,62.0,60.0,40.0,False,,349.52235956612594,[],"[960, 540]",ColorTask,68.0,22.0,,,HRV,HRV_0130,2022-11-30 18:18:39
,wl-rdm,139,395358,0.0-8.22-0.22,1.0,140.0,,,,,,,[],,,,,,50.0,1.0,u,0.0,False,1067.8000000715256,65.0,60.0,40.0,False,,293.00770534158147,[],"[960, 540]",ColorTask,67.0,23.0,,,HRV,HRV_0130,2022-11-30 18:18:39
,wl-rdm,140,397725,0.0-8.23-0.23,1.0,141.0,,,,,,,[],,,,,,62.5,0.0,u,0.0,True,1090.0,66.0,60.0,40.0,False,,212.25232441453343,[],"[960, 540]",ColorTask,68.0,24.0,,,HRV,HRV_0130,2022-11-30 18:18:39
,wl-rdm,141,400208,0.0-8.24-0.24,1.0,142.0,,,,,,,[],,,,,,62.5,1.0,i,1.0,True,1068.1000000238419,65.0,60.0,40.0,False,,323.20458953608625,[],"[960, 540]",ColorTask,69.0,25.0,,,HRV,HRV_0130,2022-11-30 18:18:39
,wl-rdm,142,402608,0.0-8.25-0.25,1.0,143.0,,,,,,,[],,,,,,53.2,1.0,i,1.0,True,1017.7000000476837,62.0,60.0,40.0,False,,287.4341730555838,[],"[960, 540]",ColorTask,70.0,26.0,,,HRV,HRV_0130,2022-11-30 18:18:39
,wl-rdm,143,405175,0.0-8.26-0.26,1.0,144.0,,,,,,,[],,,,,,73.6,1.0,i,1.0,True,1159.6000000238419,70.0,60.0,40.0,False,,338.77463645398467,[],"[960, 540]",ColorTask,71.0,27.0,,,HRV,HRV_0130,2022-11-30 18:18:39
,wl-rdm,144,407275,0.0-8.27-0.27,1.0,145.0,,,,,,,[],,,,,,87.9,1.0,i,1.0,True,758.2999999523163,46.0,60.0,40.0,False,,256.0761101607373,[],"[960, 540]",ColorTask,72.0,28.0,,,HRV,HRV_0130,2022-11-30 18:18:39
,wl-rdm,145,409658,0.0-8.28-0.28,1.0,146.0,,,,,,,[],,,,,,50.0,1.0,u,0.0,False,1029.0,62.0,60.0,40.0,False,,289.28187377770524,[],"[960, 540]",ColorTask,71.0,29.0,,,HRV,HRV_0130,2022-11-30 18:18:39
,wl-rdm,146,411675,0.0-8.29-0.29,1.0,147.0,,,,,,,[],,,,,,87.9,1.0,i,1.0,True,570.2000000476837,35.0,60.0,40.0,False,,354.3397581812196,[],"[960, 540]",ColorTask,72.0,30.0,,,HRV,HRV_0130,2022-11-30 18:18:39
,wl-rdm,147,413708,0.0-8.30-0.30,1.0,148.0,,,,,,,[],,,,,,50.0,1.0,u,0.0,False,736.2999999523163,45.0,60.0,40.0,False,,213.8142041202925,[],"[960, 540]",ColorTask,71.0,31.0,,,HRV,HRV_0130,2022-11-30 18:18:39
,wl-rdm,148,415725,0.0-8.31-0.31,1.0,149.0,,,,,,,[],,,,,,73.6,1.0,i,1.0,True,707.8999999761581,43.0,60.0,40.0,False,,246.53854654482743,[],"[960, 540]",ColorTask,72.0,32.0,,,HRV,HRV_0130,2022-11-30 18:18:39
,wl-rdm,149,417808,0.0-8.32-0.32,1.0,150.0,,,,,,,[],,,,,,73.6,0.0,u,0.0,True,744.2000000476837,45.0,60.0,40.0,False,,262.5125961842897,[],"[960, 540]",ColorTask,73.0,33.0,,,HRV,HRV_0130,2022-11-30 18:18:39
,wl-rdm,150,420142,0.0-8.33-0.33,1.0,151.0,,,,,,,[],,,,,,50.0,0.0,u,0.0,True,1009.2000000476837,61.0,60.0,40.0,False,,260.2164506940723,[],"[960, 540]",ColorTask,74.0,34.0,,,HRV,HRV_0130,2022-11-30 18:18:39
,wl-rdm,151,422192,0.0-8.34-0.34,1.0,152.0,,,,,,,[],,,,,,87.9,0.0,u,0.0,True,618.0999999046326,38.0,60.0,40.0,False,,356.9210209511728,[],"[960, 540]",ColorTask,75.0,35.0,,,HRV,HRV_0130,2022-11-30 18:18:39
,wl-rdm,152,424375,0.0-8.35-0.35,1.0,153.0,,,,,,,[],,,,,,53.2,1.0,i,1.0,True,817.6000000238419,50.0,60.0,40.0,False,,272.1849289211693,[],"[960, 540]",ColorTask,76.0,36.0,,,HRV,HRV_0130,2022-11-30 18:18:39
,wl-rdm,153,426408,0.0-8.36-0.36,1.0,154.0,,,,,,,[],,,,,,87.9,1.0,i,1.0,True,742.1000000238419,45.0,60.0,40.0,False,,211.78748670479712,[],"[960, 540]",ColorTask,77.0,37.0,,,HRV,HRV_0130,2022-11-30 18:18:39
,wl-rdm,154,428558,0.0-8.37-0.37,1.0,155.0,,,,,,,[],,,,,,53.2,1.0,u,0.0,False,837.2999999523163,51.0,60.0,40.0,False,,222.80084794047133,[],"[960, 540]",ColorTask,76.0,38.0,,,HRV,HRV_0130,2022-11-30 18:18:39
,wl-rdm,155,430958,0.0-8.38-0.38,1.0,156.0,,,,,,,[],,,,,,50.0,0.0,u,0.0,True,985.2999999523163,60.0,60.0,40.0,False,,318.202353258721,[],"[960, 540]",ColorTask,77.0,39.0,,,HRV,HRV_0130,2022-11-30 18:18:39
,wl-rdm,156,433091,0.0-8.39-0.39,1.0,157.0,,,,,,,[],,,,,,87.9,0.0,u,0.0,True,701.2999999523163,43.0,60.0,40.0,False,,348.0107762012315,[],"[960, 540]",ColorTask,78.0,40.0,,,HRV,HRV_0130,2022-11-30 18:18:39
,wl-rdm,157,435491,0.0-8.40-0.40,1.0,158.0,,,,,,,[],,,,,,50.0,0.0,u,0.0,True,1034.8999999761581,63.0,60.0,40.0,False,,288.5566053812342,[],"[960, 540]",ColorTask,79.0,41.0,,,HRV,HRV_0130,2022-11-30 18:18:39
,wl-rdm,158,437875,0.0-8.41-0.41,1.0,159.0,,,,,,,[],,,,,,56.4,0.0,u,0.0,True,980.5,59.0,60.0,40.0,False,,344.52119195492907,[],"[960, 540]",ColorTask,80.0,42.0,,,HRV,HRV_0130,2022-11-30 18:18:39
,wl-rdm,159,440391,0.0-8.42-0.42,1.0,160.0,,,,,,,[],,,,,,62.5,0.0,u,0.0,True,1127.3999999761581,68.0,60.0,40.0,False,,301.81796856905976,[],"[960, 540]",ColorTask,81.0,43.0,,,HRV,HRV_0130,2022-11-30 18:18:39
,wl-rdm,160,442775,0.0-8.43-0.43,1.0,161.0,,,,,,,[],,,,,,56.4,0.0,u,0.0,True,1084.2999999523163,66.0,60.0,40.0,False,,208.57031101185376,[],"[960, 540]",ColorTask,82.0,44.0,,,HRV,HRV_0130,2022-11-30 18:18:39
,wl-rdm,161,445275,0.0-8.44-0.44,1.0,162.0,,,,,,,[],,,,,,56.4,0.0,u,0.0,True,1105.3999999761581,67.0,60.0,40.0,False,,300.69306440164837,[],"[960, 540]",ColorTask,83.0,45.0,,,HRV,HRV_0130,2022-11-30 18:18:39
,wl-rdm,162,447475,0.0-8.45-0.45,1.0,163.0,,,,,,,[],,,,,,53.2,1.0,i,1.0,True,889.7999999523163,54.0,60.0,40.0,False,,216.8701233293533,[],"[960, 540]",ColorTask,84.0,46.0,,,HRV,HRV_0130,2022-11-30 18:18:39
,wl-rdm,163,450008,0.0-8.46-0.46,1.0,164.0,,,,,,,[],,,,,,73.6,1.0,u,0.0,False,1034.8000000715256,63.0,60.0,40.0,False,,399.8736320849508,[],"[960, 540]",ColorTask,83.0,47.0,,,HRV,HRV_0130,2022-11-30 18:18:39
,wl-rdm,164,452325,0.0-8.47-0.47,1.0,165.0,,,,,,,[],,,,,,56.4,1.0,i,1.0,True,922.3999999761581,56.0,60.0,40.0,False,,307.3439675586142,[],"[960, 540]",ColorTask,84.0,48.0,,,HRV,HRV_0130,2022-11-30 18:18:39
,wl-rdm,165,454608,0.0-8.48-0.48,1.0,166.0,,,,,,,[],,,,,,56.4,0.0,u,0.0,True,926.1000000238419,56.0,60.0,40.0,False,,285.70513917862155,[],"[960, 540]",ColorTask,85.0,49.0,,,HRV,HRV_0130,2022-11-30 18:18:39
,wl-rdm,166,456842,0.0-8.49-0.49,1.0,167.0,,,,,,,[],,,,,,56.4,0.0,u,0.0,True,928.5,56.0,60.0,40.0,False,,231.8776882138551,[],"[960, 540]",ColorTask,86.0,50.0,,,HRV,HRV_0130,2022-11-30 18:18:39
,wl-rdm,167,459158,0.0-8.50-0.50,1.0,168.0,,,,,,,[],,,,,,87.9,1.0,i,1.0,True,940.8999999761581,57.0,60.0,40.0,False,,303.11923392784286,[],"[960, 540]",ColorTask,87.0,51.0,,,HRV,HRV_0130,2022-11-30 18:18:39
,wl-rdm,168,461475,0.0-8.51-0.51,1.0,169.0,,,,,,,[],,,,,,56.4,0.0,u,0.0,True,953.0,58.0,60.0,40.0,False,,273.0529717868886,[],"[960, 540]",ColorTask,88.0,52.0,,,HRV,HRV_0130,2022-11-30 18:18:39
,wl-rdm,169,463858,0.0-8.52-0.52,1.0,170.0,,,,,,,[],,,,,,62.5,1.0,i,1.0,True,922.2999999523163,56.0,60.0,40.0,False,,371.33139511753205,[],"[960, 540]",ColorTask,89.0,53.0,,,HRV,HRV_0130,2022-11-30 18:18:39
,wl-rdm,170,466192,0.0-8.53-0.53,1.0,171.0,,,,,,,[],,,,,,50.0,1.0,i,1.0,True,913.7000000476837,55.0,60.0,40.0,False,,346.55527287318046,[],"[960, 540]",ColorTask,90.0,54.0,,,HRV,HRV_0130,2022-11-30 18:18:39
,wl-rdm,171,468358,0.0-8.54-0.54,1.0,172.0,,,,,,,[],,,,,,73.6,1.0,i,1.0,True,824.1000000238419,50.0,60.0,40.0,False,,251.4216573666782,[],"[960, 540]",ColorTask,91.0,55.0,,,HRV,HRV_0130,2022-11-30 18:18:39
,wl-rdm,172,470708,0.0-8.55-0.55,1.0,173.0,,,,,,,[],,,,,,53.2,1.0,u,0.0,False,1030.1000000238419,62.0,60.0,40.0,False,,263.6077545638832,[],"[960, 540]",ColorTask,90.0,56.0,,,HRV,HRV_0130,2022-11-30 18:18:39
,wl-rdm,173,472992,0.0-8.56-0.56,1.0,174.0,,,,,,,[],,,,,,56.4,0.0,i,1.0,False,862.0,52.0,60.0,40.0,False,,344.58059592440065,[],"[960, 540]",ColorTask,89.0,57.0,,,HRV,HRV_0130,2022-11-30 18:18:39
,wl-rdm,174,475208,0.0-8.57-0.57,1.0,175.0,,,,,,,[],,,,,,53.2,0.0,i,1.0,False,849.6000000238419,51.0,60.0,40.0,False,,286.90891811387814,[],"[960, 540]",ColorTask,88.0,58.0,,,HRV,HRV_0130,2022-11-30 18:18:39
,wl-rdm,175,477458,0.0-8.58-0.58,1.0,176.0,,,,,,,[],,,,,,56.4,0.0,u,0.0,True,881.0,53.0,60.0,40.0,False,,308.3796345548393,[],"[960, 540]",ColorTask,89.0,59.0,,,HRV,HRV_0130,2022-11-30 18:18:39
,wl-rdm,176,479442,0.0-8.59-0.59,1.0,177.0,,,,,,,[],,,,,,73.6,0.0,u,0.0,True,626.0,38.0,60.0,40.0,False,,285.513183324438,[],"[960, 540]",ColorTask,90.0,60.0,,,HRV,HRV_0130,2022-11-30 18:18:39
,wl-rdm,177,481492,0.0-8.60-0.60,1.0,178.0,,,,,,,[],,,,,,62.5,0.0,u,0.0,True,668.4000000953674,41.0,60.0,40.0,False,,284.18019820835417,[],"[960, 540]",ColorTask,91.0,61.0,,,HRV,HRV_0130,2022-11-30 18:18:39
,wl-rdm,178,483708,0.0-8.61-0.61,1.0,179.0,,,,,,,[],,,,,,62.5,1.0,i,1.0,True,823.6000000238419,50.0,60.0,40.0,False,,311.039985371696,[],"[960, 540]",ColorTask,92.0,62.0,,,HRV,HRV_0130,2022-11-30 18:18:39
,wl-rdm,179,485875,0.0-8.62-0.62,1.0,180.0,,,,,,,[],,,,,,62.5,0.0,u,0.0,True,846.0,51.0,60.0,40.0,False,,248.36617869539467,[],"[960, 540]",ColorTask,93.0,63.0,,,HRV,HRV_0130,2022-11-30 18:18:39
,wl-rdm,180,488092,0.0-8.63-0.63,1.0,181.0,,,,,,,[],,,,,,73.6,0.0,u,0.0,True,768.3000000715256,47.0,60.0,40.0,False,,382.3794054024939,[],"[960, 540]",ColorTask,94.0,64.0,,,HRV,HRV_0130,2022-11-30 18:18:39
,wl-rdm,181,490425,0.0-8.64-0.64,1.0,182.0,,,,,,,[],,,,,,50.0,1.0,u,0.0,False,1018.2999999523163,62.0,60.0,40.0,False,,228.25689289380688,[],"[960, 540]",ColorTask,93.0,65.0,,,HRV,HRV_0130,2022-11-30 18:18:39
,wl-rdm,182,492842,0.0-8.65-0.65,1.0,183.0,,,,,,,[],,,,,,56.4,1.0,u,0.0,False,1079.0,65.0,60.0,40.0,False,,279.0846043547745,[],"[960, 540]",ColorTask,92.0,66.0,,,HRV,HRV_0130,2022-11-30 18:18:39
,wl-rdm,183,495108,0.0-8.66-0.66,1.0,184.0,,,,,,,[],,,,,,50.0,0.0,i,1.0,False,967.3999999761581,59.0,60.0,40.0,False,,207.0836063007656,[],"[960, 540]",ColorTask,91.0,67.0,,,HRV,HRV_0130,2022-11-30 18:18:39
,wl-rdm,184,497875,0.0-8.67-0.67,1.0,185.0,,,,,,,[],,,,,,87.9,0.0,u,0.0,True,1495.3999999761581,90.0,60.0,40.0,False,,209.45165894919433,[],"[960, 540]",ColorTask,92.0,68.0,,,HRV,HRV_0130,2022-11-30 18:18:39
,wl-rdm,185,500025,0.0-8.68-0.68,1.0,186.0,,,,,,,[],,,,,,87.9,0.0,u,0.0,True,752.5,46.0,60.0,40.0,False,,321.4013690487725,[],"[960, 540]",ColorTask,93.0,69.0,,,HRV,HRV_0130,2022-11-30 18:18:39
,wl-rdm,186,502242,0.0-8.69-0.69,1.0,187.0,,,,,,,[],,,,,,73.6,0.0,u,0.0,True,915.7000000476837,55.0,60.0,40.0,False,,224.26157845350977,[],"[960, 540]",ColorTask,94.0,70.0,,,HRV,HRV_0130,2022-11-30 18:18:39
,wl-rdm,187,504658,0.0-8.70-0.70,1.0,188.0,,,,,,,[],,,,,,62.5,0.0,i,1.0,False,945.5,57.0,60.0,40.0,False,,386.91202625176095,[],"[960, 540]",ColorTask,93.0,71.0,,,HRV,HRV_0130,2022-11-30 18:18:39
,wl-rdm,188,506992,0.0-8.71-0.71,1.0,189.0,,,,,,,[],,,,,,62.5,1.0,u,0.0,False,954.0,58.0,60.0,40.0,False,,294.47155902126565,[],"[960, 540]",ColorTask,92.0,72.0,,,HRV,HRV_0130,2022-11-30 18:18:39
,wl-rdm,189,509158,0.0-8.72-0.72,1.0,190.0,,,,,,,[],,,,,,87.9,1.0,i,1.0,True,893.8999999761581,54.0,60.0,40.0,False,,202.1664242236292,[],"[960, 540]",ColorTask,93.0,73.0,,,HRV,HRV_0130,2022-11-30 18:18:39
,wl-rdm,190,511242,0.0-8.73-0.73,1.0,191.0,,,,,,,[],,,,,,62.5,1.0,i,1.0,True,808.2999999523163,49.0,60.0,40.0,False,,201.47651189503517,[],"[960, 540]",ColorTask,94.0,74.0,,,HRV,HRV_0130,2022-11-30 18:18:39
,wl-rdm,191,513592,0.0-8.74-0.74,1.0,192.0,,,,,,,[],,,,,,53.2,1.0,i,1.0,True,991.3000000715256,60.0,60.0,40.0,False,,279.34262710847867,[],"[960, 540]",ColorTask,95.0,75.0,,,HRV,HRV_0130,2022-11-30 18:18:39
,wl-rdm,192,515825,0.0-8.75-0.75,1.0,193.0,,,,,,,[],,,,,,62.5,0.0,u,0.0,True,881.7999999523163,53.0,60.0,40.0,False,,289.06026382013437,[],"[960, 540]",ColorTask,96.0,76.0,,,HRV,HRV_0130,2022-11-30 18:18:39
,wl-rdm,193,518158,0.0-8.76-0.76,1.0,194.0,,,,,,,[],,,,,,87.9,0.0,u,0.0,True,1011.3000000715256,61.0,60.0,40.0,False,,235.03303791043717,[],"[960, 540]",ColorTask,97.0,77.0,,,HRV,HRV_0130,2022-11-30 18:18:39
,wl-rdm,194,520558,0.0-8.77-0.77,1.0,195.0,,,,,,,[],,,,,,53.2,0.0,i,1.0,False,996.1000000238419,60.0,60.0,40.0,False,,343.29092068064716,[],"[960, 540]",ColorTask,96.0,78.0,,,HRV,HRV_0130,2022-11-30 18:18:39
,wl-rdm,195,522692,0.0-8.78-0.78,1.0,196.0,,,,,,,[],,,,,,87.9,0.0,u,0.0,True,751.3000000715256,46.0,60.0,40.0,False,,287.13387371937824,[],"[960, 540]",ColorTask,97.0,79.0,,,HRV,HRV_0130,2022-11-30 18:18:39
,wl-rdm,196,525192,0.0-8.79-0.79,1.0,197.0,,,,,,,[],,,,,,50.0,0.0,u,0.0,True,1117.8999999761581,68.0,60.0,40.0,False,,291.1430613405575,[],"[960, 540]",ColorTask,98.0,80.0,,,HRV,HRV_0130,2022-11-30 18:18:39
,wl-rdm,197,527392,0.0-8.80-0.80,1.0,198.0,,,,,,,[],,,,,,87.9,1.0,i,1.0,True,910.1999999284744,55.0,60.0,40.0,False,,200.61337351318656,[],"[960, 540]",ColorTask,99.0,81.0,,,HRV,HRV_0130,2022-11-30 18:18:39
,wl-rdm,198,529775,0.0-8.81-0.81,1.0,199.0,,,,,,,[],,,,,,56.4,1.0,u,0.0,False,1081.6999999284744,65.0,60.0,40.0,False,,245.42917945318743,[],"[960, 540]",ColorTask,98.0,82.0,,,HRV,HRV_0130,2022-11-30 18:18:39
,wl-rdm,199,532208,0.0-8.82-0.82,1.0,200.0,,,,,,,[],,,,,,50.0,1.0,u,0.0,False,1114.0,67.0,60.0,40.0,False,,263.19839699614414,[],"[960, 540]",ColorTask,97.0,83.0,,,HRV,HRV_0130,2022-11-30 18:18:39
,wl-rdm,200,534258,0.0-8.83-0.83,1.0,201.0,,,,,,,[],,,,,,62.5,1.0,i,1.0,True,748.0,45.0,60.0,40.0,False,,220.7718680398748,[],"[960, 540]",ColorTask,98.0,84.0,,,HRV,HRV_0130,2022-11-30 18:18:39
,wl-rdm,201,536609,0.0-8.84-0.84,1.0,202.0,,,,,,,[],,,,,,62.5,1.0,u,0.0,False,1058.6000000238419,64.0,60.0,40.0,False,,230.85890063724725,[],"[960, 540]",ColorTask,97.0,85.0,,,HRV,HRV_0130,2022-11-30 18:18:39
,wl-rdm,202,539025,0.0-8.85-0.85,1.0,203.0,,,,,,,[],,,,,,53.2,0.0,i,1.0,False,1101.1000000238419,64.0,60.0,40.0,False,,242.59430392502082,[],"[960, 540]",ColorTask,96.0,86.0,,,HRV,HRV_0130,2022-11-30 18:18:39
,wl-rdm,203,541709,0.0-8.86-0.86,1.0,204.0,,,,,,,[],,,,,,56.4,1.0,u,0.0,False,1221.1999999284744,74.0,60.0,40.0,False,,391.00284761767546,[],"[960, 540]",ColorTask,95.0,87.0,,,HRV,HRV_0130,2022-11-30 18:18:39
,wl-rdm,204,543892,0.0-8.87-0.87,1.0,205.0,,,,,,,[],,,,,,56.4,1.0,i,1.0,True,898.2000000476837,54.0,60.0,40.0,False,,226.69415751868644,[],"[960, 540]",ColorTask,96.0,88.0,,,HRV,HRV_0130,2022-11-30 18:18:39
,wl-rdm,205,546059,0.0-8.88-0.88,1.0,206.0,,,,,,,[],,,,,,87.9,0.0,u,0.0,True,701.7000000476837,43.0,60.0,40.0,False,,381.3254019437728,[],"[960, 540]",ColorTask,97.0,89.0,,,HRV,HRV_0130,2022-11-30 18:18:39
,wl-rdm,206,548625,0.0-8.89-0.89,1.0,207.0,,,,,,,[],,,,,,50.0,0.0,u,0.0,True,1128.0,68.0,60.0,40.0,False,,363.7871668015189,[],"[960, 540]",ColorTask,98.0,90.0,,,HRV,HRV_0130,2022-11-30 18:18:39
,wl-rdm,207,550758,0.0-8.90-0.90,1.0,208.0,,,,,,,[],,,,,,87.9,1.0,i,1.0,True,804.1999999284744,49.0,60.0,40.0,False,,235.2581174764631,[],"[960, 540]",ColorTask,99.0,91.0,,,HRV,HRV_0130,2022-11-30 18:18:39
,wl-rdm,208,552975,0.0-8.91-0.91,1.0,209.0,,,,,,,[],,,,,,73.6,1.0,i,1.0,True,891.1999999284744,54.0,60.0,40.0,False,,265.44748724298313,[],"[960, 540]",ColorTask,100.0,92.0,,,HRV,HRV_0130,2022-11-30 18:18:39
,wl-rdm,209,555159,0.0-8.92-0.92,1.0,210.0,,,,,,,[],,,,,,56.4,1.0,i,1.0,True,827.3999999761581,50.0,60.0,40.0,False,,283.4143330358661,[],"[960, 540]",ColorTask,101.0,93.0,,,HRV,HRV_0130,2022-11-30 18:18:39
,wl-rdm,210,557458,0.0-8.93-0.93,1.0,211.0,,,,,,,[],,,,,,53.2,0.0,i,1.0,False,833.8999999761581,51.0,60.0,40.0,False,,385.520310567117,[],"[960, 540]",ColorTask,100.0,94.0,,,HRV,HRV_0130,2022-11-30 18:18:39
,wl-rdm,211,559758,0.0-8.94-0.94,1.0,212.0,,,,,,,[],,,,,,53.2,1.0,u,0.0,False,978.7000000476837,59.0,60.0,40.0,False,,238.27633603349724,[],"[960, 540]",ColorTask,99.0,95.0,,,HRV,HRV_0130,2022-11-30 18:18:39
,wl-rdm,212,561842,0.0-8.95-0.95,1.0,213.0,,,,,,,[],,,,,,53.2,0.0,u,0.0,True,785.1999999284744,48.0,60.0,40.0,False,,229.8344614949819,[],"[960, 540]",ColorTask,100.0,96.0,,,HRV,HRV_0130,2022-11-30 18:18:39
,wl-rdm,213,564092,0.0-8.96-0.96,1.0,214.0,,,,,,,[],,,,,,73.6,0.0,u,0.0,True,792.6000000238419,48.0,60.0,40.0,False,,396.6110959470819,[],"[960, 540]",ColorTask,101.0,97.0,,,HRV,HRV_0130,2022-11-30 18:18:39
,wl-rdm,214,566409,0.0-8.97-0.97,1.0,215.0,,,,,,,[],,,,,,53.2,0.0,u,0.0,True,1034.6000000238419,63.0,60.0,40.0,False,,200.25868908628624,[],"[960, 540]",ColorTask,102.0,98.0,,,HRV,HRV_0130,2022-11-30 18:18:39
,wl-rdm,215,568725,0.0-8.98-0.98,1.0,216.0,,,,,,,[],,,,,,50.0,0.0,u,0.0,True,914.8999999761581,55.0,60.0,40.0,False,,320.55814573218674,[],"[960, 540]",ColorTask,103.0,99.0,,,HRV,HRV_0130,2022-11-30 18:18:39
,wl-rdm,216,570825,0.0-8.99-0.99,1.0,217.0,,,,,,,[],,,,,,87.9,1.0,i,1.0,True,737.7000000476837,45.0,60.0,40.0,False,,269.939078512642,[],"[960, 540]",ColorTask,104.0,100.0,,,HRV,HRV_0130,2022-11-30 18:18:39
,wl-rdm,217,573192,0.0-8.100-0.100,1.0,218.0,,,,,,,[],,,,,,56.4,1.0,u,0.0,False,901.8999999761581,55.0,60.0,40.0,False,,370.0221996772557,[],"[960, 540]",ColorTask,103.0,101.0,,,HRV,HRV_0130,2022-11-30 18:18:39
,wl-rdm,218,575458,0.0-8.101-0.101,1.0,219.0,,,,,,,[],,,,,,50.0,1.0,i,1.0,True,984.3000000715256,60.0,60.0,40.0,False,,215.61531421155883,[],"[960, 540]",ColorTask,104.0,102.0,,,HRV,HRV_0130,2022-11-30 18:18:39
,wl-rdm,219,577758,0.0-8.102-0.102,1.0,220.0,,,,,,,[],,,,,,56.4,1.0,u,0.0,False,1006.1999999284744,61.0,60.0,40.0,False,,216.45334142484046,[],"[960, 540]",ColorTask,103.0,103.0,,,HRV,HRV_0130,2022-11-30 18:18:39
,wl-rdm,220,580258,0.0-8.103-0.103,1.0,221.0,,,,,,,[],,,,,,56.4,0.0,i,1.0,False,1044.1000000238419,63.0,60.0,40.0,False,,382.4246173085629,[],"[960, 540]",ColorTask,102.0,104.0,,,HRV,HRV_0130,2022-11-30 18:18:39
,wl-rdm,221,582525,0.0-8.104-0.104,1.0,222.0,,,,,,,[],,,,,,87.9,0.0,u,0.0,True,858.4999998807907,52.0,60.0,40.0,False,,325.1477984360995,[],"[960, 540]",ColorTask,103.0,105.0,,,HRV,HRV_0130,2022-11-30 18:18:39
,wl-rdm,222,584925,0.0-8.105-0.105,1.0,223.0,,,,,,,[],,,,,,53.2,0.0,u,0.0,True,962.8000000715256,58.0,60.0,40.0,False,,379.6340986499015,[],"[960, 540]",ColorTask,104.0,106.0,,,HRV,HRV_0130,2022-11-30 18:18:39
,wl-rdm,223,587392,0.0-8.106-0.106,1.0,224.0,,,,,,,[],,,,,,73.6,1.0,i,1.0,True,1140.1000000238419,69.0,60.0,40.0,False,,241.40658175023214,[],"[960, 540]",ColorTask,105.0,107.0,,,HRV,HRV_0130,2022-11-30 18:18:39
,wl-rdm,224,589742,0.0-8.107-0.107,1.0,225.0,,,,,,,[],,,,,,50.0,1.0,u,0.0,False,1005.6000000238419,61.0,60.0,40.0,False,,258.20107600427025,[],"[960, 540]",ColorTask,104.0,108.0,,,HRV,HRV_0130,2022-11-30 18:18:39
,wl-html-button-response,225,594458,0.0-9.0-0.0,,,,,,,,,,4714.700000047684,,0,,,,,,,,,,,,,,,,,,,,<h3>End of this session. Thank you!</h3><br>,['Close window'],HRV,HRV_0130,2022-11-30 18:18:39
