success,trial_type,trial_index,time_elapsed,internal_node_id,Block,TrialNumber,TrialTime,trialTimeDiff,FPS_avg,FPS_med,FPS_mode,TrialDur,winResizeTime,rt,block,button_pressed,MotCoh,MotDir,ColCoh,Color,ChoiceKey,Choice,Accuracy,RT,nFrames,FPS,PPD,missTrial,missTrialMsg,onsetDelay,fullScreenExitTime,canvCenter,TrialType,Score,BlockTrial,stimulus,button_labels,exp,subjectId,date
True,fullscreen,0,3346,0.0-0.0,0.0,1.0,,,,,,,,,,,,,,,,,,,,,,,,,,,,,,,,HRV,HRV_0102,2022-11-30 18:27:01
,wl-check-fps,1,8701,0.0-1.0,0.0,2.0,"[4451, 4468, 4478, 4503, 4510, 4524, 4577, 4592, 4617, 4630, 4637, 4678, 4698, 4737, 4763, 4781, 4846, 4859, 4897, 4909, 4943, 4944, 4963, 4988, 5010, 5028, 5055, 5079, 5110, 5140, 5179, 5191, 5236, 5242, 5274, 5282, 5325, 5341, 5363, 5376, 5392, 5410, 5428, 5443, 5460, 5480, 5492, 5511, 5530, 5538, 5557, 5582, 5588, 5610, 5630, 5638, 5660, 5682, 5711, 5713, 5732, 5744, 5760, 5780, 5796, 5810, 5836, 5848, 5861, 5880, 5894, 5910, 5936, 5944, 5960, 5978, 5995, 6010, 6030, 6043, 6060, 6083, 6103, 6108, 6137, 6149, 6160, 6192, 6207, 6233, 6242, 6260, 6276, 6292, 6317, 6325, 6337, 6362, 6375, 6387, 6416, 6425, 6441, 6474, 6478, 6491, 6508, 6526, 6542, 6560, 6577, 6593, 6607, 6625, 6642, 6660, 6675, 6696, 6709, 6725, 6746, 6758, 6774, 6791, 6809, 6833, 6843, 6864, 6875, 6899, 6910, 6932, 6942, 6969, 6975, 7003, 7010, 7035, 7043, 7057, 7078, 7091, 7111, 7125, 7143, 7159, 7179, 7193, 7211, 7227, 7244, 7260, 7276, 7292, 7309, 7326, 7342, 7367, 7375, 7392, 7410, 7425, 7441, 7458, 7478, 7491, 7509, 7525, 7543, 7558, 7579, 7595, 7609, 7625, 7652, 7659, 7674, 7691, 7712, 7725, 7746, 7759, 7791, 7795, 7809, 7830, 7842, 7870, 7875, 7887, 7908, 7925, 7942, 7961, 7985, 7992, 8008, 8027, 8041, 8062, 8076, 8094, 8110, 8125, 8146, 8158, 8175, 8192, 8212, 8226, 8248, 8260, 8276, 8292, 8311, 8331, 8344, 8363, 8377, 8397, 8411, 8436, 8442, 8458, 8475, 8499, 8508, 8527, 8541, 8562, 8576, 8595, 8611, 8634, 8641, 8661, 8676, 8697, 8708, 8735, 8741, 8767, 8775, 8787, 8806, 8833, 8841, 8857, 8879, 8892, 8909, 8925, 8945, 8958, 8975, 8991, 9012, 9025, 9041, 9069, 9078, 9092, 9108, 9126, 9144, 9158, 9174, 9192, 9215, 9225, 9245, 9258, 9275, 9291, 9310, 9325, 9341, 9359, 9379, 9391, 9414, 9425, 9446, 9476, 9479, 9496, 9508, 9525, 9546, 9558, 9575, 9591, 9609, 9629, 9642, 9659, 9678, 9692, 9714, 9724]","[52, 17, 10, 25, 7, 14, 53, 15, 25, 13, 7, 41, 20, 39, 26, 18, 65, 13, 38, 12, 34, 1, 19, 25, 22, 18, 27, 24, 31, 30, 39, 12, 45, 6, 32, 8, 43, 16, 22, 13, 16, 18, 18, 15, 17, 20, 12, 19, 19, 8, 19, 25, 6, 22, 20, 8, 22, 22, 29, 2, 19, 12, 16, 20, 16, 14, 26, 12, 13, 19, 14, 16, 26, 8, 16, 18, 17, 15, 20, 13, 17, 23, 20, 5, 29, 12, 11, 32, 15, 26, 9, 18, 16, 16, 25, 8, 12, 25, 13, 12, 29, 9, 16, 33, 4, 13, 17, 18, 16, 18, 17, 16, 14, 18, 17, 18, 15, 21, 13, 16, 21, 12, 16, 17, 18, 24, 10, 21, 11, 24, 11, 22, 10, 27, 6, 28, 7, 25, 8, 14, 21, 13, 20, 14, 18, 16, 20, 14, 18, 16, 17, 16, 16, 16, 17, 17, 16, 25, 8, 17, 18, 15, 16, 17, 20, 13, 18, 16, 18, 15, 21, 16, 14, 16, 27, 7, 15, 17, 21, 13, 21, 13, 32, 4, 14, 21, 12, 28, 5, 12, 21, 17, 17, 19, 24, 7, 16, 19, 14, 21, 14, 18, 16, 15, 21, 12, 17, 17, 20, 14, 22, 12, 16, 16, 19, 20, 13, 19, 14, 20, 14, 25, 6, 16, 17, 24, 9, 19, 14, 21, 14, 19, 16, 23, 7, 20, 15, 21, 11, 27, 6, 26, 8, 12, 19, 27, 8, 16, 22, 13, 17, 16, 20, 13, 17, 16, 21, 13, 16, 28, 9, 14, 16, 18, 18, 14, 16, 18, 23, 10, 20, 13, 17, 16, 19, 15, 16, 18, 20, 12, 23, 11, 21, 30, 3, 17, 12, 17, 21, 12, 17, 16, 18, 20, 13, 17, 19, 14, 22, 10]",56.0,61.0,63.0,5338.0,[],,,,,,,,,,,,,,,,,,,,,,,,,HRV,HRV_0102,2022-11-30 18:27:01
,wl-html-keyboard-response,2,21975,0.0-2.0-0.0,0.0,3.0,,,,,,,,11248.0,0.0,0,,,,,,,,,,,,,,,,,,,,,,HRV,HRV_0102,2022-11-30 18:27:01
,wl-rdm,3,29299,0.0-3.0-0.0,0.0,4.0,,,,,,,[],,,,0.0,0.0,87.9,0.0,u,0.0,True,1743.0,103.0,63.0,40.0,False,,3000.0,[],"[960, 540]",ColorTask_Demo,,,,,HRV,HRV_0102,2022-11-30 18:27:01
,wl-rdm,4,34177,0.0-3.0-1.0,0.0,5.0,,,,,,,[],,,,0.0,0.0,87.9,1.0,i,1.0,True,783.0,44.0,63.0,40.0,False,,2000.0,[],"[960, 540]",ColorTask_Demo,,,,,HRV,HRV_0102,2022-11-30 18:27:01
,wl-html-keyboard-response,5,42043,0.0-3.0-2.0,0.0,6.0,,,,,,,,5824.0,0.0,1,,,,,,,,,,,,,,,,,,,,,,HRV,HRV_0102,2022-11-30 18:27:01
,wl-html-keyboard-response,6,53731,0.0-4.0-0.0,0.0,7.0,,,,,,,,9678.0,0.0,0,,,,,,,,,,,,,,,,,,,,,,HRV,HRV_0102,2022-11-30 18:27:01
,wl-html-keyboard-response,7,64677,0.0-5.0-0.0,0.0,8.0,,,,,,,,8898.0,0.0,0,,,,,,,,,,,,,,,,,,,,,,HRV,HRV_0102,2022-11-30 18:27:01
,wl-rdm,8,67752,0.0-6.0-0.0,0.0,9.0,,,,,,,[],,,,,,50.0,1.0,u,0.0,False,1628.0,80.0,63.0,40.0,False,,359.76767669591266,[],"[960, 540]",ColorTask,-1.0,1.0,,,HRV,HRV_0102,2022-11-30 18:27:01
,wl-rdm,9,70715,0.0-6.1-0.1,0.0,10.0,,,,,,,[],,,,,,50.0,0.0,u,0.0,True,1581.0,89.0,63.0,40.0,False,,307.7170736876499,[],"[960, 540]",ColorTask,0.0,2.0,,,HRV,HRV_0102,2022-11-30 18:27:01
,wl-rdm,10,73332,0.0-6.2-0.2,0.0,11.0,,,,,,,[],,,,,,56.4,0.0,u,0.0,True,1336.0,79.0,63.0,40.0,False,,215.61385924296096,[],"[960, 540]",ColorTask,1.0,3.0,,,HRV,HRV_0102,2022-11-30 18:27:01
,wl-rdm,11,75615,0.0-6.3-0.3,0.0,12.0,,,,,,,[],,,,,,56.4,1.0,u,0.0,False,984.0,58.0,63.0,40.0,False,,248.4368411646803,[],"[960, 540]",ColorTask,0.0,4.0,,,HRV,HRV_0102,2022-11-30 18:27:01
,wl-rdm,12,78465,0.0-6.4-0.4,0.0,13.0,,,,,,,[],,,,,,53.2,1.0,u,0.0,False,1385.0,68.0,63.0,40.0,False,,373.9127718577713,[],"[960, 540]",ColorTask,-1.0,5.0,,,HRV,HRV_0102,2022-11-30 18:27:01
,wl-rdm,13,80920,0.0-6.5-0.5,0.0,14.0,,,,,,,[],,,,,,50.0,1.0,u,0.0,False,1149.0,64.0,63.0,40.0,False,,223.32741535040083,[],"[960, 540]",ColorTask,-2.0,6.0,,,HRV,HRV_0102,2022-11-30 18:27:01
,wl-rdm,14,83733,0.0-6.6-0.6,0.0,15.0,,,,,,,[],,,,,,62.5,1.0,i,1.0,True,1500.0,85.0,63.0,40.0,False,,207.00629473636604,[],"[960, 540]",ColorTask,-1.0,7.0,,,HRV,HRV_0102,2022-11-30 18:27:01
,wl-rdm,15,86166,0.0-6.7-0.7,0.0,16.0,,,,,,,[],,,,,,50.0,1.0,u,0.0,False,1136.0,55.0,63.0,40.0,False,,203.3465273428174,[],"[960, 540]",ColorTask,-2.0,8.0,,,HRV,HRV_0102,2022-11-30 18:27:01
,wl-rdm,16,88797,0.0-6.8-0.8,0.0,17.0,,,,,,,[],,,,,,73.6,1.0,i,1.0,True,1354.0,68.0,63.0,40.0,False,,215.73094936963264,[],"[960, 540]",ColorTask,-1.0,9.0,,,HRV,HRV_0102,2022-11-30 18:27:01
,wl-rdm,17,91165,0.0-6.9-0.9,0.0,18.0,,,,,,,[],,,,,,62.5,1.0,u,0.0,False,1046.0,63.0,63.0,40.0,False,,213.56624781597498,[],"[960, 540]",ColorTask,-2.0,10.0,,,HRV,HRV_0102,2022-11-30 18:27:01
,wl-rdm,18,94198,0.0-6.10-0.10,0.0,19.0,,,,,,,[],,,,,,50.0,1.0,u,0.0,False,1616.0,83.0,63.0,40.0,False,,320.2346299090908,[],"[960, 540]",ColorTask,-3.0,11.0,,,HRV,HRV_0102,2022-11-30 18:27:01
,wl-rdm,19,96834,0.0-6.11-0.11,0.0,20.0,,,,,,,[],,,,,,53.2,1.0,u,0.0,False,1135.0,59.0,63.0,40.0,False,,393.11807354743655,[],"[960, 540]",ColorTask,-4.0,12.0,,,HRV,HRV_0102,2022-11-30 18:27:01
,wl-rdm,20,99284,0.0-6.12-0.12,0.0,21.0,,,,,,,[],,,,,,73.6,0.0,u,0.0,True,1133.0,68.0,63.0,40.0,False,,279.05315944205176,[],"[960, 540]",ColorTask,-3.0,13.0,,,HRV,HRV_0102,2022-11-30 18:27:01
,wl-rdm,21,102261,0.0-6.13-0.13,0.0,22.0,,,,,,,[],,,,,,53.2,0.0,i,1.0,False,1650.0,98.0,63.0,40.0,False,,241.35254892696116,[],"[960, 540]",ColorTask,-4.0,14.0,,,HRV,HRV_0102,2022-11-30 18:27:01
,wl-rdm,22,104765,0.0-6.14-0.14,0.0,23.0,,,,,,,[],,,,,,50.0,1.0,i,1.0,True,1081.0,66.0,63.0,40.0,False,,321.06327538049993,[],"[960, 540]",ColorTask,-3.0,15.0,,,HRV,HRV_0102,2022-11-30 18:27:01
,wl-rdm,23,107399,0.0-6.15-0.15,0.0,24.0,,,,,,,[],,,,,,73.6,0.0,u,0.0,True,1319.0,79.0,63.0,40.0,False,,241.71775448411148,[],"[960, 540]",ColorTask,-2.0,16.0,,,HRV,HRV_0102,2022-11-30 18:27:01
,wl-rdm,24,110065,0.0-6.16-0.16,0.0,25.0,,,,,,,[],,,,,,62.5,0.0,u,0.0,True,1289.0,76.0,63.0,40.0,False,,296.8038287740231,[],"[960, 540]",ColorTask,-1.0,17.0,,,HRV,HRV_0102,2022-11-30 18:27:01
,wl-rdm,25,113035,0.0-6.17-0.17,0.0,26.0,,,,,,,[],,,,,,73.6,0.0,u,0.0,True,1581.0,95.0,63.0,40.0,False,,287.8994844523871,[],"[960, 540]",ColorTask,0.0,18.0,,,HRV,HRV_0102,2022-11-30 18:27:01
,wl-rdm,26,116280,0.0-6.18-0.18,0.0,27.0,,,,,,,[],,,,,,53.2,0.0,i,1.0,False,1758.0,92.0,63.0,40.0,False,,282.2498014047574,[],"[960, 540]",ColorTask,-1.0,19.0,,,HRV,HRV_0102,2022-11-30 18:27:01
,wl-rdm,27,118731,0.0-6.19-0.19,0.0,28.0,,,,,,,[],,,,,,73.6,1.0,i,1.0,True,1047.0,60.0,63.0,40.0,False,,296.9442010180712,[],"[960, 540]",ColorTask,0.0,20.0,,,HRV,HRV_0102,2022-11-30 18:27:01
,wl-rdm,28,121656,0.0-6.20-0.20,0.0,29.0,,,,,,,[],,,,,,73.6,1.0,i,1.0,True,1470.0,88.0,63.0,40.0,False,,359.3844523635643,[],"[960, 540]",ColorTask,1.0,21.0,,,HRV,HRV_0102,2022-11-30 18:27:01
,wl-rdm,29,124748,0.0-6.21-0.21,0.0,30.0,,,,,,,[],,,,,,53.2,1.0,u,0.0,False,1723.0,105.0,63.0,40.0,False,,285.48743113569185,[],"[960, 540]",ColorTask,0.0,22.0,,,HRV,HRV_0102,2022-11-30 18:27:01
,wl-rdm,30,127325,0.0-6.22-0.22,0.0,31.0,,,,,,,[],,,,,,56.4,0.0,u,0.0,True,1265.0,73.0,63.0,40.0,False,,236.12630955702784,[],"[960, 540]",ColorTask,1.0,23.0,,,HRV,HRV_0102,2022-11-30 18:27:01
,wl-rdm,31,129699,0.0-6.23-0.23,0.0,32.0,,,,,,,[],,,,,,73.6,0.0,u,0.0,True,905.0,50.0,63.0,40.0,False,,389.3648859506965,[],"[960, 540]",ColorTask,2.0,24.0,,,HRV,HRV_0102,2022-11-30 18:27:01
,wl-rdm,32,132947,0.0-6.24-0.24,0.0,33.0,,,,,,,[],,,,,,62.5,1.0,i,1.0,True,1935.0,111.0,63.0,40.0,False,,235.67348203309584,[],"[960, 540]",ColorTask,3.0,25.0,,,HRV,HRV_0102,2022-11-30 18:27:01
,wl-rdm,33,137281,0.0-6.25-0.25,0.0,33.0,,,,,,,[],,,,,,53.2,0.0,u,,,3049.0,164.0,63.0,40.0,True,RT_timeout ,259.24679211046424,[],"[960, 540]",ColorTask,2.0,26.0,,,HRV,HRV_0102,2022-11-30 18:27:01
,wl-rdm,34,139965,0.0-6.26-0.26,0.0,34.0,,,,,,,[],,,,,,53.2,0.0,u,0.0,True,1350.0,64.0,63.0,40.0,False,,238.69158397830435,[],"[960, 540]",ColorTask,3.0,27.0,,,HRV,HRV_0102,2022-11-30 18:27:01
,wl-rdm,35,142634,0.0-6.27-0.27,0.0,35.0,,,,,,,[],,,,,,53.2,1.0,u,0.0,False,1257.0,67.0,63.0,40.0,False,,330.2712038924488,[],"[960, 540]",ColorTask,2.0,28.0,,,HRV,HRV_0102,2022-11-30 18:27:01
,wl-rdm,36,144987,0.0-6.28-0.28,0.0,36.0,,,,,,,[],,,,,,87.9,1.0,i,1.0,True,932.0,57.0,63.0,40.0,False,,324.23087352566387,[],"[960, 540]",ColorTask,3.0,29.0,,,HRV,HRV_0102,2022-11-30 18:27:01
,wl-rdm,37,148065,0.0-6.29-0.29,0.0,37.0,,,,,,,[],,,,,,73.6,1.0,i,1.0,True,1652.0,99.0,63.0,40.0,False,,366.62257110846014,[],"[960, 540]",ColorTask,4.0,30.0,,,HRV,HRV_0102,2022-11-30 18:27:01
,wl-rdm,38,150930,0.0-6.30-0.30,0.0,38.0,,,,,,,[],,,,,,62.5,0.0,u,0.0,True,1408.0,82.0,63.0,40.0,False,,357.16539016022,[],"[960, 540]",ColorTask,5.0,31.0,,,HRV,HRV_0102,2022-11-30 18:27:01
,wl-rdm,39,153631,0.0-6.31-0.31,0.0,39.0,,,,,,,[],,,,,,56.4,1.0,i,1.0,True,1383.0,83.0,63.0,40.0,False,,237.83064081779065,[],"[960, 540]",ColorTask,6.0,32.0,,,HRV,HRV_0102,2022-11-30 18:27:01
,wl-rdm,40,155864,0.0-6.32-0.32,0.0,40.0,,,,,,,[],,,,,,73.6,0.0,u,0.0,True,886.0,51.0,63.0,40.0,False,,235.24519683769603,[],"[960, 540]",ColorTask,7.0,33.0,,,HRV,HRV_0102,2022-11-30 18:27:01
,wl-rdm,41,158815,0.0-6.33-0.33,0.0,41.0,,,,,,,[],,,,,,62.5,1.0,i,1.0,True,1520.0,86.0,63.0,40.0,False,,357.3539300234826,[],"[960, 540]",ColorTask,8.0,34.0,,,HRV,HRV_0102,2022-11-30 18:27:01
,wl-rdm,42,161847,0.0-6.34-0.34,0.0,42.0,,,,,,,[],,,,,,50.0,0.0,u,0.0,True,1610.0,85.0,63.0,40.0,False,,320.9015999837204,[],"[960, 540]",ColorTask,9.0,35.0,,,HRV,HRV_0102,2022-11-30 18:27:01
,wl-rdm,43,164313,0.0-6.35-0.35,0.0,43.0,,,,,,,[],,,,,,56.4,0.0,u,0.0,True,1157.0,68.0,63.0,40.0,False,,215.077664073715,[],"[960, 540]",ColorTask,10.0,36.0,,,HRV,HRV_0102,2022-11-30 18:27:01
,wl-rdm,44,166480,0.0-6.36-0.36,0.0,44.0,,,,,,,[],,,,,,87.9,1.0,i,1.0,True,850.0,51.0,63.0,40.0,False,,263.5520873570367,[],"[960, 540]",ColorTask,11.0,37.0,,,HRV,HRV_0102,2022-11-30 18:27:01
,wl-rdm,45,168629,0.0-6.37-0.37,0.0,45.0,,,,,,,[],,,,,,62.5,1.0,i,1.0,True,842.0,48.0,63.0,40.0,False,,244.16182285547634,[],"[960, 540]",ColorTask,12.0,38.0,,,HRV,HRV_0102,2022-11-30 18:27:01
,wl-rdm,46,171332,0.0-6.38-0.38,0.0,46.0,,,,,,,[],,,,,,73.6,1.0,i,1.0,True,1296.0,78.0,63.0,40.0,False,,317.2866235927609,[],"[960, 540]",ColorTask,13.0,39.0,,,HRV,HRV_0102,2022-11-30 18:27:01
,wl-rdm,47,174496,0.0-6.39-0.39,0.0,47.0,,,,,,,[],,,,,,53.2,1.0,i,1.0,True,1881.0,109.0,63.0,40.0,False,,206.27020984242813,[],"[960, 540]",ColorTask,14.0,40.0,,,HRV,HRV_0102,2022-11-30 18:27:01
,wl-rdm,48,177601,0.0-6.40-0.40,0.0,48.0,,,,,,,[],,,,,,56.4,1.0,i,1.0,True,1800.0,105.0,63.0,40.0,False,,231.82118138380426,[],"[960, 540]",ColorTask,15.0,41.0,,,HRV,HRV_0102,2022-11-30 18:27:01
,wl-rdm,49,179763,0.0-6.41-0.41,0.0,49.0,,,,,,,[],,,,,,87.9,1.0,i,1.0,True,871.0,50.0,63.0,40.0,False,,220.5668501074576,[],"[960, 540]",ColorTask,16.0,42.0,,,HRV,HRV_0102,2022-11-30 18:27:01
,wl-rdm,50,182147,0.0-6.42-0.42,0.0,50.0,,,,,,,[],,,,,,62.5,0.0,u,0.0,True,1078.0,65.0,63.0,40.0,False,,234.601526353961,[],"[960, 540]",ColorTask,17.0,43.0,,,HRV,HRV_0102,2022-11-30 18:27:01
,wl-rdm,51,184783,0.0-6.43-0.43,0.0,51.0,,,,,,,[],,,,,,50.0,0.0,u,0.0,True,1218.0,67.0,63.0,40.0,False,,318.16499991856597,[],"[960, 540]",ColorTask,18.0,44.0,,,HRV,HRV_0102,2022-11-30 18:27:01
,wl-rdm,52,186929,0.0-6.44-0.44,0.0,52.0,,,,,,,[],,,,,,56.4,0.0,u,0.0,True,849.0,41.0,63.0,40.0,False,,223.59502119611028,[],"[960, 540]",ColorTask,19.0,45.0,,,HRV,HRV_0102,2022-11-30 18:27:01
,wl-rdm,53,189472,0.0-6.45-0.45,0.0,53.0,,,,,,,[],,,,,,50.0,1.0,u,0.0,False,1172.0,67.0,63.0,40.0,False,,263.0294260497815,[],"[960, 540]",ColorTask,18.0,46.0,,,HRV,HRV_0102,2022-11-30 18:27:01
,wl-rdm,54,191663,0.0-6.46-0.46,0.0,54.0,,,,,,,[],,,,,,87.9,1.0,i,1.0,True,902.0,45.0,63.0,40.0,False,,221.5815860477256,[],"[960, 540]",ColorTask,19.0,47.0,,,HRV,HRV_0102,2022-11-30 18:27:01
,wl-rdm,55,194513,0.0-6.47-0.47,0.0,55.0,,,,,,,[],,,,,,53.2,1.0,u,0.0,False,1541.0,90.0,63.0,40.0,False,,248.59794678513617,[],"[960, 540]",ColorTask,18.0,48.0,,,HRV,HRV_0102,2022-11-30 18:27:01
,wl-rdm,56,196646,0.0-6.48-0.48,0.0,56.0,,,,,,,[],,,,,,87.9,0.0,u,0.0,True,818.0,48.0,63.0,40.0,False,,251.2773520897167,[],"[960, 540]",ColorTask,19.0,49.0,,,HRV,HRV_0102,2022-11-30 18:27:01
,wl-rdm,57,199930,0.0-6.49-0.49,0.0,57.0,,,,,,,[],,,,,,62.5,1.0,i,1.0,True,1974.0,118.0,63.0,40.0,False,,223.5692000916734,[],"[960, 540]",ColorTask,20.0,50.0,,,HRV,HRV_0102,2022-11-30 18:27:01
,wl-rdm,58,203080,0.0-6.50-0.50,0.0,58.0,,,,,,,[],,,,,,56.4,0.0,u,0.0,True,1816.0,108.0,63.0,40.0,False,,280.53494000885826,[],"[960, 540]",ColorTask,21.0,51.0,,,HRV,HRV_0102,2022-11-30 18:27:01
,wl-rdm,59,206263,0.0-6.51-0.51,0.0,59.0,,,,,,,[],,,,,,56.4,1.0,u,0.0,False,1882.0,111.0,63.0,40.0,False,,244.10156867127733,[],"[960, 540]",ColorTask,20.0,52.0,,,HRV,HRV_0102,2022-11-30 18:27:01
,wl-rdm,60,209113,0.0-6.52-0.52,0.0,60.0,,,,,,,[],,,,,,62.5,0.0,u,0.0,True,1425.0,68.0,63.0,40.0,False,,343.5602073163527,[],"[960, 540]",ColorTask,21.0,53.0,,,HRV,HRV_0102,2022-11-30 18:27:01
,wl-rdm,61,211262,0.0-6.53-0.53,0.0,61.0,,,,,,,[],,,,,,62.5,1.0,i,1.0,True,853.0,47.0,63.0,40.0,False,,208.806095689426,[],"[960, 540]",ColorTask,22.0,54.0,,,HRV,HRV_0102,2022-11-30 18:27:01
,wl-rdm,62,213896,0.0-6.54-0.54,0.0,62.0,,,,,,,[],,,,,,56.4,0.0,i,1.0,False,1237.0,74.0,63.0,40.0,False,,215.10090869955437,[],"[960, 540]",ColorTask,21.0,55.0,,,HRV,HRV_0102,2022-11-30 18:27:01
,wl-rdm,63,216229,0.0-6.55-0.55,0.0,63.0,,,,,,,[],,,,,,73.6,0.0,u,0.0,True,954.0,57.0,63.0,40.0,False,,296.5280941792765,[],"[960, 540]",ColorTask,22.0,56.0,,,HRV,HRV_0102,2022-11-30 18:27:01
,wl-rdm,64,218363,0.0-6.56-0.56,0.0,64.0,,,,,,,[],,,,,,87.9,0.0,u,0.0,True,696.0,39.0,63.0,40.0,False,,375.7251704076009,[],"[960, 540]",ColorTask,23.0,57.0,,,HRV,HRV_0102,2022-11-30 18:27:01
,wl-rdm,65,220786,0.0-6.57-0.57,0.0,65.0,,,,,,,[],,,,,,53.2,0.0,i,1.0,False,1074.0,64.0,63.0,40.0,False,,295.12643775378456,[],"[960, 540]",ColorTask,22.0,58.0,,,HRV,HRV_0102,2022-11-30 18:27:01
,wl-rdm,66,223549,0.0-6.58-0.58,0.0,66.0,,,,,,,[],,,,,,62.5,0.0,u,0.0,True,1470.0,81.0,63.0,40.0,False,,219.97070287774392,[],"[960, 540]",ColorTask,23.0,59.0,,,HRV,HRV_0102,2022-11-30 18:27:01
,wl-rdm,67,226261,0.0-6.59-0.59,0.0,67.0,,,,,,,[],,,,,,62.5,0.0,u,0.0,True,1327.0,71.0,63.0,40.0,False,,260.3200002922723,[],"[960, 540]",ColorTask,24.0,60.0,,,HRV,HRV_0102,2022-11-30 18:27:01
,wl-rdm,68,228332,0.0-6.60-0.60,0.0,68.0,,,,,,,[],,,,,,87.9,0.0,u,0.0,True,741.0,43.0,63.0,40.0,False,,242.92700827453052,[],"[960, 540]",ColorTask,25.0,61.0,,,HRV,HRV_0102,2022-11-30 18:27:01
,wl-rdm,69,230413,0.0-6.61-0.61,0.0,69.0,,,,,,,[],,,,,,50.0,0.0,u,0.0,True,671.0,41.0,63.0,40.0,False,,328.0729434390644,[],"[960, 540]",ColorTask,26.0,62.0,,,HRV,HRV_0102,2022-11-30 18:27:01
,wl-rdm,70,232397,0.0-6.62-0.62,0.0,70.0,,,,,,,[],,,,,,87.9,0.0,u,0.0,True,625.0,37.0,63.0,40.0,False,,256.1485240219052,[],"[960, 540]",ColorTask,27.0,63.0,,,HRV,HRV_0102,2022-11-30 18:27:01
,wl-rdm,71,234647,0.0-6.63-0.63,0.0,71.0,,,,,,,[],,,,,,87.9,1.0,i,1.0,True,755.0,44.0,63.0,40.0,False,,369.09692452249095,[],"[960, 540]",ColorTask,28.0,64.0,,,HRV,HRV_0102,2022-11-30 18:27:01
,wl-rdm,72,238546,0.0-6.64-0.64,0.0,72.0,,,,,,,[],,,,,,53.2,1.0,i,1.0,True,2401.0,130.0,63.0,40.0,False,,376.72570445338056,[],"[960, 540]",ColorTask,29.0,65.0,,,HRV,HRV_0102,2022-11-30 18:27:01
,wl-rdm,73,240646,0.0-6.65-0.65,0.0,73.0,,,,,,,[],,,,,,87.9,1.0,i,1.0,True,723.0,42.0,63.0,40.0,False,,299.5860355208553,[],"[960, 540]",ColorTask,30.0,66.0,,,HRV,HRV_0102,2022-11-30 18:27:01
,wl-rdm,74,243135,0.0-6.66-0.66,0.0,74.0,,,,,,,[],,,,,,50.0,1.0,u,0.0,False,1124.0,67.0,63.0,40.0,False,,275.7534255250465,[],"[960, 540]",ColorTask,29.0,67.0,,,HRV,HRV_0102,2022-11-30 18:27:01
,wl-rdm,75,245413,0.0-6.67-0.67,0.0,75.0,,,,,,,[],,,,,,56.4,1.0,i,1.0,True,887.0,51.0,63.0,40.0,False,,316.53831888465123,[],"[960, 540]",ColorTask,30.0,68.0,,,HRV,HRV_0102,2022-11-30 18:27:01
,wl-rdm,76,247645,0.0-6.68-0.68,0.0,76.0,,,,,,,[],,,,,,53.2,0.0,u,0.0,True,885.0,53.0,63.0,40.0,False,,285.8841468361355,[],"[960, 540]",ColorTask,31.0,69.0,,,HRV,HRV_0102,2022-11-30 18:27:01
,wl-rdm,77,249699,0.0-6.69-0.69,0.0,77.0,,,,,,,[],,,,,,87.9,0.0,u,0.0,True,625.0,38.0,63.0,40.0,False,,339.29700826279714,[],"[960, 540]",ColorTask,32.0,70.0,,,HRV,HRV_0102,2022-11-30 18:27:01
,wl-rdm,78,251712,0.0-6.70-0.70,0.0,78.0,,,,,,,[],,,,,,53.2,0.0,u,0.0,True,706.0,42.0,63.0,40.0,False,,240.86157261097753,[],"[960, 540]",ColorTask,33.0,71.0,,,HRV,HRV_0102,2022-11-30 18:27:01
,wl-rdm,79,254483,0.0-6.71-0.71,0.0,79.0,,,,,,,[],,,,,,50.0,0.0,u,0.0,True,1430.0,83.0,63.0,40.0,False,,230.92887528758945,[],"[960, 540]",ColorTask,34.0,72.0,,,HRV,HRV_0102,2022-11-30 18:27:01
,wl-rdm,80,257179,0.0-6.72-0.72,0.0,80.0,,,,,,,[],,,,,,56.4,1.0,u,0.0,False,1201.0,60.0,63.0,40.0,False,,379.7981215260925,[],"[960, 540]",ColorTask,33.0,73.0,,,HRV,HRV_0102,2022-11-30 18:27:01
,wl-rdm,81,260045,0.0-6.73-0.73,0.0,81.0,,,,,,,[],,,,,,53.2,1.0,u,0.0,False,1418.0,76.0,63.0,40.0,False,,375.2244967156264,[],"[960, 540]",ColorTask,32.0,74.0,,,HRV,HRV_0102,2022-11-30 18:27:01
,wl-rdm,82,262196,0.0-6.74-0.74,0.0,82.0,,,,,,,[],,,,,,56.4,0.0,u,0.0,True,813.0,46.0,63.0,40.0,False,,263.00037894416323,[],"[960, 540]",ColorTask,33.0,75.0,,,HRV,HRV_0102,2022-11-30 18:27:01
,wl-rdm,83,264479,0.0-6.75-0.75,0.0,83.0,,,,,,,[],,,,,,73.6,1.0,i,1.0,True,901.0,54.0,63.0,40.0,False,,265.8376804977552,[],"[960, 540]",ColorTask,34.0,76.0,,,HRV,HRV_0102,2022-11-30 18:27:01
,wl-rdm,84,267230,0.0-6.76-0.76,0.0,84.0,,,,,,,[],,,,,,62.5,0.0,u,0.0,True,1470.0,87.0,63.0,40.0,False,,212.94315275751967,[],"[960, 540]",ColorTask,35.0,77.0,,,HRV,HRV_0102,2022-11-30 18:27:01
,wl-rdm,85,269316,0.0-6.77-0.77,0.0,85.0,,,,,,,[],,,,,,53.2,0.0,u,0.0,True,726.0,43.0,63.0,40.0,False,,291.6205093844453,[],"[960, 540]",ColorTask,36.0,78.0,,,HRV,HRV_0102,2022-11-30 18:27:01
,wl-rdm,86,271861,0.0-6.78-0.78,0.0,86.0,,,,,,,[],,,,,,53.2,0.0,u,0.0,True,1221.0,73.0,63.0,40.0,False,,242.28197580635373,[],"[960, 540]",ColorTask,37.0,79.0,,,HRV,HRV_0102,2022-11-30 18:27:01
,wl-rdm,87,274345,0.0-6.79-0.79,0.0,87.0,,,,,,,[],,,,,,73.6,0.0,u,0.0,True,1106.0,65.0,63.0,40.0,False,,313.8255494958688,[],"[960, 540]",ColorTask,38.0,80.0,,,HRV,HRV_0102,2022-11-30 18:27:01
,wl-rdm,88,276928,0.0-6.80-0.80,0.0,88.0,,,,,,,[],,,,,,50.0,0.0,i,1.0,False,1153.0,69.0,63.0,40.0,False,,326.6586146792625,[],"[960, 540]",ColorTask,37.0,81.0,,,HRV,HRV_0102,2022-11-30 18:27:01
,wl-rdm,89,279200,0.0-6.81-0.81,0.0,89.0,,,,,,,[],,,,,,62.5,0.0,u,0.0,True,836.0,51.0,63.0,40.0,False,,369.7639917623347,[],"[960, 540]",ColorTask,38.0,82.0,,,HRV,HRV_0102,2022-11-30 18:27:01
,wl-rdm,90,282004,0.0-6.82-0.82,0.0,90.0,,,,,,,[],,,,,,50.0,0.0,u,0.0,True,1381.0,82.0,63.0,40.0,False,,330.0323437787109,[],"[960, 540]",ColorTask,39.0,83.0,,,HRV,HRV_0102,2022-11-30 18:27:01
,wl-rdm,91,284335,0.0-6.83-0.83,0.0,91.0,,,,,,,[],,,,,,73.6,0.0,u,0.0,True,933.0,46.0,63.0,40.0,False,,284.82480438913746,[],"[960, 540]",ColorTask,40.0,84.0,,,HRV,HRV_0102,2022-11-30 18:27:01
,wl-rdm,92,286663,0.0-6.84-0.84,0.0,92.0,,,,,,,[],,,,,,73.6,1.0,i,1.0,True,943.0,51.0,63.0,40.0,False,,294.42478370287074,[],"[960, 540]",ColorTask,41.0,85.0,,,HRV,HRV_0102,2022-11-30 18:27:01
,wl-rdm,93,288794,0.0-6.85-0.85,0.0,93.0,,,,,,,[],,,,,,56.4,1.0,i,1.0,True,804.0,44.0,63.0,40.0,False,,241.0325769742147,[],"[960, 540]",ColorTask,42.0,86.0,,,HRV,HRV_0102,2022-11-30 18:27:01
,wl-rdm,94,291112,0.0-6.86-0.86,0.0,94.0,,,,,,,[],,,,,,50.0,0.0,u,0.0,True,942.0,51.0,63.0,40.0,False,,296.4855750488868,[],"[960, 540]",ColorTask,43.0,87.0,,,HRV,HRV_0102,2022-11-30 18:27:01
,wl-rdm,95,293062,0.0-6.87-0.87,0.0,95.0,,,,,,,[],,,,,,73.6,1.0,u,0.0,False,663.0,40.0,63.0,40.0,False,,223.47358969642448,[],"[960, 540]",ColorTask,42.0,88.0,,,HRV,HRV_0102,2022-11-30 18:27:01
,wl-rdm,96,295096,0.0-6.88-0.88,0.0,96.0,,,,,,,[],,,,,,73.6,1.0,i,1.0,True,709.0,41.0,63.0,40.0,False,,259.43376316966607,[],"[960, 540]",ColorTask,43.0,89.0,,,HRV,HRV_0102,2022-11-30 18:27:01
,wl-rdm,97,297430,0.0-6.89-0.89,0.0,97.0,,,,,,,[],,,,,,50.0,1.0,i,1.0,True,1027.0,61.0,63.0,40.0,False,,246.42787576596578,[],"[960, 540]",ColorTask,44.0,90.0,,,HRV,HRV_0102,2022-11-30 18:27:01
,wl-rdm,98,299729,0.0-6.90-0.90,0.0,98.0,,,,,,,[],,,,,,53.2,0.0,i,1.0,False,867.0,48.0,63.0,40.0,False,,341.614847426556,[],"[960, 540]",ColorTask,43.0,91.0,,,HRV,HRV_0102,2022-11-30 18:27:01
,wl-rdm,99,302780,0.0-6.91-0.91,0.0,99.0,,,,,,,[],,,,,,62.5,1.0,i,1.0,True,1618.0,97.0,63.0,40.0,False,,354.0878414456239,[],"[960, 540]",ColorTask,44.0,92.0,,,HRV,HRV_0102,2022-11-30 18:27:01
,wl-rdm,100,305432,0.0-6.92-0.92,0.0,100.0,,,,,,,[],,,,,,50.0,0.0,i,1.0,False,1191.0,70.0,63.0,40.0,False,,345.39714216795903,[],"[960, 540]",ColorTask,43.0,93.0,,,HRV,HRV_0102,2022-11-30 18:27:01
,wl-rdm,101,308195,0.0-6.93-0.93,0.0,101.0,,,,,,,[],,,,,,56.4,0.0,i,1.0,False,1456.0,86.0,63.0,40.0,False,,256.6264324785873,[],"[960, 540]",ColorTask,42.0,94.0,,,HRV,HRV_0102,2022-11-30 18:27:01
,wl-rdm,102,310195,0.0-6.94-0.94,0.0,102.0,,,,,,,[],,,,,,50.0,1.0,u,0.0,False,583.0,36.0,63.0,40.0,False,,334.4360448381428,[],"[960, 540]",ColorTask,41.0,95.0,,,HRV,HRV_0102,2022-11-30 18:27:01
,wl-rdm,103,313094,0.0-6.95-0.95,0.0,103.0,,,,,,,[],,,,,,56.4,1.0,i,1.0,True,1443.0,68.0,63.0,40.0,False,,387.7607019488082,[],"[960, 540]",ColorTask,42.0,96.0,,,HRV,HRV_0102,2022-11-30 18:27:01
,wl-rdm,104,315446,0.0-6.96-0.96,0.0,104.0,,,,,,,[],,,,,,87.9,1.0,i,1.0,True,1044.0,52.0,63.0,40.0,False,,225.3743431836157,[],"[960, 540]",ColorTask,43.0,97.0,,,HRV,HRV_0102,2022-11-30 18:27:01
,wl-rdm,105,317621,0.0-6.97-0.97,0.0,105.0,,,,,,,[],,,,,,62.5,0.0,u,0.0,True,880.0,49.0,63.0,40.0,False,,206.59016587624592,[],"[960, 540]",ColorTask,44.0,98.0,,,HRV,HRV_0102,2022-11-30 18:27:01
,wl-rdm,106,320129,0.0-6.98-0.98,0.0,106.0,,,,,,,[],,,,,,62.5,1.0,i,1.0,True,1118.0,66.0,63.0,40.0,False,,349.8064517080795,[],"[960, 540]",ColorTask,45.0,99.0,,,HRV,HRV_0102,2022-11-30 18:27:01
,wl-rdm,107,322479,0.0-6.99-0.99,0.0,107.0,,,,,,,[],,,,,,56.4,0.0,i,1.0,False,978.0,59.0,63.0,40.0,False,,295.3845685214974,[],"[960, 540]",ColorTask,44.0,100.0,,,HRV,HRV_0102,2022-11-30 18:27:01
,wl-rdm,108,325284,0.0-6.100-0.100,0.0,108.0,,,,,,,[],,,,,,53.2,1.0,i,1.0,True,1350.0,81.0,63.0,40.0,False,,360.6309079976288,[],"[960, 540]",ColorTask,45.0,101.0,,,HRV,HRV_0102,2022-11-30 18:27:01
,wl-rdm,109,327412,0.0-6.101-0.101,0.0,109.0,,,,,,,[],,,,,,73.6,0.0,u,0.0,True,823.0,49.0,63.0,40.0,False,,242.5757750286528,[],"[960, 540]",ColorTask,46.0,102.0,,,HRV,HRV_0102,2022-11-30 18:27:01
,wl-rdm,110,329429,0.0-6.102-0.102,0.0,110.0,,,,,,,[],,,,,,87.9,0.0,u,0.0,True,635.0,38.0,63.0,40.0,False,,300.75712312780604,[],"[960, 540]",ColorTask,47.0,103.0,,,HRV,HRV_0102,2022-11-30 18:27:01
,wl-rdm,111,331464,0.0-6.103-0.103,0.0,111.0,,,,,,,[],,,,,,87.9,0.0,u,0.0,True,692.0,42.0,63.0,40.0,False,,271.0164427204401,[],"[960, 540]",ColorTask,48.0,104.0,,,HRV,HRV_0102,2022-11-30 18:27:01
,wl-rdm,112,333420,0.0-6.104-0.104,0.0,112.0,,,,,,,[],,,,,,87.9,0.0,u,0.0,True,521.0,27.0,63.0,40.0,False,,363.47438542697864,[],"[960, 540]",ColorTask,49.0,105.0,,,HRV,HRV_0102,2022-11-30 18:27:01
,wl-rdm,113,335430,0.0-6.105-0.105,0.0,113.0,,,,,,,[],,,,,,87.9,1.0,i,1.0,True,665.0,32.0,63.0,40.0,False,,252.1119396407487,[],"[960, 540]",ColorTask,50.0,106.0,,,HRV,HRV_0102,2022-11-30 18:27:01
,wl-rdm,114,337596,0.0-6.106-0.106,0.0,114.0,,,,,,,[],,,,,,87.9,0.0,u,0.0,True,637.0,33.0,63.0,40.0,False,,393.61578405312684,[],"[960, 540]",ColorTask,51.0,107.0,,,HRV,HRV_0102,2022-11-30 18:27:01
,wl-rdm,115,339643,0.0-6.107-0.107,0.0,115.0,,,,,,,[],,,,,,87.9,1.0,i,1.0,True,704.0,40.0,63.0,40.0,False,,265.1828068293124,[],"[960, 540]",ColorTask,52.0,108.0,,,HRV,HRV_0102,2022-11-30 18:27:01
,wl-rdm,116,342004,0.0-6.108-0.108,0.0,116.0,,,,,,,[],,,,,,56.4,1.0,i,1.0,True,942.0,56.0,63.0,40.0,False,,338.60540378444136,[],"[960, 540]",ColorTask,53.0,109.0,,,HRV,HRV_0102,2022-11-30 18:27:01
,wl-html-keyboard-response,117,412770,0.0-7.0-0.0,1.0,117.0,,,,,,,,68755.0,1.0,0,,,,,,,,,,,,,,,,,,,,,,HRV,HRV_0102,2022-11-30 18:27:01
,wl-rdm,118,415293,0.0-8.0-0.0,1.0,118.0,,,,,,,[],,,,,,73.6,0.0,u,0.0,True,1069.0,64.0,63.0,40.0,False,,377.43271754203124,[],"[960, 540]",ColorTask,54.0,1.0,,,HRV,HRV_0102,2022-11-30 18:27:01
,wl-rdm,119,417710,0.0-8.1-0.1,1.0,119.0,,,,,,,[],,,,,,50.0,1.0,u,0.0,False,1075.0,65.0,63.0,40.0,False,,278.10364671945877,[],"[960, 540]",ColorTask,53.0,2.0,,,HRV,HRV_0102,2022-11-30 18:27:01
,wl-rdm,120,420277,0.0-8.2-0.2,1.0,120.0,,,,,,,[],,,,,,50.0,0.0,u,0.0,True,1263.0,73.0,63.0,40.0,False,,226.88646168899973,[],"[960, 540]",ColorTask,54.0,3.0,,,HRV,HRV_0102,2022-11-30 18:27:01
,wl-rdm,121,422427,0.0-8.3-0.3,1.0,121.0,,,,,,,[],,,,,,87.9,0.0,u,0.0,True,689.0,41.0,63.0,40.0,False,,390.69751955435197,[],"[960, 540]",ColorTask,55.0,4.0,,,HRV,HRV_0102,2022-11-30 18:27:01
,wl-rdm,122,425026,0.0-8.4-0.4,1.0,122.0,,,,,,,[],,,,,,53.2,1.0,i,1.0,True,1124.0,68.0,63.0,40.0,False,,397.84576938387545,[],"[960, 540]",ColorTask,56.0,5.0,,,HRV,HRV_0102,2022-11-30 18:27:01
,wl-rdm,123,427210,0.0-8.5-0.5,1.0,123.0,,,,,,,[],,,,,,87.9,1.0,i,1.0,True,860.0,48.0,63.0,40.0,False,,251.7281676692446,[],"[960, 540]",ColorTask,57.0,6.0,,,HRV,HRV_0102,2022-11-30 18:27:01
,wl-rdm,124,429626,0.0-8.6-0.6,1.0,124.0,,,,,,,[],,,,,,62.5,0.0,i,1.0,False,1005.0,54.0,63.0,40.0,False,,351.09057487765796,[],"[960, 540]",ColorTask,56.0,7.0,,,HRV,HRV_0102,2022-11-30 18:27:01
,wl-rdm,125,432326,0.0-8.7-0.7,1.0,125.0,,,,,,,[],,,,,,50.0,0.0,i,1.0,False,1246.0,73.0,63.0,40.0,False,,375.3191481320175,[],"[960, 540]",ColorTask,55.0,8.0,,,HRV,HRV_0102,2022-11-30 18:27:01
,wl-rdm,126,434626,0.0-8.8-0.8,1.0,126.0,,,,,,,[],,,,,,53.2,0.0,u,0.0,True,981.0,53.0,63.0,40.0,False,,259.947902995069,[],"[960, 540]",ColorTask,56.0,9.0,,,HRV,HRV_0102,2022-11-30 18:27:01
,wl-rdm,127,436760,0.0-8.9-0.9,1.0,127.0,,,,,,,[],,,,,,87.9,0.0,u,0.0,True,738.0,35.0,63.0,40.0,False,,315.1168133721627,[],"[960, 540]",ColorTask,57.0,10.0,,,HRV,HRV_0102,2022-11-30 18:27:01
,wl-rdm,128,438877,0.0-8.10-0.10,1.0,128.0,,,,,,,[],,,,,,56.4,1.0,i,1.0,True,806.0,48.0,63.0,40.0,False,,232.9828925864192,[],"[960, 540]",ColorTask,58.0,11.0,,,HRV,HRV_0102,2022-11-30 18:27:01
,wl-rdm,129,441259,0.0-8.11-0.11,1.0,129.0,,,,,,,[],,,,,,53.2,0.0,u,0.0,True,972.0,57.0,63.0,40.0,False,,331.8663412644396,[],"[960, 540]",ColorTask,59.0,12.0,,,HRV,HRV_0102,2022-11-30 18:27:01
,wl-rdm,130,443711,0.0-8.12-0.12,1.0,130.0,,,,,,,[],,,,,,87.9,1.0,i,1.0,True,1106.0,66.0,63.0,40.0,False,,291.99324561401164,[],"[960, 540]",ColorTask,60.0,13.0,,,HRV,HRV_0102,2022-11-30 18:27:01
,wl-rdm,131,446243,0.0-8.13-0.13,1.0,131.0,,,,,,,[],,,,,,62.5,0.0,i,1.0,False,1210.0,73.0,63.0,40.0,False,,239.19723614154339,[],"[960, 540]",ColorTask,59.0,14.0,,,HRV,HRV_0102,2022-11-30 18:27:01
,wl-rdm,132,448227,0.0-8.14-0.14,1.0,132.0,,,,,,,[],,,,,,56.4,0.0,u,0.0,True,689.0,41.0,63.0,40.0,False,,217.3145472709281,[],"[960, 540]",ColorTask,60.0,15.0,,,HRV,HRV_0102,2022-11-30 18:27:01
,wl-rdm,133,451108,0.0-8.15-0.15,1.0,133.0,,,,,,,[],,,,,,50.0,1.0,i,1.0,True,1477.0,77.0,63.0,40.0,False,,336.6188502607605,[],"[960, 540]",ColorTask,61.0,16.0,,,HRV,HRV_0102,2022-11-30 18:27:01
,wl-rdm,134,453380,0.0-8.16-0.16,1.0,134.0,,,,,,,[],,,,,,73.6,1.0,i,1.0,True,852.0,41.0,63.0,40.0,False,,334.78867938443113,[],"[960, 540]",ColorTask,62.0,17.0,,,HRV,HRV_0102,2022-11-30 18:27:01
,wl-rdm,135,455476,0.0-8.17-0.17,1.0,135.0,,,,,,,[],,,,,,73.6,1.0,i,1.0,True,761.0,44.0,63.0,40.0,False,,276.95622701095965,[],"[960, 540]",ColorTask,63.0,18.0,,,HRV,HRV_0102,2022-11-30 18:27:01
,wl-rdm,136,457587,0.0-8.18-0.18,1.0,136.0,,,,,,,[],,,,,,62.5,1.0,i,1.0,True,715.0,39.0,63.0,40.0,False,,267.3602202612698,[],"[960, 540]",ColorTask,64.0,19.0,,,HRV,HRV_0102,2022-11-30 18:27:01
,wl-rdm,137,459609,0.0-8.19-0.19,1.0,137.0,,,,,,,[],,,,,,87.9,1.0,i,1.0,True,693.0,39.0,63.0,40.0,False,,227.7944284643979,[],"[960, 540]",ColorTask,65.0,20.0,,,HRV,HRV_0102,2022-11-30 18:27:01
,wl-rdm,138,461942,0.0-8.20-0.20,1.0,138.0,,,,,,,[],,,,,,62.5,0.0,u,0.0,True,1032.0,62.0,63.0,40.0,False,,212.2989467038431,[],"[960, 540]",ColorTask,66.0,21.0,,,HRV,HRV_0102,2022-11-30 18:27:01
,wl-rdm,139,464212,0.0-8.21-0.21,1.0,139.0,,,,,,,[],,,,,,53.2,1.0,u,0.0,False,911.0,49.0,63.0,40.0,False,,276.29397621780123,[],"[960, 540]",ColorTask,65.0,22.0,,,HRV,HRV_0102,2022-11-30 18:27:01
,wl-rdm,140,466726,0.0-8.22-0.22,1.0,140.0,,,,,,,[],,,,,,53.2,0.0,i,1.0,False,1226.0,65.0,63.0,40.0,False,,221.37307548717254,[],"[960, 540]",ColorTask,64.0,23.0,,,HRV,HRV_0102,2022-11-30 18:27:01
,wl-rdm,141,469450,0.0-8.23-0.23,1.0,141.0,,,,,,,[],,,,,,56.4,0.0,i,1.0,False,1224.0,65.0,63.0,40.0,False,,342.95455292855615,[],"[960, 540]",ColorTask,63.0,24.0,,,HRV,HRV_0102,2022-11-30 18:27:01
,wl-rdm,142,471932,0.0-8.24-0.24,1.0,142.0,,,,,,,[],,,,,,62.5,1.0,i,1.0,True,1078.0,64.0,63.0,40.0,False,,318.0344800167614,[],"[960, 540]",ColorTask,64.0,25.0,,,HRV,HRV_0102,2022-11-30 18:27:01
,wl-rdm,143,474529,0.0-8.25-0.25,1.0,143.0,,,,,,,[],,,,,,50.0,0.0,i,1.0,False,1251.0,73.0,63.0,40.0,False,,265.0138975074157,[],"[960, 540]",ColorTask,63.0,26.0,,,HRV,HRV_0102,2022-11-30 18:27:01
,wl-rdm,144,476977,0.0-8.26-0.26,1.0,144.0,,,,,,,[],,,,,,53.2,1.0,i,1.0,True,1128.0,57.0,63.0,40.0,False,,243.7286669920939,[],"[960, 540]",ColorTask,64.0,27.0,,,HRV,HRV_0102,2022-11-30 18:27:01
,wl-rdm,145,478942,0.0-8.27-0.27,1.0,145.0,,,,,,,[],,,,,,87.9,0.0,u,0.0,True,564.0,35.0,63.0,40.0,False,,267.097918240078,[],"[960, 540]",ColorTask,65.0,28.0,,,HRV,HRV_0102,2022-11-30 18:27:01
,wl-rdm,146,481176,0.0-8.28-0.28,1.0,146.0,,,,,,,[],,,,,,56.4,1.0,i,1.0,True,791.0,45.0,63.0,40.0,False,,361.2501485320342,[],"[960, 540]",ColorTask,66.0,29.0,,,HRV,HRV_0102,2022-11-30 18:27:01
,wl-rdm,147,484663,0.0-8.29-0.29,1.0,147.0,,,,,,,[],,,,,,50.0,1.0,i,1.0,True,2004.0,117.0,63.0,40.0,False,,379.46256407834824,[],"[960, 540]",ColorTask,67.0,30.0,,,HRV,HRV_0102,2022-11-30 18:27:01
,wl-rdm,148,487177,0.0-8.30-0.30,1.0,148.0,,,,,,,[],,,,,,56.4,0.0,i,1.0,False,1145.0,56.0,63.0,40.0,False,,301.81753065360465,[],"[960, 540]",ColorTask,66.0,31.0,,,HRV,HRV_0102,2022-11-30 18:27:01
,wl-rdm,149,489393,0.0-8.31-0.31,1.0,149.0,,,,,,,[],,,,,,87.9,0.0,u,0.0,True,884.0,48.0,63.0,40.0,False,,262.6295914208224,[],"[960, 540]",ColorTask,67.0,32.0,,,HRV,HRV_0102,2022-11-30 18:27:01
,wl-rdm,150,491478,0.0-8.32-0.32,1.0,150.0,,,,,,,[],,,,,,62.5,0.0,u,0.0,True,739.0,42.0,63.0,40.0,False,,295.3026933190663,[],"[960, 540]",ColorTask,68.0,33.0,,,HRV,HRV_0102,2022-11-30 18:27:01
,wl-rdm,151,493966,0.0-8.33-0.33,1.0,151.0,,,,,,,[],,,,,,73.6,1.0,i,1.0,True,1140.0,70.0,63.0,40.0,False,,256.18361727153865,[],"[960, 540]",ColorTask,69.0,34.0,,,HRV,HRV_0102,2022-11-30 18:27:01
,wl-rdm,152,496378,0.0-8.34-0.34,1.0,152.0,,,,,,,[],,,,,,73.6,0.0,u,0.0,True,1037.0,62.0,63.0,40.0,False,,326.0995793362389,[],"[960, 540]",ColorTask,70.0,35.0,,,HRV,HRV_0102,2022-11-30 18:27:01
,wl-rdm,153,498860,0.0-8.35-0.35,1.0,153.0,,,,,,,[],,,,,,73.6,1.0,i,1.0,True,1121.0,63.0,63.0,40.0,False,,314.9171135710557,[],"[960, 540]",ColorTask,71.0,36.0,,,HRV,HRV_0102,2022-11-30 18:27:01
,wl-rdm,154,501859,0.0-8.36-0.36,1.0,154.0,,,,,,,[],,,,,,73.6,1.0,i,1.0,True,1694.0,101.0,63.0,40.0,False,,248.64080704958388,[],"[960, 540]",ColorTask,72.0,37.0,,,HRV,HRV_0102,2022-11-30 18:27:01
,wl-rdm,155,504729,0.0-8.37-0.37,1.0,155.0,,,,,,,[],,,,,,53.2,0.0,u,0.0,True,1544.0,81.0,63.0,40.0,False,,258.07450152874884,[],"[960, 540]",ColorTask,73.0,38.0,,,HRV,HRV_0102,2022-11-30 18:27:01
,wl-rdm,156,507159,0.0-8.38-0.38,1.0,156.0,,,,,,,[],,,,,,50.0,0.0,i,1.0,False,1072.0,61.0,63.0,40.0,False,,274.59754804170433,[],"[960, 540]",ColorTask,72.0,39.0,,,HRV,HRV_0102,2022-11-30 18:27:01
,wl-rdm,157,510127,0.0-8.39-0.39,1.0,157.0,,,,,,,[],,,,,,56.4,0.0,i,1.0,False,1687.0,100.0,63.0,40.0,False,,211.29210630150146,[],"[960, 540]",ColorTask,71.0,40.0,,,HRV,HRV_0102,2022-11-30 18:27:01
,wl-rdm,158,512593,0.0-8.40-0.40,1.0,158.0,,,,,,,[],,,,,,50.0,1.0,i,1.0,True,1101.0,57.0,63.0,40.0,False,,285.2842443854861,[],"[960, 540]",ColorTask,72.0,41.0,,,HRV,HRV_0102,2022-11-30 18:27:01
,wl-rdm,159,514777,0.0-8.41-0.41,1.0,159.0,,,,,,,[],,,,,,73.6,0.0,u,0.0,True,769.0,36.0,63.0,40.0,False,,325.4190113225199,[],"[960, 540]",ColorTask,73.0,42.0,,,HRV,HRV_0102,2022-11-30 18:27:01
,wl-rdm,160,516975,0.0-8.42-0.42,1.0,160.0,,,,,,,[],,,,,,87.9,1.0,i,1.0,True,737.0,44.0,63.0,40.0,False,,366.17715121577567,[],"[960, 540]",ColorTask,74.0,43.0,,,HRV,HRV_0102,2022-11-30 18:27:01
,wl-rdm,161,519296,0.0-8.43-0.43,1.0,161.0,,,,,,,[],,,,,,87.9,1.0,u,0.0,False,963.0,58.0,63.0,40.0,False,,272.1367195492923,[],"[960, 540]",ColorTask,73.0,44.0,,,HRV,HRV_0102,2022-11-30 18:27:01
,wl-rdm,162,521493,0.0-8.44-0.44,1.0,162.0,,,,,,,[],,,,,,50.0,1.0,u,0.0,False,881.0,53.0,63.0,40.0,False,,258.37815187208713,[],"[960, 540]",ColorTask,72.0,45.0,,,HRV,HRV_0102,2022-11-30 18:27:01
,wl-rdm,163,523747,0.0-8.45-0.45,1.0,163.0,,,,,,,[],,,,,,87.9,0.0,u,0.0,True,829.0,50.0,63.0,40.0,False,,362.50621187752466,[],"[960, 540]",ColorTask,73.0,46.0,,,HRV,HRV_0102,2022-11-30 18:27:01
,wl-rdm,164,525742,0.0-8.46-0.46,1.0,164.0,,,,,,,[],,,,,,73.6,1.0,i,1.0,True,636.0,39.0,63.0,40.0,False,,290.2022433123651,[],"[960, 540]",ColorTask,74.0,47.0,,,HRV,HRV_0102,2022-11-30 18:27:01
,wl-rdm,165,527993,0.0-8.47-0.47,1.0,165.0,,,,,,,[],,,,,,62.5,1.0,i,1.0,True,855.0,49.0,63.0,40.0,False,,346.67031356454413,[],"[960, 540]",ColorTask,75.0,48.0,,,HRV,HRV_0102,2022-11-30 18:27:01
,wl-rdm,166,529976,0.0-8.48-0.48,1.0,166.0,,,,,,,[],,,,,,87.9,1.0,i,1.0,True,643.0,38.0,63.0,40.0,False,,260.2509485992025,[],"[960, 540]",ColorTask,76.0,49.0,,,HRV,HRV_0102,2022-11-30 18:27:01
,wl-rdm,167,531858,0.0-8.49-0.49,1.0,167.0,,,,,,,[],,,,,,73.6,1.0,i,1.0,True,548.0,33.0,63.0,40.0,False,,267.1247136511692,[],"[960, 540]",ColorTask,77.0,50.0,,,HRV,HRV_0102,2022-11-30 18:27:01
,wl-rdm,168,533995,0.0-8.50-0.50,1.0,168.0,,,,,,,[],,,,,,73.6,0.0,u,0.0,True,786.0,47.0,63.0,40.0,False,,264.55347183924005,[],"[960, 540]",ColorTask,78.0,51.0,,,HRV,HRV_0102,2022-11-30 18:27:01
,wl-rdm,169,536041,0.0-8.51-0.51,1.0,169.0,,,,,,,[],,,,,,50.0,1.0,i,1.0,True,736.0,43.0,63.0,40.0,False,,203.7288700167044,[],"[960, 540]",ColorTask,79.0,52.0,,,HRV,HRV_0102,2022-11-30 18:27:01
,wl-rdm,170,538177,0.0-8.52-0.52,1.0,170.0,,,,,,,[],,,,,,56.4,0.0,u,0.0,True,773.0,43.0,63.0,40.0,False,,266.5777728942335,[],"[960, 540]",ColorTask,80.0,53.0,,,HRV,HRV_0102,2022-11-30 18:27:01
,wl-rdm,171,540766,0.0-8.53-0.53,1.0,171.0,,,,,,,[],,,,,,56.4,0.0,u,0.0,True,1163.0,65.0,63.0,40.0,False,,338.01367229792504,[],"[960, 540]",ColorTask,81.0,54.0,,,HRV,HRV_0102,2022-11-30 18:27:01
,wl-rdm,172,543041,0.0-8.54-0.54,1.0,172.0,,,,,,,[],,,,,,50.0,0.0,i,1.0,False,841.0,44.0,63.0,40.0,False,,239.31671618131378,[],"[960, 540]",ColorTask,80.0,55.0,,,HRV,HRV_0102,2022-11-30 18:27:01
,wl-rdm,173,545725,0.0-8.55-0.55,1.0,173.0,,,,,,,[],,,,,,62.5,0.0,i,1.0,False,1346.0,76.0,63.0,40.0,False,,253.76350125962486,[],"[960, 540]",ColorTask,79.0,56.0,,,HRV,HRV_0102,2022-11-30 18:27:01
,wl-rdm,174,548308,0.0-8.56-0.56,1.0,174.0,,,,,,,[],,,,,,62.5,0.0,u,0.0,True,1246.0,69.0,63.0,40.0,False,,261.3871084700846,[],"[960, 540]",ColorTask,80.0,57.0,,,HRV,HRV_0102,2022-11-30 18:27:01
,wl-rdm,175,550574,0.0-8.57-0.57,1.0,175.0,,,,,,,[],,,,,,53.2,0.0,i,1.0,False,861.0,52.0,63.0,40.0,False,,326.5017059936404,[],"[960, 540]",ColorTask,79.0,58.0,,,HRV,HRV_0102,2022-11-30 18:27:01
,wl-rdm,176,553774,0.0-8.58-0.58,1.0,176.0,,,,,,,[],,,,,,50.0,0.0,i,1.0,False,1764.0,102.0,63.0,40.0,False,,367.8905249151037,[],"[960, 540]",ColorTask,78.0,59.0,,,HRV,HRV_0102,2022-11-30 18:27:01
,wl-rdm,177,555825,0.0-8.59-0.59,1.0,177.0,,,,,,,[],,,,,,87.9,0.0,u,0.0,True,704.0,42.0,63.0,40.0,False,,255.45484286292728,[],"[960, 540]",ColorTask,79.0,60.0,,,HRV,HRV_0102,2022-11-30 18:27:01
,wl-rdm,178,557911,0.0-8.60-0.60,1.0,178.0,,,,,,,[],,,,,,50.0,0.0,u,0.0,True,746.0,45.0,63.0,40.0,False,,250.9159445696899,[],"[960, 540]",ColorTask,80.0,61.0,,,HRV,HRV_0102,2022-11-30 18:27:01
,wl-rdm,179,560024,0.0-8.61-0.61,1.0,179.0,,,,,,,[],,,,,,62.5,1.0,i,1.0,True,698.0,42.0,63.0,40.0,False,,316.8727513844913,[],"[960, 540]",ColorTask,81.0,62.0,,,HRV,HRV_0102,2022-11-30 18:27:01
,wl-rdm,180,562796,0.0-8.62-0.62,1.0,180.0,,,,,,,[],,,,,,53.2,1.0,i,1.0,True,1421.0,83.0,63.0,40.0,False,,253.79458269785007,[],"[960, 540]",ColorTask,82.0,63.0,,,HRV,HRV_0102,2022-11-30 18:27:01
,wl-rdm,181,564983,0.0-8.63-0.63,1.0,181.0,,,,,,,[],,,,,,56.4,1.0,i,1.0,True,709.0,43.0,63.0,40.0,False,,388.8189109031074,[],"[960, 540]",ColorTask,83.0,64.0,,,HRV,HRV_0102,2022-11-30 18:27:01
,wl-rdm,182,567240,0.0-8.64-0.64,1.0,182.0,,,,,,,[],,,,,,56.4,1.0,i,1.0,True,776.0,44.0,63.0,40.0,False,,394.9147099232218,[],"[960, 540]",ColorTask,84.0,65.0,,,HRV,HRV_0102,2022-11-30 18:27:01
,wl-rdm,183,569208,0.0-8.65-0.65,1.0,183.0,,,,,,,[],,,,,,87.9,1.0,i,1.0,True,675.0,41.0,63.0,40.0,False,,226.7915661788535,[],"[960, 540]",ColorTask,85.0,66.0,,,HRV,HRV_0102,2022-11-30 18:27:01
,wl-rdm,184,571474,0.0-8.66-0.66,1.0,184.0,,,,,,,[],,,,,,53.2,0.0,i,1.0,False,981.0,48.0,63.0,40.0,False,,211.30767573660722,[],"[960, 540]",ColorTask,84.0,67.0,,,HRV,HRV_0102,2022-11-30 18:27:01
,wl-rdm,185,573941,0.0-8.67-0.67,1.0,185.0,,,,,,,[],,,,,,50.0,1.0,i,1.0,True,1170.0,60.0,63.0,40.0,False,,219.89961966393793,[],"[960, 540]",ColorTask,85.0,68.0,,,HRV,HRV_0102,2022-11-30 18:27:01
,wl-rdm,186,576524,0.0-8.68-0.68,1.0,186.0,,,,,,,[],,,,,,53.2,1.0,i,1.0,True,1272.0,69.0,63.0,40.0,False,,227.05732703937275,[],"[960, 540]",ColorTask,86.0,69.0,,,HRV,HRV_0102,2022-11-30 18:27:01
,wl-rdm,187,578940,0.0-8.69-0.69,1.0,187.0,,,,,,,[],,,,,,73.6,1.0,i,1.0,True,962.0,58.0,63.0,40.0,False,,373.2476820672251,[],"[960, 540]",ColorTask,87.0,70.0,,,HRV,HRV_0102,2022-11-30 18:27:01
,wl-rdm,188,581206,0.0-8.70-0.70,1.0,188.0,,,,,,,[],,,,,,87.9,0.0,u,0.0,True,832.0,50.0,63.0,40.0,False,,364.7515271867169,[],"[960, 540]",ColorTask,88.0,71.0,,,HRV,HRV_0102,2022-11-30 18:27:01
,wl-rdm,189,583807,0.0-8.71-0.71,1.0,189.0,,,,,,,[],,,,,,53.2,0.0,i,1.0,False,1118.0,66.0,63.0,40.0,False,,345.1328487313381,[],"[960, 540]",ColorTask,87.0,72.0,,,HRV,HRV_0102,2022-11-30 18:27:01
,wl-rdm,190,586907,0.0-8.72-0.72,1.0,190.0,,,,,,,[],,,,,,62.5,0.0,i,1.0,False,1713.0,103.0,63.0,40.0,False,,325.8837937709895,[],"[960, 540]",ColorTask,86.0,73.0,,,HRV,HRV_0102,2022-11-30 18:27:01
,wl-rdm,191,589774,0.0-8.73-0.73,1.0,191.0,,,,,,,[],,,,,,62.5,1.0,i,1.0,True,1550.0,90.0,63.0,40.0,False,,235.91334744704247,[],"[960, 540]",ColorTask,87.0,74.0,,,HRV,HRV_0102,2022-11-30 18:27:01
,wl-rdm,192,592058,0.0-8.74-0.74,1.0,192.0,,,,,,,[],,,,,,62.5,0.0,u,0.0,True,826.0,50.0,63.0,40.0,False,,398.3989037630856,[],"[960, 540]",ColorTask,88.0,75.0,,,HRV,HRV_0102,2022-11-30 18:27:01
,wl-rdm,193,594874,0.0-8.75-0.75,1.0,193.0,,,,,,,[],,,,,,56.4,1.0,i,1.0,True,1336.0,72.0,63.0,40.0,False,,381.2548470105069,[],"[960, 540]",ColorTask,89.0,76.0,,,HRV,HRV_0102,2022-11-30 18:27:01
,wl-rdm,194,597458,0.0-8.76-0.76,1.0,194.0,,,,,,,[],,,,,,62.5,0.0,u,0.0,True,1278.0,64.0,63.0,40.0,False,,235.6337126803289,[],"[960, 540]",ColorTask,90.0,77.0,,,HRV,HRV_0102,2022-11-30 18:27:01
,wl-rdm,195,599657,0.0-8.77-0.77,1.0,195.0,,,,,,,[],,,,,,53.2,1.0,i,1.0,True,842.0,47.0,63.0,40.0,False,,283.47719239798226,[],"[960, 540]",ColorTask,91.0,78.0,,,HRV,HRV_0102,2022-11-30 18:27:01
,wl-rdm,196,602007,0.0-8.78-0.78,1.0,196.0,,,,,,,[],,,,,,53.2,0.0,u,0.0,True,888.0,54.0,63.0,40.0,False,,386.46354733232266,[],"[960, 540]",ColorTask,92.0,79.0,,,HRV,HRV_0102,2022-11-30 18:27:01
,wl-rdm,197,604596,0.0-8.79-0.79,1.0,197.0,,,,,,,[],,,,,,56.4,0.0,u,0.0,True,1306.0,76.0,63.0,40.0,False,,212.51221835791577,[],"[960, 540]",ColorTask,93.0,80.0,,,HRV,HRV_0102,2022-11-30 18:27:01
,wl-rdm,198,607273,0.0-8.80-0.80,1.0,198.0,,,,,,,[],,,,,,56.4,1.0,i,1.0,True,1372.0,82.0,63.0,40.0,False,,235.76799692127338,[],"[960, 540]",ColorTask,94.0,81.0,,,HRV,HRV_0102,2022-11-30 18:27:01
,wl-rdm,199,610457,0.0-8.81-0.81,1.0,199.0,,,,,,,[],,,,,,53.2,1.0,u,0.0,False,1906.0,111.0,63.0,40.0,False,,208.62791618074274,[],"[960, 540]",ColorTask,93.0,82.0,,,HRV,HRV_0102,2022-11-30 18:27:01
,wl-rdm,200,612907,0.0-8.82-0.82,1.0,200.0,,,,,,,[],,,,,,87.9,1.0,i,1.0,True,1163.0,69.0,63.0,40.0,False,,201.01320798155257,[],"[960, 540]",ColorTask,94.0,83.0,,,HRV,HRV_0102,2022-11-30 18:27:01
,wl-rdm,201,614940,0.0-8.83-0.83,1.0,201.0,,,,,,,[],,,,,,73.6,0.0,u,0.0,True,778.0,46.0,63.0,40.0,False,,209.97937746954622,[],"[960, 540]",ColorTask,95.0,84.0,,,HRV,HRV_0102,2022-11-30 18:27:01
,wl-rdm,202,618240,0.0-8.84-0.84,1.0,202.0,,,,,,,[],,,,,,50.0,1.0,i,1.0,True,1949.0,117.0,63.0,40.0,False,,289.3616380582139,[],"[960, 540]",ColorTask,96.0,85.0,,,HRV,HRV_0102,2022-11-30 18:27:01
,wl-rdm,203,620840,0.0-8.85-0.85,1.0,203.0,,,,,,,[],,,,,,56.4,1.0,i,1.0,True,1011.0,46.0,63.0,40.0,False,,379.4632337399121,[],"[960, 540]",ColorTask,97.0,86.0,,,HRV,HRV_0102,2022-11-30 18:27:01
,wl-rdm,204,623312,0.0-8.86-0.86,1.0,204.0,,,,,,,[],,,,,,62.5,1.0,i,1.0,True,1153.0,59.0,63.0,40.0,False,,239.07412454146663,[],"[960, 540]",ColorTask,98.0,87.0,,,HRV,HRV_0102,2022-11-30 18:27:01
,wl-rdm,205,625623,0.0-8.87-0.87,1.0,205.0,,,,,,,[],,,,,,56.4,0.0,i,1.0,False,936.0,43.0,63.0,40.0,False,,289.27039608883797,[],"[960, 540]",ColorTask,97.0,88.0,,,HRV,HRV_0102,2022-11-30 18:27:01
,wl-rdm,206,627740,0.0-8.88-0.88,1.0,206.0,,,,,,,[],,,,,,73.6,0.0,u,0.0,True,779.0,46.0,63.0,40.0,False,,256.68721891480016,[],"[960, 540]",ColorTask,98.0,89.0,,,HRV,HRV_0102,2022-11-30 18:27:01
,wl-rdm,207,629942,0.0-8.89-0.89,1.0,207.0,,,,,,,[],,,,,,62.5,1.0,i,1.0,True,862.0,52.0,63.0,40.0,False,,260.5975925699669,[],"[960, 540]",ColorTask,99.0,90.0,,,HRV,HRV_0102,2022-11-30 18:27:01
,wl-rdm,208,631973,0.0-8.90-0.90,1.0,208.0,,,,,,,[],,,,,,87.9,0.0,u,0.0,True,745.0,45.0,63.0,40.0,False,,210.58111018397787,[],"[960, 540]",ColorTask,100.0,91.0,,,HRV,HRV_0102,2022-11-30 18:27:01
,wl-rdm,209,636023,0.0-8.91-0.91,1.0,209.0,,,,,,,[],,,,,,53.2,1.0,i,1.0,True,2579.0,152.0,63.0,40.0,False,,366.37359349715314,[],"[960, 540]",ColorTask,101.0,92.0,,,HRV,HRV_0102,2022-11-30 18:27:01
,wl-rdm,210,638175,0.0-8.92-0.92,1.0,210.0,,,,,,,[],,,,,,62.5,1.0,i,1.0,True,866.0,50.0,63.0,40.0,False,,225.49816227892453,[],"[960, 540]",ColorTask,102.0,93.0,,,HRV,HRV_0102,2022-11-30 18:27:01
,wl-rdm,211,640607,0.0-8.93-0.93,1.0,211.0,,,,,,,[],,,,,,73.6,1.0,i,1.0,True,1136.0,69.0,63.0,40.0,False,,234.30746104323651,[],"[960, 540]",ColorTask,103.0,94.0,,,HRV,HRV_0102,2022-11-30 18:27:01
,wl-rdm,212,643130,0.0-8.94-0.94,1.0,212.0,,,,,,,[],,,,,,53.2,1.0,u,0.0,False,1177.0,69.0,63.0,40.0,False,,269.2405743744727,[],"[960, 540]",ColorTask,102.0,95.0,,,HRV,HRV_0102,2022-11-30 18:27:01
,wl-rdm,213,645357,0.0-8.95-0.95,1.0,213.0,,,,,,,[],,,,,,73.6,0.0,u,0.0,True,806.0,47.0,63.0,40.0,False,,321.0545185698988,[],"[960, 540]",ColorTask,103.0,96.0,,,HRV,HRV_0102,2022-11-30 18:27:01
,wl-rdm,214,647623,0.0-8.96-0.96,1.0,214.0,,,,,,,[],,,,,,87.9,1.0,i,1.0,True,905.0,49.0,63.0,40.0,False,,244.43389182415135,[],"[960, 540]",ColorTask,104.0,97.0,,,HRV,HRV_0102,2022-11-30 18:27:01
,wl-rdm,215,650489,0.0-8.97-0.97,1.0,215.0,,,,,,,[],,,,,,62.5,1.0,i,1.0,True,1496.0,83.0,63.0,40.0,False,,317.7993117165493,[],"[960, 540]",ColorTask,105.0,98.0,,,HRV,HRV_0102,2022-11-30 18:27:01
,wl-rdm,216,652757,0.0-8.98-0.98,1.0,216.0,,,,,,,[],,,,,,50.0,1.0,i,1.0,True,929.0,53.0,63.0,40.0,False,,261.97164068609345,[],"[960, 540]",ColorTask,106.0,99.0,,,HRV,HRV_0102,2022-11-30 18:27:01
,wl-rdm,217,654792,0.0-8.99-0.99,1.0,217.0,,,,,,,[],,,,,,87.9,0.0,u,0.0,True,671.0,37.0,63.0,40.0,False,,278.25746134593044,[],"[960, 540]",ColorTask,107.0,100.0,,,HRV,HRV_0102,2022-11-30 18:27:01
,wl-rdm,218,656840,0.0-8.100-0.100,1.0,218.0,,,,,,,[],,,,,,73.6,0.0,u,0.0,True,711.0,39.0,63.0,40.0,False,,236.71223793838618,[],"[960, 540]",ColorTask,108.0,101.0,,,HRV,HRV_0102,2022-11-30 18:27:01
,wl-rdm,219,659259,0.0-8.101-0.101,1.0,219.0,,,,,,,[],,,,,,56.4,1.0,i,1.0,True,1150.0,67.0,63.0,40.0,False,,203.05706613988545,[],"[960, 540]",ColorTask,109.0,102.0,,,HRV,HRV_0102,2022-11-30 18:27:01
,wl-rdm,220,661407,0.0-8.102-0.102,1.0,220.0,,,,,,,[],,,,,,50.0,0.0,u,0.0,True,848.0,50.0,63.0,40.0,False,,213.07261628738365,[],"[960, 540]",ColorTask,110.0,103.0,,,HRV,HRV_0102,2022-11-30 18:27:01
,wl-rdm,221,663589,0.0-8.103-0.103,1.0,221.0,,,,,,,[],,,,,,73.6,0.0,u,0.0,True,870.0,53.0,63.0,40.0,False,,227.0346840131868,[],"[960, 540]",ColorTask,111.0,104.0,,,HRV,HRV_0102,2022-11-30 18:27:01
,wl-rdm,222,665690,0.0-8.104-0.104,1.0,222.0,,,,,,,[],,,,,,53.2,0.0,i,1.0,False,803.0,48.0,63.0,40.0,False,,232.00223846057108,[],"[960, 540]",ColorTask,110.0,105.0,,,HRV,HRV_0102,2022-11-30 18:27:01
,wl-rdm,223,667939,0.0-8.105-0.105,1.0,223.0,,,,,,,[],,,,,,56.4,0.0,u,0.0,True,903.0,55.0,63.0,40.0,False,,279.8858116139937,[],"[960, 540]",ColorTask,111.0,106.0,,,HRV,HRV_0102,2022-11-30 18:27:01
,wl-rdm,224,671322,0.0-8.106-0.106,1.0,224.0,,,,,,,[],,,,,,50.0,0.0,i,1.0,False,1965.0,110.0,63.0,40.0,False,,336.5024695779406,[],"[960, 540]",ColorTask,110.0,107.0,,,HRV,HRV_0102,2022-11-30 18:27:01
,wl-rdm,225,673689,0.0-8.107-0.107,1.0,225.0,,,,,,,[],,,,,,56.4,1.0,i,1.0,True,1013.0,53.0,63.0,40.0,False,,206.63587181445388,[],"[960, 540]",ColorTask,111.0,108.0,,,HRV,HRV_0102,2022-11-30 18:27:01
,wl-html-button-response,226,678027,0.0-9.0-0.0,,,,,,,,,,4332.0,,0,,,,,,,,,,,,,,,,,,,,<h3>End of this session. Thank you!</h3><br>,['Close window'],HRV,HRV_0102,2022-11-30 18:27:01
