trialN,stimuli,trialStartTime,trialStartTime_UNIX,stimulus1,stimulus2,stimulus1Bid,stimulus2Bid,delta,selected,rt,rt_UNIX,rt_perfnow,receivedResponse,rsp,trialEndTime,trialDuration,trialEndTime_UNIX,trialDuration_UNIX,exp,subjectId,date
0,"[{'imgObject': {}, 'id': 'popsicles', 'src': '/static/foodstim60/popsicles.jpg', 'key': 'u', 'origWidth': 410, 'origHeight': 410, 'width': 410, 'height': 410, 'widthPercent': 0.45, 'rescaleHeight': False, 'trialN': 0, 'loaded': True, 'loadedTime': 4351.809308166261, 'positionName': 'LEFT', 'positionCoords': [166, 261], 'bid': 8.18}, {'imgObject': {}, 'id': 'roastedpotatoes', 'src': '/static/foodstim60/roastedpotatoes.jpg', 'key': 'i', 'origWidth': 409, 'origHeight': 410, 'width': 409, 'height': 410, 'widthPercent': 0.45, 'rescaleHeight': False, 'trialN': 0, 'loaded': True, 'loadedTime': 4347.1093393154715, 'positionName': 'RIGHT', 'positionCoords': [624, 261], 'bid': 8.93}]",4509.309283721814,1669830867183,popsicles,roastedpotatoes,8.18,8.93,0.75,roastedpotatoes,3455.000006984128,3456,3455.4000578285786,True,i,8473.509342667852,3964.2000589460386,1669830871148,3965,HRV,HRV_0102,2022-11-30 17:59:09
1,"[{'imgObject': {}, 'id': 'shreddedwheatwithmilk', 'src': '/static/foodstim60/shreddedwheatwithmilk.jpg', 'key': 'u', 'origWidth': 410, 'origHeight': 410, 'width': 410, 'height': 410, 'widthPercent': 0.45, 'rescaleHeight': False, 'trialN': 1, 'loaded': True, 'loadedTime': 8476.309279531337, 'positionName': 'LEFT', 'positionCoords': [511.6, 335], 'bid': 6.51}, {'imgObject': {}, 'id': 'pear', 'src': '/static/foodstim60/pear.jpg', 'key': 'i', 'origWidth': 411, 'origHeight': 410, 'width': 411, 'height': 410, 'widthPercent': 0.45, 'rescaleHeight': False, 'trialN': 1, 'loaded': True, 'loadedTime': 8476.609317664675, 'positionName': 'RIGHT', 'positionCoords': [998.4, 335], 'bid': 9}]",8474.309304674198,1669830871148,shreddedwheatwithmilk,pear,6.51,9.0,2.49,pear,950.3000381333386,950,950.399981003171,True,i,9933.109305791659,1458.8000011174609,1669830872607,1459,HRV,HRV_0102,2022-11-30 17:59:09
2,"[{'imgObject': {}, 'id': 'froot loops w milk', 'src': '/static/foodstim60/froot loops w milk.jpg', 'key': 'u', 'origWidth': 410, 'origHeight': 410, 'width': 410, 'height': 410, 'widthPercent': 0.45, 'rescaleHeight': False, 'trialN': 2, 'loaded': True, 'loadedTime': 9935.709287074194, 'positionName': 'LEFT', 'positionCoords': [511.6, 335], 'bid': 0.52}, {'imgObject': {}, 'id': 'grilled chicken strips', 'src': '/static/foodstim60/grilled chicken strips.jpg', 'key': 'i', 'origWidth': 410, 'origHeight': 411, 'width': 410, 'height': 411, 'widthPercent': 0.45, 'rescaleHeight': False, 'trialN': 2, 'loaded': True, 'loadedTime': 9935.809299785307, 'positionName': 'RIGHT', 'positionCoords': [998.4, 334.5], 'bid': 0.39}]",9933.909337639281,1669830872607,froot loops w milk,grilled chicken strips,0.52,0.39,-0.13,froot loops w milk,969.4999643809479,971,969.8000025142865,True,u,11423.409329956741,1489.49999231746,1669830874097,1490,HRV,HRV_0102,2022-11-30 17:59:09
3,"[{'imgObject': {}, 'id': 'ice cream sundae 002', 'src': '/static/foodstim60/ice cream sundae 002.jpg', 'key': 'u', 'origWidth': 409, 'origHeight': 409, 'width': 409, 'height': 409, 'widthPercent': 0.45, 'rescaleHeight': False, 'trialN': 3, 'loaded': True, 'loadedTime': 11426.509304953563, 'positionName': 'LEFT', 'positionCoords': [512.6, 335.5], 'bid': 9.9}, {'imgObject': {}, 'id': 'cherries', 'src': '/static/foodstim60/cherries.jpg', 'key': 'i', 'origWidth': 410, 'origHeight': 411, 'width': 410, 'height': 411, 'widthPercent': 0.45, 'rescaleHeight': False, 'trialN': 3, 'loaded': True, 'loadedTime': 11426.609317664675, 'positionName': 'RIGHT', 'positionCoords': [998.4, 334.5], 'bid': 8.51}]",11424.10934909325,1669830874098,ice cream sundae 002,cherries,9.9,8.51,-1.3900000000000006,ice cream sundae 002,1372.0999456634854,1372,1372.399983796824,True,u,13302.909308305943,1878.7999592126926,1669830875977,1879,HRV,HRV_0102,2022-11-30 17:59:09
4,"[{'imgObject': {}, 'id': 'strawberries', 'src': '/static/foodstim60/strawberries.jpg', 'key': 'u', 'origWidth': 410, 'origHeight': 410, 'width': 410, 'height': 410, 'widthPercent': 0.45, 'rescaleHeight': False, 'trialN': 4, 'loaded': True, 'loadedTime': 13305.709315010707, 'positionName': 'LEFT', 'positionCoords': [511.6, 335], 'bid': 9.87}, {'imgObject': {}, 'id': 'apple slices', 'src': '/static/foodstim60/apple slices.jpg', 'key': 'i', 'origWidth': 409, 'origHeight': 410, 'width': 409, 'height': 410, 'widthPercent': 0.45, 'rescaleHeight': False, 'trialN': 4, 'loaded': True, 'loadedTime': 13305.80932772182, 'positionName': 'RIGHT', 'positionCoords': [998.4, 335], 'bid': 9.67}]",13303.609327442455,1669830875978,strawberries,apple slices,9.87,9.67,-0.1999999999999993,strawberries,780.3999530666606,780,780.4999657777735,True,u,14603.009321017056,1299.3999935746015,1669830877277,1299,HRV,HRV_0102,2022-11-30 17:59:09
5,"[{'imgObject': {}, 'id': 'banana', 'src': '/static/foodstim60/banana.jpg', 'key': 'u', 'origWidth': 410, 'origHeight': 410, 'width': 410, 'height': 410, 'widthPercent': 0.45, 'rescaleHeight': False, 'trialN': 5, 'loaded': True, 'loadedTime': 14606.10929601388, 'positionName': 'LEFT', 'positionCoords': [511.6, 335], 'bid': 9.87}, {'imgObject': {}, 'id': 'roastedpotatoes', 'src': '/static/foodstim60/roastedpotatoes.jpg', 'key': 'i', 'origWidth': 409, 'origHeight': 410, 'width': 409, 'height': 410, 'widthPercent': 0.45, 'rescaleHeight': False, 'trialN': 5, 'loaded': True, 'loadedTime': 14606.209308724992, 'positionName': 'RIGHT', 'positionCoords': [998.4, 335], 'bid': 8.93}]",14603.809283023402,1669830877278,banana,roastedpotatoes,9.87,8.93,-0.9399999999999995,banana,840.4000368761936,840,840.5000495873064,True,u,15954.509302159911,1350.7000191365096,1669830878629,1351,HRV,HRV_0102,2022-11-30 17:59:09
6,"[{'imgObject': {}, 'id': 'steak', 'src': '/static/foodstim60/steak.jpg', 'key': 'u', 'origWidth': 410, 'origHeight': 410, 'width': 410, 'height': 410, 'widthPercent': 0.45, 'rescaleHeight': False, 'trialN': 6, 'loaded': True, 'loadedTime': 15963.909309702769, 'positionName': 'LEFT', 'positionCoords': [511.6, 335], 'bid': 0.2}, {'imgObject': {}, 'id': 'burger', 'src': '/static/foodstim60/burger.jpg', 'key': 'i', 'origWidth': 409, 'origHeight': 409, 'width': 409, 'height': 409, 'widthPercent': 0.45, 'rescaleHeight': False, 'trialN': 6, 'loaded': True, 'loadedTime': 15964.109335124995, 'positionName': 'RIGHT', 'positionCoords': [998.4, 335.5], 'bid': 2.77}]",15955.50928958848,1669830878629,steak,burger,0.2,2.77,2.57,burger,1488.5000048888905,1489,1488.6000176000016,True,i,17958.509321715468,2003.0000321269872,1669830880632,2003,HRV,HRV_0102,2022-11-30 17:59:09
7,"[{'imgObject': {}, 'id': 'blackbeanswithrice', 'src': '/static/foodstim60/blackbeanswithrice.jpg', 'key': 'u', 'origWidth': 410, 'origHeight': 410, 'width': 410, 'height': 410, 'widthPercent': 0.45, 'rescaleHeight': False, 'trialN': 7, 'loaded': True, 'loadedTime': 17961.309328420233, 'positionName': 'LEFT', 'positionCoords': [511.6, 335], 'bid': 6.4}, {'imgObject': {}, 'id': 'chicken nuggets2', 'src': '/static/foodstim60/chicken nuggets2.jpg', 'key': 'i', 'origWidth': 410, 'origHeight': 409, 'width': 410, 'height': 409, 'widthPercent': 0.45, 'rescaleHeight': False, 'trialN': 7, 'loaded': True, 'loadedTime': 17961.409341131344, 'positionName': 'RIGHT', 'positionCoords': [998.4, 335.5], 'bid': 4.45}]",17959.10932814087,1669830880633,blackbeanswithrice,chicken nuggets2,6.4,4.45,-1.9500000000000002,blackbeanswithrice,1292.90000544762,1293,1293.000018158731,True,u,19780.309299086894,1821.1999709460251,1669830882454,1821,HRV,HRV_0102,2022-11-30 17:59:09
8,"[{'imgObject': {}, 'id': 'fruitsalad', 'src': '/static/foodstim60/fruitsalad.jpg', 'key': 'u', 'origWidth': 410, 'origHeight': 410, 'width': 410, 'height': 410, 'widthPercent': 0.45, 'rescaleHeight': False, 'trialN': 8, 'loaded': True, 'loadedTime': 19783.20931850277, 'positionName': 'LEFT', 'positionCoords': [511.6, 335], 'bid': 8.92}, {'imgObject': {}, 'id': 'bagel and cc', 'src': '/static/foodstim60/bagel and cc.jpg', 'key': 'i', 'origWidth': 410, 'origHeight': 410, 'width': 410, 'height': 410, 'widthPercent': 0.45, 'rescaleHeight': False, 'trialN': 8, 'loaded': True, 'loadedTime': 19783.20931850277, 'positionName': 'RIGHT', 'positionCoords': [998.4, 335], 'bid': 8.01}]",19781.20934364563,1669830882455,fruitsalad,bagel and cc,8.92,8.01,-0.9100000000000001,fruitsalad,935.5999854730144,936,935.6999981841254,True,u,21223.30931724563,1442.0999735999976,1669830883897,1442,HRV,HRV_0102,2022-11-30 17:59:09
9,"[{'imgObject': {}, 'id': 'shreddedwheatwithmilk', 'src': '/static/foodstim60/shreddedwheatwithmilk.jpg', 'key': 'u', 'origWidth': 410, 'origHeight': 410, 'width': 410, 'height': 410, 'widthPercent': 0.45, 'rescaleHeight': False, 'trialN': 9, 'loaded': True, 'loadedTime': 21225.909298528164, 'positionName': 'LEFT', 'positionCoords': [511.6, 335], 'bid': 6.51}, {'imgObject': {}, 'id': 'rigatoni', 'src': '/static/foodstim60/rigatoni.jpg', 'key': 'i', 'origWidth': 411, 'origHeight': 411, 'width': 411, 'height': 411, 'widthPercent': 0.45, 'rescaleHeight': False, 'trialN': 9, 'loaded': True, 'loadedTime': 21226.10932395039, 'positionName': 'RIGHT', 'positionCoords': [998.4, 334.5], 'bid': 3.39}]",21223.909323671025,1669830883897,shreddedwheatwithmilk,rigatoni,6.51,3.39,-3.1199999999999997,rigatoni,1476.199977930155,1477,1476.4000033523807,True,i,23214.70934155039,1990.8000178793664,1669830885888,1991,HRV,HRV_0102,2022-11-30 17:59:09
10,"[{'imgObject': {}, 'id': 'bagel and cc', 'src': '/static/foodstim60/bagel and cc.jpg', 'key': 'u', 'origWidth': 410, 'origHeight': 410, 'width': 410, 'height': 410, 'widthPercent': 0.45, 'rescaleHeight': False, 'trialN': 10, 'loaded': True, 'loadedTime': 23217.809316547216, 'positionName': 'LEFT', 'positionCoords': [511.6, 335], 'bid': 8.01}, {'imgObject': {}, 'id': 'froot loops w milk', 'src': '/static/foodstim60/froot loops w milk.jpg', 'key': 'i', 'origWidth': 410, 'origHeight': 410, 'width': 410, 'height': 410, 'widthPercent': 0.45, 'rescaleHeight': False, 'trialN': 10, 'loaded': True, 'loadedTime': 23217.909329258327, 'positionName': 'RIGHT', 'positionCoords': [998.4, 335], 'bid': 0.52}]",23215.30934797579,1669830885889,bagel and cc,froot loops w milk,8.01,0.52,-7.49,bagel and cc,972.5999393777674,973,972.7999647999932,True,u,24703.10933372817,1487.7999857523791,1669830887377,1488,HRV,HRV_0102,2022-11-30 17:59:09
11,"[{'imgObject': {}, 'id': 'burger', 'src': '/static/foodstim60/burger.jpg', 'key': 'u', 'origWidth': 409, 'origHeight': 409, 'width': 409, 'height': 409, 'widthPercent': 0.45, 'rescaleHeight': False, 'trialN': 11, 'loaded': True, 'loadedTime': 24706.409334147218, 'positionName': 'LEFT', 'positionCoords': [512.6, 335.5], 'bid': 2.77}, {'imgObject': {}, 'id': 'cheerios', 'src': '/static/foodstim60/cheerios.jpg', 'key': 'i', 'origWidth': 409, 'origHeight': 410, 'width': 409, 'height': 410, 'widthPercent': 0.45, 'rescaleHeight': False, 'trialN': 11, 'loaded': True, 'loadedTime': 24706.609289728163, 'positionName': 'RIGHT', 'positionCoords': [998.4, 335], 'bid': 2.09}]",24703.909295734513,1669830887378,burger,cheerios,2.77,2.09,-0.6800000000000002,cheerios,839.4999923174619,839,839.700017739684,True,i,26053.10933372817,1349.200037993658,1669830888726,1348,HRV,HRV_0102,2022-11-30 17:59:09
12,"[{'imgObject': {}, 'id': 'edamame', 'src': '/static/foodstim60/edamame.jpg', 'key': 'u', 'origWidth': 409, 'origHeight': 410, 'width': 409, 'height': 410, 'widthPercent': 0.45, 'rescaleHeight': False, 'trialN': 12, 'loaded': True, 'loadedTime': 26056.009283302767, 'positionName': 'LEFT', 'positionCoords': [512.6, 335], 'bid': 0.09}, {'imgObject': {}, 'id': 'kiwi', 'src': '/static/foodstim60/kiwi.jpg', 'key': 'i', 'origWidth': 410, 'origHeight': 410, 'width': 410, 'height': 410, 'widthPercent': 0.45, 'rescaleHeight': False, 'trialN': 12, 'loaded': True, 'loadedTime': 26056.209308724992, 'positionName': 'RIGHT', 'positionCoords': [998.4, 335], 'bid': 0.31}]",26053.909295734513,1669830888728,edamame,kiwi,0.09,0.31,0.22,kiwi,1390.3000241650843,1390,1390.5999924571443,True,i,27963.309303277372,1909.4000075428594,1669830890637,1909,HRV,HRV_0102,2022-11-30 17:59:09
13,"[{'imgObject': {}, 'id': 'popsicles', 'src': '/static/foodstim60/popsicles.jpg', 'key': 'u', 'origWidth': 410, 'origHeight': 410, 'width': 410, 'height': 410, 'widthPercent': 0.45, 'rescaleHeight': False, 'trialN': 13, 'loaded': True, 'loadedTime': 27966.30933540436, 'positionName': 'LEFT', 'positionCoords': [511.6, 335], 'bid': 8.18}, {'imgObject': {}, 'id': 'salmon', 'src': '/static/foodstim60/salmon.jpg', 'key': 'i', 'origWidth': 410, 'origHeight': 409, 'width': 410, 'height': 409, 'widthPercent': 0.45, 'rescaleHeight': False, 'trialN': 13, 'loaded': True, 'loadedTime': 27966.50929098531, 'positionName': 'RIGHT', 'positionCoords': [998.4, 335.5], 'bid': 9.37}]",27964.009322413884,1669830890638,popsicles,salmon,8.18,9.37,1.1899999999999995,salmon,1019.3000088000008,1019,1019.499964380946,True,i,29502.909308305945,1538.8999858920615,1669830892176,1538,HRV,HRV_0102,2022-11-30 17:59:09
14,"[{'imgObject': {}, 'id': 'avocado', 'src': '/static/foodstim60/avocado.jpg', 'key': 'u', 'origWidth': 409, 'origHeight': 409, 'width': 409, 'height': 409, 'widthPercent': 0.45, 'rescaleHeight': False, 'trialN': 14, 'loaded': True, 'loadedTime': 29505.809327721818, 'positionName': 'LEFT', 'positionCoords': [512.6, 335.5], 'bid': 1.43}, {'imgObject': {}, 'id': 'edamame', 'src': '/static/foodstim60/edamame.jpg', 'key': 'i', 'origWidth': 409, 'origHeight': 410, 'width': 409, 'height': 410, 'widthPercent': 0.45, 'rescaleHeight': False, 'trialN': 14, 'loaded': True, 'loadedTime': 29506.009283302767, 'positionName': 'RIGHT', 'positionCoords': [998.4, 335], 'bid': 0.09}]",29503.609327442453,1669830892177,avocado,edamame,1.43,0.09,-1.3399999999999999,avocado,1172.3999837968258,1172,1172.4999965079369,True,u,31182.909280369433,1679.29995292698,1669830893857,1680,HRV,HRV_0102,2022-11-30 17:59:09
15,"[{'imgObject': {}, 'id': 'cantaloupe', 'src': '/static/foodstim60/cantaloupe.jpg', 'key': 'u', 'origWidth': 409, 'origHeight': 409, 'width': 409, 'height': 409, 'widthPercent': 0.45, 'rescaleHeight': False, 'trialN': 15, 'loaded': True, 'loadedTime': 31185.709287074194, 'positionName': 'LEFT', 'positionCoords': [512.6, 335.5], 'bid': 0.3}, {'imgObject': {}, 'id': 'cherry tomato', 'src': '/static/foodstim60/cherry tomato.jpg', 'key': 'i', 'origWidth': 410, 'origHeight': 410, 'width': 410, 'height': 410, 'widthPercent': 0.45, 'rescaleHeight': False, 'trialN': 15, 'loaded': True, 'loadedTime': 31185.709287074194, 'positionName': 'RIGHT', 'positionCoords': [998.4, 335], 'bid': 7.15}]",31183.609299505944,1669830893857,cantaloupe,cherry tomato,0.3,7.15,6.8500000000000005,cantaloupe,1148.400006146032,1148,1148.6000315682577,True,u,32856.909327861504,1673.3000283555593,1669830895530,1673,HRV,HRV_0102,2022-11-30 17:59:09
16,"[{'imgObject': {}, 'id': 'grilled chicken strips', 'src': '/static/foodstim60/grilled chicken strips.jpg', 'key': 'u', 'origWidth': 410, 'origHeight': 411, 'width': 410, 'height': 411, 'widthPercent': 0.45, 'rescaleHeight': False, 'trialN': 16, 'loaded': True, 'loadedTime': 32859.509309144036, 'positionName': 'LEFT', 'positionCoords': [511.6, 334.5], 'bid': 0.39}, {'imgObject': {}, 'id': 'corn cob', 'src': '/static/foodstim60/corn cob.jpg', 'key': 'i', 'origWidth': 411, 'origHeight': 411, 'width': 411, 'height': 411, 'widthPercent': 0.45, 'rescaleHeight': False, 'trialN': 16, 'loaded': True, 'loadedTime': 32859.609321855154, 'positionName': 'RIGHT', 'positionCoords': [998.4, 334.5], 'bid': 0.11}]",32857.5093342869,1669830895531,grilled chicken strips,corn cob,0.39,0.11,-0.28,corn cob,1283.399985193646,1284,1283.4999979047643,True,i,34644.00929447737,1786.499960190471,1669830897318,1787,HRV,HRV_0102,2022-11-30 17:59:09
17,"[{'imgObject': {}, 'id': 'tacos', 'src': '/static/foodstim60/tacos.jpg', 'key': 'u', 'origWidth': 411, 'origHeight': 411, 'width': 411, 'height': 411, 'widthPercent': 0.45, 'rescaleHeight': False, 'trialN': 17, 'loaded': True, 'loadedTime': 34646.80930118213, 'positionName': 'LEFT', 'positionCoords': [510.6, 334.5], 'bid': 9.21}, {'imgObject': {}, 'id': 'pear', 'src': '/static/foodstim60/pear.jpg', 'key': 'i', 'origWidth': 411, 'origHeight': 410, 'width': 411, 'height': 410, 'widthPercent': 0.45, 'rescaleHeight': False, 'trialN': 17, 'loaded': True, 'loadedTime': 34646.909313893244, 'positionName': 'RIGHT', 'positionCoords': [998.4, 335], 'bid': 9}]",34644.70931361388,1669830897318,tacos,pear,9.21,9.0,-0.21000000000000085,tacos,1047.400018717468,1048,1047.5999742984131,True,u,36213.20929056626,1568.4999769523783,1669830898887,1569,HRV,HRV_0102,2022-11-30 17:59:09
18,"[{'imgObject': {}, 'id': 'strawberries', 'src': '/static/foodstim60/strawberries.jpg', 'key': 'u', 'origWidth': 410, 'origHeight': 410, 'width': 410, 'height': 410, 'widthPercent': 0.45, 'rescaleHeight': False, 'trialN': 18, 'loaded': True, 'loadedTime': 36215.809341690074, 'positionName': 'LEFT', 'positionCoords': [511.6, 335], 'bid': 9.87}, {'imgObject': {}, 'id': 'baked potato', 'src': '/static/foodstim60/baked potato.jpg', 'key': 'i', 'origWidth': 409, 'origHeight': 410, 'width': 409, 'height': 410, 'widthPercent': 0.45, 'rescaleHeight': False, 'trialN': 18, 'loaded': True, 'loadedTime': 36215.90928455991, 'positionName': 'RIGHT', 'positionCoords': [998.4, 335], 'bid': 9.81}]",36213.809296991654,1669830898887,strawberries,baked potato,9.87,9.81,-0.05999999999999872,strawberries,1049.899987288889,1051,1050.0,True,u,37778.10929880753,1564.3000018158782,1669830900451,1564,HRV,HRV_0102,2022-11-30 17:59:09
19,"[{'imgObject': {}, 'id': 'baked potato', 'src': '/static/foodstim60/baked potato.jpg', 'key': 'u', 'origWidth': 409, 'origHeight': 410, 'width': 409, 'height': 410, 'widthPercent': 0.45, 'rescaleHeight': False, 'trialN': 19, 'loaded': True, 'loadedTime': 37781.209343645634, 'positionName': 'LEFT', 'positionCoords': [512.6, 335], 'bid': 9.81}, {'imgObject': {}, 'id': 'banana', 'src': '/static/foodstim60/banana.jpg', 'key': 'i', 'origWidth': 410, 'origHeight': 410, 'width': 410, 'height': 410, 'widthPercent': 0.45, 'rescaleHeight': False, 'trialN': 19, 'loaded': True, 'loadedTime': 37781.40929922658, 'positionName': 'RIGHT', 'positionCoords': [998.4, 335], 'bid': 9.87}]",37778.80931794404,1669830900452,baked potato,banana,9.81,9.87,0.05999999999999872,baked potato,924.599984076187,926,924.9000222095274,True,u,39222.909336242454,1444.1000182984135,1669830901897,1445,HRV,HRV_0102,2022-11-30 17:59:09
20,"[{'imgObject': {}, 'id': 'hashbrowns', 'src': '/static/foodstim60/hashbrowns.jpg', 'key': 'u', 'origWidth': 411, 'origHeight': 410, 'width': 411, 'height': 410, 'widthPercent': 0.45, 'rescaleHeight': False, 'trialN': 20, 'loaded': True, 'loadedTime': 39225.50931752499, 'positionName': 'LEFT', 'positionCoords': [510.6, 335], 'bid': 3.81}, {'imgObject': {}, 'id': 'cherry tomato', 'src': '/static/foodstim60/cherry tomato.jpg', 'key': 'i', 'origWidth': 410, 'origHeight': 410, 'width': 410, 'height': 410, 'widthPercent': 0.45, 'rescaleHeight': False, 'trialN': 20, 'loaded': True, 'loadedTime': 39225.609330236104, 'positionName': 'RIGHT', 'positionCoords': [998.4, 335], 'bid': 7.15}]",39223.50934266785,1669830901898,hashbrowns,cherry tomato,3.81,7.15,3.3400000000000003,cherry tomato,1444.7999675936517,1445,1444.9999930158738,True,i,41173.20930453452,1949.6999618666669,1669830903847,1949,HRV,HRV_0102,2022-11-30 17:59:09
21,"[{'imgObject': {}, 'id': 'burrito', 'src': '/static/foodstim60/burrito.jpg', 'key': 'u', 'origWidth': 410, 'origHeight': 410, 'width': 410, 'height': 410, 'widthPercent': 0.45, 'rescaleHeight': False, 'trialN': 21, 'loaded': True, 'loadedTime': 41176.90928595673, 'positionName': 'LEFT', 'positionCoords': [511.6, 335], 'bid': 6.12}, {'imgObject': {}, 'id': 'eggsalad', 'src': '/static/foodstim60/eggsalad.jpg', 'key': 'i', 'origWidth': 410, 'origHeight': 409, 'width': 410, 'height': 409, 'widthPercent': 0.45, 'rescaleHeight': False, 'trialN': 21, 'loaded': True, 'loadedTime': 41177.20932409007, 'positionName': 'RIGHT', 'positionCoords': [998.4, 335.5], 'bid': 2.85}]",41174.10934909325,1669830903848,burrito,eggsalad,6.12,2.85,-3.27,eggsalad,1062.0999316952293,1062,1062.3999698285697,True,i,42763.10934769642,1588.9999986031762,1669830905437,1589,HRV,HRV_0102,2022-11-30 17:59:09
22,"[{'imgObject': {}, 'id': 'ice cream sundae 002', 'src': '/static/foodstim60/ice cream sundae 002.jpg', 'key': 'u', 'origWidth': 409, 'origHeight': 409, 'width': 409, 'height': 409, 'widthPercent': 0.45, 'rescaleHeight': False, 'trialN': 22, 'loaded': True, 'loadedTime': 42766.20932269325, 'positionName': 'LEFT', 'positionCoords': [512.6, 335.5], 'bid': 9.9}, {'imgObject': {}, 'id': 'tacos', 'src': '/static/foodstim60/tacos.jpg', 'key': 'i', 'origWidth': 411, 'origHeight': 411, 'width': 411, 'height': 411, 'widthPercent': 0.45, 'rescaleHeight': False, 'trialN': 22, 'loaded': True, 'loadedTime': 42766.30933540436, 'positionName': 'RIGHT', 'positionCoords': [998.4, 334.5], 'bid': 9.21}]",42763.809296991654,1669830905437,ice cream sundae 002,tacos,9.9,9.21,-0.6899999999999995,tacos,1032.500010476193,1033,1032.8000486095334,True,i,44323.009348953565,1559.2000519619105,1669830906996,1559,HRV,HRV_0102,2022-11-30 17:59:09
23,"[{'imgObject': {}, 'id': 'veggieswithdip', 'src': '/static/foodstim60/veggieswithdip.jpg', 'key': 'u', 'origWidth': 409, 'origHeight': 409, 'width': 409, 'height': 409, 'widthPercent': 0.45, 'rescaleHeight': False, 'trialN': 23, 'loaded': True, 'loadedTime': 44325.709342947215, 'positionName': 'LEFT', 'positionCoords': [512.6, 335.5], 'bid': 8.290000000000001}, {'imgObject': {}, 'id': 'rigatoni and sauce', 'src': '/static/foodstim60/rigatoni and sauce.jpg', 'key': 'i', 'origWidth': 410, 'origHeight': 411, 'width': 410, 'height': 411, 'widthPercent': 0.45, 'rescaleHeight': False, 'trialN': 23, 'loaded': True, 'loadedTime': 44325.90929852817, 'positionName': 'RIGHT', 'positionCoords': [998.4, 334.5], 'bid': 8.22}]",44323.7092982488,1669830906997,veggieswithdip,rigatoni and sauce,8.290000000000001,8.22,-0.07000000000000028,rigatoni and sauce,904.5000132698406,905,904.6000259809516,True,i,45743.809338896426,1420.1000406476232,1669830908418,1421,HRV,HRV_0102,2022-11-30 17:59:09
24,"[{'imgObject': {}, 'id': 'hotdog w must', 'src': '/static/foodstim60/hotdog w must.jpg', 'key': 'u', 'origWidth': 409, 'origHeight': 409, 'width': 409, 'height': 409, 'widthPercent': 0.45, 'rescaleHeight': False, 'trialN': 24, 'loaded': True, 'loadedTime': 45746.909313893244, 'positionName': 'LEFT', 'positionCoords': [512.6, 335.5], 'bid': 0.15}, {'imgObject': {}, 'id': 'turkeysandwich', 'src': '/static/foodstim60/turkeysandwich.jpg', 'key': 'i', 'origWidth': 409, 'origHeight': 409, 'width': 409, 'height': 409, 'widthPercent': 0.45, 'rescaleHeight': False, 'trialN': 24, 'loaded': True, 'loadedTime': 45747.10933931547, 'positionName': 'RIGHT', 'positionCoords': [998.4, 335.5], 'bid': 0.45}]",45744.70931361388,1669830908419,hotdog w must,turkeysandwich,0.15,0.45,0.30000000000000004,hotdog w must,1788.9999986031762,1789,1789.1000113142873,True,u,48038.109312775785,2293.3999991619057,1669830910712,2293,HRV,HRV_0102,2022-11-30 17:59:09
25,"[{'imgObject': {}, 'id': 'mac & cheese', 'src': '/static/foodstim60/mac & cheese.jpg', 'key': 'u', 'origWidth': 410, 'origHeight': 410, 'width': 410, 'height': 410, 'widthPercent': 0.45, 'rescaleHeight': False, 'trialN': 25, 'loaded': True, 'loadedTime': 48041.009332191665, 'positionName': 'LEFT', 'positionCoords': [511.6, 335], 'bid': 9.73}, {'imgObject': {}, 'id': 'orange slices', 'src': '/static/foodstim60/orange slices.jpg', 'key': 'i', 'origWidth': 409, 'origHeight': 410, 'width': 409, 'height': 410, 'widthPercent': 0.45, 'rescaleHeight': False, 'trialN': 25, 'loaded': True, 'loadedTime': 48041.20928777261, 'positionName': 'RIGHT', 'positionCoords': [998.4, 335], 'bid': 9.77}]",48038.80933191229,1669830910713,mac & cheese,orange slices,9.73,9.77,0.03999999999999915,orange slices,877.0999526476153,877,877.2999780698447,True,i,49423.30931724563,1384.4999853333356,1669830912097,1384,HRV,HRV_0102,2022-11-30 17:59:09
26,"[{'imgObject': {}, 'id': 'cherry tomato', 'src': '/static/foodstim60/cherry tomato.jpg', 'key': 'u', 'origWidth': 410, 'origHeight': 410, 'width': 410, 'height': 410, 'widthPercent': 0.45, 'rescaleHeight': False, 'trialN': 26, 'loaded': True, 'loadedTime': 49426.40929224245, 'positionName': 'LEFT', 'positionCoords': [511.6, 335], 'bid': 7.15}, {'imgObject': {}, 'id': 'eggs', 'src': '/static/foodstim60/eggs.jpg', 'key': 'i', 'origWidth': 409, 'origHeight': 409, 'width': 409, 'height': 409, 'widthPercent': 0.45, 'rescaleHeight': False, 'trialN': 26, 'loaded': True, 'loadedTime': 49426.609317664675, 'positionName': 'RIGHT', 'positionCoords': [998.4, 335.5], 'bid': 9.3}]",49423.909323671025,1669830912098,cherry tomato,eggs,7.15,9.3,2.1500000000000004,eggs,1109.9000012571414,1110,1110.0999568380867,True,i,51054.309346578964,1630.4000229079393,1669830913728,1630,HRV,HRV_0102,2022-11-30 17:59:09
27,"[{'imgObject': {}, 'id': 'hashbrowns', 'src': '/static/foodstim60/hashbrowns.jpg', 'key': 'u', 'origWidth': 411, 'origHeight': 410, 'width': 411, 'height': 410, 'widthPercent': 0.45, 'rescaleHeight': False, 'trialN': 27, 'loaded': True, 'loadedTime': 51058.1093407123, 'positionName': 'LEFT', 'positionCoords': [510.6, 335], 'bid': 3.81}, {'imgObject': {}, 'id': 'granola w milk', 'src': '/static/foodstim60/granola w milk.jpg', 'key': 'i', 'origWidth': 410, 'origHeight': 410, 'width': 410, 'height': 410, 'widthPercent': 0.45, 'rescaleHeight': False, 'trialN': 27, 'loaded': True, 'loadedTime': 51058.20928358213, 'positionName': 'RIGHT', 'positionCoords': [998.4, 335], 'bid': 6.4}]",51055.50928958848,1669830913729,hashbrowns,granola w milk,3.81,6.4,2.5900000000000003,granola w milk,1568.4000340825442,1569,1568.6000595047663,True,i,53136.10933791865,2080.6000483301686,1669830915810,2081,HRV,HRV_0102,2022-11-30 17:59:09
28,"[{'imgObject': {}, 'id': 'sweetpotato', 'src': '/static/foodstim60/sweetpotato.jpg', 'key': 'u', 'origWidth': 410, 'origHeight': 410, 'width': 410, 'height': 410, 'widthPercent': 0.45, 'rescaleHeight': False, 'trialN': 28, 'loaded': True, 'loadedTime': 53139.60929391864, 'positionName': 'LEFT', 'positionCoords': [511.6, 335], 'bid': 3.8}, {'imgObject': {}, 'id': 'hashbrowns', 'src': '/static/foodstim60/hashbrowns.jpg', 'key': 'i', 'origWidth': 411, 'origHeight': 410, 'width': 411, 'height': 410, 'widthPercent': 0.45, 'rescaleHeight': False, 'trialN': 28, 'loaded': True, 'loadedTime': 53139.70930662975, 'positionName': 'RIGHT', 'positionCoords': [998.4, 335], 'bid': 3.81}]",53136.90929992499,1669830915811,sweetpotato,hashbrowns,3.8,3.81,0.010000000000000231,hashbrowns,987.2999920380898,987,987.4000047492082,True,i,54640.60928134721,1503.6999814222218,1669830917314,1503,HRV,HRV_0102,2022-11-30 17:59:09
29,"[{'imgObject': {}, 'id': 'fruitsalad', 'src': '/static/foodstim60/fruitsalad.jpg', 'key': 'u', 'origWidth': 410, 'origHeight': 410, 'width': 410, 'height': 410, 'widthPercent': 0.45, 'rescaleHeight': False, 'trialN': 29, 'loaded': True, 'loadedTime': 54643.20933247103, 'positionName': 'LEFT', 'positionCoords': [511.6, 335], 'bid': 8.92}, {'imgObject': {}, 'id': 'yogurt no spoon', 'src': '/static/foodstim60/yogurt no spoon.jpg', 'key': 'i', 'origWidth': 411, 'origHeight': 410, 'width': 411, 'height': 410, 'widthPercent': 0.45, 'rescaleHeight': False, 'trialN': 29, 'loaded': True, 'loadedTime': 54643.409288051975, 'positionName': 'RIGHT', 'positionCoords': [998.4, 335], 'bid': 1.55}]",54641.20928777261,1669830917315,fruitsalad,yogurt no spoon,8.92,1.55,-7.37,fruitsalad,1178.9000417650823,1179,1179.0000544761933,True,u,56327.40927967102,1686.1999918984075,1669830919001,1686,HRV,HRV_0102,2022-11-30 17:59:09
30,"[{'imgObject': {}, 'id': 'granola w milk', 'src': '/static/foodstim60/granola w milk.jpg', 'key': 'u', 'origWidth': 410, 'origHeight': 410, 'width': 410, 'height': 410, 'widthPercent': 0.45, 'rescaleHeight': False, 'trialN': 30, 'loaded': True, 'loadedTime': 56330.50932450912, 'positionName': 'LEFT', 'positionCoords': [511.6, 335], 'bid': 6.4}, {'imgObject': {}, 'id': 'luckycharms', 'src': '/static/foodstim60/luckycharms.jpg', 'key': 'i', 'origWidth': 410, 'origHeight': 409, 'width': 410, 'height': 409, 'widthPercent': 0.45, 'rescaleHeight': False, 'trialN': 30, 'loaded': True, 'loadedTime': 56330.709280090065, 'positionName': 'RIGHT', 'positionCoords': [998.4, 335.5], 'bid': 2.89}]",56328.10929880753,1669830919001,granola w milk,luckycharms,6.4,2.89,-3.5100000000000002,granola w milk,940.3000241650807,941,940.5000495873028,True,u,57793.409288051975,1465.2999892444423,1669830920467,1466,HRV,HRV_0102,2022-11-30 17:59:09
31,"[{'imgObject': {}, 'id': 'Tribe humus pita', 'src': '/static/foodstim60/Tribe humus pita.jpg', 'key': 'u', 'origWidth': 411, 'origHeight': 411, 'width': 411, 'height': 411, 'widthPercent': 0.45, 'rescaleHeight': False, 'trialN': 31, 'loaded': True, 'loadedTime': 57796.70928847102, 'positionName': 'LEFT', 'positionCoords': [510.6, 334.5], 'bid': 3.14}, {'imgObject': {}, 'id': 'cocktailshrimp', 'src': '/static/foodstim60/cocktailshrimp.jpg', 'key': 'i', 'origWidth': 410, 'origHeight': 410, 'width': 410, 'height': 410, 'widthPercent': 0.45, 'rescaleHeight': False, 'trialN': 31, 'loaded': True, 'loadedTime': 57796.909313893244, 'positionName': 'RIGHT', 'positionCoords': [998.4, 335], 'bid': 0.37}]",57794.40934532182,1669830920468,Tribe humus pita,cocktailshrimp,3.14,0.37,-2.77,Tribe humus pita,1001.6999367238022,1002,1001.8999621460243,True,u,59313.20929056626,1518.7999452444346,1669830921987,1519,HRV,HRV_0102,2022-11-30 17:59:09
32,"[{'imgObject': {}, 'id': 'seaweed', 'src': '/static/foodstim60/seaweed.jpg', 'key': 'u', 'origWidth': 410, 'origHeight': 410, 'width': 410, 'height': 410, 'widthPercent': 0.45, 'rescaleHeight': False, 'trialN': 32, 'loaded': True, 'loadedTime': 59316.00929727102, 'positionName': 'LEFT', 'positionCoords': [511.6, 335], 'bid': 0.11}, {'imgObject': {}, 'id': 'sushi w_condiments', 'src': '/static/foodstim60/sushi w_condiments.jpg', 'key': 'i', 'origWidth': 410, 'origHeight': 410, 'width': 410, 'height': 410, 'widthPercent': 0.45, 'rescaleHeight': False, 'trialN': 32, 'loaded': True, 'loadedTime': 59316.10930998214, 'positionName': 'RIGHT', 'positionCoords': [998.4, 335], 'bid': 0.54}]",59314.00932241388,1669830921988,seaweed,sushi w_condiments,0.11,0.54,0.43000000000000005,seaweed,1241.8000053079377,1241,1241.999960888883,True,u,61073.40932995674,1759.4000075428557,1669830923747,1759,HRV,HRV_0102,2022-11-30 17:59:09
33,"[{'imgObject': {}, 'id': 'veggieswithdip', 'src': '/static/foodstim60/veggieswithdip.jpg', 'key': 'u', 'origWidth': 409, 'origHeight': 409, 'width': 409, 'height': 409, 'widthPercent': 0.45, 'rescaleHeight': False, 'trialN': 33, 'loaded': True, 'loadedTime': 61077.20932409007, 'positionName': 'LEFT', 'positionCoords': [512.6, 335.5], 'bid': 8.290000000000001}, {'imgObject': {}, 'id': 'strawberries', 'src': '/static/foodstim60/strawberries.jpg', 'key': 'i', 'origWidth': 410, 'origHeight': 410, 'width': 410, 'height': 410, 'widthPercent': 0.45, 'rescaleHeight': False, 'trialN': 33, 'loaded': True, 'loadedTime': 61077.40927967102, 'positionName': 'RIGHT', 'positionCoords': [998.4, 335], 'bid': 9.87}]",61074.40931738531,1669830923748,veggieswithdip,strawberries,8.290000000000001,9.87,1.5799999999999983,strawberries,1129.5999910603132,1130,1129.7000037714315,True,i,62733.30933121388,1658.90001382857,1669830925407,1659,HRV,HRV_0102,2022-11-30 17:59:09
34,"[{'imgObject': {}, 'id': 'raspberries', 'src': '/static/foodstim60/raspberries.jpg', 'key': 'u', 'origWidth': 411, 'origHeight': 411, 'width': 411, 'height': 411, 'widthPercent': 0.45, 'rescaleHeight': False, 'trialN': 34, 'loaded': True, 'loadedTime': 62735.90931249642, 'positionName': 'LEFT', 'positionCoords': [510.6, 334.5], 'bid': 9.69}, {'imgObject': {}, 'id': 'veggieswithdip', 'src': '/static/foodstim60/veggieswithdip.jpg', 'key': 'i', 'origWidth': 409, 'origHeight': 409, 'width': 409, 'height': 409, 'widthPercent': 0.45, 'rescaleHeight': False, 'trialN': 34, 'loaded': True, 'loadedTime': 62736.00932520753, 'positionName': 'RIGHT', 'positionCoords': [998.4, 335.5], 'bid': 8.290000000000001}]",62734.00928050911,1669830925408,raspberries,veggieswithdip,9.69,8.290000000000001,-1.3999999999999986,raspberries,1069.9000152254011,1069,1070.0000279365122,True,u,64333.00929308055,1599.000012571436,1669830927006,1598,HRV,HRV_0102,2022-11-30 17:59:09
35,"[{'imgObject': {}, 'id': 'sushi w_condiments', 'src': '/static/foodstim60/sushi w_condiments.jpg', 'key': 'u', 'origWidth': 410, 'origHeight': 410, 'width': 410, 'height': 410, 'widthPercent': 0.45, 'rescaleHeight': False, 'trialN': 35, 'loaded': True, 'loadedTime': 64335.80929978531, 'positionName': 'LEFT', 'positionCoords': [511.6, 335], 'bid': 0.54}, {'imgObject': {}, 'id': 'chicken nuggets2', 'src': '/static/foodstim60/chicken nuggets2.jpg', 'key': 'i', 'origWidth': 410, 'origHeight': 409, 'width': 410, 'height': 409, 'widthPercent': 0.45, 'rescaleHeight': False, 'trialN': 35, 'loaded': True, 'loadedTime': 64335.90931249642, 'positionName': 'RIGHT', 'positionCoords': [998.4, 335.5], 'bid': 4.45}]",64333.609299505944,1669830927007,sushi w_condiments,chicken nuggets2,0.54,4.45,3.91,chicken nuggets2,1190.4000368761917,1191,1190.5000495873028,True,i,66042.90929433769,1709.2999948317447,1669830928717,1710,HRV,HRV_0102,2022-11-30 17:59:09
36,"[{'imgObject': {}, 'id': 'corn cob', 'src': '/static/foodstim60/corn cob.jpg', 'key': 'u', 'origWidth': 411, 'origHeight': 411, 'width': 411, 'height': 411, 'widthPercent': 0.45, 'rescaleHeight': False, 'trialN': 36, 'loaded': True, 'loadedTime': 66045.60928833134, 'positionName': 'LEFT', 'positionCoords': [510.6, 334.5], 'bid': 0.11}, {'imgObject': {}, 'id': 'lox', 'src': '/static/foodstim60/lox.jpg', 'key': 'i', 'origWidth': 410, 'origHeight': 411, 'width': 410, 'height': 411, 'widthPercent': 0.45, 'rescaleHeight': False, 'trialN': 36, 'loaded': True, 'loadedTime': 66045.80931375356, 'positionName': 'RIGHT', 'positionCoords': [998.4, 334.5], 'bid': 2.08}]",66043.70932618532,1669830928717,corn cob,lox,0.11,2.08,1.97,corn cob,968.3000213714258,969,968.3999642412673,True,u,67527.10931137895,1483.3999851936387,1669830930201,1484,HRV,HRV_0102,2022-11-30 17:59:09
37,"[{'imgObject': {}, 'id': 'blackbeanswithrice', 'src': '/static/foodstim60/blackbeanswithrice.jpg', 'key': 'u', 'origWidth': 410, 'origHeight': 410, 'width': 410, 'height': 410, 'widthPercent': 0.45, 'rescaleHeight': False, 'trialN': 37, 'loaded': True, 'loadedTime': 67530.40931179801, 'positionName': 'LEFT', 'positionCoords': [511.6, 335], 'bid': 6.4}, {'imgObject': {}, 'id': 'mango', 'src': '/static/foodstim60/mango.jpg', 'key': 'i', 'origWidth': 411, 'origHeight': 411, 'width': 411, 'height': 411, 'widthPercent': 0.45, 'rescaleHeight': False, 'trialN': 37, 'loaded': True, 'loadedTime': 67530.50932450913, 'positionName': 'RIGHT', 'positionCoords': [998.4, 334.5], 'bid': 6.87}]",67528.10929880753,1669830930202,blackbeanswithrice,mango,6.4,6.87,0.46999999999999975,mango,1180.4000229079393,1181,1180.600048330176,True,i,69223.30931724563,1695.2000184381031,1669830931897,1695,HRV,HRV_0102,2022-11-30 17:59:09
38,"[{'imgObject': {}, 'id': 'cherries', 'src': '/static/foodstim60/cherries.jpg', 'key': 'u', 'origWidth': 410, 'origHeight': 411, 'width': 410, 'height': 411, 'widthPercent': 0.45, 'rescaleHeight': False, 'trialN': 38, 'loaded': True, 'loadedTime': 69226.30927953134, 'positionName': 'LEFT', 'positionCoords': [511.6, 334.5], 'bid': 8.51}, {'imgObject': {}, 'id': 'fruitsalad', 'src': '/static/foodstim60/fruitsalad.jpg', 'key': 'i', 'origWidth': 410, 'origHeight': 410, 'width': 410, 'height': 410, 'widthPercent': 0.45, 'rescaleHeight': False, 'trialN': 38, 'loaded': True, 'loadedTime': 69226.50930495356, 'positionName': 'RIGHT', 'positionCoords': [998.4, 335], 'bid': 8.92}]",69223.90932367103,1669830931897,cherries,fruitsalad,8.51,8.92,0.41000000000000014,cherries,939.999986031733,941,940.2000114539696,True,u,70683.10930579166,1459.1999821206264,1669830933357,1460,HRV,HRV_0102,2022-11-30 17:59:09
39,"[{'imgObject': {}, 'id': 'pear', 'src': '/static/foodstim60/pear.jpg', 'key': 'u', 'origWidth': 411, 'origHeight': 410, 'width': 411, 'height': 410, 'widthPercent': 0.45, 'rescaleHeight': False, 'trialN': 39, 'loaded': True, 'loadedTime': 70687.0093126361, 'positionName': 'LEFT', 'positionCoords': [510.6, 335], 'bid': 9}, {'imgObject': {}, 'id': 'mac & cheese', 'src': '/static/foodstim60/mac & cheese.jpg', 'key': 'i', 'origWidth': 410, 'origHeight': 410, 'width': 410, 'height': 410, 'widthPercent': 0.45, 'rescaleHeight': False, 'trialN': 39, 'loaded': True, 'loadedTime': 70687.30928092817, 'positionName': 'RIGHT', 'positionCoords': [998.4, 335], 'bid': 9.73}]",70683.70931221706,1669830933357,pear,mac & cheese,9.0,9.73,0.7300000000000004,pear,800.3999810031673,801,800.6000064253894,True,u,71986.3092934996,1302.599981282532,1669830934660,1303,HRV,HRV_0102,2022-11-30 17:59:09
40,"[{'imgObject': {}, 'id': 'luckycharms', 'src': '/static/foodstim60/luckycharms.jpg', 'key': 'u', 'origWidth': 410, 'origHeight': 409, 'width': 410, 'height': 409, 'widthPercent': 0.45, 'rescaleHeight': False, 'trialN': 40, 'loaded': True, 'loadedTime': 71989.30932562659, 'positionName': 'LEFT', 'positionCoords': [511.6, 335.5], 'bid': 2.89}, {'imgObject': {}, 'id': 'eggsalad', 'src': '/static/foodstim60/eggsalad.jpg', 'key': 'i', 'origWidth': 410, 'origHeight': 409, 'width': 410, 'height': 409, 'widthPercent': 0.45, 'rescaleHeight': False, 'trialN': 40, 'loaded': True, 'loadedTime': 71989.40933833769, 'positionName': 'RIGHT', 'positionCoords': [998.4, 335.5], 'bid': 2.85}]",71987.0093126361,1669830934660,luckycharms,eggsalad,2.89,2.85,-0.040000000000000036,eggsalad,1193.0000181587384,1194,1193.1000308698422,True,i,73699.90934602023,1712.900033384125,1669830936373,1713,HRV,HRV_0102,2022-11-30 17:59:09
41,"[{'imgObject': {}, 'id': 'kiwi', 'src': '/static/foodstim60/kiwi.jpg', 'key': 'u', 'origWidth': 410, 'origHeight': 410, 'width': 410, 'height': 410, 'widthPercent': 0.45, 'rescaleHeight': False, 'trialN': 41, 'loaded': True, 'loadedTime': 73702.80929559484, 'positionName': 'LEFT', 'positionCoords': [511.6, 335], 'bid': 0.31}, {'imgObject': {}, 'id': 'cocktailshrimp', 'src': '/static/foodstim60/cocktailshrimp.jpg', 'key': 'i', 'origWidth': 410, 'origHeight': 410, 'width': 410, 'height': 410, 'widthPercent': 0.45, 'rescaleHeight': False, 'trialN': 41, 'loaded': True, 'loadedTime': 73702.90930830594, 'positionName': 'RIGHT', 'positionCoords': [998.4, 335], 'bid': 0.37}]",73700.70930802658,1669830936374,kiwi,cocktailshrimp,0.31,0.37,0.06,kiwi,913.9000208126963,914,914.0999763936561,True,u,75118.3093102615,1417.600002234918,1669830937792,1418,HRV,HRV_0102,2022-11-30 17:59:09
42,"[{'imgObject': {}, 'id': 'raisin bran w milk', 'src': '/static/foodstim60/raisin bran w milk.jpg', 'key': 'u', 'origWidth': 411, 'origHeight': 411, 'width': 411, 'height': 411, 'widthPercent': 0.45, 'rescaleHeight': False, 'trialN': 42, 'loaded': True, 'loadedTime': 75121.20932967738, 'positionName': 'LEFT', 'positionCoords': [510.6, 334.5], 'bid': 6.11}, {'imgObject': {}, 'id': 'salad w chicken', 'src': '/static/foodstim60/salad w chicken.jpg', 'key': 'i', 'origWidth': 411, 'origHeight': 411, 'width': 411, 'height': 411, 'widthPercent': 0.45, 'rescaleHeight': False, 'trialN': 42, 'loaded': True, 'loadedTime': 75121.30934238849, 'positionName': 'RIGHT', 'positionCoords': [998.4, 334.5], 'bid': 5.66}]",75118.9093166869,1669830937793,raisin bran w milk,salad w chicken,6.11,5.66,-0.4500000000000002,raisin bran w milk,744.8999803047627,745,744.9999930158665,True,u,76383.409343925,1264.5000272381003,1669830939057,1264,HRV,HRV_0102,2022-11-30 17:59:09
43,"[{'imgObject': {}, 'id': 'raisin bran w milk', 'src': '/static/foodstim60/raisin bran w milk.jpg', 'key': 'u', 'origWidth': 411, 'origHeight': 411, 'width': 411, 'height': 411, 'widthPercent': 0.45, 'rescaleHeight': False, 'trialN': 43, 'loaded': True, 'loadedTime': 76386.60933163294, 'positionName': 'LEFT', 'positionCoords': [510.6, 334.5], 'bid': 6.11}, {'imgObject': {}, 'id': 'bagel plain', 'src': '/static/foodstim60/bagel plain.jpg', 'key': 'i', 'origWidth': 410, 'origHeight': 410, 'width': 410, 'height': 410, 'widthPercent': 0.45, 'rescaleHeight': False, 'trialN': 43, 'loaded': True, 'loadedTime': 76386.70934434404, 'positionName': 'RIGHT', 'positionCoords': [998.4, 335], 'bid': 7.97}]",76384.10929322023,1669830939058,raisin bran w milk,bagel plain,6.11,7.97,1.8599999999999994,raisin bran w milk,1340.0000558730244,1340,1340.4000368761917,True,u,78243.10931975991,1859.0000265396811,1669830940917,1859,HRV,HRV_0102,2022-11-30 17:59:09
44,"[{'imgObject': {}, 'id': 'burrito', 'src': '/static/foodstim60/burrito.jpg', 'key': 'u', 'origWidth': 410, 'origHeight': 410, 'width': 410, 'height': 410, 'widthPercent': 0.45, 'rescaleHeight': False, 'trialN': 44, 'loaded': True, 'loadedTime': 78246.60934560119, 'positionName': 'LEFT', 'positionCoords': [511.6, 335], 'bid': 6.12}, {'imgObject': {}, 'id': 'edamame', 'src': '/static/foodstim60/edamame.jpg', 'key': 'i', 'origWidth': 409, 'origHeight': 410, 'width': 409, 'height': 410, 'widthPercent': 0.45, 'rescaleHeight': False, 'trialN': 44, 'loaded': True, 'loadedTime': 78246.80930118213, 'positionName': 'RIGHT', 'positionCoords': [998.4, 335], 'bid': 0.09}]",78243.80933889642,1669830940918,burrito,edamame,6.12,0.09,-6.03,burrito,1019.8000025142974,1020,1019.8999453841243,True,u,79768.80930397578,1524.9999650793616,1669830942442,1524,HRV,HRV_0102,2022-11-30 17:59:09
45,"[{'imgObject': {}, 'id': 'Grapes', 'src': '/static/foodstim60/Grapes.jpg', 'key': 'u', 'origWidth': 411, 'origHeight': 411, 'width': 411, 'height': 411, 'widthPercent': 0.45, 'rescaleHeight': False, 'trialN': 45, 'loaded': True, 'loadedTime': 79771.70932339165, 'positionName': 'LEFT', 'positionCoords': [510.6, 334.5], 'bid': 7.72}, {'imgObject': {}, 'id': 'bagel plain', 'src': '/static/foodstim60/bagel plain.jpg', 'key': 'i', 'origWidth': 410, 'origHeight': 410, 'width': 410, 'height': 410, 'widthPercent': 0.45, 'rescaleHeight': False, 'trialN': 45, 'loaded': True, 'loadedTime': 79771.90934881389, 'positionName': 'RIGHT', 'positionCoords': [998.4, 335], 'bid': 7.97}]",79769.50932311229,1669830942443,Grapes,bagel plain,7.72,7.97,0.25,bagel plain,1884.100004330161,1885,1884.2000170412794,True,i,82158.40930900436,2388.8999858920724,1669830944832,2389,HRV,HRV_0102,2022-11-30 17:59:09
46,"[{'imgObject': {}, 'id': 'raspberries', 'src': '/static/foodstim60/raspberries.jpg', 'key': 'u', 'origWidth': 411, 'origHeight': 411, 'width': 411, 'height': 411, 'widthPercent': 0.45, 'rescaleHeight': False, 'trialN': 46, 'loaded': True, 'loadedTime': 82161.20931570911, 'positionName': 'LEFT', 'positionCoords': [510.6, 334.5], 'bid': 9.69}, {'imgObject': {}, 'id': 'rigatoni', 'src': '/static/foodstim60/rigatoni.jpg', 'key': 'i', 'origWidth': 411, 'origHeight': 411, 'width': 411, 'height': 411, 'widthPercent': 0.45, 'rescaleHeight': False, 'trialN': 46, 'loaded': True, 'loadedTime': 82161.30932842023, 'positionName': 'RIGHT', 'positionCoords': [998.4, 334.5], 'bid': 3.39}]",82159.00931542975,1669830944833,raspberries,rigatoni,9.69,3.39,-6.299999999999999,rigatoni,934.8000234666688,934,934.8999663365103,True,i,83601.40932716308,1442.4000117333344,1669830946275,1442,HRV,HRV_0102,2022-11-30 17:59:09
47,"[{'imgObject': {}, 'id': 'yogurt no spoon', 'src': '/static/foodstim60/yogurt no spoon.jpg', 'key': 'u', 'origWidth': 411, 'origHeight': 410, 'width': 411, 'height': 410, 'widthPercent': 0.45, 'rescaleHeight': False, 'trialN': 47, 'loaded': True, 'loadedTime': 83605.70931501071, 'positionName': 'LEFT', 'positionCoords': [510.6, 335], 'bid': 1.55}, {'imgObject': {}, 'id': 'lox', 'src': '/static/foodstim60/lox.jpg', 'key': 'i', 'origWidth': 410, 'origHeight': 411, 'width': 410, 'height': 411, 'widthPercent': 0.45, 'rescaleHeight': False, 'trialN': 47, 'loaded': True, 'loadedTime': 83605.80932772181, 'positionName': 'RIGHT', 'positionCoords': [998.4, 334.5], 'bid': 2.08}]",83602.50932730277,1669830946277,yogurt no spoon,lox,1.55,2.08,0.53,yogurt no spoon,941.3000115936447,941,941.49996717459,True,u,85063.30930327738,1460.7999759746017,1669830947737,1460,HRV,HRV_0102,2022-11-30 17:59:09
48,"[{'imgObject': {}, 'id': 'omelette', 'src': '/static/foodstim60/omelette.jpg', 'key': 'u', 'origWidth': 410, 'origHeight': 409, 'width': 410, 'height': 409, 'widthPercent': 0.45, 'rescaleHeight': False, 'trialN': 48, 'loaded': True, 'loadedTime': 85066.40934811547, 'positionName': 'LEFT', 'positionCoords': [511.6, 335.5], 'bid': 7.19}, {'imgObject': {}, 'id': 'mashed potato', 'src': '/static/foodstim60/mashed potato.jpg', 'key': 'i', 'origWidth': 409, 'origHeight': 409, 'width': 409, 'height': 409, 'widthPercent': 0.45, 'rescaleHeight': False, 'trialN': 48, 'loaded': True, 'loadedTime': 85066.60930369642, 'positionName': 'RIGHT', 'positionCoords': [998.4, 335.5], 'bid': 7.930000000000001}]",85064.109335125,1669830947738,omelette,mashed potato,7.19,7.930000000000001,0.7400000000000002,mashed potato,891.8999481777573,892,891.9999608888756,True,i,86463.20929056626,1399.0999554412556,1669830949137,1399,HRV,HRV_0102,2022-11-30 17:59:09
49,"[{'imgObject': {}, 'id': 'salmon', 'src': '/static/foodstim60/salmon.jpg', 'key': 'u', 'origWidth': 410, 'origHeight': 409, 'width': 410, 'height': 409, 'widthPercent': 0.45, 'rescaleHeight': False, 'trialN': 49, 'loaded': True, 'loadedTime': 86466.30933540437, 'positionName': 'LEFT', 'positionCoords': [511.6, 335.5], 'bid': 9.37}, {'imgObject': {}, 'id': 'banana', 'src': '/static/foodstim60/banana.jpg', 'key': 'i', 'origWidth': 410, 'origHeight': 410, 'width': 410, 'height': 410, 'widthPercent': 0.45, 'rescaleHeight': False, 'trialN': 49, 'loaded': True, 'loadedTime': 86466.40934811547, 'positionName': 'RIGHT', 'positionCoords': [998.4, 335], 'bid': 9.87}]",86463.90930970277,1669830949137,salmon,banana,9.37,9.87,0.5,banana,869.5999770920607,870,869.8000025142974,True,i,87843.20933247103,1379.3000227682642,1669830950517,1380,HRV,HRV_0102,2022-11-30 17:59:09
50,"[{'imgObject': {}, 'id': 'yogurt no spoon', 'src': '/static/foodstim60/yogurt no spoon.jpg', 'key': 'u', 'origWidth': 411, 'origHeight': 410, 'width': 411, 'height': 410, 'widthPercent': 0.45, 'rescaleHeight': False, 'trialN': 50, 'loaded': True, 'loadedTime': 87846.20929475673, 'positionName': 'LEFT', 'positionCoords': [510.6, 335], 'bid': 1.55}, {'imgObject': {}, 'id': 'kiwi', 'src': '/static/foodstim60/kiwi.jpg', 'key': 'i', 'origWidth': 410, 'origHeight': 410, 'width': 410, 'height': 410, 'widthPercent': 0.45, 'rescaleHeight': False, 'trialN': 50, 'loaded': True, 'loadedTime': 87846.40932017897, 'positionName': 'RIGHT', 'positionCoords': [998.4, 335], 'bid': 0.31}]",87843.90928176626,1669830950518,yogurt no spoon,kiwi,1.55,0.31,-1.24,yogurt no spoon,979.5000481904863,984,984.2000170412648,True,u,89333.10930579166,1489.2000240253983,1669830952006,1488,HRV,HRV_0102,2022-11-30 17:59:09
51,"[{'imgObject': {}, 'id': 'chicken nuggets2', 'src': '/static/foodstim60/chicken nuggets2.jpg', 'key': 'u', 'origWidth': 410, 'origHeight': 409, 'width': 410, 'height': 409, 'widthPercent': 0.45, 'rescaleHeight': False, 'trialN': 51, 'loaded': True, 'loadedTime': 89336.00932520753, 'positionName': 'LEFT', 'positionCoords': [511.6, 335.5], 'bid': 4.45}, {'imgObject': {}, 'id': 'baked potato', 'src': '/static/foodstim60/baked potato.jpg', 'key': 'i', 'origWidth': 409, 'origHeight': 410, 'width': 409, 'height': 410, 'widthPercent': 0.45, 'rescaleHeight': False, 'trialN': 51, 'loaded': True, 'loadedTime': 89336.20928078848, 'positionName': 'RIGHT', 'positionCoords': [998.4, 335], 'bid': 9.81}]",89333.90933763928,1669830952008,chicken nuggets2,baked potato,4.45,9.81,5.36,baked potato,830.1999974857172,829,830.300010196821,True,i,90667.40933554404,1333.499997904757,1669830953341,1333,HRV,HRV_0102,2022-11-30 17:59:09
52,"[{'imgObject': {}, 'id': 'roastedpotatoes', 'src': '/static/foodstim60/roastedpotatoes.jpg', 'key': 'u', 'origWidth': 409, 'origHeight': 410, 'width': 409, 'height': 410, 'widthPercent': 0.45, 'rescaleHeight': False, 'trialN': 52, 'loaded': True, 'loadedTime': 90670.60932325198, 'positionName': 'LEFT', 'positionCoords': [512.6, 335], 'bid': 8.93}, {'imgObject': {}, 'id': 'blueberries', 'src': '/static/foodstim60/blueberries.jpg', 'key': 'i', 'origWidth': 411, 'origHeight': 411, 'width': 411, 'height': 411, 'widthPercent': 0.45, 'rescaleHeight': False, 'trialN': 52, 'loaded': True, 'loadedTime': 90670.7093359631, 'positionName': 'RIGHT', 'positionCoords': [998.4, 334.5], 'bid': 8.66}]",90668.20929755039,1669830953342,roastedpotatoes,blueberries,8.93,8.66,-0.2699999999999996,blueberries,1039.8000304507877,1039,1039.999986031733,True,i,92227.90934322658,1559.700045676189,1669830954902,1560,HRV,HRV_0102,2022-11-30 17:59:09
53,"[{'imgObject': {}, 'id': 'Grapes', 'src': '/static/foodstim60/Grapes.jpg', 'key': 'u', 'origWidth': 411, 'origHeight': 411, 'width': 411, 'height': 411, 'widthPercent': 0.45, 'rescaleHeight': False, 'trialN': 53, 'loaded': True, 'loadedTime': 92230.80929280118, 'positionName': 'LEFT', 'positionCoords': [510.6, 334.5], 'bid': 7.72}, {'imgObject': {}, 'id': 'omelette', 'src': '/static/foodstim60/omelette.jpg', 'key': 'i', 'origWidth': 410, 'origHeight': 409, 'width': 410, 'height': 409, 'widthPercent': 0.45, 'rescaleHeight': False, 'trialN': 53, 'loaded': True, 'loadedTime': 92230.9093055123, 'positionName': 'RIGHT', 'positionCoords': [998.4, 335.5], 'bid': 7.19}]",92228.80931794405,1669830954902,Grapes,omelette,7.72,7.19,-0.5299999999999994,Grapes,887.4000047492009,888,887.600030171423,True,u,93628.10929880753,1399.2999808634777,1669830956302,1400,HRV,HRV_0102,2022-11-30 17:59:09
54,"[{'imgObject': {}, 'id': 'burger', 'src': '/static/foodstim60/burger.jpg', 'key': 'u', 'origWidth': 409, 'origHeight': 409, 'width': 409, 'height': 409, 'widthPercent': 0.45, 'rescaleHeight': False, 'trialN': 54, 'loaded': True, 'loadedTime': 93630.80929280118, 'positionName': 'LEFT', 'positionCoords': [512.6, 335.5], 'bid': 2.77}, {'imgObject': {}, 'id': 'turkeysandwich', 'src': '/static/foodstim60/turkeysandwich.jpg', 'key': 'i', 'origWidth': 409, 'origHeight': 409, 'width': 409, 'height': 409, 'widthPercent': 0.45, 'rescaleHeight': False, 'trialN': 54, 'loaded': True, 'loadedTime': 93630.9093055123, 'positionName': 'RIGHT', 'positionCoords': [998.4, 335.5], 'bid': 0.45}]",93628.90933065515,1669830956302,burger,turkeysandwich,2.77,0.45,-2.32,burger,984.700010755565,986,984.8999663365103,True,u,95128.30932422976,1499.3999935746106,1669830957802,1500,HRV,HRV_0102,2022-11-30 17:59:09
55,"[{'imgObject': {}, 'id': 'omelette', 'src': '/static/foodstim60/omelette.jpg', 'key': 'u', 'origWidth': 410, 'origHeight': 409, 'width': 410, 'height': 409, 'widthPercent': 0.45, 'rescaleHeight': False, 'trialN': 55, 'loaded': True, 'loadedTime': 95131.20934364563, 'positionName': 'LEFT', 'positionCoords': [511.6, 335.5], 'bid': 7.19}, {'imgObject': {}, 'id': 'salmon', 'src': '/static/foodstim60/salmon.jpg', 'key': 'i', 'origWidth': 410, 'origHeight': 409, 'width': 410, 'height': 409, 'widthPercent': 0.45, 'rescaleHeight': False, 'trialN': 55, 'loaded': True, 'loadedTime': 95131.40929922658, 'positionName': 'RIGHT', 'positionCoords': [998.4, 335.5], 'bid': 9.37}]",95129.1092862361,1669830957803,omelette,salmon,7.19,9.37,2.179999999999999,salmon,864.3000018158782,864,864.5000272381003,True,i,96513.30930327738,1384.2000170412794,1669830959187,1384,HRV,HRV_0102,2022-11-30 17:59:09
56,"[{'imgObject': {}, 'id': 'sweetpotato', 'src': '/static/foodstim60/sweetpotato.jpg', 'key': 'u', 'origWidth': 410, 'origHeight': 410, 'width': 410, 'height': 410, 'widthPercent': 0.45, 'rescaleHeight': False, 'trialN': 56, 'loaded': True, 'loadedTime': 96516.20932269325, 'positionName': 'LEFT', 'positionCoords': [511.6, 335], 'bid': 3.8}, {'imgObject': {}, 'id': 'chicken nuggets2', 'src': '/static/foodstim60/chicken nuggets2.jpg', 'key': 'i', 'origWidth': 410, 'origHeight': 409, 'width': 410, 'height': 409, 'widthPercent': 0.45, 'rescaleHeight': False, 'trialN': 56, 'loaded': True, 'loadedTime': 96516.60930369642, 'positionName': 'RIGHT', 'positionCoords': [998.4, 335.5], 'bid': 4.45}]",96514.109335125,1669830959188,sweetpotato,chicken nuggets2,3.8,4.45,0.6500000000000004,sweetpotato,1259.699975834912,1260,1259.7999885460304,True,u,98283.00929308054,1768.8999579555384,1669830960957,1769,HRV,HRV_0102,2022-11-30 17:59:09
57,"[{'imgObject': {}, 'id': 'roastedpotatoes', 'src': '/static/foodstim60/roastedpotatoes.jpg', 'key': 'u', 'origWidth': 409, 'origHeight': 410, 'width': 409, 'height': 410, 'widthPercent': 0.45, 'rescaleHeight': False, 'trialN': 57, 'loaded': True, 'loadedTime': 98285.60934420436, 'positionName': 'LEFT', 'positionCoords': [512.6, 335], 'bid': 8.93}, {'imgObject': {}, 'id': 'fruitsalad', 'src': '/static/foodstim60/fruitsalad.jpg', 'key': 'i', 'origWidth': 410, 'origHeight': 410, 'width': 410, 'height': 410, 'widthPercent': 0.45, 'rescaleHeight': False, 'trialN': 57, 'loaded': True, 'loadedTime': 98285.70928707419, 'positionName': 'RIGHT', 'positionCoords': [998.4, 335], 'bid': 8.92}]",98283.60929950594,1669830960958,roastedpotatoes,fruitsalad,8.93,8.92,-0.009999999999999787,roastedpotatoes,872.3999837968149,872,872.4999965079332,True,u,99668.3093102615,1384.7000107555505,1669830962342,1384,HRV,HRV_0102,2022-11-30 17:59:09
58,"[{'imgObject': {}, 'id': 'luckycharms', 'src': '/static/foodstim60/luckycharms.jpg', 'key': 'u', 'origWidth': 410, 'origHeight': 409, 'width': 410, 'height': 409, 'widthPercent': 0.45, 'rescaleHeight': False, 'trialN': 58, 'loaded': True, 'loadedTime': 99672.30932981706, 'positionName': 'LEFT', 'positionCoords': [511.6, 335.5], 'bid': 2.89}, {'imgObject': {}, 'id': 'kiwi', 'src': '/static/foodstim60/kiwi.jpg', 'key': 'i', 'origWidth': 410, 'origHeight': 410, 'width': 410, 'height': 410, 'widthPercent': 0.45, 'rescaleHeight': False, 'trialN': 58, 'loaded': True, 'loadedTime': 99672.90933624246, 'positionName': 'RIGHT', 'positionCoords': [998.4, 335], 'bid': 0.31}]",99669.20928497896,1669830962342,luckycharms,kiwi,2.89,0.31,-2.58,kiwi,974.9000222095201,976,975.1000476317422,True,i,101153.10933372816,1483.9000487492012,1669830963827,1485,HRV,HRV_0102,2022-11-30 17:59:09
59,"[{'imgObject': {}, 'id': 'apple slices', 'src': '/static/foodstim60/apple slices.jpg', 'key': 'u', 'origWidth': 409, 'origHeight': 410, 'width': 409, 'height': 410, 'widthPercent': 0.45, 'rescaleHeight': False, 'trialN': 59, 'loaded': True, 'loadedTime': 101155.70931501071, 'positionName': 'LEFT', 'positionCoords': [512.6, 335], 'bid': 9.67}, {'imgObject': {}, 'id': 'rigatoni and sauce', 'src': '/static/foodstim60/rigatoni and sauce.jpg', 'key': 'i', 'origWidth': 410, 'origHeight': 411, 'width': 410, 'height': 411, 'widthPercent': 0.45, 'rescaleHeight': False, 'trialN': 59, 'loaded': True, 'loadedTime': 101155.90934043293, 'positionName': 'RIGHT', 'positionCoords': [998.4, 334.5], 'bid': 8.22}]",101153.8092830234,1669830963827,apple slices,rigatoni and sauce,9.67,8.22,-1.4499999999999993,apple slices,770.1000406476378,771,770.4000089396868,True,u,102433.409343925,1279.6000609016046,1669830965107,1280,HRV,HRV_0102,2022-11-30 17:59:09
60,"[{'imgObject': {}, 'id': 'salad w chicken', 'src': '/static/foodstim60/salad w chicken.jpg', 'key': 'u', 'origWidth': 411, 'origHeight': 411, 'width': 411, 'height': 411, 'widthPercent': 0.45, 'rescaleHeight': False, 'trialN': 60, 'loaded': True, 'loadedTime': 102436.3092934996, 'positionName': 'LEFT', 'positionCoords': [510.6, 334.5], 'bid': 5.66}, {'imgObject': {}, 'id': 'strawberries', 'src': '/static/foodstim60/strawberries.jpg', 'key': 'i', 'origWidth': 410, 'origHeight': 410, 'width': 410, 'height': 410, 'widthPercent': 0.45, 'rescaleHeight': False, 'trialN': 60, 'loaded': True, 'loadedTime': 102436.80928721388, 'positionName': 'RIGHT', 'positionCoords': [998.4, 335], 'bid': 9.87}]",102434.20930593133,1669830965108,salad w chicken,strawberries,5.66,9.87,4.209999999999999,strawberries,949.6000189968327,950,949.7999745777779,True,i,103893.20933247103,1459.0000265396957,1669830966567,1459,HRV,HRV_0102,2022-11-30 17:59:09
61,"[{'imgObject': {}, 'id': 'omelette', 'src': '/static/foodstim60/omelette.jpg', 'key': 'u', 'origWidth': 410, 'origHeight': 409, 'width': 410, 'height': 409, 'widthPercent': 0.45, 'rescaleHeight': False, 'trialN': 61, 'loaded': True, 'loadedTime': 103896.30930746785, 'positionName': 'LEFT', 'positionCoords': [511.6, 335.5], 'bid': 7.19}, {'imgObject': {}, 'id': 'rigatoni and sauce', 'src': '/static/foodstim60/rigatoni and sauce.jpg', 'key': 'i', 'origWidth': 410, 'origHeight': 411, 'width': 410, 'height': 411, 'widthPercent': 0.45, 'rescaleHeight': False, 'trialN': 61, 'loaded': True, 'loadedTime': 103896.70928847101, 'positionName': 'RIGHT', 'positionCoords': [998.4, 334.5], 'bid': 8.22}]",103893.80933889642,1669830966568,omelette,rigatoni and sauce,7.19,8.22,1.0300000000000002,rigatoni and sauce,870.4999518095283,870,870.6999772317504,True,i,105298.30928232499,1404.499943428571,1669830967972,1404,HRV,HRV_0102,2022-11-30 17:59:09
62,"[{'imgObject': {}, 'id': 'shreddedwheatwithmilk', 'src': '/static/foodstim60/shreddedwheatwithmilk.jpg', 'key': 'u', 'origWidth': 410, 'origHeight': 410, 'width': 410, 'height': 410, 'widthPercent': 0.45, 'rescaleHeight': False, 'trialN': 62, 'loaded': True, 'loadedTime': 105301.10928902974, 'positionName': 'LEFT', 'positionCoords': [511.6, 335], 'bid': 6.51}, {'imgObject': {}, 'id': 'fried eggs', 'src': '/static/foodstim60/fried eggs.jpg', 'key': 'i', 'origWidth': 410, 'origHeight': 410, 'width': 410, 'height': 410, 'widthPercent': 0.45, 'rescaleHeight': False, 'trialN': 62, 'loaded': True, 'loadedTime': 105301.30931445198, 'positionName': 'RIGHT', 'positionCoords': [998.4, 335], 'bid': 5.12}]",105298.90928875038,1669830967972,shreddedwheatwithmilk,fried eggs,6.51,5.12,-1.3899999999999997,shreddedwheatwithmilk,1097.1000504254043,1097,1097.3000060063496,True,u,106908.30929629324,1609.400007542863,1669830969582,1610,HRV,HRV_0102,2022-11-30 17:59:09
63,"[{'imgObject': {}, 'id': 'tacos', 'src': '/static/foodstim60/tacos.jpg', 'key': 'u', 'origWidth': 411, 'origHeight': 411, 'width': 411, 'height': 411, 'widthPercent': 0.45, 'rescaleHeight': False, 'trialN': 63, 'loaded': True, 'loadedTime': 106911.20931570911, 'positionName': 'LEFT', 'positionCoords': [510.6, 334.5], 'bid': 9.21}, {'imgObject': {}, 'id': 'mango', 'src': '/static/foodstim60/mango.jpg', 'key': 'i', 'origWidth': 411, 'origHeight': 411, 'width': 411, 'height': 411, 'widthPercent': 0.45, 'rescaleHeight': False, 'trialN': 63, 'loaded': True, 'loadedTime': 106911.40934113135, 'positionName': 'RIGHT', 'positionCoords': [998.4, 334.5], 'bid': 6.87}]",106909.10932814087,1669830969583,tacos,mango,9.21,6.87,-2.3400000000000007,tacos,1355.7999689904682,1355,1355.8999817015865,True,u,108773.30931724563,1864.1999891047599,1669830971447,1864,HRV,HRV_0102,2022-11-30 17:59:09
64,"[{'imgObject': {}, 'id': 'cantaloupe', 'src': '/static/foodstim60/cantaloupe.jpg', 'key': 'u', 'origWidth': 409, 'origHeight': 409, 'width': 409, 'height': 409, 'widthPercent': 0.45, 'rescaleHeight': False, 'trialN': 64, 'loaded': True, 'loadedTime': 108775.90929852816, 'positionName': 'LEFT', 'positionCoords': [512.6, 335.5], 'bid': 0.3}, {'imgObject': {}, 'id': 'eggsalad', 'src': '/static/foodstim60/eggsalad.jpg', 'key': 'i', 'origWidth': 410, 'origHeight': 409, 'width': 410, 'height': 409, 'widthPercent': 0.45, 'rescaleHeight': False, 'trialN': 64, 'loaded': True, 'loadedTime': 108776.1093239504, 'positionName': 'RIGHT', 'positionCoords': [998.4, 335.5], 'bid': 2.85}]",108773.90932367103,1669830971448,cantaloupe,eggsalad,0.3,2.85,2.5500000000000003,eggsalad,1059.4000075428485,1060,1059.5999631237937,True,i,110348.00931403293,1574.099990361894,1669830973022,1574,HRV,HRV_0102,2022-11-30 17:59:09
65,"[{'imgObject': {}, 'id': 'turkey sandwich', 'src': '/static/foodstim60/turkey sandwich.jpg', 'key': 'u', 'origWidth': 409, 'origHeight': 409, 'width': 409, 'height': 409, 'widthPercent': 0.45, 'rescaleHeight': False, 'trialN': 65, 'loaded': True, 'loadedTime': 110350.60929531547, 'positionName': 'LEFT', 'positionCoords': [512.6, 335.5], 'bid': 0.6}, {'imgObject': {}, 'id': 'hotdog w must', 'src': '/static/foodstim60/hotdog w must.jpg', 'key': 'i', 'origWidth': 409, 'origHeight': 409, 'width': 409, 'height': 409, 'widthPercent': 0.45, 'rescaleHeight': False, 'trialN': 65, 'loaded': True, 'loadedTime': 110350.70930802658, 'positionName': 'RIGHT', 'positionCoords': [998.4, 335.5], 'bid': 0.15}]",110348.90928875038,1669830973022,turkey sandwich,hotdog w must,0.6,0.15,-0.44999999999999996,hotdog w must,1095.2000184381031,1096,1095.3000311492215,True,i,111947.40930760754,1598.5000188571576,1669830974621,1599,HRV,HRV_0102,2022-11-30 17:59:09
66,"[{'imgObject': {}, 'id': 'turkeysandwich', 'src': '/static/foodstim60/turkeysandwich.jpg', 'key': 'u', 'origWidth': 409, 'origHeight': 409, 'width': 409, 'height': 409, 'widthPercent': 0.45, 'rescaleHeight': False, 'trialN': 66, 'loaded': True, 'loadedTime': 111950.30932702341, 'positionName': 'LEFT', 'positionCoords': [512.6, 335.5], 'bid': 0.45}, {'imgObject': {}, 'id': 'grilled chicken strips', 'src': '/static/foodstim60/grilled chicken strips.jpg', 'key': 'i', 'origWidth': 410, 'origHeight': 411, 'width': 410, 'height': 411, 'widthPercent': 0.45, 'rescaleHeight': False, 'trialN': 66, 'loaded': True, 'loadedTime': 111950.40933973451, 'positionName': 'RIGHT', 'positionCoords': [998.4, 334.5], 'bid': 0.39}]",111948.00931403293,1669830974622,turkeysandwich,grilled chicken strips,0.45,0.39,-0.06,turkeysandwich,805.0000069841335,805,805.2000324063556,True,u,113269.40931040118,1321.3999963682581,1669830975943,1321,HRV,HRV_0102,2022-11-30 17:59:09
67,"[{'imgObject': {}, 'id': 'granola w milk', 'src': '/static/foodstim60/granola w milk.jpg', 'key': 'u', 'origWidth': 410, 'origHeight': 410, 'width': 410, 'height': 410, 'widthPercent': 0.45, 'rescaleHeight': False, 'trialN': 67, 'loaded': True, 'loadedTime': 113272.10930439483, 'positionName': 'LEFT', 'positionCoords': [511.6, 335], 'bid': 6.4}, {'imgObject': {}, 'id': 'burrito', 'src': '/static/foodstim60/burrito.jpg', 'key': 'i', 'origWidth': 410, 'origHeight': 410, 'width': 410, 'height': 410, 'widthPercent': 0.45, 'rescaleHeight': False, 'trialN': 67, 'loaded': True, 'loadedTime': 113272.20931710594, 'positionName': 'RIGHT', 'positionCoords': [998.4, 335], 'bid': 6.12}]",113270.00931682657,1669830975944,granola w milk,burrito,6.4,6.12,-0.28000000000000025,burrito,983.7999661968206,984,983.8999789079389,True,i,114773.00934895356,1503.0000321269908,1669830977447,1503,HRV,HRV_0102,2022-11-30 17:59:09
68,"[{'imgObject': {}, 'id': 'mango', 'src': '/static/foodstim60/mango.jpg', 'key': 'u', 'origWidth': 411, 'origHeight': 411, 'width': 411, 'height': 411, 'widthPercent': 0.45, 'rescaleHeight': False, 'trialN': 68, 'loaded': True, 'loadedTime': 114775.60933023611, 'positionName': 'LEFT', 'positionCoords': [510.6, 334.5], 'bid': 6.87}, {'imgObject': {}, 'id': 'salad w chicken', 'src': '/static/foodstim60/salad w chicken.jpg', 'key': 'i', 'origWidth': 411, 'origHeight': 411, 'width': 411, 'height': 411, 'widthPercent': 0.45, 'rescaleHeight': False, 'trialN': 68, 'loaded': True, 'loadedTime': 114775.60933023611, 'positionName': 'RIGHT', 'positionCoords': [998.4, 334.5], 'bid': 5.66}]",114773.60928553769,1669830977448,mango,salad w chicken,6.87,5.66,-1.21,mango,890.7000051682553,890,891.0000433015812,True,u,116183.00929308054,1409.4000075428485,1669830978857,1409,HRV,HRV_0102,2022-11-30 17:59:09
69,"[{'imgObject': {}, 'id': 'eggsalad', 'src': '/static/foodstim60/eggsalad.jpg', 'key': 'u', 'origWidth': 410, 'origHeight': 409, 'width': 410, 'height': 409, 'widthPercent': 0.45, 'rescaleHeight': False, 'trialN': 69, 'loaded': True, 'loadedTime': 116185.70928707419, 'positionName': 'LEFT', 'positionCoords': [511.6, 335.5], 'bid': 2.85}, {'imgObject': {}, 'id': 'Tribe humus pita', 'src': '/static/foodstim60/Tribe humus pita.jpg', 'key': 'i', 'origWidth': 411, 'origHeight': 411, 'width': 411, 'height': 411, 'widthPercent': 0.45, 'rescaleHeight': False, 'trialN': 69, 'loaded': True, 'loadedTime': 116185.80929978531, 'positionName': 'RIGHT', 'positionCoords': [998.4, 334.5], 'bid': 3.14}]",116183.60929950594,1669830978858,eggsalad,Tribe humus pita,2.85,3.14,0.29000000000000004,Tribe humus pita,892.7999927365017,892,893.2000435809605,True,i,117593.30934518213,1409.700045676189,1669830980267,1409,HRV,HRV_0102,2022-11-30 17:59:09
70,"[{'imgObject': {}, 'id': 'grilled chicken strips', 'src': '/static/foodstim60/grilled chicken strips.jpg', 'key': 'u', 'origWidth': 410, 'origHeight': 411, 'width': 410, 'height': 411, 'widthPercent': 0.45, 'rescaleHeight': False, 'trialN': 70, 'loaded': True, 'loadedTime': 117596.00933917578, 'positionName': 'LEFT', 'positionCoords': [511.6, 334.5], 'bid': 0.39}, {'imgObject': {}, 'id': 'rigatoni', 'src': '/static/foodstim60/rigatoni.jpg', 'key': 'i', 'origWidth': 411, 'origHeight': 411, 'width': 411, 'height': 411, 'widthPercent': 0.45, 'rescaleHeight': False, 'trialN': 70, 'loaded': True, 'loadedTime': 117596.10928204563, 'positionName': 'RIGHT', 'positionCoords': [998.4, 334.5], 'bid': 3.39}]",117594.00929447736,1669830980268,grilled chicken strips,rigatoni,0.39,3.39,3.0,rigatoni,1170.4000089396868,1170,1170.600034361909,True,i,119267.0092846996,1672.9999902222335,1669830981941,1673,HRV,HRV_0102,2022-11-30 17:59:09
71,"[{'imgObject': {}, 'id': 'strawberries', 'src': '/static/foodstim60/strawberries.jpg', 'key': 'u', 'origWidth': 410, 'origHeight': 410, 'width': 410, 'height': 410, 'widthPercent': 0.45, 'rescaleHeight': False, 'trialN': 71, 'loaded': True, 'loadedTime': 119269.70934853452, 'positionName': 'LEFT', 'positionCoords': [511.6, 335], 'bid': 9.87}, {'imgObject': {}, 'id': 'ice cream sundae 002', 'src': '/static/foodstim60/ice cream sundae 002.jpg', 'key': 'i', 'origWidth': 409, 'origHeight': 409, 'width': 409, 'height': 409, 'widthPercent': 0.45, 'rescaleHeight': False, 'trialN': 71, 'loaded': True, 'loadedTime': 119269.80929140435, 'positionName': 'RIGHT', 'positionCoords': [998.4, 335.5], 'bid': 9.9}]",119267.60929112499,1669830981941,strawberries,ice cream sundae 002,9.87,9.9,0.030000000000001137,strawberries,664.400014526982,665,664.7000526603224,True,u,120448.60932045833,1181.0000293333433,1669830983123,1182,HRV,HRV_0102,2022-11-30 17:59:09
72,"[{'imgObject': {}, 'id': 'cantaloupe', 'src': '/static/foodstim60/cantaloupe.jpg', 'key': 'u', 'origWidth': 409, 'origHeight': 409, 'width': 409, 'height': 409, 'widthPercent': 0.45, 'rescaleHeight': False, 'trialN': 72, 'loaded': True, 'loadedTime': 120451.20930174086, 'positionName': 'LEFT', 'positionCoords': [512.6, 335.5], 'bid': 0.3}, {'imgObject': {}, 'id': 'sushi w_condiments', 'src': '/static/foodstim60/sushi w_condiments.jpg', 'key': 'i', 'origWidth': 410, 'origHeight': 410, 'width': 410, 'height': 410, 'widthPercent': 0.45, 'rescaleHeight': False, 'trialN': 72, 'loaded': True, 'loadedTime': 120451.30931445198, 'positionName': 'RIGHT', 'positionCoords': [998.4, 335], 'bid': 0.54}]",120449.20932688372,1669830983123,cantaloupe,sushi w_condiments,0.3,0.54,0.24000000000000005,cantaloupe,1026.799984355559,1026,1026.8999970666773,True,u,121993.00930704881,1543.7999801650876,1669830984666,1543,HRV,HRV_0102,2022-11-30 17:59:09
73,"[{'imgObject': {}, 'id': 'lox', 'src': '/static/foodstim60/lox.jpg', 'key': 'u', 'origWidth': 410, 'origHeight': 411, 'width': 410, 'height': 411, 'widthPercent': 0.45, 'rescaleHeight': False, 'trialN': 73, 'loaded': True, 'loadedTime': 121995.60928833134, 'positionName': 'LEFT', 'positionCoords': [511.6, 334.5], 'bid': 2.08}, {'imgObject': {}, 'id': 'burger', 'src': '/static/foodstim60/burger.jpg', 'key': 'i', 'origWidth': 409, 'origHeight': 409, 'width': 409, 'height': 409, 'widthPercent': 0.45, 'rescaleHeight': False, 'trialN': 73, 'loaded': True, 'loadedTime': 121995.70930104246, 'positionName': 'RIGHT', 'positionCoords': [998.4, 335.5], 'bid': 2.77}]",121993.70932618532,1669830984668,lox,burger,2.08,2.77,0.69,lox,1010.3999949714198,1010,1010.5000076825381,True,u,123513.30930327738,1519.5999770920607,1669830986187,1519,HRV,HRV_0102,2022-11-30 17:59:09
74,"[{'imgObject': {}, 'id': 'granola w milk', 'src': '/static/foodstim60/granola w milk.jpg', 'key': 'u', 'origWidth': 410, 'origHeight': 410, 'width': 410, 'height': 410, 'widthPercent': 0.45, 'rescaleHeight': False, 'trialN': 74, 'loaded': True, 'loadedTime': 123516.10930998213, 'positionName': 'LEFT', 'positionCoords': [511.6, 335], 'bid': 6.4}, {'imgObject': {}, 'id': 'raisin bran w milk', 'src': '/static/foodstim60/raisin bran w milk.jpg', 'key': 'i', 'origWidth': 411, 'origHeight': 411, 'width': 411, 'height': 411, 'widthPercent': 0.45, 'rescaleHeight': False, 'trialN': 74, 'loaded': True, 'loadedTime': 123516.10930998213, 'positionName': 'RIGHT', 'positionCoords': [998.4, 334.5], 'bid': 6.11}]",123514.00932241388,1669830986187,granola w milk,raisin bran w milk,6.4,6.11,-0.29000000000000004,granola w milk,770.0999708063464,771,770.2999962285685,True,u,124813.30930327738,1299.2999808634922,1669830987487,1300,HRV,HRV_0102,2022-11-30 17:59:09
75,"[{'imgObject': {}, 'id': 'luckycharms', 'src': '/static/foodstim60/luckycharms.jpg', 'key': 'u', 'origWidth': 410, 'origHeight': 409, 'width': 410, 'height': 409, 'widthPercent': 0.45, 'rescaleHeight': False, 'trialN': 75, 'loaded': True, 'loadedTime': 124816.10930998213, 'positionName': 'LEFT', 'positionCoords': [511.6, 335.5], 'bid': 2.89}, {'imgObject': {}, 'id': 'rigatoni', 'src': '/static/foodstim60/rigatoni.jpg', 'key': 'i', 'origWidth': 411, 'origHeight': 411, 'width': 411, 'height': 411, 'widthPercent': 0.45, 'rescaleHeight': False, 'trialN': 75, 'loaded': True, 'loadedTime': 124816.20932269325, 'positionName': 'RIGHT', 'positionCoords': [998.4, 334.5], 'bid': 3.39}]",124813.90930970277,1669830987488,luckycharms,rigatoni,2.89,3.39,0.5,rigatoni,942.1999863111123,942,942.2999990222306,True,i,126283.10930579166,1469.1999960888934,1669830988957,1469,HRV,HRV_0102,2022-11-30 17:59:09
76,"[{'imgObject': {}, 'id': 'cheerios', 'src': '/static/foodstim60/cheerios.jpg', 'key': 'u', 'origWidth': 409, 'origHeight': 410, 'width': 409, 'height': 410, 'widthPercent': 0.45, 'rescaleHeight': False, 'trialN': 76, 'loaded': True, 'loadedTime': 126285.90931249643, 'positionName': 'LEFT', 'positionCoords': [512.6, 335], 'bid': 2.09}, {'imgObject': {}, 'id': 'pear', 'src': '/static/foodstim60/pear.jpg', 'key': 'i', 'origWidth': 411, 'origHeight': 410, 'width': 411, 'height': 410, 'widthPercent': 0.45, 'rescaleHeight': False, 'trialN': 76, 'loaded': True, 'loadedTime': 126286.10933791865, 'positionName': 'RIGHT', 'positionCoords': [998.4, 335], 'bid': 9}]",126283.80932492817,1669830988958,cheerios,pear,2.09,9.0,6.91,pear,872.0000027936476,871,872.1000155047659,True,i,127664.00932241388,1380.1999974857172,1669830990338,1380,HRV,HRV_0102,2022-11-30 17:59:09
77,"[{'imgObject': {}, 'id': 'orange slices', 'src': '/static/foodstim60/orange slices.jpg', 'key': 'u', 'origWidth': 409, 'origHeight': 410, 'width': 409, 'height': 410, 'widthPercent': 0.45, 'rescaleHeight': False, 'trialN': 77, 'loaded': True, 'loadedTime': 127667.50934825516, 'positionName': 'LEFT', 'positionCoords': [512.6, 335], 'bid': 9.77}, {'imgObject': {}, 'id': 'blueberries', 'src': '/static/foodstim60/blueberries.jpg', 'key': 'i', 'origWidth': 411, 'origHeight': 411, 'width': 411, 'height': 411, 'widthPercent': 0.45, 'rescaleHeight': False, 'trialN': 77, 'loaded': True, 'loadedTime': 127667.7093038361, 'positionName': 'RIGHT', 'positionCoords': [998.4, 334.5], 'bid': 8.66}]",127665.3093479758,1669830990339,orange slices,blueberries,9.77,8.66,-1.1099999999999994,orange slices,898.7999871492066,899,898.9999427301518,True,u,129068.00934196945,1402.6999939936504,1669830991742,1403,HRV,HRV_0102,2022-11-30 17:59:09
78,"[{'imgObject': {}, 'id': 'mashed potato', 'src': '/static/foodstim60/mashed potato.jpg', 'key': 'u', 'origWidth': 409, 'origHeight': 409, 'width': 409, 'height': 409, 'widthPercent': 0.45, 'rescaleHeight': False, 'trialN': 78, 'loaded': True, 'loadedTime': 129070.40929782976, 'positionName': 'LEFT', 'positionCoords': [512.6, 335.5], 'bid': 7.930000000000001}, {'imgObject': {}, 'id': 'bagel plain', 'src': '/static/foodstim60/bagel plain.jpg', 'key': 'i', 'origWidth': 410, 'origHeight': 410, 'width': 410, 'height': 410, 'widthPercent': 0.45, 'rescaleHeight': False, 'trialN': 78, 'loaded': True, 'loadedTime': 129070.60932325198, 'positionName': 'RIGHT', 'positionCoords': [998.4, 335], 'bid': 7.97}]",129068.70929126468,1669830991742,mashed potato,bagel plain,7.930000000000001,7.97,0.03999999999999915,mashed potato,1265.200046374608,1266,1265.299989244435,True,u,130843.10931975991,1774.4000284952344,1669830993517,1775,HRV,HRV_0102,2022-11-30 17:59:09
79,"[{'imgObject': {}, 'id': 'fried eggs', 'src': '/static/foodstim60/fried eggs.jpg', 'key': 'u', 'origWidth': 410, 'origHeight': 410, 'width': 410, 'height': 410, 'widthPercent': 0.45, 'rescaleHeight': False, 'trialN': 79, 'loaded': True, 'loadedTime': 130846.40932017897, 'positionName': 'LEFT', 'positionCoords': [511.6, 335], 'bid': 5.12}, {'imgObject': {}, 'id': 'hashbrowns', 'src': '/static/foodstim60/hashbrowns.jpg', 'key': 'i', 'origWidth': 411, 'origHeight': 410, 'width': 411, 'height': 410, 'widthPercent': 0.45, 'rescaleHeight': False, 'trialN': 79, 'loaded': True, 'loadedTime': 130846.60934560119, 'positionName': 'RIGHT', 'positionCoords': [998.4, 335], 'bid': 3.81}]",130843.80933889642,1669830993518,fried eggs,hashbrowns,5.12,3.81,-1.31,fried eggs,739.6000050285656,739,739.7999606095254,True,u,132086.909299925,1243.0999610285799,1669830994761,1243,HRV,HRV_0102,2022-11-30 17:59:09
80,"[{'imgObject': {}, 'id': 'bagel and cc', 'src': '/static/foodstim60/bagel and cc.jpg', 'key': 'u', 'origWidth': 410, 'origHeight': 410, 'width': 410, 'height': 410, 'widthPercent': 0.45, 'rescaleHeight': False, 'trialN': 80, 'loaded': True, 'loadedTime': 132090.0093447631, 'positionName': 'LEFT', 'positionCoords': [511.6, 335], 'bid': 8.01}, {'imgObject': {}, 'id': 'popsicles', 'src': '/static/foodstim60/popsicles.jpg', 'key': 'i', 'origWidth': 410, 'origHeight': 410, 'width': 410, 'height': 410, 'widthPercent': 0.45, 'rescaleHeight': False, 'trialN': 80, 'loaded': True, 'loadedTime': 132090.10928763292, 'positionName': 'RIGHT', 'positionCoords': [998.4, 335], 'bid': 8.18}]",132087.8093444837,1669830994762,bagel and cc,popsicles,8.01,8.18,0.16999999999999993,bagel and cc,948.1999807238171,948,948.2999934349209,True,u,133543.20933247101,1455.3999879873008,1669830996217,1455,HRV,HRV_0102,2022-11-30 17:59:09
81,"[{'imgObject': {}, 'id': 'veggieswithdip', 'src': '/static/foodstim60/veggieswithdip.jpg', 'key': 'u', 'origWidth': 409, 'origHeight': 409, 'width': 409, 'height': 409, 'widthPercent': 0.45, 'rescaleHeight': False, 'trialN': 81, 'loaded': True, 'loadedTime': 133546.10928204563, 'positionName': 'LEFT', 'positionCoords': [512.6, 335.5], 'bid': 8.290000000000001}, {'imgObject': {}, 'id': 'Grapes', 'src': '/static/foodstim60/Grapes.jpg', 'key': 'i', 'origWidth': 411, 'origHeight': 411, 'width': 411, 'height': 411, 'widthPercent': 0.45, 'rescaleHeight': False, 'trialN': 81, 'loaded': True, 'loadedTime': 133546.40932017897, 'positionName': 'RIGHT', 'positionCoords': [998.4, 334.5], 'bid': 7.72}]",133543.90928176625,1669830996217,veggieswithdip,Grapes,8.290000000000001,7.72,-0.5700000000000012,Grapes,900.4000508444733,901,900.7000191365369,True,i,134948.30928232498,1404.4000005587295,1669830997623,1406,HRV,HRV_0102,2022-11-30 17:59:09
82,"[{'imgObject': {}, 'id': 'eggs', 'src': '/static/foodstim60/eggs.jpg', 'key': 'u', 'origWidth': 409, 'origHeight': 409, 'width': 409, 'height': 409, 'widthPercent': 0.45, 'rescaleHeight': False, 'trialN': 82, 'loaded': True, 'loadedTime': 134951.30931445197, 'positionName': 'LEFT', 'positionCoords': [512.6, 335.5], 'bid': 9.3}, {'imgObject': {}, 'id': 'eggsalad', 'src': '/static/foodstim60/eggsalad.jpg', 'key': 'i', 'origWidth': 410, 'origHeight': 409, 'width': 410, 'height': 409, 'widthPercent': 0.45, 'rescaleHeight': False, 'trialN': 82, 'loaded': True, 'loadedTime': 134951.4093271631, 'positionName': 'RIGHT', 'positionCoords': [998.4, 335.5], 'bid': 2.85}]",134949.20932688372,1669830997623,eggs,eggsalad,9.3,2.85,-6.450000000000001,eggs,726.8999970666773,727,727.099952647608,True,u,136179.50933708056,1230.3000101968355,1669830998853,1230,HRV,HRV_0102,2022-11-30 17:59:09
83,"[{'imgObject': {}, 'id': 'mashed potato', 'src': '/static/foodstim60/mashed potato.jpg', 'key': 'u', 'origWidth': 409, 'origHeight': 409, 'width': 409, 'height': 409, 'widthPercent': 0.45, 'rescaleHeight': False, 'trialN': 83, 'loaded': True, 'loadedTime': 136182.2093310742, 'positionName': 'LEFT', 'positionCoords': [512.6, 335.5], 'bid': 7.930000000000001}, {'imgObject': {}, 'id': 'salad w chicken', 'src': '/static/foodstim60/salad w chicken.jpg', 'key': 'i', 'origWidth': 411, 'origHeight': 411, 'width': 411, 'height': 411, 'widthPercent': 0.45, 'rescaleHeight': False, 'trialN': 83, 'loaded': True, 'loadedTime': 136182.3093437853, 'positionName': 'RIGHT', 'positionCoords': [998.4, 334.5], 'bid': 5.66}]",136180.00933079483,1669830998853,mashed potato,salad w chicken,7.930000000000001,5.66,-2.2700000000000005,mashed potato,1089.1000113142945,1090,1089.1999541841215,True,u,137793.30934518215,1613.3000143873214,1669831000467,1614,HRV,HRV_0102,2022-11-30 17:59:09
84,"[{'imgObject': {}, 'id': 'mac & cheese', 'src': '/static/foodstim60/mac & cheese.jpg', 'key': 'u', 'origWidth': 410, 'origHeight': 410, 'width': 410, 'height': 410, 'widthPercent': 0.45, 'rescaleHeight': False, 'trialN': 84, 'loaded': True, 'loadedTime': 137796.0093391758, 'positionName': 'LEFT', 'positionCoords': [511.6, 335], 'bid': 9.73}, {'imgObject': {}, 'id': 'sweetpotato', 'src': '/static/foodstim60/sweetpotato.jpg', 'key': 'i', 'origWidth': 410, 'origHeight': 410, 'width': 410, 'height': 410, 'widthPercent': 0.45, 'rescaleHeight': False, 'trialN': 84, 'loaded': True, 'loadedTime': 137796.10928204563, 'positionName': 'RIGHT', 'positionCoords': [998.4, 335], 'bid': 3.8}]",137794.10930718848,1669831000468,mac & cheese,sweetpotato,9.73,3.8,-5.930000000000001,mac & cheese,699.7999745777634,700,700.0,True,u,139003.20934643928,1209.1000392507995,1669831001677,1209,HRV,HRV_0102,2022-11-30 17:59:09
85,"[{'imgObject': {}, 'id': 'olives', 'src': '/static/foodstim60/olives.jpg', 'key': 'u', 'origWidth': 410, 'origHeight': 410, 'width': 410, 'height': 410, 'widthPercent': 0.45, 'rescaleHeight': False, 'trialN': 85, 'loaded': True, 'loadedTime': 139006.3093214361, 'positionName': 'LEFT', 'positionCoords': [511.6, 335], 'bid': 0.6}, {'imgObject': {}, 'id': 'fried eggs', 'src': '/static/foodstim60/fried eggs.jpg', 'key': 'i', 'origWidth': 410, 'origHeight': 410, 'width': 410, 'height': 410, 'widthPercent': 0.45, 'rescaleHeight': False, 'trialN': 85, 'loaded': True, 'loadedTime': 139006.4093341472, 'positionName': 'RIGHT', 'positionCoords': [998.4, 335], 'bid': 5.12}]",139003.9092957345,1669831001677,olives,fried eggs,0.6,5.12,4.5200000000000005,fried eggs,960.2000393904746,961,960.3000521016074,True,i,140493.20933247101,1489.300036736502,1669831003167,1490,HRV,HRV_0102,2022-11-30 17:59:09
86,"[{'imgObject': {}, 'id': 'tacos', 'src': '/static/foodstim60/tacos.jpg', 'key': 'u', 'origWidth': 411, 'origHeight': 411, 'width': 411, 'height': 411, 'widthPercent': 0.45, 'rescaleHeight': False, 'trialN': 86, 'loaded': True, 'loadedTime': 140496.20929475673, 'positionName': 'LEFT', 'positionCoords': [510.6, 334.5], 'bid': 9.21}, {'imgObject': {}, 'id': 'orange slices', 'src': '/static/foodstim60/orange slices.jpg', 'key': 'i', 'origWidth': 409, 'origHeight': 410, 'width': 409, 'height': 410, 'widthPercent': 0.45, 'rescaleHeight': False, 'trialN': 86, 'loaded': True, 'loadedTime': 140496.60934560117, 'positionName': 'RIGHT', 'positionCoords': [998.4, 335], 'bid': 9.77}]",140493.90928176625,1669831003168,tacos,orange slices,9.21,9.77,0.5599999999999987,tacos,790.000055873039,790,790.0999987428659,True,u,141796.40932017897,1302.5000384127197,1669831004470,1302,HRV,HRV_0102,2022-11-30 17:59:09
87,"[{'imgObject': {}, 'id': 'grilled chicken strips', 'src': '/static/foodstim60/grilled chicken strips.jpg', 'key': 'u', 'origWidth': 410, 'origHeight': 411, 'width': 410, 'height': 411, 'widthPercent': 0.45, 'rescaleHeight': False, 'trialN': 87, 'loaded': True, 'loadedTime': 141799.30933959482, 'positionName': 'LEFT', 'positionCoords': [511.6, 334.5], 'bid': 0.39}, {'imgObject': {}, 'id': 'mashed potato', 'src': '/static/foodstim60/mashed potato.jpg', 'key': 'i', 'origWidth': 409, 'origHeight': 409, 'width': 409, 'height': 409, 'widthPercent': 0.45, 'rescaleHeight': False, 'trialN': 87, 'loaded': True, 'loadedTime': 141799.40928246468, 'positionName': 'RIGHT', 'positionCoords': [998.4, 335.5], 'bid': 7.930000000000001}]",141797.2092821853,1669831004471,grilled chicken strips,mashed potato,0.39,7.930000000000001,7.540000000000001,grilled chicken strips,1016.8000402285834,1017,1016.9000529396872,True,u,143333.20931850278,1536.0000363174768,1669831006007,1536,HRV,HRV_0102,2022-11-30 17:59:09
88,"[{'imgObject': {}, 'id': 'lox', 'src': '/static/foodstim60/lox.jpg', 'key': 'u', 'origWidth': 410, 'origHeight': 411, 'width': 410, 'height': 411, 'widthPercent': 0.45, 'rescaleHeight': False, 'trialN': 88, 'loaded': True, 'loadedTime': 143335.8092997853, 'positionName': 'LEFT', 'positionCoords': [511.6, 334.5], 'bid': 2.08}, {'imgObject': {}, 'id': 'cocktailshrimp', 'src': '/static/foodstim60/cocktailshrimp.jpg', 'key': 'i', 'origWidth': 410, 'origHeight': 410, 'width': 410, 'height': 410, 'widthPercent': 0.45, 'rescaleHeight': False, 'trialN': 88, 'loaded': True, 'loadedTime': 143335.90931249643, 'positionName': 'RIGHT', 'positionCoords': [998.4, 335], 'bid': 0.37}]",143333.90933763928,1669831006007,lox,cocktailshrimp,2.08,0.37,-1.71,lox,1109.999944126961,1111,1110.099956838094,True,u,144963.0093349853,1629.0999973460275,1669831007637,1630,HRV,HRV_0102,2022-11-30 17:59:09
89,"[{'imgObject': {}, 'id': 'Grapes', 'src': '/static/foodstim60/Grapes.jpg', 'key': 'u', 'origWidth': 411, 'origHeight': 411, 'width': 411, 'height': 411, 'widthPercent': 0.45, 'rescaleHeight': False, 'trialN': 89, 'loaded': True, 'loadedTime': 144965.60931626786, 'positionName': 'LEFT', 'positionCoords': [510.6, 334.5], 'bid': 7.72}, {'imgObject': {}, 'id': 'cocktailshrimp', 'src': '/static/foodstim60/cocktailshrimp.jpg', 'key': 'i', 'origWidth': 410, 'origHeight': 410, 'width': 410, 'height': 410, 'widthPercent': 0.45, 'rescaleHeight': False, 'trialN': 89, 'loaded': True, 'loadedTime': 144965.70932897896, 'positionName': 'RIGHT', 'positionCoords': [998.4, 335], 'bid': 0.37}]",144963.60934141072,1669831007638,Grapes,cocktailshrimp,7.72,0.37,-7.35,Grapes,1089.8999733206292,1089,1090.0999987428368,True,u,146573.60928553768,1609.999944126961,1669831009248,1610,HRV,HRV_0102,2022-11-30 17:59:09
90,"[{'imgObject': {}, 'id': 'fried eggs', 'src': '/static/foodstim60/fried eggs.jpg', 'key': 'u', 'origWidth': 410, 'origHeight': 410, 'width': 410, 'height': 410, 'widthPercent': 0.45, 'rescaleHeight': False, 'trialN': 90, 'loaded': True, 'loadedTime': 150215.2093352647, 'positionName': 'LEFT', 'positionCoords': [511.6, 335], 'bid': 5.12}, {'imgObject': {}, 'id': 'Grapes', 'src': '/static/foodstim60/Grapes.jpg', 'key': 'i', 'origWidth': 411, 'origHeight': 411, 'width': 411, 'height': 411, 'widthPercent': 0.45, 'rescaleHeight': False, 'trialN': 90, 'loaded': True, 'loadedTime': 150215.40929084562, 'positionName': 'RIGHT', 'positionCoords': [998.4, 334.5], 'bid': 7.72}]",150213.40931598848,1669831012888,fried eggs,Grapes,5.12,7.72,2.5999999999999996,fried eggs,1190.599992457137,1190,1190.7000051682699,True,u,151923.1092918234,1709.6999758349266,1669831014596,1708,HRV,HRV_0102,2022-11-30 17:59:09
91,"[{'imgObject': {}, 'id': 'blackbeanswithrice', 'src': '/static/foodstim60/blackbeanswithrice.jpg', 'key': 'u', 'origWidth': 410, 'origHeight': 410, 'width': 410, 'height': 410, 'widthPercent': 0.45, 'rescaleHeight': False, 'trialN': 91, 'loaded': True, 'loadedTime': 151926.00931123926, 'positionName': 'LEFT', 'positionCoords': [511.6, 335], 'bid': 6.4}, {'imgObject': {}, 'id': 'Tribe humus pita', 'src': '/static/foodstim60/Tribe humus pita.jpg', 'key': 'i', 'origWidth': 411, 'origHeight': 411, 'width': 411, 'height': 411, 'widthPercent': 0.45, 'rescaleHeight': False, 'trialN': 91, 'loaded': True, 'loadedTime': 151926.2093366615, 'positionName': 'RIGHT', 'positionCoords': [998.4, 334.5], 'bid': 3.14}]",151923.8093109599,1669831014597,blackbeanswithrice,Tribe humus pita,6.4,3.14,-3.2600000000000002,Tribe humus pita,940.3000241650734,941,940.4000368762063,True,i,153373.3093172456,1449.5000062856998,1669831016047,1450,HRV,HRV_0102,2022-11-30 17:59:09
92,"[{'imgObject': {}, 'id': 'corn cob', 'src': '/static/foodstim60/corn cob.jpg', 'key': 'u', 'origWidth': 411, 'origHeight': 411, 'width': 411, 'height': 411, 'widthPercent': 0.45, 'rescaleHeight': False, 'trialN': 92, 'loaded': True, 'loadedTime': 153377.00929866784, 'positionName': 'LEFT', 'positionCoords': [510.6, 334.5], 'bid': 0.11}, {'imgObject': {}, 'id': 'blackbeanswithrice', 'src': '/static/foodstim60/blackbeanswithrice.jpg', 'key': 'i', 'origWidth': 410, 'origHeight': 410, 'width': 410, 'height': 410, 'widthPercent': 0.45, 'rescaleHeight': False, 'trialN': 92, 'loaded': True, 'loadedTime': 153377.20932409007, 'positionName': 'RIGHT', 'positionCoords': [998.4, 335], 'bid': 6.4}]",153374.00933638215,1669831016048,corn cob,blackbeanswithrice,0.11,6.4,6.29,corn cob,759.5999631237937,759,759.9000012571341,True,u,154648.20933945515,1274.2000030729978,1669831017322,1274,HRV,HRV_0102,2022-11-30 17:59:09
93,"[{'imgObject': {}, 'id': 'hotdog w must', 'src': '/static/foodstim60/hotdog w must.jpg', 'key': 'u', 'origWidth': 409, 'origHeight': 409, 'width': 409, 'height': 409, 'widthPercent': 0.45, 'rescaleHeight': False, 'trialN': 93, 'loaded': True, 'loadedTime': 154650.9093334488, 'positionName': 'LEFT', 'positionCoords': [512.6, 335.5], 'bid': 0.15}, {'imgObject': {}, 'id': 'shreddedwheatwithmilk', 'src': '/static/foodstim60/shreddedwheatwithmilk.jpg', 'key': 'i', 'origWidth': 410, 'origHeight': 410, 'width': 410, 'height': 410, 'widthPercent': 0.45, 'rescaleHeight': False, 'trialN': 93, 'loaded': True, 'loadedTime': 154651.0093461599, 'positionName': 'RIGHT', 'positionCoords': [998.4, 335], 'bid': 6.51}]",154648.90928875038,1669831017322,hotdog w must,shreddedwheatwithmilk,0.15,6.51,6.359999999999999,shreddedwheatwithmilk,1024.000047492067,1024,1024.1000602032,True,i,156183.20931850278,1534.3000297523977,1669831018857,1535,HRV,HRV_0102,2022-11-30 17:59:09
94,"[{'imgObject': {}, 'id': 'edamame', 'src': '/static/foodstim60/edamame.jpg', 'key': 'u', 'origWidth': 409, 'origHeight': 410, 'width': 409, 'height': 410, 'widthPercent': 0.45, 'rescaleHeight': False, 'trialN': 94, 'loaded': True, 'loadedTime': 156186.00932520753, 'positionName': 'LEFT', 'positionCoords': [512.6, 335], 'bid': 0.09}, {'imgObject': {}, 'id': 'seaweed', 'src': '/static/foodstim60/seaweed.jpg', 'key': 'i', 'origWidth': 410, 'origHeight': 410, 'width': 410, 'height': 410, 'widthPercent': 0.45, 'rescaleHeight': False, 'trialN': 94, 'loaded': True, 'loadedTime': 156186.2092807885, 'positionName': 'RIGHT', 'positionCoords': [998.4, 335], 'bid': 0.11}]",156183.80932492818,1669831018857,edamame,seaweed,0.09,0.11,0.020000000000000004,edamame,916.3999893841101,917,916.6999576761737,True,u,157620.7093359631,1436.9000110349152,1669831020295,1438,HRV,HRV_0102,2022-11-30 17:59:09
95,"[{'imgObject': {}, 'id': 'ice cream sundae 002', 'src': '/static/foodstim60/ice cream sundae 002.jpg', 'key': 'u', 'origWidth': 409, 'origHeight': 409, 'width': 409, 'height': 409, 'widthPercent': 0.45, 'rescaleHeight': False, 'trialN': 95, 'loaded': True, 'loadedTime': 157624.10934909325, 'positionName': 'LEFT', 'positionCoords': [512.6, 335.5], 'bid': 9.9}, {'imgObject': {}, 'id': 'raspberries', 'src': '/static/foodstim60/raspberries.jpg', 'key': 'i', 'origWidth': 411, 'origHeight': 411, 'width': 411, 'height': 411, 'widthPercent': 0.45, 'rescaleHeight': False, 'trialN': 95, 'loaded': True, 'loadedTime': 157624.60934280753, 'positionName': 'RIGHT', 'positionCoords': [998.4, 334.5], 'bid': 9.69}]",157621.60931068053,1669831020295,ice cream sundae 002,raspberries,9.9,9.69,-0.21000000000000085,ice cream sundae 002,726.8999970666773,727,727.100022488914,True,u,158868.60934839485,1247.000037714315,1669831021543,1248,HRV,HRV_0102,2022-11-30 17:59:09
96,"[{'imgObject': {}, 'id': 'bagel plain', 'src': '/static/foodstim60/bagel plain.jpg', 'key': 'u', 'origWidth': 410, 'origHeight': 410, 'width': 410, 'height': 410, 'widthPercent': 0.45, 'rescaleHeight': False, 'trialN': 96, 'loaded': True, 'loadedTime': 158871.40928525833, 'positionName': 'LEFT', 'positionCoords': [511.6, 335], 'bid': 7.97}, {'imgObject': {}, 'id': 'mac & cheese', 'src': '/static/foodstim60/mac & cheese.jpg', 'key': 'i', 'origWidth': 410, 'origHeight': 410, 'width': 410, 'height': 410, 'widthPercent': 0.45, 'rescaleHeight': False, 'trialN': 96, 'loaded': True, 'loadedTime': 158871.50929796943, 'positionName': 'RIGHT', 'positionCoords': [998.4, 335], 'bid': 9.73}]",158869.30929769008,1669831021543,bagel plain,mac & cheese,7.97,9.73,1.7600000000000007,mac & cheese,886.6999856126786,887,886.6999856126786,True,i,160263.60934141072,1394.3000437206356,1669831022938,1395,HRV,HRV_0102,2022-11-30 17:59:09
97,"[{'imgObject': {}, 'id': 'turkey sandwich', 'src': '/static/foodstim60/turkey sandwich.jpg', 'key': 'u', 'origWidth': 409, 'origHeight': 409, 'width': 409, 'height': 409, 'widthPercent': 0.45, 'rescaleHeight': False, 'trialN': 97, 'loaded': True, 'loadedTime': 160266.5092909853, 'positionName': 'LEFT', 'positionCoords': [512.6, 335.5], 'bid': 0.6}, {'imgObject': {}, 'id': 'veggieswithdip', 'src': '/static/foodstim60/veggieswithdip.jpg', 'key': 'i', 'origWidth': 409, 'origHeight': 409, 'width': 409, 'height': 409, 'widthPercent': 0.45, 'rescaleHeight': False, 'trialN': 97, 'loaded': True, 'loadedTime': 160266.60930369643, 'positionName': 'RIGHT', 'positionCoords': [998.4, 335.5], 'bid': 8.290000000000001}]",160264.20934783612,1669831022938,turkey sandwich,veggieswithdip,0.6,8.290000000000001,7.690000000000001,veggieswithdip,950.4999937142711,951,950.6999492952309,True,i,161723.1092918234,1458.899943987286,1669831024397,1459,HRV,HRV_0102,2022-11-30 17:59:09
98,"[{'imgObject': {}, 'id': 'tacos', 'src': '/static/foodstim60/tacos.jpg', 'key': 'u', 'origWidth': 411, 'origHeight': 411, 'width': 411, 'height': 411, 'widthPercent': 0.45, 'rescaleHeight': False, 'trialN': 98, 'loaded': True, 'loadedTime': 161729.60927995038, 'positionName': 'LEFT', 'positionCoords': [510.6, 334.5], 'bid': 9.21}, {'imgObject': {}, 'id': 'burger', 'src': '/static/foodstim60/burger.jpg', 'key': 'i', 'origWidth': 409, 'origHeight': 409, 'width': 409, 'height': 409, 'widthPercent': 0.45, 'rescaleHeight': False, 'trialN': 98, 'loaded': True, 'loadedTime': 161729.80930537262, 'positionName': 'RIGHT', 'positionCoords': [998.4, 335.5], 'bid': 2.77}]",161723.8093109599,1669831024397,tacos,burger,9.21,2.77,-6.440000000000001,tacos,992.1999863111123,993,992.4000117333198,True,u,163233.40934392498,1509.6000329650706,1669831025907,1510,HRV,HRV_0102,2022-11-30 17:59:09
99,"[{'imgObject': {}, 'id': 'granola w milk', 'src': '/static/foodstim60/granola w milk.jpg', 'key': 'u', 'origWidth': 410, 'origHeight': 410, 'width': 410, 'height': 410, 'widthPercent': 0.45, 'rescaleHeight': False, 'trialN': 99, 'loaded': True, 'loadedTime': 163236.2092807885, 'positionName': 'LEFT', 'positionCoords': [511.6, 335], 'bid': 6.4}, {'imgObject': {}, 'id': 'fruitsalad', 'src': '/static/foodstim60/fruitsalad.jpg', 'key': 'i', 'origWidth': 410, 'origHeight': 410, 'width': 410, 'height': 410, 'widthPercent': 0.45, 'rescaleHeight': False, 'trialN': 99, 'loaded': True, 'loadedTime': 163236.60933163294, 'positionName': 'RIGHT', 'positionCoords': [998.4, 335], 'bid': 8.92}]",163234.20930593135,1669831025908,granola w milk,fruitsalad,6.4,8.92,2.5199999999999996,granola w milk,769.8000025142683,770,770.0000279365049,True,u,164508.1093407123,1273.9000347809633,1669831027182,1274,HRV,HRV_0102,2022-11-30 17:59:09
100,"[{'imgObject': {}, 'id': 'froot loops w milk', 'src': '/static/foodstim60/froot loops w milk.jpg', 'key': 'u', 'origWidth': 410, 'origHeight': 410, 'width': 410, 'height': 410, 'widthPercent': 0.45, 'rescaleHeight': False, 'trialN': 100, 'loaded': True, 'loadedTime': 164511.20931570913, 'positionName': 'LEFT', 'positionCoords': [511.6, 335], 'bid': 0.52}, {'imgObject': {}, 'id': 'sushi w_condiments', 'src': '/static/foodstim60/sushi w_condiments.jpg', 'key': 'i', 'origWidth': 410, 'origHeight': 410, 'width': 410, 'height': 410, 'widthPercent': 0.45, 'rescaleHeight': False, 'trialN': 100, 'loaded': True, 'loadedTime': 164511.30932842023, 'positionName': 'RIGHT', 'positionCoords': [998.4, 335], 'bid': 0.54}]",164509.00931542975,1669831027183,froot loops w milk,sushi w_condiments,0.52,0.54,0.020000000000000018,froot loops w milk,954.4000005587295,959,958.6999884063553,True,u,165983.50928679484,1474.4999713650905,1669831028658,1475,HRV,HRV_0102,2022-11-30 17:59:09
101,"[{'imgObject': {}, 'id': 'luckycharms', 'src': '/static/foodstim60/luckycharms.jpg', 'key': 'u', 'origWidth': 410, 'origHeight': 409, 'width': 410, 'height': 409, 'widthPercent': 0.45, 'rescaleHeight': False, 'trialN': 101, 'loaded': True, 'loadedTime': 165988.00930006467, 'positionName': 'LEFT', 'positionCoords': [511.6, 335.5], 'bid': 2.89}, {'imgObject': {}, 'id': 'avocado', 'src': '/static/foodstim60/avocado.jpg', 'key': 'i', 'origWidth': 409, 'origHeight': 409, 'width': 409, 'height': 409, 'widthPercent': 0.45, 'rescaleHeight': False, 'trialN': 101, 'loaded': True, 'loadedTime': 165988.10931277578, 'positionName': 'RIGHT', 'positionCoords': [998.4, 335.5], 'bid': 1.43}]",165984.80931235675,1669831028659,luckycharms,avocado,2.89,1.43,-1.4600000000000002,avocado,1158.800001117459,1158,1158.9000138285628,True,i,167653.10933372818,1668.3000213714258,1669831030327,1668,HRV,HRV_0102,2022-11-30 17:59:09
102,"[{'imgObject': {}, 'id': 'cantaloupe', 'src': '/static/foodstim60/cantaloupe.jpg', 'key': 'u', 'origWidth': 409, 'origHeight': 409, 'width': 409, 'height': 409, 'widthPercent': 0.45, 'rescaleHeight': False, 'trialN': 102, 'loaded': True, 'loadedTime': 167655.80932772183, 'positionName': 'LEFT', 'positionCoords': [512.6, 335.5], 'bid': 0.3}, {'imgObject': {}, 'id': 'steak', 'src': '/static/foodstim60/steak.jpg', 'key': 'i', 'origWidth': 410, 'origHeight': 410, 'width': 410, 'height': 410, 'widthPercent': 0.45, 'rescaleHeight': False, 'trialN': 102, 'loaded': True, 'loadedTime': 167656.00928330276, 'positionName': 'RIGHT', 'positionCoords': [998.4, 335], 'bid': 0.2}]",167653.8092830234,1669831030327,cantaloupe,steak,0.3,0.2,-0.09999999999999998,cantaloupe,910.2000393904746,911,910.5000076825381,True,u,169073.3093172456,1419.5000342222047,1669831031747,1420,HRV,HRV_0102,2022-11-30 17:59:09
103,"[{'imgObject': {}, 'id': 'pear', 'src': '/static/foodstim60/pear.jpg', 'key': 'u', 'origWidth': 411, 'origHeight': 410, 'width': 411, 'height': 410, 'widthPercent': 0.45, 'rescaleHeight': False, 'trialN': 103, 'loaded': True, 'loadedTime': 169076.30927953133, 'positionName': 'LEFT', 'positionCoords': [510.6, 335], 'bid': 9}, {'imgObject': {}, 'id': 'eggs', 'src': '/static/foodstim60/eggs.jpg', 'key': 'i', 'origWidth': 409, 'origHeight': 409, 'width': 409, 'height': 409, 'widthPercent': 0.45, 'rescaleHeight': False, 'trialN': 103, 'loaded': True, 'loadedTime': 169076.7093303758, 'positionName': 'RIGHT', 'positionCoords': [998.4, 335.5], 'bid': 9.3}]",169073.8093109599,1669831031747,pear,eggs,9.0,9.3,0.3000000000000007,eggs,1002.3000129904831,1003,1002.4000257015869,True,i,170589.50928120752,1515.6999702476023,1669831033263,1516,HRV,HRV_0102,2022-11-30 17:59:09
104,"[{'imgObject': {}, 'id': 'rigatoni', 'src': '/static/foodstim60/rigatoni.jpg', 'key': 'u', 'origWidth': 411, 'origHeight': 411, 'width': 411, 'height': 411, 'widthPercent': 0.45, 'rescaleHeight': False, 'trialN': 104, 'loaded': True, 'loadedTime': 170592.70933875674, 'positionName': 'LEFT', 'positionCoords': [510.6, 334.5], 'bid': 3.39}, {'imgObject': {}, 'id': 'Tribe humus pita', 'src': '/static/foodstim60/Tribe humus pita.jpg', 'key': 'i', 'origWidth': 411, 'origHeight': 411, 'width': 411, 'height': 411, 'widthPercent': 0.45, 'rescaleHeight': False, 'trialN': 104, 'loaded': True, 'loadedTime': 170592.90929433767, 'positionName': 'RIGHT', 'positionCoords': [998.4, 334.5], 'bid': 3.14}]",170590.20930034402,1669831033264,rigatoni,Tribe humus pita,3.39,3.14,-0.25,rigatoni,1063.4000270984252,1064,1063.599982679385,True,u,172173.1092918234,1582.8999914793822,1669831034847,1583,HRV,HRV_0102,2022-11-30 17:59:09
105,"[{'imgObject': {}, 'id': 'chicken nuggets2', 'src': '/static/foodstim60/chicken nuggets2.jpg', 'key': 'u', 'origWidth': 410, 'origHeight': 409, 'width': 410, 'height': 409, 'widthPercent': 0.45, 'rescaleHeight': False, 'trialN': 105, 'loaded': True, 'loadedTime': 172176.60931766467, 'positionName': 'LEFT', 'positionCoords': [511.6, 335.5], 'bid': 4.45}, {'imgObject': {}, 'id': 'omelette', 'src': '/static/foodstim60/omelette.jpg', 'key': 'i', 'origWidth': 410, 'origHeight': 409, 'width': 410, 'height': 409, 'widthPercent': 0.45, 'rescaleHeight': False, 'trialN': 105, 'loaded': True, 'loadedTime': 172176.8093430869, 'positionName': 'RIGHT', 'positionCoords': [998.4, 335.5], 'bid': 7.19}]",172173.7092982488,1669831034848,chicken nuggets2,omelette,4.45,7.19,2.74,omelette,1206.499988126976,1206,1206.6000008380797,True,i,173887.20933805834,1713.500039809529,1669831036561,1713,HRV,HRV_0102,2022-11-30 17:59:09
106,"[{'imgObject': {}, 'id': 'steak', 'src': '/static/foodstim60/steak.jpg', 'key': 'u', 'origWidth': 410, 'origHeight': 410, 'width': 410, 'height': 410, 'widthPercent': 0.45, 'rescaleHeight': False, 'trialN': 106, 'loaded': True, 'loadedTime': 173890.0093447631, 'positionName': 'LEFT', 'positionCoords': [511.6, 335], 'bid': 0.2}, {'imgObject': {}, 'id': 'chickenfingers', 'src': '/static/foodstim60/chickenfingers.jpg', 'key': 'i', 'origWidth': 410, 'origHeight': 410, 'width': 410, 'height': 410, 'widthPercent': 0.45, 'rescaleHeight': False, 'trialN': 106, 'loaded': True, 'loadedTime': 173890.10928763292, 'positionName': 'RIGHT', 'positionCoords': [998.4, 335], 'bid': 0.67}]",173887.8093444837,1669831036562,steak,chickenfingers,0.2,0.67,0.47000000000000003,chickenfingers,1332.2999850539782,1332,1332.2999850539782,True,i,175738.60930649008,1850.7999620063638,1669831038412,1850,HRV,HRV_0102,2022-11-30 17:59:09
