success,trial_type,trial_index,time_elapsed,internal_node_id,Block,TrialNumber,TrialTime,trialTimeDiff,FPS_avg,FPS_med,FPS_mode,TrialDur,winResizeTime,rt,block,button_pressed,MotCoh,MotDir,ColCoh,Color,ChoiceKey,Choice,Accuracy,RT,nFrames,FPS,PPD,missTrial,missTrialMsg,onsetDelay,fullScreenExitTime,canvCenter,TrialType,Score,BlockTrial,stimulus,button_labels,exp,subjectId,date
True,fullscreen,0,3229,0.0-0.0,0.0,1.0,,,,,,,,,,,,,,,,,,,,,,,,,,,,,,,,HRV,HRV_0026,2022-11-30 17:57:58
,wl-check-fps,1,8248,0.0-1.0,0.0,2.0,"[5177.1, 5190.5, 5231.3, 5238.1, 5252.2, 5269.5, 5285.4, 5302, 5318.5, 5335.9, 5353.5, 5368.9, 5386.1, 5402.1, 5418.9, 5435.4, 5452.1, 5468.7, 5487.4, 5502.2, 5518.3, 5535.1, 5551.6, 5568.3, 5585, 5601.6, 5618.3, 5634.9, 5651.7, 5668.5, 5685.2, 5701.7, 5718.3, 5735, 5751.6, 5768.4, 5785, 5801.7, 5818.3, 5835, 5851.7, 5868.5, 5886, 5901.9, 5919.5, 5935.1, 5951.9, 5968.6, 5985.6, 6001.7, 6018.4, 6035.4, 6051.7, 6068.4, 6085, 6101.7, 6118.3, 6135, 6151.7, 6168.4, 6185.1, 6201.7, 6218.3, 6235, 6251.7, 6268.3, 6285.1, 6301.6, 6318.3, 6335, 6351.7, 6368.3, 6385.1, 6401.7, 6418.3, 6436, 6451.8, 6468.4, 6484.9, 6501.7, 6518.3, 6535, 6551.7, 6568.4, 6585, 6601.7, 6618.3, 6634.9, 6651.7, 6668.3, 6685, 6701.7, 6718.4, 6735, 6751.6, 6768.3, 6784.9, 6801.6, 6818.3, 6835, 6851.6, 6868.3, 6885, 6901.6, 6918.3, 6934.9, 6951.7, 6968.3, 6984.9, 7001.6, 7018.3, 7035, 7051.7, 7068.3, 7084.9, 7101.6, 7118.3, 7134.9, 7151.7, 7168.3, 7185.1, 7201.6, 7218.3, 7234.9, 7251.6, 7268.3, 7285, 7301.6, 7318.3, 7335, 7351.5, 7368.3, 7385, 7401.6, 7418.3, 7434.9, 7451.7, 7468.2, 7484.9, 7501.6, 7518.3, 7534.9, 7551.6, 7568.5, 7584.9, 7601.6, 7618.3, 7635, 7651.6, 7668.4, 7684.9, 7701.5, 7718.3, 7735, 7751.7, 7768.3, 7785, 7801.6, 7818.2, 7834.9, 7851.6, 7868.2, 7884.9, 7901.6, 7918.5, 7935, 7951.5, 7968.3, 7984.9, 8002, 8018.8, 8035.3, 8052.1, 8069.4, 8085.3, 8102.5, 8118.6, 8135.4, 8152, 8168.2, 8184.9, 8201.6, 8218.2, 8235, 8251.6, 8268.3, 8284.9, 8301.5, 8318.1, 8334.9, 8351.6, 8368.2, 8384.9, 8401.5, 8418.3, 8434.9, 8451.5, 8468.3, 8485, 8501.6, 8518.6, 8534.9, 8551.6, 8568.2, 8584.9, 8601.6, 8618.2, 8634.9, 8651.6, 8668.3, 8684.8, 8701.6, 8718.2, 8734.8, 8751.5, 8768.3, 8784.9, 8801.7, 8818.5, 8835.5, 8852.1, 8868.5, 8885.1, 8901.8, 8918.6, 8938.9, 8952.3, 8968.7, 8985.2, 9002, 9018.6, 9035.4, 9052.1, 9068.7, 9085.4, 9102.1, 9118.7, 9135.5, 9152.1, 9168.8, 9185.4, 9202, 9218.9, 9235.2, 9251.9, 9268.6, 9285.7, 9302.2, 9318.5, 9335.2, 9351.8, 9369.3, 9385.5, 9402.2, 9419.3, 9435.1, 9451.8, 9468.4, 9486, 9502.3, 9518.1, 9534.2, 9553.8, 9567.4, 9584.1, 9600.7, 9617.3, 9634, 9650.5, 9667.2, 9683.8, 9700.5, 9717.3, 9733.9, 9750.5, 9767.2, 9783.8, 9800.5, 9817.2, 9833.8, 9850.6, 9867.2, 9883.9, 9900.5, 9917.2, 9933.9, 9950.6, 9967.2, 9983.8, 10000.6, 10017.2, 10033.9, 10050.7, 10067.2, 10083.8, 10100.5, 10117.2, 10133.9, 10151, 10167.7]","[5, 13.4, 40.8, 6.8, 14.1, 17.3, 15.9, 16.6, 16.5, 17.4, 17.6, 15.4, 17.2, 16, 16.8, 16.5, 16.7, 16.6, 18.7, 14.8, 16.1, 16.8, 16.5, 16.7, 16.7, 16.6, 16.7, 16.6, 16.8, 16.8, 16.7, 16.5, 16.6, 16.7, 16.6, 16.8, 16.6, 16.7, 16.6, 16.7, 16.7, 16.8, 17.5, 15.9, 17.6, 15.6, 16.8, 16.7, 17, 16.1, 16.7, 17, 16.3, 16.7, 16.6, 16.7, 16.6, 16.7, 16.7, 16.7, 16.7, 16.6, 16.6, 16.7, 16.7, 16.6, 16.8, 16.5, 16.7, 16.7, 16.7, 16.6, 16.8, 16.6, 16.6, 17.7, 15.8, 16.6, 16.5, 16.8, 16.6, 16.7, 16.7, 16.7, 16.6, 16.7, 16.6, 16.6, 16.8, 16.6, 16.7, 16.7, 16.7, 16.6, 16.6, 16.7, 16.6, 16.7, 16.7, 16.7, 16.6, 16.7, 16.7, 16.6, 16.7, 16.6, 16.8, 16.6, 16.6, 16.7, 16.7, 16.7, 16.7, 16.6, 16.6, 16.7, 16.7, 16.6, 16.8, 16.6, 16.8, 16.5, 16.7, 16.6, 16.7, 16.7, 16.7, 16.6, 16.7, 16.7, 16.5, 16.8, 16.7, 16.6, 16.7, 16.6, 16.8, 16.5, 16.7, 16.7, 16.7, 16.6, 16.7, 16.9, 16.4, 16.7, 16.7, 16.7, 16.6, 16.8, 16.5, 16.6, 16.8, 16.7, 16.7, 16.6, 16.7, 16.6, 16.6, 16.7, 16.7, 16.6, 16.7, 16.7, 16.9, 16.5, 16.5, 16.8, 16.6, 17.1, 16.8, 16.5, 16.8, 17.3, 15.9, 17.2, 16.1, 16.8, 16.6, 16.2, 16.7, 16.7, 16.6, 16.8, 16.6, 16.7, 16.6, 16.6, 16.6, 16.8, 16.7, 16.6, 16.7, 16.6, 16.8, 16.6, 16.6, 16.8, 16.7, 16.6, 17, 16.3, 16.7, 16.6, 16.7, 16.7, 16.6, 16.7, 16.7, 16.7, 16.5, 16.8, 16.6, 16.6, 16.7, 16.8, 16.6, 16.8, 16.8, 17, 16.6, 16.4, 16.6, 16.7, 16.8, 20.3, 13.4, 16.4, 16.5, 16.8, 16.6, 16.8, 16.7, 16.6, 16.7, 16.7, 16.6, 16.8, 16.6, 16.7, 16.6, 16.6, 16.9, 16.3, 16.7, 16.7, 17.1, 16.5, 16.3, 16.7, 16.6, 17.5, 16.2, 16.7, 17.1, 15.8, 16.7, 16.6, 17.6, 16.3, 15.8, 16.1, 19.6, 13.6, 16.7, 16.6, 16.6, 16.7, 16.5, 16.7, 16.6, 16.7, 16.8, 16.6, 16.6, 16.7, 16.6, 16.7, 16.7, 16.6, 16.8, 16.6, 16.7, 16.6, 16.7, 16.7, 16.7, 16.6, 16.6, 16.8, 16.6, 16.7, 16.8, 16.5, 16.6, 16.7, 16.7, 16.7, 17.1, 16.7]",60.0,60.0,60.0,5012.3,[],,,,,,,,,,,,,,,,,,,,,,,,,HRV,HRV_0026,2022-11-30 17:57:58
,wl-html-keyboard-response,2,23099,0.0-2.0-0.0,0.0,3.0,,,,,,,,12828.60000000149,0.0,0,,,,,,,,,,,,,,,,,,,,,,HRV,HRV_0026,2022-11-30 17:57:58
,wl-rdm,3,30427,0.0-3.0-0.0,0.0,4.0,,,,,,,[],,,,0.0,0.0,87.9,0.0,u,0.0,True,1705.199999999255,103.0,60.0,40.0,False,,3000.0,[],"[683, 384]",ColorTask_Demo,,,,,HRV,HRV_0026,2022-11-30 17:57:58
,wl-rdm,4,35662,0.0-3.0-1.0,0.0,5.0,,,,,,,[],,,,0.0,0.0,87.9,1.0,i,1.0,True,1137.9000000022352,69.0,60.0,40.0,False,,2000.0,[],"[683, 384]",ColorTask_Demo,,,,,HRV,HRV_0026,2022-11-30 17:57:58
,wl-html-keyboard-response,5,42700,0.0-3.0-2.0,0.0,6.0,,,,,,,,5028.10000000149,0.0,1,,,,,,,,,,,,,,,,,,,,,,HRV,HRV_0026,2022-11-30 17:57:58
,wl-html-keyboard-response,6,50716,0.0-4.0-0.0,0.0,7.0,,,,,,,,6003.0,0.0,0,,,,,,,,,,,,,,,,,,,,,,HRV,HRV_0026,2022-11-30 17:57:58
,wl-html-keyboard-response,7,67036,0.0-5.0-0.0,0.0,8.0,,,,,,,,14310.699999999255,0.0,0,,,,,,,,,,,,,,,,,,,,,,HRV,HRV_0026,2022-11-30 17:57:58
,wl-rdm,8,69560,0.0-6.0-0.0,0.0,9.0,,,,,,,[],,,,,,73.6,0.0,i,1.0,False,1172.800000000745,71.0,60.0,40.0,False,,263.2562590342469,[],"[683, 384]",ColorTask,-1.0,1.0,,,HRV,HRV_0026,2022-11-30 17:57:58
,wl-rdm,9,71860,0.0-6.1-0.1,0.0,10.0,,,,,,,[],,,,,,73.6,1.0,i,1.0,True,889.0,54.0,60.0,40.0,False,,317.4991306703658,[],"[683, 384]",ColorTask,0.0,2.0,,,HRV,HRV_0026,2022-11-30 17:57:58
,wl-rdm,10,74093,0.0-6.2-0.2,0.0,11.0,,,,,,,[],,,,,,56.4,0.0,u,0.0,True,837.6000000014901,51.0,60.0,40.0,False,,307.19192323466564,[],"[683, 384]",ColorTask,1.0,3.0,,,HRV,HRV_0026,2022-11-30 17:57:58
,wl-rdm,11,76276,0.0-6.3-0.3,0.0,12.0,,,,,,,[],,,,,,73.6,1.0,u,0.0,False,897.3999999985099,54.0,60.0,40.0,False,,217.08128813783634,[],"[683, 384]",ColorTask,0.0,4.0,,,HRV,HRV_0026,2022-11-30 17:57:58
,wl-rdm,12,78610,0.0-6.4-0.4,0.0,13.0,,,,,,,[],,,,,,53.2,0.0,i,1.0,False,924.1000000014901,56.0,60.0,40.0,False,,333.8923880486211,[],"[683, 384]",ColorTask,-1.0,5.0,,,HRV,HRV_0026,2022-11-30 17:57:58
,wl-rdm,13,81076,0.0-6.5-0.5,0.0,14.0,,,,,,,[],,,,,,62.5,0.0,i,1.0,False,1047.7999999970198,63.0,60.0,40.0,False,,358.9459251081813,[],"[683, 384]",ColorTask,-2.0,6.0,,,HRV,HRV_0026,2022-11-30 17:57:58
,wl-rdm,14,83359,0.0-6.6-0.6,0.0,15.0,,,,,,,[],,,,,,50.0,1.0,i,1.0,True,802.0999999977648,49.0,60.0,40.0,False,,399.3503987226441,[],"[683, 384]",ColorTask,-1.0,7.0,,,HRV,HRV_0026,2022-11-30 17:57:58
,wl-rdm,15,85710,0.0-6.7-0.7,0.0,16.0,,,,,,,[],,,,,,87.9,1.0,i,1.0,True,1054.5,64.0,60.0,40.0,False,,212.37146918635517,[],"[683, 384]",ColorTask,0.0,8.0,,,HRV,HRV_0026,2022-11-30 17:57:58
,wl-rdm,16,87809,0.0-6.8-0.8,0.0,17.0,,,,,,,[],,,,,,87.9,0.0,i,1.0,False,828.6999999992549,50.0,60.0,40.0,False,,206.0796699386255,[],"[683, 384]",ColorTask,-1.0,9.0,,,HRV,HRV_0026,2022-11-30 17:57:58
,wl-rdm,17,89875,0.0-6.9-0.9,0.0,18.0,,,,,,,[],,,,,,62.5,1.0,u,0.0,False,664.2000000029802,40.0,60.0,40.0,False,,323.7680035759438,[],"[683, 384]",ColorTask,-2.0,10.0,,,HRV,HRV_0026,2022-11-30 17:57:58
,wl-rdm,18,92060,0.0-6.10-0.10,0.0,19.0,,,,,,,[],,,,,,87.9,0.0,u,0.0,True,863.8999999985099,52.0,60.0,40.0,False,,258.72613438992795,[],"[683, 384]",ColorTask,-1.0,11.0,,,HRV,HRV_0026,2022-11-30 17:57:58
,wl-rdm,19,94242,0.0-6.11-0.11,0.0,20.0,,,,,,,[],,,,,,50.0,0.0,u,0.0,True,836.7999999970198,51.0,60.0,40.0,False,,263.8679864925919,[],"[683, 384]",ColorTask,0.0,12.0,,,HRV,HRV_0026,2022-11-30 17:57:58
,wl-rdm,20,96509,0.0-6.12-0.12,0.0,21.0,,,,,,,[],,,,,,87.9,0.0,u,0.0,True,972.3000000007451,59.0,60.0,40.0,False,,206.76046393993366,[],"[683, 384]",ColorTask,1.0,13.0,,,HRV,HRV_0026,2022-11-30 17:57:58
,wl-rdm,21,98457,0.0-6.13-0.13,0.0,22.0,,,,,,,[],,,,,,56.4,1.0,u,0.0,False,659.9000000022352,40.0,60.0,40.0,False,,214.30937451305368,[],"[683, 384]",ColorTask,0.0,14.0,,,HRV,HRV_0026,2022-11-30 17:57:58
,wl-rdm,22,100608,0.0-6.14-0.14,0.0,23.0,,,,,,,[],,,,,,62.5,1.0,i,1.0,True,792.5999999977648,48.0,60.0,40.0,False,,283.1012119825109,[],"[683, 384]",ColorTask,1.0,15.0,,,HRV,HRV_0026,2022-11-30 17:57:58
,wl-rdm,23,102658,0.0-6.15-0.15,0.0,24.0,,,,,,,[],,,,,,56.4,1.0,u,0.0,False,767.8999999985099,46.0,60.0,40.0,False,,206.42675613665403,[],"[683, 384]",ColorTask,0.0,16.0,,,HRV,HRV_0026,2022-11-30 17:57:58
,wl-rdm,24,104791,0.0-6.16-0.16,0.0,25.0,,,,,,,[],,,,,,62.5,0.0,u,0.0,True,839.0,51.0,60.0,40.0,False,,215.39947716687064,[],"[683, 384]",ColorTask,1.0,17.0,,,HRV,HRV_0026,2022-11-30 17:57:58
,wl-rdm,25,107124,0.0-6.17-0.17,0.0,26.0,,,,,,,[],,,,,,53.2,0.0,u,0.0,True,868.0,52.0,60.0,40.0,False,,382.6247167290576,[],"[683, 384]",ColorTask,2.0,18.0,,,HRV,HRV_0026,2022-11-30 17:57:58
,wl-rdm,26,109075,0.0-6.18-0.18,0.0,27.0,,,,,,,[],,,,,,56.4,1.0,i,1.0,True,575.0,35.0,60.0,40.0,False,,295.6272337308983,[],"[683, 384]",ColorTask,3.0,19.0,,,HRV,HRV_0026,2022-11-30 17:57:58
,wl-rdm,27,111124,0.0-6.19-0.19,0.0,28.0,,,,,,,[],,,,,,56.4,0.0,u,0.0,True,755.7999999970198,46.0,60.0,40.0,False,,209.28011577896203,[],"[683, 384]",ColorTask,4.0,20.0,,,HRV,HRV_0026,2022-11-30 17:57:58
,wl-rdm,28,112973,0.0-6.20-0.20,0.0,29.0,,,,,,,[],,,,,,73.6,0.0,u,0.0,True,562.8999999985099,34.0,60.0,40.0,False,,225.3860075640264,[],"[683, 384]",ColorTask,5.0,21.0,,,HRV,HRV_0026,2022-11-30 17:57:58
,wl-rdm,29,114839,0.0-6.21-0.21,0.0,30.0,,,,,,,[],,,,,,56.4,1.0,u,0.0,False,546.6999999992549,33.0,60.0,40.0,False,,264.9902580515643,[],"[683, 384]",ColorTask,4.0,22.0,,,HRV,HRV_0026,2022-11-30 17:57:58
,wl-rdm,30,116940,0.0-6.22-0.22,0.0,31.0,,,,,,,[],,,,,,62.5,0.0,u,0.0,True,672.8000000044703,41.0,60.0,40.0,False,,342.303830784316,[],"[683, 384]",ColorTask,5.0,23.0,,,HRV,HRV_0026,2022-11-30 17:57:58
,wl-rdm,31,118707,0.0-6.23-0.23,0.0,32.0,,,,,,,[],,,,,,50.0,0.0,i,1.0,False,472.5000000037253,29.0,60.0,40.0,False,,223.33973888301813,[],"[683, 384]",ColorTask,4.0,24.0,,,HRV,HRV_0026,2022-11-30 17:57:58
,wl-rdm,32,120956,0.0-6.24-0.24,0.0,33.0,,,,,,,[],,,,,,62.5,0.0,i,1.0,False,772.7000000029802,47.0,60.0,40.0,False,,388.71974764877945,[],"[683, 384]",ColorTask,3.0,25.0,,,HRV,HRV_0026,2022-11-30 17:57:58
,wl-rdm,33,122956,0.0-6.25-0.25,0.0,34.0,,,,,,,[],,,,,,56.4,0.0,u,0.0,True,685.3999999985099,41.0,60.0,40.0,False,,245.9456899542834,[],"[683, 384]",ColorTask,4.0,26.0,,,HRV,HRV_0026,2022-11-30 17:57:58
,wl-rdm,34,124923,0.0-6.26-0.26,0.0,35.0,,,,,,,[],,,,,,62.5,1.0,u,0.0,False,593.3999999985099,36.0,60.0,40.0,False,,294.0533765407345,[],"[683, 384]",ColorTask,3.0,27.0,,,HRV,HRV_0026,2022-11-30 17:57:58
,wl-rdm,35,127106,0.0-6.27-0.27,0.0,36.0,,,,,,,[],,,,,,53.2,0.0,i,1.0,False,890.4000000022352,54.0,60.0,40.0,False,,201.46389090063988,[],"[683, 384]",ColorTask,2.0,28.0,,,HRV,HRV_0026,2022-11-30 17:57:58
,wl-rdm,36,128956,0.0-6.28-0.28,0.0,37.0,,,,,,,[],,,,,,87.9,0.0,u,0.0,True,559.4000000022352,34.0,60.0,40.0,False,,202.2406005658221,[],"[683, 384]",ColorTask,3.0,29.0,,,HRV,HRV_0026,2022-11-30 17:57:58
,wl-rdm,37,130989,0.0-6.29-0.29,0.0,38.0,,,,,,,[],,,,,,73.6,1.0,i,1.0,True,748.1999999992549,45.0,60.0,40.0,False,,205.62129827422612,[],"[683, 384]",ColorTask,4.0,30.0,,,HRV,HRV_0026,2022-11-30 17:57:58
,wl-rdm,38,133122,0.0-6.30-0.30,0.0,39.0,,,,,,,[],,,,,,62.5,0.0,i,1.0,False,680.0999999977648,41.0,60.0,40.0,False,,368.1991544691224,[],"[683, 384]",ColorTask,3.0,31.0,,,HRV,HRV_0026,2022-11-30 17:57:58
,wl-rdm,39,135156,0.0-6.31-0.31,0.0,40.0,,,,,,,[],,,,,,56.4,0.0,u,0.0,True,743.7999999970198,45.0,60.0,40.0,False,,203.6540444803088,[],"[683, 384]",ColorTask,4.0,32.0,,,HRV,HRV_0026,2022-11-30 17:57:58
,wl-rdm,40,137222,0.0-6.32-0.32,0.0,41.0,,,,,,,[],,,,,,56.4,0.0,u,0.0,True,675.8000000007451,41.0,60.0,40.0,False,,316.2569224296278,[],"[683, 384]",ColorTask,5.0,33.0,,,HRV,HRV_0026,2022-11-30 17:57:58
,wl-rdm,41,139272,0.0-6.33-0.33,0.0,42.0,,,,,,,[],,,,,,87.9,0.0,u,0.0,True,724.2999999970198,44.0,60.0,40.0,False,,233.99190672340623,[],"[683, 384]",ColorTask,6.0,34.0,,,HRV,HRV_0026,2022-11-30 17:57:58
,wl-rdm,42,141322,0.0-6.34-0.34,0.0,43.0,,,,,,,[],,,,,,53.2,1.0,u,0.0,False,739.8000000044703,45.0,60.0,40.0,False,,218.6220415581387,[],"[683, 384]",ColorTask,5.0,35.0,,,HRV,HRV_0026,2022-11-30 17:57:58
,wl-rdm,43,143438,0.0-6.35-0.35,0.0,44.0,,,,,,,[],,,,,,53.2,1.0,i,1.0,True,797.1000000014901,48.0,60.0,40.0,False,,244.11146349154447,[],"[683, 384]",ColorTask,6.0,36.0,,,HRV,HRV_0026,2022-11-30 17:57:58
,wl-rdm,44,145655,0.0-6.36-0.36,0.0,45.0,,,,,,,[],,,,,,50.0,0.0,i,1.0,False,843.1000000014901,51.0,60.0,40.0,False,,310.1849527668735,[],"[683, 384]",ColorTask,5.0,37.0,,,HRV,HRV_0026,2022-11-30 17:57:58
,wl-rdm,45,147672,0.0-6.37-0.37,0.0,46.0,,,,,,,[],,,,,,53.2,1.0,u,0.0,False,708.5999999977648,43.0,60.0,40.0,False,,219.3864685918098,[],"[683, 384]",ColorTask,4.0,38.0,,,HRV,HRV_0026,2022-11-30 17:57:58
,wl-rdm,46,150005,0.0-6.38-0.38,0.0,47.0,,,,,,,[],,,,,,56.4,1.0,u,0.0,False,980.9000000022352,59.0,60.0,40.0,False,,292.4390680795323,[],"[683, 384]",ColorTask,3.0,39.0,,,HRV,HRV_0026,2022-11-30 17:57:58
,wl-rdm,47,151871,0.0-6.39-0.39,0.0,48.0,,,,,,,[],,,,,,62.5,0.0,u,0.0,True,556.2999999970198,34.0,60.0,40.0,False,,230.5218004410998,[],"[683, 384]",ColorTask,4.0,40.0,,,HRV,HRV_0026,2022-11-30 17:57:58
,wl-rdm,48,153971,0.0-6.40-0.40,0.0,49.0,,,,,,,[],,,,,,53.2,0.0,u,0.0,True,719.9999999962747,44.0,60.0,40.0,False,,290.10977757536887,[],"[683, 384]",ColorTask,5.0,41.0,,,HRV,HRV_0026,2022-11-30 17:57:58
,wl-rdm,49,156071,0.0-6.41-0.41,0.0,50.0,,,,,,,[],,,,,,87.9,1.0,i,1.0,True,722.1999999955297,44.0,60.0,40.0,False,,291.8294109844576,[],"[683, 384]",ColorTask,6.0,42.0,,,HRV,HRV_0026,2022-11-30 17:57:58
,wl-rdm,50,158504,0.0-6.42-0.42,0.0,51.0,,,,,,,[],,,,,,73.6,1.0,i,1.0,True,1078.5000000037253,65.0,60.0,40.0,False,,292.2348076106068,[],"[683, 384]",ColorTask,7.0,43.0,,,HRV,HRV_0026,2022-11-30 17:57:58
,wl-rdm,51,160838,0.0-6.43-0.43,0.0,52.0,,,,,,,[],,,,,,73.6,0.0,u,0.0,True,931.0000000037253,56.0,60.0,40.0,False,,325.03728538322275,[],"[683, 384]",ColorTask,8.0,44.0,,,HRV,HRV_0026,2022-11-30 17:57:58
,wl-rdm,52,162904,0.0-6.44-0.44,0.0,53.0,,,,,,,[],,,,,,53.2,1.0,u,0.0,False,743.1999999992549,45.0,60.0,40.0,False,,255.7099823896896,[],"[683, 384]",ColorTask,7.0,45.0,,,HRV,HRV_0026,2022-11-30 17:57:58
,wl-rdm,53,165287,0.0-6.45-0.45,0.0,54.0,,,,,,,[],,,,,,50.0,0.0,u,0.0,True,926.1999999955297,56.0,60.0,40.0,False,,366.68526893950695,[],"[683, 384]",ColorTask,8.0,46.0,,,HRV,HRV_0026,2022-11-30 17:57:58
,wl-rdm,54,167537,0.0-6.46-0.46,0.0,55.0,,,,,,,[],,,,,,62.5,1.0,i,1.0,True,798.1000000014901,48.0,60.0,40.0,False,,373.4972299866582,[],"[683, 384]",ColorTask,9.0,47.0,,,HRV,HRV_0026,2022-11-30 17:57:58
,wl-rdm,55,169671,0.0-6.47-0.47,0.0,56.0,,,,,,,[],,,,,,73.6,1.0,i,1.0,True,822.5,50.0,60.0,40.0,False,,230.99259728018768,[],"[683, 384]",ColorTask,10.0,48.0,,,HRV,HRV_0026,2022-11-30 17:57:58
,wl-rdm,56,171688,0.0-6.48-0.48,0.0,57.0,,,,,,,[],,,,,,56.4,0.0,u,0.0,True,707.1999999992549,43.0,60.0,40.0,False,,217.84269156044812,[],"[683, 384]",ColorTask,11.0,49.0,,,HRV,HRV_0026,2022-11-30 17:57:58
,wl-rdm,57,173620,0.0-6.49-0.49,0.0,58.0,,,,,,,[],,,,,,56.4,1.0,u,0.0,False,664.1000000014901,40.0,60.0,40.0,False,,206.5247479642107,[],"[683, 384]",ColorTask,10.0,50.0,,,HRV,HRV_0026,2022-11-30 17:57:58
,wl-rdm,58,175720,0.0-6.50-0.50,0.0,59.0,,,,,,,[],,,,,,53.2,1.0,u,0.0,False,822.6999999992549,50.0,60.0,40.0,False,,213.44797230016133,[],"[683, 384]",ColorTask,9.0,51.0,,,HRV,HRV_0026,2022-11-30 17:57:58
,wl-rdm,59,177737,0.0-6.51-0.51,0.0,60.0,,,,,,,[],,,,,,87.9,0.0,u,0.0,True,680.8000000007451,41.0,60.0,40.0,False,,278.93542931296196,[],"[683, 384]",ColorTask,10.0,52.0,,,HRV,HRV_0026,2022-11-30 17:57:58
,wl-rdm,60,179770,0.0-6.52-0.52,0.0,61.0,,,,,,,[],,,,,,50.0,0.0,i,1.0,False,743.4999999962747,45.0,60.0,40.0,False,,220.15558566992024,[],"[683, 384]",ColorTask,9.0,53.0,,,HRV,HRV_0026,2022-11-30 17:57:58
,wl-rdm,61,181703,0.0-6.53-0.53,0.0,62.0,,,,,,,[],,,,,,73.6,0.0,u,0.0,True,586.6999999992549,36.0,60.0,40.0,False,,278.7303641206521,[],"[683, 384]",ColorTask,10.0,54.0,,,HRV,HRV_0026,2022-11-30 17:57:58
,wl-rdm,62,183787,0.0-6.54-0.54,0.0,63.0,,,,,,,[],,,,,,87.9,1.0,i,1.0,True,695.7999999970198,42.0,60.0,40.0,False,,334.8359443827935,[],"[683, 384]",ColorTask,11.0,55.0,,,HRV,HRV_0026,2022-11-30 17:57:58
,wl-rdm,63,185670,0.0-6.55-0.55,0.0,64.0,,,,,,,[],,,,,,62.5,0.0,u,0.0,True,588.6999999955297,36.0,60.0,40.0,False,,204.7769752977933,[],"[683, 384]",ColorTask,12.0,56.0,,,HRV,HRV_0026,2022-11-30 17:57:58
,wl-rdm,64,188003,0.0-6.56-0.56,0.0,65.0,,,,,,,[],,,,,,62.5,0.0,u,0.0,True,956.3000000007451,58.0,60.0,40.0,False,,299.2253218042853,[],"[683, 384]",ColorTask,13.0,57.0,,,HRV,HRV_0026,2022-11-30 17:57:58
,wl-rdm,65,189920,0.0-6.57-0.57,0.0,66.0,,,,,,,[],,,,,,50.0,1.0,u,0.0,False,609.3000000044703,37.0,60.0,40.0,False,,223.81261904122985,[],"[683, 384]",ColorTask,12.0,58.0,,,HRV,HRV_0026,2022-11-30 17:57:58
,wl-rdm,66,191986,0.0-6.58-0.58,0.0,67.0,,,,,,,[],,,,,,53.2,0.0,i,1.0,False,755.0,46.0,60.0,40.0,False,,229.0573220804003,[],"[683, 384]",ColorTask,11.0,59.0,,,HRV,HRV_0026,2022-11-30 17:57:58
,wl-rdm,67,193986,0.0-6.59-0.59,0.0,68.0,,,,,,,[],,,,,,50.0,1.0,u,0.0,False,661.6999999992549,40.0,60.0,40.0,False,,271.9315283485742,[],"[683, 384]",ColorTask,10.0,60.0,,,HRV,HRV_0026,2022-11-30 17:57:58
,wl-rdm,68,195819,0.0-6.60-0.60,0.0,69.0,,,,,,,[],,,,,,50.0,0.0,u,0.0,True,511.30000000074506,31.0,60.0,40.0,False,,234.95115075863623,[],"[683, 384]",ColorTask,11.0,61.0,,,HRV,HRV_0026,2022-11-30 17:57:58
,wl-rdm,69,197636,0.0-6.61-0.61,0.0,70.0,,,,,,,[],,,,,,73.6,0.0,u,0.0,True,440.30000000447035,27.0,60.0,40.0,False,,293.67463314333963,[],"[683, 384]",ColorTask,12.0,62.0,,,HRV,HRV_0026,2022-11-30 17:57:58
,wl-rdm,70,199269,0.0-6.62-0.62,0.0,71.0,,,,,,,[],,,,,,53.2,1.0,i,1.0,True,358.0,22.0,60.0,40.0,False,,209.28875712353474,[],"[683, 384]",ColorTask,13.0,63.0,,,HRV,HRV_0026,2022-11-30 17:57:58
,wl-rdm,71,201202,0.0-6.63-0.63,0.0,72.0,,,,,,,[],,,,,,87.9,1.0,u,0.0,False,604.1999999992549,36.0,60.0,40.0,False,,260.5798485238336,[],"[683, 384]",ColorTask,12.0,64.0,,,HRV,HRV_0026,2022-11-30 17:57:58
,wl-rdm,72,203119,0.0-6.64-0.64,0.0,73.0,,,,,,,[],,,,,,56.4,0.0,i,1.0,False,581.6000000014901,35.0,60.0,40.0,False,,270.1195465997848,[],"[683, 384]",ColorTask,11.0,65.0,,,HRV,HRV_0026,2022-11-30 17:57:58
,wl-rdm,73,205535,0.0-6.65-0.65,0.0,74.0,,,,,,,[],,,,,,73.6,0.0,i,1.0,False,970.3999999985099,59.0,60.0,40.0,False,,359.935567415117,[],"[683, 384]",ColorTask,10.0,66.0,,,HRV,HRV_0026,2022-11-30 17:57:58
,wl-rdm,74,207885,0.0-6.66-0.66,0.0,75.0,,,,,,,[],,,,,,87.9,1.0,i,1.0,True,915.1000000014901,55.0,60.0,40.0,False,,367.75821824345644,[],"[683, 384]",ColorTask,11.0,67.0,,,HRV,HRV_0026,2022-11-30 17:57:58
,wl-rdm,75,210152,0.0-6.67-0.67,0.0,76.0,,,,,,,[],,,,,,87.9,1.0,i,1.0,True,882.3000000007451,53.0,60.0,40.0,False,,324.05136497738215,[],"[683, 384]",ColorTask,12.0,68.0,,,HRV,HRV_0026,2022-11-30 17:57:58
,wl-rdm,76,212119,0.0-6.68-0.68,0.0,77.0,,,,,,,[],,,,,,62.5,1.0,i,1.0,True,664.5999999977648,40.0,60.0,40.0,False,,223.53950248504302,[],"[683, 384]",ColorTask,13.0,69.0,,,HRV,HRV_0026,2022-11-30 17:57:58
,wl-rdm,77,214202,0.0-6.69-0.69,0.0,78.0,,,,,,,[],,,,,,62.5,0.0,i,1.0,False,662.0,40.0,60.0,40.0,False,,342.94520794333846,[],"[683, 384]",ColorTask,12.0,70.0,,,HRV,HRV_0026,2022-11-30 17:57:58
,wl-rdm,78,216301,0.0-6.70-0.70,0.0,79.0,,,,,,,[],,,,,,50.0,1.0,i,1.0,True,757.6000000014901,46.0,60.0,40.0,False,,257.415605168122,[],"[683, 384]",ColorTask,13.0,71.0,,,HRV,HRV_0026,2022-11-30 17:57:58
,wl-rdm,79,218168,0.0-6.71-0.71,0.0,80.0,,,,,,,[],,,,,,73.6,1.0,u,0.0,False,510.5,31.0,60.0,40.0,False,,273.6084247855133,[],"[683, 384]",ColorTask,12.0,72.0,,,HRV,HRV_0026,2022-11-30 17:57:58
,wl-rdm,80,220118,0.0-6.72-0.72,0.0,81.0,,,,,,,[],,,,,,53.2,1.0,u,0.0,False,561.1000000014901,34.0,60.0,40.0,False,,316.1197993931732,[],"[683, 384]",ColorTask,11.0,73.0,,,HRV,HRV_0026,2022-11-30 17:57:58
,wl-rdm,81,222218,0.0-6.73-0.73,0.0,82.0,,,,,,,[],,,,,,73.6,0.0,u,0.0,True,670.3000000007451,41.0,60.0,40.0,False,,351.06369386541434,[],"[683, 384]",ColorTask,12.0,74.0,,,HRV,HRV_0026,2022-11-30 17:57:58
,wl-rdm,82,224101,0.0-6.74-0.74,0.0,83.0,,,,,,,[],,,,,,62.5,1.0,u,0.0,False,585.8000000007451,35.0,60.0,40.0,False,,227.45286266135057,[],"[683, 384]",ColorTask,11.0,75.0,,,HRV,HRV_0026,2022-11-30 17:57:58
,wl-rdm,83,226618,0.0-6.75-0.75,0.0,84.0,,,,,,,[],,,,,,50.0,1.0,i,1.0,True,1081.4999999962747,65.0,60.0,40.0,False,,380.9667408187767,[],"[683, 384]",ColorTask,12.0,76.0,,,HRV,HRV_0026,2022-11-30 17:57:58
,wl-rdm,84,228668,0.0-6.76-0.76,0.0,85.0,,,,,,,[],,,,,,56.4,1.0,u,0.0,False,640.9000000022352,39.0,60.0,40.0,False,,325.78826492171623,[],"[683, 384]",ColorTask,11.0,77.0,,,HRV,HRV_0026,2022-11-30 17:57:58
,wl-rdm,85,230535,0.0-6.77-0.77,0.0,86.0,,,,,,,[],,,,,,50.0,1.0,u,0.0,False,510.0000000037253,31.0,60.0,40.0,False,,280.708921006589,[],"[683, 384]",ColorTask,10.0,78.0,,,HRV,HRV_0026,2022-11-30 17:57:58
,wl-rdm,86,232535,0.0-6.78-0.78,0.0,87.0,,,,,,,[],,,,,,62.5,1.0,u,0.0,False,633.3000000007451,38.0,60.0,40.0,False,,284.1675968130344,[],"[683, 384]",ColorTask,9.0,79.0,,,HRV,HRV_0026,2022-11-30 17:57:58
,wl-rdm,87,234601,0.0-6.79-0.79,0.0,88.0,,,,,,,[],,,,,,50.0,0.0,u,0.0,True,693.1999999992549,42.0,60.0,40.0,False,,303.7547667659667,[],"[683, 384]",ColorTask,10.0,80.0,,,HRV,HRV_0026,2022-11-30 17:57:58
,wl-rdm,88,236618,0.0-6.80-0.80,0.0,89.0,,,,,,,[],,,,,,87.9,0.0,u,0.0,True,694.1999999992549,42.0,60.0,40.0,False,,237.03830329046858,[],"[683, 384]",ColorTask,11.0,81.0,,,HRV,HRV_0026,2022-11-30 17:57:58
,wl-rdm,89,238684,0.0-6.81-0.81,0.0,90.0,,,,,,,[],,,,,,53.2,0.0,u,0.0,True,644.8000000007451,39.0,60.0,40.0,False,,337.8962778637273,[],"[683, 384]",ColorTask,12.0,82.0,,,HRV,HRV_0026,2022-11-30 17:57:58
,wl-rdm,90,240770,0.0-6.82-0.82,0.0,91.0,,,,,,,[],,,,,,50.0,1.0,i,1.0,True,627.3999999985099,38.0,60.0,40.0,False,,366.31924656386354,[],"[683, 384]",ColorTask,13.0,83.0,,,HRV,HRV_0026,2022-11-30 17:57:58
,wl-rdm,91,242867,0.0-6.83-0.83,0.0,92.0,,,,,,,[],,,,,,73.6,0.0,u,0.0,True,662.8000000007451,40.0,60.0,40.0,False,,362.04317551404006,[],"[683, 384]",ColorTask,14.0,84.0,,,HRV,HRV_0026,2022-11-30 17:57:58
,wl-rdm,92,244867,0.0-6.84-0.84,0.0,93.0,,,,,,,[],,,,,,56.4,1.0,i,1.0,True,696.6999999992549,42.0,60.0,40.0,False,,226.38953692883004,[],"[683, 384]",ColorTask,15.0,85.0,,,HRV,HRV_0026,2022-11-30 17:57:58
,wl-rdm,93,246900,0.0-6.85-0.85,0.0,94.0,,,,,,,[],,,,,,53.2,1.0,u,0.0,False,730.0,44.0,60.0,40.0,False,,247.41395080583143,[],"[683, 384]",ColorTask,14.0,86.0,,,HRV,HRV_0026,2022-11-30 17:57:58
,wl-rdm,94,248984,0.0-6.86-0.86,0.0,95.0,,,,,,,[],,,,,,56.4,0.0,u,0.0,True,736.8000000007451,44.0,60.0,40.0,False,,275.1807578386861,[],"[683, 384]",ColorTask,15.0,87.0,,,HRV,HRV_0026,2022-11-30 17:57:58
,wl-rdm,95,250817,0.0-6.87-0.87,0.0,96.0,,,,,,,[],,,,,,73.6,1.0,i,1.0,True,497.5999999977648,30.0,60.0,40.0,False,,279.0856132992958,[],"[683, 384]",ColorTask,16.0,88.0,,,HRV,HRV_0026,2022-11-30 17:57:58
,wl-rdm,96,252767,0.0-6.88-0.88,0.0,97.0,,,,,,,[],,,,,,87.9,0.0,u,0.0,True,672.8000000007451,41.0,60.0,40.0,False,,201.78021916890626,[],"[683, 384]",ColorTask,17.0,89.0,,,HRV,HRV_0026,2022-11-30 17:57:58
,wl-rdm,97,254867,0.0-6.89-0.89,0.0,98.0,,,,,,,[],,,,,,73.6,1.0,i,1.0,True,663.0999999977648,40.0,60.0,40.0,False,,380.1476176758623,[],"[683, 384]",ColorTask,18.0,90.0,,,HRV,HRV_0026,2022-11-30 17:57:58
,wl-rdm,98,256999,0.0-6.90-0.90,0.0,99.0,,,,,,,[],,,,,,53.2,0.0,u,0.0,True,716.0999999977648,43.0,60.0,40.0,False,,332.2500355870783,[],"[683, 384]",ColorTask,19.0,91.0,,,HRV,HRV_0026,2022-11-30 17:57:58
,wl-rdm,99,258950,0.0-6.91-0.91,0.0,100.0,,,,,,,[],,,,,,53.2,0.0,i,1.0,False,622.5,38.0,60.0,40.0,False,,247.20606854458973,[],"[683, 384]",ColorTask,18.0,92.0,,,HRV,HRV_0026,2022-11-30 17:57:58
,wl-rdm,100,261650,0.0-6.92-0.92,0.0,101.0,,,,,,,[],,,,,,50.0,1.0,u,0.0,False,1412.199999999255,85.0,60.0,40.0,False,,215.81236373408314,[],"[683, 384]",ColorTask,17.0,93.0,,,HRV,HRV_0026,2022-11-30 17:57:58
,wl-rdm,101,263683,0.0-6.93-0.93,0.0,102.0,,,,,,,[],,,,,,50.0,0.0,i,1.0,False,590.8999999985099,36.0,60.0,40.0,False,,359.6854518283411,[],"[683, 384]",ColorTask,16.0,94.0,,,HRV,HRV_0026,2022-11-30 17:57:58
,wl-rdm,102,265666,0.0-6.94-0.94,0.0,103.0,,,,,,,[],,,,,,87.9,0.0,u,0.0,True,639.3000000007451,39.0,60.0,40.0,False,,280.8036353621241,[],"[683, 384]",ColorTask,17.0,95.0,,,HRV,HRV_0026,2022-11-30 17:57:58
,wl-rdm,103,267649,0.0-6.95-0.95,0.0,104.0,,,,,,,[],,,,,,73.6,0.0,u,0.0,True,599.3000000007451,36.0,60.0,40.0,False,,308.7714170902166,[],"[683, 384]",ColorTask,18.0,96.0,,,HRV,HRV_0026,2022-11-30 17:57:58
,wl-rdm,104,269766,0.0-6.96-0.96,0.0,105.0,,,,,,,[],,,,,,62.5,1.0,i,1.0,True,833.5000000037253,50.0,60.0,40.0,False,,201.59212027887992,[],"[683, 384]",ColorTask,19.0,97.0,,,HRV,HRV_0026,2022-11-30 17:57:58
,wl-rdm,105,272249,0.0-6.97-0.97,0.0,106.0,,,,,,,[],,,,,,56.4,0.0,u,0.0,True,1159.0,70.0,60.0,40.0,False,,234.22410150552034,[],"[683, 384]",ColorTask,20.0,98.0,,,HRV,HRV_0026,2022-11-30 17:57:58
,wl-rdm,106,274265,0.0-6.98-0.98,0.0,107.0,,,,,,,[],,,,,,87.9,1.0,i,1.0,True,656.0,40.0,60.0,40.0,False,,280.1116741979439,[],"[683, 384]",ColorTask,21.0,99.0,,,HRV,HRV_0026,2022-11-30 17:57:58
,wl-rdm,107,276315,0.0-6.99-0.99,0.0,108.0,,,,,,,[],,,,,,56.4,1.0,i,1.0,True,690.5,42.0,60.0,40.0,False,,267.0580419526534,[],"[683, 384]",ColorTask,22.0,100.0,,,HRV,HRV_0026,2022-11-30 17:57:58
,wl-rdm,108,278199,0.0-6.100-0.100,0.0,109.0,,,,,,,[],,,,,,50.0,1.0,i,1.0,True,544.3999999985099,33.0,60.0,40.0,False,,266.43579963698426,[],"[683, 384]",ColorTask,23.0,101.0,,,HRV,HRV_0026,2022-11-30 17:57:58
,wl-rdm,109,280182,0.0-6.101-0.101,0.0,110.0,,,,,,,[],,,,,,73.6,1.0,i,1.0,True,670.3000000007451,41.0,60.0,40.0,False,,231.7147988284847,[],"[683, 384]",ColorTask,24.0,102.0,,,HRV,HRV_0026,2022-11-30 17:57:58
,wl-rdm,110,282315,0.0-6.102-0.102,0.0,111.0,,,,,,,[],,,,,,87.9,1.0,i,1.0,True,707.3000000044703,43.0,60.0,40.0,False,,346.9454810137803,[],"[683, 384]",ColorTask,25.0,103.0,,,HRV,HRV_0026,2022-11-30 17:57:58
,wl-rdm,111,284315,0.0-6.103-0.103,0.0,112.0,,,,,,,[],,,,,,62.5,1.0,u,0.0,False,658.7999999970198,40.0,60.0,40.0,False,,261.02464815444756,[],"[683, 384]",ColorTask,24.0,104.0,,,HRV,HRV_0026,2022-11-30 17:57:58
,wl-rdm,112,286181,0.0-6.104-0.104,0.0,113.0,,,,,,,[],,,,,,53.2,1.0,u,0.0,False,586.6000000014901,36.0,60.0,40.0,False,,214.13032887771044,[],"[683, 384]",ColorTask,23.0,105.0,,,HRV,HRV_0026,2022-11-30 17:57:58
,wl-rdm,113,288165,0.0-6.105-0.105,0.0,114.0,,,,,,,[],,,,,,87.9,1.0,i,1.0,True,623.3000000007451,38.0,60.0,40.0,False,,293.7350664989282,[],"[683, 384]",ColorTask,24.0,106.0,,,HRV,HRV_0026,2022-11-30 17:57:58
,wl-rdm,114,290031,0.0-6.106-0.106,0.0,115.0,,,,,,,[],,,,,,50.0,0.0,i,1.0,False,586.1999999992549,36.0,60.0,40.0,False,,204.05695901216777,[],"[683, 384]",ColorTask,23.0,107.0,,,HRV,HRV_0026,2022-11-30 17:57:58
,wl-rdm,115,292148,0.0-6.107-0.107,0.0,116.0,,,,,,,[],,,,,,53.2,0.0,i,1.0,False,756.9000000022352,46.0,60.0,40.0,False,,277.36373133681985,[],"[683, 384]",ColorTask,22.0,108.0,,,HRV,HRV_0026,2022-11-30 17:57:58
,wl-html-keyboard-response,116,303827,0.0-7.0-0.0,1.0,117.0,,,,,,,,9666.10000000149,1.0,0,,,,,,,,,,,,,,,,,,,,,,HRV,HRV_0026,2022-11-30 17:57:58
,wl-rdm,117,306431,0.0-8.0-0.0,1.0,118.0,,,,,,,[],,,,,,50.0,0.0,u,0.0,True,1233.2999999970198,74.0,60.0,40.0,False,,292.2925094850542,[],"[683, 384]",ColorTask,23.0,1.0,,,HRV,HRV_0026,2022-11-30 17:57:58
,wl-rdm,118,308380,0.0-8.1-0.1,1.0,119.0,,,,,,,[],,,,,,73.6,0.0,u,0.0,True,567.0,34.0,60.0,40.0,False,,311.27755314503645,[],"[683, 384]",ColorTask,24.0,2.0,,,HRV,HRV_0026,2022-11-30 17:57:58
,wl-rdm,119,310181,0.0-8.2-0.2,1.0,120.0,,,,,,,[],,,,,,87.9,0.0,u,0.0,True,520.6999999992549,32.0,60.0,40.0,False,,203.86126402019056,[],"[683, 384]",ColorTask,25.0,3.0,,,HRV,HRV_0026,2022-11-30 17:57:58
,wl-rdm,120,312198,0.0-8.3-0.3,1.0,121.0,,,,,,,[],,,,,,62.5,0.0,u,0.0,True,583.3000000007451,35.0,60.0,40.0,False,,350.5246860523725,[],"[683, 384]",ColorTask,26.0,4.0,,,HRV,HRV_0026,2022-11-30 17:57:58
,wl-rdm,121,314164,0.0-8.4-0.4,1.0,122.0,,,,,,,[],,,,,,53.2,0.0,i,1.0,False,523.3000000007451,32.0,60.0,40.0,False,,365.06987725715675,[],"[683, 384]",ColorTask,25.0,5.0,,,HRV,HRV_0026,2022-11-30 17:57:58
,wl-rdm,122,316064,0.0-8.5-0.5,1.0,123.0,,,,,,,[],,,,,,87.9,1.0,i,1.0,True,610.3000000007451,37.0,60.0,40.0,False,,217.89789327521325,[],"[683, 384]",ColorTask,26.0,6.0,,,HRV,HRV_0026,2022-11-30 17:57:58
,wl-rdm,123,317997,0.0-8.6-0.6,1.0,124.0,,,,,,,[],,,,,,87.9,0.0,u,0.0,True,560.7000000029802,34.0,60.0,40.0,False,,300.5918057587878,[],"[683, 384]",ColorTask,27.0,7.0,,,HRV,HRV_0026,2022-11-30 17:57:58
,wl-rdm,124,319897,0.0-8.7-0.7,1.0,125.0,,,,,,,[],,,,,,87.9,1.0,i,1.0,True,522.7000000029802,32.0,60.0,40.0,False,,289.79078784958836,[],"[683, 384]",ColorTask,28.0,8.0,,,HRV,HRV_0026,2022-11-30 17:57:58
,wl-rdm,125,321914,0.0-8.8-0.8,1.0,126.0,,,,,,,[],,,,,,50.0,0.0,u,0.0,True,632.3000000044703,38.0,60.0,40.0,False,,322.1206570776117,[],"[683, 384]",ColorTask,29.0,9.0,,,HRV,HRV_0026,2022-11-30 17:57:58
,wl-rdm,126,323830,0.0-8.9-0.9,1.0,127.0,,,,,,,[],,,,,,50.0,1.0,u,0.0,False,556.8999999985099,34.0,60.0,40.0,False,,266.99178277234444,[],"[683, 384]",ColorTask,28.0,10.0,,,HRV,HRV_0026,2022-11-30 17:57:58
,wl-rdm,127,325747,0.0-8.10-0.10,1.0,128.0,,,,,,,[],,,,,,87.9,0.0,u,0.0,True,631.7000000029802,38.0,60.0,40.0,False,,200.00800255968863,[],"[683, 384]",ColorTask,29.0,11.0,,,HRV,HRV_0026,2022-11-30 17:57:58
,wl-rdm,128,327580,0.0-8.11-0.11,1.0,129.0,,,,,,,[],,,,,,56.4,1.0,u,0.0,False,519.1999999992549,31.0,60.0,40.0,False,,239.76039905600447,[],"[683, 384]",ColorTask,28.0,12.0,,,HRV,HRV_0026,2022-11-30 17:57:58
,wl-rdm,129,329596,0.0-8.12-0.12,1.0,130.0,,,,,,,[],,,,,,62.5,0.0,u,0.0,True,630.7000000029802,38.0,60.0,40.0,False,,321.0017704458613,[],"[683, 384]",ColorTask,29.0,13.0,,,HRV,HRV_0026,2022-11-30 17:57:58
,wl-rdm,130,331579,0.0-8.13-0.13,1.0,131.0,,,,,,,[],,,,,,53.2,1.0,u,0.0,False,596.7999999970198,36.0,60.0,40.0,False,,314.29253029554326,[],"[683, 384]",ColorTask,28.0,14.0,,,HRV,HRV_0026,2022-11-30 17:57:58
,wl-rdm,131,333513,0.0-8.14-0.14,1.0,132.0,,,,,,,[],,,,,,50.0,0.0,u,0.0,True,653.2000000029802,40.0,60.0,40.0,False,,204.07498455428288,[],"[683, 384]",ColorTask,29.0,15.0,,,HRV,HRV_0026,2022-11-30 17:57:58
,wl-rdm,132,335547,0.0-8.15-0.15,1.0,133.0,,,,,,,[],,,,,,56.4,0.0,u,0.0,True,641.6999999992549,39.0,60.0,40.0,False,,306.746657315172,[],"[683, 384]",ColorTask,30.0,16.0,,,HRV,HRV_0026,2022-11-30 17:57:58
,wl-rdm,133,337630,0.0-8.16-0.16,1.0,134.0,,,,,,,[],,,,,,56.4,0.0,u,0.0,True,656.1999999992549,40.0,60.0,40.0,False,,339.5806289393955,[],"[683, 384]",ColorTask,31.0,17.0,,,HRV,HRV_0026,2022-11-30 17:57:58
,wl-rdm,134,339513,0.0-8.17-0.17,1.0,135.0,,,,,,,[],,,,,,53.2,0.0,u,0.0,True,572.6000000014901,35.0,60.0,40.0,False,,224.51824463570784,[],"[683, 384]",ColorTask,32.0,18.0,,,HRV,HRV_0026,2022-11-30 17:57:58
,wl-rdm,135,341346,0.0-8.18-0.18,1.0,136.0,,,,,,,[],,,,,,87.9,0.0,u,0.0,True,543.2999999970198,33.0,60.0,40.0,False,,212.59733184161564,[],"[683, 384]",ColorTask,33.0,19.0,,,HRV,HRV_0026,2022-11-30 17:57:58
,wl-rdm,136,343430,0.0-8.19-0.19,1.0,137.0,,,,,,,[],,,,,,62.5,0.0,i,1.0,False,739.5,45.0,60.0,40.0,False,,270.04032319205,[],"[683, 384]",ColorTask,32.0,20.0,,,HRV,HRV_0026,2022-11-30 17:57:58
,wl-rdm,137,345446,0.0-8.20-0.20,1.0,138.0,,,,,,,[],,,,,,87.9,1.0,i,1.0,True,655.3999999985099,40.0,60.0,40.0,False,,283.37237442206333,[],"[683, 384]",ColorTask,33.0,21.0,,,HRV,HRV_0026,2022-11-30 17:57:58
,wl-rdm,138,347396,0.0-8.21-0.21,1.0,139.0,,,,,,,[],,,,,,87.9,1.0,i,1.0,True,564.0,34.0,60.0,40.0,False,,309.95985809035875,[],"[683, 384]",ColorTask,34.0,22.0,,,HRV,HRV_0026,2022-11-30 17:57:58
,wl-rdm,139,349512,0.0-8.22-0.22,1.0,140.0,,,,,,,[],,,,,,53.2,0.0,u,0.0,True,689.1999999992549,42.0,60.0,40.0,False,,340.56207891388806,[],"[683, 384]",ColorTask,35.0,23.0,,,HRV,HRV_0026,2022-11-30 17:57:58
,wl-rdm,140,351478,0.0-8.23-0.23,1.0,141.0,,,,,,,[],,,,,,73.6,0.0,u,0.0,True,658.6999999992549,40.0,60.0,40.0,False,,224.0147220048857,[],"[683, 384]",ColorTask,36.0,24.0,,,HRV,HRV_0026,2022-11-30 17:57:58
,wl-rdm,141,353479,0.0-8.24-0.24,1.0,142.0,,,,,,,[],,,,,,73.6,1.0,i,1.0,True,556.6000000014901,34.0,60.0,40.0,False,,358.31350229646216,[],"[683, 384]",ColorTask,37.0,25.0,,,HRV,HRV_0026,2022-11-30 17:57:58
,wl-rdm,142,355429,0.0-8.25-0.25,1.0,143.0,,,,,,,[],,,,,,53.2,0.0,u,0.0,True,622.5,38.0,60.0,40.0,False,,236.9344375577585,[],"[683, 384]",ColorTask,38.0,26.0,,,HRV,HRV_0026,2022-11-30 17:57:58
,wl-rdm,143,357428,0.0-8.26-0.26,1.0,144.0,,,,,,,[],,,,,,73.6,1.0,i,1.0,True,646.0,39.0,60.0,40.0,False,,279.14342891281467,[],"[683, 384]",ColorTask,39.0,27.0,,,HRV,HRV_0026,2022-11-30 17:57:58
,wl-rdm,144,359512,0.0-8.27-0.27,1.0,145.0,,,,,,,[],,,,,,87.9,1.0,i,1.0,True,755.6000000014901,47.0,60.0,40.0,False,,237.32826599177866,[],"[683, 384]",ColorTask,40.0,28.0,,,HRV,HRV_0026,2022-11-30 17:57:58
,wl-rdm,145,361628,0.0-8.28-0.28,1.0,146.0,,,,,,,[],,,,,,50.0,1.0,u,0.0,False,719.1999999992549,44.0,60.0,40.0,False,,307.85982134197866,[],"[683, 384]",ColorTask,39.0,29.0,,,HRV,HRV_0026,2022-11-30 17:57:58
,wl-rdm,146,363761,0.0-8.29-0.29,1.0,147.0,,,,,,,[],,,,,,62.5,1.0,u,0.0,False,654.6999999992549,40.0,60.0,40.0,False,,396.71957367345306,[],"[683, 384]",ColorTask,38.0,30.0,,,HRV,HRV_0026,2022-11-30 17:57:58
,wl-rdm,147,365744,0.0-8.30-0.30,1.0,148.0,,,,,,,[],,,,,,87.9,0.0,u,0.0,True,691.9000000022352,42.0,60.0,40.0,False,,205.81040116918737,[],"[683, 384]",ColorTask,39.0,31.0,,,HRV,HRV_0026,2022-11-30 17:57:58
,wl-rdm,148,367795,0.0-8.31-0.31,1.0,149.0,,,,,,,[],,,,,,73.6,1.0,i,1.0,True,643.1999999992549,39.0,60.0,40.0,False,,346.7136024280459,[],"[683, 384]",ColorTask,40.0,32.0,,,HRV,HRV_0026,2022-11-30 17:57:58
,wl-rdm,149,369728,0.0-8.32-0.32,1.0,150.0,,,,,,,[],,,,,,56.4,0.0,u,0.0,True,633.8999999985099,38.0,60.0,40.0,False,,218.13394075199525,[],"[683, 384]",ColorTask,41.0,33.0,,,HRV,HRV_0026,2022-11-30 17:57:58
,wl-rdm,150,371611,0.0-8.33-0.33,1.0,151.0,,,,,,,[],,,,,,53.2,0.0,u,0.0,True,587.5999999977648,36.0,60.0,40.0,False,,215.6230360177261,[],"[683, 384]",ColorTask,42.0,34.0,,,HRV,HRV_0026,2022-11-30 17:57:58
,wl-rdm,151,373445,0.0-8.34-0.34,1.0,152.0,,,,,,,[],,,,,,50.0,0.0,i,1.0,False,513.3999999985099,31.0,60.0,40.0,False,,257.0033875907009,[],"[683, 384]",ColorTask,41.0,35.0,,,HRV,HRV_0026,2022-11-30 17:57:58
,wl-rdm,152,375594,0.0-8.35-0.35,1.0,153.0,,,,,,,[],,,,,,73.6,0.0,u,0.0,True,670.4999999962747,41.0,60.0,40.0,False,,398.78643389716376,[],"[683, 384]",ColorTask,42.0,36.0,,,HRV,HRV_0026,2022-11-30 17:57:58
,wl-rdm,153,377494,0.0-8.36-0.36,1.0,154.0,,,,,,,[],,,,,,62.5,1.0,u,0.0,False,476.4000000022352,29.0,60.0,40.0,False,,345.60337515914273,[],"[683, 384]",ColorTask,41.0,37.0,,,HRV,HRV_0026,2022-11-30 17:57:58
,wl-rdm,154,379428,0.0-8.37-0.37,1.0,155.0,,,,,,,[],,,,,,56.4,0.0,u,0.0,True,574.0,35.0,60.0,40.0,False,,273.2373370650895,[],"[683, 384]",ColorTask,42.0,38.0,,,HRV,HRV_0026,2022-11-30 17:57:58
,wl-rdm,155,381278,0.0-8.38-0.38,1.0,156.0,,,,,,,[],,,,,,73.6,1.0,i,1.0,True,538.2999999970198,33.0,60.0,40.0,False,,243.8678324574907,[],"[683, 384]",ColorTask,43.0,39.0,,,HRV,HRV_0026,2022-11-30 17:57:58
,wl-rdm,156,383227,0.0-8.39-0.39,1.0,157.0,,,,,,,[],,,,,,53.2,0.0,u,0.0,True,643.6999999992549,39.0,60.0,40.0,False,,231.70853342699561,[],"[683, 384]",ColorTask,44.0,40.0,,,HRV,HRV_0026,2022-11-30 17:57:58
,wl-rdm,157,385210,0.0-8.40-0.40,1.0,158.0,,,,,,,[],,,,,,56.4,1.0,i,1.0,True,528.4000000022352,32.0,60.0,40.0,False,,378.1118024446054,[],"[683, 384]",ColorTask,45.0,41.0,,,HRV,HRV_0026,2022-11-30 17:57:58
,wl-rdm,158,387128,0.0-8.41-0.41,1.0,159.0,,,,,,,[],,,,,,50.0,1.0,u,0.0,False,536.7000000029802,33.0,60.0,40.0,False,,288.30423197915275,[],"[683, 384]",ColorTask,44.0,42.0,,,HRV,HRV_0026,2022-11-30 17:57:58
,wl-rdm,159,389211,0.0-8.42-0.42,1.0,160.0,,,,,,,[],,,,,,87.9,1.0,i,1.0,True,757.5999999977648,46.0,60.0,40.0,False,,245.1613672187731,[],"[683, 384]",ColorTask,45.0,43.0,,,HRV,HRV_0026,2022-11-30 17:57:58
,wl-rdm,160,391360,0.0-8.43-0.43,1.0,161.0,,,,,,,[],,,,,,53.2,0.0,u,0.0,True,681.3000000044703,41.0,60.0,40.0,False,,399.2019869713914,[],"[683, 384]",ColorTask,46.0,44.0,,,HRV,HRV_0026,2022-11-30 17:57:58
,wl-rdm,161,393610,0.0-8.44-0.44,1.0,162.0,,,,,,,[],,,,,,62.5,0.0,u,0.0,True,875.1999999955297,53.0,60.0,40.0,False,,285.4353889251205,[],"[683, 384]",ColorTask,47.0,45.0,,,HRV,HRV_0026,2022-11-30 17:57:58
,wl-rdm,162,395493,0.0-8.45-0.45,1.0,163.0,,,,,,,[],,,,,,50.0,0.0,u,0.0,True,575.0999999977648,35.0,60.0,40.0,False,,217.38448521454433,[],"[683, 384]",ColorTask,48.0,46.0,,,HRV,HRV_0026,2022-11-30 17:57:58
,wl-rdm,163,397493,0.0-8.46-0.46,1.0,164.0,,,,,,,[],,,,,,56.4,0.0,u,0.0,True,689.8000000007451,42.0,60.0,40.0,False,,228.92718239184416,[],"[683, 384]",ColorTask,49.0,47.0,,,HRV,HRV_0026,2022-11-30 17:57:58
,wl-rdm,164,399576,0.0-8.47-0.47,1.0,165.0,,,,,,,[],,,,,,53.2,1.0,i,1.0,True,621.3000000007451,37.0,60.0,40.0,False,,383.12763469817776,[],"[683, 384]",ColorTask,50.0,48.0,,,HRV,HRV_0026,2022-11-30 17:57:58
,wl-rdm,165,401377,0.0-8.48-0.48,1.0,166.0,,,,,,,[],,,,,,56.4,0.0,u,0.0,True,512.5000000037253,31.0,60.0,40.0,False,,200.63878985184007,[],"[683, 384]",ColorTask,51.0,49.0,,,HRV,HRV_0026,2022-11-30 17:57:58
,wl-rdm,166,403343,0.0-8.49-0.49,1.0,167.0,,,,,,,[],,,,,,56.4,1.0,i,1.0,True,530.7999999970198,32.0,60.0,40.0,False,,354.96277783633354,[],"[683, 384]",ColorTask,52.0,50.0,,,HRV,HRV_0026,2022-11-30 17:57:58
,wl-rdm,167,405276,0.0-8.50-0.50,1.0,168.0,,,,,,,[],,,,,,53.2,0.0,i,1.0,False,631.8000000007451,38.0,60.0,40.0,False,,221.55517202885375,[],"[683, 384]",ColorTask,51.0,51.0,,,HRV,HRV_0026,2022-11-30 17:57:58
,wl-rdm,168,407359,0.0-8.51-0.51,1.0,169.0,,,,,,,[],,,,,,73.6,1.0,u,0.0,False,738.1999999992549,45.0,60.0,40.0,False,,269.9563537998764,[],"[683, 384]",ColorTask,50.0,52.0,,,HRV,HRV_0026,2022-11-30 17:57:58
,wl-rdm,169,409659,0.0-8.52-0.52,1.0,170.0,,,,,,,[],,,,,,62.5,0.0,u,0.0,True,910.6999999992549,55.0,60.0,40.0,False,,310.04733739189965,[],"[683, 384]",ColorTask,51.0,53.0,,,HRV,HRV_0026,2022-11-30 17:57:58
,wl-rdm,170,411609,0.0-8.53-0.53,1.0,171.0,,,,,,,[],,,,,,53.2,1.0,u,0.0,False,645.6000000014901,39.0,60.0,40.0,False,,246.66365706066023,[],"[683, 384]",ColorTask,50.0,54.0,,,HRV,HRV_0026,2022-11-30 17:57:58
,wl-rdm,171,413626,0.0-8.54-0.54,1.0,172.0,,,,,,,[],,,,,,73.6,0.0,u,0.0,True,689.8999999985099,42.0,60.0,40.0,False,,248.98383648494695,[],"[683, 384]",ColorTask,51.0,55.0,,,HRV,HRV_0026,2022-11-30 17:57:58
,wl-rdm,172,415442,0.0-8.55-0.55,1.0,173.0,,,,,,,[],,,,,,87.9,0.0,u,0.0,True,519.4999999962747,31.0,60.0,40.0,False,,219.87903963739217,[],"[683, 384]",ColorTask,52.0,56.0,,,HRV,HRV_0026,2022-11-30 17:57:58
,wl-rdm,173,417425,0.0-8.56-0.56,1.0,174.0,,,,,,,[],,,,,,56.4,1.0,u,0.0,False,640.0999999977648,39.0,60.0,40.0,False,,253.87257391483536,[],"[683, 384]",ColorTask,51.0,57.0,,,HRV,HRV_0026,2022-11-30 17:57:58
,wl-rdm,174,419608,0.0-8.57-0.57,1.0,175.0,,,,,,,[],,,,,,56.4,1.0,i,1.0,True,806.3000000007451,49.0,60.0,40.0,False,,305.55046060609527,[],"[683, 384]",ColorTask,52.0,58.0,,,HRV,HRV_0026,2022-11-30 17:57:58
,wl-rdm,175,421492,0.0-8.58-0.58,1.0,176.0,,,,,,,[],,,,,,87.9,0.0,u,0.0,True,560.9000000022352,34.0,60.0,40.0,False,,248.37937866497592,[],"[683, 384]",ColorTask,53.0,59.0,,,HRV,HRV_0026,2022-11-30 17:57:58
,wl-rdm,176,423475,0.0-8.59-0.59,1.0,177.0,,,,,,,[],,,,,,50.0,1.0,u,0.0,False,607.2999999970198,37.0,60.0,40.0,False,,283.8040461222644,[],"[683, 384]",ColorTask,52.0,60.0,,,HRV,HRV_0026,2022-11-30 17:57:58
,wl-rdm,177,425675,0.0-8.60-0.60,1.0,178.0,,,,,,,[],,,,,,62.5,1.0,u,0.0,False,773.4000000022352,47.0,60.0,40.0,False,,355.80800011176586,[],"[683, 384]",ColorTask,51.0,61.0,,,HRV,HRV_0026,2022-11-30 17:57:58
,wl-rdm,178,427675,0.0-8.61-0.61,1.0,179.0,,,,,,,[],,,,,,87.9,1.0,i,1.0,True,657.0,40.0,60.0,40.0,False,,275.4966663498581,[],"[683, 384]",ColorTask,52.0,62.0,,,HRV,HRV_0026,2022-11-30 17:57:58
,wl-rdm,179,429908,0.0-8.62-0.62,1.0,180.0,,,,,,,[],,,,,,62.5,0.0,u,0.0,True,823.1000000014901,50.0,60.0,40.0,False,,320.06585576869804,[],"[683, 384]",ColorTask,53.0,63.0,,,HRV,HRV_0026,2022-11-30 17:57:58
,wl-rdm,180,432042,0.0-8.63-0.63,1.0,181.0,,,,,,,[],,,,,,73.6,0.0,u,0.0,True,660.4000000022352,40.0,60.0,40.0,False,,397.7399916305255,[],"[683, 384]",ColorTask,54.0,64.0,,,HRV,HRV_0026,2022-11-30 17:57:58
,wl-rdm,181,434258,0.0-8.64-0.64,1.0,182.0,,,,,,,[],,,,,,56.4,1.0,i,1.0,True,931.0999999977648,56.0,60.0,40.0,False,,230.05975613745963,[],"[683, 384]",ColorTask,55.0,65.0,,,HRV,HRV_0026,2022-11-30 17:57:58
,wl-rdm,182,436491,0.0-8.65-0.65,1.0,183.0,,,,,,,[],,,,,,50.0,1.0,i,1.0,True,817.1000000014901,49.0,60.0,40.0,False,,340.09831534560317,[],"[683, 384]",ColorTask,56.0,66.0,,,HRV,HRV_0026,2022-11-30 17:57:58
,wl-rdm,183,438491,0.0-8.66-0.66,1.0,184.0,,,,,,,[],,,,,,53.2,1.0,u,0.0,False,613.1999999955297,37.0,60.0,40.0,False,,300.7753524088284,[],"[683, 384]",ColorTask,55.0,67.0,,,HRV,HRV_0026,2022-11-30 17:57:58
,wl-rdm,184,440757,0.0-8.67-0.67,1.0,185.0,,,,,,,[],,,,,,62.5,1.0,u,0.0,False,965.6000000014901,58.0,60.0,40.0,False,,222.2929562470991,[],"[683, 384]",ColorTask,54.0,68.0,,,HRV,HRV_0026,2022-11-30 17:57:58
,wl-rdm,185,443191,0.0-8.68-0.68,1.0,186.0,,,,,,,[],,,,,,73.6,1.0,i,1.0,True,984.2999999970198,59.0,60.0,40.0,False,,371.6468261123845,[],"[683, 384]",ColorTask,55.0,69.0,,,HRV,HRV_0026,2022-11-30 17:57:58
,wl-rdm,186,445374,0.0-8.69-0.69,1.0,187.0,,,,,,,[],,,,,,62.5,1.0,i,1.0,True,862.0999999977648,52.0,60.0,40.0,False,,263.6081445180637,[],"[683, 384]",ColorTask,56.0,70.0,,,HRV,HRV_0026,2022-11-30 17:57:58
,wl-rdm,187,447624,0.0-8.70-0.70,1.0,188.0,,,,,,,[],,,,,,73.6,0.0,u,0.0,True,773.6999999992549,47.0,60.0,40.0,False,,386.64704353583056,[],"[683, 384]",ColorTask,57.0,71.0,,,HRV,HRV_0026,2022-11-30 17:57:58
,wl-rdm,188,449507,0.0-8.71-0.71,1.0,189.0,,,,,,,[],,,,,,53.2,0.0,u,0.0,True,594.9999999962747,36.0,60.0,40.0,False,,201.9621608618265,[],"[683, 384]",ColorTask,58.0,72.0,,,HRV,HRV_0026,2022-11-30 17:57:58
,wl-rdm,189,451574,0.0-8.72-0.72,1.0,190.0,,,,,,,[],,,,,,87.9,0.0,u,0.0,True,675.6000000014901,41.0,60.0,40.0,False,,305.01284981720147,[],"[683, 384]",ColorTask,59.0,73.0,,,HRV,HRV_0026,2022-11-30 17:57:58
,wl-rdm,190,453740,0.0-8.73-0.73,1.0,191.0,,,,,,,[],,,,,,50.0,0.0,i,1.0,False,813.4999999962747,49.0,60.0,40.0,False,,288.8526716240789,[],"[683, 384]",ColorTask,58.0,74.0,,,HRV,HRV_0026,2022-11-30 17:57:58
,wl-rdm,191,455924,0.0-8.74-0.74,1.0,192.0,,,,,,,[],,,,,,73.6,1.0,i,1.0,True,757.6000000014901,46.0,60.0,40.0,False,,337.5807580197514,[],"[683, 384]",ColorTask,59.0,75.0,,,HRV,HRV_0026,2022-11-30 17:57:58
,wl-rdm,192,457941,0.0-8.75-0.75,1.0,193.0,,,,,,,[],,,,,,56.4,0.0,u,0.0,True,746.3999999947846,45.0,60.0,40.0,False,,202.55984408144016,[],"[683, 384]",ColorTask,60.0,76.0,,,HRV,HRV_0026,2022-11-30 17:57:58
,wl-rdm,193,460108,0.0-8.76-0.76,1.0,194.0,,,,,,,[],,,,,,53.2,1.0,u,0.0,False,693.4000000022352,42.0,60.0,40.0,False,,395.2393853031027,[],"[683, 384]",ColorTask,59.0,77.0,,,HRV,HRV_0026,2022-11-30 17:57:58
,wl-rdm,194,462308,0.0-8.77-0.77,1.0,195.0,,,,,,,[],,,,,,50.0,0.0,u,0.0,True,840.4999999962747,51.0,60.0,40.0,False,,268.2376857782039,[],"[683, 384]",ColorTask,60.0,78.0,,,HRV,HRV_0026,2022-11-30 17:57:58
,wl-rdm,195,464592,0.0-8.78-0.78,1.0,196.0,,,,,,,[],,,,,,56.4,1.0,u,0.0,False,829.5999999977648,50.0,60.0,40.0,False,,358.8920427753999,[],"[683, 384]",ColorTask,59.0,79.0,,,HRV,HRV_0026,2022-11-30 17:57:58
,wl-rdm,196,466874,0.0-8.79-0.79,1.0,197.0,,,,,,,[],,,,,,53.2,1.0,u,0.0,False,993.5000000037253,60.0,60.0,40.0,False,,207.5491056980473,[],"[683, 384]",ColorTask,58.0,80.0,,,HRV,HRV_0026,2022-11-30 17:57:58
,wl-rdm,197,468940,0.0-8.80-0.80,1.0,198.0,,,,,,,[],,,,,,56.4,1.0,u,0.0,False,754.3999999985099,46.0,60.0,40.0,False,,236.2387658537428,[],"[683, 384]",ColorTask,57.0,81.0,,,HRV,HRV_0026,2022-11-30 17:57:58
,wl-rdm,198,471123,0.0-8.81-0.81,1.0,199.0,,,,,,,[],,,,,,62.5,0.0,i,1.0,False,853.1999999992549,52.0,60.0,40.0,False,,265.94129172161854,[],"[683, 384]",ColorTask,56.0,82.0,,,HRV,HRV_0026,2022-11-30 17:57:58
,wl-rdm,199,473307,0.0-8.82-0.82,1.0,200.0,,,,,,,[],,,,,,50.0,1.0,u,0.0,False,884.4000000022352,53.0,60.0,40.0,False,,217.20977133663652,[],"[683, 384]",ColorTask,55.0,83.0,,,HRV,HRV_0026,2022-11-30 17:57:58
,wl-rdm,200,475507,0.0-8.83-0.83,1.0,201.0,,,,,,,[],,,,,,56.4,1.0,u,0.0,False,858.5,52.0,60.0,40.0,False,,276.8836661436157,[],"[683, 384]",ColorTask,54.0,84.0,,,HRV,HRV_0026,2022-11-30 17:57:58
,wl-rdm,201,477523,0.0-8.84-0.84,1.0,202.0,,,,,,,[],,,,,,73.6,0.0,u,0.0,True,611.6999999992549,37.0,60.0,40.0,False,,319.3188106705719,[],"[683, 384]",ColorTask,55.0,85.0,,,HRV,HRV_0026,2022-11-30 17:57:58
,wl-rdm,202,479823,0.0-8.85-0.85,1.0,203.0,,,,,,,[],,,,,,73.6,0.0,u,0.0,True,865.4000000022352,52.0,60.0,40.0,False,,369.0072650528514,[],"[683, 384]",ColorTask,56.0,86.0,,,HRV,HRV_0026,2022-11-30 17:57:58
,wl-rdm,203,482039,0.0-8.86-0.86,1.0,204.0,,,,,,,[],,,,,,73.6,1.0,i,1.0,True,895.8999999985099,54.0,60.0,40.0,False,,242.56830275156486,[],"[683, 384]",ColorTask,57.0,87.0,,,HRV,HRV_0026,2022-11-30 17:57:58
,wl-rdm,204,484506,0.0-8.87-0.87,1.0,205.0,,,,,,,[],,,,,,53.2,1.0,i,1.0,True,1038.5999999977648,63.0,60.0,40.0,False,,345.71914674692607,[],"[683, 384]",ColorTask,58.0,88.0,,,HRV,HRV_0026,2022-11-30 17:57:58
,wl-rdm,205,486756,0.0-8.88-0.88,1.0,206.0,,,,,,,[],,,,,,50.0,0.0,u,0.0,True,857.1000000014901,52.0,60.0,40.0,False,,314.7467028634862,[],"[683, 384]",ColorTask,59.0,89.0,,,HRV,HRV_0026,2022-11-30 17:57:58
,wl-rdm,206,489189,0.0-8.89-0.89,1.0,207.0,,,,,,,[],,,,,,62.5,1.0,u,0.0,False,1057.699999999255,64.0,60.0,40.0,False,,300.5816850739668,[],"[683, 384]",ColorTask,58.0,90.0,,,HRV,HRV_0026,2022-11-30 17:57:58
,wl-rdm,207,491556,0.0-8.90-0.90,1.0,208.0,,,,,,,[],,,,,,50.0,1.0,u,0.0,False,989.5,60.0,60.0,40.0,False,,296.53347458907865,[],"[683, 384]",ColorTask,57.0,91.0,,,HRV,HRV_0026,2022-11-30 17:57:58
,wl-rdm,208,493739,0.0-8.91-0.91,1.0,209.0,,,,,,,[],,,,,,50.0,1.0,i,1.0,True,892.1000000014901,54.0,60.0,40.0,False,,205.95672234554766,[],"[683, 384]",ColorTask,58.0,92.0,,,HRV,HRV_0026,2022-11-30 17:57:58
,wl-rdm,209,495955,0.0-8.92-0.92,1.0,210.0,,,,,,,[],,,,,,62.5,1.0,i,1.0,True,867.7000000029802,52.0,60.0,40.0,False,,278.32597787801666,[],"[683, 384]",ColorTask,59.0,93.0,,,HRV,HRV_0026,2022-11-30 17:57:58
,wl-rdm,210,498172,0.0-8.93-0.93,1.0,211.0,,,,,,,[],,,,,,56.4,0.0,u,0.0,True,707.5000000037253,45.0,60.0,40.0,False,,321.873561520987,[],"[683, 384]",ColorTask,60.0,94.0,,,HRV,HRV_0026,2022-11-30 17:57:58
,wl-rdm,211,500607,0.0-8.94-0.94,1.0,212.0,,,,,,,[],,,,,,53.2,1.0,u,0.0,False,973.5000000037253,59.0,60.0,40.0,False,,369.26531802475444,[],"[683, 384]",ColorTask,59.0,95.0,,,HRV,HRV_0026,2022-11-30 17:57:58
,wl-rdm,212,502740,0.0-8.95-0.95,1.0,213.0,,,,,,,[],,,,,,50.0,1.0,i,1.0,True,811.3000000007451,49.0,60.0,40.0,False,,261.7944293317676,[],"[683, 384]",ColorTask,60.0,96.0,,,HRV,HRV_0026,2022-11-30 17:57:58
,wl-rdm,213,504939,0.0-8.96-0.96,1.0,214.0,,,,,,,[],,,,,,53.2,1.0,u,0.0,False,855.9000000022352,52.0,60.0,40.0,False,,253.78768203473692,[],"[683, 384]",ColorTask,59.0,97.0,,,HRV,HRV_0026,2022-11-30 17:57:58
,wl-rdm,214,507023,0.0-8.97-0.97,1.0,215.0,,,,,,,[],,,,,,87.9,1.0,i,1.0,True,700.5,42.0,60.0,40.0,False,,312.5517237080304,[],"[683, 384]",ColorTask,60.0,98.0,,,HRV,HRV_0026,2022-11-30 17:57:58
,wl-rdm,215,508922,0.0-8.98-0.98,1.0,216.0,,,,,,,[],,,,,,73.6,1.0,i,1.0,True,605.3999999985099,37.0,60.0,40.0,False,,212.33041266430703,[],"[683, 384]",ColorTask,61.0,99.0,,,HRV,HRV_0026,2022-11-30 17:57:58
,wl-rdm,216,511106,0.0-8.99-0.99,1.0,217.0,,,,,,,[],,,,,,56.4,0.0,i,1.0,False,871.5999999977648,53.0,60.0,40.0,False,,218.0391540123576,[],"[683, 384]",ColorTask,60.0,100.0,,,HRV,HRV_0026,2022-11-30 17:57:58
,wl-rdm,217,513205,0.0-8.100-0.100,1.0,218.0,,,,,,,[],,,,,,62.5,1.0,i,1.0,True,707.8000000007451,43.0,60.0,40.0,False,,304.18085215051707,[],"[683, 384]",ColorTask,61.0,101.0,,,HRV,HRV_0026,2022-11-30 17:57:58
,wl-rdm,218,515123,0.0-8.101-0.101,1.0,219.0,,,,,,,[],,,,,,87.9,0.0,u,0.0,True,556.2999999970198,34.0,60.0,40.0,False,,273.2854499585707,[],"[683, 384]",ColorTask,62.0,102.0,,,HRV,HRV_0026,2022-11-30 17:57:58
,wl-rdm,219,517172,0.0-8.102-0.102,1.0,220.0,,,,,,,[],,,,,,62.5,0.0,u,0.0,True,721.6999999992549,44.0,60.0,40.0,False,,246.29141895305014,[],"[683, 384]",ColorTask,63.0,103.0,,,HRV,HRV_0026,2022-11-30 17:57:58
,wl-rdm,220,519556,0.0-8.103-0.103,1.0,221.0,,,,,,,[],,,,,,73.6,0.0,u,0.0,True,938.3000000007451,57.0,60.0,40.0,False,,350.8967515289488,[],"[683, 384]",ColorTask,64.0,104.0,,,HRV,HRV_0026,2022-11-30 17:57:58
,wl-rdm,221,521737,0.0-8.104-0.104,1.0,222.0,,,,,,,[],,,,,,62.5,1.0,i,1.0,True,711.8000000007451,43.0,60.0,40.0,False,,387.8966893270649,[],"[683, 384]",ColorTask,65.0,105.0,,,HRV,HRV_0026,2022-11-30 17:57:58
,wl-rdm,222,523939,0.0-8.105-0.105,1.0,223.0,,,,,,,[],,,,,,62.5,0.0,u,0.0,True,756.2000000029802,46.0,60.0,40.0,False,,353.54440100233876,[],"[683, 384]",ColorTask,66.0,106.0,,,HRV,HRV_0026,2022-11-30 17:57:58
,wl-rdm,223,525887,0.0-8.106-0.106,1.0,224.0,,,,,,,[],,,,,,87.9,1.0,i,1.0,True,623.0999999977648,38.0,60.0,40.0,False,,239.74711943289302,[],"[683, 384]",ColorTask,67.0,107.0,,,HRV,HRV_0026,2022-11-30 17:57:58
,wl-rdm,224,528105,0.0-8.107-0.107,1.0,225.0,,,,,,,[],,,,,,50.0,0.0,u,0.0,True,839.4000000022352,51.0,60.0,40.0,False,,292.0154500687472,[],"[683, 384]",ColorTask,68.0,108.0,,,HRV,HRV_0026,2022-11-30 17:57:58
,wl-html-button-response,225,531058,0.0-9.0-0.0,,,,,,,,,,2942.099999997765,,0,,,,,,,,,,,,,,,,,,,,<h3>End of this session. Thank you!</h3><br>,['Close window'],HRV,HRV_0026,2022-11-30 17:57:58
