trialN,stimuli,trialStartTime,trialStartTime_UNIX,stimulus1,stimulus2,stimulus1Bid,stimulus2Bid,delta,selected,rt,rt_UNIX,rt_perfnow,receivedResponse,rsp,trialEndTime,trialDuration,trialEndTime_UNIX,trialDuration_UNIX,exp,subjectId,date
0,"[{'imgObject': {}, 'id': 'bagel and cc', 'src': '/static/foodstim60/bagel and cc.jpg', 'key': 'u', 'origWidth': 410, 'origHeight': 410, 'width': 410, 'height': 410, 'widthPercent': 0.45, 'rescaleHeight': False, 'trialN': 0, 'loaded': True, 'loadedTime': 5438, 'positionName': 'LEFT', 'positionCoords': [245.68, 179], 'bid': 4.61}, {'imgObject': {}, 'id': 'sushi w_condiments', 'src': '/static/foodstim60/sushi w_condiments.jpg', 'key': 'i', 'origWidth': 410, 'origHeight': 410, 'width': 410, 'height': 410, 'widthPercent': 0.45, 'rescaleHeight': False, 'trialN': 0, 'loaded': True, 'loadedTime': 5442, 'positionName': 'RIGHT', 'positionCoords': [710.32, 179], 'bid': 5.24}]",5912,1669829254092,bagel and cc,sushi w_condiments,4.61,5.24,0.6299999999999999,bagel and cc,1323,1351,1350,True,u,7764,1852,1669829255944,1852,HRV,HRV_0026,2022-11-30 17:32:11
1,"[{'imgObject': {}, 'id': 'popsicles', 'src': '/static/foodstim60/popsicles.jpg', 'key': 'u', 'origWidth': 410, 'origHeight': 410, 'width': 410, 'height': 410, 'widthPercent': 0.45, 'rescaleHeight': False, 'trialN': 1, 'loaded': True, 'loadedTime': 5455, 'positionName': 'LEFT', 'positionCoords': [245.68, 179], 'bid': 0.59}, {'imgObject': {}, 'id': 'banana', 'src': '/static/foodstim60/banana.jpg', 'key': 'i', 'origWidth': 410, 'origHeight': 410, 'width': 410, 'height': 410, 'widthPercent': 0.45, 'rescaleHeight': False, 'trialN': 1, 'loaded': True, 'loadedTime': 5465, 'positionName': 'RIGHT', 'positionCoords': [710.32, 179], 'bid': 1.19}]",7765,1669829255945,popsicles,banana,0.59,1.19,0.6,banana,798,818,818,True,i,9084,1319,1669829257263,1318,HRV,HRV_0026,2022-11-30 17:32:11
2,"[{'imgObject': {}, 'id': 'popsicles', 'src': '/static/foodstim60/popsicles.jpg', 'key': 'u', 'origWidth': 410, 'origHeight': 410, 'width': 410, 'height': 410, 'widthPercent': 0.45, 'rescaleHeight': False, 'trialN': 2, 'loaded': True, 'loadedTime': 5465, 'positionName': 'LEFT', 'positionCoords': [245.68, 179], 'bid': 0.59}, {'imgObject': {}, 'id': 'eggs', 'src': '/static/foodstim60/eggs.jpg', 'key': 'i', 'origWidth': 409, 'origHeight': 409, 'width': 409, 'height': 409, 'widthPercent': 0.45, 'rescaleHeight': False, 'trialN': 2, 'loaded': True, 'loadedTime': 5471, 'positionName': 'RIGHT', 'positionCoords': [710.32, 179.5], 'bid': 2.23}]",9085,1669829257264,popsicles,eggs,0.59,2.23,1.6400000000000001,eggs,994,1010,1009,True,i,10601,1516,1669829258781,1517,HRV,HRV_0026,2022-11-30 17:32:11
3,"[{'imgObject': {}, 'id': 'roastedpotatoes', 'src': '/static/foodstim60/roastedpotatoes.jpg', 'key': 'u', 'origWidth': 409, 'origHeight': 410, 'width': 409, 'height': 410, 'widthPercent': 0.45, 'rescaleHeight': False, 'trialN': 3, 'loaded': True, 'loadedTime': 5473, 'positionName': 'LEFT', 'positionCoords': [246.68, 179], 'bid': 8.16}, {'imgObject': {}, 'id': 'burger', 'src': '/static/foodstim60/burger.jpg', 'key': 'i', 'origWidth': 409, 'origHeight': 409, 'width': 409, 'height': 409, 'widthPercent': 0.45, 'rescaleHeight': False, 'trialN': 3, 'loaded': True, 'loadedTime': 5484, 'positionName': 'RIGHT', 'positionCoords': [710.32, 179.5], 'bid': 5.6000000000000005}]",10601,1669829258782,roastedpotatoes,burger,8.16,5.6000000000000005,-2.5599999999999996,roastedpotatoes,759,779,781,True,u,11888,1287,1669829260067,1285,HRV,HRV_0026,2022-11-30 17:32:11
4,"[{'imgObject': {}, 'id': 'rigatoni', 'src': '/static/foodstim60/rigatoni.jpg', 'key': 'u', 'origWidth': 411, 'origHeight': 411, 'width': 411, 'height': 411, 'widthPercent': 0.45, 'rescaleHeight': False, 'trialN': 4, 'loaded': True, 'loadedTime': 5497, 'positionName': 'LEFT', 'positionCoords': [244.68, 178.5], 'bid': 3.43}, {'imgObject': {}, 'id': 'apple slices', 'src': '/static/foodstim60/apple slices.jpg', 'key': 'i', 'origWidth': 409, 'origHeight': 410, 'width': 409, 'height': 410, 'widthPercent': 0.45, 'rescaleHeight': False, 'trialN': 4, 'loaded': True, 'loadedTime': 5513, 'positionName': 'RIGHT', 'positionCoords': [710.32, 179], 'bid': 1.96}]",11888,1669829260068,rigatoni,apple slices,3.43,1.96,-1.4700000000000002,rigatoni,956,983,983,True,u,13375,1487,1669829261555,1487,HRV,HRV_0026,2022-11-30 17:32:11
5,"[{'imgObject': {}, 'id': 'turkey sandwich', 'src': '/static/foodstim60/turkey sandwich.jpg', 'key': 'u', 'origWidth': 409, 'origHeight': 409, 'width': 409, 'height': 409, 'widthPercent': 0.45, 'rescaleHeight': False, 'trialN': 5, 'loaded': True, 'loadedTime': 5528, 'positionName': 'LEFT', 'positionCoords': [246.68, 179.5], 'bid': 6.25}, {'imgObject': {}, 'id': 'avocado', 'src': '/static/foodstim60/avocado.jpg', 'key': 'i', 'origWidth': 409, 'origHeight': 409, 'width': 409, 'height': 409, 'widthPercent': 0.45, 'rescaleHeight': False, 'trialN': 5, 'loaded': True, 'loadedTime': 5536, 'positionName': 'RIGHT', 'positionCoords': [710.32, 179.5], 'bid': 6.8}]",13378,1669829261557,turkey sandwich,avocado,6.25,6.8,0.5499999999999998,turkey sandwich,857,867,866,True,u,14763,1385,1669829262942,1385,HRV,HRV_0026,2022-11-30 17:32:11
6,"[{'imgObject': {}, 'id': 'mango', 'src': '/static/foodstim60/mango.jpg', 'key': 'u', 'origWidth': 411, 'origHeight': 411, 'width': 411, 'height': 411, 'widthPercent': 0.45, 'rescaleHeight': False, 'trialN': 6, 'loaded': True, 'loadedTime': 5577, 'positionName': 'LEFT', 'positionCoords': [244.68, 178.5], 'bid': 4.48}, {'imgObject': {}, 'id': 'cheerios', 'src': '/static/foodstim60/cheerios.jpg', 'key': 'i', 'origWidth': 409, 'origHeight': 410, 'width': 409, 'height': 410, 'widthPercent': 0.45, 'rescaleHeight': False, 'trialN': 6, 'loaded': True, 'loadedTime': 5582, 'positionName': 'RIGHT', 'positionCoords': [710.32, 179], 'bid': 4.26}]",14764,1669829262943,mango,cheerios,4.48,4.26,-0.22000000000000064,cheerios,908,920,919,True,i,16193,1429,1669829264374,1431,HRV,HRV_0026,2022-11-30 17:32:11
7,"[{'imgObject': {}, 'id': 'bagel plain', 'src': '/static/foodstim60/bagel plain.jpg', 'key': 'u', 'origWidth': 410, 'origHeight': 410, 'width': 410, 'height': 410, 'widthPercent': 0.45, 'rescaleHeight': False, 'trialN': 7, 'loaded': True, 'loadedTime': 5591, 'positionName': 'LEFT', 'positionCoords': [245.68, 179], 'bid': 4.86}, {'imgObject': {}, 'id': 'fruitsalad', 'src': '/static/foodstim60/fruitsalad.jpg', 'key': 'i', 'origWidth': 410, 'origHeight': 410, 'width': 410, 'height': 410, 'widthPercent': 0.45, 'rescaleHeight': False, 'trialN': 7, 'loaded': True, 'loadedTime': 5596, 'positionName': 'RIGHT', 'positionCoords': [710.32, 179], 'bid': 2.77}]",16194,1669829264374,bagel plain,fruitsalad,4.86,2.77,-2.0900000000000003,bagel plain,900,921,921,True,u,17625,1431,1669829265805,1431,HRV,HRV_0026,2022-11-30 17:32:11
8,"[{'imgObject': {}, 'id': 'banana', 'src': '/static/foodstim60/banana.jpg', 'key': 'u', 'origWidth': 410, 'origHeight': 410, 'width': 410, 'height': 410, 'widthPercent': 0.45, 'rescaleHeight': False, 'trialN': 8, 'loaded': True, 'loadedTime': 5470, 'positionName': 'LEFT', 'positionCoords': [245.68, 179], 'bid': 1.19}, {'imgObject': {}, 'id': 'pear', 'src': '/static/foodstim60/pear.jpg', 'key': 'i', 'origWidth': 411, 'origHeight': 410, 'width': 411, 'height': 410, 'widthPercent': 0.45, 'rescaleHeight': False, 'trialN': 8, 'loaded': True, 'loadedTime': 5622, 'positionName': 'RIGHT', 'positionCoords': [710.32, 179], 'bid': 2.96}]",17626,1669829265805,banana,pear,1.19,2.96,1.77,pear,968,987,985,True,i,19126,1500,1669829267307,1502,HRV,HRV_0026,2022-11-30 17:32:11
9,"[{'imgObject': {}, 'id': 'rigatoni and sauce', 'src': '/static/foodstim60/rigatoni and sauce.jpg', 'key': 'u', 'origWidth': 410, 'origHeight': 411, 'width': 410, 'height': 411, 'widthPercent': 0.45, 'rescaleHeight': False, 'trialN': 9, 'loaded': True, 'loadedTime': 5626, 'positionName': 'LEFT', 'positionCoords': [245.68, 178.5], 'bid': 4.91}, {'imgObject': {}, 'id': 'raspberries', 'src': '/static/foodstim60/raspberries.jpg', 'key': 'i', 'origWidth': 411, 'origHeight': 411, 'width': 411, 'height': 411, 'widthPercent': 0.45, 'rescaleHeight': False, 'trialN': 9, 'loaded': True, 'loadedTime': 5649, 'positionName': 'RIGHT', 'positionCoords': [710.32, 178.5], 'bid': 5.5200000000000005}]",19127,1669829267307,rigatoni and sauce,raspberries,4.91,5.5200000000000005,0.6100000000000003,rigatoni and sauce,858,879,878,True,u,20512,1385,1669829268692,1385,HRV,HRV_0026,2022-11-30 17:32:11
10,"[{'imgObject': {}, 'id': 'corn cob', 'src': '/static/foodstim60/corn cob.jpg', 'key': 'u', 'origWidth': 411, 'origHeight': 411, 'width': 411, 'height': 411, 'widthPercent': 0.45, 'rescaleHeight': False, 'trialN': 10, 'loaded': True, 'loadedTime': 5661, 'positionName': 'LEFT', 'positionCoords': [244.68, 178.5], 'bid': 3.22}, {'imgObject': {}, 'id': 'Tribe humus pita', 'src': '/static/foodstim60/Tribe humus pita.jpg', 'key': 'i', 'origWidth': 411, 'origHeight': 411, 'width': 411, 'height': 411, 'widthPercent': 0.45, 'rescaleHeight': False, 'trialN': 10, 'loaded': True, 'loadedTime': 5677, 'positionName': 'RIGHT', 'positionCoords': [710.32, 178.5], 'bid': 5.96}]",20512,1669829268692,corn cob,Tribe humus pita,3.22,5.96,2.7399999999999998,Tribe humus pita,988,1011,1011,True,i,22028,1516,1669829270209,1517,HRV,HRV_0026,2022-11-30 17:32:11
11,"[{'imgObject': {}, 'id': 'eggsalad', 'src': '/static/foodstim60/eggsalad.jpg', 'key': 'u', 'origWidth': 410, 'origHeight': 409, 'width': 410, 'height': 409, 'widthPercent': 0.45, 'rescaleHeight': False, 'trialN': 11, 'loaded': True, 'loadedTime': 5687, 'positionName': 'LEFT', 'positionCoords': [245.68, 179.5], 'bid': 5.2}, {'imgObject': {}, 'id': 'omelette', 'src': '/static/foodstim60/omelette.jpg', 'key': 'i', 'origWidth': 410, 'origHeight': 409, 'width': 410, 'height': 409, 'widthPercent': 0.45, 'rescaleHeight': False, 'trialN': 11, 'loaded': True, 'loadedTime': 5690, 'positionName': 'RIGHT', 'positionCoords': [710.32, 179.5], 'bid': 5.23}]",22030,1669829270209,eggsalad,omelette,5.2,5.23,0.03000000000000025,eggsalad,814,820,819,True,u,23369,1339,1669829271549,1340,HRV,HRV_0026,2022-11-30 17:32:11
12,"[{'imgObject': {}, 'id': 'cherry tomato', 'src': '/static/foodstim60/cherry tomato.jpg', 'key': 'u', 'origWidth': 410, 'origHeight': 410, 'width': 410, 'height': 410, 'widthPercent': 0.45, 'rescaleHeight': False, 'trialN': 12, 'loaded': True, 'loadedTime': 5693, 'positionName': 'LEFT', 'positionCoords': [245.68, 179], 'bid': 4.25}, {'imgObject': {}, 'id': 'strawberries', 'src': '/static/foodstim60/strawberries.jpg', 'key': 'i', 'origWidth': 410, 'origHeight': 410, 'width': 410, 'height': 410, 'widthPercent': 0.45, 'rescaleHeight': False, 'trialN': 12, 'loaded': True, 'loadedTime': 5697, 'positionName': 'RIGHT', 'positionCoords': [710.32, 179], 'bid': 6.69}]",23370,1669829271549,cherry tomato,strawberries,4.25,6.69,2.4400000000000004,cherry tomato,1037,1064,1063,True,u,24935,1565,1669829273115,1566,HRV,HRV_0026,2022-11-30 17:32:11
13,"[{'imgObject': {}, 'id': 'cherries', 'src': '/static/foodstim60/cherries.jpg', 'key': 'u', 'origWidth': 410, 'origHeight': 411, 'width': 410, 'height': 411, 'widthPercent': 0.45, 'rescaleHeight': False, 'trialN': 13, 'loaded': True, 'loadedTime': 5701, 'positionName': 'LEFT', 'positionCoords': [245.68, 178.5], 'bid': 7.38}, {'imgObject': {}, 'id': 'turkeysandwich', 'src': '/static/foodstim60/turkeysandwich.jpg', 'key': 'i', 'origWidth': 409, 'origHeight': 409, 'width': 409, 'height': 409, 'widthPercent': 0.45, 'rescaleHeight': False, 'trialN': 13, 'loaded': True, 'loadedTime': 5704, 'positionName': 'RIGHT', 'positionCoords': [710.32, 179.5], 'bid': 5.55}]",24936,1669829273115,cherries,turkeysandwich,7.38,5.55,-1.83,turkeysandwich,971,991,990,True,i,26438,1502,1669829274617,1502,HRV,HRV_0026,2022-11-30 17:32:11
14,"[{'imgObject': {}, 'id': 'Grapes', 'src': '/static/foodstim60/Grapes.jpg', 'key': 'u', 'origWidth': 411, 'origHeight': 411, 'width': 411, 'height': 411, 'widthPercent': 0.45, 'rescaleHeight': False, 'trialN': 14, 'loaded': True, 'loadedTime': 5708, 'positionName': 'LEFT', 'positionCoords': [244.68, 178.5], 'bid': 2.54}, {'imgObject': {}, 'id': 'mango', 'src': '/static/foodstim60/mango.jpg', 'key': 'i', 'origWidth': 411, 'origHeight': 411, 'width': 411, 'height': 411, 'widthPercent': 0.45, 'rescaleHeight': False, 'trialN': 14, 'loaded': True, 'loadedTime': 5581, 'positionName': 'RIGHT', 'positionCoords': [710.32, 178.5], 'bid': 4.48}]",26438,1669829274618,Grapes,mango,2.54,4.48,1.9400000000000004,Grapes,1187,1216,1215,True,u,28156,1718,1669829276335,1717,HRV,HRV_0026,2022-11-30 17:32:11
15,"[{'imgObject': {}, 'id': 'baked potato', 'src': '/static/foodstim60/baked potato.jpg', 'key': 'u', 'origWidth': 409, 'origHeight': 410, 'width': 409, 'height': 410, 'widthPercent': 0.45, 'rescaleHeight': False, 'trialN': 15, 'loaded': True, 'loadedTime': 5711, 'positionName': 'LEFT', 'positionCoords': [246.68, 179], 'bid': 5.42}, {'imgObject': {}, 'id': 'sushi w_condiments', 'src': '/static/foodstim60/sushi w_condiments.jpg', 'key': 'i', 'origWidth': 410, 'origHeight': 410, 'width': 410, 'height': 410, 'widthPercent': 0.45, 'rescaleHeight': False, 'trialN': 15, 'loaded': True, 'loadedTime': 5454, 'positionName': 'RIGHT', 'positionCoords': [710.32, 179], 'bid': 5.24}]",28156,1669829276336,baked potato,sushi w_condiments,5.42,5.24,-0.17999999999999972,sushi w_condiments,798,806,807,True,i,29482,1326,1669829277662,1326,HRV,HRV_0026,2022-11-30 17:32:11
16,"[{'imgObject': {}, 'id': 'roastedpotatoes', 'src': '/static/foodstim60/roastedpotatoes.jpg', 'key': 'u', 'origWidth': 409, 'origHeight': 410, 'width': 409, 'height': 410, 'widthPercent': 0.45, 'rescaleHeight': False, 'trialN': 16, 'loaded': True, 'loadedTime': 5484, 'positionName': 'LEFT', 'positionCoords': [246.68, 179], 'bid': 8.16}, {'imgObject': {}, 'id': 'mashed potato', 'src': '/static/foodstim60/mashed potato.jpg', 'key': 'i', 'origWidth': 409, 'origHeight': 409, 'width': 409, 'height': 409, 'widthPercent': 0.45, 'rescaleHeight': False, 'trialN': 16, 'loaded': True, 'loadedTime': 5721, 'positionName': 'RIGHT', 'positionCoords': [710.32, 179.5], 'bid': 4.67}]",29482,1669829277662,roastedpotatoes,mashed potato,8.16,4.67,-3.49,roastedpotatoes,815,828,828,True,u,30814,1332,1669829278994,1332,HRV,HRV_0026,2022-11-30 17:32:11
17,"[{'imgObject': {}, 'id': 'burrito', 'src': '/static/foodstim60/burrito.jpg', 'key': 'u', 'origWidth': 410, 'origHeight': 410, 'width': 410, 'height': 410, 'widthPercent': 0.45, 'rescaleHeight': False, 'trialN': 17, 'loaded': True, 'loadedTime': 5737, 'positionName': 'LEFT', 'positionCoords': [245.68, 179], 'bid': 5.64}, {'imgObject': {}, 'id': 'burger', 'src': '/static/foodstim60/burger.jpg', 'key': 'i', 'origWidth': 409, 'origHeight': 409, 'width': 409, 'height': 409, 'widthPercent': 0.45, 'rescaleHeight': False, 'trialN': 17, 'loaded': True, 'loadedTime': 5497, 'positionName': 'RIGHT', 'positionCoords': [710.32, 179.5], 'bid': 5.6000000000000005}]",30814,1669829278995,burrito,burger,5.64,5.6000000000000005,-0.03999999999999915,burger,1093,1112,1113,True,i,32433,1619,1669829280612,1617,HRV,HRV_0026,2022-11-30 17:32:11
18,"[{'imgObject': {}, 'id': 'ice cream sundae 002', 'src': '/static/foodstim60/ice cream sundae 002.jpg', 'key': 'u', 'origWidth': 409, 'origHeight': 409, 'width': 409, 'height': 409, 'widthPercent': 0.45, 'rescaleHeight': False, 'trialN': 18, 'loaded': True, 'loadedTime': 5777, 'positionName': 'LEFT', 'positionCoords': [246.68, 179.5], 'bid': 5.87}, {'imgObject': {}, 'id': 'cocktailshrimp', 'src': '/static/foodstim60/cocktailshrimp.jpg', 'key': 'i', 'origWidth': 410, 'origHeight': 410, 'width': 410, 'height': 410, 'widthPercent': 0.45, 'rescaleHeight': False, 'trialN': 18, 'loaded': True, 'loadedTime': 5780, 'positionName': 'RIGHT', 'positionCoords': [710.32, 179], 'bid': 7.07}]",32433,1669829280613,ice cream sundae 002,cocktailshrimp,5.87,7.07,1.2000000000000002,ice cream sundae 002,880,897,898,True,u,33835,1402,1669829282015,1402,HRV,HRV_0026,2022-11-30 17:32:11
19,"[{'imgObject': {}, 'id': 'hotdog w must', 'src': '/static/foodstim60/hotdog w must.jpg', 'key': 'u', 'origWidth': 409, 'origHeight': 409, 'width': 409, 'height': 409, 'widthPercent': 0.45, 'rescaleHeight': False, 'trialN': 19, 'loaded': True, 'loadedTime': 5786, 'positionName': 'LEFT', 'positionCoords': [246.68, 179.5], 'bid': 2.01}, {'imgObject': {}, 'id': 'shreddedwheatwithmilk', 'src': '/static/foodstim60/shreddedwheatwithmilk.jpg', 'key': 'i', 'origWidth': 410, 'origHeight': 410, 'width': 410, 'height': 410, 'widthPercent': 0.45, 'rescaleHeight': False, 'trialN': 19, 'loaded': True, 'loadedTime': 5790, 'positionName': 'RIGHT', 'positionCoords': [710.32, 179], 'bid': 5.5200000000000005}]",33835,1669829282016,hotdog w must,shreddedwheatwithmilk,2.01,5.5200000000000005,3.5100000000000007,shreddedwheatwithmilk,931,937,938,True,i,35292,1457,1669829283473,1457,HRV,HRV_0026,2022-11-30 17:32:11
20,"[{'imgObject': {}, 'id': 'popsicles', 'src': '/static/foodstim60/popsicles.jpg', 'key': 'u', 'origWidth': 410, 'origHeight': 410, 'width': 410, 'height': 410, 'widthPercent': 0.45, 'rescaleHeight': False, 'trialN': 20, 'loaded': True, 'loadedTime': 5465, 'positionName': 'LEFT', 'positionCoords': [245.68, 179], 'bid': 0.59}, {'imgObject': {}, 'id': 'luckycharms', 'src': '/static/foodstim60/luckycharms.jpg', 'key': 'i', 'origWidth': 410, 'origHeight': 409, 'width': 410, 'height': 409, 'widthPercent': 0.45, 'rescaleHeight': False, 'trialN': 20, 'loaded': True, 'loadedTime': 5795, 'positionName': 'RIGHT', 'positionCoords': [710.32, 179.5], 'bid': 3.94}]",35292,1669829283473,popsicles,luckycharms,0.59,3.94,3.35,luckycharms,896,907,907,True,i,36711,1419,1669829284891,1418,HRV,HRV_0026,2022-11-30 17:32:11
21,"[{'imgObject': {}, 'id': 'eggs', 'src': '/static/foodstim60/eggs.jpg', 'key': 'u', 'origWidth': 409, 'origHeight': 409, 'width': 409, 'height': 409, 'widthPercent': 0.45, 'rescaleHeight': False, 'trialN': 21, 'loaded': True, 'loadedTime': 5473, 'positionName': 'LEFT', 'positionCoords': [246.68, 179.5], 'bid': 2.23}, {'imgObject': {}, 'id': 'edamame', 'src': '/static/foodstim60/edamame.jpg', 'key': 'i', 'origWidth': 409, 'origHeight': 410, 'width': 409, 'height': 410, 'widthPercent': 0.45, 'rescaleHeight': False, 'trialN': 21, 'loaded': True, 'loadedTime': 5804, 'positionName': 'RIGHT', 'positionCoords': [710.32, 179], 'bid': 2.32}]",36711,1669829284892,eggs,edamame,2.23,2.32,0.08999999999999986,edamame,961,978,979,True,i,38197,1486,1669829286377,1485,HRV,HRV_0026,2022-11-30 17:32:11
22,"[{'imgObject': {}, 'id': 'Tribe humus pita', 'src': '/static/foodstim60/Tribe humus pita.jpg', 'key': 'u', 'origWidth': 411, 'origHeight': 411, 'width': 411, 'height': 411, 'widthPercent': 0.45, 'rescaleHeight': False, 'trialN': 22, 'loaded': True, 'loadedTime': 5685, 'positionName': 'LEFT', 'positionCoords': [244.68, 178.5], 'bid': 5.96}, {'imgObject': {}, 'id': 'ice cream sundae 002', 'src': '/static/foodstim60/ice cream sundae 002.jpg', 'key': 'i', 'origWidth': 409, 'origHeight': 409, 'width': 409, 'height': 409, 'widthPercent': 0.45, 'rescaleHeight': False, 'trialN': 22, 'loaded': True, 'loadedTime': 5779, 'positionName': 'RIGHT', 'positionCoords': [710.32, 179.5], 'bid': 5.87}]",38198,1669829286377,Tribe humus pita,ice cream sundae 002,5.96,5.87,-0.08999999999999986,Tribe humus pita,802,820,819,True,u,39530,1332,1669829287710,1333,HRV,HRV_0026,2022-11-30 17:32:11
23,"[{'imgObject': {}, 'id': 'cocktailshrimp', 'src': '/static/foodstim60/cocktailshrimp.jpg', 'key': 'u', 'origWidth': 410, 'origHeight': 410, 'width': 410, 'height': 410, 'widthPercent': 0.45, 'rescaleHeight': False, 'trialN': 23, 'loaded': True, 'loadedTime': 5785, 'positionName': 'LEFT', 'positionCoords': [245.68, 179], 'bid': 7.07}, {'imgObject': {}, 'id': 'lox', 'src': '/static/foodstim60/lox.jpg', 'key': 'i', 'origWidth': 410, 'origHeight': 411, 'width': 410, 'height': 411, 'widthPercent': 0.45, 'rescaleHeight': False, 'trialN': 23, 'loaded': True, 'loadedTime': 5805, 'positionName': 'RIGHT', 'positionCoords': [710.32, 178.5], 'bid': 7.18}]",39530,1669829287711,cocktailshrimp,lox,7.07,7.18,0.10999999999999943,cocktailshrimp,892,908,910,True,u,40950,1420,1669829289130,1419,HRV,HRV_0026,2022-11-30 17:32:11
24,"[{'imgObject': {}, 'id': 'raisin bran w milk', 'src': '/static/foodstim60/raisin bran w milk.jpg', 'key': 'u', 'origWidth': 411, 'origHeight': 411, 'width': 411, 'height': 411, 'widthPercent': 0.45, 'rescaleHeight': False, 'trialN': 24, 'loaded': True, 'loadedTime': 5808, 'positionName': 'LEFT', 'positionCoords': [244.68, 178.5], 'bid': 5.05}, {'imgObject': {}, 'id': 'eggsalad', 'src': '/static/foodstim60/eggsalad.jpg', 'key': 'i', 'origWidth': 410, 'origHeight': 409, 'width': 410, 'height': 409, 'widthPercent': 0.45, 'rescaleHeight': False, 'trialN': 24, 'loaded': True, 'loadedTime': 5690, 'positionName': 'RIGHT', 'positionCoords': [710.32, 179.5], 'bid': 5.2}]",40951,1669829289130,raisin bran w milk,eggsalad,5.05,5.2,0.15000000000000036,raisin bran w milk,971,986,986,True,u,42451,1500,1669829290631,1501,HRV,HRV_0026,2022-11-30 17:32:11
25,"[{'imgObject': {}, 'id': 'mashed potato', 'src': '/static/foodstim60/mashed potato.jpg', 'key': 'u', 'origWidth': 409, 'origHeight': 409, 'width': 409, 'height': 409, 'widthPercent': 0.45, 'rescaleHeight': False, 'trialN': 25, 'loaded': True, 'loadedTime': 5737, 'positionName': 'LEFT', 'positionCoords': [246.68, 179.5], 'bid': 4.67}, {'imgObject': {}, 'id': 'bagel and cc', 'src': '/static/foodstim60/bagel and cc.jpg', 'key': 'i', 'origWidth': 410, 'origHeight': 410, 'width': 410, 'height': 410, 'widthPercent': 0.45, 'rescaleHeight': False, 'trialN': 25, 'loaded': True, 'loadedTime': 5441, 'positionName': 'RIGHT', 'positionCoords': [710.32, 179], 'bid': 4.61}]",42452,1669829290632,mashed potato,bagel and cc,4.67,4.61,-0.05999999999999961,bagel and cc,1158,1186,1187,True,i,44139,1687,1669829292320,1688,HRV,HRV_0026,2022-11-30 17:32:11
26,"[{'imgObject': {}, 'id': 'fruitsalad', 'src': '/static/foodstim60/fruitsalad.jpg', 'key': 'u', 'origWidth': 410, 'origHeight': 410, 'width': 410, 'height': 410, 'widthPercent': 0.45, 'rescaleHeight': False, 'trialN': 26, 'loaded': True, 'loadedTime': 5617, 'positionName': 'LEFT', 'positionCoords': [245.68, 179], 'bid': 2.77}, {'imgObject': {}, 'id': 'pear', 'src': '/static/foodstim60/pear.jpg', 'key': 'i', 'origWidth': 411, 'origHeight': 410, 'width': 411, 'height': 410, 'widthPercent': 0.45, 'rescaleHeight': False, 'trialN': 26, 'loaded': True, 'loadedTime': 5626, 'positionName': 'RIGHT', 'positionCoords': [710.32, 179], 'bid': 2.96}]",44140,1669829292320,fruitsalad,pear,2.77,2.96,0.18999999999999995,pear,1189,1205,1205,True,i,45860,1720,1669829294040,1720,HRV,HRV_0026,2022-11-30 17:32:11
27,"[{'imgObject': {}, 'id': 'blackbeanswithrice', 'src': '/static/foodstim60/blackbeanswithrice.jpg', 'key': 'u', 'origWidth': 410, 'origHeight': 410, 'width': 410, 'height': 410, 'widthPercent': 0.45, 'rescaleHeight': False, 'trialN': 27, 'loaded': True, 'loadedTime': 5812, 'positionName': 'LEFT', 'positionCoords': [245.68, 179], 'bid': 4.61}, {'imgObject': {}, 'id': 'lox', 'src': '/static/foodstim60/lox.jpg', 'key': 'i', 'origWidth': 410, 'origHeight': 411, 'width': 410, 'height': 411, 'widthPercent': 0.45, 'rescaleHeight': False, 'trialN': 27, 'loaded': True, 'loadedTime': 5808, 'positionName': 'RIGHT', 'positionCoords': [710.32, 178.5], 'bid': 7.18}]",45861,1669829294041,blackbeanswithrice,lox,4.61,7.18,2.5699999999999994,blackbeanswithrice,843,864,865,True,u,47228,1367,1669829295408,1367,HRV,HRV_0026,2022-11-30 17:32:11
28,"[{'imgObject': {}, 'id': 'hotdog w must', 'src': '/static/foodstim60/hotdog w must.jpg', 'key': 'u', 'origWidth': 409, 'origHeight': 409, 'width': 409, 'height': 409, 'widthPercent': 0.45, 'rescaleHeight': False, 'trialN': 28, 'loaded': True, 'loadedTime': 5790, 'positionName': 'LEFT', 'positionCoords': [246.68, 179.5], 'bid': 2.01}, {'imgObject': {}, 'id': 'pear', 'src': '/static/foodstim60/pear.jpg', 'key': 'i', 'origWidth': 411, 'origHeight': 410, 'width': 411, 'height': 410, 'widthPercent': 0.45, 'rescaleHeight': False, 'trialN': 28, 'loaded': True, 'loadedTime': 5626, 'positionName': 'RIGHT', 'positionCoords': [710.32, 179], 'bid': 2.96}]",47229,1669829295408,hotdog w must,pear,2.01,2.96,0.9500000000000002,pear,865,878,876,True,i,48613,1384,1669829296794,1386,HRV,HRV_0026,2022-11-30 17:32:11
29,"[{'imgObject': {}, 'id': 'chickenfingers', 'src': '/static/foodstim60/chickenfingers.jpg', 'key': 'u', 'origWidth': 410, 'origHeight': 410, 'width': 410, 'height': 410, 'widthPercent': 0.45, 'rescaleHeight': False, 'trialN': 29, 'loaded': True, 'loadedTime': 5814, 'positionName': 'LEFT', 'positionCoords': [245.68, 179], 'bid': 8.52}, {'imgObject': {}, 'id': 'salmon', 'src': '/static/foodstim60/salmon.jpg', 'key': 'i', 'origWidth': 410, 'origHeight': 409, 'width': 410, 'height': 409, 'widthPercent': 0.45, 'rescaleHeight': False, 'trialN': 29, 'loaded': True, 'loadedTime': 5818, 'positionName': 'RIGHT', 'positionCoords': [710.32, 179.5], 'bid': 8.36}]",48614,1669829296794,chickenfingers,salmon,8.52,8.36,-0.16000000000000014,chickenfingers,886,914,914,True,u,50030,1416,1669829298210,1416,HRV,HRV_0026,2022-11-30 17:32:11
30,"[{'imgObject': {}, 'id': 'blackbeanswithrice', 'src': '/static/foodstim60/blackbeanswithrice.jpg', 'key': 'u', 'origWidth': 410, 'origHeight': 410, 'width': 410, 'height': 410, 'widthPercent': 0.45, 'rescaleHeight': False, 'trialN': 30, 'loaded': True, 'loadedTime': 5814, 'positionName': 'LEFT', 'positionCoords': [245.68, 179], 'bid': 4.61}, {'imgObject': {}, 'id': 'mashed potato', 'src': '/static/foodstim60/mashed potato.jpg', 'key': 'i', 'origWidth': 409, 'origHeight': 409, 'width': 409, 'height': 409, 'widthPercent': 0.45, 'rescaleHeight': False, 'trialN': 30, 'loaded': True, 'loadedTime': 5737, 'positionName': 'RIGHT', 'positionCoords': [710.32, 179.5], 'bid': 4.67}]",50030,1669829298210,blackbeanswithrice,mashed potato,4.61,4.67,0.05999999999999961,mashed potato,1064,1083,1083,True,i,51615,1585,1669829299795,1585,HRV,HRV_0026,2022-11-30 17:32:11
31,"[{'imgObject': {}, 'id': 'bagel and cc', 'src': '/static/foodstim60/bagel and cc.jpg', 'key': 'u', 'origWidth': 410, 'origHeight': 410, 'width': 410, 'height': 410, 'widthPercent': 0.45, 'rescaleHeight': False, 'trialN': 31, 'loaded': True, 'loadedTime': 5441, 'positionName': 'LEFT', 'positionCoords': [245.68, 179], 'bid': 4.61}, {'imgObject': {}, 'id': 'hashbrowns', 'src': '/static/foodstim60/hashbrowns.jpg', 'key': 'i', 'origWidth': 411, 'origHeight': 410, 'width': 411, 'height': 410, 'widthPercent': 0.45, 'rescaleHeight': False, 'trialN': 31, 'loaded': True, 'loadedTime': 5836, 'positionName': 'RIGHT', 'positionCoords': [710.32, 179], 'bid': 4.53}]",51615,1669829299795,bagel and cc,hashbrowns,4.61,4.53,-0.08000000000000007,bagel and cc,1354,1373,1374,True,u,53495,1880,1669829301674,1879,HRV,HRV_0026,2022-11-30 17:32:11
32,"[{'imgObject': {}, 'id': 'banana', 'src': '/static/foodstim60/banana.jpg', 'key': 'u', 'origWidth': 410, 'origHeight': 410, 'width': 410, 'height': 410, 'widthPercent': 0.45, 'rescaleHeight': False, 'trialN': 32, 'loaded': True, 'loadedTime': 5471, 'positionName': 'LEFT', 'positionCoords': [245.68, 179], 'bid': 1.19}, {'imgObject': {}, 'id': 'cherry tomato', 'src': '/static/foodstim60/cherry tomato.jpg', 'key': 'i', 'origWidth': 410, 'origHeight': 410, 'width': 410, 'height': 410, 'widthPercent': 0.45, 'rescaleHeight': False, 'trialN': 32, 'loaded': True, 'loadedTime': 5697, 'positionName': 'RIGHT', 'positionCoords': [710.32, 179], 'bid': 4.25}]",53495,1669829301675,banana,cherry tomato,1.19,4.25,3.06,cherry tomato,724,752,752,True,i,54748,1253,1669829302928,1253,HRV,HRV_0026,2022-11-30 17:32:11
33,"[{'imgObject': {}, 'id': 'raisin bran w milk', 'src': '/static/foodstim60/raisin bran w milk.jpg', 'key': 'u', 'origWidth': 411, 'origHeight': 411, 'width': 411, 'height': 411, 'widthPercent': 0.45, 'rescaleHeight': False, 'trialN': 33, 'loaded': True, 'loadedTime': 5812, 'positionName': 'LEFT', 'positionCoords': [244.68, 178.5], 'bid': 5.05}, {'imgObject': {}, 'id': 'fried eggs', 'src': '/static/foodstim60/fried eggs.jpg', 'key': 'i', 'origWidth': 410, 'origHeight': 410, 'width': 410, 'height': 410, 'widthPercent': 0.45, 'rescaleHeight': False, 'trialN': 33, 'loaded': True, 'loadedTime': 5844, 'positionName': 'RIGHT', 'positionCoords': [710.32, 179], 'bid': 9.46}]",54749,1669829302928,raisin bran w milk,fried eggs,5.05,9.46,4.410000000000001,fried eggs,1126,1138,1137,True,i,56400,1651,1669829304580,1652,HRV,HRV_0026,2022-11-30 17:32:11
34,"[{'imgObject': {}, 'id': 'olives', 'src': '/static/foodstim60/olives.jpg', 'key': 'u', 'origWidth': 410, 'origHeight': 410, 'width': 410, 'height': 410, 'widthPercent': 0.45, 'rescaleHeight': False, 'trialN': 34, 'loaded': True, 'loadedTime': 5846, 'positionName': 'LEFT', 'positionCoords': [245.68, 179], 'bid': 3.37}, {'imgObject': {}, 'id': 'luckycharms', 'src': '/static/foodstim60/luckycharms.jpg', 'key': 'i', 'origWidth': 410, 'origHeight': 409, 'width': 410, 'height': 409, 'widthPercent': 0.45, 'rescaleHeight': False, 'trialN': 34, 'loaded': True, 'loadedTime': 5803, 'positionName': 'RIGHT', 'positionCoords': [710.32, 179.5], 'bid': 3.94}]",56400,1669829304580,olives,luckycharms,3.37,3.94,0.5699999999999998,olives,975,998,998,True,u,57902,1502,1669829306082,1502,HRV,HRV_0026,2022-11-30 17:32:11
35,"[{'imgObject': {}, 'id': 'cantaloupe', 'src': '/static/foodstim60/cantaloupe.jpg', 'key': 'u', 'origWidth': 409, 'origHeight': 409, 'width': 409, 'height': 409, 'widthPercent': 0.45, 'rescaleHeight': False, 'trialN': 35, 'loaded': True, 'loadedTime': 5849, 'positionName': 'LEFT', 'positionCoords': [246.68, 179.5], 'bid': 1.53}, {'imgObject': {}, 'id': 'sushi w_condiments', 'src': '/static/foodstim60/sushi w_condiments.jpg', 'key': 'i', 'origWidth': 410, 'origHeight': 410, 'width': 410, 'height': 410, 'widthPercent': 0.45, 'rescaleHeight': False, 'trialN': 35, 'loaded': True, 'loadedTime': 5454, 'positionName': 'RIGHT', 'positionCoords': [710.32, 179], 'bid': 5.24}]",57903,1669829306083,cantaloupe,sushi w_condiments,1.53,5.24,3.71,sushi w_condiments,1066,1081,1082,True,i,59490,1587,1669829307670,1587,HRV,HRV_0026,2022-11-30 17:32:11
36,"[{'imgObject': {}, 'id': 'sushi w_condiments', 'src': '/static/foodstim60/sushi w_condiments.jpg', 'key': 'u', 'origWidth': 410, 'origHeight': 410, 'width': 410, 'height': 410, 'widthPercent': 0.45, 'rescaleHeight': False, 'trialN': 36, 'loaded': True, 'loadedTime': 5454, 'positionName': 'LEFT', 'positionCoords': [245.68, 179], 'bid': 5.24}, {'imgObject': {}, 'id': 'sweetpotato', 'src': '/static/foodstim60/sweetpotato.jpg', 'key': 'i', 'origWidth': 410, 'origHeight': 410, 'width': 410, 'height': 410, 'widthPercent': 0.45, 'rescaleHeight': False, 'trialN': 36, 'loaded': True, 'loadedTime': 5852, 'positionName': 'RIGHT', 'positionCoords': [710.32, 179], 'bid': 5.26}]",59490,1669829307670,sushi w_condiments,sweetpotato,5.24,5.26,0.019999999999999574,sushi w_condiments,995,1007,1008,True,u,61010,1520,1669829309190,1520,HRV,HRV_0026,2022-11-30 17:32:11
37,"[{'imgObject': {}, 'id': 'froot loops w milk', 'src': '/static/foodstim60/froot loops w milk.jpg', 'key': 'u', 'origWidth': 410, 'origHeight': 410, 'width': 410, 'height': 410, 'widthPercent': 0.45, 'rescaleHeight': False, 'trialN': 37, 'loaded': True, 'loadedTime': 5855, 'positionName': 'LEFT', 'positionCoords': [245.68, 179], 'bid': 4.3100000000000005}, {'imgObject': {}, 'id': 'orange slices', 'src': '/static/foodstim60/orange slices.jpg', 'key': 'i', 'origWidth': 409, 'origHeight': 410, 'width': 409, 'height': 410, 'widthPercent': 0.45, 'rescaleHeight': False, 'trialN': 37, 'loaded': True, 'loadedTime': 5857, 'positionName': 'RIGHT', 'positionCoords': [710.32, 179], 'bid': 1.89}]",61010,1669829309191,froot loops w milk,orange slices,4.3100000000000005,1.89,-2.420000000000001,orange slices,850,860,861,True,i,62381,1371,1669829310561,1370,HRV,HRV_0026,2022-11-30 17:32:11
38,"[{'imgObject': {}, 'id': 'mashed potato', 'src': '/static/foodstim60/mashed potato.jpg', 'key': 'u', 'origWidth': 409, 'origHeight': 409, 'width': 409, 'height': 409, 'widthPercent': 0.45, 'rescaleHeight': False, 'trialN': 38, 'loaded': True, 'loadedTime': 5737, 'positionName': 'LEFT', 'positionCoords': [246.68, 179.5], 'bid': 4.67}, {'imgObject': {}, 'id': 'kiwi', 'src': '/static/foodstim60/kiwi.jpg', 'key': 'i', 'origWidth': 410, 'origHeight': 410, 'width': 410, 'height': 410, 'widthPercent': 0.45, 'rescaleHeight': False, 'trialN': 38, 'loaded': True, 'loadedTime': 5859, 'positionName': 'RIGHT', 'positionCoords': [710.32, 179], 'bid': 2.46}]",62382,1669829310561,mashed potato,kiwi,4.67,2.46,-2.21,kiwi,1039,1057,1056,True,i,63952,1570,1669829312132,1571,HRV,HRV_0026,2022-11-30 17:32:11
39,"[{'imgObject': {}, 'id': 'mac & cheese', 'src': '/static/foodstim60/mac & cheese.jpg', 'key': 'u', 'origWidth': 410, 'origHeight': 410, 'width': 410, 'height': 410, 'widthPercent': 0.45, 'rescaleHeight': False, 'trialN': 39, 'loaded': True, 'loadedTime': 5862, 'positionName': 'LEFT', 'positionCoords': [245.68, 179], 'bid': 5.95}, {'imgObject': {}, 'id': 'ice cream sundae 002', 'src': '/static/foodstim60/ice cream sundae 002.jpg', 'key': 'i', 'origWidth': 409, 'origHeight': 409, 'width': 409, 'height': 409, 'widthPercent': 0.45, 'rescaleHeight': False, 'trialN': 39, 'loaded': True, 'loadedTime': 5779, 'positionName': 'RIGHT', 'positionCoords': [710.32, 179.5], 'bid': 5.87}]",63952,1669829312133,mac & cheese,ice cream sundae 002,5.95,5.87,-0.08000000000000007,mac & cheese,814,827,828,True,u,65287,1335,1669829313466,1333,HRV,HRV_0026,2022-11-30 17:32:11
40,"[{'imgObject': {}, 'id': 'turkeysandwich', 'src': '/static/foodstim60/turkeysandwich.jpg', 'key': 'u', 'origWidth': 409, 'origHeight': 409, 'width': 409, 'height': 409, 'widthPercent': 0.45, 'rescaleHeight': False, 'trialN': 40, 'loaded': True, 'loadedTime': 5707, 'positionName': 'LEFT', 'positionCoords': [246.68, 179.5], 'bid': 5.55}, {'imgObject': {}, 'id': 'yogurt no spoon', 'src': '/static/foodstim60/yogurt no spoon.jpg', 'key': 'i', 'origWidth': 411, 'origHeight': 410, 'width': 411, 'height': 410, 'widthPercent': 0.45, 'rescaleHeight': False, 'trialN': 40, 'loaded': True, 'loadedTime': 5865, 'positionName': 'RIGHT', 'positionCoords': [710.32, 179], 'bid': 6.09}]",65287,1669829313467,turkeysandwich,yogurt no spoon,5.55,6.09,0.54,turkeysandwich,1057,1088,1088,True,u,66889,1602,1669829315069,1602,HRV,HRV_0026,2022-11-30 17:32:11
41,"[{'imgObject': {}, 'id': 'luckycharms', 'src': '/static/foodstim60/luckycharms.jpg', 'key': 'u', 'origWidth': 410, 'origHeight': 409, 'width': 410, 'height': 409, 'widthPercent': 0.45, 'rescaleHeight': False, 'trialN': 41, 'loaded': True, 'loadedTime': 5803, 'positionName': 'LEFT', 'positionCoords': [245.68, 179.5], 'bid': 3.94}, {'imgObject': {}, 'id': 'turkey sandwich', 'src': '/static/foodstim60/turkey sandwich.jpg', 'key': 'i', 'origWidth': 409, 'origHeight': 409, 'width': 409, 'height': 409, 'widthPercent': 0.45, 'rescaleHeight': False, 'trialN': 41, 'loaded': True, 'loadedTime': 5536, 'positionName': 'RIGHT', 'positionCoords': [710.32, 179.5], 'bid': 6.25}]",66890,1669829315070,luckycharms,turkey sandwich,3.94,6.25,2.31,turkey sandwich,907,921,921,True,i,68322,1432,1669829316502,1432,HRV,HRV_0026,2022-11-30 17:32:11
42,"[{'imgObject': {}, 'id': 'orange slices', 'src': '/static/foodstim60/orange slices.jpg', 'key': 'u', 'origWidth': 409, 'origHeight': 410, 'width': 409, 'height': 410, 'widthPercent': 0.45, 'rescaleHeight': False, 'trialN': 42, 'loaded': True, 'loadedTime': 5859, 'positionName': 'LEFT', 'positionCoords': [246.68, 179], 'bid': 1.89}, {'imgObject': {}, 'id': 'cantaloupe', 'src': '/static/foodstim60/cantaloupe.jpg', 'key': 'i', 'origWidth': 409, 'origHeight': 409, 'width': 409, 'height': 409, 'widthPercent': 0.45, 'rescaleHeight': False, 'trialN': 42, 'loaded': True, 'loadedTime': 5852, 'positionName': 'RIGHT', 'positionCoords': [710.32, 179.5], 'bid': 1.53}]",68323,1669829316502,orange slices,cantaloupe,1.89,1.53,-0.3599999999999999,orange slices,1130,1142,1141,True,u,69974,1651,1669829318155,1653,HRV,HRV_0026,2022-11-30 17:32:11
43,"[{'imgObject': {}, 'id': 'Grapes', 'src': '/static/foodstim60/Grapes.jpg', 'key': 'u', 'origWidth': 411, 'origHeight': 411, 'width': 411, 'height': 411, 'widthPercent': 0.45, 'rescaleHeight': False, 'trialN': 43, 'loaded': True, 'loadedTime': 5711, 'positionName': 'LEFT', 'positionCoords': [244.68, 178.5], 'bid': 2.54}, {'imgObject': {}, 'id': 'orange slices', 'src': '/static/foodstim60/orange slices.jpg', 'key': 'i', 'origWidth': 409, 'origHeight': 410, 'width': 409, 'height': 410, 'widthPercent': 0.45, 'rescaleHeight': False, 'trialN': 43, 'loaded': True, 'loadedTime': 5859, 'positionName': 'RIGHT', 'positionCoords': [710.32, 179], 'bid': 1.89}]",69976,1669829318156,Grapes,orange slices,2.54,1.89,-0.6500000000000001,orange slices,1165,1182,1182,True,i,71661,1685,1669829319841,1685,HRV,HRV_0026,2022-11-30 17:32:11
44,"[{'imgObject': {}, 'id': 'cherry tomato', 'src': '/static/foodstim60/cherry tomato.jpg', 'key': 'u', 'origWidth': 410, 'origHeight': 410, 'width': 410, 'height': 410, 'widthPercent': 0.45, 'rescaleHeight': False, 'trialN': 44, 'loaded': True, 'loadedTime': 5697, 'positionName': 'LEFT', 'positionCoords': [245.68, 179], 'bid': 4.25}, {'imgObject': {}, 'id': 'cheerios', 'src': '/static/foodstim60/cheerios.jpg', 'key': 'i', 'origWidth': 409, 'origHeight': 410, 'width': 409, 'height': 410, 'widthPercent': 0.45, 'rescaleHeight': False, 'trialN': 44, 'loaded': True, 'loadedTime': 5591, 'positionName': 'RIGHT', 'positionCoords': [710.32, 179], 'bid': 4.26}]",71662,1669829319842,cherry tomato,cheerios,4.25,4.26,0.009999999999999787,cherry tomato,854,886,885,True,u,73062,1400,1669829321241,1399,HRV,HRV_0026,2022-11-30 17:32:11
45,"[{'imgObject': {}, 'id': 'salad w chicken', 'src': '/static/foodstim60/salad w chicken.jpg', 'key': 'u', 'origWidth': 411, 'origHeight': 411, 'width': 411, 'height': 411, 'widthPercent': 0.45, 'rescaleHeight': False, 'trialN': 45, 'loaded': True, 'loadedTime': 5867, 'positionName': 'LEFT', 'positionCoords': [244.68, 178.5], 'bid': 6.15}, {'imgObject': {}, 'id': 'salmon', 'src': '/static/foodstim60/salmon.jpg', 'key': 'i', 'origWidth': 410, 'origHeight': 409, 'width': 410, 'height': 409, 'widthPercent': 0.45, 'rescaleHeight': False, 'trialN': 45, 'loaded': True, 'loadedTime': 5829, 'positionName': 'RIGHT', 'positionCoords': [710.32, 179.5], 'bid': 8.36}]",73063,1669829321242,salad w chicken,salmon,6.15,8.36,2.209999999999999,salad w chicken,891,917,915,True,u,74479,1416,1669829322659,1417,HRV,HRV_0026,2022-11-30 17:32:11
46,"[{'imgObject': {}, 'id': 'kiwi', 'src': '/static/foodstim60/kiwi.jpg', 'key': 'u', 'origWidth': 410, 'origHeight': 410, 'width': 410, 'height': 410, 'widthPercent': 0.45, 'rescaleHeight': False, 'trialN': 46, 'loaded': True, 'loadedTime': 5862, 'positionName': 'LEFT', 'positionCoords': [245.68, 179], 'bid': 2.46}, {'imgObject': {}, 'id': 'froot loops w milk', 'src': '/static/foodstim60/froot loops w milk.jpg', 'key': 'i', 'origWidth': 410, 'origHeight': 410, 'width': 410, 'height': 410, 'widthPercent': 0.45, 'rescaleHeight': False, 'trialN': 46, 'loaded': True, 'loadedTime': 5857, 'positionName': 'RIGHT', 'positionCoords': [710.32, 179], 'bid': 4.3100000000000005}]",74480,1669829322659,kiwi,froot loops w milk,2.46,4.3100000000000005,1.8500000000000005,froot loops w milk,864,873,873,True,i,75868,1388,1669829324047,1388,HRV,HRV_0026,2022-11-30 17:32:11
47,"[{'imgObject': {}, 'id': 'roastedpotatoes', 'src': '/static/foodstim60/roastedpotatoes.jpg', 'key': 'u', 'origWidth': 409, 'origHeight': 410, 'width': 409, 'height': 410, 'widthPercent': 0.45, 'rescaleHeight': False, 'trialN': 47, 'loaded': True, 'loadedTime': 5484, 'positionName': 'LEFT', 'positionCoords': [246.68, 179], 'bid': 8.16}, {'imgObject': {}, 'id': 'steak', 'src': '/static/foodstim60/steak.jpg', 'key': 'i', 'origWidth': 410, 'origHeight': 410, 'width': 410, 'height': 410, 'widthPercent': 0.45, 'rescaleHeight': False, 'trialN': 47, 'loaded': True, 'loadedTime': 5878, 'positionName': 'RIGHT', 'positionCoords': [710.32, 179], 'bid': 9.65}]",75868,1669829324048,roastedpotatoes,steak,8.16,9.65,1.4900000000000002,steak,820,839,840,True,i,77216,1348,1669829325396,1348,HRV,HRV_0026,2022-11-30 17:32:11
48,"[{'imgObject': {}, 'id': 'edamame', 'src': '/static/foodstim60/edamame.jpg', 'key': 'u', 'origWidth': 409, 'origHeight': 410, 'width': 409, 'height': 410, 'widthPercent': 0.45, 'rescaleHeight': False, 'trialN': 48, 'loaded': True, 'loadedTime': 5805, 'positionName': 'LEFT', 'positionCoords': [246.68, 179], 'bid': 2.32}, {'imgObject': {}, 'id': 'cheerios', 'src': '/static/foodstim60/cheerios.jpg', 'key': 'i', 'origWidth': 409, 'origHeight': 410, 'width': 409, 'height': 410, 'widthPercent': 0.45, 'rescaleHeight': False, 'trialN': 48, 'loaded': True, 'loadedTime': 5591, 'positionName': 'RIGHT', 'positionCoords': [710.32, 179], 'bid': 4.26}]",77217,1669829325396,edamame,cheerios,2.32,4.26,1.94,edamame,846,865,865,True,u,78587,1370,1669829326766,1370,HRV,HRV_0026,2022-11-30 17:32:11
49,"[{'imgObject': {}, 'id': 'turkeysandwich', 'src': '/static/foodstim60/turkeysandwich.jpg', 'key': 'u', 'origWidth': 409, 'origHeight': 409, 'width': 409, 'height': 409, 'widthPercent': 0.45, 'rescaleHeight': False, 'trialN': 49, 'loaded': True, 'loadedTime': 5708, 'positionName': 'LEFT', 'positionCoords': [246.68, 179.5], 'bid': 5.55}, {'imgObject': {}, 'id': 'burrito', 'src': '/static/foodstim60/burrito.jpg', 'key': 'i', 'origWidth': 410, 'origHeight': 410, 'width': 410, 'height': 410, 'widthPercent': 0.45, 'rescaleHeight': False, 'trialN': 49, 'loaded': True, 'loadedTime': 5777, 'positionName': 'RIGHT', 'positionCoords': [710.32, 179], 'bid': 5.64}]",78587,1669829326766,turkeysandwich,burrito,5.55,5.64,0.08999999999999986,burrito,898,918,916,True,i,80020,1433,1669829328200,1434,HRV,HRV_0026,2022-11-30 17:32:11
50,"[{'imgObject': {}, 'id': 'lox', 'src': '/static/foodstim60/lox.jpg', 'key': 'u', 'origWidth': 410, 'origHeight': 411, 'width': 410, 'height': 411, 'widthPercent': 0.45, 'rescaleHeight': False, 'trialN': 50, 'loaded': True, 'loadedTime': 5808, 'positionName': 'LEFT', 'positionCoords': [245.68, 178.5], 'bid': 7.18}, {'imgObject': {}, 'id': 'mac & cheese', 'src': '/static/foodstim60/mac & cheese.jpg', 'key': 'i', 'origWidth': 410, 'origHeight': 410, 'width': 410, 'height': 410, 'widthPercent': 0.45, 'rescaleHeight': False, 'trialN': 50, 'loaded': True, 'loadedTime': 5865, 'positionName': 'RIGHT', 'positionCoords': [710.32, 179], 'bid': 5.95}]",80020,1669829328201,lox,mac & cheese,7.18,5.95,-1.2299999999999995,lox,887,900,900,True,u,81425,1405,1669829329605,1404,HRV,HRV_0026,2022-11-30 17:32:11
51,"[{'imgObject': {}, 'id': 'strawberries', 'src': '/static/foodstim60/strawberries.jpg', 'key': 'u', 'origWidth': 410, 'origHeight': 410, 'width': 410, 'height': 410, 'widthPercent': 0.45, 'rescaleHeight': False, 'trialN': 51, 'loaded': True, 'loadedTime': 5700, 'positionName': 'LEFT', 'positionCoords': [245.68, 179], 'bid': 6.69}, {'imgObject': {}, 'id': 'omelette', 'src': '/static/foodstim60/omelette.jpg', 'key': 'i', 'origWidth': 410, 'origHeight': 409, 'width': 410, 'height': 409, 'widthPercent': 0.45, 'rescaleHeight': False, 'trialN': 51, 'loaded': True, 'loadedTime': 5693, 'positionName': 'RIGHT', 'positionCoords': [710.32, 179.5], 'bid': 5.23}]",81426,1669829329605,strawberries,omelette,6.69,5.23,-1.46,strawberries,996,1012,1012,True,u,82941,1515,1669829331121,1516,HRV,HRV_0026,2022-11-30 17:32:11
52,"[{'imgObject': {}, 'id': 'cheerios', 'src': '/static/foodstim60/cheerios.jpg', 'key': 'u', 'origWidth': 409, 'origHeight': 410, 'width': 409, 'height': 410, 'widthPercent': 0.45, 'rescaleHeight': False, 'trialN': 52, 'loaded': True, 'loadedTime': 5591, 'positionName': 'LEFT', 'positionCoords': [246.68, 179], 'bid': 4.26}, {'imgObject': {}, 'id': 'avocado', 'src': '/static/foodstim60/avocado.jpg', 'key': 'i', 'origWidth': 409, 'origHeight': 409, 'width': 409, 'height': 409, 'widthPercent': 0.45, 'rescaleHeight': False, 'trialN': 52, 'loaded': True, 'loadedTime': 5553, 'positionName': 'RIGHT', 'positionCoords': [710.32, 179.5], 'bid': 6.8}]",82941,1669829331121,cheerios,avocado,4.26,6.8,2.54,avocado,872,900,900,True,i,84342,1401,1669829332522,1401,HRV,HRV_0026,2022-11-30 17:32:11
53,"[{'imgObject': {}, 'id': 'raisin bran w milk', 'src': '/static/foodstim60/raisin bran w milk.jpg', 'key': 'u', 'origWidth': 411, 'origHeight': 411, 'width': 411, 'height': 411, 'widthPercent': 0.45, 'rescaleHeight': False, 'trialN': 53, 'loaded': True, 'loadedTime': 5812, 'positionName': 'LEFT', 'positionCoords': [244.68, 178.5], 'bid': 5.05}, {'imgObject': {}, 'id': 'chicken nuggets2', 'src': '/static/foodstim60/chicken nuggets2.jpg', 'key': 'i', 'origWidth': 410, 'origHeight': 409, 'width': 410, 'height': 409, 'widthPercent': 0.45, 'rescaleHeight': False, 'trialN': 53, 'loaded': True, 'loadedTime': 5882, 'positionName': 'RIGHT', 'positionCoords': [710.32, 179.5], 'bid': 5.08}]",84342,1669829332522,raisin bran w milk,chicken nuggets2,5.05,5.08,0.03000000000000025,chicken nuggets2,768,781,782,True,i,85626,1284,1669829333806,1284,HRV,HRV_0026,2022-11-30 17:32:11
54,"[{'imgObject': {}, 'id': 'avocado', 'src': '/static/foodstim60/avocado.jpg', 'key': 'u', 'origWidth': 409, 'origHeight': 409, 'width': 409, 'height': 409, 'widthPercent': 0.45, 'rescaleHeight': False, 'trialN': 54, 'loaded': True, 'loadedTime': 5553, 'positionName': 'LEFT', 'positionCoords': [246.68, 179.5], 'bid': 6.8}, {'imgObject': {}, 'id': 'sushi w_condiments', 'src': '/static/foodstim60/sushi w_condiments.jpg', 'key': 'i', 'origWidth': 410, 'origHeight': 410, 'width': 410, 'height': 410, 'widthPercent': 0.45, 'rescaleHeight': False, 'trialN': 54, 'loaded': True, 'loadedTime': 5454, 'positionName': 'RIGHT', 'positionCoords': [710.32, 179], 'bid': 5.24}]",85627,1669829333806,avocado,sushi w_condiments,6.8,5.24,-1.5599999999999996,sushi w_condiments,1342,1371,1370,True,i,87512,1885,1669829335692,1886,HRV,HRV_0026,2022-11-30 17:32:11
55,"[{'imgObject': {}, 'id': 'edamame', 'src': '/static/foodstim60/edamame.jpg', 'key': 'u', 'origWidth': 409, 'origHeight': 410, 'width': 409, 'height': 410, 'widthPercent': 0.45, 'rescaleHeight': False, 'trialN': 55, 'loaded': True, 'loadedTime': 5805, 'positionName': 'LEFT', 'positionCoords': [246.68, 179], 'bid': 2.32}, {'imgObject': {}, 'id': 'bagel and cc', 'src': '/static/foodstim60/bagel and cc.jpg', 'key': 'i', 'origWidth': 410, 'origHeight': 410, 'width': 410, 'height': 410, 'widthPercent': 0.45, 'rescaleHeight': False, 'trialN': 55, 'loaded': True, 'loadedTime': 5441, 'positionName': 'RIGHT', 'positionCoords': [710.32, 179], 'bid': 4.61}]",87513,1669829335692,edamame,bagel and cc,2.32,4.61,2.2900000000000005,bagel and cc,1299,1311,1309,True,i,89332,1819,1669829337513,1821,HRV,HRV_0026,2022-11-30 17:32:11
56,"[{'imgObject': {}, 'id': 'baked potato', 'src': '/static/foodstim60/baked potato.jpg', 'key': 'u', 'origWidth': 409, 'origHeight': 410, 'width': 409, 'height': 410, 'widthPercent': 0.45, 'rescaleHeight': False, 'trialN': 56, 'loaded': True, 'loadedTime': 5721, 'positionName': 'LEFT', 'positionCoords': [246.68, 179], 'bid': 5.42}, {'imgObject': {}, 'id': 'apple slices', 'src': '/static/foodstim60/apple slices.jpg', 'key': 'i', 'origWidth': 409, 'origHeight': 410, 'width': 409, 'height': 410, 'widthPercent': 0.45, 'rescaleHeight': False, 'trialN': 56, 'loaded': True, 'loadedTime': 5525, 'positionName': 'RIGHT', 'positionCoords': [710.32, 179], 'bid': 1.96}]",89333,1669829337513,baked potato,apple slices,5.42,1.96,-3.46,baked potato,1714,1741,1742,True,u,91589,2256,1669829339769,2256,HRV,HRV_0026,2022-11-30 17:32:11
57,"[{'imgObject': {}, 'id': 'roastedpotatoes', 'src': '/static/foodstim60/roastedpotatoes.jpg', 'key': 'u', 'origWidth': 409, 'origHeight': 410, 'width': 409, 'height': 410, 'widthPercent': 0.45, 'rescaleHeight': False, 'trialN': 57, 'loaded': True, 'loadedTime': 5484, 'positionName': 'LEFT', 'positionCoords': [246.68, 179], 'bid': 8.16}, {'imgObject': {}, 'id': 'chickenfingers', 'src': '/static/foodstim60/chickenfingers.jpg', 'key': 'i', 'origWidth': 410, 'origHeight': 410, 'width': 410, 'height': 410, 'widthPercent': 0.45, 'rescaleHeight': False, 'trialN': 57, 'loaded': True, 'loadedTime': 5818, 'positionName': 'RIGHT', 'positionCoords': [710.32, 179], 'bid': 8.52}]",91589,1669829339769,roastedpotatoes,chickenfingers,8.16,8.52,0.35999999999999943,chickenfingers,1364,1378,1378,True,i,93476,1887,1669829341656,1887,HRV,HRV_0026,2022-11-30 17:32:11
58,"[{'imgObject': {}, 'id': 'cherries', 'src': '/static/foodstim60/cherries.jpg', 'key': 'u', 'origWidth': 410, 'origHeight': 411, 'width': 410, 'height': 411, 'widthPercent': 0.45, 'rescaleHeight': False, 'trialN': 58, 'loaded': True, 'loadedTime': 5703, 'positionName': 'LEFT', 'positionCoords': [245.68, 178.5], 'bid': 7.38}, {'imgObject': {}, 'id': 'Tribe humus pita', 'src': '/static/foodstim60/Tribe humus pita.jpg', 'key': 'i', 'origWidth': 411, 'origHeight': 411, 'width': 411, 'height': 411, 'widthPercent': 0.45, 'rescaleHeight': False, 'trialN': 58, 'loaded': True, 'loadedTime': 5685, 'positionName': 'RIGHT', 'positionCoords': [710.32, 178.5], 'bid': 5.96}]",93476,1669829341656,cherries,Tribe humus pita,7.38,5.96,-1.42,Tribe humus pita,1071,1087,1087,True,i,95077,1601,1669829343257,1601,HRV,HRV_0026,2022-11-30 17:32:11
59,"[{'imgObject': {}, 'id': 'strawberries', 'src': '/static/foodstim60/strawberries.jpg', 'key': 'u', 'origWidth': 410, 'origHeight': 410, 'width': 410, 'height': 410, 'widthPercent': 0.45, 'rescaleHeight': False, 'trialN': 59, 'loaded': True, 'loadedTime': 5701, 'positionName': 'LEFT', 'positionCoords': [245.68, 179], 'bid': 6.69}, {'imgObject': {}, 'id': 'grilled chicken strips', 'src': '/static/foodstim60/grilled chicken strips.jpg', 'key': 'i', 'origWidth': 410, 'origHeight': 411, 'width': 410, 'height': 411, 'widthPercent': 0.45, 'rescaleHeight': False, 'trialN': 59, 'loaded': True, 'loadedTime': 5888, 'positionName': 'RIGHT', 'positionCoords': [710.32, 178.5], 'bid': 8.790000000000001}]",95077,1669829343257,strawberries,grilled chicken strips,6.69,8.790000000000001,2.1000000000000005,grilled chicken strips,830,843,842,True,i,96428,1351,1669829344607,1350,HRV,HRV_0026,2022-11-30 17:32:11
60,"[{'imgObject': {}, 'id': 'strawberries', 'src': '/static/foodstim60/strawberries.jpg', 'key': 'u', 'origWidth': 410, 'origHeight': 410, 'width': 410, 'height': 410, 'widthPercent': 0.45, 'rescaleHeight': False, 'trialN': 60, 'loaded': True, 'loadedTime': 5701, 'positionName': 'LEFT', 'positionCoords': [245.68, 179], 'bid': 6.69}, {'imgObject': {}, 'id': 'salad w chicken', 'src': '/static/foodstim60/salad w chicken.jpg', 'key': 'i', 'origWidth': 411, 'origHeight': 411, 'width': 411, 'height': 411, 'widthPercent': 0.45, 'rescaleHeight': False, 'trialN': 60, 'loaded': True, 'loadedTime': 5877, 'positionName': 'RIGHT', 'positionCoords': [710.32, 178.5], 'bid': 6.15}]",96428,1669829344608,strawberries,salad w chicken,6.69,6.15,-0.54,salad w chicken,994,1014,1014,True,i,97946,1518,1669829346126,1518,HRV,HRV_0026,2022-11-30 17:32:11
61,"[{'imgObject': {}, 'id': 'fried eggs', 'src': '/static/foodstim60/fried eggs.jpg', 'key': 'u', 'origWidth': 410, 'origHeight': 410, 'width': 410, 'height': 410, 'widthPercent': 0.45, 'rescaleHeight': False, 'trialN': 61, 'loaded': True, 'loadedTime': 5846, 'positionName': 'LEFT', 'positionCoords': [245.68, 179], 'bid': 9.46}, {'imgObject': {}, 'id': 'yogurt no spoon', 'src': '/static/foodstim60/yogurt no spoon.jpg', 'key': 'i', 'origWidth': 411, 'origHeight': 410, 'width': 411, 'height': 410, 'widthPercent': 0.45, 'rescaleHeight': False, 'trialN': 61, 'loaded': True, 'loadedTime': 5867, 'positionName': 'RIGHT', 'positionCoords': [710.32, 179], 'bid': 6.09}]",97946,1669829346126,fried eggs,yogurt no spoon,9.46,6.09,-3.370000000000001,fried eggs,773,793,793,True,u,99249,1303,1669829347429,1303,HRV,HRV_0026,2022-11-30 17:32:11
62,"[{'imgObject': {}, 'id': 'sweetpotato', 'src': '/static/foodstim60/sweetpotato.jpg', 'key': 'u', 'origWidth': 410, 'origHeight': 410, 'width': 410, 'height': 410, 'widthPercent': 0.45, 'rescaleHeight': False, 'trialN': 62, 'loaded': True, 'loadedTime': 5854, 'positionName': 'LEFT', 'positionCoords': [245.68, 179], 'bid': 5.26}, {'imgObject': {}, 'id': 'shreddedwheatwithmilk', 'src': '/static/foodstim60/shreddedwheatwithmilk.jpg', 'key': 'i', 'origWidth': 410, 'origHeight': 410, 'width': 410, 'height': 410, 'widthPercent': 0.45, 'rescaleHeight': False, 'trialN': 62, 'loaded': True, 'loadedTime': 5795, 'positionName': 'RIGHT', 'positionCoords': [710.32, 179], 'bid': 5.5200000000000005}]",99249,1669829347429,sweetpotato,shreddedwheatwithmilk,5.26,5.5200000000000005,0.2600000000000007,sweetpotato,986,992,991,True,u,100753,1504,1669829348933,1504,HRV,HRV_0026,2022-11-30 17:32:11
63,"[{'imgObject': {}, 'id': 'eggs', 'src': '/static/foodstim60/eggs.jpg', 'key': 'u', 'origWidth': 409, 'origHeight': 409, 'width': 409, 'height': 409, 'widthPercent': 0.45, 'rescaleHeight': False, 'trialN': 63, 'loaded': True, 'loadedTime': 5473, 'positionName': 'LEFT', 'positionCoords': [246.68, 179.5], 'bid': 2.23}, {'imgObject': {}, 'id': 'blackbeanswithrice', 'src': '/static/foodstim60/blackbeanswithrice.jpg', 'key': 'i', 'origWidth': 410, 'origHeight': 410, 'width': 410, 'height': 410, 'widthPercent': 0.45, 'rescaleHeight': False, 'trialN': 63, 'loaded': True, 'loadedTime': 5814, 'positionName': 'RIGHT', 'positionCoords': [710.32, 179], 'bid': 4.61}]",100754,1669829348933,eggs,blackbeanswithrice,2.23,4.61,2.3800000000000003,blackbeanswithrice,825,846,845,True,i,102110,1356,1669829350289,1356,HRV,HRV_0026,2022-11-30 17:32:11
64,"[{'imgObject': {}, 'id': 'avocado', 'src': '/static/foodstim60/avocado.jpg', 'key': 'u', 'origWidth': 409, 'origHeight': 409, 'width': 409, 'height': 409, 'widthPercent': 0.45, 'rescaleHeight': False, 'trialN': 64, 'loaded': True, 'loadedTime': 5553, 'positionName': 'LEFT', 'positionCoords': [246.68, 179.5], 'bid': 6.8}, {'imgObject': {}, 'id': 'strawberries', 'src': '/static/foodstim60/strawberries.jpg', 'key': 'i', 'origWidth': 410, 'origHeight': 410, 'width': 410, 'height': 410, 'widthPercent': 0.45, 'rescaleHeight': False, 'trialN': 64, 'loaded': True, 'loadedTime': 5701, 'positionName': 'RIGHT', 'positionCoords': [710.32, 179], 'bid': 6.69}]",102111,1669829350290,avocado,strawberries,6.8,6.69,-0.10999999999999943,avocado,889,916,916,True,u,103529,1418,1669829351709,1419,HRV,HRV_0026,2022-11-30 17:32:11
65,"[{'imgObject': {}, 'id': 'cocktailshrimp', 'src': '/static/foodstim60/cocktailshrimp.jpg', 'key': 'u', 'origWidth': 410, 'origHeight': 410, 'width': 410, 'height': 410, 'widthPercent': 0.45, 'rescaleHeight': False, 'trialN': 65, 'loaded': True, 'loadedTime': 5785, 'positionName': 'LEFT', 'positionCoords': [245.68, 179], 'bid': 7.07}, {'imgObject': {}, 'id': 'hashbrowns', 'src': '/static/foodstim60/hashbrowns.jpg', 'key': 'i', 'origWidth': 411, 'origHeight': 410, 'width': 411, 'height': 410, 'widthPercent': 0.45, 'rescaleHeight': False, 'trialN': 65, 'loaded': True, 'loadedTime': 5843, 'positionName': 'RIGHT', 'positionCoords': [710.32, 179], 'bid': 4.53}]",103529,1669829351710,cocktailshrimp,hashbrowns,7.07,4.53,-2.54,cocktailshrimp,971,985,986,True,u,105018,1489,1669829353197,1487,HRV,HRV_0026,2022-11-30 17:32:11
66,"[{'imgObject': {}, 'id': 'hotdog w must', 'src': '/static/foodstim60/hotdog w must.jpg', 'key': 'u', 'origWidth': 409, 'origHeight': 409, 'width': 409, 'height': 409, 'widthPercent': 0.45, 'rescaleHeight': False, 'trialN': 66, 'loaded': True, 'loadedTime': 5790, 'positionName': 'LEFT', 'positionCoords': [246.68, 179.5], 'bid': 2.01}, {'imgObject': {}, 'id': 'hashbrowns', 'src': '/static/foodstim60/hashbrowns.jpg', 'key': 'i', 'origWidth': 411, 'origHeight': 410, 'width': 411, 'height': 410, 'widthPercent': 0.45, 'rescaleHeight': False, 'trialN': 66, 'loaded': True, 'loadedTime': 5843, 'positionName': 'RIGHT', 'positionCoords': [710.32, 179], 'bid': 4.53}]",105018,1669829353197,hotdog w must,hashbrowns,2.01,4.53,2.5200000000000005,hashbrowns,732,751,751,True,i,106281,1263,1669829354462,1265,HRV,HRV_0026,2022-11-30 17:32:11
67,"[{'imgObject': {}, 'id': 'yogurt no spoon', 'src': '/static/foodstim60/yogurt no spoon.jpg', 'key': 'u', 'origWidth': 411, 'origHeight': 410, 'width': 411, 'height': 410, 'widthPercent': 0.45, 'rescaleHeight': False, 'trialN': 67, 'loaded': True, 'loadedTime': 5867, 'positionName': 'LEFT', 'positionCoords': [244.68, 179], 'bid': 6.09}, {'imgObject': {}, 'id': 'mac & cheese', 'src': '/static/foodstim60/mac & cheese.jpg', 'key': 'i', 'origWidth': 410, 'origHeight': 410, 'width': 410, 'height': 410, 'widthPercent': 0.45, 'rescaleHeight': False, 'trialN': 67, 'loaded': True, 'loadedTime': 5865, 'positionName': 'RIGHT', 'positionCoords': [710.32, 179], 'bid': 5.95}]",106282,1669829354463,yogurt no spoon,mac & cheese,6.09,5.95,-0.13999999999999968,mac & cheese,734,744,745,True,i,107537,1255,1669829355717,1254,HRV,HRV_0026,2022-11-30 17:32:11
68,"[{'imgObject': {}, 'id': 'tacos', 'src': '/static/foodstim60/tacos.jpg', 'key': 'u', 'origWidth': 411, 'origHeight': 411, 'width': 411, 'height': 411, 'widthPercent': 0.45, 'rescaleHeight': False, 'trialN': 68, 'loaded': True, 'loadedTime': 5892, 'positionName': 'LEFT', 'positionCoords': [244.68, 178.5], 'bid': 6.93}, {'imgObject': {}, 'id': 'blueberries', 'src': '/static/foodstim60/blueberries.jpg', 'key': 'i', 'origWidth': 411, 'origHeight': 411, 'width': 411, 'height': 411, 'widthPercent': 0.45, 'rescaleHeight': False, 'trialN': 68, 'loaded': True, 'loadedTime': 5895, 'positionName': 'RIGHT', 'positionCoords': [710.32, 178.5], 'bid': 6.8100000000000005}]",107537,1669829355717,tacos,blueberries,6.93,6.8100000000000005,-0.11999999999999922,tacos,979,1003,1003,True,u,109055,1518,1669829357235,1518,HRV,HRV_0026,2022-11-30 17:32:11
69,"[{'imgObject': {}, 'id': 'steak', 'src': '/static/foodstim60/steak.jpg', 'key': 'u', 'origWidth': 410, 'origHeight': 410, 'width': 410, 'height': 410, 'widthPercent': 0.45, 'rescaleHeight': False, 'trialN': 69, 'loaded': True, 'loadedTime': 5882, 'positionName': 'LEFT', 'positionCoords': [245.68, 179], 'bid': 9.65}, {'imgObject': {}, 'id': 'chicken nuggets2', 'src': '/static/foodstim60/chicken nuggets2.jpg', 'key': 'i', 'origWidth': 410, 'origHeight': 409, 'width': 410, 'height': 409, 'widthPercent': 0.45, 'rescaleHeight': False, 'trialN': 69, 'loaded': True, 'loadedTime': 5888, 'positionName': 'RIGHT', 'positionCoords': [710.32, 179.5], 'bid': 5.08}]",109056,1669829357236,steak,chicken nuggets2,9.65,5.08,-4.57,steak,788,812,811,True,u,110374,1318,1669829358554,1318,HRV,HRV_0026,2022-11-30 17:32:11
70,"[{'imgObject': {}, 'id': 'turkey sandwich', 'src': '/static/foodstim60/turkey sandwich.jpg', 'key': 'u', 'origWidth': 409, 'origHeight': 409, 'width': 409, 'height': 409, 'widthPercent': 0.45, 'rescaleHeight': False, 'trialN': 70, 'loaded': True, 'loadedTime': 5536, 'positionName': 'LEFT', 'positionCoords': [246.68, 179.5], 'bid': 6.25}, {'imgObject': {}, 'id': 'salad w chicken', 'src': '/static/foodstim60/salad w chicken.jpg', 'key': 'i', 'origWidth': 411, 'origHeight': 411, 'width': 411, 'height': 411, 'widthPercent': 0.45, 'rescaleHeight': False, 'trialN': 70, 'loaded': True, 'loadedTime': 5878, 'positionName': 'RIGHT', 'positionCoords': [710.32, 178.5], 'bid': 6.15}]",110375,1669829358555,turkey sandwich,salad w chicken,6.25,6.15,-0.09999999999999964,turkey sandwich,907,920,921,True,u,111815,1440,1669829359995,1440,HRV,HRV_0026,2022-11-30 17:32:11
71,"[{'imgObject': {}, 'id': 'salad w chicken', 'src': '/static/foodstim60/salad w chicken.jpg', 'key': 'u', 'origWidth': 411, 'origHeight': 411, 'width': 411, 'height': 411, 'widthPercent': 0.45, 'rescaleHeight': False, 'trialN': 71, 'loaded': True, 'loadedTime': 5878, 'positionName': 'LEFT', 'positionCoords': [244.68, 178.5], 'bid': 6.15}, {'imgObject': {}, 'id': 'burger', 'src': '/static/foodstim60/burger.jpg', 'key': 'i', 'origWidth': 409, 'origHeight': 409, 'width': 409, 'height': 409, 'widthPercent': 0.45, 'rescaleHeight': False, 'trialN': 71, 'loaded': True, 'loadedTime': 5497, 'positionName': 'RIGHT', 'positionCoords': [710.32, 179.5], 'bid': 5.6000000000000005}]",111815,1669829359995,salad w chicken,burger,6.15,5.6000000000000005,-0.5499999999999998,salad w chicken,904,922,922,True,u,113248,1433,1669829361428,1433,HRV,HRV_0026,2022-11-30 17:32:11
72,"[{'imgObject': {}, 'id': 'burrito', 'src': '/static/foodstim60/burrito.jpg', 'key': 'u', 'origWidth': 410, 'origHeight': 410, 'width': 410, 'height': 410, 'widthPercent': 0.45, 'rescaleHeight': False, 'trialN': 72, 'loaded': True, 'loadedTime': 5777, 'positionName': 'LEFT', 'positionCoords': [245.68, 179], 'bid': 5.64}, {'imgObject': {}, 'id': 'turkey sandwich', 'src': '/static/foodstim60/turkey sandwich.jpg', 'key': 'i', 'origWidth': 409, 'origHeight': 409, 'width': 409, 'height': 409, 'widthPercent': 0.45, 'rescaleHeight': False, 'trialN': 72, 'loaded': True, 'loadedTime': 5536, 'positionName': 'RIGHT', 'positionCoords': [710.32, 179.5], 'bid': 6.25}]",113248,1669829361428,burrito,turkey sandwich,5.64,6.25,0.6100000000000003,burrito,1252,1271,1271,True,u,115022,1774,1669829363202,1774,HRV,HRV_0026,2022-11-30 17:32:11
73,"[{'imgObject': {}, 'id': 'avocado', 'src': '/static/foodstim60/avocado.jpg', 'key': 'u', 'origWidth': 409, 'origHeight': 409, 'width': 409, 'height': 409, 'widthPercent': 0.45, 'rescaleHeight': False, 'trialN': 73, 'loaded': True, 'loadedTime': 5569, 'positionName': 'LEFT', 'positionCoords': [246.68, 179.5], 'bid': 6.8}, {'imgObject': {}, 'id': 'mac & cheese', 'src': '/static/foodstim60/mac & cheese.jpg', 'key': 'i', 'origWidth': 410, 'origHeight': 410, 'width': 410, 'height': 410, 'widthPercent': 0.45, 'rescaleHeight': False, 'trialN': 73, 'loaded': True, 'loadedTime': 5865, 'positionName': 'RIGHT', 'positionCoords': [710.32, 179], 'bid': 5.95}]",115023,1669829363203,avocado,mac & cheese,6.8,5.95,-0.8499999999999996,mac & cheese,837,863,864,True,i,116402,1379,1669829364582,1379,HRV,HRV_0026,2022-11-30 17:32:11
74,"[{'imgObject': {}, 'id': 'mac & cheese', 'src': '/static/foodstim60/mac & cheese.jpg', 'key': 'u', 'origWidth': 410, 'origHeight': 410, 'width': 410, 'height': 410, 'widthPercent': 0.45, 'rescaleHeight': False, 'trialN': 74, 'loaded': True, 'loadedTime': 5865, 'positionName': 'LEFT', 'positionCoords': [245.68, 179], 'bid': 5.95}, {'imgObject': {}, 'id': 'pear', 'src': '/static/foodstim60/pear.jpg', 'key': 'i', 'origWidth': 411, 'origHeight': 410, 'width': 411, 'height': 410, 'widthPercent': 0.45, 'rescaleHeight': False, 'trialN': 74, 'loaded': True, 'loadedTime': 5626, 'positionName': 'RIGHT', 'positionCoords': [710.32, 179], 'bid': 2.96}]",116403,1669829364582,mac & cheese,pear,5.95,2.96,-2.99,mac & cheese,769,799,797,True,u,117704,1301,1669829365884,1302,HRV,HRV_0026,2022-11-30 17:32:11
75,"[{'imgObject': {}, 'id': 'chickenfingers', 'src': '/static/foodstim60/chickenfingers.jpg', 'key': 'u', 'origWidth': 410, 'origHeight': 410, 'width': 410, 'height': 410, 'widthPercent': 0.45, 'rescaleHeight': False, 'trialN': 75, 'loaded': True, 'loadedTime': 5818, 'positionName': 'LEFT', 'positionCoords': [245.68, 179], 'bid': 8.52}, {'imgObject': {}, 'id': 'tacos', 'src': '/static/foodstim60/tacos.jpg', 'key': 'i', 'origWidth': 411, 'origHeight': 411, 'width': 411, 'height': 411, 'widthPercent': 0.45, 'rescaleHeight': False, 'trialN': 75, 'loaded': True, 'loadedTime': 5894, 'positionName': 'RIGHT', 'positionCoords': [710.32, 178.5], 'bid': 6.93}]",117705,1669829365884,chickenfingers,tacos,8.52,6.93,-1.5899999999999999,chickenfingers,811,826,825,True,u,119043,1338,1669829367223,1339,HRV,HRV_0026,2022-11-30 17:32:11
76,"[{'imgObject': {}, 'id': 'salmon', 'src': '/static/foodstim60/salmon.jpg', 'key': 'u', 'origWidth': 410, 'origHeight': 409, 'width': 410, 'height': 409, 'widthPercent': 0.45, 'rescaleHeight': False, 'trialN': 76, 'loaded': True, 'loadedTime': 5835, 'positionName': 'LEFT', 'positionCoords': [245.68, 179.5], 'bid': 8.36}, {'imgObject': {}, 'id': 'cherries', 'src': '/static/foodstim60/cherries.jpg', 'key': 'i', 'origWidth': 410, 'origHeight': 411, 'width': 410, 'height': 411, 'widthPercent': 0.45, 'rescaleHeight': False, 'trialN': 76, 'loaded': True, 'loadedTime': 5704, 'positionName': 'RIGHT', 'positionCoords': [710.32, 178.5], 'bid': 7.38}]",119043,1669829367223,salmon,cherries,8.36,7.38,-0.9799999999999995,salmon,926,946,946,True,u,120494,1451,1669829368674,1451,HRV,HRV_0026,2022-11-30 17:32:11
77,"[{'imgObject': {}, 'id': 'raspberries', 'src': '/static/foodstim60/raspberries.jpg', 'key': 'u', 'origWidth': 411, 'origHeight': 411, 'width': 411, 'height': 411, 'widthPercent': 0.45, 'rescaleHeight': False, 'trialN': 77, 'loaded': True, 'loadedTime': 5661, 'positionName': 'LEFT', 'positionCoords': [244.68, 178.5], 'bid': 5.5200000000000005}, {'imgObject': {}, 'id': 'Tribe humus pita', 'src': '/static/foodstim60/Tribe humus pita.jpg', 'key': 'i', 'origWidth': 411, 'origHeight': 411, 'width': 411, 'height': 411, 'widthPercent': 0.45, 'rescaleHeight': False, 'trialN': 77, 'loaded': True, 'loadedTime': 5685, 'positionName': 'RIGHT', 'positionCoords': [710.32, 178.5], 'bid': 5.96}]",120495,1669829368675,raspberries,Tribe humus pita,5.5200000000000005,5.96,0.4399999999999995,Tribe humus pita,943,960,960,True,i,121965,1470,1669829370144,1469,HRV,HRV_0026,2022-11-30 17:32:11
78,"[{'imgObject': {}, 'id': 'popsicles', 'src': '/static/foodstim60/popsicles.jpg', 'key': 'u', 'origWidth': 410, 'origHeight': 410, 'width': 410, 'height': 410, 'widthPercent': 0.45, 'rescaleHeight': False, 'trialN': 78, 'loaded': True, 'loadedTime': 5465, 'positionName': 'LEFT', 'positionCoords': [245.68, 179], 'bid': 0.59}, {'imgObject': {}, 'id': 'eggsalad', 'src': '/static/foodstim60/eggsalad.jpg', 'key': 'i', 'origWidth': 410, 'origHeight': 409, 'width': 410, 'height': 409, 'widthPercent': 0.45, 'rescaleHeight': False, 'trialN': 78, 'loaded': True, 'loadedTime': 5690, 'positionName': 'RIGHT', 'positionCoords': [710.32, 179.5], 'bid': 5.2}]",121965,1669829370145,popsicles,eggsalad,0.59,5.2,4.61,eggsalad,739,752,752,True,i,123235,1270,1669829371416,1271,HRV,HRV_0026,2022-11-30 17:32:11
79,"[{'imgObject': {}, 'id': 'ice cream sundae 002', 'src': '/static/foodstim60/ice cream sundae 002.jpg', 'key': 'u', 'origWidth': 409, 'origHeight': 409, 'width': 409, 'height': 409, 'widthPercent': 0.45, 'rescaleHeight': False, 'trialN': 79, 'loaded': True, 'loadedTime': 5779, 'positionName': 'LEFT', 'positionCoords': [246.68, 179.5], 'bid': 5.87}, {'imgObject': {}, 'id': 'strawberries', 'src': '/static/foodstim60/strawberries.jpg', 'key': 'i', 'origWidth': 410, 'origHeight': 410, 'width': 410, 'height': 410, 'widthPercent': 0.45, 'rescaleHeight': False, 'trialN': 79, 'loaded': True, 'loadedTime': 5701, 'positionName': 'RIGHT', 'positionCoords': [710.32, 179], 'bid': 6.69}]",123236,1669829371416,ice cream sundae 002,strawberries,5.87,6.69,0.8200000000000003,strawberries,1014,1024,1024,True,i,124769,1533,1669829372949,1533,HRV,HRV_0026,2022-11-30 17:32:11
80,"[{'imgObject': {}, 'id': 'froot loops w milk', 'src': '/static/foodstim60/froot loops w milk.jpg', 'key': 'u', 'origWidth': 410, 'origHeight': 410, 'width': 410, 'height': 410, 'widthPercent': 0.45, 'rescaleHeight': False, 'trialN': 80, 'loaded': True, 'loadedTime': 5857, 'positionName': 'LEFT', 'positionCoords': [245.68, 179], 'bid': 4.3100000000000005}, {'imgObject': {}, 'id': 'mango', 'src': '/static/foodstim60/mango.jpg', 'key': 'i', 'origWidth': 411, 'origHeight': 411, 'width': 411, 'height': 411, 'widthPercent': 0.45, 'rescaleHeight': False, 'trialN': 80, 'loaded': True, 'loadedTime': 5582, 'positionName': 'RIGHT', 'positionCoords': [710.32, 178.5], 'bid': 4.48}]",124769,1669829372949,froot loops w milk,mango,4.3100000000000005,4.48,0.16999999999999993,froot loops w milk,950,971,971,True,u,126242,1473,1669829374422,1473,HRV,HRV_0026,2022-11-30 17:32:11
81,"[{'imgObject': {}, 'id': 'turkeysandwich', 'src': '/static/foodstim60/turkeysandwich.jpg', 'key': 'u', 'origWidth': 409, 'origHeight': 409, 'width': 409, 'height': 409, 'widthPercent': 0.45, 'rescaleHeight': False, 'trialN': 81, 'loaded': True, 'loadedTime': 5708, 'positionName': 'LEFT', 'positionCoords': [246.68, 179.5], 'bid': 5.55}, {'imgObject': {}, 'id': 'edamame', 'src': '/static/foodstim60/edamame.jpg', 'key': 'i', 'origWidth': 409, 'origHeight': 410, 'width': 409, 'height': 410, 'widthPercent': 0.45, 'rescaleHeight': False, 'trialN': 81, 'loaded': True, 'loadedTime': 5805, 'positionName': 'RIGHT', 'positionCoords': [710.32, 179], 'bid': 2.32}]",126243,1669829374422,turkeysandwich,edamame,5.55,2.32,-3.23,turkeysandwich,789,813,812,True,u,127557,1314,1669829375738,1316,HRV,HRV_0026,2022-11-30 17:32:11
82,"[{'imgObject': {}, 'id': 'bagel and cc', 'src': '/static/foodstim60/bagel and cc.jpg', 'key': 'u', 'origWidth': 410, 'origHeight': 410, 'width': 410, 'height': 410, 'widthPercent': 0.45, 'rescaleHeight': False, 'trialN': 82, 'loaded': True, 'loadedTime': 5441, 'positionName': 'LEFT', 'positionCoords': [245.68, 179], 'bid': 4.61}, {'imgObject': {}, 'id': 'cherries', 'src': '/static/foodstim60/cherries.jpg', 'key': 'i', 'origWidth': 410, 'origHeight': 411, 'width': 410, 'height': 411, 'widthPercent': 0.45, 'rescaleHeight': False, 'trialN': 82, 'loaded': True, 'loadedTime': 5704, 'positionName': 'RIGHT', 'positionCoords': [710.32, 178.5], 'bid': 7.38}]",127558,1669829375738,bagel and cc,cherries,4.61,7.38,2.7699999999999996,bagel and cc,864,879,880,True,u,128942,1384,1669829377122,1384,HRV,HRV_0026,2022-11-30 17:32:11
83,"[{'imgObject': {}, 'id': 'blackbeanswithrice', 'src': '/static/foodstim60/blackbeanswithrice.jpg', 'key': 'u', 'origWidth': 410, 'origHeight': 410, 'width': 410, 'height': 410, 'widthPercent': 0.45, 'rescaleHeight': False, 'trialN': 83, 'loaded': True, 'loadedTime': 5814, 'positionName': 'LEFT', 'positionCoords': [245.68, 179], 'bid': 4.61}, {'imgObject': {}, 'id': 'hashbrowns', 'src': '/static/foodstim60/hashbrowns.jpg', 'key': 'i', 'origWidth': 411, 'origHeight': 410, 'width': 411, 'height': 410, 'widthPercent': 0.45, 'rescaleHeight': False, 'trialN': 83, 'loaded': True, 'loadedTime': 5844, 'positionName': 'RIGHT', 'positionCoords': [710.32, 179], 'bid': 4.53}]",128943,1669829377122,blackbeanswithrice,hashbrowns,4.61,4.53,-0.08000000000000007,blackbeanswithrice,1104,1127,1126,True,u,130575,1632,1669829378755,1633,HRV,HRV_0026,2022-11-30 17:32:11
84,"[{'imgObject': {}, 'id': 'fruitsalad', 'src': '/static/foodstim60/fruitsalad.jpg', 'key': 'u', 'origWidth': 410, 'origHeight': 410, 'width': 410, 'height': 410, 'widthPercent': 0.45, 'rescaleHeight': False, 'trialN': 84, 'loaded': True, 'loadedTime': 5621, 'positionName': 'LEFT', 'positionCoords': [245.68, 179], 'bid': 2.77}, {'imgObject': {}, 'id': 'kiwi', 'src': '/static/foodstim60/kiwi.jpg', 'key': 'i', 'origWidth': 410, 'origHeight': 410, 'width': 410, 'height': 410, 'widthPercent': 0.45, 'rescaleHeight': False, 'trialN': 84, 'loaded': True, 'loadedTime': 5862, 'positionName': 'RIGHT', 'positionCoords': [710.32, 179], 'bid': 2.46}]",130575,1669829378755,fruitsalad,kiwi,2.77,2.46,-0.31000000000000005,kiwi,847,863,863,True,i,131944,1369,1669829380124,1369,HRV,HRV_0026,2022-11-30 17:32:11
85,"[{'imgObject': {}, 'id': 'cantaloupe', 'src': '/static/foodstim60/cantaloupe.jpg', 'key': 'u', 'origWidth': 409, 'origHeight': 409, 'width': 409, 'height': 409, 'widthPercent': 0.45, 'rescaleHeight': False, 'trialN': 85, 'loaded': True, 'loadedTime': 5852, 'positionName': 'LEFT', 'positionCoords': [246.68, 179.5], 'bid': 1.53}, {'imgObject': {}, 'id': 'kiwi', 'src': '/static/foodstim60/kiwi.jpg', 'key': 'i', 'origWidth': 410, 'origHeight': 410, 'width': 410, 'height': 410, 'widthPercent': 0.45, 'rescaleHeight': False, 'trialN': 85, 'loaded': True, 'loadedTime': 5862, 'positionName': 'RIGHT', 'positionCoords': [710.32, 179], 'bid': 2.46}]",131944,1669829380124,cantaloupe,kiwi,1.53,2.46,0.9299999999999999,kiwi,1041,1061,1062,True,i,133522,1578,1669829381702,1578,HRV,HRV_0026,2022-11-30 17:32:11
86,"[{'imgObject': {}, 'id': 'cantaloupe', 'src': '/static/foodstim60/cantaloupe.jpg', 'key': 'u', 'origWidth': 409, 'origHeight': 409, 'width': 409, 'height': 409, 'widthPercent': 0.45, 'rescaleHeight': False, 'trialN': 86, 'loaded': True, 'loadedTime': 5852, 'positionName': 'LEFT', 'positionCoords': [246.68, 179.5], 'bid': 1.53}, {'imgObject': {}, 'id': 'popsicles', 'src': '/static/foodstim60/popsicles.jpg', 'key': 'i', 'origWidth': 410, 'origHeight': 410, 'width': 410, 'height': 410, 'widthPercent': 0.45, 'rescaleHeight': False, 'trialN': 86, 'loaded': True, 'loadedTime': 5465, 'positionName': 'RIGHT', 'positionCoords': [710.32, 179], 'bid': 0.59}]",133522,1669829381702,cantaloupe,popsicles,1.53,0.59,-0.9400000000000001,cantaloupe,775,798,798,True,u,134823,1301,1669829383003,1301,HRV,HRV_0026,2022-11-30 17:32:11
87,"[{'imgObject': {}, 'id': 'popsicles', 'src': '/static/foodstim60/popsicles.jpg', 'key': 'u', 'origWidth': 410, 'origHeight': 410, 'width': 410, 'height': 410, 'widthPercent': 0.45, 'rescaleHeight': False, 'trialN': 87, 'loaded': True, 'loadedTime': 5465, 'positionName': 'LEFT', 'positionCoords': [245.68, 179], 'bid': 0.59}, {'imgObject': {}, 'id': 'fruitsalad', 'src': '/static/foodstim60/fruitsalad.jpg', 'key': 'i', 'origWidth': 410, 'origHeight': 410, 'width': 410, 'height': 410, 'widthPercent': 0.45, 'rescaleHeight': False, 'trialN': 87, 'loaded': True, 'loadedTime': 5621, 'positionName': 'RIGHT', 'positionCoords': [710.32, 179], 'bid': 2.77}]",134824,1669829383004,popsicles,fruitsalad,0.59,2.77,2.18,fruitsalad,770,797,797,True,i,136124,1300,1669829384304,1300,HRV,HRV_0026,2022-11-30 17:32:11
88,"[{'imgObject': {}, 'id': 'rigatoni', 'src': '/static/foodstim60/rigatoni.jpg', 'key': 'u', 'origWidth': 411, 'origHeight': 411, 'width': 411, 'height': 411, 'widthPercent': 0.45, 'rescaleHeight': False, 'trialN': 88, 'loaded': True, 'loadedTime': 5512, 'positionName': 'LEFT', 'positionCoords': [244.68, 178.5], 'bid': 3.43}, {'imgObject': {}, 'id': 'hashbrowns', 'src': '/static/foodstim60/hashbrowns.jpg', 'key': 'i', 'origWidth': 411, 'origHeight': 410, 'width': 411, 'height': 410, 'widthPercent': 0.45, 'rescaleHeight': False, 'trialN': 88, 'loaded': True, 'loadedTime': 5844, 'positionName': 'RIGHT', 'positionCoords': [710.32, 179], 'bid': 4.53}]",136125,1669829384304,rigatoni,hashbrowns,3.43,4.53,1.1,rigatoni,922,927,926,True,u,137566,1441,1669829385746,1442,HRV,HRV_0026,2022-11-30 17:32:11
89,"[{'imgObject': {}, 'id': 'corn cob', 'src': '/static/foodstim60/corn cob.jpg', 'key': 'u', 'origWidth': 411, 'origHeight': 411, 'width': 411, 'height': 411, 'widthPercent': 0.45, 'rescaleHeight': False, 'trialN': 89, 'loaded': True, 'loadedTime': 5673, 'positionName': 'LEFT', 'positionCoords': [244.68, 178.5], 'bid': 3.22}, {'imgObject': {}, 'id': 'froot loops w milk', 'src': '/static/foodstim60/froot loops w milk.jpg', 'key': 'i', 'origWidth': 410, 'origHeight': 410, 'width': 410, 'height': 410, 'widthPercent': 0.45, 'rescaleHeight': False, 'trialN': 89, 'loaded': True, 'loadedTime': 5857, 'positionName': 'RIGHT', 'positionCoords': [710.32, 179], 'bid': 4.3100000000000005}]",137567,1669829385746,corn cob,froot loops w milk,3.22,4.3100000000000005,1.0900000000000003,froot loops w milk,855,867,866,True,i,138953,1386,1669829387133,1387,HRV,HRV_0026,2022-11-30 17:32:11
90,"[{'imgObject': {}, 'id': 'mashed potato', 'src': '/static/foodstim60/mashed potato.jpg', 'key': 'u', 'origWidth': 409, 'origHeight': 409, 'width': 409, 'height': 409, 'widthPercent': 0.45, 'rescaleHeight': False, 'trialN': 90, 'loaded': True, 'loadedTime': 5737, 'positionName': 'LEFT', 'positionCoords': [246.68, 179.5], 'bid': 4.67}, {'imgObject': {}, 'id': 'sweetpotato', 'src': '/static/foodstim60/sweetpotato.jpg', 'key': 'i', 'origWidth': 410, 'origHeight': 410, 'width': 410, 'height': 410, 'widthPercent': 0.45, 'rescaleHeight': False, 'trialN': 90, 'loaded': True, 'loadedTime': 5854, 'positionName': 'RIGHT', 'positionCoords': [710.32, 179], 'bid': 5.26}]",141873,1669829390053,mashed potato,sweetpotato,4.67,5.26,0.5899999999999999,sweetpotato,1206,1227,1227,True,i,143607,1734,1669829391787,1734,HRV,HRV_0026,2022-11-30 17:32:11
91,"[{'imgObject': {}, 'id': 'granola w milk', 'src': '/static/foodstim60/granola w milk.jpg', 'key': 'u', 'origWidth': 410, 'origHeight': 410, 'width': 410, 'height': 410, 'widthPercent': 0.45, 'rescaleHeight': False, 'trialN': 91, 'loaded': True, 'loadedTime': 5896, 'positionName': 'LEFT', 'positionCoords': [245.68, 179], 'bid': 4.8500000000000005}, {'imgObject': {}, 'id': 'bagel plain', 'src': '/static/foodstim60/bagel plain.jpg', 'key': 'i', 'origWidth': 410, 'origHeight': 410, 'width': 410, 'height': 410, 'widthPercent': 0.45, 'rescaleHeight': False, 'trialN': 91, 'loaded': True, 'loadedTime': 5596, 'positionName': 'RIGHT', 'positionCoords': [710.32, 179], 'bid': 4.86}]",143607,1669829391787,granola w milk,bagel plain,4.8500000000000005,4.86,0.009999999999999787,bagel plain,784,796,796,True,i,144910,1303,1669829393090,1303,HRV,HRV_0026,2022-11-30 17:32:11
92,"[{'imgObject': {}, 'id': 'veggieswithdip', 'src': '/static/foodstim60/veggieswithdip.jpg', 'key': 'u', 'origWidth': 409, 'origHeight': 409, 'width': 409, 'height': 409, 'widthPercent': 0.45, 'rescaleHeight': False, 'trialN': 92, 'loaded': True, 'loadedTime': 5904, 'positionName': 'LEFT', 'positionCoords': [246.68, 179.5], 'bid': 9.34}, {'imgObject': {}, 'id': 'lox', 'src': '/static/foodstim60/lox.jpg', 'key': 'i', 'origWidth': 410, 'origHeight': 411, 'width': 410, 'height': 411, 'widthPercent': 0.45, 'rescaleHeight': False, 'trialN': 92, 'loaded': True, 'loadedTime': 5808, 'positionName': 'RIGHT', 'positionCoords': [710.32, 178.5], 'bid': 7.18}]",144910,1669829393090,veggieswithdip,lox,9.34,7.18,-2.16,veggieswithdip,747,760,759,True,u,146181,1271,1669829394361,1271,HRV,HRV_0026,2022-11-30 17:32:11
93,"[{'imgObject': {}, 'id': 'mac & cheese', 'src': '/static/foodstim60/mac & cheese.jpg', 'key': 'u', 'origWidth': 410, 'origHeight': 410, 'width': 410, 'height': 410, 'widthPercent': 0.45, 'rescaleHeight': False, 'trialN': 93, 'loaded': True, 'loadedTime': 5865, 'positionName': 'LEFT', 'positionCoords': [245.68, 179], 'bid': 5.95}, {'imgObject': {}, 'id': 'grilled chicken strips', 'src': '/static/foodstim60/grilled chicken strips.jpg', 'key': 'i', 'origWidth': 410, 'origHeight': 411, 'width': 410, 'height': 411, 'widthPercent': 0.45, 'rescaleHeight': False, 'trialN': 93, 'loaded': True, 'loadedTime': 5892, 'positionName': 'RIGHT', 'positionCoords': [710.32, 178.5], 'bid': 8.790000000000001}]",146182,1669829394362,mac & cheese,grilled chicken strips,5.95,8.790000000000001,2.8400000000000007,grilled chicken strips,1068,1077,1077,True,i,147769,1587,1669829395949,1587,HRV,HRV_0026,2022-11-30 17:32:11
94,"[{'imgObject': {}, 'id': 'fried eggs', 'src': '/static/foodstim60/fried eggs.jpg', 'key': 'u', 'origWidth': 410, 'origHeight': 410, 'width': 410, 'height': 410, 'widthPercent': 0.45, 'rescaleHeight': False, 'trialN': 94, 'loaded': True, 'loadedTime': 5846, 'positionName': 'LEFT', 'positionCoords': [245.68, 179], 'bid': 9.46}, {'imgObject': {}, 'id': 'cherries', 'src': '/static/foodstim60/cherries.jpg', 'key': 'i', 'origWidth': 410, 'origHeight': 411, 'width': 410, 'height': 411, 'widthPercent': 0.45, 'rescaleHeight': False, 'trialN': 94, 'loaded': True, 'loadedTime': 5704, 'positionName': 'RIGHT', 'positionCoords': [710.32, 178.5], 'bid': 7.38}]",147769,1669829395949,fried eggs,cherries,9.46,7.38,-2.080000000000001,fried eggs,763,775,775,True,u,149050,1281,1669829397231,1282,HRV,HRV_0026,2022-11-30 17:32:11
95,"[{'imgObject': {}, 'id': 'lox', 'src': '/static/foodstim60/lox.jpg', 'key': 'u', 'origWidth': 410, 'origHeight': 411, 'width': 410, 'height': 411, 'widthPercent': 0.45, 'rescaleHeight': False, 'trialN': 95, 'loaded': True, 'loadedTime': 5808, 'positionName': 'LEFT', 'positionCoords': [245.68, 178.5], 'bid': 7.18}, {'imgObject': {}, 'id': 'tacos', 'src': '/static/foodstim60/tacos.jpg', 'key': 'i', 'origWidth': 411, 'origHeight': 411, 'width': 411, 'height': 411, 'widthPercent': 0.45, 'rescaleHeight': False, 'trialN': 95, 'loaded': True, 'loadedTime': 5895, 'positionName': 'RIGHT', 'positionCoords': [710.32, 178.5], 'bid': 6.93}]",149051,1669829397231,lox,tacos,7.18,6.93,-0.25,lox,1293,1323,1323,True,u,150889,1838,1669829399069,1838,HRV,HRV_0026,2022-11-30 17:32:11
96,"[{'imgObject': {}, 'id': 'turkeysandwich', 'src': '/static/foodstim60/turkeysandwich.jpg', 'key': 'u', 'origWidth': 409, 'origHeight': 409, 'width': 409, 'height': 409, 'widthPercent': 0.45, 'rescaleHeight': False, 'trialN': 96, 'loaded': True, 'loadedTime': 5708, 'positionName': 'LEFT', 'positionCoords': [246.68, 179.5], 'bid': 5.55}, {'imgObject': {}, 'id': 'raspberries', 'src': '/static/foodstim60/raspberries.jpg', 'key': 'i', 'origWidth': 411, 'origHeight': 411, 'width': 411, 'height': 411, 'widthPercent': 0.45, 'rescaleHeight': False, 'trialN': 96, 'loaded': True, 'loadedTime': 5661, 'positionName': 'RIGHT', 'positionCoords': [710.32, 178.5], 'bid': 5.5200000000000005}]",150890,1669829399070,turkeysandwich,raspberries,5.55,5.5200000000000005,-0.02999999999999936,turkeysandwich,735,758,759,True,u,152157,1267,1669829400336,1266,HRV,HRV_0026,2022-11-30 17:32:11
97,"[{'imgObject': {}, 'id': 'kiwi', 'src': '/static/foodstim60/kiwi.jpg', 'key': 'u', 'origWidth': 410, 'origHeight': 410, 'width': 410, 'height': 410, 'widthPercent': 0.45, 'rescaleHeight': False, 'trialN': 97, 'loaded': True, 'loadedTime': 5862, 'positionName': 'LEFT', 'positionCoords': [245.68, 179], 'bid': 2.46}, {'imgObject': {}, 'id': 'burger', 'src': '/static/foodstim60/burger.jpg', 'key': 'i', 'origWidth': 409, 'origHeight': 409, 'width': 409, 'height': 409, 'widthPercent': 0.45, 'rescaleHeight': False, 'trialN': 97, 'loaded': True, 'loadedTime': 5497, 'positionName': 'RIGHT', 'positionCoords': [710.32, 179.5], 'bid': 5.6000000000000005}]",152157,1669829400336,kiwi,burger,2.46,5.6000000000000005,3.1400000000000006,burger,640,657,657,True,i,153323,1166,1669829401503,1167,HRV,HRV_0026,2022-11-30 17:32:11
98,"[{'imgObject': {}, 'id': 'corn cob', 'src': '/static/foodstim60/corn cob.jpg', 'key': 'u', 'origWidth': 411, 'origHeight': 411, 'width': 411, 'height': 411, 'widthPercent': 0.45, 'rescaleHeight': False, 'trialN': 98, 'loaded': True, 'loadedTime': 5675, 'positionName': 'LEFT', 'positionCoords': [244.68, 178.5], 'bid': 3.22}, {'imgObject': {}, 'id': 'cantaloupe', 'src': '/static/foodstim60/cantaloupe.jpg', 'key': 'i', 'origWidth': 409, 'origHeight': 409, 'width': 409, 'height': 409, 'widthPercent': 0.45, 'rescaleHeight': False, 'trialN': 98, 'loaded': True, 'loadedTime': 5852, 'positionName': 'RIGHT', 'positionCoords': [710.32, 179.5], 'bid': 1.53}]",153323,1669829401503,corn cob,cantaloupe,3.22,1.53,-1.6900000000000002,cantaloupe,1052,1058,1058,True,i,154895,1572,1669829403074,1571,HRV,HRV_0026,2022-11-30 17:32:11
99,"[{'imgObject': {}, 'id': 'cantaloupe', 'src': '/static/foodstim60/cantaloupe.jpg', 'key': 'u', 'origWidth': 409, 'origHeight': 409, 'width': 409, 'height': 409, 'widthPercent': 0.45, 'rescaleHeight': False, 'trialN': 99, 'loaded': True, 'loadedTime': 5852, 'positionName': 'LEFT', 'positionCoords': [246.68, 179.5], 'bid': 1.53}, {'imgObject': {}, 'id': 'cheerios', 'src': '/static/foodstim60/cheerios.jpg', 'key': 'i', 'origWidth': 409, 'origHeight': 410, 'width': 409, 'height': 410, 'widthPercent': 0.45, 'rescaleHeight': False, 'trialN': 99, 'loaded': True, 'loadedTime': 5591, 'positionName': 'RIGHT', 'positionCoords': [710.32, 179], 'bid': 4.26}]",154895,1669829403074,cantaloupe,cheerios,1.53,4.26,2.7299999999999995,cheerios,1059,1082,1081,True,i,156483,1588,1669829404662,1588,HRV,HRV_0026,2022-11-30 17:32:11
100,"[{'imgObject': {}, 'id': 'rigatoni and sauce', 'src': '/static/foodstim60/rigatoni and sauce.jpg', 'key': 'u', 'origWidth': 410, 'origHeight': 411, 'width': 410, 'height': 411, 'widthPercent': 0.45, 'rescaleHeight': False, 'trialN': 100, 'loaded': True, 'loadedTime': 5647, 'positionName': 'LEFT', 'positionCoords': [245.68, 178.5], 'bid': 4.91}, {'imgObject': {}, 'id': 'seaweed', 'src': '/static/foodstim60/seaweed.jpg', 'key': 'i', 'origWidth': 410, 'origHeight': 410, 'width': 410, 'height': 410, 'widthPercent': 0.45, 'rescaleHeight': False, 'trialN': 100, 'loaded': True, 'loadedTime': 5908, 'positionName': 'RIGHT', 'positionCoords': [710.32, 179], 'bid': 5.0200000000000005}]",156483,1669829404663,rigatoni and sauce,seaweed,4.91,5.0200000000000005,0.11000000000000032,rigatoni and sauce,986,1008,1009,True,u,158001,1518,1669829406181,1518,HRV,HRV_0026,2022-11-30 17:32:11
101,"[{'imgObject': {}, 'id': 'Grapes', 'src': '/static/foodstim60/Grapes.jpg', 'key': 'u', 'origWidth': 411, 'origHeight': 411, 'width': 411, 'height': 411, 'widthPercent': 0.45, 'rescaleHeight': False, 'trialN': 101, 'loaded': True, 'loadedTime': 5711, 'positionName': 'LEFT', 'positionCoords': [244.68, 178.5], 'bid': 2.54}, {'imgObject': {}, 'id': 'pear', 'src': '/static/foodstim60/pear.jpg', 'key': 'i', 'origWidth': 411, 'origHeight': 410, 'width': 411, 'height': 410, 'widthPercent': 0.45, 'rescaleHeight': False, 'trialN': 101, 'loaded': True, 'loadedTime': 5626, 'positionName': 'RIGHT', 'positionCoords': [710.32, 179], 'bid': 2.96}]",158001,1669829406181,Grapes,pear,2.54,2.96,0.41999999999999993,Grapes,1124,1138,1138,True,u,159652,1651,1669829407833,1652,HRV,HRV_0026,2022-11-30 17:32:11
102,"[{'imgObject': {}, 'id': 'seaweed', 'src': '/static/foodstim60/seaweed.jpg', 'key': 'u', 'origWidth': 410, 'origHeight': 410, 'width': 410, 'height': 410, 'widthPercent': 0.45, 'rescaleHeight': False, 'trialN': 102, 'loaded': True, 'loadedTime': 5912, 'positionName': 'LEFT', 'positionCoords': [245.68, 179], 'bid': 5.0200000000000005}, {'imgObject': {}, 'id': 'bagel plain', 'src': '/static/foodstim60/bagel plain.jpg', 'key': 'i', 'origWidth': 410, 'origHeight': 410, 'width': 410, 'height': 410, 'widthPercent': 0.45, 'rescaleHeight': False, 'trialN': 102, 'loaded': True, 'loadedTime': 5596, 'positionName': 'RIGHT', 'positionCoords': [710.32, 179], 'bid': 4.86}]",159652,1669829407833,seaweed,bagel plain,5.0200000000000005,4.86,-0.16000000000000014,seaweed,802,811,812,True,u,160971,1319,1669829409151,1318,HRV,HRV_0026,2022-11-30 17:32:11
103,"[{'imgObject': {}, 'id': 'baked potato', 'src': '/static/foodstim60/baked potato.jpg', 'key': 'u', 'origWidth': 409, 'origHeight': 410, 'width': 409, 'height': 410, 'widthPercent': 0.45, 'rescaleHeight': False, 'trialN': 103, 'loaded': True, 'loadedTime': 5721, 'positionName': 'LEFT', 'positionCoords': [246.68, 179], 'bid': 5.42}, {'imgObject': {}, 'id': 'raisin bran w milk', 'src': '/static/foodstim60/raisin bran w milk.jpg', 'key': 'i', 'origWidth': 411, 'origHeight': 411, 'width': 411, 'height': 411, 'widthPercent': 0.45, 'rescaleHeight': False, 'trialN': 103, 'loaded': True, 'loadedTime': 5812, 'positionName': 'RIGHT', 'positionCoords': [710.32, 178.5], 'bid': 5.05}]",160972,1669829409151,baked potato,raisin bran w milk,5.42,5.05,-0.3700000000000001,baked potato,794,814,814,True,u,162294,1322,1669829410474,1323,HRV,HRV_0026,2022-11-30 17:32:11
104,"[{'imgObject': {}, 'id': 'grilled chicken strips', 'src': '/static/foodstim60/grilled chicken strips.jpg', 'key': 'u', 'origWidth': 410, 'origHeight': 411, 'width': 410, 'height': 411, 'widthPercent': 0.45, 'rescaleHeight': False, 'trialN': 104, 'loaded': True, 'loadedTime': 5892, 'positionName': 'LEFT', 'positionCoords': [245.68, 178.5], 'bid': 8.790000000000001}, {'imgObject': {}, 'id': 'rigatoni and sauce', 'src': '/static/foodstim60/rigatoni and sauce.jpg', 'key': 'i', 'origWidth': 410, 'origHeight': 411, 'width': 410, 'height': 411, 'widthPercent': 0.45, 'rescaleHeight': False, 'trialN': 104, 'loaded': True, 'loadedTime': 5648, 'positionName': 'RIGHT', 'positionCoords': [710.32, 178.5], 'bid': 4.91}]",162295,1669829410474,grilled chicken strips,rigatoni and sauce,8.790000000000001,4.91,-3.880000000000001,grilled chicken strips,690,712,711,True,u,163511,1216,1669829411691,1217,HRV,HRV_0026,2022-11-30 17:32:11
105,"[{'imgObject': {}, 'id': 'apple slices', 'src': '/static/foodstim60/apple slices.jpg', 'key': 'u', 'origWidth': 409, 'origHeight': 410, 'width': 409, 'height': 410, 'widthPercent': 0.45, 'rescaleHeight': False, 'trialN': 105, 'loaded': True, 'loadedTime': 5527, 'positionName': 'LEFT', 'positionCoords': [246.68, 179], 'bid': 1.96}, {'imgObject': {}, 'id': 'mango', 'src': '/static/foodstim60/mango.jpg', 'key': 'i', 'origWidth': 411, 'origHeight': 411, 'width': 411, 'height': 411, 'widthPercent': 0.45, 'rescaleHeight': False, 'trialN': 105, 'loaded': True, 'loadedTime': 5582, 'positionName': 'RIGHT', 'positionCoords': [710.32, 178.5], 'bid': 4.48}]",163512,1669829411691,apple slices,mango,1.96,4.48,2.5200000000000005,mango,863,872,871,True,i,164897,1385,1669829413077,1386,HRV,HRV_0026,2022-11-30 17:32:11
106,"[{'imgObject': {}, 'id': 'chicken nuggets2', 'src': '/static/foodstim60/chicken nuggets2.jpg', 'key': 'u', 'origWidth': 410, 'origHeight': 409, 'width': 410, 'height': 409, 'widthPercent': 0.45, 'rescaleHeight': False, 'trialN': 106, 'loaded': True, 'loadedTime': 5888, 'positionName': 'LEFT', 'positionCoords': [245.68, 179.5], 'bid': 5.08}, {'imgObject': {}, 'id': 'burrito', 'src': '/static/foodstim60/burrito.jpg', 'key': 'i', 'origWidth': 410, 'origHeight': 410, 'width': 410, 'height': 410, 'widthPercent': 0.45, 'rescaleHeight': False, 'trialN': 106, 'loaded': True, 'loadedTime': 5777, 'positionName': 'RIGHT', 'positionCoords': [710.32, 179], 'bid': 5.64}]",164897,1669829413077,chicken nuggets2,burrito,5.08,5.64,0.5599999999999996,chicken nuggets2,900,906,907,True,u,166316,1419,1669829414495,1418,HRV,HRV_0026,2022-11-30 17:32:11
107,"[{'imgObject': {}, 'id': 'apple slices', 'src': '/static/foodstim60/apple slices.jpg', 'key': 'u', 'origWidth': 409, 'origHeight': 410, 'width': 409, 'height': 410, 'widthPercent': 0.45, 'rescaleHeight': False, 'trialN': 107, 'loaded': True, 'loadedTime': 5527, 'positionName': 'LEFT', 'positionCoords': [246.68, 179], 'bid': 1.96}, {'imgObject': {}, 'id': 'eggs', 'src': '/static/foodstim60/eggs.jpg', 'key': 'i', 'origWidth': 409, 'origHeight': 409, 'width': 409, 'height': 409, 'widthPercent': 0.45, 'rescaleHeight': False, 'trialN': 107, 'loaded': True, 'loadedTime': 5473, 'positionName': 'RIGHT', 'positionCoords': [710.32, 179.5], 'bid': 2.23}]",166316,1669829414496,apple slices,eggs,1.96,2.23,0.27,eggs,872,898,898,True,i,167718,1402,1669829415898,1402,HRV,HRV_0026,2022-11-30 17:32:11
108,"[{'imgObject': {}, 'id': 'raisin bran w milk', 'src': '/static/foodstim60/raisin bran w milk.jpg', 'key': 'u', 'origWidth': 411, 'origHeight': 411, 'width': 411, 'height': 411, 'widthPercent': 0.45, 'rescaleHeight': False, 'trialN': 108, 'loaded': True, 'loadedTime': 5812, 'positionName': 'LEFT', 'positionCoords': [244.68, 178.5], 'bid': 5.05}, {'imgObject': {}, 'id': 'olives', 'src': '/static/foodstim60/olives.jpg', 'key': 'i', 'origWidth': 410, 'origHeight': 410, 'width': 410, 'height': 410, 'widthPercent': 0.45, 'rescaleHeight': False, 'trialN': 108, 'loaded': True, 'loadedTime': 5849, 'positionName': 'RIGHT', 'positionCoords': [710.32, 179], 'bid': 3.37}]",167718,1669829415898,raisin bran w milk,olives,5.05,3.37,-1.6799999999999997,raisin bran w milk,907,921,921,True,u,169152,1434,1669829417332,1434,HRV,HRV_0026,2022-11-30 17:32:11
109,"[{'imgObject': {}, 'id': 'turkeysandwich', 'src': '/static/foodstim60/turkeysandwich.jpg', 'key': 'u', 'origWidth': 409, 'origHeight': 409, 'width': 409, 'height': 409, 'widthPercent': 0.45, 'rescaleHeight': False, 'trialN': 109, 'loaded': True, 'loadedTime': 5708, 'positionName': 'LEFT', 'positionCoords': [246.68, 179.5], 'bid': 5.55}, {'imgObject': {}, 'id': 'seaweed', 'src': '/static/foodstim60/seaweed.jpg', 'key': 'i', 'origWidth': 410, 'origHeight': 410, 'width': 410, 'height': 410, 'widthPercent': 0.45, 'rescaleHeight': False, 'trialN': 109, 'loaded': True, 'loadedTime': 5912, 'positionName': 'RIGHT', 'positionCoords': [710.32, 179], 'bid': 5.0200000000000005}]",169152,1669829417333,turkeysandwich,seaweed,5.55,5.0200000000000005,-0.5299999999999994,turkeysandwich,864,879,880,True,u,170540,1388,1669829418720,1387,HRV,HRV_0026,2022-11-30 17:32:11
110,"[{'imgObject': {}, 'id': 'raspberries', 'src': '/static/foodstim60/raspberries.jpg', 'key': 'u', 'origWidth': 411, 'origHeight': 411, 'width': 411, 'height': 411, 'widthPercent': 0.45, 'rescaleHeight': False, 'trialN': 110, 'loaded': True, 'loadedTime': 5661, 'positionName': 'LEFT', 'positionCoords': [244.68, 178.5], 'bid': 5.5200000000000005}, {'imgObject': {}, 'id': 'lox', 'src': '/static/foodstim60/lox.jpg', 'key': 'i', 'origWidth': 410, 'origHeight': 411, 'width': 410, 'height': 411, 'widthPercent': 0.45, 'rescaleHeight': False, 'trialN': 110, 'loaded': True, 'loadedTime': 5808, 'positionName': 'RIGHT', 'positionCoords': [710.32, 178.5], 'bid': 7.18}]",170541,1669829418721,raspberries,lox,5.5200000000000005,7.18,1.6599999999999993,lox,881,894,894,True,i,171944,1403,1669829420124,1403,HRV,HRV_0026,2022-11-30 17:32:11
111,"[{'imgObject': {}, 'id': 'edamame', 'src': '/static/foodstim60/edamame.jpg', 'key': 'u', 'origWidth': 409, 'origHeight': 410, 'width': 409, 'height': 410, 'widthPercent': 0.45, 'rescaleHeight': False, 'trialN': 111, 'loaded': True, 'loadedTime': 5805, 'positionName': 'LEFT', 'positionCoords': [246.68, 179], 'bid': 2.32}, {'imgObject': {}, 'id': 'banana', 'src': '/static/foodstim60/banana.jpg', 'key': 'i', 'origWidth': 410, 'origHeight': 410, 'width': 410, 'height': 410, 'widthPercent': 0.45, 'rescaleHeight': False, 'trialN': 111, 'loaded': True, 'loadedTime': 5471, 'positionName': 'RIGHT', 'positionCoords': [710.32, 179], 'bid': 1.19}]",171944,1669829420124,edamame,banana,2.32,1.19,-1.13,edamame,791,809,808,True,u,173261,1317,1669829421442,1318,HRV,HRV_0026,2022-11-30 17:32:11
112,"[{'imgObject': {}, 'id': 'cherry tomato', 'src': '/static/foodstim60/cherry tomato.jpg', 'key': 'u', 'origWidth': 410, 'origHeight': 410, 'width': 410, 'height': 410, 'widthPercent': 0.45, 'rescaleHeight': False, 'trialN': 112, 'loaded': True, 'loadedTime': 5697, 'positionName': 'LEFT', 'positionCoords': [245.68, 179], 'bid': 4.25}, {'imgObject': {}, 'id': 'bagel and cc', 'src': '/static/foodstim60/bagel and cc.jpg', 'key': 'i', 'origWidth': 410, 'origHeight': 410, 'width': 410, 'height': 410, 'widthPercent': 0.45, 'rescaleHeight': False, 'trialN': 112, 'loaded': True, 'loadedTime': 5442, 'positionName': 'RIGHT', 'positionCoords': [710.32, 179], 'bid': 4.61}]",173262,1669829421442,cherry tomato,bagel and cc,4.25,4.61,0.3600000000000003,cherry tomato,848,864,865,True,u,174633,1371,1669829422812,1370,HRV,HRV_0026,2022-11-30 17:32:11
113,"[{'imgObject': {}, 'id': 'granola w milk', 'src': '/static/foodstim60/granola w milk.jpg', 'key': 'u', 'origWidth': 410, 'origHeight': 410, 'width': 410, 'height': 410, 'widthPercent': 0.45, 'rescaleHeight': False, 'trialN': 113, 'loaded': True, 'loadedTime': 5903, 'positionName': 'LEFT', 'positionCoords': [245.68, 179], 'bid': 4.8500000000000005}, {'imgObject': {}, 'id': 'rigatoni and sauce', 'src': '/static/foodstim60/rigatoni and sauce.jpg', 'key': 'i', 'origWidth': 410, 'origHeight': 411, 'width': 410, 'height': 411, 'widthPercent': 0.45, 'rescaleHeight': False, 'trialN': 113, 'loaded': True, 'loadedTime': 5648, 'positionName': 'RIGHT', 'positionCoords': [710.32, 178.5], 'bid': 4.91}]",174633,1669829422813,granola w milk,rigatoni and sauce,4.8500000000000005,4.91,0.05999999999999961,rigatoni and sauce,1196,1212,1212,True,i,176354,1721,1669829424534,1721,HRV,HRV_0026,2022-11-30 17:32:11
114,"[{'imgObject': {}, 'id': 'steak', 'src': '/static/foodstim60/steak.jpg', 'key': 'u', 'origWidth': 410, 'origHeight': 410, 'width': 410, 'height': 410, 'widthPercent': 0.45, 'rescaleHeight': False, 'trialN': 114, 'loaded': True, 'loadedTime': 5882, 'positionName': 'LEFT', 'positionCoords': [245.68, 179], 'bid': 9.65}, {'imgObject': {}, 'id': 'tacos', 'src': '/static/foodstim60/tacos.jpg', 'key': 'i', 'origWidth': 411, 'origHeight': 411, 'width': 411, 'height': 411, 'widthPercent': 0.45, 'rescaleHeight': False, 'trialN': 114, 'loaded': True, 'loadedTime': 5895, 'positionName': 'RIGHT', 'positionCoords': [710.32, 178.5], 'bid': 6.93}]",176354,1669829424534,steak,tacos,9.65,6.93,-2.7200000000000006,steak,709,721,721,True,u,177586,1232,1669829425765,1231,HRV,HRV_0026,2022-11-30 17:32:11
115,"[{'imgObject': {}, 'id': 'granola w milk', 'src': '/static/foodstim60/granola w milk.jpg', 'key': 'u', 'origWidth': 410, 'origHeight': 410, 'width': 410, 'height': 410, 'widthPercent': 0.45, 'rescaleHeight': False, 'trialN': 115, 'loaded': True, 'loadedTime': 5903, 'positionName': 'LEFT', 'positionCoords': [245.68, 179], 'bid': 4.8500000000000005}, {'imgObject': {}, 'id': 'salmon', 'src': '/static/foodstim60/salmon.jpg', 'key': 'i', 'origWidth': 410, 'origHeight': 409, 'width': 410, 'height': 409, 'widthPercent': 0.45, 'rescaleHeight': False, 'trialN': 115, 'loaded': True, 'loadedTime': 5835, 'positionName': 'RIGHT', 'positionCoords': [710.32, 179.5], 'bid': 8.36}]",177586,1669829425765,granola w milk,salmon,4.8500000000000005,8.36,3.509999999999999,salmon,977,993,992,True,i,179087,1501,1669829427267,1502,HRV,HRV_0026,2022-11-30 17:32:11
116,"[{'imgObject': {}, 'id': 'Grapes', 'src': '/static/foodstim60/Grapes.jpg', 'key': 'u', 'origWidth': 411, 'origHeight': 411, 'width': 411, 'height': 411, 'widthPercent': 0.45, 'rescaleHeight': False, 'trialN': 116, 'loaded': True, 'loadedTime': 5711, 'positionName': 'LEFT', 'positionCoords': [244.68, 178.5], 'bid': 2.54}, {'imgObject': {}, 'id': 'kiwi', 'src': '/static/foodstim60/kiwi.jpg', 'key': 'i', 'origWidth': 410, 'origHeight': 410, 'width': 410, 'height': 410, 'widthPercent': 0.45, 'rescaleHeight': False, 'trialN': 116, 'loaded': True, 'loadedTime': 5862, 'positionName': 'RIGHT', 'positionCoords': [710.32, 179], 'bid': 2.46}]",179087,1669829427267,Grapes,kiwi,2.54,2.46,-0.08000000000000007,kiwi,1007,1032,1032,True,i,180627,1540,1669829428807,1540,HRV,HRV_0026,2022-11-30 17:32:11
117,"[{'imgObject': {}, 'id': 'corn cob', 'src': '/static/foodstim60/corn cob.jpg', 'key': 'u', 'origWidth': 411, 'origHeight': 411, 'width': 411, 'height': 411, 'widthPercent': 0.45, 'rescaleHeight': False, 'trialN': 117, 'loaded': True, 'loadedTime': 5676, 'positionName': 'LEFT', 'positionCoords': [244.68, 178.5], 'bid': 3.22}, {'imgObject': {}, 'id': 'olives', 'src': '/static/foodstim60/olives.jpg', 'key': 'i', 'origWidth': 410, 'origHeight': 410, 'width': 410, 'height': 410, 'widthPercent': 0.45, 'rescaleHeight': False, 'trialN': 117, 'loaded': True, 'loadedTime': 5849, 'positionName': 'RIGHT', 'positionCoords': [710.32, 179], 'bid': 3.37}]",180627,1669829428807,corn cob,olives,3.22,3.37,0.1499999999999999,olives,858,875,875,True,i,182009,1382,1669829430189,1382,HRV,HRV_0026,2022-11-30 17:32:11
