trialN,stimuli,question,trialStartTime,trialStartTime_UNIX,stimulus1,rt,receivedResponse,rating,trialEndTime,trialDuration,stimulus1Loaded,exp,subjectId,date
0,"[{'imgObject': {}, 'id': 'burrito', 'src': '/static/foodstim60/burrito.jpg', 'key': 'NaN', 'origWidth': 410, 'origHeight': 410, 'width': 410, 'height': 410, 'widthPercent': 0.8, 'rescaleHeight': True, 'trialN': 0, 'loaded': True, 'loadedTime': 2551, 'positionName': 'CENTER', 'positionCoords': [478, 179]}]",Rate how much you want to eat this food from 0 (least) to 10 (most).,2859,1669829086036,burrito,3534,True,5.64,6393,3534,True,HRV,HRV_0026,2022-11-30 17:26:32
1,"[{'imgObject': {}, 'id': 'pear', 'src': '/static/foodstim60/pear.jpg', 'key': 'NaN', 'origWidth': 411, 'origHeight': 410, 'width': 411, 'height': 410, 'widthPercent': 0.8, 'rescaleHeight': True, 'trialN': 1, 'loaded': True, 'loadedTime': 2553, 'positionName': 'CENTER', 'positionCoords': [477.5, 179]}]",Rate how much you want to eat this food from 0 (least) to 10 (most).,6399,1669829089576,pear,1572,True,2.96,7971,1572,True,HRV,HRV_0026,2022-11-30 17:26:32
2,"[{'imgObject': {}, 'id': 'salad w chicken', 'src': '/static/foodstim60/salad w chicken.jpg', 'key': 'NaN', 'origWidth': 411, 'origHeight': 411, 'width': 411, 'height': 411, 'widthPercent': 0.8, 'rescaleHeight': True, 'trialN': 2, 'loaded': True, 'loadedTime': 2561, 'positionName': 'CENTER', 'positionCoords': [477.5, 178.5]}]",Rate how much you want to eat this food from 0 (least) to 10 (most).,8003,1669829091180,salad w chicken,1953,True,6.15,9956,1953,True,HRV,HRV_0026,2022-11-30 17:26:32
3,"[{'imgObject': {}, 'id': 'blackbeanswithrice', 'src': '/static/foodstim60/blackbeanswithrice.jpg', 'key': 'NaN', 'origWidth': 410, 'origHeight': 410, 'width': 410, 'height': 410, 'widthPercent': 0.8, 'rescaleHeight': True, 'trialN': 3, 'loaded': True, 'loadedTime': 2566, 'positionName': 'CENTER', 'positionCoords': [478, 179]}]",Rate how much you want to eat this food from 0 (least) to 10 (most).,9964,1669829093142,blackbeanswithrice,1788,True,4.61,11752,1788,True,HRV,HRV_0026,2022-11-30 17:26:32
4,"[{'imgObject': {}, 'id': 'hashbrowns', 'src': '/static/foodstim60/hashbrowns.jpg', 'key': 'NaN', 'origWidth': 411, 'origHeight': 410, 'width': 411, 'height': 410, 'widthPercent': 0.8, 'rescaleHeight': True, 'trialN': 4, 'loaded': True, 'loadedTime': 2571, 'positionName': 'CENTER', 'positionCoords': [477.5, 179]}]",Rate how much you want to eat this food from 0 (least) to 10 (most).,11774,1669829094952,hashbrowns,1495,True,4.53,13269,1495,True,HRV,HRV_0026,2022-11-30 17:26:32
5,"[{'imgObject': {}, 'id': 'steak', 'src': '/static/foodstim60/steak.jpg', 'key': 'NaN', 'origWidth': 410, 'origHeight': 410, 'width': 410, 'height': 410, 'widthPercent': 0.8, 'rescaleHeight': True, 'trialN': 5, 'loaded': True, 'loadedTime': 2576, 'positionName': 'CENTER', 'positionCoords': [478, 179]}]",Rate how much you want to eat this food from 0 (least) to 10 (most).,13296,1669829096474,steak,1988,True,9.65,15284,1988,True,HRV,HRV_0026,2022-11-30 17:26:32
6,"[{'imgObject': {}, 'id': 'chickenfingers', 'src': '/static/foodstim60/chickenfingers.jpg', 'key': 'NaN', 'origWidth': 410, 'origHeight': 410, 'width': 410, 'height': 410, 'widthPercent': 0.8, 'rescaleHeight': True, 'trialN': 6, 'loaded': True, 'loadedTime': 2584, 'positionName': 'CENTER', 'positionCoords': [478, 179]}]",Rate how much you want to eat this food from 0 (least) to 10 (most).,15309,1669829098486,chickenfingers,2194,True,8.52,17503,2194,True,HRV,HRV_0026,2022-11-30 17:26:32
7,"[{'imgObject': {}, 'id': 'cherries', 'src': '/static/foodstim60/cherries.jpg', 'key': 'NaN', 'origWidth': 410, 'origHeight': 411, 'width': 410, 'height': 411, 'widthPercent': 0.8, 'rescaleHeight': True, 'trialN': 7, 'loaded': True, 'loadedTime': 2591, 'positionName': 'CENTER', 'positionCoords': [478, 178.5]}]",Rate how much you want to eat this food from 0 (least) to 10 (most).,17523,1669829100700,cherries,1449,True,7.38,18972,1449,True,HRV,HRV_0026,2022-11-30 17:26:32
8,"[{'imgObject': {}, 'id': 'cheerios', 'src': '/static/foodstim60/cheerios.jpg', 'key': 'NaN', 'origWidth': 409, 'origHeight': 410, 'width': 409, 'height': 410, 'widthPercent': 0.8, 'rescaleHeight': True, 'trialN': 8, 'loaded': True, 'loadedTime': 2594, 'positionName': 'CENTER', 'positionCoords': [478.5, 179]}]",Rate how much you want to eat this food from 0 (least) to 10 (most).,18995,1669829102173,cheerios,1368,True,4.26,20363,1368,True,HRV,HRV_0026,2022-11-30 17:26:32
9,"[{'imgObject': {}, 'id': 'cocktailshrimp', 'src': '/static/foodstim60/cocktailshrimp.jpg', 'key': 'NaN', 'origWidth': 410, 'origHeight': 410, 'width': 410, 'height': 410, 'widthPercent': 0.8, 'rescaleHeight': True, 'trialN': 9, 'loaded': True, 'loadedTime': 2600, 'positionName': 'CENTER', 'positionCoords': [478, 179]}]",Rate how much you want to eat this food from 0 (least) to 10 (most).,20390,1669829103568,cocktailshrimp,1378,True,7.07,21768,1378,True,HRV,HRV_0026,2022-11-30 17:26:32
10,"[{'imgObject': {}, 'id': 'orange slices', 'src': '/static/foodstim60/orange slices.jpg', 'key': 'NaN', 'origWidth': 409, 'origHeight': 410, 'width': 409, 'height': 410, 'widthPercent': 0.8, 'rescaleHeight': True, 'trialN': 10, 'loaded': True, 'loadedTime': 2605, 'positionName': 'CENTER', 'positionCoords': [478.5, 179]}]",Rate how much you want to eat this food from 0 (least) to 10 (most).,21790,1669829104968,orange slices,1353,True,1.8900000000000001,23143,1353,True,HRV,HRV_0026,2022-11-30 17:26:32
11,"[{'imgObject': {}, 'id': 'grilled chicken strips', 'src': '/static/foodstim60/grilled chicken strips.jpg', 'key': 'NaN', 'origWidth': 410, 'origHeight': 411, 'width': 410, 'height': 411, 'widthPercent': 0.8, 'rescaleHeight': True, 'trialN': 11, 'loaded': True, 'loadedTime': 2611, 'positionName': 'CENTER', 'positionCoords': [478, 178.5]}]",Rate how much you want to eat this food from 0 (least) to 10 (most).,23167,1669829106344,grilled chicken strips,2757,True,8.790000000000001,25924,2757,True,HRV,HRV_0026,2022-11-30 17:26:32
12,"[{'imgObject': {}, 'id': 'strawberries', 'src': '/static/foodstim60/strawberries.jpg', 'key': 'NaN', 'origWidth': 410, 'origHeight': 410, 'width': 410, 'height': 410, 'widthPercent': 0.8, 'rescaleHeight': True, 'trialN': 12, 'loaded': True, 'loadedTime': 2615, 'positionName': 'CENTER', 'positionCoords': [478, 179]}]",Rate how much you want to eat this food from 0 (least) to 10 (most).,25947,1669829109125,strawberries,1150,True,6.69,27097,1150,True,HRV,HRV_0026,2022-11-30 17:26:32
13,"[{'imgObject': {}, 'id': 'burger', 'src': '/static/foodstim60/burger.jpg', 'key': 'NaN', 'origWidth': 409, 'origHeight': 409, 'width': 409, 'height': 409, 'widthPercent': 0.8, 'rescaleHeight': True, 'trialN': 13, 'loaded': True, 'loadedTime': 2619, 'positionName': 'CENTER', 'positionCoords': [478.5, 179.5]}]",Rate how much you want to eat this food from 0 (least) to 10 (most).,27123,1669829110300,burger,1942,True,5.6000000000000005,29065,1942,True,HRV,HRV_0026,2022-11-30 17:26:32
14,"[{'imgObject': {}, 'id': 'eggsalad', 'src': '/static/foodstim60/eggsalad.jpg', 'key': 'NaN', 'origWidth': 410, 'origHeight': 409, 'width': 410, 'height': 409, 'widthPercent': 0.8, 'rescaleHeight': True, 'trialN': 14, 'loaded': True, 'loadedTime': 2624, 'positionName': 'CENTER', 'positionCoords': [478, 179.5]}]",Rate how much you want to eat this food from 0 (least) to 10 (most).,29082,1669829112259,eggsalad,1624,True,5.2,30706,1624,True,HRV,HRV_0026,2022-11-30 17:26:32
15,"[{'imgObject': {}, 'id': 'luckycharms', 'src': '/static/foodstim60/luckycharms.jpg', 'key': 'NaN', 'origWidth': 410, 'origHeight': 409, 'width': 410, 'height': 409, 'widthPercent': 0.8, 'rescaleHeight': True, 'trialN': 15, 'loaded': True, 'loadedTime': 2630, 'positionName': 'CENTER', 'positionCoords': [478, 179.5]}]",Rate how much you want to eat this food from 0 (least) to 10 (most).,30719,1669829113896,luckycharms,1393,True,3.94,32112,1393,True,HRV,HRV_0026,2022-11-30 17:26:32
16,"[{'imgObject': {}, 'id': 'mashed potato', 'src': '/static/foodstim60/mashed potato.jpg', 'key': 'NaN', 'origWidth': 409, 'origHeight': 409, 'width': 409, 'height': 409, 'widthPercent': 0.8, 'rescaleHeight': True, 'trialN': 16, 'loaded': True, 'loadedTime': 2635, 'positionName': 'CENTER', 'positionCoords': [478.5, 179.5]}]",Rate how much you want to eat this food from 0 (least) to 10 (most).,32122,1669829115299,mashed potato,1647,True,4.67,33769,1647,True,HRV,HRV_0026,2022-11-30 17:26:32
17,"[{'imgObject': {}, 'id': 'fried eggs', 'src': '/static/foodstim60/fried eggs.jpg', 'key': 'NaN', 'origWidth': 410, 'origHeight': 410, 'width': 410, 'height': 410, 'widthPercent': 0.8, 'rescaleHeight': True, 'trialN': 17, 'loaded': True, 'loadedTime': 2640, 'positionName': 'CENTER', 'positionCoords': [478, 179]}]",Rate how much you want to eat this food from 0 (least) to 10 (most).,33790,1669829116967,fried eggs,2306,True,9.46,36096,2306,True,HRV,HRV_0026,2022-11-30 17:26:32
18,"[{'imgObject': {}, 'id': 'rigatoni and sauce', 'src': '/static/foodstim60/rigatoni and sauce.jpg', 'key': 'NaN', 'origWidth': 410, 'origHeight': 411, 'width': 410, 'height': 411, 'widthPercent': 0.8, 'rescaleHeight': True, 'trialN': 18, 'loaded': True, 'loadedTime': 2645, 'positionName': 'CENTER', 'positionCoords': [478, 178.5]}]",Rate how much you want to eat this food from 0 (least) to 10 (most).,36115,1669829119292,rigatoni and sauce,2497,True,4.91,38612,2497,True,HRV,HRV_0026,2022-11-30 17:26:32
19,"[{'imgObject': {}, 'id': 'cherry tomato', 'src': '/static/foodstim60/cherry tomato.jpg', 'key': 'NaN', 'origWidth': 410, 'origHeight': 410, 'width': 410, 'height': 410, 'widthPercent': 0.8, 'rescaleHeight': True, 'trialN': 19, 'loaded': True, 'loadedTime': 2647, 'positionName': 'CENTER', 'positionCoords': [478, 179]}]",Rate how much you want to eat this food from 0 (least) to 10 (most).,38616,1669829121794,cherry tomato,1481,True,4.25,40097,1481,True,HRV,HRV_0026,2022-11-30 17:26:32
20,"[{'imgObject': {}, 'id': 'sushi w_condiments', 'src': '/static/foodstim60/sushi w_condiments.jpg', 'key': 'NaN', 'origWidth': 410, 'origHeight': 410, 'width': 410, 'height': 410, 'widthPercent': 0.8, 'rescaleHeight': True, 'trialN': 20, 'loaded': True, 'loadedTime': 2657, 'positionName': 'CENTER', 'positionCoords': [478, 179]}]",Rate how much you want to eat this food from 0 (least) to 10 (most).,40119,1669829123297,sushi w_condiments,1618,True,5.24,41737,1618,True,HRV,HRV_0026,2022-11-30 17:26:32
21,"[{'imgObject': {}, 'id': 'rigatoni', 'src': '/static/foodstim60/rigatoni.jpg', 'key': 'NaN', 'origWidth': 411, 'origHeight': 411, 'width': 411, 'height': 411, 'widthPercent': 0.8, 'rescaleHeight': True, 'trialN': 21, 'loaded': True, 'loadedTime': 2662, 'positionName': 'CENTER', 'positionCoords': [477.5, 178.5]}]",Rate how much you want to eat this food from 0 (least) to 10 (most).,41760,1669829124938,rigatoni,1697,True,3.43,43457,1697,True,HRV,HRV_0026,2022-11-30 17:26:32
22,"[{'imgObject': {}, 'id': 'banana', 'src': '/static/foodstim60/banana.jpg', 'key': 'NaN', 'origWidth': 410, 'origHeight': 410, 'width': 410, 'height': 410, 'widthPercent': 0.8, 'rescaleHeight': True, 'trialN': 22, 'loaded': True, 'loadedTime': 2666, 'positionName': 'CENTER', 'positionCoords': [478, 179]}]",Rate how much you want to eat this food from 0 (least) to 10 (most).,43476,1669829126652,banana,1746,True,1.19,45222,1746,True,HRV,HRV_0026,2022-11-30 17:26:32
23,"[{'imgObject': {}, 'id': 'edamame', 'src': '/static/foodstim60/edamame.jpg', 'key': 'NaN', 'origWidth': 409, 'origHeight': 410, 'width': 409, 'height': 410, 'widthPercent': 0.8, 'rescaleHeight': True, 'trialN': 23, 'loaded': True, 'loadedTime': 2671, 'positionName': 'CENTER', 'positionCoords': [478.5, 179]}]",Rate how much you want to eat this food from 0 (least) to 10 (most).,45235,1669829128413,edamame,1580,True,2.32,46815,1580,True,HRV,HRV_0026,2022-11-30 17:26:32
24,"[{'imgObject': {}, 'id': 'apple slices', 'src': '/static/foodstim60/apple slices.jpg', 'key': 'NaN', 'origWidth': 409, 'origHeight': 410, 'width': 409, 'height': 410, 'widthPercent': 0.8, 'rescaleHeight': True, 'trialN': 24, 'loaded': True, 'loadedTime': 2674, 'positionName': 'CENTER', 'positionCoords': [478.5, 179]}]",Rate how much you want to eat this food from 0 (least) to 10 (most).,46834,1669829130012,apple slices,1543,True,1.96,48377,1543,True,HRV,HRV_0026,2022-11-30 17:26:32
25,"[{'imgObject': {}, 'id': 'veggieswithdip', 'src': '/static/foodstim60/veggieswithdip.jpg', 'key': 'NaN', 'origWidth': 409, 'origHeight': 409, 'width': 409, 'height': 409, 'widthPercent': 0.8, 'rescaleHeight': True, 'trialN': 25, 'loaded': True, 'loadedTime': 2681, 'positionName': 'CENTER', 'positionCoords': [478.5, 179.5]}]",Rate how much you want to eat this food from 0 (least) to 10 (most).,48399,1669829131576,veggieswithdip,2775,True,9.34,51174,2775,True,HRV,HRV_0026,2022-11-30 17:26:32
26,"[{'imgObject': {}, 'id': 'raisin bran w milk', 'src': '/static/foodstim60/raisin bran w milk.jpg', 'key': 'NaN', 'origWidth': 411, 'origHeight': 411, 'width': 411, 'height': 411, 'widthPercent': 0.8, 'rescaleHeight': True, 'trialN': 26, 'loaded': True, 'loadedTime': 2686, 'positionName': 'CENTER', 'positionCoords': [477.5, 178.5]}]",Rate how much you want to eat this food from 0 (least) to 10 (most).,51196,1669829134373,raisin bran w milk,1885,True,5.05,53081,1885,True,HRV,HRV_0026,2022-11-30 17:26:32
27,"[{'imgObject': {}, 'id': 'popsicles', 'src': '/static/foodstim60/popsicles.jpg', 'key': 'NaN', 'origWidth': 410, 'origHeight': 410, 'width': 410, 'height': 410, 'widthPercent': 0.8, 'rescaleHeight': True, 'trialN': 27, 'loaded': True, 'loadedTime': 2692, 'positionName': 'CENTER', 'positionCoords': [478, 179]}]",Rate how much you want to eat this food from 0 (least) to 10 (most).,53104,1669829136281,popsicles,2055,True,0.59,55159,2055,True,HRV,HRV_0026,2022-11-30 17:26:32
28,"[{'imgObject': {}, 'id': 'corn cob', 'src': '/static/foodstim60/corn cob.jpg', 'key': 'NaN', 'origWidth': 411, 'origHeight': 411, 'width': 411, 'height': 411, 'widthPercent': 0.8, 'rescaleHeight': True, 'trialN': 28, 'loaded': True, 'loadedTime': 2696, 'positionName': 'CENTER', 'positionCoords': [477.5, 178.5]}]",Rate how much you want to eat this food from 0 (least) to 10 (most).,55177,1669829138355,corn cob,1482,True,3.22,56659,1482,True,HRV,HRV_0026,2022-11-30 17:26:32
29,"[{'imgObject': {}, 'id': 'fruitsalad', 'src': '/static/foodstim60/fruitsalad.jpg', 'key': 'NaN', 'origWidth': 410, 'origHeight': 410, 'width': 410, 'height': 410, 'widthPercent': 0.8, 'rescaleHeight': True, 'trialN': 29, 'loaded': True, 'loadedTime': 2701, 'positionName': 'CENTER', 'positionCoords': [478, 179]}]",Rate how much you want to eat this food from 0 (least) to 10 (most).,56666,1669829139843,fruitsalad,1587,True,2.77,58253,1587,True,HRV,HRV_0026,2022-11-30 17:26:32
30,"[{'imgObject': {}, 'id': 'chicken nuggets2', 'src': '/static/foodstim60/chicken nuggets2.jpg', 'key': 'NaN', 'origWidth': 410, 'origHeight': 409, 'width': 410, 'height': 409, 'widthPercent': 0.8, 'rescaleHeight': True, 'trialN': 30, 'loaded': True, 'loadedTime': 2706, 'positionName': 'CENTER', 'positionCoords': [478, 179.5]}]",Rate how much you want to eat this food from 0 (least) to 10 (most).,58272,1669829141450,chicken nuggets2,1560,True,5.08,59832,1560,True,HRV,HRV_0026,2022-11-30 17:26:32
31,"[{'imgObject': {}, 'id': 'olives', 'src': '/static/foodstim60/olives.jpg', 'key': 'NaN', 'origWidth': 410, 'origHeight': 410, 'width': 410, 'height': 410, 'widthPercent': 0.8, 'rescaleHeight': True, 'trialN': 31, 'loaded': True, 'loadedTime': 2712, 'positionName': 'CENTER', 'positionCoords': [478, 179]}]",Rate how much you want to eat this food from 0 (least) to 10 (most).,59854,1669829143031,olives,1586,True,3.37,61440,1586,True,HRV,HRV_0026,2022-11-30 17:26:32
32,"[{'imgObject': {}, 'id': 'hotdog w must', 'src': '/static/foodstim60/hotdog w must.jpg', 'key': 'NaN', 'origWidth': 409, 'origHeight': 409, 'width': 409, 'height': 409, 'widthPercent': 0.8, 'rescaleHeight': True, 'trialN': 32, 'loaded': True, 'loadedTime': 2716, 'positionName': 'CENTER', 'positionCoords': [478.5, 179.5]}]",Rate how much you want to eat this food from 0 (least) to 10 (most).,61451,1669829144628,hotdog w must,1520,True,2.0100000000000002,62971,1520,True,HRV,HRV_0026,2022-11-30 17:26:32
33,"[{'imgObject': {}, 'id': 'raspberries', 'src': '/static/foodstim60/raspberries.jpg', 'key': 'NaN', 'origWidth': 411, 'origHeight': 411, 'width': 411, 'height': 411, 'widthPercent': 0.8, 'rescaleHeight': True, 'trialN': 33, 'loaded': True, 'loadedTime': 2720, 'positionName': 'CENTER', 'positionCoords': [477.5, 178.5]}]",Rate how much you want to eat this food from 0 (least) to 10 (most).,62994,1669829146171,raspberries,1821,True,5.5200000000000005,64815,1821,True,HRV,HRV_0026,2022-11-30 17:26:32
34,"[{'imgObject': {}, 'id': 'roastedpotatoes', 'src': '/static/foodstim60/roastedpotatoes.jpg', 'key': 'NaN', 'origWidth': 409, 'origHeight': 410, 'width': 409, 'height': 410, 'widthPercent': 0.8, 'rescaleHeight': True, 'trialN': 34, 'loaded': True, 'loadedTime': 2728, 'positionName': 'CENTER', 'positionCoords': [478.5, 179]}]",Rate how much you want to eat this food from 0 (least) to 10 (most).,64823,1669829148001,roastedpotatoes,1695,True,8.16,66518,1695,True,HRV,HRV_0026,2022-11-30 17:26:32
35,"[{'imgObject': {}, 'id': 'eggs', 'src': '/static/foodstim60/eggs.jpg', 'key': 'NaN', 'origWidth': 409, 'origHeight': 409, 'width': 409, 'height': 409, 'widthPercent': 0.8, 'rescaleHeight': True, 'trialN': 35, 'loaded': True, 'loadedTime': 2733, 'positionName': 'CENTER', 'positionCoords': [478.5, 179.5]}]",Rate how much you want to eat this food from 0 (least) to 10 (most).,66535,1669829149712,eggs,1562,True,2.23,68097,1562,True,HRV,HRV_0026,2022-11-30 17:26:32
36,"[{'imgObject': {}, 'id': 'granola w milk', 'src': '/static/foodstim60/granola w milk.jpg', 'key': 'NaN', 'origWidth': 410, 'origHeight': 410, 'width': 410, 'height': 410, 'widthPercent': 0.8, 'rescaleHeight': True, 'trialN': 36, 'loaded': True, 'loadedTime': 2738, 'positionName': 'CENTER', 'positionCoords': [478, 179]}]",Rate how much you want to eat this food from 0 (least) to 10 (most).,68125,1669829151303,granola w milk,1581,True,4.8500000000000005,69706,1581,True,HRV,HRV_0026,2022-11-30 17:26:32
37,"[{'imgObject': {}, 'id': 'ice cream sundae 002', 'src': '/static/foodstim60/ice cream sundae 002.jpg', 'key': 'NaN', 'origWidth': 409, 'origHeight': 409, 'width': 409, 'height': 409, 'widthPercent': 0.8, 'rescaleHeight': True, 'trialN': 37, 'loaded': True, 'loadedTime': 2743, 'positionName': 'CENTER', 'positionCoords': [478.5, 179.5]}]",Rate how much you want to eat this food from 0 (least) to 10 (most).,69723,1669829152900,ice cream sundae 002,1577,True,5.87,71300,1577,True,HRV,HRV_0026,2022-11-30 17:26:32
38,"[{'imgObject': {}, 'id': 'yogurt no spoon', 'src': '/static/foodstim60/yogurt no spoon.jpg', 'key': 'NaN', 'origWidth': 411, 'origHeight': 410, 'width': 411, 'height': 410, 'widthPercent': 0.8, 'rescaleHeight': True, 'trialN': 38, 'loaded': True, 'loadedTime': 2747, 'positionName': 'CENTER', 'positionCoords': [477.5, 179]}]",Rate how much you want to eat this food from 0 (least) to 10 (most).,71319,1669829154496,yogurt no spoon,1355,True,6.09,72674,1355,True,HRV,HRV_0026,2022-11-30 17:26:32
39,"[{'imgObject': {}, 'id': 'lox', 'src': '/static/foodstim60/lox.jpg', 'key': 'NaN', 'origWidth': 410, 'origHeight': 411, 'width': 410, 'height': 411, 'widthPercent': 0.8, 'rescaleHeight': True, 'trialN': 39, 'loaded': True, 'loadedTime': 2753, 'positionName': 'CENTER', 'positionCoords': [478, 178.5]}]",Rate how much you want to eat this food from 0 (least) to 10 (most).,72700,1669829155876,lox,1522,True,7.18,74222,1522,True,HRV,HRV_0026,2022-11-30 17:26:32
40,"[{'imgObject': {}, 'id': 'salmon', 'src': '/static/foodstim60/salmon.jpg', 'key': 'NaN', 'origWidth': 410, 'origHeight': 409, 'width': 410, 'height': 409, 'widthPercent': 0.8, 'rescaleHeight': True, 'trialN': 40, 'loaded': True, 'loadedTime': 2757, 'positionName': 'CENTER', 'positionCoords': [478, 179.5]}]",Rate how much you want to eat this food from 0 (least) to 10 (most).,74235,1669829157412,salmon,2034,True,8.36,76269,2034,True,HRV,HRV_0026,2022-11-30 17:26:32
41,"[{'imgObject': {}, 'id': 'Tribe humus pita', 'src': '/static/foodstim60/Tribe humus pita.jpg', 'key': 'NaN', 'origWidth': 411, 'origHeight': 411, 'width': 411, 'height': 411, 'widthPercent': 0.8, 'rescaleHeight': True, 'trialN': 41, 'loaded': True, 'loadedTime': 2762, 'positionName': 'CENTER', 'positionCoords': [477.5, 178.5]}]",Rate how much you want to eat this food from 0 (least) to 10 (most).,76295,1669829159473,Tribe humus pita,1661,True,5.96,77956,1661,True,HRV,HRV_0026,2022-11-30 17:26:32
42,"[{'imgObject': {}, 'id': 'tacos', 'src': '/static/foodstim60/tacos.jpg', 'key': 'NaN', 'origWidth': 411, 'origHeight': 411, 'width': 411, 'height': 411, 'widthPercent': 0.8, 'rescaleHeight': True, 'trialN': 42, 'loaded': True, 'loadedTime': 2767, 'positionName': 'CENTER', 'positionCoords': [477.5, 178.5]}]",Rate how much you want to eat this food from 0 (least) to 10 (most).,77977,1669829161154,tacos,1463,True,6.93,79440,1463,True,HRV,HRV_0026,2022-11-30 17:26:32
43,"[{'imgObject': {}, 'id': 'cantaloupe', 'src': '/static/foodstim60/cantaloupe.jpg', 'key': 'NaN', 'origWidth': 409, 'origHeight': 409, 'width': 409, 'height': 409, 'widthPercent': 0.8, 'rescaleHeight': True, 'trialN': 43, 'loaded': True, 'loadedTime': 2773, 'positionName': 'CENTER', 'positionCoords': [478.5, 179.5]}]",Rate how much you want to eat this food from 0 (least) to 10 (most).,79462,1669829162640,cantaloupe,1557,True,1.53,81019,1557,True,HRV,HRV_0026,2022-11-30 17:26:32
44,"[{'imgObject': {}, 'id': 'omelette', 'src': '/static/foodstim60/omelette.jpg', 'key': 'NaN', 'origWidth': 410, 'origHeight': 409, 'width': 410, 'height': 409, 'widthPercent': 0.8, 'rescaleHeight': True, 'trialN': 44, 'loaded': True, 'loadedTime': 2778, 'positionName': 'CENTER', 'positionCoords': [478, 179.5]}]",Rate how much you want to eat this food from 0 (least) to 10 (most).,81042,1669829164219,omelette,1789,True,5.23,82831,1789,True,HRV,HRV_0026,2022-11-30 17:26:32
45,"[{'imgObject': {}, 'id': 'blueberries', 'src': '/static/foodstim60/blueberries.jpg', 'key': 'NaN', 'origWidth': 411, 'origHeight': 411, 'width': 411, 'height': 411, 'widthPercent': 0.8, 'rescaleHeight': True, 'trialN': 45, 'loaded': True, 'loadedTime': 2783, 'positionName': 'CENTER', 'positionCoords': [477.5, 178.5]}]",Rate how much you want to eat this food from 0 (least) to 10 (most).,82846,1669829166024,blueberries,1578,True,6.8100000000000005,84424,1578,True,HRV,HRV_0026,2022-11-30 17:26:32
46,"[{'imgObject': {}, 'id': 'avocado', 'src': '/static/foodstim60/avocado.jpg', 'key': 'NaN', 'origWidth': 409, 'origHeight': 409, 'width': 409, 'height': 409, 'widthPercent': 0.8, 'rescaleHeight': True, 'trialN': 46, 'loaded': True, 'loadedTime': 2788, 'positionName': 'CENTER', 'positionCoords': [478.5, 179.5]}]",Rate how much you want to eat this food from 0 (least) to 10 (most).,84442,1669829167620,avocado,1468,True,6.8,85910,1468,True,HRV,HRV_0026,2022-11-30 17:26:32
47,"[{'imgObject': {}, 'id': 'Grapes', 'src': '/static/foodstim60/Grapes.jpg', 'key': 'NaN', 'origWidth': 411, 'origHeight': 411, 'width': 411, 'height': 411, 'widthPercent': 0.8, 'rescaleHeight': True, 'trialN': 47, 'loaded': True, 'loadedTime': 2794, 'positionName': 'CENTER', 'positionCoords': [477.5, 178.5]}]",Rate how much you want to eat this food from 0 (least) to 10 (most).,85937,1669829169114,Grapes,1644,True,2.54,87581,1644,True,HRV,HRV_0026,2022-11-30 17:26:32
48,"[{'imgObject': {}, 'id': 'froot loops w milk', 'src': '/static/foodstim60/froot loops w milk.jpg', 'key': 'NaN', 'origWidth': 410, 'origHeight': 410, 'width': 410, 'height': 410, 'widthPercent': 0.8, 'rescaleHeight': True, 'trialN': 48, 'loaded': True, 'loadedTime': 2799, 'positionName': 'CENTER', 'positionCoords': [478, 179]}]",Rate how much you want to eat this food from 0 (least) to 10 (most).,87613,1669829170790,froot loops w milk,1828,True,4.3100000000000005,89441,1828,True,HRV,HRV_0026,2022-11-30 17:26:32
49,"[{'imgObject': {}, 'id': 'bagel and cc', 'src': '/static/foodstim60/bagel and cc.jpg', 'key': 'NaN', 'origWidth': 410, 'origHeight': 410, 'width': 410, 'height': 410, 'widthPercent': 0.8, 'rescaleHeight': True, 'trialN': 49, 'loaded': True, 'loadedTime': 2804, 'positionName': 'CENTER', 'positionCoords': [478, 179]}]",Rate how much you want to eat this food from 0 (least) to 10 (most).,89457,1669829172635,bagel and cc,1827,True,4.61,91284,1827,True,HRV,HRV_0026,2022-11-30 17:26:32
50,"[{'imgObject': {}, 'id': 'mac & cheese', 'src': '/static/foodstim60/mac & cheese.jpg', 'key': 'NaN', 'origWidth': 410, 'origHeight': 410, 'width': 410, 'height': 410, 'widthPercent': 0.8, 'rescaleHeight': True, 'trialN': 50, 'loaded': True, 'loadedTime': 2808, 'positionName': 'CENTER', 'positionCoords': [478, 179]}]",Rate how much you want to eat this food from 0 (least) to 10 (most).,91304,1669829174482,mac & cheese,1699,True,5.95,93003,1699,True,HRV,HRV_0026,2022-11-30 17:26:32
51,"[{'imgObject': {}, 'id': 'turkeysandwich', 'src': '/static/foodstim60/turkeysandwich.jpg', 'key': 'NaN', 'origWidth': 409, 'origHeight': 409, 'width': 409, 'height': 409, 'widthPercent': 0.8, 'rescaleHeight': True, 'trialN': 51, 'loaded': True, 'loadedTime': 2814, 'positionName': 'CENTER', 'positionCoords': [478.5, 179.5]}]",Rate how much you want to eat this food from 0 (least) to 10 (most).,93014,1669829176191,turkeysandwich,1457,True,5.55,94471,1457,True,HRV,HRV_0026,2022-11-30 17:26:32
52,"[{'imgObject': {}, 'id': 'kiwi', 'src': '/static/foodstim60/kiwi.jpg', 'key': 'NaN', 'origWidth': 410, 'origHeight': 410, 'width': 410, 'height': 410, 'widthPercent': 0.8, 'rescaleHeight': True, 'trialN': 52, 'loaded': True, 'loadedTime': 2818, 'positionName': 'CENTER', 'positionCoords': [478, 179]}]",Rate how much you want to eat this food from 0 (least) to 10 (most).,94492,1669829177669,kiwi,1417,True,2.46,95909,1417,True,HRV,HRV_0026,2022-11-30 17:26:32
53,"[{'imgObject': {}, 'id': 'turkey sandwich', 'src': '/static/foodstim60/turkey sandwich.jpg', 'key': 'NaN', 'origWidth': 409, 'origHeight': 409, 'width': 409, 'height': 409, 'widthPercent': 0.8, 'rescaleHeight': True, 'trialN': 53, 'loaded': True, 'loadedTime': 2823, 'positionName': 'CENTER', 'positionCoords': [478.5, 179.5]}]",Rate how much you want to eat this food from 0 (least) to 10 (most).,95935,1669829179113,turkey sandwich,1834,True,6.25,97769,1834,True,HRV,HRV_0026,2022-11-30 17:26:32
54,"[{'imgObject': {}, 'id': 'seaweed', 'src': '/static/foodstim60/seaweed.jpg', 'key': 'NaN', 'origWidth': 410, 'origHeight': 410, 'width': 410, 'height': 410, 'widthPercent': 0.8, 'rescaleHeight': True, 'trialN': 54, 'loaded': True, 'loadedTime': 2828, 'positionName': 'CENTER', 'positionCoords': [478, 179]}]",Rate how much you want to eat this food from 0 (least) to 10 (most).,97791,1669829180969,seaweed,1883,True,5.0200000000000005,99674,1883,True,HRV,HRV_0026,2022-11-30 17:26:32
55,"[{'imgObject': {}, 'id': 'baked potato', 'src': '/static/foodstim60/baked potato.jpg', 'key': 'NaN', 'origWidth': 409, 'origHeight': 410, 'width': 409, 'height': 410, 'widthPercent': 0.8, 'rescaleHeight': True, 'trialN': 55, 'loaded': True, 'loadedTime': 2834, 'positionName': 'CENTER', 'positionCoords': [478.5, 179]}]",Rate how much you want to eat this food from 0 (least) to 10 (most).,99678,1669829182856,baked potato,1574,True,5.42,101252,1574,True,HRV,HRV_0026,2022-11-30 17:26:32
56,"[{'imgObject': {}, 'id': 'sweetpotato', 'src': '/static/foodstim60/sweetpotato.jpg', 'key': 'NaN', 'origWidth': 410, 'origHeight': 410, 'width': 410, 'height': 410, 'widthPercent': 0.8, 'rescaleHeight': True, 'trialN': 56, 'loaded': True, 'loadedTime': 2839, 'positionName': 'CENTER', 'positionCoords': [478, 179]}]",Rate how much you want to eat this food from 0 (least) to 10 (most).,101277,1669829184455,sweetpotato,1632,True,5.26,102909,1632,True,HRV,HRV_0026,2022-11-30 17:26:32
57,"[{'imgObject': {}, 'id': 'bagel plain', 'src': '/static/foodstim60/bagel plain.jpg', 'key': 'NaN', 'origWidth': 410, 'origHeight': 410, 'width': 410, 'height': 410, 'widthPercent': 0.8, 'rescaleHeight': True, 'trialN': 57, 'loaded': True, 'loadedTime': 2843, 'positionName': 'CENTER', 'positionCoords': [478, 179]}]",Rate how much you want to eat this food from 0 (least) to 10 (most).,102932,1669829186109,bagel plain,1368,True,4.86,104300,1368,True,HRV,HRV_0026,2022-11-30 17:26:32
58,"[{'imgObject': {}, 'id': 'mango', 'src': '/static/foodstim60/mango.jpg', 'key': 'NaN', 'origWidth': 411, 'origHeight': 411, 'width': 411, 'height': 411, 'widthPercent': 0.8, 'rescaleHeight': True, 'trialN': 58, 'loaded': True, 'loadedTime': 2847, 'positionName': 'CENTER', 'positionCoords': [477.5, 178.5]}]",Rate how much you want to eat this food from 0 (least) to 10 (most).,104325,1669829187503,mango,2084,True,4.48,106409,2084,True,HRV,HRV_0026,2022-11-30 17:26:32
59,"[{'imgObject': {}, 'id': 'shreddedwheatwithmilk', 'src': '/static/foodstim60/shreddedwheatwithmilk.jpg', 'key': 'NaN', 'origWidth': 410, 'origHeight': 410, 'width': 410, 'height': 410, 'widthPercent': 0.8, 'rescaleHeight': True, 'trialN': 59, 'loaded': True, 'loadedTime': 2850, 'positionName': 'CENTER', 'positionCoords': [478, 179]}]",Rate how much you want to eat this food from 0 (least) to 10 (most).,106425,1669829189603,shreddedwheatwithmilk,1187,True,5.5200000000000005,107612,1187,True,HRV,HRV_0026,2022-11-30 17:26:32
