trialN,stimuli,trialStartTime,trialStartTime_UNIX,stimulus1,stimulus2,stimulus1Bid,stimulus2Bid,delta,selected,rt,rt_UNIX,rt_perfnow,receivedResponse,rsp,trialEndTime,trialDuration,trialEndTime_UNIX,trialDuration_UNIX,exp,subjectId,date
0,"[{'imgObject': {}, 'id': 'burrito', 'src': '/static/foodstim60/burrito.jpg', 'key': 'u', 'origWidth': 410, 'origHeight': 410, 'width': 410, 'height': 410, 'widthPercent': 0.45, 'rescaleHeight': False, 'trialN': 0, 'loaded': True, 'loadedTime': 11301.699999999997, 'positionName': 'LEFT', 'positionCoords': [245.68, 179], 'bid': 3.82}, {'imgObject': {}, 'id': 'omelette', 'src': '/static/foodstim60/omelette.jpg', 'key': 'i', 'origWidth': 410, 'origHeight': 409, 'width': 410, 'height': 409, 'widthPercent': 0.45, 'rescaleHeight': False, 'trialN': 0, 'loaded': True, 'loadedTime': 11785.399999999994, 'positionName': 'RIGHT', 'positionCoords': [710.32, 179.5], 'bid': 3.79}]",17208.20000000001,1669830139914,burrito,omelette,3.82,3.79,-0.029999999999999805,omelette,2314.399999999994,2331,2330.899999999994,True,i,20046.899999999994,2838.6999999999825,1669830142752,2838,HRV,HRV_0104,2022-11-30 17:47:40
1,"[{'imgObject': {}, 'id': 'bagel plain', 'src': '/static/foodstim60/bagel plain.jpg', 'key': 'u', 'origWidth': 410, 'origHeight': 410, 'width': 410, 'height': 410, 'widthPercent': 0.45, 'rescaleHeight': False, 'trialN': 1, 'loaded': True, 'loadedTime': 12192, 'positionName': 'LEFT', 'positionCoords': [245.68, 179], 'bid': 5.21}, {'imgObject': {}, 'id': 'banana', 'src': '/static/foodstim60/banana.jpg', 'key': 'i', 'origWidth': 410, 'origHeight': 410, 'width': 410, 'height': 410, 'widthPercent': 0.45, 'rescaleHeight': False, 'trialN': 1, 'loaded': True, 'loadedTime': 12370.100000000006, 'positionName': 'RIGHT', 'positionCoords': [710.32, 179], 'bid': 6.11}]",20047.29999999999,1669830142753,bagel plain,banana,5.21,6.11,0.9000000000000004,banana,1886.2000000000116,1887,1887.7000000000116,True,i,22438.399999999994,2391.100000000006,1669830145144,2391,HRV,HRV_0104,2022-11-30 17:47:40
2,"[{'imgObject': {}, 'id': 'eggsalad', 'src': '/static/foodstim60/eggsalad.jpg', 'key': 'u', 'origWidth': 410, 'origHeight': 409, 'width': 410, 'height': 409, 'widthPercent': 0.45, 'rescaleHeight': False, 'trialN': 2, 'loaded': True, 'loadedTime': 12381.199999999997, 'positionName': 'LEFT', 'positionCoords': [245.68, 179.5], 'bid': 6.2}, {'imgObject': {}, 'id': 'tacos', 'src': '/static/foodstim60/tacos.jpg', 'key': 'i', 'origWidth': 411, 'origHeight': 411, 'width': 411, 'height': 411, 'widthPercent': 0.45, 'rescaleHeight': False, 'trialN': 2, 'loaded': True, 'loadedTime': 12785.699999999997, 'positionName': 'RIGHT', 'positionCoords': [710.32, 178.5], 'bid': 2.73}]",22438.70000000001,1669830145144,eggsalad,tacos,6.2,2.73,-3.47,eggsalad,2983.399999999994,3180,3179.6999999999825,True,u,26126.399999999994,3687.6999999999825,1669830148832,3688,HRV,HRV_0104,2022-11-30 17:47:40
3,"[{'imgObject': {}, 'id': 'turkeysandwich', 'src': '/static/foodstim60/turkeysandwich.jpg', 'key': 'u', 'origWidth': 409, 'origHeight': 409, 'width': 409, 'height': 409, 'widthPercent': 0.45, 'rescaleHeight': False, 'trialN': 3, 'loaded': True, 'loadedTime': 12994.5, 'positionName': 'LEFT', 'positionCoords': [246.68, 179.5], 'bid': 2.27}, {'imgObject': {}, 'id': 'tacos', 'src': '/static/foodstim60/tacos.jpg', 'key': 'i', 'origWidth': 411, 'origHeight': 411, 'width': 411, 'height': 411, 'widthPercent': 0.45, 'rescaleHeight': False, 'trialN': 3, 'loaded': True, 'loadedTime': 12796.600000000006, 'positionName': 'RIGHT', 'positionCoords': [710.32, 178.5], 'bid': 2.73}]",26126.70000000001,1669830148832,turkeysandwich,tacos,2.27,2.73,0.45999999999999996,NaN,NaN,NaN,,False,NaN,30214.600000000006,4087.899999999994,1669830152920,4088,HRV,HRV_0104,2022-11-30 17:47:40
4,"[{'imgObject': {}, 'id': 'fruitsalad', 'src': '/static/foodstim60/fruitsalad.jpg', 'key': 'u', 'origWidth': 410, 'origHeight': 410, 'width': 410, 'height': 410, 'widthPercent': 0.45, 'rescaleHeight': False, 'trialN': 4, 'loaded': True, 'loadedTime': 11339.699999999997, 'positionName': 'LEFT', 'positionCoords': [245.68, 179], 'bid': 1.95}, {'imgObject': {}, 'id': 'seaweed', 'src': '/static/foodstim60/seaweed.jpg', 'key': 'i', 'origWidth': 410, 'origHeight': 410, 'width': 410, 'height': 410, 'widthPercent': 0.45, 'rescaleHeight': False, 'trialN': 4, 'loaded': True, 'loadedTime': 13235, 'positionName': 'RIGHT', 'positionCoords': [710.32, 179], 'bid': 0.73}]",30215.0,1669830152921,fruitsalad,seaweed,1.95,0.73,-1.22,fruitsalad,2604.2999999999884,2610,2610.7999999999884,True,u,33327.399999999994,3112.399999999994,1669830156033,3112,HRV,HRV_0104,2022-11-30 17:47:40
5,"[{'imgObject': {}, 'id': 'kiwi', 'src': '/static/foodstim60/kiwi.jpg', 'key': 'u', 'origWidth': 410, 'origHeight': 410, 'width': 410, 'height': 410, 'widthPercent': 0.45, 'rescaleHeight': False, 'trialN': 5, 'loaded': True, 'loadedTime': 11747, 'positionName': 'LEFT', 'positionCoords': [245.68, 179], 'bid': 1.19}, {'imgObject': {}, 'id': 'avocado', 'src': '/static/foodstim60/avocado.jpg', 'key': 'i', 'origWidth': 409, 'origHeight': 409, 'width': 409, 'height': 409, 'widthPercent': 0.45, 'rescaleHeight': False, 'trialN': 5, 'loaded': True, 'loadedTime': 12805.800000000003, 'positionName': 'RIGHT', 'positionCoords': [710.32, 179.5], 'bid': 0.19}]",33327.600000000006,1669830156033,kiwi,avocado,1.19,0.19,-1.0,kiwi,1352.3999999999942,1354,1353.6999999999825,True,u,35182.399999999994,1854.7999999999884,1669830157888,1855,HRV,HRV_0104,2022-11-30 17:47:40
6,"[{'imgObject': {}, 'id': 'pear', 'src': '/static/foodstim60/pear.jpg', 'key': 'u', 'origWidth': 411, 'origHeight': 410, 'width': 411, 'height': 410, 'widthPercent': 0.45, 'rescaleHeight': False, 'trialN': 6, 'loaded': True, 'loadedTime': 13451.100000000006, 'positionName': 'LEFT', 'positionCoords': [244.68, 179], 'bid': 5.71}, {'imgObject': {}, 'id': 'mashed potato', 'src': '/static/foodstim60/mashed potato.jpg', 'key': 'i', 'origWidth': 409, 'origHeight': 409, 'width': 409, 'height': 409, 'widthPercent': 0.45, 'rescaleHeight': False, 'trialN': 6, 'loaded': True, 'loadedTime': 13456.5, 'positionName': 'RIGHT', 'positionCoords': [710.32, 179.5], 'bid': 7.890000000000001}]",35182.600000000006,1669830157888,pear,mashed potato,5.71,7.890000000000001,2.1800000000000006,pear,1234.5,1238,1238.0,True,u,36926.29999999999,1743.6999999999825,1669830159632,1744,HRV,HRV_0104,2022-11-30 17:47:40
7,"[{'imgObject': {}, 'id': 'cantaloupe', 'src': '/static/foodstim60/cantaloupe.jpg', 'key': 'u', 'origWidth': 409, 'origHeight': 409, 'width': 409, 'height': 409, 'widthPercent': 0.45, 'rescaleHeight': False, 'trialN': 7, 'loaded': True, 'loadedTime': 13687.5, 'positionName': 'LEFT', 'positionCoords': [246.68, 179.5], 'bid': 0.91}, {'imgObject': {}, 'id': 'turkeysandwich', 'src': '/static/foodstim60/turkeysandwich.jpg', 'key': 'i', 'origWidth': 409, 'origHeight': 409, 'width': 409, 'height': 409, 'widthPercent': 0.45, 'rescaleHeight': False, 'trialN': 7, 'loaded': True, 'loadedTime': 12993.699999999997, 'positionName': 'RIGHT', 'positionCoords': [710.32, 179.5], 'bid': 2.27}]",36926.600000000006,1669830159632,cantaloupe,turkeysandwich,0.91,2.27,1.3599999999999999,cantaloupe,1317.5,1319,1319.2999999999884,True,u,38751.79999999999,1825.1999999999825,1669830161457,1825,HRV,HRV_0104,2022-11-30 17:47:40
8,"[{'imgObject': {}, 'id': 'cantaloupe', 'src': '/static/foodstim60/cantaloupe.jpg', 'key': 'u', 'origWidth': 409, 'origHeight': 409, 'width': 409, 'height': 409, 'widthPercent': 0.45, 'rescaleHeight': False, 'trialN': 8, 'loaded': True, 'loadedTime': 13688.100000000006, 'positionName': 'LEFT', 'positionCoords': [246.68, 179.5], 'bid': 0.91}, {'imgObject': {}, 'id': 'hashbrowns', 'src': '/static/foodstim60/hashbrowns.jpg', 'key': 'i', 'origWidth': 411, 'origHeight': 410, 'width': 411, 'height': 410, 'widthPercent': 0.45, 'rescaleHeight': False, 'trialN': 8, 'loaded': True, 'loadedTime': 13958.100000000006, 'positionName': 'RIGHT', 'positionCoords': [710.32, 179], 'bid': 0.98}]",38752.0,1669830161458,cantaloupe,hashbrowns,0.91,0.98,0.06999999999999995,cantaloupe,1642,1643,1643.2999999999884,True,u,40902.5,2150.5,1669830163608,2150,HRV,HRV_0104,2022-11-30 17:47:40
9,"[{'imgObject': {}, 'id': 'hashbrowns', 'src': '/static/foodstim60/hashbrowns.jpg', 'key': 'u', 'origWidth': 411, 'origHeight': 410, 'width': 411, 'height': 410, 'widthPercent': 0.45, 'rescaleHeight': False, 'trialN': 9, 'loaded': True, 'loadedTime': 13964.399999999994, 'positionName': 'LEFT', 'positionCoords': [244.68, 179], 'bid': 0.98}, {'imgObject': {}, 'id': 'turkey sandwich', 'src': '/static/foodstim60/turkey sandwich.jpg', 'key': 'i', 'origWidth': 409, 'origHeight': 409, 'width': 409, 'height': 409, 'widthPercent': 0.45, 'rescaleHeight': False, 'trialN': 9, 'loaded': True, 'loadedTime': 14412.5, 'positionName': 'RIGHT', 'positionCoords': [710.32, 179.5], 'bid': 2.64}]",40902.70000000001,1669830163608,hashbrowns,turkey sandwich,0.98,2.64,1.6600000000000001,hashbrowns,2391.399999999994,2397,2396.2999999999884,True,u,43807.79999999999,2905.0999999999767,1669830166513,2905,HRV,HRV_0104,2022-11-30 17:47:40
10,"[{'imgObject': {}, 'id': 'fried eggs', 'src': '/static/foodstim60/fried eggs.jpg', 'key': 'u', 'origWidth': 410, 'origHeight': 410, 'width': 410, 'height': 410, 'widthPercent': 0.45, 'rescaleHeight': False, 'trialN': 10, 'loaded': True, 'loadedTime': 14426.600000000006, 'positionName': 'LEFT', 'positionCoords': [245.68, 179], 'bid': 3.68}, {'imgObject': {}, 'id': 'blackbeanswithrice', 'src': '/static/foodstim60/blackbeanswithrice.jpg', 'key': 'i', 'origWidth': 410, 'origHeight': 410, 'width': 410, 'height': 410, 'widthPercent': 0.45, 'rescaleHeight': False, 'trialN': 10, 'loaded': True, 'loadedTime': 14456.100000000006, 'positionName': 'RIGHT', 'positionCoords': [710.32, 179], 'bid': 3.74}]",43808.79999999999,1669830166514,fried eggs,blackbeanswithrice,3.68,3.74,0.06000000000000005,fried eggs,1504.2000000000116,1506,1505.9000000000233,True,u,45823.600000000006,2014.8000000000175,1669830168529,2015,HRV,HRV_0104,2022-11-30 17:47:40
11,"[{'imgObject': {}, 'id': 'cocktailshrimp', 'src': '/static/foodstim60/cocktailshrimp.jpg', 'key': 'u', 'origWidth': 410, 'origHeight': 410, 'width': 410, 'height': 410, 'widthPercent': 0.45, 'rescaleHeight': False, 'trialN': 11, 'loaded': True, 'loadedTime': 14502.600000000006, 'positionName': 'LEFT', 'positionCoords': [245.68, 179], 'bid': 4.3500000000000005}, {'imgObject': {}, 'id': 'apple slices', 'src': '/static/foodstim60/apple slices.jpg', 'key': 'i', 'origWidth': 409, 'origHeight': 410, 'width': 409, 'height': 410, 'widthPercent': 0.45, 'rescaleHeight': False, 'trialN': 11, 'loaded': True, 'loadedTime': 14547.5, 'positionName': 'RIGHT', 'positionCoords': [710.32, 179], 'bid': 5.6000000000000005}]",45823.899999999994,1669830168529,cocktailshrimp,apple slices,4.3500000000000005,5.6000000000000005,1.25,apple slices,920.8999999999942,923,923.0,True,i,47254.79999999999,1430.8999999999942,1669830169960,1431,HRV,HRV_0104,2022-11-30 17:47:40
12,"[{'imgObject': {}, 'id': 'sweetpotato', 'src': '/static/foodstim60/sweetpotato.jpg', 'key': 'u', 'origWidth': 410, 'origHeight': 410, 'width': 410, 'height': 410, 'widthPercent': 0.45, 'rescaleHeight': False, 'trialN': 12, 'loaded': True, 'loadedTime': 14559.399999999994, 'positionName': 'LEFT', 'positionCoords': [245.68, 179], 'bid': 0.59}, {'imgObject': {}, 'id': 'ice cream sundae 002', 'src': '/static/foodstim60/ice cream sundae 002.jpg', 'key': 'i', 'origWidth': 409, 'origHeight': 409, 'width': 409, 'height': 409, 'widthPercent': 0.45, 'rescaleHeight': False, 'trialN': 12, 'loaded': True, 'loadedTime': 14697.5, 'positionName': 'RIGHT', 'positionCoords': [710.32, 179.5], 'bid': 5.29}]",47255.100000000006,1669830169961,sweetpotato,ice cream sundae 002,0.59,5.29,4.7,ice cream sundae 002,1486.5,1488,1487.8999999999942,True,i,49246.29999999999,1991.1999999999825,1669830171952,1991,HRV,HRV_0104,2022-11-30 17:47:40
13,"[{'imgObject': {}, 'id': 'cocktailshrimp', 'src': '/static/foodstim60/cocktailshrimp.jpg', 'key': 'u', 'origWidth': 410, 'origHeight': 410, 'width': 410, 'height': 410, 'widthPercent': 0.45, 'rescaleHeight': False, 'trialN': 13, 'loaded': True, 'loadedTime': 14524.5, 'positionName': 'LEFT', 'positionCoords': [245.68, 179], 'bid': 4.3500000000000005}, {'imgObject': {}, 'id': 'rigatoni and sauce', 'src': '/static/foodstim60/rigatoni and sauce.jpg', 'key': 'i', 'origWidth': 410, 'origHeight': 411, 'width': 410, 'height': 411, 'widthPercent': 0.45, 'rescaleHeight': False, 'trialN': 13, 'loaded': True, 'loadedTime': 14719.699999999997, 'positionName': 'RIGHT', 'positionCoords': [710.32, 178.5], 'bid': 8.89}]",49246.600000000006,1669830171952,cocktailshrimp,rigatoni and sauce,4.3500000000000005,8.89,4.54,rigatoni and sauce,994,995,995.2999999999884,True,i,50742.5,1495.8999999999942,1669830173448,1496,HRV,HRV_0104,2022-11-30 17:47:40
14,"[{'imgObject': {}, 'id': 'sushi w_condiments', 'src': '/static/foodstim60/sushi w_condiments.jpg', 'key': 'u', 'origWidth': 410, 'origHeight': 410, 'width': 410, 'height': 410, 'widthPercent': 0.45, 'rescaleHeight': False, 'trialN': 14, 'loaded': True, 'loadedTime': 14900.300000000003, 'positionName': 'LEFT', 'positionCoords': [245.68, 179], 'bid': 1.66}, {'imgObject': {}, 'id': 'hotdog w must', 'src': '/static/foodstim60/hotdog w must.jpg', 'key': 'i', 'origWidth': 409, 'origHeight': 409, 'width': 409, 'height': 409, 'widthPercent': 0.45, 'rescaleHeight': False, 'trialN': 14, 'loaded': True, 'loadedTime': 14901.300000000003, 'positionName': 'RIGHT', 'positionCoords': [710.32, 179.5], 'bid': 3.03}]",50742.70000000001,1669830173448,sushi w_condiments,hotdog w must,1.66,3.03,1.3699999999999999,hotdog w must,2109.2999999999884,2111,2111.0,True,i,53358.29999999999,2615.5999999999767,1669830176064,2616,HRV,HRV_0104,2022-11-30 17:47:40
15,"[{'imgObject': {}, 'id': 'avocado', 'src': '/static/foodstim60/avocado.jpg', 'key': 'u', 'origWidth': 409, 'origHeight': 409, 'width': 409, 'height': 409, 'widthPercent': 0.45, 'rescaleHeight': False, 'trialN': 15, 'loaded': True, 'loadedTime': 12806.199999999997, 'positionName': 'LEFT', 'positionCoords': [246.68, 179.5], 'bid': 0.19}, {'imgObject': {}, 'id': 'eggs', 'src': '/static/foodstim60/eggs.jpg', 'key': 'i', 'origWidth': 409, 'origHeight': 409, 'width': 409, 'height': 409, 'widthPercent': 0.45, 'rescaleHeight': False, 'trialN': 15, 'loaded': True, 'loadedTime': 15108.5, 'positionName': 'RIGHT', 'positionCoords': [710.32, 179.5], 'bid': 5.1000000000000005}]",53358.600000000006,1669830176064,avocado,eggs,0.19,5.1000000000000005,4.91,eggs,1088.6000000000058,1092,1091.6999999999825,True,i,54958.70000000001,1600.1000000000058,1669830177664,1600,HRV,HRV_0104,2022-11-30 17:47:40
16,"[{'imgObject': {}, 'id': 'grilled chicken strips', 'src': '/static/foodstim60/grilled chicken strips.jpg', 'key': 'u', 'origWidth': 410, 'origHeight': 411, 'width': 410, 'height': 411, 'widthPercent': 0.45, 'rescaleHeight': False, 'trialN': 16, 'loaded': True, 'loadedTime': 15135.600000000006, 'positionName': 'LEFT', 'positionCoords': [245.68, 178.5], 'bid': 7.69}, {'imgObject': {}, 'id': 'chickenfingers', 'src': '/static/foodstim60/chickenfingers.jpg', 'key': 'i', 'origWidth': 410, 'origHeight': 410, 'width': 410, 'height': 410, 'widthPercent': 0.45, 'rescaleHeight': False, 'trialN': 16, 'loaded': True, 'loadedTime': 15318.300000000003, 'positionName': 'RIGHT', 'positionCoords': [710.32, 179], 'bid': 8.26}]",54958.899999999994,1669830177664,grilled chicken strips,chickenfingers,7.69,8.26,0.5699999999999994,grilled chicken strips,2005,2007,2006.7000000000116,True,u,57471.0,2512.100000000006,1669830180177,2513,HRV,HRV_0104,2022-11-30 17:47:40
17,"[{'imgObject': {}, 'id': 'salad w chicken', 'src': '/static/foodstim60/salad w chicken.jpg', 'key': 'u', 'origWidth': 411, 'origHeight': 411, 'width': 411, 'height': 411, 'widthPercent': 0.45, 'rescaleHeight': False, 'trialN': 17, 'loaded': True, 'loadedTime': 15320.600000000006, 'positionName': 'LEFT', 'positionCoords': [244.68, 178.5], 'bid': 1.17}, {'imgObject': {}, 'id': 'olives', 'src': '/static/foodstim60/olives.jpg', 'key': 'i', 'origWidth': 410, 'origHeight': 410, 'width': 410, 'height': 410, 'widthPercent': 0.45, 'rescaleHeight': False, 'trialN': 17, 'loaded': True, 'loadedTime': 15637.399999999994, 'positionName': 'RIGHT', 'positionCoords': [710.32, 179], 'bid': 0.56}]",57471.29999999999,1669830180177,salad w chicken,olives,1.17,0.56,-0.6099999999999999,NaN,NaN,NaN,,False,NaN,61478.20000000001,4006.9000000000233,1669830184184,4007,HRV,HRV_0104,2022-11-30 17:47:40
18,"[{'imgObject': {}, 'id': 'fruitsalad', 'src': '/static/foodstim60/fruitsalad.jpg', 'key': 'u', 'origWidth': 410, 'origHeight': 410, 'width': 410, 'height': 410, 'widthPercent': 0.45, 'rescaleHeight': False, 'trialN': 18, 'loaded': True, 'loadedTime': 11362.5, 'positionName': 'LEFT', 'positionCoords': [245.68, 179], 'bid': 1.95}, {'imgObject': {}, 'id': 'avocado', 'src': '/static/foodstim60/avocado.jpg', 'key': 'i', 'origWidth': 409, 'origHeight': 409, 'width': 409, 'height': 409, 'widthPercent': 0.45, 'rescaleHeight': False, 'trialN': 18, 'loaded': True, 'loadedTime': 12800.600000000006, 'positionName': 'RIGHT', 'positionCoords': [710.32, 179.5], 'bid': 0.19}]",61478.5,1669830184184,fruitsalad,avocado,1.95,0.19,-1.76,fruitsalad,1128.6000000000058,1130,1130.1000000000058,True,u,63110.399999999994,1631.8999999999942,1669830185816,1632,HRV,HRV_0104,2022-11-30 17:47:40
19,"[{'imgObject': {}, 'id': 'hotdog w must', 'src': '/static/foodstim60/hotdog w must.jpg', 'key': 'u', 'origWidth': 409, 'origHeight': 409, 'width': 409, 'height': 409, 'widthPercent': 0.45, 'rescaleHeight': False, 'trialN': 19, 'loaded': True, 'loadedTime': 14906.399999999994, 'positionName': 'LEFT', 'positionCoords': [246.68, 179.5], 'bid': 3.03}, {'imgObject': {}, 'id': 'tacos', 'src': '/static/foodstim60/tacos.jpg', 'key': 'i', 'origWidth': 411, 'origHeight': 411, 'width': 411, 'height': 411, 'widthPercent': 0.45, 'rescaleHeight': False, 'trialN': 19, 'loaded': True, 'loadedTime': 12575.300000000003, 'positionName': 'RIGHT', 'positionCoords': [710.32, 178.5], 'bid': 2.73}]",63110.70000000001,1669830185816,hotdog w must,tacos,3.03,2.73,-0.2999999999999998,hotdog w must,1178.5999999999767,1181,1180.5999999999767,True,u,64798.29999999999,1687.5999999999767,1669830187504,1688,HRV,HRV_0104,2022-11-30 17:47:40
20,"[{'imgObject': {}, 'id': 'bagel and cc', 'src': '/static/foodstim60/bagel and cc.jpg', 'key': 'u', 'origWidth': 410, 'origHeight': 410, 'width': 410, 'height': 410, 'widthPercent': 0.45, 'rescaleHeight': False, 'trialN': 20, 'loaded': True, 'loadedTime': 15647.799999999988, 'positionName': 'LEFT', 'positionCoords': [245.68, 179], 'bid': 7.1000000000000005}, {'imgObject': {}, 'id': 'baked potato', 'src': '/static/foodstim60/baked potato.jpg', 'key': 'i', 'origWidth': 409, 'origHeight': 410, 'width': 409, 'height': 410, 'widthPercent': 0.45, 'rescaleHeight': False, 'trialN': 20, 'loaded': True, 'loadedTime': 15688.100000000006, 'positionName': 'RIGHT', 'positionCoords': [710.32, 179], 'bid': 7.26}]",64798.600000000006,1669830187504,bagel and cc,baked potato,7.1000000000000005,7.26,0.15999999999999925,bagel and cc,1564.6000000000058,1567,1566.6999999999825,True,u,66870.4,2071.7999999999884,1669830189576,2072,HRV,HRV_0104,2022-11-30 17:47:40
21,"[{'imgObject': {}, 'id': 'cherries', 'src': '/static/foodstim60/cherries.jpg', 'key': 'u', 'origWidth': 410, 'origHeight': 411, 'width': 410, 'height': 411, 'widthPercent': 0.45, 'rescaleHeight': False, 'trialN': 21, 'loaded': True, 'loadedTime': 15740.299999999988, 'positionName': 'LEFT', 'positionCoords': [245.68, 178.5], 'bid': 5.87}, {'imgObject': {}, 'id': 'veggieswithdip', 'src': '/static/foodstim60/veggieswithdip.jpg', 'key': 'i', 'origWidth': 409, 'origHeight': 409, 'width': 409, 'height': 409, 'widthPercent': 0.45, 'rescaleHeight': False, 'trialN': 21, 'loaded': True, 'loadedTime': 15776.200000000012, 'positionName': 'RIGHT', 'positionCoords': [710.32, 179.5], 'bid': 1.39}]",66870.79999999999,1669830189576,cherries,veggieswithdip,5.87,1.39,-4.48,cherries,1101.2000000000116,1103,1102.7000000000116,True,u,68479.1,1608.3000000000175,1669830191185,1609,HRV,HRV_0104,2022-11-30 17:47:40
22,"[{'imgObject': {}, 'id': 'cherries', 'src': '/static/foodstim60/cherries.jpg', 'key': 'u', 'origWidth': 410, 'origHeight': 411, 'width': 410, 'height': 411, 'widthPercent': 0.45, 'rescaleHeight': False, 'trialN': 22, 'loaded': True, 'loadedTime': 15763.700000000012, 'positionName': 'LEFT', 'positionCoords': [245.68, 178.5], 'bid': 5.87}, {'imgObject': {}, 'id': 'chicken nuggets2', 'src': '/static/foodstim60/chicken nuggets2.jpg', 'key': 'i', 'origWidth': 410, 'origHeight': 409, 'width': 410, 'height': 409, 'widthPercent': 0.45, 'rescaleHeight': False, 'trialN': 22, 'loaded': True, 'loadedTime': 15812.299999999988, 'positionName': 'RIGHT', 'positionCoords': [710.32, 179.5], 'bid': 9.31}]",68479.4,1669830191185,cherries,chicken nuggets2,5.87,9.31,3.4400000000000004,chicken nuggets2,765.3000000000175,767,766.8999999999942,True,i,69750.4,1271.0,1669830192456,1271,HRV,HRV_0104,2022-11-30 17:47:40
23,"[{'imgObject': {}, 'id': 'omelette', 'src': '/static/foodstim60/omelette.jpg', 'key': 'u', 'origWidth': 410, 'origHeight': 409, 'width': 410, 'height': 409, 'widthPercent': 0.45, 'rescaleHeight': False, 'trialN': 23, 'loaded': True, 'loadedTime': 11975.800000000003, 'positionName': 'LEFT', 'positionCoords': [245.68, 179.5], 'bid': 3.79}, {'imgObject': {}, 'id': 'salad w chicken', 'src': '/static/foodstim60/salad w chicken.jpg', 'key': 'i', 'origWidth': 411, 'origHeight': 411, 'width': 411, 'height': 411, 'widthPercent': 0.45, 'rescaleHeight': False, 'trialN': 23, 'loaded': True, 'loadedTime': 15318.899999999994, 'positionName': 'RIGHT', 'positionCoords': [710.32, 178.5], 'bid': 1.17}]",69750.6,1669830192456,omelette,salad w chicken,3.79,1.17,-2.62,omelette,1101.8999999999942,1103,1103.2999999999884,True,u,71359.0,1608.3999999999942,1669830194065,1609,HRV,HRV_0104,2022-11-30 17:47:40
24,"[{'imgObject': {}, 'id': 'granola w milk', 'src': '/static/foodstim60/granola w milk.jpg', 'key': 'u', 'origWidth': 410, 'origHeight': 410, 'width': 410, 'height': 410, 'widthPercent': 0.45, 'rescaleHeight': False, 'trialN': 24, 'loaded': True, 'loadedTime': 15818.700000000012, 'positionName': 'LEFT', 'positionCoords': [245.68, 179], 'bid': 5.79}, {'imgObject': {}, 'id': 'roastedpotatoes', 'src': '/static/foodstim60/roastedpotatoes.jpg', 'key': 'i', 'origWidth': 409, 'origHeight': 410, 'width': 409, 'height': 410, 'widthPercent': 0.45, 'rescaleHeight': False, 'trialN': 24, 'loaded': True, 'loadedTime': 15830.200000000012, 'positionName': 'RIGHT', 'positionCoords': [710.32, 179], 'bid': 8.74}]",71359.29999999999,1669830194065,granola w milk,roastedpotatoes,5.79,8.74,2.95,roastedpotatoes,1275.6000000000058,1277,1277.3000000000175,True,i,73142.5,1783.2000000000116,1669830195848,1783,HRV,HRV_0104,2022-11-30 17:47:40
25,"[{'imgObject': {}, 'id': 'Grapes', 'src': '/static/foodstim60/Grapes.jpg', 'key': 'u', 'origWidth': 411, 'origHeight': 411, 'width': 411, 'height': 411, 'widthPercent': 0.45, 'rescaleHeight': False, 'trialN': 25, 'loaded': True, 'loadedTime': 15907.5, 'positionName': 'LEFT', 'positionCoords': [244.68, 178.5], 'bid': 5.73}, {'imgObject': {}, 'id': 'strawberries', 'src': '/static/foodstim60/strawberries.jpg', 'key': 'i', 'origWidth': 410, 'origHeight': 410, 'width': 410, 'height': 410, 'widthPercent': 0.45, 'rescaleHeight': False, 'trialN': 25, 'loaded': True, 'loadedTime': 16129.200000000012, 'positionName': 'RIGHT', 'positionCoords': [710.32, 179], 'bid': 6.0600000000000005}]",73142.70000000001,1669830195848,Grapes,strawberries,5.73,6.0600000000000005,0.33000000000000007,strawberries,1152.5999999999767,1158,1157.7999999999884,True,i,74806.29999999999,1663.5999999999767,1669830197512,1664,HRV,HRV_0104,2022-11-30 17:47:40
26,"[{'imgObject': {}, 'id': 'fried eggs', 'src': '/static/foodstim60/fried eggs.jpg', 'key': 'u', 'origWidth': 410, 'origHeight': 410, 'width': 410, 'height': 410, 'widthPercent': 0.45, 'rescaleHeight': False, 'trialN': 26, 'loaded': True, 'loadedTime': 14427, 'positionName': 'LEFT', 'positionCoords': [245.68, 179], 'bid': 3.68}, {'imgObject': {}, 'id': 'edamame', 'src': '/static/foodstim60/edamame.jpg', 'key': 'i', 'origWidth': 409, 'origHeight': 410, 'width': 409, 'height': 410, 'widthPercent': 0.45, 'rescaleHeight': False, 'trialN': 26, 'loaded': True, 'loadedTime': 16147.899999999994, 'positionName': 'RIGHT', 'positionCoords': [710.32, 179], 'bid': 3.49}]",74806.5,1669830197512,fried eggs,edamame,3.68,3.49,-0.18999999999999995,fried eggs,1006.6000000000058,1008,1008.2000000000116,True,u,76318.4,1511.8999999999942,1669830199024,1512,HRV,HRV_0104,2022-11-30 17:47:40
27,"[{'imgObject': {}, 'id': 'mango', 'src': '/static/foodstim60/mango.jpg', 'key': 'u', 'origWidth': 411, 'origHeight': 411, 'width': 411, 'height': 411, 'widthPercent': 0.45, 'rescaleHeight': False, 'trialN': 27, 'loaded': True, 'loadedTime': 16158.100000000006, 'positionName': 'LEFT', 'positionCoords': [244.68, 178.5], 'bid': 1.79}, {'imgObject': {}, 'id': 'yogurt no spoon', 'src': '/static/foodstim60/yogurt no spoon.jpg', 'key': 'i', 'origWidth': 411, 'origHeight': 410, 'width': 411, 'height': 410, 'widthPercent': 0.45, 'rescaleHeight': False, 'trialN': 27, 'loaded': True, 'loadedTime': 16349, 'positionName': 'RIGHT', 'positionCoords': [710.32, 179], 'bid': 4.97}]",76318.6,1669830199024,mango,yogurt no spoon,1.79,4.97,3.1799999999999997,yogurt no spoon,1194.6000000000058,1197,1196.6999999999825,True,i,78022.4,1703.7999999999884,1669830200728,1704,HRV,HRV_0104,2022-11-30 17:47:40
28,"[{'imgObject': {}, 'id': 'hashbrowns', 'src': '/static/foodstim60/hashbrowns.jpg', 'key': 'u', 'origWidth': 411, 'origHeight': 410, 'width': 411, 'height': 410, 'widthPercent': 0.45, 'rescaleHeight': False, 'trialN': 28, 'loaded': True, 'loadedTime': 13969.100000000006, 'positionName': 'LEFT', 'positionCoords': [244.68, 179], 'bid': 0.98}, {'imgObject': {}, 'id': 'fried eggs', 'src': '/static/foodstim60/fried eggs.jpg', 'key': 'i', 'origWidth': 410, 'origHeight': 410, 'width': 410, 'height': 410, 'widthPercent': 0.45, 'rescaleHeight': False, 'trialN': 28, 'loaded': True, 'loadedTime': 14426.5, 'positionName': 'RIGHT', 'positionCoords': [710.32, 179], 'bid': 3.68}]",78022.70000000001,1669830200728,hashbrowns,fried eggs,0.98,3.68,2.7,fried eggs,969,971,970.5999999999767,True,i,79494.79999999999,1472.0999999999767,1669830202200,1472,HRV,HRV_0104,2022-11-30 17:47:40
29,"[{'imgObject': {}, 'id': 'popsicles', 'src': '/static/foodstim60/popsicles.jpg', 'key': 'u', 'origWidth': 410, 'origHeight': 410, 'width': 410, 'height': 410, 'widthPercent': 0.45, 'rescaleHeight': False, 'trialN': 29, 'loaded': True, 'loadedTime': 16357.700000000012, 'positionName': 'LEFT', 'positionCoords': [245.68, 179], 'bid': 4.53}, {'imgObject': {}, 'id': 'veggieswithdip', 'src': '/static/foodstim60/veggieswithdip.jpg', 'key': 'i', 'origWidth': 409, 'origHeight': 409, 'width': 409, 'height': 409, 'widthPercent': 0.45, 'rescaleHeight': False, 'trialN': 29, 'loaded': True, 'loadedTime': 15790.600000000006, 'positionName': 'RIGHT', 'positionCoords': [710.32, 179.5], 'bid': 1.39}]",79495.1,1669830202201,popsicles,veggieswithdip,4.53,1.39,-3.1400000000000006,popsicles,1058.2999999999884,1059,1059.6999999999825,True,u,81062.70000000001,1567.6000000000058,1669830203768,1567,HRV,HRV_0104,2022-11-30 17:47:40
30,"[{'imgObject': {}, 'id': 'turkey sandwich', 'src': '/static/foodstim60/turkey sandwich.jpg', 'key': 'u', 'origWidth': 409, 'origHeight': 409, 'width': 409, 'height': 409, 'widthPercent': 0.45, 'rescaleHeight': False, 'trialN': 30, 'loaded': True, 'loadedTime': 13978.699999999997, 'positionName': 'LEFT', 'positionCoords': [246.68, 179.5], 'bid': 2.64}, {'imgObject': {}, 'id': 'blackbeanswithrice', 'src': '/static/foodstim60/blackbeanswithrice.jpg', 'key': 'i', 'origWidth': 410, 'origHeight': 410, 'width': 410, 'height': 410, 'widthPercent': 0.45, 'rescaleHeight': False, 'trialN': 30, 'loaded': True, 'loadedTime': 14455.899999999994, 'positionName': 'RIGHT', 'positionCoords': [710.32, 179], 'bid': 3.74}]",81062.9,1669830203768,turkey sandwich,blackbeanswithrice,2.64,3.74,1.1,blackbeanswithrice,1191.1000000000058,1193,1192.3999999999942,True,i,82759.0,1696.1000000000058,1669830205464,1696,HRV,HRV_0104,2022-11-30 17:47:40
31,"[{'imgObject': {}, 'id': 'mango', 'src': '/static/foodstim60/mango.jpg', 'key': 'u', 'origWidth': 411, 'origHeight': 411, 'width': 411, 'height': 411, 'widthPercent': 0.45, 'rescaleHeight': False, 'trialN': 31, 'loaded': True, 'loadedTime': 16156.299999999988, 'positionName': 'LEFT', 'positionCoords': [244.68, 178.5], 'bid': 1.79}, {'imgObject': {}, 'id': 'shreddedwheatwithmilk', 'src': '/static/foodstim60/shreddedwheatwithmilk.jpg', 'key': 'i', 'origWidth': 410, 'origHeight': 410, 'width': 410, 'height': 410, 'widthPercent': 0.45, 'rescaleHeight': False, 'trialN': 31, 'loaded': True, 'loadedTime': 16358.5, 'positionName': 'RIGHT', 'positionCoords': [710.32, 179], 'bid': 6.01}]",82759.29999999999,1669830205465,mango,shreddedwheatwithmilk,1.79,6.01,4.22,shreddedwheatwithmilk,1357.2000000000116,1358,1358.4000000000233,True,i,84622.4,1863.1000000000058,1669830207328,1863,HRV,HRV_0104,2022-11-30 17:47:40
32,"[{'imgObject': {}, 'id': 'cherries', 'src': '/static/foodstim60/cherries.jpg', 'key': 'u', 'origWidth': 410, 'origHeight': 411, 'width': 410, 'height': 411, 'widthPercent': 0.45, 'rescaleHeight': False, 'trialN': 32, 'loaded': True, 'loadedTime': 15763.5, 'positionName': 'LEFT', 'positionCoords': [245.68, 178.5], 'bid': 5.87}, {'imgObject': {}, 'id': 'apple slices', 'src': '/static/foodstim60/apple slices.jpg', 'key': 'i', 'origWidth': 409, 'origHeight': 410, 'width': 409, 'height': 410, 'widthPercent': 0.45, 'rescaleHeight': False, 'trialN': 32, 'loaded': True, 'loadedTime': 14552.600000000006, 'positionName': 'RIGHT', 'positionCoords': [710.32, 179], 'bid': 5.6000000000000005}]",84622.6,1669830207328,cherries,apple slices,5.87,5.6000000000000005,-0.2699999999999996,apple slices,1254.8999999999942,1257,1257.0,True,i,86382.5,1759.8999999999942,1669830209088,1760,HRV,HRV_0104,2022-11-30 17:47:40
33,"[{'imgObject': {}, 'id': 'rigatoni and sauce', 'src': '/static/foodstim60/rigatoni and sauce.jpg', 'key': 'u', 'origWidth': 410, 'origHeight': 411, 'width': 410, 'height': 411, 'widthPercent': 0.45, 'rescaleHeight': False, 'trialN': 33, 'loaded': True, 'loadedTime': 14703.899999999994, 'positionName': 'LEFT', 'positionCoords': [245.68, 178.5], 'bid': 8.89}, {'imgObject': {}, 'id': 'banana', 'src': '/static/foodstim60/banana.jpg', 'key': 'i', 'origWidth': 410, 'origHeight': 410, 'width': 410, 'height': 410, 'widthPercent': 0.45, 'rescaleHeight': False, 'trialN': 33, 'loaded': True, 'loadedTime': 12370.300000000003, 'positionName': 'RIGHT', 'positionCoords': [710.32, 179], 'bid': 6.11}]",86382.70000000001,1669830209088,rigatoni and sauce,banana,8.89,6.11,-2.7800000000000002,rigatoni and sauce,846.1999999999825,848,848.0999999999767,True,u,87734.5,1351.7999999999884,1669830210440,1352,HRV,HRV_0104,2022-11-30 17:47:40
34,"[{'imgObject': {}, 'id': 'bagel and cc', 'src': '/static/foodstim60/bagel and cc.jpg', 'key': 'u', 'origWidth': 410, 'origHeight': 410, 'width': 410, 'height': 410, 'widthPercent': 0.45, 'rescaleHeight': False, 'trialN': 34, 'loaded': True, 'loadedTime': 15646.399999999994, 'positionName': 'LEFT', 'positionCoords': [245.68, 179], 'bid': 7.1000000000000005}, {'imgObject': {}, 'id': 'edamame', 'src': '/static/foodstim60/edamame.jpg', 'key': 'i', 'origWidth': 409, 'origHeight': 410, 'width': 409, 'height': 410, 'widthPercent': 0.45, 'rescaleHeight': False, 'trialN': 34, 'loaded': True, 'loadedTime': 16144.100000000006, 'positionName': 'RIGHT', 'positionCoords': [710.32, 179], 'bid': 3.49}]",87734.70000000001,1669830210440,bagel and cc,edamame,7.1000000000000005,3.49,-3.6100000000000003,bagel and cc,1022.7999999999884,1025,1025.0999999999767,True,u,89262.79999999999,1528.0999999999767,1669830211968,1528,HRV,HRV_0104,2022-11-30 17:47:40
35,"[{'imgObject': {}, 'id': 'froot loops w milk', 'src': '/static/foodstim60/froot loops w milk.jpg', 'key': 'u', 'origWidth': 410, 'origHeight': 410, 'width': 410, 'height': 410, 'widthPercent': 0.45, 'rescaleHeight': False, 'trialN': 35, 'loaded': True, 'loadedTime': 16402, 'positionName': 'LEFT', 'positionCoords': [245.68, 179], 'bid': 6.4}, {'imgObject': {}, 'id': 'ice cream sundae 002', 'src': '/static/foodstim60/ice cream sundae 002.jpg', 'key': 'i', 'origWidth': 409, 'origHeight': 409, 'width': 409, 'height': 409, 'widthPercent': 0.45, 'rescaleHeight': False, 'trialN': 35, 'loaded': True, 'loadedTime': 14567.100000000006, 'positionName': 'RIGHT', 'positionCoords': [710.32, 179.5], 'bid': 5.29}]",89263.0,1669830211969,froot loops w milk,ice cream sundae 002,6.4,5.29,-1.1100000000000003,froot loops w milk,1164.3999999999942,1165,1165.8999999999942,True,u,90934.5,1671.5,1669830213640,1671,HRV,HRV_0104,2022-11-30 17:47:40
36,"[{'imgObject': {}, 'id': 'cherry tomato', 'src': '/static/foodstim60/cherry tomato.jpg', 'key': 'u', 'origWidth': 410, 'origHeight': 410, 'width': 410, 'height': 410, 'widthPercent': 0.45, 'rescaleHeight': False, 'trialN': 36, 'loaded': True, 'loadedTime': 16560.20000000001, 'positionName': 'LEFT', 'positionCoords': [245.68, 179], 'bid': 0.38}, {'imgObject': {}, 'id': 'salmon', 'src': '/static/foodstim60/salmon.jpg', 'key': 'i', 'origWidth': 410, 'origHeight': 409, 'width': 410, 'height': 409, 'widthPercent': 0.45, 'rescaleHeight': False, 'trialN': 36, 'loaded': True, 'loadedTime': 16570, 'positionName': 'RIGHT', 'positionCoords': [710.32, 179.5], 'bid': 1.14}]",90934.70000000001,1669830213640,cherry tomato,salmon,0.38,1.14,0.7599999999999999,NaN,NaN,NaN,,False,NaN,94942.29999999999,4007.5999999999767,1669830217648,4008,HRV,HRV_0104,2022-11-30 17:47:40
37,"[{'imgObject': {}, 'id': 'mango', 'src': '/static/foodstim60/mango.jpg', 'key': 'u', 'origWidth': 411, 'origHeight': 411, 'width': 411, 'height': 411, 'widthPercent': 0.45, 'rescaleHeight': False, 'trialN': 37, 'loaded': True, 'loadedTime': 16166.299999999988, 'positionName': 'LEFT', 'positionCoords': [244.68, 178.5], 'bid': 1.79}, {'imgObject': {}, 'id': 'fruitsalad', 'src': '/static/foodstim60/fruitsalad.jpg', 'key': 'i', 'origWidth': 410, 'origHeight': 410, 'width': 410, 'height': 410, 'widthPercent': 0.45, 'rescaleHeight': False, 'trialN': 37, 'loaded': True, 'loadedTime': 11356.899999999994, 'positionName': 'RIGHT', 'positionCoords': [710.32, 179], 'bid': 1.95}]",94942.6,1669830217648,mango,fruitsalad,1.79,1.95,0.15999999999999992,fruitsalad,1018.5,1020,1020.2999999999884,True,i,96470.29999999999,1527.6999999999825,1669830219176,1528,HRV,HRV_0104,2022-11-30 17:47:40
38,"[{'imgObject': {}, 'id': 'cherries', 'src': '/static/foodstim60/cherries.jpg', 'key': 'u', 'origWidth': 410, 'origHeight': 411, 'width': 410, 'height': 411, 'widthPercent': 0.45, 'rescaleHeight': False, 'trialN': 38, 'loaded': True, 'loadedTime': 15753.600000000006, 'positionName': 'LEFT', 'positionCoords': [245.68, 178.5], 'bid': 5.87}, {'imgObject': {}, 'id': 'grilled chicken strips', 'src': '/static/foodstim60/grilled chicken strips.jpg', 'key': 'i', 'origWidth': 410, 'origHeight': 411, 'width': 410, 'height': 411, 'widthPercent': 0.45, 'rescaleHeight': False, 'trialN': 38, 'loaded': True, 'loadedTime': 15108.699999999997, 'positionName': 'RIGHT', 'positionCoords': [710.32, 178.5], 'bid': 7.69}]",96470.6,1669830219176,cherries,grilled chicken strips,5.87,7.69,1.8200000000000003,grilled chicken strips,850.2999999999884,852,851.5,True,i,97830.29999999999,1359.6999999999825,1669830220536,1360,HRV,HRV_0104,2022-11-30 17:47:40
39,"[{'imgObject': {}, 'id': 'eggs', 'src': '/static/foodstim60/eggs.jpg', 'key': 'u', 'origWidth': 409, 'origHeight': 409, 'width': 409, 'height': 409, 'widthPercent': 0.45, 'rescaleHeight': False, 'trialN': 39, 'loaded': True, 'loadedTime': 14908.199999999997, 'positionName': 'LEFT', 'positionCoords': [246.68, 179.5], 'bid': 5.1000000000000005}, {'imgObject': {}, 'id': 'strawberries', 'src': '/static/foodstim60/strawberries.jpg', 'key': 'i', 'origWidth': 410, 'origHeight': 410, 'width': 410, 'height': 410, 'widthPercent': 0.45, 'rescaleHeight': False, 'trialN': 39, 'loaded': True, 'loadedTime': 16123.399999999994, 'positionName': 'RIGHT', 'positionCoords': [710.32, 179], 'bid': 6.0600000000000005}]",97830.6,1669830220536,eggs,strawberries,5.1000000000000005,6.0600000000000005,0.96,strawberries,924.5,926,926.1000000000058,True,i,99262.79999999999,1432.1999999999825,1669830221968,1432,HRV,HRV_0104,2022-11-30 17:47:40
40,"[{'imgObject': {}, 'id': 'mashed potato', 'src': '/static/foodstim60/mashed potato.jpg', 'key': 'u', 'origWidth': 409, 'origHeight': 409, 'width': 409, 'height': 409, 'widthPercent': 0.45, 'rescaleHeight': False, 'trialN': 40, 'loaded': True, 'loadedTime': 13463.199999999997, 'positionName': 'LEFT', 'positionCoords': [246.68, 179.5], 'bid': 7.890000000000001}, {'imgObject': {}, 'id': 'steak', 'src': '/static/foodstim60/steak.jpg', 'key': 'i', 'origWidth': 410, 'origHeight': 410, 'width': 410, 'height': 410, 'widthPercent': 0.45, 'rescaleHeight': False, 'trialN': 40, 'loaded': True, 'loadedTime': 16574.20000000001, 'positionName': 'RIGHT', 'positionCoords': [710.32, 179], 'bid': 10}]",99263.0,1669830221969,mashed potato,steak,7.890000000000001,10.0,2.1099999999999994,steak,874.3999999999942,876,876.6000000000058,True,i,100646.29999999999,1383.2999999999884,1669830223352,1383,HRV,HRV_0104,2022-11-30 17:47:40
41,"[{'imgObject': {}, 'id': 'baked potato', 'src': '/static/foodstim60/baked potato.jpg', 'key': 'u', 'origWidth': 409, 'origHeight': 410, 'width': 409, 'height': 410, 'widthPercent': 0.45, 'rescaleHeight': False, 'trialN': 41, 'loaded': True, 'loadedTime': 15708.600000000006, 'positionName': 'LEFT', 'positionCoords': [246.68, 179], 'bid': 7.26}, {'imgObject': {}, 'id': 'apple slices', 'src': '/static/foodstim60/apple slices.jpg', 'key': 'i', 'origWidth': 409, 'origHeight': 410, 'width': 409, 'height': 410, 'widthPercent': 0.45, 'rescaleHeight': False, 'trialN': 41, 'loaded': True, 'loadedTime': 14547.800000000003, 'positionName': 'RIGHT', 'positionCoords': [710.32, 179], 'bid': 5.6000000000000005}]",100646.5,1669830223352,baked potato,apple slices,7.26,5.6000000000000005,-1.6599999999999993,baked potato,1074.2000000000116,1076,1075.8999999999942,True,u,102230.4,1583.8999999999942,1669830224936,1584,HRV,HRV_0104,2022-11-30 17:47:40
42,"[{'imgObject': {}, 'id': 'cheerios', 'src': '/static/foodstim60/cheerios.jpg', 'key': 'u', 'origWidth': 409, 'origHeight': 410, 'width': 409, 'height': 410, 'widthPercent': 0.45, 'rescaleHeight': False, 'trialN': 42, 'loaded': True, 'loadedTime': 16593.29999999999, 'positionName': 'LEFT', 'positionCoords': [246.68, 179], 'bid': 5.29}, {'imgObject': {}, 'id': 'blackbeanswithrice', 'src': '/static/foodstim60/blackbeanswithrice.jpg', 'key': 'i', 'origWidth': 410, 'origHeight': 410, 'width': 410, 'height': 410, 'widthPercent': 0.45, 'rescaleHeight': False, 'trialN': 42, 'loaded': True, 'loadedTime': 14456.199999999997, 'positionName': 'RIGHT', 'positionCoords': [710.32, 179], 'bid': 3.74}]",102230.6,1669830224936,cheerios,blackbeanswithrice,5.29,3.74,-1.5499999999999998,cheerios,1078.6000000000058,1081,1080.5,True,u,103814.4,1583.7999999999884,1669830226520,1584,HRV,HRV_0104,2022-11-30 17:47:40
43,"[{'imgObject': {}, 'id': 'granola w milk', 'src': '/static/foodstim60/granola w milk.jpg', 'key': 'u', 'origWidth': 410, 'origHeight': 410, 'width': 410, 'height': 410, 'widthPercent': 0.45, 'rescaleHeight': False, 'trialN': 43, 'loaded': True, 'loadedTime': 15826.100000000006, 'positionName': 'LEFT', 'positionCoords': [245.68, 179], 'bid': 5.79}, {'imgObject': {}, 'id': 'luckycharms', 'src': '/static/foodstim60/luckycharms.jpg', 'key': 'i', 'origWidth': 410, 'origHeight': 409, 'width': 410, 'height': 409, 'widthPercent': 0.45, 'rescaleHeight': False, 'trialN': 43, 'loaded': True, 'loadedTime': 16596.899999999994, 'positionName': 'RIGHT', 'positionCoords': [710.32, 179.5], 'bid': 5.8}]",103814.70000000001,1669830226520,granola w milk,luckycharms,5.79,5.8,0.009999999999999787,luckycharms,1228.5,1230,1229.6999999999825,True,i,105550.29999999999,1735.5999999999767,1669830228256,1736,HRV,HRV_0104,2022-11-30 17:47:40
44,"[{'imgObject': {}, 'id': 'fruitsalad', 'src': '/static/foodstim60/fruitsalad.jpg', 'key': 'u', 'origWidth': 410, 'origHeight': 410, 'width': 410, 'height': 410, 'widthPercent': 0.45, 'rescaleHeight': False, 'trialN': 44, 'loaded': True, 'loadedTime': 11363, 'positionName': 'LEFT', 'positionCoords': [245.68, 179], 'bid': 1.95}, {'imgObject': {}, 'id': 'sushi w_condiments', 'src': '/static/foodstim60/sushi w_condiments.jpg', 'key': 'i', 'origWidth': 410, 'origHeight': 410, 'width': 410, 'height': 410, 'widthPercent': 0.45, 'rescaleHeight': False, 'trialN': 44, 'loaded': True, 'loadedTime': 14901.100000000006, 'positionName': 'RIGHT', 'positionCoords': [710.32, 179], 'bid': 1.66}]",105550.70000000001,1669830228256,fruitsalad,sushi w_condiments,1.95,1.66,-0.29000000000000004,fruitsalad,867,869,868.2999999999884,True,u,106926.20000000001,1375.5,1669830229632,1376,HRV,HRV_0104,2022-11-30 17:47:40
45,"[{'imgObject': {}, 'id': 'kiwi', 'src': '/static/foodstim60/kiwi.jpg', 'key': 'u', 'origWidth': 410, 'origHeight': 410, 'width': 410, 'height': 410, 'widthPercent': 0.45, 'rescaleHeight': False, 'trialN': 45, 'loaded': True, 'loadedTime': 11746, 'positionName': 'LEFT', 'positionCoords': [245.68, 179], 'bid': 1.19}, {'imgObject': {}, 'id': 'granola w milk', 'src': '/static/foodstim60/granola w milk.jpg', 'key': 'i', 'origWidth': 410, 'origHeight': 410, 'width': 410, 'height': 410, 'widthPercent': 0.45, 'rescaleHeight': False, 'trialN': 45, 'loaded': True, 'loadedTime': 15818.100000000006, 'positionName': 'RIGHT', 'positionCoords': [710.32, 179], 'bid': 5.79}]",106926.6,1669830229632,kiwi,granola w milk,1.19,5.79,4.6,granola w milk,1286.6999999999825,1288,1288.0,True,i,108718.4,1791.7999999999884,1669830231424,1792,HRV,HRV_0104,2022-11-30 17:47:40
46,"[{'imgObject': {}, 'id': 'yogurt no spoon', 'src': '/static/foodstim60/yogurt no spoon.jpg', 'key': 'u', 'origWidth': 411, 'origHeight': 410, 'width': 411, 'height': 410, 'widthPercent': 0.45, 'rescaleHeight': False, 'trialN': 46, 'loaded': True, 'loadedTime': 16348.200000000012, 'positionName': 'LEFT', 'positionCoords': [244.68, 179], 'bid': 4.97}, {'imgObject': {}, 'id': 'blueberries', 'src': '/static/foodstim60/blueberries.jpg', 'key': 'i', 'origWidth': 411, 'origHeight': 411, 'width': 411, 'height': 411, 'widthPercent': 0.45, 'rescaleHeight': False, 'trialN': 46, 'loaded': True, 'loadedTime': 16873.899999999994, 'positionName': 'RIGHT', 'positionCoords': [710.32, 178.5], 'bid': 5.46}]",108718.6,1669830231424,yogurt no spoon,blueberries,4.97,5.46,0.4900000000000002,yogurt no spoon,1193,1195,1194.5,True,u,110414.29999999999,1695.6999999999825,1669830233120,1696,HRV,HRV_0104,2022-11-30 17:47:40
47,"[{'imgObject': {}, 'id': 'blueberries', 'src': '/static/foodstim60/blueberries.jpg', 'key': 'u', 'origWidth': 411, 'origHeight': 411, 'width': 411, 'height': 411, 'widthPercent': 0.45, 'rescaleHeight': False, 'trialN': 47, 'loaded': True, 'loadedTime': 16870.29999999999, 'positionName': 'LEFT', 'positionCoords': [244.68, 178.5], 'bid': 5.46}, {'imgObject': {}, 'id': 'cheerios', 'src': '/static/foodstim60/cheerios.jpg', 'key': 'i', 'origWidth': 409, 'origHeight': 410, 'width': 409, 'height': 410, 'widthPercent': 0.45, 'rescaleHeight': False, 'trialN': 47, 'loaded': True, 'loadedTime': 16588.5, 'positionName': 'RIGHT', 'positionCoords': [710.32, 179], 'bid': 5.29}]",110414.70000000001,1669830233120,blueberries,cheerios,5.46,5.29,-0.16999999999999993,blueberries,1119,1121,1121.1999999999825,True,u,112038.4,1623.6999999999825,1669830234744,1624,HRV,HRV_0104,2022-11-30 17:47:40
48,"[{'imgObject': {}, 'id': 'kiwi', 'src': '/static/foodstim60/kiwi.jpg', 'key': 'u', 'origWidth': 410, 'origHeight': 410, 'width': 410, 'height': 410, 'widthPercent': 0.45, 'rescaleHeight': False, 'trialN': 48, 'loaded': True, 'loadedTime': 11746.699999999997, 'positionName': 'LEFT', 'positionCoords': [245.68, 179], 'bid': 1.19}, {'imgObject': {}, 'id': 'lox', 'src': '/static/foodstim60/lox.jpg', 'key': 'i', 'origWidth': 410, 'origHeight': 411, 'width': 410, 'height': 411, 'widthPercent': 0.45, 'rescaleHeight': False, 'trialN': 48, 'loaded': True, 'loadedTime': 16884.399999999994, 'positionName': 'RIGHT', 'positionCoords': [710.32, 178.5], 'bid': 1.35}]",112038.70000000001,1669830234744,kiwi,lox,1.19,1.35,0.16000000000000014,kiwi,965.3999999999942,967,966.5999999999767,True,u,113510.4,1471.6999999999825,1669830236216,1472,HRV,HRV_0104,2022-11-30 17:47:40
49,"[{'imgObject': {}, 'id': 'omelette', 'src': '/static/foodstim60/omelette.jpg', 'key': 'u', 'origWidth': 410, 'origHeight': 409, 'width': 410, 'height': 409, 'widthPercent': 0.45, 'rescaleHeight': False, 'trialN': 49, 'loaded': True, 'loadedTime': 11964.899999999994, 'positionName': 'LEFT', 'positionCoords': [245.68, 179.5], 'bid': 3.79}, {'imgObject': {}, 'id': 'chickenfingers', 'src': '/static/foodstim60/chickenfingers.jpg', 'key': 'i', 'origWidth': 410, 'origHeight': 410, 'width': 410, 'height': 410, 'widthPercent': 0.45, 'rescaleHeight': False, 'trialN': 49, 'loaded': True, 'loadedTime': 15317.199999999997, 'positionName': 'RIGHT', 'positionCoords': [710.32, 179], 'bid': 8.26}]",113510.70000000001,1669830236216,omelette,chickenfingers,3.79,8.26,4.47,chickenfingers,1062.3999999999942,1064,1064.0,True,i,115078.4,1567.6999999999825,1669830237784,1568,HRV,HRV_0104,2022-11-30 17:47:40
50,"[{'imgObject': {}, 'id': 'seaweed', 'src': '/static/foodstim60/seaweed.jpg', 'key': 'u', 'origWidth': 410, 'origHeight': 410, 'width': 410, 'height': 410, 'widthPercent': 0.45, 'rescaleHeight': False, 'trialN': 50, 'loaded': True, 'loadedTime': 13233.199999999997, 'positionName': 'LEFT', 'positionCoords': [245.68, 179], 'bid': 0.73}, {'imgObject': {}, 'id': 'lox', 'src': '/static/foodstim60/lox.jpg', 'key': 'i', 'origWidth': 410, 'origHeight': 411, 'width': 410, 'height': 411, 'widthPercent': 0.45, 'rescaleHeight': False, 'trialN': 50, 'loaded': True, 'loadedTime': 16888, 'positionName': 'RIGHT', 'positionCoords': [710.32, 178.5], 'bid': 1.35}]",115078.9,1669830237784,seaweed,lox,0.73,1.35,0.6200000000000001,seaweed,1618.2000000000116,1620,1619.6000000000058,True,u,117206.4,2127.5,1669830239912,2128,HRV,HRV_0104,2022-11-30 17:47:40
51,"[{'imgObject': {}, 'id': 'Grapes', 'src': '/static/foodstim60/Grapes.jpg', 'key': 'u', 'origWidth': 411, 'origHeight': 411, 'width': 411, 'height': 411, 'widthPercent': 0.45, 'rescaleHeight': False, 'trialN': 51, 'loaded': True, 'loadedTime': 15913.700000000012, 'positionName': 'LEFT', 'positionCoords': [244.68, 178.5], 'bid': 5.73}, {'imgObject': {}, 'id': 'yogurt no spoon', 'src': '/static/foodstim60/yogurt no spoon.jpg', 'key': 'i', 'origWidth': 411, 'origHeight': 410, 'width': 411, 'height': 410, 'widthPercent': 0.45, 'rescaleHeight': False, 'trialN': 51, 'loaded': True, 'loadedTime': 16348.899999999994, 'positionName': 'RIGHT', 'positionCoords': [710.32, 179], 'bid': 4.97}]",117206.9,1669830239912,Grapes,yogurt no spoon,5.73,4.97,-0.7600000000000007,Grapes,1347.2000000000116,1349,1348.5,True,u,119062.4,1855.5,1669830241768,1856,HRV,HRV_0104,2022-11-30 17:47:40
52,"[{'imgObject': {}, 'id': 'veggieswithdip', 'src': '/static/foodstim60/veggieswithdip.jpg', 'key': 'u', 'origWidth': 409, 'origHeight': 409, 'width': 409, 'height': 409, 'widthPercent': 0.45, 'rescaleHeight': False, 'trialN': 52, 'loaded': True, 'loadedTime': 15790.299999999988, 'positionName': 'LEFT', 'positionCoords': [246.68, 179.5], 'bid': 1.39}, {'imgObject': {}, 'id': 'tacos', 'src': '/static/foodstim60/tacos.jpg', 'key': 'i', 'origWidth': 411, 'origHeight': 411, 'width': 411, 'height': 411, 'widthPercent': 0.45, 'rescaleHeight': False, 'trialN': 52, 'loaded': True, 'loadedTime': 12596, 'positionName': 'RIGHT', 'positionCoords': [710.32, 178.5], 'bid': 2.73}]",119062.70000000001,1669830241768,veggieswithdip,tacos,1.39,2.73,1.34,veggieswithdip,1552.5999999999767,1555,1554.5,True,u,121118.29999999999,2055.5999999999767,1669830243824,2056,HRV,HRV_0104,2022-11-30 17:47:40
53,"[{'imgObject': {}, 'id': 'popsicles', 'src': '/static/foodstim60/popsicles.jpg', 'key': 'u', 'origWidth': 410, 'origHeight': 410, 'width': 410, 'height': 410, 'widthPercent': 0.45, 'rescaleHeight': False, 'trialN': 53, 'loaded': True, 'loadedTime': 16358.299999999988, 'positionName': 'LEFT', 'positionCoords': [245.68, 179], 'bid': 4.53}, {'imgObject': {}, 'id': 'burrito', 'src': '/static/foodstim60/burrito.jpg', 'key': 'i', 'origWidth': 410, 'origHeight': 410, 'width': 410, 'height': 410, 'widthPercent': 0.45, 'rescaleHeight': False, 'trialN': 53, 'loaded': True, 'loadedTime': 10807.5, 'positionName': 'RIGHT', 'positionCoords': [710.32, 179], 'bid': 3.82}]",121118.70000000001,1669830243824,popsicles,burrito,4.53,3.82,-0.7100000000000004,popsicles,1239.1999999999825,1242,1241.2999999999884,True,u,122862.4,1743.6999999999825,1669830245568,1744,HRV,HRV_0104,2022-11-30 17:47:40
54,"[{'imgObject': {}, 'id': 'omelette', 'src': '/static/foodstim60/omelette.jpg', 'key': 'u', 'origWidth': 410, 'origHeight': 409, 'width': 410, 'height': 409, 'widthPercent': 0.45, 'rescaleHeight': False, 'trialN': 54, 'loaded': True, 'loadedTime': 11976, 'positionName': 'LEFT', 'positionCoords': [245.68, 179.5], 'bid': 3.79}, {'imgObject': {}, 'id': 'cocktailshrimp', 'src': '/static/foodstim60/cocktailshrimp.jpg', 'key': 'i', 'origWidth': 410, 'origHeight': 410, 'width': 410, 'height': 410, 'widthPercent': 0.45, 'rescaleHeight': False, 'trialN': 54, 'loaded': True, 'loadedTime': 14523.5, 'positionName': 'RIGHT', 'positionCoords': [710.32, 179], 'bid': 4.3500000000000005}]",122862.70000000001,1669830245568,omelette,cocktailshrimp,3.79,4.3500000000000005,0.5600000000000005,omelette,931.2999999999884,933,932.5999999999767,True,u,124302.20000000001,1439.5,1669830247008,1440,HRV,HRV_0104,2022-11-30 17:47:40
55,"[{'imgObject': {}, 'id': 'banana', 'src': '/static/foodstim60/banana.jpg', 'key': 'u', 'origWidth': 410, 'origHeight': 410, 'width': 410, 'height': 410, 'widthPercent': 0.45, 'rescaleHeight': False, 'trialN': 55, 'loaded': True, 'loadedTime': 12369.399999999994, 'positionName': 'LEFT', 'positionCoords': [245.68, 179], 'bid': 6.11}, {'imgObject': {}, 'id': 'granola w milk', 'src': '/static/foodstim60/granola w milk.jpg', 'key': 'i', 'origWidth': 410, 'origHeight': 410, 'width': 410, 'height': 410, 'widthPercent': 0.45, 'rescaleHeight': False, 'trialN': 55, 'loaded': True, 'loadedTime': 15819.399999999994, 'positionName': 'RIGHT', 'positionCoords': [710.32, 179], 'bid': 5.79}]",124302.6,1669830247008,banana,granola w milk,6.11,5.79,-0.3200000000000003,banana,1043.1000000000058,1045,1044.8999999999942,True,u,125854.5,1551.8999999999942,1669830248560,1552,HRV,HRV_0104,2022-11-30 17:47:40
56,"[{'imgObject': {}, 'id': 'bagel plain', 'src': '/static/foodstim60/bagel plain.jpg', 'key': 'u', 'origWidth': 410, 'origHeight': 410, 'width': 410, 'height': 410, 'widthPercent': 0.45, 'rescaleHeight': False, 'trialN': 56, 'loaded': True, 'loadedTime': 11976.399999999994, 'positionName': 'LEFT', 'positionCoords': [245.68, 179], 'bid': 5.21}, {'imgObject': {}, 'id': 'eggs', 'src': '/static/foodstim60/eggs.jpg', 'key': 'i', 'origWidth': 409, 'origHeight': 409, 'width': 409, 'height': 409, 'widthPercent': 0.45, 'rescaleHeight': False, 'trialN': 56, 'loaded': True, 'loadedTime': 15107.899999999994, 'positionName': 'RIGHT', 'positionCoords': [710.32, 179.5], 'bid': 5.1000000000000005}]",125854.70000000001,1669830248560,bagel plain,eggs,5.21,5.1000000000000005,-0.10999999999999943,bagel plain,1344.8999999999942,1347,1346.6999999999825,True,u,127702.29999999999,1847.5999999999767,1669830250408,1848,HRV,HRV_0104,2022-11-30 17:47:40
57,"[{'imgObject': {}, 'id': 'grilled chicken strips', 'src': '/static/foodstim60/grilled chicken strips.jpg', 'key': 'u', 'origWidth': 410, 'origHeight': 411, 'width': 410, 'height': 411, 'widthPercent': 0.45, 'rescaleHeight': False, 'trialN': 57, 'loaded': True, 'loadedTime': 15126, 'positionName': 'LEFT', 'positionCoords': [245.68, 178.5], 'bid': 7.69}, {'imgObject': {}, 'id': 'mac & cheese', 'src': '/static/foodstim60/mac & cheese.jpg', 'key': 'i', 'origWidth': 410, 'origHeight': 410, 'width': 410, 'height': 410, 'widthPercent': 0.45, 'rescaleHeight': False, 'trialN': 57, 'loaded': True, 'loadedTime': 16888.399999999994, 'positionName': 'RIGHT', 'positionCoords': [710.32, 179], 'bid': 9.45}]",127702.70000000001,1669830250408,grilled chicken strips,mac & cheese,7.69,9.45,1.759999999999999,grilled chicken strips,897.7999999999884,899,899.0999999999767,True,u,129102.29999999999,1399.5999999999767,1669830251808,1400,HRV,HRV_0104,2022-11-30 17:47:40
58,"[{'imgObject': {}, 'id': 'eggs', 'src': '/static/foodstim60/eggs.jpg', 'key': 'u', 'origWidth': 409, 'origHeight': 409, 'width': 409, 'height': 409, 'widthPercent': 0.45, 'rescaleHeight': False, 'trialN': 58, 'loaded': True, 'loadedTime': 15108.199999999997, 'positionName': 'LEFT', 'positionCoords': [246.68, 179.5], 'bid': 5.1000000000000005}, {'imgObject': {}, 'id': 'corn cob', 'src': '/static/foodstim60/corn cob.jpg', 'key': 'i', 'origWidth': 411, 'origHeight': 411, 'width': 411, 'height': 411, 'widthPercent': 0.45, 'rescaleHeight': False, 'trialN': 58, 'loaded': True, 'loadedTime': 16911.899999999994, 'positionName': 'RIGHT', 'positionCoords': [710.32, 178.5], 'bid': 4.95}]",129102.5,1669830251808,eggs,corn cob,5.1000000000000005,4.95,-0.15000000000000036,eggs,1493.3999999999942,1495,1494.7000000000116,True,u,131102.3,1999.7999999999884,1669830253808,2000,HRV,HRV_0104,2022-11-30 17:47:40
59,"[{'imgObject': {}, 'id': 'raisin bran w milk', 'src': '/static/foodstim60/raisin bran w milk.jpg', 'key': 'u', 'origWidth': 411, 'origHeight': 411, 'width': 411, 'height': 411, 'widthPercent': 0.45, 'rescaleHeight': False, 'trialN': 59, 'loaded': True, 'loadedTime': 16912.20000000001, 'positionName': 'LEFT', 'positionCoords': [244.68, 178.5], 'bid': 5.2700000000000005}, {'imgObject': {}, 'id': 'cocktailshrimp', 'src': '/static/foodstim60/cocktailshrimp.jpg', 'key': 'i', 'origWidth': 410, 'origHeight': 410, 'width': 410, 'height': 410, 'widthPercent': 0.45, 'rescaleHeight': False, 'trialN': 59, 'loaded': True, 'loadedTime': 14521.899999999994, 'positionName': 'RIGHT', 'positionCoords': [710.32, 179], 'bid': 4.3500000000000005}]",131102.7,1669830253808,raisin bran w milk,cocktailshrimp,5.2700000000000005,4.3500000000000005,-0.9199999999999999,raisin bran w milk,1098,1100,1099.6999999999825,True,u,132710.3,1607.5999999999767,1669830255416,1608,HRV,HRV_0104,2022-11-30 17:47:40
60,"[{'imgObject': {}, 'id': 'chicken nuggets2', 'src': '/static/foodstim60/chicken nuggets2.jpg', 'key': 'u', 'origWidth': 410, 'origHeight': 409, 'width': 410, 'height': 409, 'widthPercent': 0.45, 'rescaleHeight': False, 'trialN': 60, 'loaded': True, 'loadedTime': 15810.899999999994, 'positionName': 'LEFT', 'positionCoords': [245.68, 179.5], 'bid': 9.31}, {'imgObject': {}, 'id': 'rigatoni and sauce', 'src': '/static/foodstim60/rigatoni and sauce.jpg', 'key': 'i', 'origWidth': 410, 'origHeight': 411, 'width': 410, 'height': 411, 'widthPercent': 0.45, 'rescaleHeight': False, 'trialN': 60, 'loaded': True, 'loadedTime': 14698, 'positionName': 'RIGHT', 'positionCoords': [710.32, 178.5], 'bid': 8.89}]",132710.6,1669830255416,chicken nuggets2,rigatoni and sauce,9.31,8.89,-0.41999999999999993,rigatoni and sauce,1410.1999999999825,1412,1412.2999999999884,True,i,134630.2,1919.6000000000058,1669830257336,1920,HRV,HRV_0104,2022-11-30 17:47:40
61,"[{'imgObject': {}, 'id': 'hotdog w must', 'src': '/static/foodstim60/hotdog w must.jpg', 'key': 'u', 'origWidth': 409, 'origHeight': 409, 'width': 409, 'height': 409, 'widthPercent': 0.45, 'rescaleHeight': False, 'trialN': 61, 'loaded': True, 'loadedTime': 14906.600000000006, 'positionName': 'LEFT', 'positionCoords': [246.68, 179.5], 'bid': 3.03}, {'imgObject': {}, 'id': 'sweetpotato', 'src': '/static/foodstim60/sweetpotato.jpg', 'key': 'i', 'origWidth': 410, 'origHeight': 410, 'width': 410, 'height': 410, 'widthPercent': 0.45, 'rescaleHeight': False, 'trialN': 61, 'loaded': True, 'loadedTime': 14553.5, 'positionName': 'RIGHT', 'positionCoords': [710.32, 179], 'bid': 0.59}]",134630.5,1669830257336,hotdog w must,sweetpotato,3.03,0.59,-2.44,hotdog w must,1002.1000000000058,1004,1003.6000000000058,True,u,136134.4,1503.8999999999942,1669830258840,1504,HRV,HRV_0104,2022-11-30 17:47:40
62,"[{'imgObject': {}, 'id': 'ice cream sundae 002', 'src': '/static/foodstim60/ice cream sundae 002.jpg', 'key': 'u', 'origWidth': 409, 'origHeight': 409, 'width': 409, 'height': 409, 'widthPercent': 0.45, 'rescaleHeight': False, 'trialN': 62, 'loaded': True, 'loadedTime': 14570.600000000006, 'positionName': 'LEFT', 'positionCoords': [246.68, 179.5], 'bid': 5.29}, {'imgObject': {}, 'id': 'raisin bran w milk', 'src': '/static/foodstim60/raisin bran w milk.jpg', 'key': 'i', 'origWidth': 411, 'origHeight': 411, 'width': 411, 'height': 411, 'widthPercent': 0.45, 'rescaleHeight': False, 'trialN': 62, 'loaded': True, 'loadedTime': 16921.29999999999, 'positionName': 'RIGHT', 'positionCoords': [710.32, 178.5], 'bid': 5.2700000000000005}]",136134.8,1669830258840,ice cream sundae 002,raisin bran w milk,5.29,5.2700000000000005,-0.019999999999999574,raisin bran w milk,1206.4000000000233,1208,1207.4000000000233,True,i,137846.4,1711.6000000000058,1669830260552,1712,HRV,HRV_0104,2022-11-30 17:47:40
63,"[{'imgObject': {}, 'id': 'mac & cheese', 'src': '/static/foodstim60/mac & cheese.jpg', 'key': 'u', 'origWidth': 410, 'origHeight': 410, 'width': 410, 'height': 410, 'widthPercent': 0.45, 'rescaleHeight': False, 'trialN': 63, 'loaded': True, 'loadedTime': 16898.20000000001, 'positionName': 'LEFT', 'positionCoords': [245.68, 179], 'bid': 9.45}, {'imgObject': {}, 'id': 'raspberries', 'src': '/static/foodstim60/raspberries.jpg', 'key': 'i', 'origWidth': 411, 'origHeight': 411, 'width': 411, 'height': 411, 'widthPercent': 0.45, 'rescaleHeight': False, 'trialN': 63, 'loaded': True, 'loadedTime': 16927.29999999999, 'positionName': 'RIGHT', 'positionCoords': [710.32, 178.5], 'bid': 5.99}]",137846.7,1669830260552,mac & cheese,raspberries,9.45,5.99,-3.459999999999999,mac & cheese,745.6999999999825,748,747.7999999999884,True,u,139102.3,1255.5999999999767,1669830261808,1256,HRV,HRV_0104,2022-11-30 17:47:40
64,"[{'imgObject': {}, 'id': 'roastedpotatoes', 'src': '/static/foodstim60/roastedpotatoes.jpg', 'key': 'u', 'origWidth': 409, 'origHeight': 410, 'width': 409, 'height': 410, 'widthPercent': 0.45, 'rescaleHeight': False, 'trialN': 64, 'loaded': True, 'loadedTime': 15896.799999999988, 'positionName': 'LEFT', 'positionCoords': [246.68, 179], 'bid': 8.74}, {'imgObject': {}, 'id': 'burrito', 'src': '/static/foodstim60/burrito.jpg', 'key': 'i', 'origWidth': 410, 'origHeight': 410, 'width': 410, 'height': 410, 'widthPercent': 0.45, 'rescaleHeight': False, 'trialN': 64, 'loaded': True, 'loadedTime': 10819.399999999994, 'positionName': 'RIGHT', 'positionCoords': [710.32, 179], 'bid': 3.82}]",139102.7,1669830261808,roastedpotatoes,burrito,8.74,3.82,-4.92,roastedpotatoes,829.7999999999884,831,831.0999999999767,True,u,140438.3,1335.5999999999767,1669830263144,1336,HRV,HRV_0104,2022-11-30 17:47:40
65,"[{'imgObject': {}, 'id': 'popsicles', 'src': '/static/foodstim60/popsicles.jpg', 'key': 'u', 'origWidth': 410, 'origHeight': 410, 'width': 410, 'height': 410, 'widthPercent': 0.45, 'rescaleHeight': False, 'trialN': 65, 'loaded': True, 'loadedTime': 16358.200000000012, 'positionName': 'LEFT', 'positionCoords': [245.68, 179], 'bid': 4.53}, {'imgObject': {}, 'id': 'chicken nuggets2', 'src': '/static/foodstim60/chicken nuggets2.jpg', 'key': 'i', 'origWidth': 410, 'origHeight': 409, 'width': 410, 'height': 409, 'widthPercent': 0.45, 'rescaleHeight': False, 'trialN': 65, 'loaded': True, 'loadedTime': 15791.299999999988, 'positionName': 'RIGHT', 'positionCoords': [710.32, 179.5], 'bid': 9.31}]",140440.3,1669830263146,popsicles,chicken nuggets2,4.53,9.31,4.78,chicken nuggets2,898,899,899.3000000000175,True,i,141846.3,1406.0,1669830264552,1406,HRV,HRV_0104,2022-11-30 17:47:40
66,"[{'imgObject': {}, 'id': 'raspberries', 'src': '/static/foodstim60/raspberries.jpg', 'key': 'u', 'origWidth': 411, 'origHeight': 411, 'width': 411, 'height': 411, 'widthPercent': 0.45, 'rescaleHeight': False, 'trialN': 66, 'loaded': True, 'loadedTime': 16927.100000000006, 'positionName': 'LEFT', 'positionCoords': [244.68, 178.5], 'bid': 5.99}, {'imgObject': {}, 'id': 'luckycharms', 'src': '/static/foodstim60/luckycharms.jpg', 'key': 'i', 'origWidth': 410, 'origHeight': 409, 'width': 410, 'height': 409, 'widthPercent': 0.45, 'rescaleHeight': False, 'trialN': 66, 'loaded': True, 'loadedTime': 16597.399999999994, 'positionName': 'RIGHT', 'positionCoords': [710.32, 179.5], 'bid': 5.8}]",141846.5,1669830264552,raspberries,luckycharms,5.99,5.8,-0.1900000000000004,luckycharms,1118.3999999999942,1120,1119.8999999999942,True,i,143470.6,1624.1000000000058,1669830266176,1624,HRV,HRV_0104,2022-11-30 17:47:40
67,"[{'imgObject': {}, 'id': 'mango', 'src': '/static/foodstim60/mango.jpg', 'key': 'u', 'origWidth': 411, 'origHeight': 411, 'width': 411, 'height': 411, 'widthPercent': 0.45, 'rescaleHeight': False, 'trialN': 67, 'loaded': True, 'loadedTime': 16164.299999999988, 'positionName': 'LEFT', 'positionCoords': [244.68, 178.5], 'bid': 1.79}, {'imgObject': {}, 'id': 'sweetpotato', 'src': '/static/foodstim60/sweetpotato.jpg', 'key': 'i', 'origWidth': 410, 'origHeight': 410, 'width': 410, 'height': 410, 'widthPercent': 0.45, 'rescaleHeight': False, 'trialN': 67, 'loaded': True, 'loadedTime': 14562, 'positionName': 'RIGHT', 'positionCoords': [710.32, 179], 'bid': 0.59}]",143470.7,1669830266176,mango,sweetpotato,1.79,0.59,-1.2000000000000002,mango,1414.8999999999942,1417,1416.8999999999942,True,u,145390.4,1919.6999999999825,1669830268096,1920,HRV,HRV_0104,2022-11-30 17:47:40
68,"[{'imgObject': {}, 'id': 'turkeysandwich', 'src': '/static/foodstim60/turkeysandwich.jpg', 'key': 'u', 'origWidth': 409, 'origHeight': 409, 'width': 409, 'height': 409, 'widthPercent': 0.45, 'rescaleHeight': False, 'trialN': 68, 'loaded': True, 'loadedTime': 12994, 'positionName': 'LEFT', 'positionCoords': [246.68, 179.5], 'bid': 2.27}, {'imgObject': {}, 'id': 'banana', 'src': '/static/foodstim60/banana.jpg', 'key': 'i', 'origWidth': 410, 'origHeight': 410, 'width': 410, 'height': 410, 'widthPercent': 0.45, 'rescaleHeight': False, 'trialN': 68, 'loaded': True, 'loadedTime': 12199.100000000006, 'positionName': 'RIGHT', 'positionCoords': [710.32, 179], 'bid': 6.11}]",145390.7,1669830268096,turkeysandwich,banana,2.27,6.11,3.8400000000000003,banana,872.6999999999825,874,874.0999999999767,True,i,146766.40000000002,1375.7000000000116,1669830269472,1376,HRV,HRV_0104,2022-11-30 17:47:40
69,"[{'imgObject': {}, 'id': 'granola w milk', 'src': '/static/foodstim60/granola w milk.jpg', 'key': 'u', 'origWidth': 410, 'origHeight': 410, 'width': 410, 'height': 410, 'widthPercent': 0.45, 'rescaleHeight': False, 'trialN': 69, 'loaded': True, 'loadedTime': 15813.5, 'positionName': 'LEFT', 'positionCoords': [245.68, 179], 'bid': 5.79}, {'imgObject': {}, 'id': 'cherries', 'src': '/static/foodstim60/cherries.jpg', 'key': 'i', 'origWidth': 410, 'origHeight': 411, 'width': 410, 'height': 411, 'widthPercent': 0.45, 'rescaleHeight': False, 'trialN': 69, 'loaded': True, 'loadedTime': 15762.700000000012, 'positionName': 'RIGHT', 'positionCoords': [710.32, 178.5], 'bid': 5.87}]",146766.7,1669830269472,granola w milk,cherries,5.79,5.87,0.08000000000000007,granola w milk,877,879,878.3999999999651,True,u,148150.40000000002,1383.7000000000116,1669830270856,1384,HRV,HRV_0104,2022-11-30 17:47:40
70,"[{'imgObject': {}, 'id': 'cantaloupe', 'src': '/static/foodstim60/cantaloupe.jpg', 'key': 'u', 'origWidth': 409, 'origHeight': 409, 'width': 409, 'height': 409, 'widthPercent': 0.45, 'rescaleHeight': False, 'trialN': 70, 'loaded': True, 'loadedTime': 13677.899999999994, 'positionName': 'LEFT', 'positionCoords': [246.68, 179.5], 'bid': 0.91}, {'imgObject': {}, 'id': 'burger', 'src': '/static/foodstim60/burger.jpg', 'key': 'i', 'origWidth': 409, 'origHeight': 409, 'width': 409, 'height': 409, 'widthPercent': 0.45, 'rescaleHeight': False, 'trialN': 70, 'loaded': True, 'loadedTime': 17141.100000000006, 'positionName': 'RIGHT', 'positionCoords': [710.32, 179.5], 'bid': 3.6}]",148150.7,1669830270856,cantaloupe,burger,0.91,3.6,2.69,burger,1470.5,1472,1471.899999999965,True,i,150126.2,1975.5,1669830272832,1976,HRV,HRV_0104,2022-11-30 17:47:40
71,"[{'imgObject': {}, 'id': 'luckycharms', 'src': '/static/foodstim60/luckycharms.jpg', 'key': 'u', 'origWidth': 410, 'origHeight': 409, 'width': 410, 'height': 409, 'widthPercent': 0.45, 'rescaleHeight': False, 'trialN': 71, 'loaded': True, 'loadedTime': 16851.399999999994, 'positionName': 'LEFT', 'positionCoords': [245.68, 179.5], 'bid': 5.8}, {'imgObject': {}, 'id': 'lox', 'src': '/static/foodstim60/lox.jpg', 'key': 'i', 'origWidth': 410, 'origHeight': 411, 'width': 410, 'height': 411, 'widthPercent': 0.45, 'rescaleHeight': False, 'trialN': 71, 'loaded': True, 'loadedTime': 16888.20000000001, 'positionName': 'RIGHT', 'positionCoords': [710.32, 178.5], 'bid': 1.35}]",150126.59999999998,1669830272832,luckycharms,lox,5.8,1.35,-4.449999999999999,luckycharms,942.7000000000116,944,943.9000000000233,True,u,151574.3,1447.7000000000116,1669830274280,1448,HRV,HRV_0104,2022-11-30 17:47:40
72,"[{'imgObject': {}, 'id': 'baked potato', 'src': '/static/foodstim60/baked potato.jpg', 'key': 'u', 'origWidth': 409, 'origHeight': 410, 'width': 409, 'height': 410, 'widthPercent': 0.45, 'rescaleHeight': False, 'trialN': 72, 'loaded': True, 'loadedTime': 15705.600000000006, 'positionName': 'LEFT', 'positionCoords': [246.68, 179], 'bid': 7.26}, {'imgObject': {}, 'id': 'chicken nuggets2', 'src': '/static/foodstim60/chicken nuggets2.jpg', 'key': 'i', 'origWidth': 410, 'origHeight': 409, 'width': 410, 'height': 409, 'widthPercent': 0.45, 'rescaleHeight': False, 'trialN': 72, 'loaded': True, 'loadedTime': 15813.200000000012, 'positionName': 'RIGHT', 'positionCoords': [710.32, 179.5], 'bid': 9.31}]",151574.59999999998,1669830274280,baked potato,chicken nuggets2,7.26,9.31,2.0500000000000007,chicken nuggets2,1556.100000000035,1558,1557.8000000000466,True,i,153638.3,2063.7000000000116,1669830276344,2064,HRV,HRV_0104,2022-11-30 17:47:40
73,"[{'imgObject': {}, 'id': 'kiwi', 'src': '/static/foodstim60/kiwi.jpg', 'key': 'u', 'origWidth': 410, 'origHeight': 410, 'width': 410, 'height': 410, 'widthPercent': 0.45, 'rescaleHeight': False, 'trialN': 73, 'loaded': True, 'loadedTime': 11779.199999999997, 'positionName': 'LEFT', 'positionCoords': [245.68, 179], 'bid': 1.19}, {'imgObject': {}, 'id': 'sweetpotato', 'src': '/static/foodstim60/sweetpotato.jpg', 'key': 'i', 'origWidth': 410, 'origHeight': 410, 'width': 410, 'height': 410, 'widthPercent': 0.45, 'rescaleHeight': False, 'trialN': 73, 'loaded': True, 'loadedTime': 14561.600000000006, 'positionName': 'RIGHT', 'positionCoords': [710.32, 179], 'bid': 0.59}]",153638.59999999998,1669830276344,kiwi,sweetpotato,1.19,0.59,-0.6,kiwi,972.4000000000233,974,973.8000000000466,True,u,155118.3,1479.7000000000116,1669830277824,1480,HRV,HRV_0104,2022-11-30 17:47:40
74,"[{'imgObject': {}, 'id': 'burrito', 'src': '/static/foodstim60/burrito.jpg', 'key': 'u', 'origWidth': 410, 'origHeight': 410, 'width': 410, 'height': 410, 'widthPercent': 0.45, 'rescaleHeight': False, 'trialN': 74, 'loaded': True, 'loadedTime': 10818.800000000003, 'positionName': 'LEFT', 'positionCoords': [245.68, 179], 'bid': 3.82}, {'imgObject': {}, 'id': 'blueberries', 'src': '/static/foodstim60/blueberries.jpg', 'key': 'i', 'origWidth': 411, 'origHeight': 411, 'width': 411, 'height': 411, 'widthPercent': 0.45, 'rescaleHeight': False, 'trialN': 74, 'loaded': True, 'loadedTime': 16870.70000000001, 'positionName': 'RIGHT', 'positionCoords': [710.32, 178.5], 'bid': 5.46}]",155118.59999999998,1669830277824,burrito,blueberries,3.82,5.46,1.6400000000000001,blueberries,948.5,951,950.5,True,i,156574.3,1455.7000000000116,1669830279280,1456,HRV,HRV_0104,2022-11-30 17:47:40
75,"[{'imgObject': {}, 'id': 'hashbrowns', 'src': '/static/foodstim60/hashbrowns.jpg', 'key': 'u', 'origWidth': 411, 'origHeight': 410, 'width': 411, 'height': 410, 'widthPercent': 0.45, 'rescaleHeight': False, 'trialN': 75, 'loaded': True, 'loadedTime': 13963.899999999994, 'positionName': 'LEFT', 'positionCoords': [244.68, 179], 'bid': 0.98}, {'imgObject': {}, 'id': 'rigatoni', 'src': '/static/foodstim60/rigatoni.jpg', 'key': 'i', 'origWidth': 411, 'origHeight': 411, 'width': 411, 'height': 411, 'widthPercent': 0.45, 'rescaleHeight': False, 'trialN': 75, 'loaded': True, 'loadedTime': 17172.70000000001, 'positionName': 'RIGHT', 'positionCoords': [710.32, 178.5], 'bid': 5.61}]",156574.59999999998,1669830279280,hashbrowns,rigatoni,0.98,5.61,4.630000000000001,rigatoni,941.1000000000349,943,943.0,True,i,158022.40000000002,1447.8000000000466,1669830280728,1448,HRV,HRV_0104,2022-11-30 17:47:40
76,"[{'imgObject': {}, 'id': 'steak', 'src': '/static/foodstim60/steak.jpg', 'key': 'u', 'origWidth': 410, 'origHeight': 410, 'width': 410, 'height': 410, 'widthPercent': 0.45, 'rescaleHeight': False, 'trialN': 76, 'loaded': True, 'loadedTime': 16578.5, 'positionName': 'LEFT', 'positionCoords': [245.68, 179], 'bid': 10}, {'imgObject': {}, 'id': 'shreddedwheatwithmilk', 'src': '/static/foodstim60/shreddedwheatwithmilk.jpg', 'key': 'i', 'origWidth': 410, 'origHeight': 410, 'width': 410, 'height': 410, 'widthPercent': 0.45, 'rescaleHeight': False, 'trialN': 76, 'loaded': True, 'loadedTime': 16391.5, 'positionName': 'RIGHT', 'positionCoords': [710.32, 179], 'bid': 6.01}]",158022.59999999998,1669830280728,steak,shreddedwheatwithmilk,10.0,6.01,-3.99,steak,851.3000000000466,853,853.4000000000233,True,u,159382.40000000002,1359.8000000000466,1669830282088,1360,HRV,HRV_0104,2022-11-30 17:47:40
77,"[{'imgObject': {}, 'id': 'mashed potato', 'src': '/static/foodstim60/mashed potato.jpg', 'key': 'u', 'origWidth': 409, 'origHeight': 409, 'width': 409, 'height': 409, 'widthPercent': 0.45, 'rescaleHeight': False, 'trialN': 77, 'loaded': True, 'loadedTime': 13463.5, 'positionName': 'LEFT', 'positionCoords': [246.68, 179.5], 'bid': 7.890000000000001}, {'imgObject': {}, 'id': 'roastedpotatoes', 'src': '/static/foodstim60/roastedpotatoes.jpg', 'key': 'i', 'origWidth': 409, 'origHeight': 410, 'width': 409, 'height': 410, 'widthPercent': 0.45, 'rescaleHeight': False, 'trialN': 77, 'loaded': True, 'loadedTime': 15896.700000000012, 'positionName': 'RIGHT', 'positionCoords': [710.32, 179], 'bid': 8.74}]",159382.7,1669830282088,mashed potato,roastedpotatoes,7.890000000000001,8.74,0.8499999999999996,roastedpotatoes,1068.399999999965,1070,1069.899999999965,True,i,160958.40000000002,1575.7000000000116,1669830283664,1576,HRV,HRV_0104,2022-11-30 17:47:40
78,"[{'imgObject': {}, 'id': 'edamame', 'src': '/static/foodstim60/edamame.jpg', 'key': 'u', 'origWidth': 409, 'origHeight': 410, 'width': 409, 'height': 410, 'widthPercent': 0.45, 'rescaleHeight': False, 'trialN': 78, 'loaded': True, 'loadedTime': 16144.399999999994, 'positionName': 'LEFT', 'positionCoords': [246.68, 179], 'bid': 3.49}, {'imgObject': {}, 'id': 'mango', 'src': '/static/foodstim60/mango.jpg', 'key': 'i', 'origWidth': 411, 'origHeight': 411, 'width': 411, 'height': 411, 'widthPercent': 0.45, 'rescaleHeight': False, 'trialN': 78, 'loaded': True, 'loadedTime': 16164.600000000006, 'positionName': 'RIGHT', 'positionCoords': [710.32, 178.5], 'bid': 1.79}]",160958.7,1669830283664,edamame,mango,3.49,1.79,-1.7000000000000002,mango,1359.5,1361,1360.7999999999884,True,i,162822.3,1863.5999999999767,1669830285528,1864,HRV,HRV_0104,2022-11-30 17:47:40
79,"[{'imgObject': {}, 'id': 'pear', 'src': '/static/foodstim60/pear.jpg', 'key': 'u', 'origWidth': 411, 'origHeight': 410, 'width': 411, 'height': 410, 'widthPercent': 0.45, 'rescaleHeight': False, 'trialN': 79, 'loaded': True, 'loadedTime': 13235.100000000006, 'positionName': 'LEFT', 'positionCoords': [244.68, 179], 'bid': 5.71}, {'imgObject': {}, 'id': 'salmon', 'src': '/static/foodstim60/salmon.jpg', 'key': 'i', 'origWidth': 410, 'origHeight': 409, 'width': 410, 'height': 409, 'widthPercent': 0.45, 'rescaleHeight': False, 'trialN': 79, 'loaded': True, 'loadedTime': 16563.5, 'positionName': 'RIGHT', 'positionCoords': [710.32, 179.5], 'bid': 1.14}]",162822.59999999998,1669830285528,pear,salmon,5.71,1.14,-4.57,pear,1420.3000000000466,1422,1422.0,True,u,164750.40000000002,1927.8000000000466,1669830287456,1928,HRV,HRV_0104,2022-11-30 17:47:40
80,"[{'imgObject': {}, 'id': 'chickenfingers', 'src': '/static/foodstim60/chickenfingers.jpg', 'key': 'u', 'origWidth': 410, 'origHeight': 410, 'width': 410, 'height': 410, 'widthPercent': 0.45, 'rescaleHeight': False, 'trialN': 80, 'loaded': True, 'loadedTime': 15317.600000000006, 'positionName': 'LEFT', 'positionCoords': [245.68, 179], 'bid': 8.26}, {'imgObject': {}, 'id': 'roastedpotatoes', 'src': '/static/foodstim60/roastedpotatoes.jpg', 'key': 'i', 'origWidth': 409, 'origHeight': 410, 'width': 409, 'height': 410, 'widthPercent': 0.45, 'rescaleHeight': False, 'trialN': 80, 'loaded': True, 'loadedTime': 15831.700000000012, 'positionName': 'RIGHT', 'positionCoords': [710.32, 179], 'bid': 8.74}]",164750.59999999998,1669830287456,chickenfingers,roastedpotatoes,8.26,8.74,0.4800000000000004,chickenfingers,1388.2000000000116,1390,1390.2000000000116,True,u,166646.40000000002,1895.8000000000466,1669830289352,1896,HRV,HRV_0104,2022-11-30 17:47:40
81,"[{'imgObject': {}, 'id': 'Tribe humus pita', 'src': '/static/foodstim60/Tribe humus pita.jpg', 'key': 'u', 'origWidth': 411, 'origHeight': 411, 'width': 411, 'height': 411, 'widthPercent': 0.45, 'rescaleHeight': False, 'trialN': 81, 'loaded': True, 'loadedTime': 17184.100000000006, 'positionName': 'LEFT', 'positionCoords': [244.68, 178.5], 'bid': 0.32}, {'imgObject': {}, 'id': 'lox', 'src': '/static/foodstim60/lox.jpg', 'key': 'i', 'origWidth': 410, 'origHeight': 411, 'width': 410, 'height': 411, 'widthPercent': 0.45, 'rescaleHeight': False, 'trialN': 81, 'loaded': True, 'loadedTime': 16884.70000000001, 'positionName': 'RIGHT', 'positionCoords': [710.32, 178.5], 'bid': 1.35}]",166646.8,1669830289352,Tribe humus pita,lox,0.32,1.35,1.03,Tribe humus pita,1208.5,1210,1209.7000000000116,True,u,168358.40000000002,1711.600000000035,1669830291064,1712,HRV,HRV_0104,2022-11-30 17:47:40
82,"[{'imgObject': {}, 'id': 'Grapes', 'src': '/static/foodstim60/Grapes.jpg', 'key': 'u', 'origWidth': 411, 'origHeight': 411, 'width': 411, 'height': 411, 'widthPercent': 0.45, 'rescaleHeight': False, 'trialN': 82, 'loaded': True, 'loadedTime': 15901.600000000006, 'positionName': 'LEFT', 'positionCoords': [244.68, 178.5], 'bid': 5.73}, {'imgObject': {}, 'id': 'chickenfingers', 'src': '/static/foodstim60/chickenfingers.jpg', 'key': 'i', 'origWidth': 410, 'origHeight': 410, 'width': 410, 'height': 410, 'widthPercent': 0.45, 'rescaleHeight': False, 'trialN': 82, 'loaded': True, 'loadedTime': 15318.199999999997, 'positionName': 'RIGHT', 'positionCoords': [710.32, 179], 'bid': 8.26}]",168358.7,1669830291064,Grapes,chickenfingers,5.73,8.26,2.5299999999999994,chickenfingers,1114.2999999999884,1116,1116.0999999999767,True,i,169982.40000000002,1623.7000000000116,1669830292688,1624,HRV,HRV_0104,2022-11-30 17:47:40
83,"[{'imgObject': {}, 'id': 'cherry tomato', 'src': '/static/foodstim60/cherry tomato.jpg', 'key': 'u', 'origWidth': 410, 'origHeight': 410, 'width': 410, 'height': 410, 'widthPercent': 0.45, 'rescaleHeight': False, 'trialN': 83, 'loaded': True, 'loadedTime': 16563.20000000001, 'positionName': 'LEFT', 'positionCoords': [245.68, 179], 'bid': 0.38}, {'imgObject': {}, 'id': 'olives', 'src': '/static/foodstim60/olives.jpg', 'key': 'i', 'origWidth': 410, 'origHeight': 410, 'width': 410, 'height': 410, 'widthPercent': 0.45, 'rescaleHeight': False, 'trialN': 83, 'loaded': True, 'loadedTime': 15625, 'positionName': 'RIGHT', 'positionCoords': [710.32, 179], 'bid': 0.56}]",169982.8,1669830292688,cherry tomato,olives,0.38,0.56,0.18000000000000005,cherry tomato,903.5,905,904.9000000000233,True,u,171390.40000000002,1407.600000000035,1669830294096,1408,HRV,HRV_0104,2022-11-30 17:47:40
84,"[{'imgObject': {}, 'id': 'bagel and cc', 'src': '/static/foodstim60/bagel and cc.jpg', 'key': 'u', 'origWidth': 410, 'origHeight': 410, 'width': 410, 'height': 410, 'widthPercent': 0.45, 'rescaleHeight': False, 'trialN': 84, 'loaded': True, 'loadedTime': 15686.899999999994, 'positionName': 'LEFT', 'positionCoords': [245.68, 179], 'bid': 7.1000000000000005}, {'imgObject': {}, 'id': 'granola w milk', 'src': '/static/foodstim60/granola w milk.jpg', 'key': 'i', 'origWidth': 410, 'origHeight': 410, 'width': 410, 'height': 410, 'widthPercent': 0.45, 'rescaleHeight': False, 'trialN': 84, 'loaded': True, 'loadedTime': 15818.600000000006, 'positionName': 'RIGHT', 'positionCoords': [710.32, 179], 'bid': 5.79}]",171390.7,1669830294096,bagel and cc,granola w milk,7.1000000000000005,5.79,-1.3100000000000005,bagel and cc,894.3999999999651,896,896.0,True,u,172790.3,1399.5999999999767,1669830295496,1400,HRV,HRV_0104,2022-11-30 17:47:40
85,"[{'imgObject': {}, 'id': 'luckycharms', 'src': '/static/foodstim60/luckycharms.jpg', 'key': 'u', 'origWidth': 410, 'origHeight': 409, 'width': 410, 'height': 409, 'widthPercent': 0.45, 'rescaleHeight': False, 'trialN': 85, 'loaded': True, 'loadedTime': 16593.79999999999, 'positionName': 'LEFT', 'positionCoords': [245.68, 179.5], 'bid': 5.8}, {'imgObject': {}, 'id': 'rigatoni and sauce', 'src': '/static/foodstim60/rigatoni and sauce.jpg', 'key': 'i', 'origWidth': 410, 'origHeight': 411, 'width': 410, 'height': 411, 'widthPercent': 0.45, 'rescaleHeight': False, 'trialN': 85, 'loaded': True, 'loadedTime': 14713.5, 'positionName': 'RIGHT', 'positionCoords': [710.32, 178.5], 'bid': 8.89}]",172790.7,1669830295496,luckycharms,rigatoni and sauce,5.8,8.89,3.0900000000000007,rigatoni and sauce,802.7999999999884,804,804.2000000000116,True,i,174102.3,1311.5999999999767,1669830296808,1312,HRV,HRV_0104,2022-11-30 17:47:40
86,"[{'imgObject': {}, 'id': 'mashed potato', 'src': '/static/foodstim60/mashed potato.jpg', 'key': 'u', 'origWidth': 409, 'origHeight': 409, 'width': 409, 'height': 409, 'widthPercent': 0.45, 'rescaleHeight': False, 'trialN': 86, 'loaded': True, 'loadedTime': 13453.5, 'positionName': 'LEFT', 'positionCoords': [246.68, 179.5], 'bid': 7.890000000000001}, {'imgObject': {}, 'id': 'blackbeanswithrice', 'src': '/static/foodstim60/blackbeanswithrice.jpg', 'key': 'i', 'origWidth': 410, 'origHeight': 410, 'width': 410, 'height': 410, 'widthPercent': 0.45, 'rescaleHeight': False, 'trialN': 86, 'loaded': True, 'loadedTime': 14446.300000000003, 'positionName': 'RIGHT', 'positionCoords': [710.32, 179], 'bid': 3.74}]",174102.7,1669830296808,mashed potato,blackbeanswithrice,7.890000000000001,3.74,-4.15,mashed potato,958,960,959.5,True,u,175566.40000000002,1463.7000000000116,1669830298272,1464,HRV,HRV_0104,2022-11-30 17:47:40
87,"[{'imgObject': {}, 'id': 'strawberries', 'src': '/static/foodstim60/strawberries.jpg', 'key': 'u', 'origWidth': 410, 'origHeight': 410, 'width': 410, 'height': 410, 'widthPercent': 0.45, 'rescaleHeight': False, 'trialN': 87, 'loaded': True, 'loadedTime': 15925.5, 'positionName': 'LEFT', 'positionCoords': [245.68, 179], 'bid': 6.0600000000000005}, {'imgObject': {}, 'id': 'fruitsalad', 'src': '/static/foodstim60/fruitsalad.jpg', 'key': 'i', 'origWidth': 410, 'origHeight': 410, 'width': 410, 'height': 410, 'widthPercent': 0.45, 'rescaleHeight': False, 'trialN': 87, 'loaded': True, 'loadedTime': 11687.699999999997, 'positionName': 'RIGHT', 'positionCoords': [710.32, 179], 'bid': 1.95}]",175566.59999999998,1669830298272,strawberries,fruitsalad,6.0600000000000005,1.95,-4.11,strawberries,741,744,744.1000000000349,True,u,176814.40000000002,1247.8000000000466,1669830299520,1248,HRV,HRV_0104,2022-11-30 17:47:40
88,"[{'imgObject': {}, 'id': 'baked potato', 'src': '/static/foodstim60/baked potato.jpg', 'key': 'u', 'origWidth': 409, 'origHeight': 410, 'width': 409, 'height': 410, 'widthPercent': 0.45, 'rescaleHeight': False, 'trialN': 88, 'loaded': True, 'loadedTime': 15724.5, 'positionName': 'LEFT', 'positionCoords': [246.68, 179], 'bid': 7.26}, {'imgObject': {}, 'id': 'froot loops w milk', 'src': '/static/foodstim60/froot loops w milk.jpg', 'key': 'i', 'origWidth': 410, 'origHeight': 410, 'width': 410, 'height': 410, 'widthPercent': 0.45, 'rescaleHeight': False, 'trialN': 88, 'loaded': True, 'loadedTime': 16399.70000000001, 'positionName': 'RIGHT', 'positionCoords': [710.32, 179], 'bid': 6.4}]",176814.7,1669830299520,baked potato,froot loops w milk,7.26,6.4,-0.8599999999999994,baked potato,730.5,732,732.0999999999767,True,u,178054.3,1239.5999999999767,1669830300760,1240,HRV,HRV_0104,2022-11-30 17:47:40
89,"[{'imgObject': {}, 'id': 'pear', 'src': '/static/foodstim60/pear.jpg', 'key': 'u', 'origWidth': 411, 'origHeight': 410, 'width': 411, 'height': 410, 'widthPercent': 0.45, 'rescaleHeight': False, 'trialN': 89, 'loaded': True, 'loadedTime': 13452, 'positionName': 'LEFT', 'positionCoords': [244.68, 179], 'bid': 5.71}, {'imgObject': {}, 'id': 'apple slices', 'src': '/static/foodstim60/apple slices.jpg', 'key': 'i', 'origWidth': 409, 'origHeight': 410, 'width': 409, 'height': 410, 'widthPercent': 0.45, 'rescaleHeight': False, 'trialN': 89, 'loaded': True, 'loadedTime': 14547.199999999997, 'positionName': 'RIGHT', 'positionCoords': [710.32, 179], 'bid': 5.6000000000000005}]",178054.59999999998,1669830300760,pear,apple slices,5.71,5.6000000000000005,-0.10999999999999943,apple slices,947.6000000000349,949,949.0,True,i,179510.40000000002,1455.8000000000466,1669830302216,1456,HRV,HRV_0104,2022-11-30 17:47:40
90,"[{'imgObject': {}, 'id': 'veggieswithdip', 'src': '/static/foodstim60/veggieswithdip.jpg', 'key': 'u', 'origWidth': 409, 'origHeight': 409, 'width': 409, 'height': 409, 'widthPercent': 0.45, 'rescaleHeight': False, 'trialN': 90, 'loaded': True, 'loadedTime': 15771, 'positionName': 'LEFT', 'positionCoords': [246.68, 179.5], 'bid': 1.39}, {'imgObject': {}, 'id': 'cherry tomato', 'src': '/static/foodstim60/cherry tomato.jpg', 'key': 'i', 'origWidth': 410, 'origHeight': 410, 'width': 410, 'height': 410, 'widthPercent': 0.45, 'rescaleHeight': False, 'trialN': 90, 'loaded': True, 'loadedTime': 16554.79999999999, 'positionName': 'RIGHT', 'positionCoords': [710.32, 179], 'bid': 0.38}]",190142.59999999998,1669830312848,veggieswithdip,cherry tomato,1.39,0.38,-1.0099999999999998,veggieswithdip,1248.100000000035,1263,1262.7000000000116,True,u,191910.40000000002,1767.8000000000466,1669830314616,1768,HRV,HRV_0104,2022-11-30 17:47:40
91,"[{'imgObject': {}, 'id': 'mango', 'src': '/static/foodstim60/mango.jpg', 'key': 'u', 'origWidth': 411, 'origHeight': 411, 'width': 411, 'height': 411, 'widthPercent': 0.45, 'rescaleHeight': False, 'trialN': 91, 'loaded': True, 'loadedTime': 16166.100000000006, 'positionName': 'LEFT', 'positionCoords': [244.68, 178.5], 'bid': 1.79}, {'imgObject': {}, 'id': 'veggieswithdip', 'src': '/static/foodstim60/veggieswithdip.jpg', 'key': 'i', 'origWidth': 409, 'origHeight': 409, 'width': 409, 'height': 409, 'widthPercent': 0.45, 'rescaleHeight': False, 'trialN': 91, 'loaded': True, 'loadedTime': 15785.399999999994, 'positionName': 'RIGHT', 'positionCoords': [710.32, 179.5], 'bid': 1.39}]",191910.59999999998,1669830314616,mango,veggieswithdip,1.79,1.39,-0.40000000000000013,veggieswithdip,1259.100000000035,1260,1260.3000000000466,True,i,193678.40000000002,1767.8000000000466,1669830316384,1768,HRV,HRV_0104,2022-11-30 17:47:40
92,"[{'imgObject': {}, 'id': 'shreddedwheatwithmilk', 'src': '/static/foodstim60/shreddedwheatwithmilk.jpg', 'key': 'u', 'origWidth': 410, 'origHeight': 410, 'width': 410, 'height': 410, 'widthPercent': 0.45, 'rescaleHeight': False, 'trialN': 92, 'loaded': True, 'loadedTime': 16390.79999999999, 'positionName': 'LEFT', 'positionCoords': [245.68, 179], 'bid': 6.01}, {'imgObject': {}, 'id': 'pear', 'src': '/static/foodstim60/pear.jpg', 'key': 'i', 'origWidth': 411, 'origHeight': 410, 'width': 411, 'height': 410, 'widthPercent': 0.45, 'rescaleHeight': False, 'trialN': 92, 'loaded': True, 'loadedTime': 13251.100000000006, 'positionName': 'RIGHT', 'positionCoords': [710.32, 179], 'bid': 5.71}]",193678.7,1669830316384,shreddedwheatwithmilk,pear,6.01,5.71,-0.2999999999999998,shreddedwheatwithmilk,837.8999999999651,840,839.2999999999884,True,u,195022.40000000002,1343.7000000000116,1669830317728,1344,HRV,HRV_0104,2022-11-30 17:47:40
93,"[{'imgObject': {}, 'id': 'blackbeanswithrice', 'src': '/static/foodstim60/blackbeanswithrice.jpg', 'key': 'u', 'origWidth': 410, 'origHeight': 410, 'width': 410, 'height': 410, 'widthPercent': 0.45, 'rescaleHeight': False, 'trialN': 93, 'loaded': True, 'loadedTime': 14477.300000000003, 'positionName': 'LEFT', 'positionCoords': [245.68, 179], 'bid': 3.74}, {'imgObject': {}, 'id': 'burger', 'src': '/static/foodstim60/burger.jpg', 'key': 'i', 'origWidth': 409, 'origHeight': 409, 'width': 409, 'height': 409, 'widthPercent': 0.45, 'rescaleHeight': False, 'trialN': 93, 'loaded': True, 'loadedTime': 17153.70000000001, 'positionName': 'RIGHT', 'positionCoords': [710.32, 179.5], 'bid': 3.6}]",195022.7,1669830317728,blackbeanswithrice,burger,3.74,3.6,-0.14000000000000012,blackbeanswithrice,891.5,893,892.8999999999651,True,u,196422.3,1399.5999999999767,1669830319128,1400,HRV,HRV_0104,2022-11-30 17:47:40
94,"[{'imgObject': {}, 'id': 'luckycharms', 'src': '/static/foodstim60/luckycharms.jpg', 'key': 'u', 'origWidth': 410, 'origHeight': 409, 'width': 410, 'height': 409, 'widthPercent': 0.45, 'rescaleHeight': False, 'trialN': 94, 'loaded': True, 'loadedTime': 16597.899999999994, 'positionName': 'LEFT', 'positionCoords': [245.68, 179.5], 'bid': 5.8}, {'imgObject': {}, 'id': 'baked potato', 'src': '/static/foodstim60/baked potato.jpg', 'key': 'i', 'origWidth': 409, 'origHeight': 410, 'width': 409, 'height': 410, 'widthPercent': 0.45, 'rescaleHeight': False, 'trialN': 94, 'loaded': True, 'loadedTime': 15735.200000000012, 'positionName': 'RIGHT', 'positionCoords': [710.32, 179], 'bid': 7.26}]",196422.59999999998,1669830319128,luckycharms,baked potato,5.8,7.26,1.46,baked potato,1196.7000000000116,1198,1198.0,True,i,198127.0,1704.4000000000233,1669830320832,1704,HRV,HRV_0104,2022-11-30 17:47:40
95,"[{'imgObject': {}, 'id': 'eggsalad', 'src': '/static/foodstim60/eggsalad.jpg', 'key': 'u', 'origWidth': 410, 'origHeight': 409, 'width': 410, 'height': 409, 'widthPercent': 0.45, 'rescaleHeight': False, 'trialN': 95, 'loaded': True, 'loadedTime': 12574.100000000006, 'positionName': 'LEFT', 'positionCoords': [245.68, 179.5], 'bid': 6.2}, {'imgObject': {}, 'id': 'mac & cheese', 'src': '/static/foodstim60/mac & cheese.jpg', 'key': 'i', 'origWidth': 410, 'origHeight': 410, 'width': 410, 'height': 410, 'widthPercent': 0.45, 'rescaleHeight': False, 'trialN': 95, 'loaded': True, 'loadedTime': 16898.600000000006, 'positionName': 'RIGHT', 'positionCoords': [710.32, 179], 'bid': 9.45}]",198127.2,1669830320833,eggsalad,mac & cheese,6.2,9.45,3.249999999999999,mac & cheese,740.8999999999651,742,742.5,True,i,199374.8,1247.5999999999767,1669830322080,1247,HRV,HRV_0104,2022-11-30 17:47:40
96,"[{'imgObject': {}, 'id': 'turkeysandwich', 'src': '/static/foodstim60/turkeysandwich.jpg', 'key': 'u', 'origWidth': 409, 'origHeight': 409, 'width': 409, 'height': 409, 'widthPercent': 0.45, 'rescaleHeight': False, 'trialN': 96, 'loaded': True, 'loadedTime': 12994.300000000003, 'positionName': 'LEFT', 'positionCoords': [246.68, 179.5], 'bid': 2.27}, {'imgObject': {}, 'id': 'fried eggs', 'src': '/static/foodstim60/fried eggs.jpg', 'key': 'i', 'origWidth': 410, 'origHeight': 410, 'width': 410, 'height': 410, 'widthPercent': 0.45, 'rescaleHeight': False, 'trialN': 96, 'loaded': True, 'loadedTime': 14425, 'positionName': 'RIGHT', 'positionCoords': [710.32, 179], 'bid': 3.68}]",199375.2,1669830322081,turkeysandwich,fried eggs,2.27,3.68,1.4100000000000001,fried eggs,768.0999999999767,770,770.2999999999884,True,i,200646.5,1271.2999999999884,1669830323352,1271,HRV,HRV_0104,2022-11-30 17:47:40
97,"[{'imgObject': {}, 'id': 'omelette', 'src': '/static/foodstim60/omelette.jpg', 'key': 'u', 'origWidth': 410, 'origHeight': 409, 'width': 410, 'height': 409, 'widthPercent': 0.45, 'rescaleHeight': False, 'trialN': 97, 'loaded': True, 'loadedTime': 11976.199999999997, 'positionName': 'LEFT', 'positionCoords': [245.68, 179.5], 'bid': 3.79}, {'imgObject': {}, 'id': 'ice cream sundae 002', 'src': '/static/foodstim60/ice cream sundae 002.jpg', 'key': 'i', 'origWidth': 409, 'origHeight': 409, 'width': 409, 'height': 409, 'widthPercent': 0.45, 'rescaleHeight': False, 'trialN': 97, 'loaded': True, 'loadedTime': 14697.800000000003, 'positionName': 'RIGHT', 'positionCoords': [710.32, 179.5], 'bid': 5.29}]",200646.8,1669830323352,omelette,ice cream sundae 002,3.79,5.29,1.5,ice cream sundae 002,1323.2000000000116,1325,1324.600000000035,True,i,202478.40000000002,1831.600000000035,1669830325184,1832,HRV,HRV_0104,2022-11-30 17:47:40
98,"[{'imgObject': {}, 'id': 'froot loops w milk', 'src': '/static/foodstim60/froot loops w milk.jpg', 'key': 'u', 'origWidth': 410, 'origHeight': 410, 'width': 410, 'height': 410, 'widthPercent': 0.45, 'rescaleHeight': False, 'trialN': 98, 'loaded': True, 'loadedTime': 16391.899999999994, 'positionName': 'LEFT', 'positionCoords': [245.68, 179], 'bid': 6.4}, {'imgObject': {}, 'id': 'eggsalad', 'src': '/static/foodstim60/eggsalad.jpg', 'key': 'i', 'origWidth': 410, 'origHeight': 409, 'width': 410, 'height': 409, 'widthPercent': 0.45, 'rescaleHeight': False, 'trialN': 98, 'loaded': True, 'loadedTime': 12575.100000000006, 'positionName': 'RIGHT', 'positionCoords': [710.32, 179.5], 'bid': 6.2}]",202478.8,1669830325184,froot loops w milk,eggsalad,6.4,6.2,-0.20000000000000018,froot loops w milk,1028.5,1030,1029.9000000000233,True,u,204014.40000000002,1535.600000000035,1669830326720,1536,HRV,HRV_0104,2022-11-30 17:47:40
99,"[{'imgObject': {}, 'id': 'salad w chicken', 'src': '/static/foodstim60/salad w chicken.jpg', 'key': 'u', 'origWidth': 411, 'origHeight': 411, 'width': 411, 'height': 411, 'widthPercent': 0.45, 'rescaleHeight': False, 'trialN': 99, 'loaded': True, 'loadedTime': 15320.300000000003, 'positionName': 'LEFT', 'positionCoords': [244.68, 178.5], 'bid': 1.17}, {'imgObject': {}, 'id': 'salmon', 'src': '/static/foodstim60/salmon.jpg', 'key': 'i', 'origWidth': 410, 'origHeight': 409, 'width': 410, 'height': 409, 'widthPercent': 0.45, 'rescaleHeight': False, 'trialN': 99, 'loaded': True, 'loadedTime': 16568.20000000001, 'positionName': 'RIGHT', 'positionCoords': [710.32, 179.5], 'bid': 1.14}]",204014.7,1669830326720,salad w chicken,salmon,1.17,1.14,-0.030000000000000027,salmon,1486,1488,1487.7000000000116,True,i,206006.2,1991.5,1669830328712,1992,HRV,HRV_0104,2022-11-30 17:47:40
100,"[{'imgObject': {}, 'id': 'fried eggs', 'src': '/static/foodstim60/fried eggs.jpg', 'key': 'u', 'origWidth': 410, 'origHeight': 410, 'width': 410, 'height': 410, 'widthPercent': 0.45, 'rescaleHeight': False, 'trialN': 100, 'loaded': True, 'loadedTime': 14426.199999999997, 'positionName': 'LEFT', 'positionCoords': [245.68, 179], 'bid': 3.68}, {'imgObject': {}, 'id': 'grilled chicken strips', 'src': '/static/foodstim60/grilled chicken strips.jpg', 'key': 'i', 'origWidth': 410, 'origHeight': 411, 'width': 410, 'height': 411, 'widthPercent': 0.45, 'rescaleHeight': False, 'trialN': 100, 'loaded': True, 'loadedTime': 15135.100000000006, 'positionName': 'RIGHT', 'positionCoords': [710.32, 178.5], 'bid': 7.69}]",206006.59999999998,1669830328712,fried eggs,grilled chicken strips,3.68,7.69,4.01,fried eggs,857.9000000000233,859,859.2000000000116,True,u,207366.7,1360.100000000035,1669830330072,1360,HRV,HRV_0104,2022-11-30 17:47:40
101,"[{'imgObject': {}, 'id': 'eggs', 'src': '/static/foodstim60/eggs.jpg', 'key': 'u', 'origWidth': 409, 'origHeight': 409, 'width': 409, 'height': 409, 'widthPercent': 0.45, 'rescaleHeight': False, 'trialN': 101, 'loaded': True, 'loadedTime': 15108.600000000006, 'positionName': 'LEFT', 'positionCoords': [246.68, 179.5], 'bid': 5.1000000000000005}, {'imgObject': {}, 'id': 'omelette', 'src': '/static/foodstim60/omelette.jpg', 'key': 'i', 'origWidth': 410, 'origHeight': 409, 'width': 410, 'height': 409, 'widthPercent': 0.45, 'rescaleHeight': False, 'trialN': 101, 'loaded': True, 'loadedTime': 11975.5, 'positionName': 'RIGHT', 'positionCoords': [710.32, 179.5], 'bid': 3.79}]",207367.0,1669830330072,eggs,omelette,5.1000000000000005,3.79,-1.3100000000000005,eggs,1397.9000000000233,1400,1399.5999999999767,True,u,209270.3,1903.2999999999884,1669830331976,1904,HRV,HRV_0104,2022-11-30 17:47:40
102,"[{'imgObject': {}, 'id': 'fried eggs', 'src': '/static/foodstim60/fried eggs.jpg', 'key': 'u', 'origWidth': 410, 'origHeight': 410, 'width': 410, 'height': 410, 'widthPercent': 0.45, 'rescaleHeight': False, 'trialN': 102, 'loaded': True, 'loadedTime': 14426.800000000003, 'positionName': 'LEFT', 'positionCoords': [245.68, 179], 'bid': 3.68}, {'imgObject': {}, 'id': 'raisin bran w milk', 'src': '/static/foodstim60/raisin bran w milk.jpg', 'key': 'i', 'origWidth': 411, 'origHeight': 411, 'width': 411, 'height': 411, 'widthPercent': 0.45, 'rescaleHeight': False, 'trialN': 102, 'loaded': True, 'loadedTime': 16917.100000000006, 'positionName': 'RIGHT', 'positionCoords': [710.32, 178.5], 'bid': 5.2700000000000005}]",209270.59999999998,1669830331976,fried eggs,raisin bran w milk,3.68,5.2700000000000005,1.5900000000000003,fried eggs,1256.2000000000116,1258,1258.2000000000116,True,u,211030.40000000002,1759.8000000000466,1669830333736,1760,HRV,HRV_0104,2022-11-30 17:47:40
103,"[{'imgObject': {}, 'id': 'hotdog w must', 'src': '/static/foodstim60/hotdog w must.jpg', 'key': 'u', 'origWidth': 409, 'origHeight': 409, 'width': 409, 'height': 409, 'widthPercent': 0.45, 'rescaleHeight': False, 'trialN': 103, 'loaded': True, 'loadedTime': 14907.300000000003, 'positionName': 'LEFT', 'positionCoords': [246.68, 179.5], 'bid': 3.03}, {'imgObject': {}, 'id': 'salad w chicken', 'src': '/static/foodstim60/salad w chicken.jpg', 'key': 'i', 'origWidth': 411, 'origHeight': 411, 'width': 411, 'height': 411, 'widthPercent': 0.45, 'rescaleHeight': False, 'trialN': 103, 'loaded': True, 'loadedTime': 15320.899999999994, 'positionName': 'RIGHT', 'positionCoords': [710.32, 178.5], 'bid': 1.17}]",211030.7,1669830333736,hotdog w must,salad w chicken,3.03,1.17,-1.8599999999999999,hotdog w must,1285.7000000000116,1287,1287.2000000000116,True,u,212822.40000000002,1791.7000000000116,1669830335528,1792,HRV,HRV_0104,2022-11-30 17:47:40
104,"[{'imgObject': {}, 'id': 'rigatoni', 'src': '/static/foodstim60/rigatoni.jpg', 'key': 'u', 'origWidth': 411, 'origHeight': 411, 'width': 411, 'height': 411, 'widthPercent': 0.45, 'rescaleHeight': False, 'trialN': 104, 'loaded': True, 'loadedTime': 17165.100000000006, 'positionName': 'LEFT', 'positionCoords': [244.68, 178.5], 'bid': 5.61}, {'imgObject': {}, 'id': 'Grapes', 'src': '/static/foodstim60/Grapes.jpg', 'key': 'i', 'origWidth': 411, 'origHeight': 411, 'width': 411, 'height': 411, 'widthPercent': 0.45, 'rescaleHeight': False, 'trialN': 104, 'loaded': True, 'loadedTime': 15914.200000000012, 'positionName': 'RIGHT', 'positionCoords': [710.32, 178.5], 'bid': 5.73}]",212822.7,1669830335528,rigatoni,Grapes,5.61,5.73,0.1200000000000001,rigatoni,1184.0999999999767,1186,1185.899999999965,True,u,214510.3,1687.5999999999767,1669830337216,1688,HRV,HRV_0104,2022-11-30 17:47:40
105,"[{'imgObject': {}, 'id': 'eggsalad', 'src': '/static/foodstim60/eggsalad.jpg', 'key': 'u', 'origWidth': 410, 'origHeight': 409, 'width': 410, 'height': 409, 'widthPercent': 0.45, 'rescaleHeight': False, 'trialN': 105, 'loaded': True, 'loadedTime': 12380.899999999994, 'positionName': 'LEFT', 'positionCoords': [245.68, 179.5], 'bid': 6.2}, {'imgObject': {}, 'id': 'chickenfingers', 'src': '/static/foodstim60/chickenfingers.jpg', 'key': 'i', 'origWidth': 410, 'origHeight': 410, 'width': 410, 'height': 410, 'widthPercent': 0.45, 'rescaleHeight': False, 'trialN': 105, 'loaded': True, 'loadedTime': 15300.800000000003, 'positionName': 'RIGHT', 'positionCoords': [710.32, 179], 'bid': 8.26}]",214510.7,1669830337216,eggsalad,chickenfingers,6.2,8.26,2.0599999999999996,chickenfingers,852,853,853.2000000000116,True,i,215870.5,1359.7999999999884,1669830338576,1360,HRV,HRV_0104,2022-11-30 17:47:40
106,"[{'imgObject': {}, 'id': 'raisin bran w milk', 'src': '/static/foodstim60/raisin bran w milk.jpg', 'key': 'u', 'origWidth': 411, 'origHeight': 411, 'width': 411, 'height': 411, 'widthPercent': 0.45, 'rescaleHeight': False, 'trialN': 106, 'loaded': True, 'loadedTime': 16921.5, 'positionName': 'LEFT', 'positionCoords': [244.68, 178.5], 'bid': 5.2700000000000005}, {'imgObject': {}, 'id': 'cheerios', 'src': '/static/foodstim60/cheerios.jpg', 'key': 'i', 'origWidth': 409, 'origHeight': 410, 'width': 409, 'height': 410, 'widthPercent': 0.45, 'rescaleHeight': False, 'trialN': 106, 'loaded': True, 'loadedTime': 16588, 'positionName': 'RIGHT', 'positionCoords': [710.32, 179], 'bid': 5.29}]",215870.59999999998,1669830338576,raisin bran w milk,cheerios,5.2700000000000005,5.29,0.019999999999999574,cheerios,1495.4000000000233,1497,1496.8000000000466,True,i,217870.40000000002,1999.8000000000466,1669830340576,2000,HRV,HRV_0104,2022-11-30 17:47:40
107,"[{'imgObject': {}, 'id': 'shreddedwheatwithmilk', 'src': '/static/foodstim60/shreddedwheatwithmilk.jpg', 'key': 'u', 'origWidth': 410, 'origHeight': 410, 'width': 410, 'height': 410, 'widthPercent': 0.45, 'rescaleHeight': False, 'trialN': 107, 'loaded': True, 'loadedTime': 16391.100000000006, 'positionName': 'LEFT', 'positionCoords': [245.68, 179], 'bid': 6.01}, {'imgObject': {}, 'id': 'banana', 'src': '/static/foodstim60/banana.jpg', 'key': 'i', 'origWidth': 410, 'origHeight': 410, 'width': 410, 'height': 410, 'widthPercent': 0.45, 'rescaleHeight': False, 'trialN': 107, 'loaded': True, 'loadedTime': 12198, 'positionName': 'RIGHT', 'positionCoords': [710.32, 179], 'bid': 6.11}]",217870.7,1669830340576,shreddedwheatwithmilk,banana,6.01,6.11,0.10000000000000053,banana,831.3999999999651,833,832.8999999999651,True,i,219206.40000000002,1335.7000000000116,1669830341912,1336,HRV,HRV_0104,2022-11-30 17:47:40
108,"[{'imgObject': {}, 'id': 'rigatoni and sauce', 'src': '/static/foodstim60/rigatoni and sauce.jpg', 'key': 'u', 'origWidth': 410, 'origHeight': 411, 'width': 410, 'height': 411, 'widthPercent': 0.45, 'rescaleHeight': False, 'trialN': 108, 'loaded': True, 'loadedTime': 14719.300000000003, 'positionName': 'LEFT', 'positionCoords': [245.68, 178.5], 'bid': 8.89}, {'imgObject': {}, 'id': 'mac & cheese', 'src': '/static/foodstim60/mac & cheese.jpg', 'key': 'i', 'origWidth': 410, 'origHeight': 410, 'width': 410, 'height': 410, 'widthPercent': 0.45, 'rescaleHeight': False, 'trialN': 108, 'loaded': True, 'loadedTime': 16895.79999999999, 'positionName': 'RIGHT', 'positionCoords': [710.32, 179], 'bid': 9.45}]",219206.59999999998,1669830341912,rigatoni and sauce,mac & cheese,8.89,9.45,0.5599999999999987,mac & cheese,1095.4000000000233,1097,1097.0,True,i,220806.40000000002,1599.8000000000466,1669830343512,1600,HRV,HRV_0104,2022-11-30 17:47:40
