success,trial_type,trial_index,time_elapsed,internal_node_id,Block,TrialNumber,TrialTime,trialTimeDiff,FPS_avg,FPS_med,FPS_mode,TrialDur,winResizeTime,rt,block,button_pressed,MotCoh,MotDir,ColCoh,Color,ChoiceKey,Choice,Accuracy,RT,nFrames,FPS,PPD,missTrial,missTrialMsg,onsetDelay,fullScreenExitTime,canvCenter,TrialType,Score,BlockTrial,stimulus,button_labels,exp,subjectId,date
True,fullscreen,0,2543,0.0-0.0,0.0,1.0,,,,,,,,,,,,,,,,,,,,,,,,,,,,,,,,HRV,HRV_0104,2022-11-30 18:14:16
,wl-check-fps,1,7556,0.0-1.0,0.0,2.0,"[3392.6, 3397.7, 3413.8, 3442, 3461.9, 3478.4, 3495.4, 3511.9, 3528.6, 3546.7, 3564, 3578.7, 3595.1, 3611.8, 3628.4, 3645, 3662.1, 3678.5, 3694.8, 3711.5, 3728.1, 3745.5, 3762.1, 3778.6, 3795.8, 3812.2, 3829, 3845.4, 3862.2, 3878.9, 3895, 3912.3, 3928.8, 3945.2, 3961.6, 3978.1, 3995.5, 4012.2, 4028.8, 4045.1, 4061.9, 4078.2, 4095, 4111.9, 4128.3, 4144.9, 4161.6, 4178.1, 4194.8, 4211.7, 4228.3, 4244.9, 4261.6, 4278.5, 4295.4, 4312, 4328.1, 4345.4, 4361.4, 4378.1, 4395.2, 4411.4, 4428.1, 4444.9, 4461.4, 4478.6, 4494.8, 4512, 4528.5, 4545.4, 4562, 4578.4, 4595.5, 4611.9, 4628.6, 4645.3, 4662.1, 4679.1, 4695.9, 4712.1, 4728.4, 4745.3, 4762, 4779, 4795.6, 4812.4, 4829.1, 4845.7, 4862.3, 4878.7, 4895.2, 4911.8, 4929, 4946.5, 4962.3, 4978.7, 4995.5, 5013, 5029.6, 5045.2, 5061.9, 5078.4, 5094.9, 5111.6, 5128.1, 5145.3, 5161.7, 5178.7, 5195.4, 5211.9, 5228.5, 5245.7, 5261.9, 5278.4, 5295.3, 5311.5, 5328.5, 5345, 5361.9, 5378.9, 5395.9, 5411.8, 5428.7, 5445.7, 5461.9, 5478.1, 5495.4, 5511.6, 5529.8, 5546.3, 5562.5, 5579.3, 5595.7, 5612.1, 5630, 5646, 5662.1, 5678.4, 5695.8, 5712.4, 5728.1, 5745.3, 5761.5, 5778.7, 5794.8, 5812.2, 5828.6, 5844.8, 5861.3, 5878.1, 5895.6, 5912.2, 5929, 5946, 5962, 5978.9, 5996, 6011.7, 6028.3, 6045.3, 6061.5, 6079.6, 6095.3, 6112.4, 6128.3, 6145.3, 6161.8, 6178.4, 6195.8, 6211.7, 6228.7, 6245.1, 6261.6, 6278.3, 6295.1, 6311.9, 6328.9, 6345.3, 6362, 6378.9, 6395.7, 6411.5, 6428.6, 6445.3, 6462.1, 6478.7, 6496.4, 6512.5, 6529.1, 6545.6, 6561.9, 6578.5, 6595.2, 6612.3, 6628.5, 6645.2, 6661.9, 6678.5, 6696.4, 6711.9, 6728.1, 6744.7, 6765.7, 6778.5, 6795.2, 6811.7, 6828.4, 6845.3, 6862.1, 6879.8, 6894.7, 6911.6, 6927.9, 6944.7, 6961.4, 6978.1, 6995.4, 7011.5, 7028.3, 7044.7, 7063.2, 7079, 7095.5, 7111.7, 7128.2, 7144.8, 7162.7, 7179, 7194.8, 7211.4, 7228.6, 7244.8, 7262.9, 7280.1, 7296.8, 7312.8, 7330, 7346.5, 7362.3, 7378.2, 7394.9, 7412.2, 7428.6, 7446.4, 7463.2, 7479.7, 7497.8, 7513.6, 7530.4, 7546.7, 7562.9, 7579.6, 7596.4, 7612.1, 7628.7, 7645.1, 7661.4, 7679.4, 7698.2, 7712.9, 7728.1, 7744.9, 7762.4, 7778, 7794.6, 7811.3, 7828, 7845.5, 7862.3, 7878.4, 7895.2, 7912.5, 7928.9, 7945.3, 7961.3, 7978, 7995.2, 8011.5, 8028.3, 8044.9, 8062.2, 8078.5, 8094.8, 8112.1, 8128.1, 8144.7, 8161.3, 8178, 8194.7, 8211.4, 8228.1, 8244.6, 8261.3, 8278.6, 8294.5, 8311.3, 8328.5, 8344.8, 8361.3, 8378.3]","[6.5, 5.1, 16.1, 28.2, 19.9, 16.5, 17, 16.5, 16.7, 18.1, 17.3, 14.7, 16.4, 16.7, 16.6, 16.6, 17.1, 16.4, 16.3, 16.7, 16.6, 17.4, 16.6, 16.5, 17.2, 16.4, 16.8, 16.4, 16.8, 16.7, 16.1, 17.3, 16.5, 16.4, 16.4, 16.5, 17.4, 16.7, 16.6, 16.3, 16.8, 16.3, 16.8, 16.9, 16.4, 16.6, 16.7, 16.5, 16.7, 16.9, 16.6, 16.6, 16.7, 16.9, 16.9, 16.6, 16.1, 17.3, 16, 16.7, 17.1, 16.2, 16.7, 16.8, 16.5, 17.2, 16.2, 17.2, 16.5, 16.9, 16.6, 16.4, 17.1, 16.4, 16.7, 16.7, 16.8, 17, 16.8, 16.2, 16.3, 16.9, 16.7, 17, 16.6, 16.8, 16.7, 16.6, 16.6, 16.4, 16.5, 16.6, 17.2, 17.5, 15.8, 16.4, 16.8, 17.5, 16.6, 15.6, 16.7, 16.5, 16.5, 16.7, 16.5, 17.2, 16.4, 17, 16.7, 16.5, 16.6, 17.2, 16.2, 16.5, 16.9, 16.2, 17, 16.5, 16.9, 17, 17, 15.9, 16.9, 17, 16.2, 16.2, 17.3, 16.2, 18.2, 16.5, 16.2, 16.8, 16.4, 16.4, 17.9, 16, 16.1, 16.3, 17.4, 16.6, 15.7, 17.2, 16.2, 17.2, 16.1, 17.4, 16.4, 16.2, 16.5, 16.8, 17.5, 16.6, 16.8, 17, 16, 16.9, 17.1, 15.7, 16.6, 17, 16.2, 18.1, 15.7, 17.1, 15.9, 17, 16.5, 16.6, 17.4, 15.9, 17, 16.4, 16.5, 16.7, 16.8, 16.8, 17, 16.4, 16.7, 16.9, 16.8, 15.8, 17.1, 16.7, 16.8, 16.6, 17.7, 16.1, 16.6, 16.5, 16.3, 16.6, 16.7, 17.1, 16.2, 16.7, 16.7, 16.6, 17.9, 15.5, 16.2, 16.6, 21, 12.8, 16.7, 16.5, 16.7, 16.9, 16.8, 17.7, 14.9, 16.9, 16.3, 16.8, 16.7, 16.7, 17.3, 16.1, 16.8, 16.4, 18.5, 15.8, 16.5, 16.2, 16.5, 16.6, 17.9, 16.3, 15.8, 16.6, 17.2, 16.2, 18.1, 17.2, 16.7, 16, 17.2, 16.5, 15.8, 15.9, 16.7, 17.3, 16.4, 17.8, 16.8, 16.5, 18.1, 15.8, 16.8, 16.3, 16.2, 16.7, 16.8, 15.7, 16.6, 16.4, 16.3, 18, 18.8, 14.7, 15.2, 16.8, 17.5, 15.6, 16.6, 16.7, 16.7, 17.5, 16.8, 16.1, 16.8, 17.3, 16.4, 16.4, 16, 16.7, 17.2, 16.3, 16.8, 16.6, 17.3, 16.3, 16.3, 17.3, 16, 16.6, 16.6, 16.7, 16.7, 16.7, 16.7, 16.5, 16.7, 17.3, 15.9, 16.8, 17.2, 16.3, 16.5, 17]",60.0,58.0,60.0,5008.7,[],,,,,,,,,,,,,,,,,,,,,,,,,HRV,HRV_0104,2022-11-30 18:14:16
,wl-html-keyboard-response,2,19359,0.0-2.0-0.0,0.0,3.0,,,,,,,,9792.700000000186,0.0,0,,,,,,,,,,,,,,,,,,,,,,HRV,HRV_0104,2022-11-30 18:14:16
,wl-rdm,3,26604,0.0-3.0-0.0,0.0,4.0,,,,,,,[],,,,0.0,0.0,87.9,0.0,u,0.0,True,1640.1000000000931,99.0,60.0,40.0,False,,3000.0,[],"[683, 384]",ColorTask_Demo,,,,,HRV,HRV_0104,2022-11-30 18:14:16
,wl-rdm,4,31437,0.0-3.0-1.0,0.0,5.0,,,,,,,[],,,,0.0,0.0,87.9,1.0,i,1.0,True,751.8000000002794,45.0,60.0,40.0,False,,2000.0,[],"[683, 384]",ColorTask_Demo,,,,,HRV,HRV_0104,2022-11-30 18:14:16
,wl-html-keyboard-response,5,36711,0.0-3.0-2.0,0.0,6.0,,,,,,,,3268.3000000000466,0.0,1,,,,,,,,,,,,,,,,,,,,,,HRV,HRV_0104,2022-11-30 18:14:16
,wl-html-keyboard-response,6,47055,0.0-4.0-0.0,0.0,7.0,,,,,,,,8332.199999999953,0.0,0,,,,,,,,,,,,,,,,,,,,,,HRV,HRV_0104,2022-11-30 18:14:16
,wl-html-keyboard-response,7,68263,0.0-5.0-0.0,0.0,8.0,,,,,,,,19203.0,0.0,0,,,,,,,,,,,,,,,,,,,,,,HRV,HRV_0104,2022-11-30 18:14:16
,wl-rdm,8,71086,0.0-6.0-0.0,0.0,9.0,,,,,,,[],,,,,,73.6,0.0,u,0.0,True,1544.1999999999534,93.0,60.0,40.0,False,,214.05989936584447,[],"[683, 384]",ColorTask,1.0,1.0,,,HRV,HRV_0104,2022-11-30 18:14:16
,wl-rdm,9,73469,0.0-6.1-0.1,0.0,10.0,,,,,,,[],,,,,,62.5,0.0,i,1.0,False,1090.0,66.0,60.0,40.0,False,,204.84379204567878,[],"[683, 384]",ColorTask,0.0,2.0,,,HRV,HRV_0104,2022-11-30 18:14:16
,wl-rdm,10,75936,0.0-6.2-0.2,0.0,11.0,,,,,,,[],,,,,,73.6,0.0,u,0.0,True,1168.2999999998137,71.0,60.0,40.0,False,,227.61383791861127,[],"[683, 384]",ColorTask,1.0,3.0,,,HRV,HRV_0104,2022-11-30 18:14:16
,wl-rdm,11,78985,0.0-6.3-0.3,0.0,12.0,,,,,,,[],,,,,,53.2,0.0,u,0.0,True,1583.9000000001397,95.0,60.0,40.0,False,,386.57411433971896,[],"[683, 384]",ColorTask,2.0,4.0,,,HRV,HRV_0104,2022-11-30 18:14:16
,wl-rdm,12,82052,0.0-6.4-0.4,0.0,13.0,,,,,,,[],,,,,,62.5,1.0,i,1.0,True,1710.8999999999069,103.0,60.0,40.0,False,,274.5852723562579,[],"[683, 384]",ColorTask,3.0,5.0,,,HRV,HRV_0104,2022-11-30 18:14:16
,wl-rdm,13,84485,0.0-6.5-0.5,0.0,14.0,,,,,,,[],,,,,,87.9,1.0,i,1.0,True,1089.8000000000466,66.0,60.0,40.0,False,,284.6764689002998,[],"[683, 384]",ColorTask,4.0,6.0,,,HRV,HRV_0104,2022-11-30 18:14:16
,wl-rdm,14,87068,0.0-6.6-0.6,0.0,15.0,,,,,,,[],,,,,,56.4,1.0,i,1.0,True,1187.6000000000931,72.0,60.0,40.0,False,,331.1656083016512,[],"[683, 384]",ColorTask,5.0,7.0,,,HRV,HRV_0104,2022-11-30 18:14:16
,wl-rdm,15,89234,0.0-6.7-0.7,0.0,16.0,,,,,,,[],,,,,,73.6,1.0,i,1.0,True,792.3000000000466,48.0,60.0,40.0,False,,287.24522847905564,[],"[683, 384]",ColorTask,6.0,8.0,,,HRV,HRV_0104,2022-11-30 18:14:16
,wl-rdm,16,91368,0.0-6.8-0.8,0.0,17.0,,,,,,,[],,,,,,87.9,1.0,i,1.0,True,666.0999999998603,40.0,60.0,40.0,False,,395.3809399171634,[],"[683, 384]",ColorTask,7.0,9.0,,,HRV,HRV_0104,2022-11-30 18:14:16
,wl-rdm,17,93234,0.0-6.9-0.9,0.0,18.0,,,,,,,[],,,,,,50.0,0.0,i,1.0,False,535.6000000000931,33.0,60.0,40.0,False,,230.34844578896136,[],"[683, 384]",ColorTask,6.0,10.0,,,HRV,HRV_0104,2022-11-30 18:14:16
,wl-rdm,18,95802,0.0-6.10-0.10,0.0,19.0,,,,,,,[],,,,,,62.5,1.0,u,0.0,False,1101.6999999997206,67.0,60.0,40.0,False,,377.62365584197005,[],"[683, 384]",ColorTask,5.0,11.0,,,HRV,HRV_0104,2022-11-30 18:14:16
,wl-rdm,19,98935,0.0-6.11-0.11,0.0,20.0,,,,,,,[],,,,,,50.0,1.0,u,0.0,False,1759.3000000000466,106.0,60.0,40.0,False,,315.24828764215613,[],"[683, 384]",ColorTask,4.0,12.0,,,HRV,HRV_0104,2022-11-30 18:14:16
,wl-rdm,20,101184,0.0-6.12-0.12,0.0,21.0,,,,,,,[],,,,,,53.2,0.0,i,1.0,False,918.4999999997672,55.0,60.0,40.0,False,,265.65989173657925,[],"[683, 384]",ColorTask,3.0,13.0,,,HRV,HRV_0104,2022-11-30 18:14:16
,wl-rdm,21,103551,0.0-6.13-0.13,0.0,22.0,,,,,,,[],,,,,,87.9,0.0,u,0.0,True,1052.2000000001863,64.0,60.0,40.0,False,,221.0756201219441,[],"[683, 384]",ColorTask,4.0,14.0,,,HRV,HRV_0104,2022-11-30 18:14:16
,wl-rdm,22,107052,0.0-6.14-0.14,0.0,23.0,,,,,,,[],,,,,,50.0,1.0,u,0.0,False,2151.399999999674,130.0,60.0,40.0,False,,284.30585378314197,[],"[683, 384]",ColorTask,3.0,15.0,,,HRV,HRV_0104,2022-11-30 18:14:16
,wl-rdm,23,109734,0.0-6.15-0.15,0.0,24.0,,,,,,,[],,,,,,53.2,1.0,i,1.0,True,1238.2000000001863,75.0,60.0,40.0,False,,353.0672451403583,[],"[683, 384]",ColorTask,4.0,16.0,,,HRV,HRV_0104,2022-11-30 18:14:16
,wl-rdm,24,112534,0.0-6.16-0.16,0.0,25.0,,,,,,,[],,,,,,56.4,0.0,u,0.0,True,1340.4000000001397,81.0,60.0,40.0,False,,378.87933028751604,[],"[683, 384]",ColorTask,5.0,17.0,,,HRV,HRV_0104,2022-11-30 18:14:16
,wl-rdm,25,115250,0.0-6.17-0.17,0.0,26.0,,,,,,,[],,,,,,53.2,1.0,i,1.0,True,1418.7000000001863,86.0,60.0,40.0,False,,220.75725527603913,[],"[683, 384]",ColorTask,6.0,18.0,,,HRV,HRV_0104,2022-11-30 18:14:16
,wl-rdm,26,118434,0.0-6.18-0.18,0.0,27.0,,,,,,,[],,,,,,56.4,0.0,i,1.0,False,1797.3000000000466,108.0,60.0,40.0,False,,311.79306797355855,[],"[683, 384]",ColorTask,5.0,19.0,,,HRV,HRV_0104,2022-11-30 18:14:16
,wl-rdm,27,121150,0.0-6.19-0.19,0.0,28.0,,,,,,,[],,,,,,56.4,1.0,i,1.0,True,1398.8000000000466,84.0,60.0,40.0,False,,257.80482572471163,[],"[683, 384]",ColorTask,6.0,20.0,,,HRV,HRV_0104,2022-11-30 18:14:16
,wl-rdm,28,123750,0.0-6.20-0.20,0.0,29.0,,,,,,,[],,,,,,62.5,0.0,u,0.0,True,1189.8999999999069,72.0,60.0,40.0,False,,316.43830825915074,[],"[683, 384]",ColorTask,7.0,21.0,,,HRV,HRV_0104,2022-11-30 18:14:16
,wl-rdm,29,126250,0.0-6.21-0.21,0.0,30.0,,,,,,,[],,,,,,62.5,0.0,u,0.0,True,1197.3000000000466,72.0,60.0,40.0,False,,230.5577797114202,[],"[683, 384]",ColorTask,8.0,22.0,,,HRV,HRV_0104,2022-11-30 18:14:16
,wl-rdm,30,129601,0.0-6.22-0.22,0.0,31.0,,,,,,,[],,,,,,50.0,1.0,u,0.0,False,1929.3000000000466,116.0,60.0,40.0,False,,344.2369099787693,[],"[683, 384]",ColorTask,7.0,23.0,,,HRV,HRV_0104,2022-11-30 18:14:16
,wl-rdm,31,132233,0.0-6.23-0.23,0.0,32.0,,,,,,,[],,,,,,56.4,1.0,i,1.0,True,1178.0999999998603,71.0,60.0,40.0,False,,368.9923760461902,[],"[683, 384]",ColorTask,8.0,24.0,,,HRV,HRV_0104,2022-11-30 18:14:16
,wl-rdm,32,134566,0.0-6.24-0.24,0.0,33.0,,,,,,,[],,,,,,73.6,0.0,u,0.0,True,1014.1000000000931,61.0,60.0,40.0,False,,242.8257088774593,[],"[683, 384]",ColorTask,9.0,25.0,,,HRV,HRV_0104,2022-11-30 18:14:16
,wl-rdm,33,138066,0.0-6.25-0.25,0.0,34.0,,,,,,,[],,,,,,62.5,0.0,u,0.0,True,2185.0999999998603,132.0,60.0,40.0,False,,240.006649666594,[],"[683, 384]",ColorTask,10.0,26.0,,,HRV,HRV_0104,2022-11-30 18:14:16
,wl-rdm,34,140266,0.0-6.26-0.26,0.0,35.0,,,,,,,[],,,,,,87.9,0.0,u,0.0,True,889.8999999999069,54.0,60.0,40.0,False,,240.39889097196013,[],"[683, 384]",ColorTask,11.0,27.0,,,HRV,HRV_0104,2022-11-30 18:14:16
,wl-rdm,35,142599,0.0-6.27-0.27,0.0,36.0,,,,,,,[],,,,,,53.2,1.0,u,0.0,False,1019.5,62.0,60.0,40.0,False,,227.84130687411445,[],"[683, 384]",ColorTask,10.0,28.0,,,HRV,HRV_0104,2022-11-30 18:14:16
,wl-rdm,36,144732,0.0-6.28-0.28,0.0,37.0,,,,,,,[],,,,,,87.9,0.0,u,0.0,True,798.2999999998137,48.0,60.0,40.0,False,,280.89176519775987,[],"[683, 384]",ColorTask,11.0,29.0,,,HRV,HRV_0104,2022-11-30 18:14:16
,wl-rdm,37,147182,0.0-6.29-0.29,0.0,38.0,,,,,,,[],,,,,,73.6,1.0,i,1.0,True,1166.0000000002328,70.0,60.0,40.0,False,,208.32833178961448,[],"[683, 384]",ColorTask,12.0,30.0,,,HRV,HRV_0104,2022-11-30 18:14:16
,wl-rdm,38,150382,0.0-6.30-0.30,0.0,39.0,,,,,,,[],,,,,,62.5,1.0,i,1.0,True,1757.2999999998137,106.0,60.0,40.0,False,,355.7983521207202,[],"[683, 384]",ColorTask,13.0,31.0,,,HRV,HRV_0104,2022-11-30 18:14:16
,wl-rdm,39,153449,0.0-6.31-0.31,0.0,40.0,,,,,,,[],,,,,,50.0,0.0,u,0.0,True,1798.7999999998137,108.0,60.0,40.0,False,,203.18967643892535,[],"[683, 384]",ColorTask,14.0,32.0,,,HRV,HRV_0104,2022-11-30 18:14:16
,wl-rdm,40,156199,0.0-6.32-0.32,0.0,41.0,,,,,,,[],,,,,,73.6,1.0,i,1.0,True,1299.1999999999534,78.0,60.0,40.0,False,,395.3791387510575,[],"[683, 384]",ColorTask,15.0,33.0,,,HRV,HRV_0104,2022-11-30 18:14:16
,wl-rdm,41,159481,0.0-6.33-0.33,0.0,42.0,,,,,,,[],,,,,,56.4,0.0,u,0.0,True,1870.5999999998603,113.0,60.0,40.0,False,,333.311585579263,[],"[683, 384]",ColorTask,16.0,34.0,,,HRV,HRV_0104,2022-11-30 18:14:16
,wl-rdm,42,161648,0.0-6.34-0.34,0.0,43.0,,,,,,,[],,,,,,62.5,1.0,i,1.0,True,876.8000000000466,53.0,60.0,40.0,False,,218.71151574102691,[],"[683, 384]",ColorTask,17.0,35.0,,,HRV,HRV_0104,2022-11-30 18:14:16
,wl-rdm,43,164448,0.0-6.35-0.35,0.0,44.0,,,,,,,[],,,,,,56.4,1.0,i,1.0,True,1500.4000000001397,90.0,60.0,40.0,False,,230.31910666971365,[],"[683, 384]",ColorTask,18.0,36.0,,,HRV,HRV_0104,2022-11-30 18:14:16
,wl-rdm,44,166564,0.0-6.36-0.36,0.0,45.0,,,,,,,[],,,,,,87.9,1.0,i,1.0,True,820.5999999998603,50.0,60.0,40.0,False,,209.4357198824418,[],"[683, 384]",ColorTask,19.0,37.0,,,HRV,HRV_0104,2022-11-30 18:14:16
,wl-rdm,45,168698,0.0-6.37-0.37,0.0,46.0,,,,,,,[],,,,,,50.0,1.0,i,1.0,True,851.0999999998603,51.0,60.0,40.0,False,,200.98076718626393,[],"[683, 384]",ColorTask,20.0,38.0,,,HRV,HRV_0104,2022-11-30 18:14:16
,wl-rdm,46,170764,0.0-6.38-0.38,0.0,47.0,,,,,,,[],,,,,,87.9,1.0,i,1.0,True,744.9000000001397,45.0,60.0,40.0,False,,241.24022296816275,[],"[683, 384]",ColorTask,21.0,39.0,,,HRV,HRV_0104,2022-11-30 18:14:16
,wl-rdm,47,173281,0.0-6.39-0.39,0.0,48.0,,,,,,,[],,,,,,62.5,0.0,u,0.0,True,1090.6999999999534,66.0,60.0,40.0,False,,341.87697140290834,[],"[683, 384]",ColorTask,22.0,40.0,,,HRV,HRV_0104,2022-11-30 18:14:16
,wl-rdm,48,175431,0.0-6.40-0.40,0.0,49.0,,,,,,,[],,,,,,87.9,0.0,u,0.0,True,754.8000000000466,46.0,60.0,40.0,False,,316.78203732337255,[],"[683, 384]",ColorTask,23.0,41.0,,,HRV,HRV_0104,2022-11-30 18:14:16
,wl-rdm,49,177547,0.0-6.41-0.41,0.0,50.0,,,,,,,[],,,,,,62.5,0.0,u,0.0,True,727.5999999998603,44.0,60.0,40.0,False,,317.0470807516394,[],"[683, 384]",ColorTask,24.0,42.0,,,HRV,HRV_0104,2022-11-30 18:14:16
,wl-rdm,50,179430,0.0-6.42-0.42,0.0,51.0,,,,,,,[],,,,,,56.4,0.0,u,0.0,True,611.2000000001863,37.0,60.0,40.0,False,,215.06669152247645,[],"[683, 384]",ColorTask,25.0,43.0,,,HRV,HRV_0104,2022-11-30 18:14:16
,wl-rdm,51,182014,0.0-6.43-0.43,0.0,52.0,,,,,,,[],,,,,,53.2,0.0,u,0.0,True,1271.0999999998603,77.0,60.0,40.0,False,,228.30496668003096,[],"[683, 384]",ColorTask,26.0,44.0,,,HRV,HRV_0104,2022-11-30 18:14:16
,wl-rdm,52,184347,0.0-6.44-0.44,0.0,53.0,,,,,,,[],,,,,,56.4,0.0,u,0.0,True,1062.6999999999534,64.0,60.0,40.0,False,,205.06387326587222,[],"[683, 384]",ColorTask,27.0,45.0,,,HRV,HRV_0104,2022-11-30 18:14:16
,wl-rdm,53,186714,0.0-6.45-0.45,0.0,54.0,,,,,,,[],,,,,,62.5,0.0,u,0.0,True,950.0,56.0,60.0,40.0,False,,336.2018299543752,[],"[683, 384]",ColorTask,28.0,46.0,,,HRV,HRV_0104,2022-11-30 18:14:16
,wl-rdm,54,189213,0.0-6.46-0.46,0.0,55.0,,,,,,,[],,,,,,62.5,1.0,u,0.0,False,1029.0,62.0,60.0,40.0,False,,398.9865422995653,[],"[683, 384]",ColorTask,27.0,47.0,,,HRV,HRV_0104,2022-11-30 18:14:16
,wl-rdm,55,191346,0.0-6.47-0.47,0.0,56.0,,,,,,,[],,,,,,53.2,0.0,i,1.0,False,791.1999999997206,48.0,60.0,40.0,False,,281.6599402375251,[],"[683, 384]",ColorTask,26.0,48.0,,,HRV,HRV_0104,2022-11-30 18:14:16
,wl-rdm,56,194632,0.0-6.48-0.48,0.0,57.0,,,,,,,[],,,,,,73.6,1.0,i,1.0,True,1967.5,118.0,60.0,40.0,False,,245.33674844007697,[],"[683, 384]",ColorTask,27.0,49.0,,,HRV,HRV_0104,2022-11-30 18:14:16
,wl-rdm,57,196896,0.0-6.49-0.49,0.0,58.0,,,,,,,[],,,,,,87.9,1.0,i,1.0,True,866.8000000002794,52.0,60.0,40.0,False,,345.8163267338354,[],"[683, 384]",ColorTask,28.0,50.0,,,HRV,HRV_0104,2022-11-30 18:14:16
,wl-rdm,58,199429,0.0-6.50-0.50,0.0,59.0,,,,,,,[],,,,,,56.4,1.0,i,1.0,True,1195.1999999997206,72.0,60.0,40.0,False,,256.4494727127279,[],"[683, 384]",ColorTask,29.0,51.0,,,HRV,HRV_0104,2022-11-30 18:14:16
,wl-rdm,59,201997,0.0-6.51-0.51,0.0,60.0,,,,,,,[],,,,,,50.0,0.0,i,1.0,False,1268.8999999999069,77.0,60.0,40.0,False,,224.63878783179047,[],"[683, 384]",ColorTask,28.0,52.0,,,HRV,HRV_0104,2022-11-30 18:14:16
,wl-rdm,60,205429,0.0-6.52-0.52,0.0,61.0,,,,,,,[],,,,,,56.4,0.0,u,0.0,True,2007.2999999998137,121.0,60.0,40.0,False,,345.18479678437615,[],"[683, 384]",ColorTask,29.0,53.0,,,HRV,HRV_0104,2022-11-30 18:14:16
,wl-rdm,61,208313,0.0-6.53-0.53,0.0,62.0,,,,,,,[],,,,,,56.4,1.0,i,1.0,True,1407.9999999997672,85.0,60.0,40.0,False,,388.8791445052269,[],"[683, 384]",ColorTask,30.0,54.0,,,HRV,HRV_0104,2022-11-30 18:14:16
,wl-rdm,62,210579,0.0-6.54-0.54,0.0,63.0,,,,,,,[],,,,,,87.9,0.0,u,0.0,True,879.6999999999534,53.0,60.0,40.0,False,,320.2161327399583,[],"[683, 384]",ColorTask,31.0,55.0,,,HRV,HRV_0104,2022-11-30 18:14:16
,wl-rdm,63,212762,0.0-6.55-0.55,0.0,64.0,,,,,,,[],,,,,,53.2,0.0,u,0.0,True,814.0,49.0,60.0,40.0,False,,310.4128056409315,[],"[683, 384]",ColorTask,32.0,56.0,,,HRV,HRV_0104,2022-11-30 18:14:16
,wl-rdm,64,215296,0.0-6.56-0.56,0.0,65.0,,,,,,,[],,,,,,50.0,0.0,u,0.0,True,1181.0999999998603,71.0,60.0,40.0,False,,281.8896389407627,[],"[683, 384]",ColorTask,33.0,57.0,,,HRV,HRV_0104,2022-11-30 18:14:16
,wl-rdm,65,217745,0.0-6.57-0.57,0.0,66.0,,,,,,,[],,,,,,53.2,1.0,i,1.0,True,1118.3999999999069,68.0,60.0,40.0,False,,243.93921714864507,[],"[683, 384]",ColorTask,34.0,58.0,,,HRV,HRV_0104,2022-11-30 18:14:16
,wl-rdm,66,220078,0.0-6.58-0.58,0.0,67.0,,,,,,,[],,,,,,53.2,1.0,i,1.0,True,962.8000000000466,58.0,60.0,40.0,False,,294.16497421178553,[],"[683, 384]",ColorTask,35.0,59.0,,,HRV,HRV_0104,2022-11-30 18:14:16
,wl-rdm,67,222312,0.0-6.59-0.59,0.0,68.0,,,,,,,[],,,,,,50.0,1.0,u,0.0,False,909.0,55.0,60.0,40.0,False,,241.5895521708835,[],"[683, 384]",ColorTask,34.0,60.0,,,HRV,HRV_0104,2022-11-30 18:14:16
,wl-rdm,68,224612,0.0-6.60-0.60,0.0,69.0,,,,,,,[],,,,,,87.9,1.0,i,1.0,True,868.2999999998137,52.0,60.0,40.0,False,,364.80997297608144,[],"[683, 384]",ColorTask,35.0,61.0,,,HRV,HRV_0104,2022-11-30 18:14:16
,wl-rdm,69,226562,0.0-6.61-0.61,0.0,70.0,,,,,,,[],,,,,,73.6,1.0,i,1.0,True,570.5,35.0,60.0,40.0,False,,295.00878731197594,[],"[683, 384]",ColorTask,36.0,62.0,,,HRV,HRV_0104,2022-11-30 18:14:16
,wl-rdm,70,228845,0.0-6.62-0.62,0.0,71.0,,,,,,,[],,,,,,62.5,0.0,u,0.0,True,845.1999999999534,51.0,60.0,40.0,False,,363.3087183370134,[],"[683, 384]",ColorTask,37.0,63.0,,,HRV,HRV_0104,2022-11-30 18:14:16
,wl-rdm,71,231928,0.0-6.63-0.63,0.0,72.0,,,,,,,[],,,,,,53.2,1.0,i,1.0,True,1613.0999999998603,97.0,60.0,40.0,False,,392.2276329943177,[],"[683, 384]",ColorTask,38.0,64.0,,,HRV,HRV_0104,2022-11-30 18:14:16
,wl-rdm,72,233928,0.0-6.64-0.64,0.0,73.0,,,,,,,[],,,,,,87.9,1.0,i,1.0,True,714.8999999999069,43.0,60.0,40.0,False,,214.4714261858496,[],"[683, 384]",ColorTask,39.0,65.0,,,HRV,HRV_0104,2022-11-30 18:14:16
,wl-rdm,73,235695,0.0-6.65-0.65,0.0,74.0,,,,,,,[],,,,,,56.4,1.0,i,1.0,True,476.60000000009313,29.0,60.0,40.0,False,,201.58566039412537,[],"[683, 384]",ColorTask,40.0,66.0,,,HRV,HRV_0104,2022-11-30 18:14:16
,wl-rdm,74,237611,0.0-6.66-0.66,0.0,75.0,,,,,,,[],,,,,,73.6,1.0,i,1.0,True,636.4000000001397,39.0,60.0,40.0,False,,214.1155603333852,[],"[683, 384]",ColorTask,41.0,67.0,,,HRV,HRV_0104,2022-11-30 18:14:16
,wl-rdm,75,239444,0.0-6.67-0.67,0.0,76.0,,,,,,,[],,,,,,56.4,0.0,i,1.0,False,470.4000000001397,29.0,60.0,40.0,False,,296.47903976117635,[],"[683, 384]",ColorTask,40.0,68.0,,,HRV,HRV_0104,2022-11-30 18:14:16
,wl-rdm,76,242127,0.0-6.68-0.68,0.0,77.0,,,,,,,[],,,,,,53.2,1.0,i,1.0,True,1329.8000000000466,80.0,60.0,40.0,False,,271.43634852989146,[],"[683, 384]",ColorTask,41.0,69.0,,,HRV,HRV_0104,2022-11-30 18:14:16
,wl-rdm,77,244345,0.0-6.69-0.69,0.0,78.0,,,,,,,[],,,,,,87.9,0.0,u,0.0,True,920.3000000000466,56.0,60.0,40.0,False,,229.82706440529387,[],"[683, 384]",ColorTask,42.0,70.0,,,HRV,HRV_0104,2022-11-30 18:14:16
,wl-rdm,78,247060,0.0-6.70-0.70,0.0,79.0,,,,,,,[],,,,,,50.0,0.0,u,0.0,True,1429.4000000001397,86.0,60.0,40.0,False,,216.24630464762168,[],"[683, 384]",ColorTask,43.0,71.0,,,HRV,HRV_0104,2022-11-30 18:14:16
,wl-rdm,79,249243,0.0-6.71-0.71,0.0,80.0,,,,,,,[],,,,,,73.6,1.0,i,1.0,True,830.6999999999534,50.0,60.0,40.0,False,,267.7407165077716,[],"[683, 384]",ColorTask,44.0,72.0,,,HRV,HRV_0104,2022-11-30 18:14:16
,wl-rdm,80,251627,0.0-6.72-0.72,0.0,81.0,,,,,,,[],,,,,,73.6,0.0,u,0.0,True,1075.3999999999069,65.0,60.0,40.0,False,,231.68410567283112,[],"[683, 384]",ColorTask,45.0,73.0,,,HRV,HRV_0104,2022-11-30 18:14:16
,wl-rdm,81,253827,0.0-6.73-0.73,0.0,82.0,,,,,,,[],,,,,,50.0,0.0,i,1.0,False,879.7000000001863,53.0,60.0,40.0,False,,253.96921981194015,[],"[683, 384]",ColorTask,44.0,74.0,,,HRV,HRV_0104,2022-11-30 18:14:16
,wl-rdm,82,255810,0.0-6.74-0.74,0.0,83.0,,,,,,,[],,,,,,56.4,1.0,u,0.0,False,628.9000000001397,38.0,60.0,40.0,False,,271.30746249423913,[],"[683, 384]",ColorTask,43.0,75.0,,,HRV,HRV_0104,2022-11-30 18:14:16
,wl-rdm,83,259310,0.0-6.75-0.75,0.0,84.0,,,,,,,[],,,,,,50.0,0.0,u,0.0,True,2114.7999999998137,127.0,60.0,40.0,False,,306.66279334771303,[],"[683, 384]",ColorTask,44.0,76.0,,,HRV,HRV_0104,2022-11-30 18:14:16
,wl-rdm,84,261510,0.0-6.76-0.76,0.0,85.0,,,,,,,[],,,,,,73.6,0.0,u,0.0,True,929.0,56.0,60.0,40.0,False,,213.44259231689375,[],"[683, 384]",ColorTask,45.0,77.0,,,HRV,HRV_0104,2022-11-30 18:14:16
,wl-rdm,85,263927,0.0-6.77-0.77,0.0,86.0,,,,,,,[],,,,,,62.5,1.0,u,0.0,False,1063.9000000001397,64.0,60.0,40.0,False,,250.30994835538633,[],"[683, 384]",ColorTask,44.0,78.0,,,HRV,HRV_0104,2022-11-30 18:14:16
,wl-rdm,86,266394,0.0-6.78-0.78,0.0,87.0,,,,,,,[],,,,,,73.6,1.0,i,1.0,True,1041.6000000000931,63.0,60.0,40.0,False,,343.8118789960156,[],"[683, 384]",ColorTask,45.0,79.0,,,HRV,HRV_0104,2022-11-30 18:14:16
,wl-rdm,87,268610,0.0-6.79-0.79,0.0,88.0,,,,,,,[],,,,,,53.2,0.0,i,1.0,False,814.3999999999069,49.0,60.0,40.0,False,,339.00775765824204,[],"[683, 384]",ColorTask,44.0,80.0,,,HRV,HRV_0104,2022-11-30 18:14:16
,wl-rdm,88,270610,0.0-6.80-0.80,0.0,89.0,,,,,,,[],,,,,,62.5,1.0,u,0.0,False,659.2999999998137,40.0,60.0,40.0,False,,264.570803639138,[],"[683, 384]",ColorTask,43.0,81.0,,,HRV,HRV_0104,2022-11-30 18:14:16
,wl-rdm,89,274076,0.0-6.81-0.81,0.0,90.0,,,,,,,[],,,,,,50.0,1.0,i,1.0,True,2100.3000000002794,126.0,60.0,40.0,False,,289.1475966168407,[],"[683, 384]",ColorTask,44.0,82.0,,,HRV,HRV_0104,2022-11-30 18:14:16
,wl-rdm,90,276843,0.0-6.82-0.82,0.0,91.0,,,,,,,[],,,,,,53.2,0.0,u,0.0,True,1437.0999999998603,87.0,60.0,40.0,False,,252.51003634613627,[],"[683, 384]",ColorTask,45.0,83.0,,,HRV,HRV_0104,2022-11-30 18:14:16
,wl-rdm,91,279126,0.0-6.83-0.83,0.0,92.0,,,,,,,[],,,,,,50.0,1.0,u,0.0,False,889.5,54.0,60.0,40.0,False,,312.2716694396256,[],"[683, 384]",ColorTask,44.0,84.0,,,HRV,HRV_0104,2022-11-30 18:14:16
,wl-rdm,92,281293,0.0-6.84-0.84,0.0,93.0,,,,,,,[],,,,,,62.5,0.0,i,1.0,False,757.1999999999534,46.0,60.0,40.0,False,,344.4922821671016,[],"[683, 384]",ColorTask,43.0,85.0,,,HRV,HRV_0104,2022-11-30 18:14:16
,wl-rdm,93,283943,0.0-6.85-0.85,0.0,94.0,,,,,,,[],,,,,,50.0,1.0,u,0.0,False,1347.2000000001863,81.0,60.0,40.0,False,,232.11133601883193,[],"[683, 384]",ColorTask,42.0,86.0,,,HRV,HRV_0104,2022-11-30 18:14:16
,wl-rdm,94,286342,0.0-6.86-0.86,0.0,95.0,,,,,,,[],,,,,,73.6,0.0,u,0.0,True,936.1999999999534,57.0,60.0,40.0,False,,398.05253246886764,[],"[683, 384]",ColorTask,43.0,87.0,,,HRV,HRV_0104,2022-11-30 18:14:16
,wl-rdm,95,288842,0.0-6.87-0.87,0.0,96.0,,,,,,,[],,,,,,53.2,1.0,i,1.0,True,1087.2000000001863,66.0,60.0,40.0,False,,318.3547747094517,[],"[683, 384]",ColorTask,44.0,88.0,,,HRV,HRV_0104,2022-11-30 18:14:16
,wl-rdm,96,291376,0.0-6.88-0.88,0.0,97.0,,,,,,,[],,,,,,87.9,1.0,i,1.0,True,1172.8999999999069,71.0,60.0,40.0,False,,289.06565555893934,[],"[683, 384]",ColorTask,45.0,89.0,,,HRV,HRV_0104,2022-11-30 18:14:16
,wl-rdm,97,293542,0.0-6.89-0.89,0.0,98.0,,,,,,,[],,,,,,87.9,0.0,u,0.0,True,744.5,45.0,60.0,40.0,False,,343.7105301837938,[],"[683, 384]",ColorTask,46.0,90.0,,,HRV,HRV_0104,2022-11-30 18:14:16
,wl-rdm,98,295576,0.0-6.90-0.90,0.0,99.0,,,,,,,[],,,,,,73.6,1.0,i,1.0,True,695.8000000002794,42.0,60.0,40.0,False,,255.97144508926016,[],"[683, 384]",ColorTask,47.0,91.0,,,HRV,HRV_0104,2022-11-30 18:14:16
,wl-rdm,99,297642,0.0-6.91-0.91,0.0,100.0,,,,,,,[],,,,,,73.6,0.0,u,0.0,True,718.2000000001863,43.0,60.0,40.0,False,,283.09246150470875,[],"[683, 384]",ColorTask,48.0,92.0,,,HRV,HRV_0104,2022-11-30 18:14:16
,wl-rdm,100,299641,0.0-6.92-0.92,0.0,101.0,,,,,,,[],,,,,,62.5,1.0,i,1.0,True,676.0999999998603,41.0,60.0,40.0,False,,256.8488832397836,[],"[683, 384]",ColorTask,49.0,93.0,,,HRV,HRV_0104,2022-11-30 18:14:16
,wl-rdm,101,301625,0.0-6.93-0.93,0.0,102.0,,,,,,,[],,,,,,50.0,0.0,u,0.0,True,600.5999999998603,36.0,60.0,40.0,False,,302.9138114358359,[],"[683, 384]",ColorTask,50.0,94.0,,,HRV,HRV_0104,2022-11-30 18:14:16
,wl-rdm,102,303775,0.0-6.94-0.94,0.0,103.0,,,,,,,[],,,,,,87.9,0.0,u,0.0,True,866.5,52.0,60.0,40.0,False,,208.51545767677428,[],"[683, 384]",ColorTask,51.0,95.0,,,HRV,HRV_0104,2022-11-30 18:14:16
,wl-rdm,103,306391,0.0-6.95-0.95,0.0,104.0,,,,,,,[],,,,,,53.2,0.0,u,0.0,True,1266.2999999998137,76.0,60.0,40.0,False,,293.1166994967275,[],"[683, 384]",ColorTask,52.0,96.0,,,HRV,HRV_0104,2022-11-30 18:14:16
,wl-rdm,104,308541,0.0-6.96-0.96,0.0,105.0,,,,,,,[],,,,,,87.9,0.0,u,0.0,True,725.6000000000931,44.0,60.0,40.0,False,,363.3042857630235,[],"[683, 384]",ColorTask,53.0,97.0,,,HRV,HRV_0104,2022-11-30 18:14:16
,wl-rdm,105,310391,0.0-6.97-0.97,0.0,106.0,,,,,,,[],,,,,,56.4,1.0,u,0.0,False,552.6999999999534,34.0,60.0,40.0,False,,231.0358601981358,[],"[683, 384]",ColorTask,52.0,98.0,,,HRV,HRV_0104,2022-11-30 18:14:16
,wl-rdm,106,313358,0.0-6.98-0.98,0.0,107.0,,,,,,,[],,,,,,53.2,1.0,i,1.0,True,1632.1999999999534,98.0,60.0,40.0,False,,278.74267268816936,[],"[683, 384]",ColorTask,53.0,99.0,,,HRV,HRV_0104,2022-11-30 18:14:16
,wl-rdm,107,316191,0.0-6.99-0.99,0.0,108.0,,,,,,,[],,,,,,56.4,0.0,u,0.0,True,1382.4000000001397,83.0,60.0,40.0,False,,368.32849381984306,[],"[683, 384]",ColorTask,54.0,100.0,,,HRV,HRV_0104,2022-11-30 18:14:16
,wl-rdm,108,319108,0.0-6.100-0.100,0.0,109.0,,,,,,,[],,,,,,50.0,1.0,i,1.0,True,1631.8999999999069,98.0,60.0,40.0,False,,216.2631578545174,[],"[683, 384]",ColorTask,55.0,101.0,,,HRV,HRV_0104,2022-11-30 18:14:16
,wl-rdm,109,321924,0.0-6.101-0.101,0.0,110.0,,,,,,,[],,,,,,62.5,1.0,i,1.0,True,1473.6999999997206,89.0,60.0,40.0,False,,267.32686421077426,[],"[683, 384]",ColorTask,56.0,102.0,,,HRV,HRV_0104,2022-11-30 18:14:16
,wl-rdm,110,324257,0.0-6.102-0.102,0.0,111.0,,,,,,,[],,,,,,73.6,0.0,u,0.0,True,948.5,57.0,60.0,40.0,False,,321.0494169136541,[],"[683, 384]",ColorTask,57.0,103.0,,,HRV,HRV_0104,2022-11-30 18:14:16
,wl-rdm,111,326156,0.0-6.103-0.103,0.0,112.0,,,,,,,[],,,,,,53.2,0.0,u,0.0,True,617.1000000000931,37.0,60.0,40.0,False,,201.15758789271015,[],"[683, 384]",ColorTask,58.0,104.0,,,HRV,HRV_0104,2022-11-30 18:14:16
,wl-rdm,112,328424,0.0-6.104-0.104,0.0,113.0,,,,,,,[],,,,,,73.6,0.0,u,0.0,True,896.6000000000931,54.0,60.0,40.0,False,,288.01030546920646,[],"[683, 384]",ColorTask,59.0,105.0,,,HRV,HRV_0104,2022-11-30 18:14:16
,wl-rdm,113,330658,0.0-6.105-0.105,0.0,114.0,,,,,,,[],,,,,,50.0,0.0,u,0.0,True,781.1000000000931,47.0,60.0,40.0,False,,392.52758004777587,[],"[683, 384]",ColorTask,60.0,106.0,,,HRV,HRV_0104,2022-11-30 18:14:16
,wl-rdm,114,332673,0.0-6.106-0.106,0.0,115.0,,,,,,,[],,,,,,87.9,1.0,u,0.0,False,743.8999999999069,45.0,60.0,40.0,False,,215.55858739753342,[],"[683, 384]",ColorTask,59.0,107.0,,,HRV,HRV_0104,2022-11-30 18:14:16
,wl-rdm,115,335390,0.0-6.107-0.107,0.0,116.0,,,,,,,[],,,,,,56.4,0.0,u,0.0,True,1334.1999999999534,80.0,60.0,40.0,False,,303.373351948229,[],"[683, 384]",ColorTask,60.0,108.0,,,HRV,HRV_0104,2022-11-30 18:14:16
,wl-html-keyboard-response,116,494647,0.0-7.0-0.0,1.0,117.0,,,,,,,,157233.09999999986,1.0,0,,,,,,,,,,,,,,,,,,,,,,HRV,HRV_0104,2022-11-30 18:14:16
,wl-rdm,117,497066,0.0-8.0-0.0,1.0,118.0,,,,,,,[],,,,,,87.9,0.0,u,0.0,True,960.3999999999069,58.0,60.0,40.0,False,,377.761867919671,[],"[683, 384]",ColorTask,61.0,1.0,,,HRV,HRV_0104,2022-11-30 18:14:16
,wl-rdm,118,499433,0.0-8.1-0.1,1.0,119.0,,,,,,,[],,,,,,53.2,1.0,i,1.0,True,991.1999999999534,60.0,60.0,40.0,False,,284.03097524326853,[],"[683, 384]",ColorTask,62.0,2.0,,,HRV,HRV_0104,2022-11-30 18:14:16
,wl-rdm,119,501783,0.0-8.2-0.2,1.0,120.0,,,,,,,[],,,,,,73.6,1.0,i,1.0,True,995.3000000000466,60.0,60.0,40.0,False,,288.8368939865453,[],"[683, 384]",ColorTask,63.0,3.0,,,HRV,HRV_0104,2022-11-30 18:14:16
,wl-rdm,120,503949,0.0-8.3-0.3,1.0,121.0,,,,,,,[],,,,,,73.6,0.0,u,0.0,True,728.9000000001397,44.0,60.0,40.0,False,,372.31952009331434,[],"[683, 384]",ColorTask,64.0,4.0,,,HRV,HRV_0104,2022-11-30 18:14:16
,wl-rdm,121,506332,0.0-8.4-0.4,1.0,122.0,,,,,,,[],,,,,,56.4,0.0,u,0.0,True,887.1000000000931,54.0,60.0,40.0,False,,394.36263901137465,[],"[683, 384]",ColorTask,65.0,5.0,,,HRV,HRV_0104,2022-11-30 18:14:16
,wl-rdm,122,508599,0.0-8.5-0.5,1.0,123.0,,,,,,,[],,,,,,73.6,1.0,i,1.0,True,814.6999999999534,49.0,60.0,40.0,False,,370.71077779121663,[],"[683, 384]",ColorTask,66.0,6.0,,,HRV,HRV_0104,2022-11-30 18:14:16
,wl-rdm,123,510966,0.0-8.6-0.6,1.0,124.0,,,,,,,[],,,,,,53.2,0.0,i,1.0,False,933.4000000001397,56.0,60.0,40.0,False,,368.18342290096064,[],"[683, 384]",ColorTask,65.0,7.0,,,HRV,HRV_0104,2022-11-30 18:14:16
,wl-rdm,124,513498,0.0-8.7-0.7,1.0,125.0,,,,,,,[],,,,,,62.5,1.0,i,1.0,True,1169.8999999999069,71.0,60.0,40.0,False,,295.67285097174977,[],"[683, 384]",ColorTask,66.0,8.0,,,HRV,HRV_0104,2022-11-30 18:14:16
,wl-rdm,125,515748,0.0-8.8-0.8,1.0,126.0,,,,,,,[],,,,,,87.9,0.0,u,0.0,True,773.3000000000466,47.0,60.0,40.0,False,,385.50518440356586,[],"[683, 384]",ColorTask,67.0,9.0,,,HRV,HRV_0104,2022-11-30 18:14:16
,wl-rdm,126,517682,0.0-8.9-0.9,1.0,127.0,,,,,,,[],,,,,,87.9,0.0,u,0.0,True,573.5000000002328,35.0,60.0,40.0,False,,269.15263667798206,[],"[683, 384]",ColorTask,68.0,10.0,,,HRV,HRV_0104,2022-11-30 18:14:16
,wl-rdm,127,520698,0.0-8.10-0.10,1.0,128.0,,,,,,,[],,,,,,62.5,1.0,u,0.0,False,1711.6000000000931,103.0,60.0,40.0,False,,230.45682773598864,[],"[683, 384]",ColorTask,67.0,11.0,,,HRV,HRV_0104,2022-11-30 18:14:16
,wl-rdm,128,523565,0.0-8.11-0.11,1.0,129.0,,,,,,,[],,,,,,56.4,1.0,i,1.0,True,1474.2999999998137,89.0,60.0,40.0,False,,311.3975296428747,[],"[683, 384]",ColorTask,68.0,12.0,,,HRV,HRV_0104,2022-11-30 18:14:16
,wl-rdm,129,526514,0.0-8.12-0.12,1.0,130.0,,,,,,,[],,,,,,50.0,1.0,u,0.0,False,1565.3999999999069,94.0,60.0,40.0,False,,318.6875354017243,[],"[683, 384]",ColorTask,67.0,13.0,,,HRV,HRV_0104,2022-11-30 18:14:16
,wl-rdm,130,528798,0.0-8.13-0.13,1.0,131.0,,,,,,,[],,,,,,53.2,0.0,u,0.0,True,921.7999999998137,56.0,60.0,40.0,False,,272.0138628951924,[],"[683, 384]",ColorTask,68.0,14.0,,,HRV,HRV_0104,2022-11-30 18:14:16
,wl-rdm,131,531182,0.0-8.14-0.14,1.0,132.0,,,,,,,[],,,,,,62.5,1.0,i,1.0,True,1096.3000000000466,66.0,60.0,40.0,False,,219.94772351868556,[],"[683, 384]",ColorTask,69.0,15.0,,,HRV,HRV_0104,2022-11-30 18:14:16
,wl-rdm,132,533248,0.0-8.15-0.15,1.0,133.0,,,,,,,[],,,,,,87.9,0.0,u,0.0,True,757.6999999999534,46.0,60.0,40.0,False,,215.2648899854048,[],"[683, 384]",ColorTask,70.0,16.0,,,HRV,HRV_0104,2022-11-30 18:14:16
,wl-rdm,133,536665,0.0-8.16-0.16,1.0,134.0,,,,,,,[],,,,,,62.5,1.0,u,0.0,False,1982.1000000000931,119.0,60.0,40.0,False,,374.9980383392754,[],"[683, 384]",ColorTask,69.0,17.0,,,HRV,HRV_0104,2022-11-30 18:14:16
,wl-rdm,134,539430,0.0-8.17-0.17,1.0,135.0,,,,,,,[],,,,,,87.9,1.0,u,0.0,False,1477.6999999999534,89.0,60.0,40.0,False,,205.32878743380132,[],"[683, 384]",ColorTask,68.0,18.0,,,HRV,HRV_0104,2022-11-30 18:14:16
,wl-rdm,135,541814,0.0-8.18-0.18,1.0,136.0,,,,,,,[],,,,,,73.6,0.0,u,0.0,True,949.3000000000466,57.0,60.0,40.0,False,,363.03919447534736,[],"[683, 384]",ColorTask,69.0,19.0,,,HRV,HRV_0104,2022-11-30 18:14:16
,wl-rdm,136,543931,0.0-8.19-0.19,1.0,137.0,,,,,,,[],,,,,,62.5,1.0,i,1.0,True,791.1999999999534,48.0,60.0,40.0,False,,242.38964113487384,[],"[683, 384]",ColorTask,70.0,20.0,,,HRV,HRV_0104,2022-11-30 18:14:16
,wl-rdm,137,546447,0.0-8.20-0.20,1.0,138.0,,,,,,,[],,,,,,50.0,1.0,u,0.0,False,1090.1999999999534,66.0,60.0,40.0,False,,334.44165348075705,[],"[683, 384]",ColorTask,69.0,21.0,,,HRV,HRV_0104,2022-11-30 18:14:16
,wl-rdm,138,548597,0.0-8.21-0.21,1.0,139.0,,,,,,,[],,,,,,53.2,0.0,i,1.0,False,749.0,45.0,60.0,40.0,False,,337.73179177133653,[],"[683, 384]",ColorTask,68.0,22.0,,,HRV,HRV_0104,2022-11-30 18:14:16
,wl-rdm,139,550830,0.0-8.22-0.22,1.0,140.0,,,,,,,[],,,,,,87.9,1.0,i,1.0,True,854.7999999998137,52.0,60.0,40.0,False,,310.3362995791306,[],"[683, 384]",ColorTask,69.0,23.0,,,HRV,HRV_0104,2022-11-30 18:14:16
,wl-rdm,140,554780,0.0-8.23-0.23,1.0,141.0,,,,,,,[],,,,,,50.0,0.0,i,1.0,False,2512.899999999674,151.0,60.0,40.0,False,,381.0047428667481,[],"[683, 384]",ColorTask,68.0,24.0,,,HRV,HRV_0104,2022-11-30 18:14:16
,wl-rdm,141,556930,0.0-8.24-0.24,1.0,142.0,,,,,,,[],,,,,,73.6,0.0,u,0.0,True,774.8000000000466,47.0,60.0,40.0,False,,292.0527462571699,[],"[683, 384]",ColorTask,69.0,25.0,,,HRV,HRV_0104,2022-11-30 18:14:16
,wl-rdm,142,559613,0.0-8.25-0.25,1.0,143.0,,,,,,,[],,,,,,50.0,0.0,u,0.0,True,1388.8000000000466,84.0,60.0,40.0,False,,202.3105173784887,[],"[683, 384]",ColorTask,70.0,26.0,,,HRV,HRV_0104,2022-11-30 18:14:16
,wl-rdm,143,561847,0.0-8.26-0.26,1.0,144.0,,,,,,,[],,,,,,87.9,1.0,i,1.0,True,827.0,50.0,60.0,40.0,False,,315.8467699481415,[],"[683, 384]",ColorTask,71.0,27.0,,,HRV,HRV_0104,2022-11-30 18:14:16
,wl-rdm,144,563929,0.0-8.27-0.27,1.0,145.0,,,,,,,[],,,,,,73.6,1.0,i,1.0,True,686.3999999999069,42.0,60.0,40.0,False,,328.46684835972536,[],"[683, 384]",ColorTask,72.0,28.0,,,HRV,HRV_0104,2022-11-30 18:14:16
,wl-rdm,145,565912,0.0-8.28-0.28,1.0,146.0,,,,,,,[],,,,,,87.9,1.0,i,1.0,True,561.7999999998137,34.0,60.0,40.0,False,,348.2288279927343,[],"[683, 384]",ColorTask,73.0,29.0,,,HRV,HRV_0104,2022-11-30 18:14:16
,wl-rdm,146,568147,0.0-8.29-0.29,1.0,147.0,,,,,,,[],,,,,,53.2,0.0,u,0.0,True,902.5,55.0,60.0,40.0,False,,233.2206211650042,[],"[683, 384]",ColorTask,74.0,30.0,,,HRV,HRV_0104,2022-11-30 18:14:16
,wl-rdm,147,570263,0.0-8.30-0.30,1.0,148.0,,,,,,,[],,,,,,87.9,1.0,i,1.0,True,761.0,46.0,60.0,40.0,False,,287.9553880832775,[],"[683, 384]",ColorTask,75.0,31.0,,,HRV,HRV_0104,2022-11-30 18:14:16
,wl-rdm,148,572662,0.0-8.31-0.31,1.0,149.0,,,,,,,[],,,,,,73.6,1.0,i,1.0,True,967.1999999999534,59.0,60.0,40.0,False,,361.770837556982,[],"[683, 384]",ColorTask,76.0,32.0,,,HRV,HRV_0104,2022-11-30 18:14:16
,wl-rdm,149,574812,0.0-8.32-0.32,1.0,150.0,,,,,,,[],,,,,,56.4,0.0,u,0.0,True,770.8000000000466,47.0,60.0,40.0,False,,308.42871007935463,[],"[683, 384]",ColorTask,77.0,33.0,,,HRV,HRV_0104,2022-11-30 18:14:16
,wl-rdm,150,577496,0.0-8.33-0.33,1.0,151.0,,,,,,,[],,,,,,50.0,0.0,u,0.0,True,1254.9999999997672,76.0,60.0,40.0,False,,343.90755653359713,[],"[683, 384]",ColorTask,78.0,34.0,,,HRV,HRV_0104,2022-11-30 18:14:16
,wl-rdm,151,579745,0.0-8.34-0.34,1.0,152.0,,,,,,,[],,,,,,62.5,0.0,u,0.0,True,774.1999999999534,47.0,60.0,40.0,False,,391.3667625508452,[],"[683, 384]",ColorTask,79.0,35.0,,,HRV,HRV_0104,2022-11-30 18:14:16
,wl-rdm,152,581812,0.0-8.35-0.35,1.0,153.0,,,,,,,[],,,,,,53.2,0.0,u,0.0,True,778.2999999998137,47.0,60.0,40.0,False,,220.91748177475796,[],"[683, 384]",ColorTask,80.0,36.0,,,HRV,HRV_0104,2022-11-30 18:14:16
,wl-rdm,153,584113,0.0-8.36-0.36,1.0,154.0,,,,,,,[],,,,,,56.4,1.0,u,0.0,False,966.0,58.0,60.0,40.0,False,,260.739193837075,[],"[683, 384]",ColorTask,79.0,37.0,,,HRV,HRV_0104,2022-11-30 18:14:16
,wl-rdm,154,586529,0.0-8.37-0.37,1.0,155.0,,,,,,,[],,,,,,87.9,0.0,u,0.0,True,964.0,58.0,60.0,40.0,False,,383.4907718917862,[],"[683, 384]",ColorTask,80.0,38.0,,,HRV,HRV_0104,2022-11-30 18:14:16
,wl-rdm,155,590128,0.0-8.38-0.38,1.0,156.0,,,,,,,[],,,,,,53.2,1.0,i,1.0,True,2148.5999999998603,129.0,60.0,40.0,False,,380.7076260619329,[],"[683, 384]",ColorTask,81.0,39.0,,,HRV,HRV_0104,2022-11-30 18:14:16
,wl-rdm,156,592711,0.0-8.39-0.39,1.0,157.0,,,,,,,[],,,,,,53.2,1.0,u,0.0,False,1291.9000000001397,78.0,60.0,40.0,False,,209.7728157852539,[],"[683, 384]",ColorTask,80.0,40.0,,,HRV,HRV_0104,2022-11-30 18:14:16
,wl-rdm,157,594978,0.0-8.40-0.40,1.0,158.0,,,,,,,[],,,,,,50.0,1.0,i,1.0,True,889.9000000001397,54.0,60.0,40.0,False,,296.771449980439,[],"[683, 384]",ColorTask,81.0,41.0,,,HRV,HRV_0104,2022-11-30 18:14:16
,wl-rdm,158,597178,0.0-8.41-0.41,1.0,159.0,,,,,,,[],,,,,,87.9,0.0,u,0.0,True,864.6999999999534,52.0,60.0,40.0,False,,251.5282870590373,[],"[683, 384]",ColorTask,82.0,42.0,,,HRV,HRV_0104,2022-11-30 18:14:16
,wl-rdm,159,599294,0.0-8.42-0.42,1.0,160.0,,,,,,,[],,,,,,73.6,1.0,i,1.0,True,676.7999999998137,41.0,60.0,40.0,False,,373.5393494537815,[],"[683, 384]",ColorTask,83.0,43.0,,,HRV,HRV_0104,2022-11-30 18:14:16
,wl-rdm,160,603028,0.0-8.43-0.43,1.0,161.0,,,,,,,[],,,,,,50.0,0.0,i,1.0,False,2389.3000000000466,144.0,60.0,40.0,False,,285.4524850121719,[],"[683, 384]",ColorTask,82.0,44.0,,,HRV,HRV_0104,2022-11-30 18:14:16
,wl-rdm,161,606577,0.0-8.44-0.44,1.0,162.0,,,,,,,[],,,,,,56.4,1.0,i,1.0,True,2146.7999999998137,129.0,60.0,40.0,False,,321.15140260149906,[],"[683, 384]",ColorTask,83.0,45.0,,,HRV,HRV_0104,2022-11-30 18:14:16
,wl-rdm,162,608877,0.0-8.45-0.45,1.0,163.0,,,,,,,[],,,,,,73.6,1.0,i,1.0,True,937.7000000001863,57.0,60.0,40.0,False,,271.8129441895247,[],"[683, 384]",ColorTask,84.0,46.0,,,HRV,HRV_0104,2022-11-30 18:14:16
,wl-rdm,163,611677,0.0-8.46-0.46,1.0,164.0,,,,,,,[],,,,,,73.6,1.0,i,1.0,True,1475.1000000000931,89.0,60.0,40.0,False,,249.99142762676877,[],"[683, 384]",ColorTask,85.0,47.0,,,HRV,HRV_0104,2022-11-30 18:14:16
,wl-rdm,164,614344,0.0-8.47-0.47,1.0,165.0,,,,,,,[],,,,,,56.4,1.0,u,0.0,False,1324.0999999998603,79.0,60.0,40.0,False,,278.27818615882353,[],"[683, 384]",ColorTask,84.0,48.0,,,HRV,HRV_0104,2022-11-30 18:14:16
,wl-rdm,165,617911,0.0-8.48-0.48,1.0,166.0,,,,,,,[],,,,,,56.4,0.0,u,0.0,True,2210.7999999998137,133.0,60.0,40.0,False,,275.75771406604645,[],"[683, 384]",ColorTask,85.0,49.0,,,HRV,HRV_0104,2022-11-30 18:14:16
,wl-rdm,166,620427,0.0-8.49-0.49,1.0,167.0,,,,,,,[],,,,,,50.0,1.0,u,0.0,False,1195.1000000000931,72.0,60.0,40.0,False,,262.9995399571591,[],"[683, 384]",ColorTask,84.0,50.0,,,HRV,HRV_0104,2022-11-30 18:14:16
,wl-rdm,167,623426,0.0-8.50-0.50,1.0,168.0,,,,,,,[],,,,,,56.4,1.0,i,1.0,True,1633.7000000001863,98.0,60.0,40.0,False,,285.108467668142,[],"[683, 384]",ColorTask,85.0,51.0,,,HRV,HRV_0104,2022-11-30 18:14:16
,wl-rdm,168,625577,0.0-8.51-0.51,1.0,169.0,,,,,,,[],,,,,,53.2,1.0,i,1.0,True,808.8000000000466,49.0,60.0,40.0,False,,252.5065980988223,[],"[683, 384]",ColorTask,86.0,52.0,,,HRV,HRV_0104,2022-11-30 18:14:16
,wl-rdm,169,627677,0.0-8.52-0.52,1.0,170.0,,,,,,,[],,,,,,87.9,1.0,i,1.0,True,794.5999999998603,48.0,60.0,40.0,False,,219.24366455333123,[],"[683, 384]",ColorTask,87.0,53.0,,,HRV,HRV_0104,2022-11-30 18:14:16
,wl-rdm,170,629893,0.0-8.53-0.53,1.0,171.0,,,,,,,[],,,,,,73.6,0.0,u,0.0,True,841.1999999999534,51.0,60.0,40.0,False,,283.7331449188043,[],"[683, 384]",ColorTask,88.0,54.0,,,HRV,HRV_0104,2022-11-30 18:14:16
,wl-rdm,171,631976,0.0-8.54-0.54,1.0,172.0,,,,,,,[],,,,,,62.5,1.0,u,0.0,False,669.8999999999069,41.0,60.0,40.0,False,,316.32577600435815,[],"[683, 384]",ColorTask,87.0,55.0,,,HRV,HRV_0104,2022-11-30 18:14:16
,wl-rdm,172,635176,0.0-8.55-0.55,1.0,173.0,,,,,,,[],,,,,,62.5,0.0,u,0.0,True,1775.3999999999069,107.0,60.0,40.0,False,,362.6280768068991,[],"[683, 384]",ColorTask,88.0,56.0,,,HRV,HRV_0104,2022-11-30 18:14:16
,wl-rdm,173,637809,0.0-8.56-0.56,1.0,174.0,,,,,,,[],,,,,,53.2,1.0,i,1.0,True,1194.6999999999534,72.0,60.0,40.0,False,,357.2600437144214,[],"[683, 384]",ColorTask,89.0,57.0,,,HRV,HRV_0104,2022-11-30 18:14:16
,wl-rdm,174,639859,0.0-8.57-0.57,1.0,175.0,,,,,,,[],,,,,,87.9,1.0,i,1.0,True,737.5999999998603,45.0,60.0,40.0,False,,223.78111957605796,[],"[683, 384]",ColorTask,90.0,58.0,,,HRV,HRV_0104,2022-11-30 18:14:16
,wl-rdm,175,641892,0.0-8.58-0.58,1.0,176.0,,,,,,,[],,,,,,73.6,0.0,u,0.0,True,750.6000000000931,45.0,60.0,40.0,False,,206.78703037867396,[],"[683, 384]",ColorTask,91.0,59.0,,,HRV,HRV_0104,2022-11-30 18:14:16
,wl-rdm,176,645326,0.0-8.59-0.59,1.0,177.0,,,,,,,[],,,,,,56.4,1.0,i,1.0,True,2131.5999999998603,128.0,60.0,40.0,False,,238.4433764050525,[],"[683, 384]",ColorTask,92.0,60.0,,,HRV,HRV_0104,2022-11-30 18:14:16
,wl-rdm,177,648892,0.0-8.60-0.60,1.0,178.0,,,,,,,[],,,,,,62.5,1.0,i,1.0,True,2110.0,127.0,60.0,40.0,False,,371.86158203070653,[],"[683, 384]",ColorTask,93.0,61.0,,,HRV,HRV_0104,2022-11-30 18:14:16
,wl-rdm,178,651775,0.0-8.61-0.61,1.0,179.0,,,,,,,[],,,,,,50.0,1.0,u,0.0,False,1553.3000000000466,94.0,60.0,40.0,False,,252.93134600727998,[],"[683, 384]",ColorTask,92.0,62.0,,,HRV,HRV_0104,2022-11-30 18:14:16
,wl-rdm,179,655425,0.0-8.62-0.62,1.0,180.0,,,,,,,[],,,,,,50.0,0.0,i,1.0,False,2362.5,142.0,60.0,40.0,False,,208.36444295888006,[],"[683, 384]",ColorTask,91.0,63.0,,,HRV,HRV_0104,2022-11-30 18:14:16
,wl-rdm,180,659275,0.0-8.63-0.63,1.0,181.0,,,,,,,[],,,,,,62.5,1.0,u,0.0,False,2446.0,147.0,60.0,40.0,False,,335.89323265227966,[],"[683, 384]",ColorTask,90.0,64.0,,,HRV,HRV_0104,2022-11-30 18:14:16
,wl-rdm,181,662825,0.0-8.64-0.64,1.0,182.0,,,,,,,[],,,,,,50.0,1.0,i,1.0,True,2239.8000000002794,135.0,60.0,40.0,False,,246.44240692808808,[],"[683, 384]",ColorTask,91.0,65.0,,,HRV,HRV_0104,2022-11-30 18:14:16
,wl-rdm,182,666158,0.0-8.65-0.65,1.0,183.0,,,,,,,[],,,,,,50.0,1.0,i,1.0,True,2024.0000000002328,122.0,60.0,40.0,False,,230.28095893982268,[],"[683, 384]",ColorTask,92.0,66.0,,,HRV,HRV_0104,2022-11-30 18:14:16
,wl-rdm,183,668458,0.0-8.66-0.66,1.0,184.0,,,,,,,[],,,,,,56.4,1.0,i,1.0,True,967.0000000002328,58.0,60.0,40.0,False,,255.93198370259822,[],"[683, 384]",ColorTask,93.0,67.0,,,HRV,HRV_0104,2022-11-30 18:14:16
,wl-rdm,184,671441,0.0-8.67-0.67,1.0,185.0,,,,,,,[],,,,,,56.4,0.0,u,0.0,True,1557.5,94.0,60.0,40.0,False,,343.20324354159436,[],"[683, 384]",ColorTask,94.0,68.0,,,HRV,HRV_0104,2022-11-30 18:14:16
,wl-rdm,185,674192,0.0-8.68-0.68,1.0,186.0,,,,,,,[],,,,,,53.2,0.0,u,0.0,True,1456.4999999997672,88.0,60.0,40.0,False,,218.68523524136847,[],"[683, 384]",ColorTask,95.0,69.0,,,HRV,HRV_0104,2022-11-30 18:14:16
,wl-rdm,186,676324,0.0-8.69-0.69,1.0,187.0,,,,,,,[],,,,,,73.6,1.0,i,1.0,True,763.6999999999534,46.0,60.0,40.0,False,,300.0896447963189,[],"[683, 384]",ColorTask,96.0,70.0,,,HRV,HRV_0104,2022-11-30 18:14:16
,wl-rdm,187,678491,0.0-8.70-0.70,1.0,188.0,,,,,,,[],,,,,,56.4,0.0,u,0.0,True,764.6000000000931,46.0,60.0,40.0,False,,345.9412892589618,[],"[683, 384]",ColorTask,97.0,71.0,,,HRV,HRV_0104,2022-11-30 18:14:16
,wl-rdm,188,680974,0.0-8.71-0.71,1.0,189.0,,,,,,,[],,,,,,73.6,1.0,i,1.0,True,1145.1999999999534,69.0,60.0,40.0,False,,272.242004381696,[],"[683, 384]",ColorTask,98.0,72.0,,,HRV,HRV_0104,2022-11-30 18:14:16
,wl-rdm,189,683557,0.0-8.72-0.72,1.0,190.0,,,,,,,[],,,,,,56.4,0.0,u,0.0,True,1298.1000000000931,78.0,60.0,40.0,False,,220.62565264782373,[],"[683, 384]",ColorTask,99.0,73.0,,,HRV,HRV_0104,2022-11-30 18:14:16
,wl-rdm,190,685957,0.0-8.73-0.73,1.0,191.0,,,,,,,[],,,,,,56.4,1.0,i,1.0,True,1077.8999999999069,65.0,60.0,40.0,False,,283.3384146688335,[],"[683, 384]",ColorTask,100.0,74.0,,,HRV,HRV_0104,2022-11-30 18:14:16
,wl-rdm,191,688457,0.0-8.74-0.74,1.0,192.0,,,,,,,[],,,,,,62.5,0.0,u,0.0,True,1169.8999999999069,71.0,60.0,40.0,False,,254.3607105200852,[],"[683, 384]",ColorTask,101.0,75.0,,,HRV,HRV_0104,2022-11-30 18:14:16
,wl-rdm,192,690623,0.0-8.75-0.75,1.0,193.0,,,,,,,[],,,,,,87.9,1.0,i,1.0,True,804.4000000001397,49.0,60.0,40.0,False,,270.3250183494765,[],"[683, 384]",ColorTask,102.0,76.0,,,HRV,HRV_0104,2022-11-30 18:14:16
,wl-rdm,193,693090,0.0-8.76-0.76,1.0,194.0,,,,,,,[],,,,,,62.5,0.0,u,0.0,True,1020.5,61.0,60.0,40.0,False,,371.8930381892379,[],"[683, 384]",ColorTask,103.0,77.0,,,HRV,HRV_0104,2022-11-30 18:14:16
,wl-rdm,194,696473,0.0-8.77-0.77,1.0,195.0,,,,,,,[],,,,,,73.6,0.0,u,0.0,True,2009.8000000000466,121.0,60.0,40.0,False,,286.78106244460616,[],"[683, 384]",ColorTask,104.0,78.0,,,HRV,HRV_0104,2022-11-30 18:14:16
,wl-rdm,195,700356,0.0-8.78-0.78,1.0,196.0,,,,,,,[],,,,,,56.4,1.0,i,1.0,True,2403.600000000093,145.0,60.0,40.0,False,,387.6733228579233,[],"[683, 384]",ColorTask,105.0,79.0,,,HRV,HRV_0104,2022-11-30 18:14:16
,wl-rdm,196,702923,0.0-8.79-0.79,1.0,197.0,,,,,,,[],,,,,,62.5,0.0,u,0.0,True,1166.7000000001863,70.0,60.0,40.0,False,,331.06520908777554,[],"[683, 384]",ColorTask,106.0,80.0,,,HRV,HRV_0104,2022-11-30 18:14:16
,wl-rdm,197,705256,0.0-8.80-0.80,1.0,198.0,,,,,,,[],,,,,,87.9,0.0,u,0.0,True,924.3000000000466,56.0,60.0,40.0,False,,331.5482305250808,[],"[683, 384]",ColorTask,107.0,81.0,,,HRV,HRV_0104,2022-11-30 18:14:16
,wl-rdm,198,707989,0.0-8.81-0.81,1.0,199.0,,,,,,,[],,,,,,62.5,0.0,u,0.0,True,1402.6000000000931,85.0,60.0,40.0,False,,237.96589363158805,[],"[683, 384]",ColorTask,108.0,82.0,,,HRV,HRV_0104,2022-11-30 18:14:16
,wl-rdm,199,710689,0.0-8.82-0.82,1.0,200.0,,,,,,,[],,,,,,56.4,0.0,u,0.0,True,1307.7000000001863,79.0,60.0,40.0,False,,314.8742075879195,[],"[683, 384]",ColorTask,109.0,83.0,,,HRV,HRV_0104,2022-11-30 18:14:16
,wl-rdm,200,712806,0.0-8.83-0.83,1.0,201.0,,,,,,,[],,,,,,62.5,0.0,u,0.0,True,836.1999999999534,51.0,60.0,40.0,False,,205.09256736515343,[],"[683, 384]",ColorTask,110.0,84.0,,,HRV,HRV_0104,2022-11-30 18:14:16
,wl-rdm,201,715022,0.0-8.84-0.84,1.0,202.0,,,,,,,[],,,,,,62.5,1.0,i,1.0,True,929.1000000000931,56.0,60.0,40.0,False,,200.1164119443246,[],"[683, 384]",ColorTask,111.0,85.0,,,HRV,HRV_0104,2022-11-30 18:14:16
,wl-rdm,202,717155,0.0-8.85-0.85,1.0,203.0,,,,,,,[],,,,,,87.9,0.0,u,0.0,True,658.6999999999534,40.0,60.0,40.0,False,,395.74937103535746,[],"[683, 384]",ColorTask,112.0,86.0,,,HRV,HRV_0104,2022-11-30 18:14:16
,wl-rdm,203,719588,0.0-8.86-0.86,1.0,204.0,,,,,,,[],,,,,,53.2,1.0,i,1.0,True,1145.1999999999534,69.0,60.0,40.0,False,,232.1272390712399,[],"[683, 384]",ColorTask,113.0,87.0,,,HRV,HRV_0104,2022-11-30 18:14:16
,wl-rdm,204,722838,0.0-8.87-0.87,1.0,205.0,,,,,,,[],,,,,,53.2,0.0,i,1.0,False,1974.2000000001863,119.0,60.0,40.0,False,,208.76743639518645,[],"[683, 384]",ColorTask,112.0,88.0,,,HRV,HRV_0104,2022-11-30 18:14:16
,wl-rdm,205,725722,0.0-8.88-0.88,1.0,206.0,,,,,,,[],,,,,,62.5,0.0,u,0.0,True,1516.8000000000466,91.0,60.0,40.0,False,,294.2642680102967,[],"[683, 384]",ColorTask,113.0,89.0,,,HRV,HRV_0104,2022-11-30 18:14:16
,wl-rdm,206,727972,0.0-8.89-0.89,1.0,207.0,,,,,,,[],,,,,,73.6,0.0,u,0.0,True,909.0999999998603,55.0,60.0,40.0,False,,276.44323109254526,[],"[683, 384]",ColorTask,114.0,90.0,,,HRV,HRV_0104,2022-11-30 18:14:16
,wl-rdm,207,731788,0.0-8.90-0.90,1.0,208.0,,,,,,,[],,,,,,53.2,0.0,i,1.0,False,2495.0,150.0,60.0,40.0,False,,248.57447501023609,[],"[683, 384]",ColorTask,113.0,91.0,,,HRV,HRV_0104,2022-11-30 18:14:16
,wl-rdm,208,734304,0.0-8.91-0.91,1.0,209.0,,,,,,,[],,,,,,53.2,1.0,u,0.0,False,1061.8999999999069,64.0,60.0,40.0,False,,383.88595874967586,[],"[683, 384]",ColorTask,112.0,92.0,,,HRV,HRV_0104,2022-11-30 18:14:16
,wl-rdm,209,737055,0.0-8.92-0.92,1.0,210.0,,,,,,,[],,,,,,50.0,0.0,u,0.0,True,1452.6999999997206,88.0,60.0,40.0,False,,231.21628628958894,[],"[683, 384]",ColorTask,113.0,93.0,,,HRV,HRV_0104,2022-11-30 18:14:16
,wl-rdm,210,739771,0.0-8.93-0.93,1.0,211.0,,,,,,,[],,,,,,53.2,0.0,u,0.0,True,1244.8000000000466,75.0,60.0,40.0,False,,395.7257364241584,[],"[683, 384]",ColorTask,114.0,94.0,,,HRV,HRV_0104,2022-11-30 18:14:16
,wl-rdm,211,742756,0.0-8.94-0.94,1.0,212.0,,,,,,,[],,,,,,53.2,1.0,i,1.0,True,1659.3000000000466,100.0,60.0,40.0,False,,250.0611108054454,[],"[683, 384]",ColorTask,115.0,95.0,,,HRV,HRV_0104,2022-11-30 18:14:16
,wl-rdm,212,746037,0.0-8.95-0.95,1.0,213.0,,,,,,,[],,,,,,56.4,0.0,u,0.0,True,1966.6999999999534,118.0,60.0,40.0,False,,236.72429885453727,[],"[683, 384]",ColorTask,116.0,96.0,,,HRV,HRV_0104,2022-11-30 18:14:16
,wl-rdm,213,749037,0.0-8.96-0.96,1.0,214.0,,,,,,,[],,,,,,56.4,0.0,u,0.0,True,1670.100000000326,101.0,60.0,40.0,False,,249.86098849667593,[],"[683, 384]",ColorTask,117.0,97.0,,,HRV,HRV_0104,2022-11-30 18:14:16
,wl-rdm,214,751788,0.0-8.97-0.97,1.0,215.0,,,,,,,[],,,,,,62.5,0.0,u,0.0,True,1404.399999999674,85.0,60.0,40.0,False,,272.5723424854686,[],"[683, 384]",ColorTask,118.0,98.0,,,HRV,HRV_0104,2022-11-30 18:14:16
,wl-rdm,215,754187,0.0-8.98-0.98,1.0,216.0,,,,,,,[],,,,,,53.2,1.0,u,0.0,False,1080.899999999674,65.0,60.0,40.0,False,,256.1168605078268,[],"[683, 384]",ColorTask,117.0,99.0,,,HRV,HRV_0104,2022-11-30 18:14:16
,wl-rdm,216,757037,0.0-8.99-0.99,1.0,217.0,,,,,,,[],,,,,,50.0,1.0,i,1.0,True,1576.5999999998603,95.0,60.0,40.0,False,,205.18392347087652,[],"[683, 384]",ColorTask,118.0,100.0,,,HRV,HRV_0104,2022-11-30 18:14:16
,wl-rdm,217,759970,0.0-8.100-0.100,1.0,218.0,,,,,,,[],,,,,,73.6,0.0,u,0.0,True,1528.9000000001397,92.0,60.0,40.0,False,,327.07152720310233,[],"[683, 384]",ColorTask,119.0,101.0,,,HRV,HRV_0104,2022-11-30 18:14:16
,wl-rdm,218,762453,0.0-8.101-0.101,1.0,219.0,,,,,,,[],,,,,,73.6,0.0,u,0.0,True,1139.7999999998137,69.0,60.0,40.0,False,,254.952878715849,[],"[683, 384]",ColorTask,120.0,102.0,,,HRV,HRV_0104,2022-11-30 18:14:16
,wl-rdm,219,765570,0.0-8.102-0.102,1.0,220.0,,,,,,,[],,,,,,50.0,0.0,i,1.0,False,1746.3000000000466,105.0,60.0,40.0,False,,288.4558163931863,[],"[683, 384]",ColorTask,119.0,103.0,,,HRV,HRV_0104,2022-11-30 18:14:16
,wl-rdm,220,768304,0.0-8.103-0.103,1.0,221.0,,,,,,,[],,,,,,50.0,1.0,i,1.0,True,1267.9000000001397,76.0,60.0,40.0,False,,386.9097449851252,[],"[683, 384]",ColorTask,120.0,104.0,,,HRV,HRV_0104,2022-11-30 18:14:16
,wl-rdm,221,770370,0.0-8.104-0.104,1.0,222.0,,,,,,,[],,,,,,87.9,1.0,i,1.0,True,708.2999999998137,43.0,60.0,40.0,False,,282.3430623018513,[],"[683, 384]",ColorTask,121.0,105.0,,,HRV,HRV_0104,2022-11-30 18:14:16
,wl-rdm,222,773054,0.0-8.105-0.105,1.0,223.0,,,,,,,[],,,,,,50.0,0.0,u,0.0,True,1305.0000000002328,79.0,60.0,40.0,False,,289.33648041893736,[],"[683, 384]",ColorTask,122.0,106.0,,,HRV,HRV_0104,2022-11-30 18:14:16
,wl-rdm,223,775369,0.0-8.106-0.106,1.0,224.0,,,,,,,[],,,,,,50.0,0.0,i,1.0,False,1009.0999999998603,61.0,60.0,40.0,False,,223.81164878278852,[],"[683, 384]",ColorTask,121.0,107.0,,,HRV,HRV_0104,2022-11-30 18:14:16
,wl-rdm,224,777654,0.0-8.107-0.107,1.0,225.0,,,,,,,[],,,,,,87.9,0.0,u,0.0,True,892.6000000000931,54.0,60.0,40.0,False,,306.1593092839256,[],"[683, 384]",ColorTask,122.0,108.0,,,HRV,HRV_0104,2022-11-30 18:14:16
,wl-html-button-response,225,780351,0.0-9.0-0.0,,,,,,,,,,2680.3000000000466,,0,,,,,,,,,,,,,,,,,,,,<h3>End of this session. Thank you!</h3><br>,['Close window'],HRV,HRV_0104,2022-11-30 18:14:16
