success,trial_type,trial_index,time_elapsed,internal_node_id,Block,TrialNumber,TrialTime,trialTimeDiff,FPS_avg,FPS_med,FPS_mode,TrialDur,winResizeTime,rt,block,button_pressed,MotCoh,MotDir,ColCoh,Color,ChoiceKey,Choice,Accuracy,RT,nFrames,FPS,PPD,missTrial,missTrialMsg,onsetDelay,fullScreenExitTime,canvCenter,TrialType,Score,BlockTrial,stimulus,button_labels,exp,subjectId,date
True,fullscreen,0,2488,0.0-0.0,0.0,1.0,,,,,,,,,,,,,,,,,,,,,,,,,,,,,,,,HRV,HRV_0155,2022-11-30 18:55:01
,wl-check-fps,1,7578,0.0-1.0,0.0,2.0,"[4636.3, 4639.5, 4726.6, 4777.5, 4790.8, 4808, 4824, 4840.3, 4857.2, 4873.3, 4890.6, 4907.5, 4923.6, 4940.3, 4957.2, 4973.7, 4990.2, 5007.1, 5023.8, 5040.2, 5056.9, 5073.7, 5090.2, 5107, 5123.5, 5140.1, 5156.5, 5173.8, 5190.6, 5207, 5224.1, 5240.3, 5257.1, 5274.4, 5290.7, 5306.9, 5323.8, 5340.3, 5358.7, 5373.8, 5391.4, 5408.7, 5424.4, 5440.7, 5457.1, 5473.4, 5490.3, 5506, 5523.2, 5539.5, 5556.2, 5573.9, 5589.2, 5606.9, 5623.5, 5639.2, 5655.6, 5672.2, 5689.4, 5706, 5722.4, 5739.1, 5755.6, 5772.5, 5789.2, 5806, 5822.8, 5839, 5856, 5872.6, 5889.4, 5908.1, 5922.4, 5938.7, 5955.8, 5972.4, 5988.7, 6006.6, 6022.6, 6039.5, 6055.6, 6072.4, 6089.5, 6105.8, 6122.4, 6139.2, 6155.6, 6171.9, 6189, 6205.6, 6222.3, 6239.4, 6255.6, 6271.6, 6289.3, 6305.5, 6322.3, 6339.1, 6355.3, 6372.6, 6389.2, 6405, 6422, 6439.1, 6455.4, 6472, 6490.3, 6505.4, 6522.7, 6539, 6555.3, 6574.2, 6589.1, 6605.1, 6621.7, 6638.4, 6654.9, 6671.7, 6689.1, 6705.1, 6721.7, 6738.4, 6754.8, 6771.7, 6789, 6804.6, 6821.4, 6838.5, 6855, 6871.5, 6888.6, 6905, 6921.6, 6938.5, 6955, 6971.5, 6988.6, 7006.8, 7021.4, 7038.6, 7055.6, 7071.4, 7088.7, 7104.3, 7120.9, 7142.5, 7154.6, 7171.2, 7188.3, 7204.6, 7221.1, 7238, 7254.4, 7271.4, 7288.2, 7303.8, 7323.2, 7338, 7354.5, 7370.9, 7388.2, 7404, 7420.9, 7437.7, 7454.2, 7470.8, 7487.4, 7504.1, 7523, 7538.4, 7554.5, 7570.9, 7587.5, 7604.7, 7621.9, 7640.1, 7654.4, 7670.8, 7686.4, 7703.3, 7719.7, 7736.6, 7753, 7770.5, 7787.5, 7803.8, 7820.3, 7836.6, 7853.7, 7870.4, 7886.7, 7903.6, 7920.4, 7936.6, 7954, 7973.1, 7993.6, 8005.1, 8021.1, 8036.9, 8053.4, 8070.1, 8086, 8102.9, 8119.5, 8136.2, 8154, 8169.9, 8186.4, 8205.5, 8219.7, 8237.1, 8253, 8269.7, 8289.5, 8304.9, 8321.3, 8339.1, 8355.4, 8370.1, 8387.4, 8404, 8420.3, 8438.1, 8454.8, 8471.7, 8489.2, 8505.1, 8522.2, 8539, 8553.5, 8570.4, 8586.9, 8604.2, 8620.1, 8637.1, 8653.4, 8670.6, 8687.6, 8703.7, 8720.4, 8738.2, 8754.1, 8770.6, 8789, 8805.7, 8822.3, 8839.4, 8855.4, 8871.7, 8888.1, 8904.1, 8921.2, 8938.2, 8955.3, 8970.6, 8987.6, 9003.9, 9021, 9036.1, 9053, 9070.2, 9087.9, 9103.5, 9120.7, 9136.6, 9153.3, 9169.9, 9186.7, 9203.7, 9220.3, 9236.5, 9253.4, 9270.3, 9286.5, 9302.4, 9318.3, 9336, 9353.5, 9369.8, 9386.3, 9402.8, 9420.3, 9436, 9452.8, 9469.1, 9485.9, 9502, 9518.6, 9534.8, 9551.1, 9568.5, 9585, 9602.7, 9619.8, 9636, 9653.5, 9669.8, 9686.5, 9702.7]","[2.5, 3.2, 87.1, 50.9, 13.3, 17.2, 16, 16.3, 16.9, 16.1, 17.3, 16.9, 16.1, 16.7, 16.9, 16.5, 16.5, 16.9, 16.7, 16.4, 16.7, 16.8, 16.5, 16.8, 16.5, 16.6, 16.4, 17.3, 16.8, 16.4, 17.1, 16.2, 16.8, 17.3, 16.3, 16.2, 16.9, 16.5, 18.4, 15.1, 17.6, 17.3, 15.7, 16.3, 16.4, 16.3, 16.9, 15.7, 17.2, 16.3, 16.7, 17.7, 15.3, 17.7, 16.6, 15.7, 16.4, 16.6, 17.2, 16.6, 16.4, 16.7, 16.5, 16.9, 16.7, 16.8, 16.8, 16.2, 17, 16.6, 16.8, 18.7, 14.3, 16.3, 17.1, 16.6, 16.3, 17.9, 16, 16.9, 16.1, 16.8, 17.1, 16.3, 16.6, 16.8, 16.4, 16.3, 17.1, 16.6, 16.7, 17.1, 16.2, 16, 17.7, 16.2, 16.8, 16.8, 16.2, 17.3, 16.6, 15.8, 17, 17.1, 16.3, 16.6, 18.3, 15.1, 17.3, 16.3, 16.3, 18.9, 14.9, 16, 16.6, 16.7, 16.5, 16.8, 17.4, 16, 16.6, 16.7, 16.4, 16.9, 17.3, 15.6, 16.8, 17.1, 16.5, 16.5, 17.1, 16.4, 16.6, 16.9, 16.5, 16.5, 17.1, 18.2, 14.6, 17.2, 17, 15.8, 17.3, 15.6, 16.6, 21.6, 12.1, 16.6, 17.1, 16.3, 16.5, 16.9, 16.4, 17, 16.8, 15.6, 19.4, 14.8, 16.5, 16.4, 17.3, 15.8, 16.9, 16.8, 16.5, 16.6, 16.6, 16.7, 18.9, 15.4, 16.1, 16.4, 16.6, 17.2, 17.2, 18.2, 14.3, 16.4, 15.6, 16.9, 16.4, 16.9, 16.4, 17.5, 17, 16.3, 16.5, 16.3, 17.1, 16.7, 16.3, 16.9, 16.8, 16.2, 17.4, 19.1, 20.5, 11.5, 16, 15.8, 16.5, 16.7, 15.9, 16.9, 16.6, 16.7, 17.8, 15.9, 16.5, 19.1, 14.2, 17.4, 15.9, 16.7, 19.8, 15.4, 16.4, 17.8, 16.3, 14.7, 17.3, 16.6, 16.3, 17.8, 16.7, 16.9, 17.5, 15.9, 17.1, 16.8, 14.5, 16.9, 16.5, 17.3, 15.9, 17, 16.3, 17.2, 17, 16.1, 16.7, 17.8, 15.9, 16.5, 18.4, 16.7, 16.6, 17.1, 16, 16.3, 16.4, 16, 17.1, 17, 17.1, 15.3, 17, 16.3, 17.1, 15.1, 16.9, 17.2, 17.7, 15.6, 17.2, 15.9, 16.7, 16.6, 16.8, 17, 16.6, 16.2, 16.9, 16.9, 16.2, 15.9, 15.9, 17.7, 17.5, 16.3, 16.5, 16.5, 17.5, 15.7, 16.8, 16.3, 16.8, 16.1, 16.6, 16.2, 16.3, 17.4, 16.5, 17.7, 17.1, 16.2, 17.5, 16.3, 16.7, 16.2]",59.0,61.0,61.0,5085.8,[],,,,,,,,,,,,,,,,,,,,,,,,,HRV,HRV_0155,2022-11-30 18:55:01
,wl-html-keyboard-response,2,16444,0.0-2.0-0.0,0.0,3.0,,,,,,,,6829.0999999940395,0.0,0,,,,,,,,,,,,,,,,,,,,,,HRV,HRV_0155,2022-11-30 18:55:01
,wl-rdm,3,22625,0.0-3.0-0.0,0.0,4.0,,,,,,,[],,,,0.0,0.0,87.9,0.0,u,0.0,True,537.6999999880791,33.0,61.0,40.0,False,,3000.0,[],"[800, 450]",ColorTask_Demo,,,,,HRV,HRV_0155,2022-11-30 18:55:01
,wl-rdm,4,27287,0.0-3.0-1.0,0.0,5.0,,,,,,,[],,,,0.0,0.0,87.9,1.0,i,1.0,True,572.4000000357628,35.0,61.0,40.0,False,,2000.0,[],"[800, 450]",ColorTask_Demo,,,,,HRV,HRV_0155,2022-11-30 18:55:01
,wl-html-keyboard-response,5,31846,0.0-3.0-2.0,0.0,6.0,,,,,,,,2547.7999999821186,0.0,1,,,,,,,,,,,,,,,,,,,,,,HRV,HRV_0155,2022-11-30 18:55:01
,wl-html-keyboard-response,6,54210,0.0-4.0-0.0,0.0,7.0,,,,,,,,20349.80000001192,0.0,0,,,,,,,,,,,,,,,,,,,,,,HRV,HRV_0155,2022-11-30 18:55:01
,wl-html-keyboard-response,7,68799,0.0-5.0-0.0,0.0,8.0,,,,,,,,12502.90000000596,0.0,0,,,,,,,,,,,,,,,,,,,,,,HRV,HRV_0155,2022-11-30 18:55:01
,wl-rdm,8,70652,0.0-6.0-0.0,0.0,9.0,,,,,,,[],,,,,,87.9,0.0,u,0.0,True,523.3999999761581,32.0,61.0,40.0,False,,248.85717402595338,[],"[800, 450]",ColorTask,1.0,1.0,,,HRV,HRV_0155,2022-11-30 18:55:01
,wl-rdm,9,72417,0.0-6.1-0.1,0.0,10.0,,,,,,,[],,,,,,87.9,0.0,u,0.0,True,472.69999998807907,29.0,61.0,40.0,False,,200.8263828940339,[],"[800, 450]",ColorTask,2.0,2.0,,,HRV,HRV_0155,2022-11-30 18:55:01
,wl-rdm,10,74265,0.0-6.2-0.2,0.0,11.0,,,,,,,[],,,,,,53.2,0.0,u,0.0,True,579.6999999880791,35.0,61.0,40.0,False,,205.40487686610834,[],"[800, 450]",ColorTask,3.0,3.0,,,HRV,HRV_0155,2022-11-30 18:55:01
,wl-rdm,11,76080,0.0-6.3-0.3,0.0,12.0,,,,,,,[],,,,,,87.9,1.0,i,1.0,True,410.2999999821186,25.0,61.0,40.0,False,,333.4183044434428,[],"[800, 450]",ColorTask,4.0,4.0,,,HRV,HRV_0155,2022-11-30 18:55:01
,wl-rdm,12,77929,0.0-6.4-0.4,0.0,13.0,,,,,,,[],,,,,,73.6,1.0,i,1.0,True,453.90000000596046,28.0,61.0,40.0,False,,304.54840441825445,[],"[800, 450]",ColorTask,5.0,5.0,,,HRV,HRV_0155,2022-11-30 18:55:01
,wl-rdm,13,79860,0.0-6.5-0.5,0.0,14.0,,,,,,,[],,,,,,50.0,1.0,u,0.0,False,619.0,38.0,61.0,40.0,False,,231.2806807410738,[],"[800, 450]",ColorTask,4.0,6.0,,,HRV,HRV_0155,2022-11-30 18:55:01
,wl-rdm,14,81839,0.0-6.6-0.6,0.0,15.0,,,,,,,[],,,,,,62.5,1.0,i,1.0,True,544.5,33.0,61.0,40.0,False,,365.4571197587947,[],"[800, 450]",ColorTask,5.0,7.0,,,HRV,HRV_0155,2022-11-30 18:55:01
,wl-rdm,15,83838,0.0-6.7-0.7,0.0,16.0,,,,,,,[],,,,,,56.4,0.0,u,0.0,True,575.0000000298023,35.0,61.0,40.0,False,,365.34272151061475,[],"[800, 450]",ColorTask,6.0,8.0,,,HRV,HRV_0155,2022-11-30 18:55:01
,wl-rdm,16,85701,0.0-6.8-0.8,0.0,17.0,,,,,,,[],,,,,,56.4,0.0,u,0.0,True,561.7000000178814,34.0,61.0,40.0,False,,224.51698944087244,[],"[800, 450]",ColorTask,7.0,9.0,,,HRV,HRV_0155,2022-11-30 18:55:01
,wl-rdm,17,87767,0.0-6.9-0.9,0.0,18.0,,,,,,,[],,,,,,87.9,0.0,u,0.0,True,666.4000000059605,40.0,61.0,40.0,False,,329.95467290256175,[],"[800, 450]",ColorTask,8.0,10.0,,,HRV,HRV_0155,2022-11-30 18:55:01
,wl-rdm,18,89814,0.0-6.10-0.10,0.0,19.0,,,,,,,[],,,,,,73.6,1.0,i,1.0,True,661.8999999761581,40.0,61.0,40.0,False,,312.29003797026985,[],"[800, 450]",ColorTask,9.0,11.0,,,HRV,HRV_0155,2022-11-30 18:55:01
,wl-rdm,19,91944,0.0-6.11-0.11,0.0,20.0,,,,,,,[],,,,,,56.4,1.0,i,1.0,True,738.2000000178814,45.0,61.0,40.0,False,,309.2547785301913,[],"[800, 450]",ColorTask,10.0,12.0,,,HRV,HRV_0155,2022-11-30 18:55:01
,wl-rdm,20,94025,0.0-6.12-0.12,0.0,21.0,,,,,,,[],,,,,,56.4,0.0,u,0.0,True,678.7999999821186,41.0,61.0,40.0,False,,335.7276304597163,[],"[800, 450]",ColorTask,11.0,13.0,,,HRV,HRV_0155,2022-11-30 18:55:01
,wl-rdm,21,96107,0.0-6.13-0.13,0.0,22.0,,,,,,,[],,,,,,50.0,0.0,i,1.0,False,697.4000000059605,42.0,61.0,40.0,False,,308.66500019627904,[],"[800, 450]",ColorTask,10.0,14.0,,,HRV,HRV_0155,2022-11-30 18:55:01
,wl-rdm,22,98371,0.0-6.14-0.14,0.0,23.0,,,,,,,[],,,,,,62.5,1.0,u,0.0,False,870.1999999880791,53.0,61.0,40.0,False,,302.19334546520747,[],"[800, 450]",ColorTask,9.0,15.0,,,HRV,HRV_0155,2022-11-30 18:55:01
,wl-rdm,23,100601,0.0-6.15-0.15,0.0,24.0,,,,,,,[],,,,,,56.4,1.0,i,1.0,True,890.0,54.0,61.0,40.0,False,,255.18355841517297,[],"[800, 450]",ColorTask,10.0,16.0,,,HRV,HRV_0155,2022-11-30 18:55:01
,wl-rdm,24,102831,0.0-6.16-0.16,0.0,25.0,,,,,,,[],,,,,,73.6,1.0,i,1.0,True,886.7999999821186,54.0,61.0,40.0,False,,254.10949702485976,[],"[800, 450]",ColorTask,11.0,17.0,,,HRV,HRV_0155,2022-11-30 18:55:01
,wl-rdm,25,105029,0.0-6.17-0.17,0.0,26.0,,,,,,,[],,,,,,62.5,1.0,i,1.0,True,742.5999999940395,45.0,61.0,40.0,False,,366.90521532642225,[],"[800, 450]",ColorTask,12.0,18.0,,,HRV,HRV_0155,2022-11-30 18:55:01
,wl-rdm,26,107328,0.0-6.18-0.18,0.0,27.0,,,,,,,[],,,,,,50.0,1.0,u,0.0,False,995.4000000059605,60.0,61.0,40.0,False,,221.3574078946958,[],"[800, 450]",ColorTask,11.0,19.0,,,HRV,HRV_0155,2022-11-30 18:55:01
,wl-rdm,27,109541,0.0-6.19-0.19,0.0,28.0,,,,,,,[],,,,,,53.2,0.0,u,0.0,True,820.7000000178814,50.0,61.0,40.0,False,,304.6140762923924,[],"[800, 450]",ColorTask,12.0,20.0,,,HRV,HRV_0155,2022-11-30 18:55:01
,wl-rdm,28,111756,0.0-6.20-0.20,0.0,29.0,,,,,,,[],,,,,,50.0,1.0,i,1.0,True,852.0999999940395,52.0,61.0,40.0,False,,281.2987896163756,[],"[800, 450]",ColorTask,13.0,21.0,,,HRV,HRV_0155,2022-11-30 18:55:01
,wl-rdm,29,113903,0.0-6.21-0.21,0.0,30.0,,,,,,,[],,,,,,53.2,0.0,i,1.0,False,758.2999999821186,46.0,61.0,40.0,False,,310.7088412670112,[],"[800, 450]",ColorTask,12.0,22.0,,,HRV,HRV_0155,2022-11-30 18:55:01
,wl-rdm,30,116167,0.0-6.22-0.22,0.0,31.0,,,,,,,[],,,,,,56.4,0.0,u,0.0,True,930.6000000238419,56.0,61.0,40.0,False,,261.89909537944106,[],"[800, 450]",ColorTask,13.0,23.0,,,HRV,HRV_0155,2022-11-30 18:55:01
,wl-rdm,31,118381,0.0-6.23-0.23,0.0,32.0,,,,,,,[],,,,,,53.2,1.0,i,1.0,True,803.0,49.0,61.0,40.0,False,,336.9291213396346,[],"[800, 450]",ColorTask,14.0,24.0,,,HRV,HRV_0155,2022-11-30 18:55:01
,wl-rdm,32,120378,0.0-6.24-0.24,0.0,33.0,,,,,,,[],,,,,,73.6,0.0,u,0.0,True,728.4000000059605,44.0,61.0,40.0,False,,214.49895771107347,[],"[800, 450]",ColorTask,15.0,25.0,,,HRV,HRV_0155,2022-11-30 18:55:01
,wl-rdm,33,122626,0.0-6.25-0.25,0.0,34.0,,,,,,,[],,,,,,50.0,0.0,i,1.0,False,864.3999999761581,52.0,61.0,40.0,False,,314.9701887682092,[],"[800, 450]",ColorTask,14.0,26.0,,,HRV,HRV_0155,2022-11-30 18:55:01
,wl-rdm,34,124824,0.0-6.26-0.26,0.0,35.0,,,,,,,[],,,,,,50.0,1.0,i,1.0,True,908.6000000238419,55.0,61.0,40.0,False,,214.24163142738843,[],"[800, 450]",ColorTask,15.0,27.0,,,HRV,HRV_0155,2022-11-30 18:55:01
,wl-rdm,35,127071,0.0-6.27-0.27,0.0,36.0,,,,,,,[],,,,,,50.0,0.0,u,0.0,True,860.6999999880791,52.0,61.0,40.0,False,,325.24865699343286,[],"[800, 450]",ColorTask,16.0,28.0,,,HRV,HRV_0155,2022-11-30 18:55:01
,wl-rdm,36,129251,0.0-6.28-0.28,0.0,37.0,,,,,,,[],,,,,,53.2,1.0,u,0.0,False,824.6999999880791,50.0,61.0,40.0,False,,277.19281827045256,[],"[800, 450]",ColorTask,15.0,29.0,,,HRV,HRV_0155,2022-11-30 18:55:01
,wl-rdm,37,131350,0.0-6.29-0.29,0.0,38.0,,,,,,,[],,,,,,73.6,1.0,u,0.0,False,737.0999999940395,45.0,61.0,40.0,False,,283.193248992844,[],"[800, 450]",ColorTask,14.0,30.0,,,HRV,HRV_0155,2022-11-30 18:55:01
,wl-rdm,38,133714,0.0-6.30-0.30,0.0,39.0,,,,,,,[],,,,,,62.5,1.0,i,1.0,True,1037.4999999701977,63.0,61.0,40.0,False,,248.45731206514284,[],"[800, 450]",ColorTask,15.0,31.0,,,HRV,HRV_0155,2022-11-30 18:55:01
,wl-rdm,39,135894,0.0-6.31-0.31,0.0,40.0,,,,,,,[],,,,,,56.4,1.0,i,1.0,True,873.4000000059605,53.0,61.0,40.0,False,,228.60193238482478,[],"[800, 450]",ColorTask,16.0,32.0,,,HRV,HRV_0155,2022-11-30 18:55:01
,wl-rdm,40,138141,0.0-6.32-0.32,0.0,41.0,,,,,,,[],,,,,,50.0,1.0,i,1.0,True,854.8999999761581,52.0,61.0,40.0,False,,304.0323961698037,[],"[800, 450]",ColorTask,17.0,33.0,,,HRV,HRV_0155,2022-11-30 18:55:01
,wl-rdm,41,140405,0.0-6.33-0.33,0.0,42.0,,,,,,,[],,,,,,50.0,0.0,i,1.0,False,811.4000000357628,49.0,61.0,40.0,False,,367.06315266558806,[],"[800, 450]",ColorTask,16.0,34.0,,,HRV,HRV_0155,2022-11-30 18:55:01
,wl-rdm,42,142736,0.0-6.34-0.34,0.0,43.0,,,,,,,[],,,,,,56.4,1.0,i,1.0,True,1019.2000000178814,62.0,61.0,40.0,False,,224.44195235093832,[],"[800, 450]",ColorTask,17.0,35.0,,,HRV,HRV_0155,2022-11-30 18:55:01
,wl-rdm,43,144866,0.0-6.35-0.35,0.0,44.0,,,,,,,[],,,,,,62.5,0.0,i,1.0,False,704.0,43.0,61.0,40.0,False,,340.8746629846738,[],"[800, 450]",ColorTask,16.0,36.0,,,HRV,HRV_0155,2022-11-30 18:55:01
,wl-rdm,44,146982,0.0-6.36-0.36,0.0,45.0,,,,,,,[],,,,,,56.4,0.0,u,0.0,True,735.1999999880791,45.0,61.0,40.0,False,,289.91439752396116,[],"[800, 450]",ColorTask,17.0,37.0,,,HRV,HRV_0155,2022-11-30 18:55:01
,wl-rdm,45,149046,0.0-6.37-0.37,0.0,46.0,,,,,,,[],,,,,,56.4,1.0,u,0.0,False,769.5,47.0,61.0,40.0,False,,200.37988821562064,[],"[800, 450]",ColorTask,16.0,38.0,,,HRV,HRV_0155,2022-11-30 18:55:01
,wl-rdm,46,151377,0.0-6.38-0.38,0.0,47.0,,,,,,,[],,,,,,87.9,0.0,i,1.0,False,952.2999999821186,58.0,61.0,40.0,False,,294.8972134206234,[],"[800, 450]",ColorTask,15.0,39.0,,,HRV,HRV_0155,2022-11-30 18:55:01
,wl-rdm,47,153791,0.0-6.39-0.39,0.0,48.0,,,,,,,[],,,,,,53.2,1.0,u,0.0,False,954.8000000119209,58.0,61.0,40.0,False,,376.75735056623273,[],"[800, 450]",ColorTask,14.0,40.0,,,HRV,HRV_0155,2022-11-30 18:55:01
,wl-rdm,48,155871,0.0-6.40-0.40,0.0,49.0,,,,,,,[],,,,,,87.9,1.0,u,0.0,False,772.6999999880791,47.0,61.0,40.0,False,,217.90951989418312,[],"[800, 450]",ColorTask,13.0,41.0,,,HRV,HRV_0155,2022-11-30 18:55:01
,wl-rdm,49,158119,0.0-6.41-0.41,0.0,50.0,,,,,,,[],,,,,,53.2,1.0,i,1.0,True,949.0000000298023,57.0,61.0,40.0,False,,221.5590717437367,[],"[800, 450]",ColorTask,14.0,42.0,,,HRV,HRV_0155,2022-11-30 18:55:01
,wl-rdm,50,160432,0.0-6.42-0.42,0.0,51.0,,,,,,,[],,,,,,62.5,0.0,u,0.0,True,954.0999999940395,58.0,61.0,40.0,False,,269.77661604782486,[],"[800, 450]",ColorTask,15.0,43.0,,,HRV,HRV_0155,2022-11-30 18:55:01
,wl-rdm,51,162746,0.0-6.43-0.43,0.0,52.0,,,,,,,[],,,,,,50.0,1.0,u,0.0,False,1007.0,61.0,61.0,40.0,False,,227.87258619490348,[],"[800, 450]",ColorTask,14.0,44.0,,,HRV,HRV_0155,2022-11-30 18:55:01
,wl-rdm,52,165244,0.0-6.44-0.44,0.0,53.0,,,,,,,[],,,,,,53.2,0.0,i,1.0,False,1093.0000000298023,66.0,61.0,40.0,False,,320.4375967846811,[],"[800, 450]",ColorTask,13.0,45.0,,,HRV,HRV_0155,2022-11-30 18:55:01
,wl-rdm,53,168107,0.0-6.45-0.45,0.0,54.0,,,,,,,[],,,,,,73.6,0.0,u,0.0,True,1387.699999988079,84.0,61.0,40.0,False,,384.2619431897216,[],"[800, 450]",ColorTask,14.0,46.0,,,HRV,HRV_0155,2022-11-30 18:55:01
,wl-rdm,54,170222,0.0-6.46-0.46,0.0,55.0,,,,,,,[],,,,,,62.5,0.0,u,0.0,True,840.2999999821186,51.0,61.0,40.0,False,,200.4424246397028,[],"[800, 450]",ColorTask,15.0,47.0,,,HRV,HRV_0155,2022-11-30 18:55:01
,wl-rdm,55,172618,0.0-6.47-0.47,0.0,56.0,,,,,,,[],,,,,,87.9,0.0,u,0.0,True,961.4000000059605,58.0,61.0,40.0,False,,354.93130761444064,[],"[800, 450]",ColorTask,16.0,48.0,,,HRV,HRV_0155,2022-11-30 18:55:01
,wl-rdm,56,175167,0.0-6.48-0.48,0.0,57.0,,,,,,,[],,,,,,62.5,0.0,u,0.0,True,1089.4000000059605,66.0,61.0,40.0,False,,375.0051559452467,[],"[800, 450]",ColorTask,17.0,49.0,,,HRV,HRV_0155,2022-11-30 18:55:01
,wl-rdm,57,177513,0.0-6.49-0.49,0.0,58.0,,,,,,,[],,,,,,87.9,0.0,u,0.0,True,953.9000000059605,58.0,61.0,40.0,False,,306.87159111100834,[],"[800, 450]",ColorTask,18.0,50.0,,,HRV,HRV_0155,2022-11-30 18:55:01
,wl-rdm,58,179710,0.0-6.50-0.50,0.0,59.0,,,,,,,[],,,,,,87.9,0.0,u,0.0,True,836.5999999940395,51.0,61.0,40.0,False,,282.2657693721335,[],"[800, 450]",ColorTask,19.0,51.0,,,HRV,HRV_0155,2022-11-30 18:55:01
,wl-rdm,59,181791,0.0-6.51-0.51,0.0,60.0,,,,,,,[],,,,,,87.9,1.0,i,1.0,True,761.8000000119209,46.0,61.0,40.0,False,,244.723379000299,[],"[800, 450]",ColorTask,20.0,52.0,,,HRV,HRV_0155,2022-11-30 18:55:01
,wl-rdm,60,184122,0.0-6.52-0.52,0.0,61.0,,,,,,,[],,,,,,50.0,0.0,i,1.0,False,868.1999999880791,53.0,61.0,40.0,False,,372.89559288280566,[],"[800, 450]",ColorTask,19.0,53.0,,,HRV,HRV_0155,2022-11-30 18:55:01
,wl-rdm,61,186339,0.0-6.53-0.53,0.0,62.0,,,,,,,[],,,,,,62.5,1.0,i,1.0,True,856.9000000059605,52.0,61.0,40.0,False,,288.697736562765,[],"[800, 450]",ColorTask,20.0,54.0,,,HRV,HRV_0155,2022-11-30 18:55:01
,wl-rdm,62,188517,0.0-6.54-0.54,0.0,63.0,,,,,,,[],,,,,,56.4,0.0,i,1.0,False,894.3999999761581,54.0,61.0,40.0,False,,206.8142072070076,[],"[800, 450]",ColorTask,19.0,55.0,,,HRV,HRV_0155,2022-11-30 18:55:01
,wl-rdm,63,190648,0.0-6.55-0.55,0.0,64.0,,,,,,,[],,,,,,56.4,1.0,i,1.0,True,821.7000000178814,50.0,61.0,40.0,False,,224.61604557272253,[],"[800, 450]",ColorTask,20.0,56.0,,,HRV,HRV_0155,2022-11-30 18:55:01
,wl-rdm,64,192813,0.0-6.56-0.56,0.0,65.0,,,,,,,[],,,,,,87.9,1.0,i,1.0,True,727.4999999701977,44.0,61.0,40.0,False,,353.5711958274147,[],"[800, 450]",ColorTask,21.0,57.0,,,HRV,HRV_0155,2022-11-30 18:55:01
,wl-rdm,65,195310,0.0-6.57-0.57,0.0,66.0,,,,,,,[],,,,,,87.9,1.0,i,1.0,True,1020.9000000059605,62.0,61.0,40.0,False,,385.303637053403,[],"[800, 450]",ColorTask,22.0,58.0,,,HRV,HRV_0155,2022-11-30 18:55:01
,wl-rdm,66,197389,0.0-6.58-0.58,0.0,67.0,,,,,,,[],,,,,,87.9,1.0,i,1.0,True,712.0,43.0,61.0,40.0,False,,294.8781210658692,[],"[800, 450]",ColorTask,23.0,59.0,,,HRV,HRV_0155,2022-11-30 18:55:01
,wl-rdm,67,199421,0.0-6.59-0.59,0.0,68.0,,,,,,,[],,,,,,62.5,1.0,i,1.0,True,624.4000000059605,38.0,61.0,40.0,False,,315.88393173044574,[],"[800, 450]",ColorTask,24.0,60.0,,,HRV,HRV_0155,2022-11-30 18:55:01
,wl-rdm,68,201552,0.0-6.60-0.60,0.0,69.0,,,,,,,[],,,,,,87.9,1.0,i,1.0,True,823.5,50.0,61.0,40.0,False,,218.63636645901778,[],"[800, 450]",ColorTask,25.0,61.0,,,HRV,HRV_0155,2022-11-30 18:55:01
,wl-rdm,69,203833,0.0-6.61-0.61,0.0,70.0,,,,,,,[],,,,,,53.2,1.0,i,1.0,True,845.2999999821186,51.0,61.0,40.0,False,,356.13430779785426,[],"[800, 450]",ColorTask,26.0,62.0,,,HRV,HRV_0155,2022-11-30 18:55:01
,wl-rdm,70,206281,0.0-6.62-0.62,0.0,71.0,,,,,,,[],,,,,,62.5,0.0,u,0.0,True,1056.4000000059605,64.0,61.0,40.0,False,,308.21921014627486,[],"[800, 450]",ColorTask,27.0,63.0,,,HRV,HRV_0155,2022-11-30 18:55:01
,wl-rdm,71,208576,0.0-6.63-0.63,0.0,72.0,,,,,,,[],,,,,,56.4,0.0,u,0.0,True,955.0,58.0,61.0,40.0,False,,254.70899970943438,[],"[800, 450]",ColorTask,28.0,64.0,,,HRV,HRV_0155,2022-11-30 18:55:01
,wl-rdm,72,210958,0.0-6.64-0.64,0.0,73.0,,,,,,,[],,,,,,56.4,0.0,i,1.0,False,991.7999999821186,60.0,61.0,40.0,False,,306.54460497004817,[],"[800, 450]",ColorTask,27.0,65.0,,,HRV,HRV_0155,2022-11-30 18:55:01
,wl-rdm,73,213122,0.0-6.65-0.65,0.0,74.0,,,,,,,[],,,,,,50.0,0.0,u,0.0,True,835.7000000178814,51.0,61.0,40.0,False,,238.64628901779736,[],"[800, 450]",ColorTask,28.0,66.0,,,HRV,HRV_0155,2022-11-30 18:55:01
,wl-rdm,74,215602,0.0-6.66-0.66,0.0,75.0,,,,,,,[],,,,,,62.5,0.0,u,0.0,True,1027.5,62.0,61.0,40.0,False,,387.34143962915334,[],"[800, 450]",ColorTask,29.0,67.0,,,HRV,HRV_0155,2022-11-30 18:55:01
,wl-rdm,75,218016,0.0-6.67-0.67,0.0,76.0,,,,,,,[],,,,,,50.0,0.0,u,0.0,True,1025.2999999821186,62.0,61.0,40.0,False,,298.8449821360475,[],"[800, 450]",ColorTask,30.0,68.0,,,HRV,HRV_0155,2022-11-30 18:55:01
,wl-rdm,76,220280,0.0-6.68-0.68,0.0,77.0,,,,,,,[],,,,,,62.5,1.0,u,0.0,False,970.6999999880791,59.0,61.0,40.0,False,,208.6225906043167,[],"[800, 450]",ColorTask,29.0,69.0,,,HRV,HRV_0155,2022-11-30 18:55:01
,wl-rdm,77,222560,0.0-6.69-0.69,0.0,78.0,,,,,,,[],,,,,,56.4,1.0,i,1.0,True,920.4000000059605,56.0,61.0,40.0,False,,275.67987484591407,[],"[800, 450]",ColorTask,30.0,70.0,,,HRV,HRV_0155,2022-11-30 18:55:01
,wl-rdm,78,224974,0.0-6.70-0.70,0.0,79.0,,,,,,,[],,,,,,50.0,1.0,i,1.0,True,963.7999999821186,58.0,61.0,40.0,False,,378.26207152281677,[],"[800, 450]",ColorTask,31.0,71.0,,,HRV,HRV_0155,2022-11-30 18:55:01
,wl-rdm,79,227256,0.0-6.71-0.71,0.0,80.0,,,,,,,[],,,,,,50.0,1.0,i,1.0,True,919.5999999940395,56.0,61.0,40.0,False,,277.3899777117308,[],"[800, 450]",ColorTask,32.0,72.0,,,HRV,HRV_0155,2022-11-30 18:55:01
,wl-rdm,80,229535,0.0-6.72-0.72,0.0,81.0,,,,,,,[],,,,,,73.6,1.0,i,1.0,True,870.8000000119209,53.0,61.0,40.0,False,,333.0946033100183,[],"[800, 450]",ColorTask,33.0,73.0,,,HRV,HRV_0155,2022-11-30 18:55:01
,wl-rdm,81,231799,0.0-6.73-0.73,0.0,82.0,,,,,,,[],,,,,,62.5,0.0,u,0.0,True,849.0,51.0,61.0,40.0,False,,337.7885146337517,[],"[800, 450]",ColorTask,34.0,74.0,,,HRV,HRV_0155,2022-11-30 18:55:01
,wl-rdm,82,233914,0.0-6.74-0.74,0.0,83.0,,,,,,,[],,,,,,73.6,0.0,u,0.0,True,826.4000000059605,50.0,61.0,40.0,False,,229.64719474446096,[],"[800, 450]",ColorTask,35.0,75.0,,,HRV,HRV_0155,2022-11-30 18:55:01
,wl-rdm,83,236178,0.0-6.75-0.75,0.0,84.0,,,,,,,[],,,,,,73.6,0.0,u,0.0,True,977.2999999821186,59.0,61.0,40.0,False,,215.03133876869572,[],"[800, 450]",ColorTask,36.0,76.0,,,HRV,HRV_0155,2022-11-30 18:55:01
,wl-rdm,84,238375,0.0-6.76-0.76,0.0,85.0,,,,,,,[],,,,,,87.9,0.0,u,0.0,True,737.1999999880791,45.0,61.0,40.0,False,,370.38665142386844,[],"[800, 450]",ColorTask,37.0,77.0,,,HRV,HRV_0155,2022-11-30 18:55:01
,wl-rdm,85,240539,0.0-6.77-0.77,0.0,86.0,,,,,,,[],,,,,,73.6,1.0,i,1.0,True,746.5,45.0,61.0,40.0,False,,344.4895581811512,[],"[800, 450]",ColorTask,38.0,78.0,,,HRV,HRV_0155,2022-11-30 18:55:01
,wl-rdm,86,242820,0.0-6.78-0.78,0.0,87.0,,,,,,,[],,,,,,53.2,0.0,i,1.0,False,985.2999999821186,60.0,61.0,40.0,False,,216.09726636768374,[],"[800, 450]",ColorTask,37.0,79.0,,,HRV,HRV_0155,2022-11-30 18:55:01
,wl-rdm,87,244917,0.0-6.79-0.79,0.0,88.0,,,,,,,[],,,,,,73.6,1.0,i,1.0,True,756.0999999940395,46.0,61.0,40.0,False,,265.02288706046375,[],"[800, 450]",ColorTask,38.0,80.0,,,HRV,HRV_0155,2022-11-30 18:55:01
,wl-rdm,88,247065,0.0-6.80-0.80,0.0,89.0,,,,,,,[],,,,,,53.2,0.0,i,1.0,False,779.1000000238419,47.0,61.0,40.0,False,,310.2859844831932,[],"[800, 450]",ColorTask,37.0,81.0,,,HRV,HRV_0155,2022-11-30 18:55:01
,wl-rdm,89,249495,0.0-6.81-0.81,0.0,90.0,,,,,,,[],,,,,,73.6,1.0,i,1.0,True,1031.5999999940395,62.0,61.0,40.0,False,,319.22561436677086,[],"[800, 450]",ColorTask,38.0,82.0,,,HRV,HRV_0155,2022-11-30 18:55:01
,wl-rdm,90,251777,0.0-6.82-0.82,0.0,91.0,,,,,,,[],,,,,,73.6,1.0,i,1.0,True,888.7000000178814,54.0,61.0,40.0,False,,303.8980088790913,[],"[800, 450]",ColorTask,39.0,83.0,,,HRV,HRV_0155,2022-11-30 18:55:01
,wl-rdm,91,253990,0.0-6.83-0.83,0.0,92.0,,,,,,,[],,,,,,73.6,0.0,u,0.0,True,840.0000000298023,51.0,61.0,40.0,False,,284.8546013137261,[],"[800, 450]",ColorTask,40.0,84.0,,,HRV,HRV_0155,2022-11-30 18:55:01
,wl-rdm,92,256088,0.0-6.84-0.84,0.0,93.0,,,,,,,[],,,,,,62.5,1.0,i,1.0,True,763.8999999761581,46.0,61.0,40.0,False,,259.31202597151616,[],"[800, 450]",ColorTask,41.0,85.0,,,HRV,HRV_0155,2022-11-30 18:55:01
,wl-rdm,93,258402,0.0-6.85-0.85,0.0,94.0,,,,,,,[],,,,,,50.0,1.0,i,1.0,True,1021.0,62.0,61.0,40.0,False,,201.1222640929872,[],"[800, 450]",ColorTask,42.0,86.0,,,HRV,HRV_0155,2022-11-30 18:55:01
,wl-rdm,94,260916,0.0-6.86-0.86,0.0,95.0,,,,,,,[],,,,,,53.2,0.0,u,0.0,True,1107.5000000298023,67.0,61.0,40.0,False,,330.18150536627763,[],"[800, 450]",ColorTask,43.0,87.0,,,HRV,HRV_0155,2022-11-30 18:55:01
,wl-rdm,95,263247,0.0-6.87-0.87,0.0,96.0,,,,,,,[],,,,,,53.2,1.0,i,1.0,True,1050.9000000059605,64.0,61.0,40.0,False,,202.4436654016499,[],"[800, 450]",ColorTask,44.0,88.0,,,HRV,HRV_0155,2022-11-30 18:55:01
,wl-rdm,96,265444,0.0-6.88-0.88,0.0,97.0,,,,,,,[],,,,,,87.9,1.0,i,1.0,True,821.0,50.0,61.0,40.0,False,,312.0369535021037,[],"[800, 450]",ColorTask,45.0,89.0,,,HRV,HRV_0155,2022-11-30 18:55:01
,wl-rdm,97,267775,0.0-6.89-0.89,0.0,98.0,,,,,,,[],,,,,,50.0,0.0,i,1.0,False,873.4000000059605,53.0,61.0,40.0,False,,371.50258196733404,[],"[800, 450]",ColorTask,44.0,90.0,,,HRV,HRV_0155,2022-11-30 18:55:01
,wl-rdm,98,270189,0.0-6.90-0.90,0.0,99.0,,,,,,,[],,,,,,56.4,0.0,u,0.0,True,1053.3999999761581,64.0,61.0,40.0,False,,277.70762548836143,[],"[800, 450]",ColorTask,45.0,91.0,,,HRV,HRV_0155,2022-11-30 18:55:01
,wl-rdm,99,272518,0.0-6.91-0.91,0.0,100.0,,,,,,,[],,,,,,53.2,1.0,i,1.0,True,970.1999999880791,59.0,61.0,40.0,False,,279.85157925698593,[],"[800, 450]",ColorTask,46.0,92.0,,,HRV,HRV_0155,2022-11-30 18:55:01
,wl-rdm,100,276464,0.0-6.92-0.92,0.0,101.0,,,,,,,[],,,,,,62.5,0.0,i,1.0,False,2509.3000000417233,151.0,61.0,40.0,False,,350.0923625110739,[],"[800, 450]",ColorTask,45.0,93.0,,,HRV,HRV_0155,2022-11-30 18:55:01
,wl-rdm,101,278695,0.0-6.93-0.93,0.0,102.0,,,,,,,[],,,,,,73.6,0.0,u,0.0,True,831.3000000119209,50.0,61.0,40.0,False,,331.987699055622,[],"[800, 450]",ColorTask,46.0,94.0,,,HRV,HRV_0155,2022-11-30 18:55:01
,wl-rdm,102,281160,0.0-6.94-0.94,0.0,103.0,,,,,,,[],,,,,,53.2,1.0,i,1.0,True,1061.0999999940395,64.0,61.0,40.0,False,,326.21728363402167,[],"[800, 450]",ColorTask,47.0,95.0,,,HRV,HRV_0155,2022-11-30 18:55:01
,wl-rdm,103,283539,0.0-6.95-0.95,0.0,104.0,,,,,,,[],,,,,,73.6,0.0,i,1.0,False,979.0,59.0,61.0,40.0,False,,331.12185806605333,[],"[800, 450]",ColorTask,46.0,96.0,,,HRV,HRV_0155,2022-11-30 18:55:01
,wl-rdm,104,285770,0.0-6.96-0.96,0.0,105.0,,,,,,,[],,,,,,53.2,1.0,u,0.0,False,878.5999999940395,53.0,61.0,40.0,False,,266.34301346767256,[],"[800, 450]",ColorTask,45.0,97.0,,,HRV,HRV_0155,2022-11-30 18:55:01
,wl-rdm,105,287819,0.0-6.97-0.97,0.0,106.0,,,,,,,[],,,,,,62.5,1.0,i,1.0,True,716.5,43.0,61.0,40.0,False,,257.3582213912217,[],"[800, 450]",ColorTask,46.0,98.0,,,HRV,HRV_0155,2022-11-30 18:55:01
,wl-rdm,106,289799,0.0-6.98-0.98,0.0,107.0,,,,,,,[],,,,,,53.2,0.0,i,1.0,False,646.7999999821186,39.0,61.0,40.0,False,,267.38568923200467,[],"[800, 450]",ColorTask,45.0,99.0,,,HRV,HRV_0155,2022-11-30 18:55:01
,wl-rdm,107,291930,0.0-6.99-0.99,0.0,108.0,,,,,,,[],,,,,,87.9,1.0,u,0.0,False,702.4999999701977,43.0,61.0,40.0,False,,334.72396244954757,[],"[800, 450]",ColorTask,44.0,100.0,,,HRV,HRV_0155,2022-11-30 18:55:01
,wl-rdm,108,294045,0.0-6.100-0.100,0.0,109.0,,,,,,,[],,,,,,73.6,0.0,i,1.0,False,804.1000000238419,49.0,61.0,40.0,False,,230.26395138682093,[],"[800, 450]",ColorTask,43.0,101.0,,,HRV,HRV_0155,2022-11-30 18:55:01
,wl-rdm,109,296325,0.0-6.101-0.101,0.0,110.0,,,,,,,[],,,,,,73.6,0.0,u,0.0,True,953.9000000059605,58.0,61.0,40.0,False,,238.8324579519075,[],"[800, 450]",ColorTask,44.0,102.0,,,HRV,HRV_0155,2022-11-30 18:55:01
,wl-rdm,110,298555,0.0-6.102-0.102,0.0,111.0,,,,,,,[],,,,,,56.4,1.0,i,1.0,True,920.5999999940395,56.0,61.0,40.0,False,,224.48834709517706,[],"[800, 450]",ColorTask,45.0,103.0,,,HRV,HRV_0155,2022-11-30 18:55:01
,wl-rdm,111,300836,0.0-6.103-0.103,0.0,112.0,,,,,,,[],,,,,,56.4,1.0,i,1.0,True,889.1000000238419,54.0,61.0,40.0,False,,316.0205163180627,[],"[800, 450]",ColorTask,46.0,104.0,,,HRV,HRV_0155,2022-11-30 18:55:01
,wl-rdm,112,302933,0.0-6.104-0.104,0.0,113.0,,,,,,,[],,,,,,53.2,0.0,i,1.0,False,761.5999999940395,46.0,61.0,40.0,False,,256.7644801401208,[],"[800, 450]",ColorTask,45.0,105.0,,,HRV,HRV_0155,2022-11-30 18:55:01
,wl-rdm,113,305132,0.0-6.105-0.105,0.0,114.0,,,,,,,[],,,,,,50.0,0.0,i,1.0,False,929.0999999940395,56.0,61.0,40.0,False,,211.72071285199985,[],"[800, 450]",ColorTask,44.0,106.0,,,HRV,HRV_0155,2022-11-30 18:55:01
,wl-rdm,114,307163,0.0-6.106-0.106,0.0,115.0,,,,,,,[],,,,,,87.9,0.0,u,0.0,True,684.3999999761581,42.0,61.0,40.0,False,,274.1796721560066,[],"[800, 450]",ColorTask,45.0,107.0,,,HRV,HRV_0155,2022-11-30 18:55:01
,wl-rdm,115,309343,0.0-6.107-0.107,0.0,116.0,,,,,,,[],,,,,,62.5,0.0,u,0.0,True,801.3000000119209,49.0,61.0,40.0,False,,284.9234988664682,[],"[800, 450]",ColorTask,46.0,108.0,,,HRV,HRV_0155,2022-11-30 18:55:01
,wl-html-keyboard-response,116,387598,0.0-7.0-0.0,1.0,117.0,,,,,,,,76243.09999999404,1.0,0,,,,,,,,,,,,,,,,,,,,,,HRV,HRV_0155,2022-11-30 18:55:01
,wl-rdm,117,389601,0.0-8.0-0.0,1.0,118.0,,,,,,,[],,,,,,73.6,1.0,i,1.0,True,706.7999999821186,43.0,61.0,40.0,False,,201.78761161259325,[],"[800, 450]",ColorTask,47.0,1.0,,,HRV,HRV_0155,2022-11-30 18:55:01
,wl-rdm,118,391799,0.0-8.1-0.1,1.0,119.0,,,,,,,[],,,,,,56.4,0.0,i,1.0,False,726.6000000238419,44.0,61.0,40.0,False,,390.8818477849452,[],"[800, 450]",ColorTask,46.0,2.0,,,HRV,HRV_0155,2022-11-30 18:55:01
,wl-rdm,119,393813,0.0-8.2-0.2,1.0,120.0,,,,,,,[],,,,,,53.2,1.0,i,1.0,True,654.3999999761581,40.0,61.0,40.0,False,,281.10292589994646,[],"[800, 450]",ColorTask,47.0,3.0,,,HRV,HRV_0155,2022-11-30 18:55:01
,wl-rdm,120,395794,0.0-8.3-0.3,1.0,121.0,,,,,,,[],,,,,,50.0,1.0,i,1.0,True,637.7999999821186,39.0,61.0,40.0,False,,256.47940144798156,[],"[800, 450]",ColorTask,48.0,4.0,,,HRV,HRV_0155,2022-11-30 18:55:01
,wl-rdm,121,397709,0.0-8.4-0.4,1.0,122.0,,,,,,,[],,,,,,62.5,1.0,i,1.0,True,507.0,31.0,61.0,40.0,False,,339.11335345866235,[],"[800, 450]",ColorTask,49.0,5.0,,,HRV,HRV_0155,2022-11-30 18:55:01
,wl-rdm,122,399639,0.0-8.5-0.5,1.0,123.0,,,,,,,[],,,,,,53.2,1.0,i,1.0,True,574.3999999761581,35.0,61.0,40.0,False,,276.2832672119916,[],"[800, 450]",ColorTask,50.0,6.0,,,HRV,HRV_0155,2022-11-30 18:55:01
,wl-rdm,123,401604,0.0-8.6-0.6,1.0,124.0,,,,,,,[],,,,,,73.6,0.0,i,1.0,False,641.4000000059605,39.0,61.0,40.0,False,,243.57827772267748,[],"[800, 450]",ColorTask,49.0,7.0,,,HRV,HRV_0155,2022-11-30 18:55:01
,wl-rdm,124,403568,0.0-8.7-0.7,1.0,125.0,,,,,,,[],,,,,,87.9,0.0,u,0.0,True,601.1999999880791,37.0,61.0,40.0,False,,278.1008074173682,[],"[800, 450]",ColorTask,50.0,8.0,,,HRV,HRV_0155,2022-11-30 18:55:01
,wl-rdm,125,405549,0.0-8.8-0.8,1.0,126.0,,,,,,,[],,,,,,50.0,0.0,i,1.0,False,683.5,41.0,61.0,40.0,False,,226.4091185719494,[],"[800, 450]",ColorTask,49.0,9.0,,,HRV,HRV_0155,2022-11-30 18:55:01
,wl-rdm,126,407413,0.0-8.9-0.9,1.0,127.0,,,,,,,[],,,,,,50.0,1.0,i,1.0,True,565.2000000178814,34.0,61.0,40.0,False,,221.58863683520812,[],"[800, 450]",ColorTask,50.0,10.0,,,HRV,HRV_0155,2022-11-30 18:55:01
,wl-rdm,127,409411,0.0-8.10-0.10,1.0,128.0,,,,,,,[],,,,,,56.4,1.0,i,1.0,True,619.8999999761581,38.0,61.0,40.0,False,,287.4558007801608,[],"[800, 450]",ColorTask,51.0,11.0,,,HRV,HRV_0155,2022-11-30 18:55:01
,wl-rdm,128,411343,0.0-8.11-0.11,1.0,129.0,,,,,,,[],,,,,,50.0,0.0,i,1.0,False,627.2000000476837,38.0,61.0,40.0,False,,242.26663813576533,[],"[800, 450]",ColorTask,50.0,12.0,,,HRV,HRV_0155,2022-11-30 18:55:01
,wl-rdm,129,413490,0.0-8.12-0.12,1.0,130.0,,,,,,,[],,,,,,87.9,0.0,u,0.0,True,809.6999999880791,49.0,61.0,40.0,False,,262.30362378565314,[],"[800, 450]",ColorTask,51.0,13.0,,,HRV,HRV_0155,2022-11-30 18:55:01
,wl-rdm,130,415638,0.0-8.13-0.13,1.0,131.0,,,,,,,[],,,,,,62.5,1.0,i,1.0,True,674.9000000059605,41.0,61.0,40.0,False,,383.8519105759806,[],"[800, 450]",ColorTask,52.0,14.0,,,HRV,HRV_0155,2022-11-30 18:55:01
,wl-rdm,131,417819,0.0-8.14-0.14,1.0,132.0,,,,,,,[],,,,,,73.6,1.0,i,1.0,True,824.4000000059605,50.0,61.0,40.0,False,,267.1353774459544,[],"[800, 450]",ColorTask,53.0,15.0,,,HRV,HRV_0155,2022-11-30 18:55:01
,wl-rdm,132,419916,0.0-8.15-0.15,1.0,133.0,,,,,,,[],,,,,,73.6,1.0,i,1.0,True,800.1999999880791,49.0,61.0,40.0,False,,224.52883148185919,[],"[800, 450]",ColorTask,54.0,16.0,,,HRV,HRV_0155,2022-11-30 18:55:01
,wl-rdm,133,422080,0.0-8.16-0.16,1.0,134.0,,,,,,,[],,,,,,50.0,1.0,i,1.0,True,697.6000000238419,42.0,61.0,40.0,False,,392.35655720345983,[],"[800, 450]",ColorTask,55.0,17.0,,,HRV,HRV_0155,2022-11-30 18:55:01
,wl-rdm,134,424145,0.0-8.17-0.17,1.0,135.0,,,,,,,[],,,,,,56.4,0.0,i,1.0,False,702.2999999821186,43.0,61.0,40.0,False,,271.18681621133953,[],"[800, 450]",ColorTask,54.0,18.0,,,HRV,HRV_0155,2022-11-30 18:55:01
,wl-rdm,135,426259,0.0-8.18-0.18,1.0,136.0,,,,,,,[],,,,,,50.0,0.0,i,1.0,False,669.5,41.0,61.0,40.0,False,,379.8805826894041,[],"[800, 450]",ColorTask,53.0,19.0,,,HRV,HRV_0155,2022-11-30 18:55:01
,wl-rdm,136,428173,0.0-8.19-0.19,1.0,137.0,,,,,,,[],,,,,,50.0,0.0,u,0.0,True,486.7999999821186,30.0,61.0,40.0,False,,354.5149371311269,[],"[800, 450]",ColorTask,54.0,20.0,,,HRV,HRV_0155,2022-11-30 18:55:01
,wl-rdm,137,430405,0.0-8.20-0.20,1.0,138.0,,,,,,,[],,,,,,73.6,1.0,i,1.0,True,821.1000000238419,50.0,61.0,40.0,False,,329.9966314574783,[],"[800, 450]",ColorTask,55.0,21.0,,,HRV,HRV_0155,2022-11-30 18:55:01
,wl-rdm,138,432435,0.0-8.21-0.21,1.0,139.0,,,,,,,[],,,,,,53.2,1.0,i,1.0,True,720.8000000119209,44.0,61.0,40.0,False,,224.04228446378204,[],"[800, 450]",ColorTask,56.0,22.0,,,HRV,HRV_0155,2022-11-30 18:55:01
,wl-rdm,139,434450,0.0-8.22-0.22,1.0,140.0,,,,,,,[],,,,,,87.9,0.0,u,0.0,True,636.5,39.0,61.0,40.0,False,,288.80979776617994,[],"[800, 450]",ColorTask,57.0,23.0,,,HRV,HRV_0155,2022-11-30 18:55:01
,wl-rdm,140,436664,0.0-8.23-0.23,1.0,141.0,,,,,,,[],,,,,,56.4,1.0,u,0.0,False,919.3000000119209,56.0,61.0,40.0,False,,215.9306235762601,[],"[800, 450]",ColorTask,56.0,24.0,,,HRV,HRV_0155,2022-11-30 18:55:01
,wl-rdm,141,438544,0.0-8.24-0.24,1.0,142.0,,,,,,,[],,,,,,62.5,0.0,i,1.0,False,546.3000000119209,33.0,61.0,40.0,False,,261.23188194959505,[],"[800, 450]",ColorTask,55.0,25.0,,,HRV,HRV_0155,2022-11-30 18:55:01
,wl-rdm,142,440658,0.0-8.25-0.25,1.0,143.0,,,,,,,[],,,,,,73.6,0.0,u,0.0,True,674.0,41.0,61.0,40.0,False,,355.0906712191903,[],"[800, 450]",ColorTask,56.0,26.0,,,HRV,HRV_0155,2022-11-30 18:55:01
,wl-rdm,143,442789,0.0-8.26-0.26,1.0,144.0,,,,,,,[],,,,,,62.5,1.0,i,1.0,True,651.5999999940395,40.0,61.0,40.0,False,,387.33344380106115,[],"[800, 450]",ColorTask,57.0,27.0,,,HRV,HRV_0155,2022-11-30 18:55:01
,wl-rdm,144,444988,0.0-8.27-0.27,1.0,145.0,,,,,,,[],,,,,,53.2,1.0,i,1.0,True,808.1999999880791,49.0,61.0,40.0,False,,303.3338710881957,[],"[800, 450]",ColorTask,58.0,28.0,,,HRV,HRV_0155,2022-11-30 18:55:01
,wl-rdm,145,447135,0.0-8.28-0.28,1.0,146.0,,,,,,,[],,,,,,53.2,0.0,i,1.0,False,750.3000000119209,46.0,61.0,40.0,False,,327.7161825405661,[],"[800, 450]",ColorTask,57.0,29.0,,,HRV,HRV_0155,2022-11-30 18:55:01
,wl-rdm,146,449315,0.0-8.29-0.29,1.0,147.0,,,,,,,[],,,,,,53.2,1.0,i,1.0,True,704.5999999940395,43.0,61.0,40.0,False,,397.46908339254855,[],"[800, 450]",ColorTask,58.0,30.0,,,HRV,HRV_0155,2022-11-30 18:55:01
,wl-rdm,147,451430,0.0-8.30-0.30,1.0,148.0,,,,,,,[],,,,,,73.6,0.0,u,0.0,True,655.5,40.0,61.0,40.0,False,,386.34311739547286,[],"[800, 450]",ColorTask,59.0,31.0,,,HRV,HRV_0155,2022-11-30 18:55:01
,wl-rdm,148,453578,0.0-8.31-0.31,1.0,149.0,,,,,,,[],,,,,,73.6,1.0,i,1.0,True,827.2999999821186,50.0,61.0,40.0,False,,237.16470902731686,[],"[800, 450]",ColorTask,60.0,32.0,,,HRV,HRV_0155,2022-11-30 18:55:01
,wl-rdm,149,455658,0.0-8.32-0.32,1.0,150.0,,,,,,,[],,,,,,56.4,0.0,u,0.0,True,792.5999999940395,48.0,61.0,40.0,False,,201.12713764336613,[],"[800, 450]",ColorTask,61.0,33.0,,,HRV,HRV_0155,2022-11-30 18:55:01
,wl-rdm,150,458222,0.0-8.33-0.33,1.0,151.0,,,,,,,[],,,,,,53.2,1.0,u,0.0,False,1120.199999988079,68.0,61.0,40.0,False,,354.06008728686743,[],"[800, 450]",ColorTask,60.0,34.0,,,HRV,HRV_0155,2022-11-30 18:55:01
,wl-rdm,151,460020,0.0-8.34-0.34,1.0,152.0,,,,,,,[],,,,,,56.4,0.0,i,1.0,False,482.69999998807907,29.0,61.0,40.0,False,,248.75286913093478,[],"[800, 450]",ColorTask,59.0,35.0,,,HRV,HRV_0155,2022-11-30 18:55:01
,wl-rdm,152,462051,0.0-8.35-0.35,1.0,153.0,,,,,,,[],,,,,,50.0,1.0,u,0.0,False,661.5999999940395,40.0,61.0,40.0,False,,291.0462801420625,[],"[800, 450]",ColorTask,58.0,36.0,,,HRV,HRV_0155,2022-11-30 18:55:01
,wl-rdm,153,464282,0.0-8.36-0.36,1.0,154.0,,,,,,,[],,,,,,53.2,0.0,i,1.0,False,786.5999999940395,48.0,61.0,40.0,False,,362.2408709639557,[],"[800, 450]",ColorTask,57.0,37.0,,,HRV,HRV_0155,2022-11-30 18:55:01
,wl-rdm,154,466479,0.0-8.37-0.37,1.0,155.0,,,,,,,[],,,,,,50.0,1.0,u,0.0,False,862.1999999880791,52.0,61.0,40.0,False,,253.2536466320868,[],"[800, 450]",ColorTask,56.0,38.0,,,HRV,HRV_0155,2022-11-30 18:55:01
,wl-rdm,155,468461,0.0-8.38-0.38,1.0,156.0,,,,,,,[],,,,,,87.9,1.0,i,1.0,True,685.7000000178814,42.0,61.0,40.0,False,,201.87017702333125,[],"[800, 450]",ColorTask,57.0,39.0,,,HRV,HRV_0155,2022-11-30 18:55:01
,wl-rdm,156,470540,0.0-8.39-0.39,1.0,157.0,,,,,,,[],,,,,,50.0,1.0,i,1.0,True,762.4000000357628,46.0,61.0,40.0,False,,235.65480084759037,[],"[800, 450]",ColorTask,58.0,40.0,,,HRV,HRV_0155,2022-11-30 18:55:01
,wl-rdm,157,473037,0.0-8.40-0.40,1.0,158.0,,,,,,,[],,,,,,53.2,0.0,i,1.0,False,1057.5999999940395,63.0,61.0,40.0,False,,357.08908815622544,[],"[800, 450]",ColorTask,57.0,41.0,,,HRV,HRV_0155,2022-11-30 18:55:01
,wl-rdm,158,475185,0.0-8.41-0.41,1.0,159.0,,,,,,,[],,,,,,87.9,1.0,i,1.0,True,817.5,50.0,61.0,40.0,False,,243.92012115571902,[],"[800, 450]",ColorTask,58.0,42.0,,,HRV,HRV_0155,2022-11-30 18:55:01
,wl-rdm,159,477150,0.0-8.42-0.42,1.0,160.0,,,,,,,[],,,,,,87.9,0.0,u,0.0,True,642.9000000059605,39.0,61.0,40.0,False,,266.38770298503886,[],"[800, 450]",ColorTask,59.0,43.0,,,HRV,HRV_0155,2022-11-30 18:55:01
,wl-rdm,160,479314,0.0-8.43-0.43,1.0,161.0,,,,,,,[],,,,,,50.0,1.0,u,0.0,False,879.7000000178814,53.0,61.0,40.0,False,,205.04904436123607,[],"[800, 450]",ColorTask,58.0,44.0,,,HRV,HRV_0155,2022-11-30 18:55:01
,wl-rdm,161,481595,0.0-8.44-0.44,1.0,162.0,,,,,,,[],,,,,,62.5,0.0,i,1.0,False,917.1999999880791,56.0,61.0,40.0,False,,269.4263591928467,[],"[800, 450]",ColorTask,57.0,45.0,,,HRV,HRV_0155,2022-11-30 18:55:01
,wl-rdm,162,483826,0.0-8.45-0.45,1.0,163.0,,,,,,,[],,,,,,56.4,1.0,i,1.0,True,819.8999999761581,50.0,61.0,40.0,False,,328.916695747884,[],"[800, 450]",ColorTask,58.0,46.0,,,HRV,HRV_0155,2022-11-30 18:55:01
,wl-rdm,163,485840,0.0-8.46-0.46,1.0,164.0,,,,,,,[],,,,,,87.9,1.0,i,1.0,True,613.8000000417233,37.0,61.0,40.0,False,,330.60006712669417,[],"[800, 450]",ColorTask,59.0,47.0,,,HRV,HRV_0155,2022-11-30 18:55:01
,wl-rdm,164,487821,0.0-8.47-0.47,1.0,165.0,,,,,,,[],,,,,,62.5,1.0,i,1.0,True,653.3000000119209,40.0,61.0,40.0,False,,247.1284590956738,[],"[800, 450]",ColorTask,60.0,48.0,,,HRV,HRV_0155,2022-11-30 18:55:01
,wl-rdm,165,490218,0.0-8.48-0.48,1.0,166.0,,,,,,,[],,,,,,73.6,0.0,u,0.0,True,907.2999999821186,55.0,61.0,40.0,False,,386.86320355297545,[],"[800, 450]",ColorTask,61.0,49.0,,,HRV,HRV_0155,2022-11-30 18:55:01
,wl-rdm,166,492282,0.0-8.49-0.49,1.0,167.0,,,,,,,[],,,,,,73.6,1.0,i,1.0,True,674.7999999821186,41.0,61.0,40.0,False,,301.1307594624693,[],"[800, 450]",ColorTask,62.0,50.0,,,HRV,HRV_0155,2022-11-30 18:55:01
,wl-rdm,167,494414,0.0-8.50-0.50,1.0,168.0,,,,,,,[],,,,,,73.6,0.0,u,0.0,True,737.8999999761581,45.0,61.0,40.0,False,,316.1519867564305,[],"[800, 450]",ColorTask,63.0,51.0,,,HRV,HRV_0155,2022-11-30 18:55:01
,wl-rdm,168,496677,0.0-8.51-0.51,1.0,169.0,,,,,,,[],,,,,,56.4,0.0,u,0.0,True,884.2000000178814,54.0,61.0,40.0,False,,285.5425957751356,[],"[800, 450]",ColorTask,64.0,52.0,,,HRV,HRV_0155,2022-11-30 18:55:01
,wl-rdm,169,498824,0.0-8.52-0.52,1.0,170.0,,,,,,,[],,,,,,73.6,0.0,u,0.0,True,819.1999999880791,50.0,61.0,40.0,False,,242.85223343817367,[],"[800, 450]",ColorTask,65.0,53.0,,,HRV,HRV_0155,2022-11-30 18:55:01
,wl-rdm,170,501239,0.0-8.53-0.53,1.0,171.0,,,,,,,[],,,,,,56.4,1.0,u,0.0,False,954.5,58.0,61.0,40.0,False,,375.3202622515551,[],"[800, 450]",ColorTask,64.0,54.0,,,HRV,HRV_0155,2022-11-30 18:55:01
,wl-rdm,171,503702,0.0-8.54-0.54,1.0,172.0,,,,,,,[],,,,,,50.0,0.0,u,0.0,True,1061.2000000178814,64.0,61.0,40.0,False,,346.5730129648417,[],"[800, 450]",ColorTask,65.0,55.0,,,HRV,HRV_0155,2022-11-30 18:55:01
,wl-rdm,172,505900,0.0-8.55-0.55,1.0,173.0,,,,,,,[],,,,,,87.9,1.0,i,1.0,True,855.9000000357628,52.0,61.0,40.0,False,,282.7705197428055,[],"[800, 450]",ColorTask,66.0,56.0,,,HRV,HRV_0155,2022-11-30 18:55:01
,wl-rdm,173,508114,0.0-8.56-0.56,1.0,174.0,,,,,,,[],,,,,,87.9,1.0,i,1.0,True,756.8000000119209,46.0,61.0,40.0,False,,378.97167034596066,[],"[800, 450]",ColorTask,67.0,57.0,,,HRV,HRV_0155,2022-11-30 18:55:01
,wl-rdm,174,510427,0.0-8.57-0.57,1.0,175.0,,,,,,,[],,,,,,50.0,0.0,i,1.0,False,924.6000000238419,56.0,61.0,40.0,False,,302.910772400667,[],"[800, 450]",ColorTask,66.0,58.0,,,HRV,HRV_0155,2022-11-30 18:55:01
,wl-rdm,175,512408,0.0-8.58-0.58,1.0,176.0,,,,,,,[],,,,,,87.9,1.0,i,1.0,True,686.7000000178814,42.0,61.0,40.0,False,,211.10214773288732,[],"[800, 450]",ColorTask,67.0,59.0,,,HRV,HRV_0155,2022-11-30 18:55:01
,wl-rdm,176,514623,0.0-8.59-0.59,1.0,177.0,,,,,,,[],,,,,,87.9,0.0,u,0.0,True,769.9000000059605,47.0,61.0,40.0,False,,352.54143186467496,[],"[800, 450]",ColorTask,68.0,60.0,,,HRV,HRV_0155,2022-11-30 18:55:01
,wl-rdm,177,517287,0.0-8.60-0.60,1.0,178.0,,,,,,,[],,,,,,53.2,0.0,i,1.0,False,1301.699999988079,79.0,61.0,40.0,False,,275.86752953291796,[],"[800, 450]",ColorTask,67.0,61.0,,,HRV,HRV_0155,2022-11-30 18:55:01
,wl-rdm,178,519701,0.0-8.61-0.61,1.0,179.0,,,,,,,[],,,,,,56.4,0.0,i,1.0,False,1092.9000000059605,66.0,61.0,40.0,False,,246.86520075037612,[],"[800, 450]",ColorTask,66.0,62.0,,,HRV,HRV_0155,2022-11-30 18:55:01
,wl-rdm,179,521681,0.0-8.62-0.62,1.0,180.0,,,,,,,[],,,,,,87.9,1.0,i,1.0,True,664.0999999940395,40.0,61.0,40.0,False,,240.66109401382505,[],"[800, 450]",ColorTask,67.0,63.0,,,HRV,HRV_0155,2022-11-30 18:55:01
,wl-rdm,180,524246,0.0-8.63-0.63,1.0,181.0,,,,,,,[],,,,,,53.2,1.0,u,0.0,False,1156.699999988079,70.0,61.0,40.0,False,,321.5479992558849,[],"[800, 450]",ColorTask,66.0,64.0,,,HRV,HRV_0155,2022-11-30 18:55:01
,wl-rdm,181,526559,0.0-8.64-0.64,1.0,182.0,,,,,,,[],,,,,,53.2,0.0,u,0.0,True,1017.4000000059605,62.0,61.0,40.0,False,,204.46545238017742,[],"[800, 450]",ColorTask,67.0,65.0,,,HRV,HRV_0155,2022-11-30 18:55:01
,wl-rdm,182,529140,0.0-8.65-0.65,1.0,183.0,,,,,,,[],,,,,,62.5,0.0,u,0.0,True,1250.7000000178814,76.0,61.0,40.0,False,,249.31442233360744,[],"[800, 450]",ColorTask,68.0,66.0,,,HRV,HRV_0155,2022-11-30 18:55:01
,wl-rdm,183,531721,0.0-8.66-0.66,1.0,184.0,,,,,,,[],,,,,,53.2,1.0,u,0.0,False,1269.300000011921,77.0,61.0,40.0,False,,225.36765128614513,[],"[800, 450]",ColorTask,67.0,67.0,,,HRV,HRV_0155,2022-11-30 18:55:01
,wl-rdm,184,534251,0.0-8.67-0.67,1.0,185.0,,,,,,,[],,,,,,56.4,1.0,i,1.0,True,1113.5999999940395,67.0,61.0,40.0,False,,334.1328386748745,[],"[800, 450]",ColorTask,68.0,68.0,,,HRV,HRV_0155,2022-11-30 18:55:01
,wl-rdm,185,536781,0.0-8.68-0.68,1.0,186.0,,,,,,,[],,,,,,53.2,0.0,u,0.0,True,1236.5000000298023,75.0,61.0,40.0,False,,204.1320790689889,[],"[800, 450]",ColorTask,69.0,69.0,,,HRV,HRV_0155,2022-11-30 18:55:01
,wl-rdm,186,539363,0.0-8.69-0.69,1.0,187.0,,,,,,,[],,,,,,62.5,0.0,u,0.0,True,1116.2999999821186,67.0,61.0,40.0,False,,396.02803961010716,[],"[800, 450]",ColorTask,70.0,70.0,,,HRV,HRV_0155,2022-11-30 18:55:01
,wl-rdm,187,541692,0.0-8.70-0.70,1.0,188.0,,,,,,,[],,,,,,87.9,0.0,u,0.0,True,981.0,59.0,61.0,40.0,False,,268.2105053781037,[],"[800, 450]",ColorTask,71.0,71.0,,,HRV,HRV_0155,2022-11-30 18:55:01
,wl-rdm,188,544107,0.0-8.71-0.71,1.0,189.0,,,,,,,[],,,,,,62.5,0.0,u,0.0,True,981.5999999940395,59.0,61.0,40.0,False,,379.18829914771425,[],"[800, 450]",ColorTask,72.0,72.0,,,HRV,HRV_0155,2022-11-30 18:55:01
,wl-rdm,189,546619,0.0-8.72-0.72,1.0,190.0,,,,,,,[],,,,,,56.4,0.0,u,0.0,True,1204.4000000059605,73.0,61.0,40.0,False,,228.69345552747026,[],"[800, 450]",ColorTask,73.0,73.0,,,HRV,HRV_0155,2022-11-30 18:55:01
,wl-rdm,190,549052,0.0-8.73-0.73,1.0,191.0,,,,,,,[],,,,,,50.0,0.0,u,0.0,True,1119.9999999701977,68.0,61.0,40.0,False,,220.73242687903246,[],"[800, 450]",ColorTask,74.0,74.0,,,HRV,HRV_0155,2022-11-30 18:55:01
,wl-rdm,191,551282,0.0-8.74-0.74,1.0,192.0,,,,,,,[],,,,,,87.9,1.0,i,1.0,True,853.2999999821186,52.0,61.0,40.0,False,,286.3242061347737,[],"[800, 450]",ColorTask,75.0,75.0,,,HRV,HRV_0155,2022-11-30 18:55:01
,wl-rdm,192,553945,0.0-8.75-0.75,1.0,193.0,,,,,,,[],,,,,,62.5,1.0,i,1.0,True,1319.199999988079,80.0,61.0,40.0,False,,256.739791469134,[],"[800, 450]",ColorTask,76.0,76.0,,,HRV,HRV_0155,2022-11-30 18:55:01
,wl-rdm,193,556226,0.0-8.76-0.76,1.0,194.0,,,,,,,[],,,,,,87.9,0.0,u,0.0,True,991.8999999761581,60.0,61.0,40.0,False,,200.3692555031134,[],"[800, 450]",ColorTask,77.0,77.0,,,HRV,HRV_0155,2022-11-30 18:55:01
,wl-rdm,194,558572,0.0-8.77-0.77,1.0,195.0,,,,,,,[],,,,,,62.5,1.0,i,1.0,True,870.2999999821186,53.0,61.0,40.0,False,,395.1181349613681,[],"[800, 450]",ColorTask,78.0,78.0,,,HRV,HRV_0155,2022-11-30 18:55:01
,wl-rdm,195,561086,0.0-8.78-0.78,1.0,196.0,,,,,,,[],,,,,,50.0,1.0,i,1.0,True,1185.6000000238419,72.0,61.0,40.0,False,,237.8143322512615,[],"[800, 450]",ColorTask,79.0,79.0,,,HRV,HRV_0155,2022-11-30 18:55:01
,wl-rdm,196,563584,0.0-8.79-0.79,1.0,197.0,,,,,,,[],,,,,,62.5,0.0,u,0.0,True,1195.699999988079,72.0,61.0,40.0,False,,223.70976109308307,[],"[800, 450]",ColorTask,80.0,80.0,,,HRV,HRV_0155,2022-11-30 18:55:01
,wl-rdm,197,565965,0.0-8.80-0.80,1.0,198.0,,,,,,,[],,,,,,62.5,0.0,u,0.0,True,1033.9000000059605,62.0,61.0,40.0,False,,269.89159196074473,[],"[800, 450]",ColorTask,81.0,81.0,,,HRV,HRV_0155,2022-11-30 18:55:01
,wl-rdm,198,568994,0.0-8.81-0.81,1.0,199.0,,,,,,,[],,,,,,73.6,0.0,i,1.0,False,1725.9000000357628,104.0,61.0,40.0,False,,217.37788352599335,[],"[800, 450]",ColorTask,80.0,82.0,,,HRV,HRV_0155,2022-11-30 18:55:01
,wl-rdm,199,571125,0.0-8.82-0.82,1.0,200.0,,,,,,,[],,,,,,53.2,0.0,u,0.0,True,683.7000000178814,42.0,61.0,40.0,False,,369.269555788313,[],"[800, 450]",ColorTask,81.0,83.0,,,HRV,HRV_0155,2022-11-30 18:55:01
,wl-rdm,200,573638,0.0-8.83-0.83,1.0,201.0,,,,,,,[],,,,,,62.5,1.0,u,0.0,False,1202.2999999821186,73.0,61.0,40.0,False,,225.04791280149723,[],"[800, 450]",ColorTask,80.0,84.0,,,HRV,HRV_0155,2022-11-30 18:55:01
,wl-rdm,201,575553,0.0-8.84-0.84,1.0,202.0,,,,,,,[],,,,,,56.4,1.0,i,1.0,True,586.6999999880791,36.0,61.0,40.0,False,,247.08485369055558,[],"[800, 450]",ColorTask,81.0,85.0,,,HRV,HRV_0155,2022-11-30 18:55:01
,wl-rdm,202,577585,0.0-8.85-0.85,1.0,203.0,,,,,,,[],,,,,,87.9,0.0,u,0.0,True,761.0999999940395,46.0,61.0,40.0,False,,208.15995763684944,[],"[800, 450]",ColorTask,82.0,86.0,,,HRV,HRV_0155,2022-11-30 18:55:01
,wl-rdm,203,579716,0.0-8.86-0.86,1.0,204.0,,,,,,,[],,,,,,62.5,1.0,i,1.0,True,805.9999999701977,49.0,61.0,40.0,False,,229.31737669729802,[],"[800, 450]",ColorTask,83.0,87.0,,,HRV,HRV_0155,2022-11-30 18:55:01
,wl-rdm,204,581913,0.0-8.87-0.87,1.0,205.0,,,,,,,[],,,,,,62.5,1.0,i,1.0,True,789.0999999940395,48.0,61.0,40.0,False,,340.3910105097006,[],"[800, 450]",ColorTask,84.0,88.0,,,HRV,HRV_0155,2022-11-30 18:55:01
,wl-rdm,205,584011,0.0-8.88-0.88,1.0,206.0,,,,,,,[],,,,,,62.5,0.0,i,1.0,False,772.9000000059605,47.0,61.0,40.0,False,,234.63852410623053,[],"[800, 450]",ColorTask,83.0,89.0,,,HRV,HRV_0155,2022-11-30 18:55:01
,wl-rdm,206,586458,0.0-8.89-0.89,1.0,207.0,,,,,,,[],,,,,,50.0,1.0,u,0.0,False,1141.0,69.0,61.0,40.0,False,,220.05607215177605,[],"[800, 450]",ColorTask,82.0,90.0,,,HRV,HRV_0155,2022-11-30 18:55:01
,wl-rdm,207,588971,0.0-8.90-0.90,1.0,208.0,,,,,,,[],,,,,,50.0,0.0,i,1.0,False,1106.9999999701977,67.0,61.0,40.0,False,,333.41341508453104,[],"[800, 450]",ColorTask,81.0,91.0,,,HRV,HRV_0155,2022-11-30 18:55:01
,wl-rdm,208,591584,0.0-8.91-0.91,1.0,209.0,,,,,,,[],,,,,,56.4,0.0,u,0.0,True,1251.0,76.0,61.0,40.0,False,,269.24152965692804,[],"[800, 450]",ColorTask,82.0,92.0,,,HRV,HRV_0155,2022-11-30 18:55:01
,wl-rdm,209,594165,0.0-8.92-0.92,1.0,210.0,,,,,,,[],,,,,,53.2,0.0,u,0.0,True,1126.5,68.0,61.0,40.0,False,,382.7111915490798,[],"[800, 450]",ColorTask,83.0,93.0,,,HRV,HRV_0155,2022-11-30 18:55:01
,wl-rdm,210,596729,0.0-8.93-0.93,1.0,211.0,,,,,,,[],,,,,,56.4,1.0,u,0.0,False,1276.3000000417233,77.0,61.0,40.0,False,,201.1541116197935,[],"[800, 450]",ColorTask,82.0,94.0,,,HRV,HRV_0155,2022-11-30 18:55:01
,wl-rdm,211,599308,0.0-8.94-0.94,1.0,212.0,,,,,,,[],,,,,,53.2,1.0,i,1.0,True,1143.0999999940395,69.0,61.0,40.0,False,,352.66753084794857,[],"[800, 450]",ColorTask,83.0,95.0,,,HRV,HRV_0155,2022-11-30 18:55:01
,wl-rdm,212,602172,0.0-8.95-0.95,1.0,213.0,,,,,,,[],,,,,,50.0,0.0,i,1.0,False,1407.5,85.0,61.0,40.0,False,,374.1610316801824,[],"[800, 450]",ColorTask,82.0,96.0,,,HRV,HRV_0155,2022-11-30 18:55:01
,wl-rdm,213,604835,0.0-8.96-0.96,1.0,214.0,,,,,,,[],,,,,,73.6,0.0,u,0.0,True,1372.7999999821186,83.0,61.0,40.0,False,,207.0087358027992,[],"[800, 450]",ColorTask,83.0,97.0,,,HRV,HRV_0155,2022-11-30 18:55:01
,wl-rdm,214,607916,0.0-8.97-0.97,1.0,215.0,,,,,,,[],,,,,,56.4,1.0,u,0.0,False,1739.5999999940395,105.0,61.0,40.0,False,,249.94247308249606,[],"[800, 450]",ColorTask,82.0,98.0,,,HRV,HRV_0155,2022-11-30 18:55:01
,wl-rdm,215,610096,0.0-8.98-0.98,1.0,216.0,,,,,,,[],,,,,,73.6,1.0,i,1.0,True,758.3999999761581,46.0,61.0,40.0,False,,340.7912748256542,[],"[800, 450]",ColorTask,83.0,99.0,,,HRV,HRV_0155,2022-11-30 18:55:01
,wl-rdm,216,612493,0.0-8.99-0.99,1.0,217.0,,,,,,,[],,,,,,73.6,1.0,i,1.0,True,1044.300000011921,63.0,61.0,40.0,False,,280.5501416096569,[],"[800, 450]",ColorTask,84.0,100.0,,,HRV,HRV_0155,2022-11-30 18:55:01
,wl-rdm,217,615556,0.0-8.100-0.100,1.0,218.0,,,,,,,[],,,,,,62.5,0.0,u,0.0,True,1757.3999999761581,106.0,61.0,40.0,False,,223.4151166723499,[],"[800, 450]",ColorTask,85.0,101.0,,,HRV,HRV_0155,2022-11-30 18:55:01
,wl-rdm,218,618020,0.0-8.101-0.101,1.0,219.0,,,,,,,[],,,,,,73.6,1.0,i,1.0,True,1111.0,67.0,61.0,40.0,False,,282.4283318776769,[],"[800, 450]",ColorTask,86.0,102.0,,,HRV,HRV_0155,2022-11-30 18:55:01
,wl-rdm,219,620667,0.0-8.102-0.102,1.0,220.0,,,,,,,[],,,,,,56.4,1.0,i,1.0,True,1235.0999999940395,75.0,61.0,40.0,False,,316.88264467593774,[],"[800, 450]",ColorTask,87.0,103.0,,,HRV,HRV_0155,2022-11-30 18:55:01
,wl-rdm,220,623315,0.0-8.103-0.103,1.0,221.0,,,,,,,[],,,,,,56.4,0.0,u,0.0,True,1286.0,78.0,61.0,40.0,False,,283.162758917716,[],"[800, 450]",ColorTask,88.0,104.0,,,HRV,HRV_0155,2022-11-30 18:55:01
,wl-rdm,221,625595,0.0-8.104-0.104,1.0,222.0,,,,,,,[],,,,,,87.9,0.0,u,0.0,True,827.1999999880791,50.0,61.0,40.0,False,,372.44145898874865,[],"[800, 450]",ColorTask,89.0,105.0,,,HRV,HRV_0155,2022-11-30 18:55:01
,wl-rdm,222,628258,0.0-8.105-0.105,1.0,223.0,,,,,,,[],,,,,,53.2,0.0,i,1.0,False,1252.3999999761581,76.0,61.0,40.0,False,,322.56375353510487,[],"[800, 450]",ColorTask,88.0,106.0,,,HRV,HRV_0155,2022-11-30 18:55:01
,wl-rdm,223,630373,0.0-8.106-0.106,1.0,224.0,,,,,,,[],,,,,,87.9,1.0,i,1.0,True,792.5999999940395,48.0,61.0,40.0,False,,255.66063967752504,[],"[800, 450]",ColorTask,89.0,107.0,,,HRV,HRV_0155,2022-11-30 18:55:01
,wl-rdm,224,632737,0.0-8.107-0.107,1.0,225.0,,,,,,,[],,,,,,73.6,0.0,u,0.0,True,978.5999999940395,59.0,61.0,40.0,False,,312.3103394845012,[],"[800, 450]",ColorTask,90.0,108.0,,,HRV,HRV_0155,2022-11-30 18:55:01
,wl-html-button-response,225,635831,0.0-9.0-0.0,,,,,,,,,,3084.5999999940395,,0,,,,,,,,,,,,,,,,,,,,<h3>End of this session. Thank you!</h3><br>,['Close window'],HRV,HRV_0155,2022-11-30 18:55:01
