trialN,stimuli,trialStartTime,trialStartTime_UNIX,stimulus1,stimulus2,stimulus1Bid,stimulus2Bid,delta,selected,rt,rt_UNIX,rt_perfnow,receivedResponse,rsp,trialEndTime,trialDuration,trialEndTime_UNIX,trialDuration_UNIX,exp,subjectId,date
0,"[{'imgObject': {}, 'id': 'pear', 'src': '/static/foodstim60/pear.jpg', 'key': 'u', 'origWidth': 411, 'origHeight': 410, 'width': 411, 'height': 410, 'widthPercent': 0.45, 'rescaleHeight': False, 'trialN': 0, 'loaded': True, 'loadedTime': 2857.4000000059605, 'positionName': 'LEFT', 'positionCoords': [357, 245], 'bid': 6.57}, {'imgObject': {}, 'id': 'cantaloupe', 'src': '/static/foodstim60/cantaloupe.jpg', 'key': 'i', 'origWidth': 409, 'origHeight': 409, 'width': 409, 'height': 409, 'widthPercent': 0.45, 'rescaleHeight': False, 'trialN': 0, 'loaded': True, 'loadedTime': 2981.199999988079, 'positionName': 'RIGHT', 'positionCoords': [832, 245.5], 'bid': 7.32}]",3511.5,1669833526379,pear,cantaloupe,6.57,7.32,0.75,pear,2841.0999999940395,2846,2844.9000000059605,True,u,6864.300000011921,3352.800000011921,1669833529732,3353,HRV,HRV_0155,2022-11-30 18:43:44
1,"[{'imgObject': {}, 'id': 'mango', 'src': '/static/foodstim60/mango.jpg', 'key': 'u', 'origWidth': 411, 'origHeight': 411, 'width': 411, 'height': 411, 'widthPercent': 0.45, 'rescaleHeight': False, 'trialN': 1, 'loaded': True, 'loadedTime': 2987, 'positionName': 'LEFT', 'positionCoords': [357, 244.5], 'bid': 6.18}, {'imgObject': {}, 'id': 'fried eggs', 'src': '/static/foodstim60/fried eggs.jpg', 'key': 'i', 'origWidth': 410, 'origHeight': 410, 'width': 410, 'height': 410, 'widthPercent': 0.45, 'rescaleHeight': False, 'trialN': 1, 'loaded': True, 'loadedTime': 2995, 'positionName': 'RIGHT', 'positionCoords': [832, 245], 'bid': 5.1000000000000005}]",6865.5,1669833529733,mango,fried eggs,6.18,5.1000000000000005,-1.0799999999999992,mango,1252.0,1253,1253.0999999940395,True,u,8637.800000011921,1772.300000011921,1669833531505,1772,HRV,HRV_0155,2022-11-30 18:43:44
2,"[{'imgObject': {}, 'id': 'raspberries', 'src': '/static/foodstim60/raspberries.jpg', 'key': 'u', 'origWidth': 411, 'origHeight': 411, 'width': 411, 'height': 411, 'widthPercent': 0.45, 'rescaleHeight': False, 'trialN': 2, 'loaded': True, 'loadedTime': 3000.300000011921, 'positionName': 'LEFT', 'positionCoords': [357, 244.5], 'bid': 7.18}, {'imgObject': {}, 'id': 'steak', 'src': '/static/foodstim60/steak.jpg', 'key': 'i', 'origWidth': 410, 'origHeight': 410, 'width': 410, 'height': 410, 'widthPercent': 0.45, 'rescaleHeight': False, 'trialN': 2, 'loaded': True, 'loadedTime': 3003.0999999940395, 'positionName': 'RIGHT', 'positionCoords': [832, 245], 'bid': 7.51}]",8638.59999999404,1669833531506,raspberries,steak,7.18,7.51,0.33000000000000007,raspberries,774.5,775,775.4000000059605,True,u,9920.09999999404,1281.5,1669833532787,1281,HRV,HRV_0155,2022-11-30 18:43:44
3,"[{'imgObject': {}, 'id': 'omelette', 'src': '/static/foodstim60/omelette.jpg', 'key': 'u', 'origWidth': 410, 'origHeight': 409, 'width': 410, 'height': 409, 'widthPercent': 0.45, 'rescaleHeight': False, 'trialN': 3, 'loaded': True, 'loadedTime': 3005.0999999940395, 'positionName': 'LEFT', 'positionCoords': [358, 245.5], 'bid': 6.88}, {'imgObject': {}, 'id': 'veggieswithdip', 'src': '/static/foodstim60/veggieswithdip.jpg', 'key': 'i', 'origWidth': 409, 'origHeight': 409, 'width': 409, 'height': 409, 'widthPercent': 0.45, 'rescaleHeight': False, 'trialN': 3, 'loaded': True, 'loadedTime': 3007.300000011921, 'positionName': 'RIGHT', 'positionCoords': [832, 245.5], 'bid': 7.16}]",9920.59999999404,1669833532788,omelette,veggieswithdip,6.88,7.16,0.28000000000000025,veggieswithdip,1113.5,1114,1114.0,True,i,11542.699999988079,1622.0999999940395,1669833534410,1622,HRV,HRV_0155,2022-11-30 18:43:44
4,"[{'imgObject': {}, 'id': 'fruitsalad', 'src': '/static/foodstim60/fruitsalad.jpg', 'key': 'u', 'origWidth': 410, 'origHeight': 410, 'width': 410, 'height': 410, 'widthPercent': 0.45, 'rescaleHeight': False, 'trialN': 4, 'loaded': True, 'loadedTime': 3010.199999988079, 'positionName': 'LEFT', 'positionCoords': [358, 245], 'bid': 7.58}, {'imgObject': {}, 'id': 'chickenfingers', 'src': '/static/foodstim60/chickenfingers.jpg', 'key': 'i', 'origWidth': 410, 'origHeight': 410, 'width': 410, 'height': 410, 'widthPercent': 0.45, 'rescaleHeight': False, 'trialN': 4, 'loaded': True, 'loadedTime': 3021.300000011921, 'positionName': 'RIGHT', 'positionCoords': [832, 245], 'bid': 6.71}]",11543.40000000596,1669833534411,fruitsalad,chickenfingers,7.58,6.71,-0.8700000000000001,fruitsalad,1545.2999999821186,1546,1546.2999999821186,True,u,13603.09999999404,2059.699999988079,1669833536471,2060,HRV,HRV_0155,2022-11-30 18:43:44
5,"[{'imgObject': {}, 'id': 'olives', 'src': '/static/foodstim60/olives.jpg', 'key': 'u', 'origWidth': 410, 'origHeight': 410, 'width': 410, 'height': 410, 'widthPercent': 0.45, 'rescaleHeight': False, 'trialN': 5, 'loaded': True, 'loadedTime': 3100.199999988079, 'positionName': 'LEFT', 'positionCoords': [358, 245], 'bid': 7.31}, {'imgObject': {}, 'id': 'omelette', 'src': '/static/foodstim60/omelette.jpg', 'key': 'i', 'origWidth': 410, 'origHeight': 409, 'width': 410, 'height': 409, 'widthPercent': 0.45, 'rescaleHeight': False, 'trialN': 5, 'loaded': True, 'loadedTime': 3004.5, 'positionName': 'RIGHT', 'positionCoords': [832, 245.5], 'bid': 6.88}]",13603.699999988079,1669833536471,olives,omelette,7.31,6.88,-0.4299999999999997,olives,693.2000000178814,694,693.7000000178814,True,u,14814.300000011921,1210.6000000238419,1669833537682,1211,HRV,HRV_0155,2022-11-30 18:43:44
6,"[{'imgObject': {}, 'id': 'rigatoni', 'src': '/static/foodstim60/rigatoni.jpg', 'key': 'u', 'origWidth': 411, 'origHeight': 411, 'width': 411, 'height': 411, 'widthPercent': 0.45, 'rescaleHeight': False, 'trialN': 6, 'loaded': True, 'loadedTime': 3121, 'positionName': 'LEFT', 'positionCoords': [357, 244.5], 'bid': 1.72}, {'imgObject': {}, 'id': 'Tribe humus pita', 'src': '/static/foodstim60/Tribe humus pita.jpg', 'key': 'i', 'origWidth': 411, 'origHeight': 411, 'width': 411, 'height': 411, 'widthPercent': 0.45, 'rescaleHeight': False, 'trialN': 6, 'loaded': True, 'loadedTime': 3143.699999988079, 'positionName': 'RIGHT', 'positionCoords': [832, 244.5], 'bid': 6.51}]",14814.59999999404,1669833537682,rigatoni,Tribe humus pita,1.72,6.51,4.79,Tribe humus pita,920.9000000059605,922,921.8000000119209,True,i,16245.699999988079,1431.0999999940395,1669833539113,1431,HRV,HRV_0155,2022-11-30 18:43:44
7,"[{'imgObject': {}, 'id': 'roastedpotatoes', 'src': '/static/foodstim60/roastedpotatoes.jpg', 'key': 'u', 'origWidth': 409, 'origHeight': 410, 'width': 409, 'height': 410, 'widthPercent': 0.45, 'rescaleHeight': False, 'trialN': 7, 'loaded': True, 'loadedTime': 3148.9000000059605, 'positionName': 'LEFT', 'positionCoords': [359, 245], 'bid': 6.22}, {'imgObject': {}, 'id': 'raspberries', 'src': '/static/foodstim60/raspberries.jpg', 'key': 'i', 'origWidth': 411, 'origHeight': 411, 'width': 411, 'height': 411, 'widthPercent': 0.45, 'rescaleHeight': False, 'trialN': 7, 'loaded': True, 'loadedTime': 2995.5, 'positionName': 'RIGHT', 'positionCoords': [832, 244.5], 'bid': 7.18}]",16246.300000011921,1669833539114,roastedpotatoes,raspberries,6.22,7.18,0.96,raspberries,838.2999999821186,839,839.2999999821186,True,i,17602.09999999404,1355.7999999821186,1669833540469,1355,HRV,HRV_0155,2022-11-30 18:43:44
8,"[{'imgObject': {}, 'id': 'ice cream sundae 002', 'src': '/static/foodstim60/ice cream sundae 002.jpg', 'key': 'u', 'origWidth': 409, 'origHeight': 409, 'width': 409, 'height': 409, 'widthPercent': 0.45, 'rescaleHeight': False, 'trialN': 8, 'loaded': True, 'loadedTime': 3154.300000011921, 'positionName': 'LEFT', 'positionCoords': [359, 245.5], 'bid': 7.91}, {'imgObject': {}, 'id': 'cheerios', 'src': '/static/foodstim60/cheerios.jpg', 'key': 'i', 'origWidth': 409, 'origHeight': 410, 'width': 409, 'height': 410, 'widthPercent': 0.45, 'rescaleHeight': False, 'trialN': 8, 'loaded': True, 'loadedTime': 3155.9000000059605, 'positionName': 'RIGHT', 'positionCoords': [832, 245], 'bid': 5.3100000000000005}]",17602.59999999404,1669833540470,ice cream sundae 002,cheerios,7.91,5.3100000000000005,-2.5999999999999996,ice cream sundae 002,1249.300000011921,1250,1250.4000000059605,True,u,19363.5,1760.9000000059605,1669833542231,1761,HRV,HRV_0155,2022-11-30 18:43:44
9,"[{'imgObject': {}, 'id': 'cheerios', 'src': '/static/foodstim60/cheerios.jpg', 'key': 'u', 'origWidth': 409, 'origHeight': 410, 'width': 409, 'height': 410, 'widthPercent': 0.45, 'rescaleHeight': False, 'trialN': 9, 'loaded': True, 'loadedTime': 3166.300000011921, 'positionName': 'LEFT', 'positionCoords': [359, 245], 'bid': 5.3100000000000005}, {'imgObject': {}, 'id': 'roastedpotatoes', 'src': '/static/foodstim60/roastedpotatoes.jpg', 'key': 'i', 'origWidth': 409, 'origHeight': 410, 'width': 409, 'height': 410, 'widthPercent': 0.45, 'rescaleHeight': False, 'trialN': 9, 'loaded': True, 'loadedTime': 3144.699999988079, 'positionName': 'RIGHT', 'positionCoords': [832, 245], 'bid': 6.22}]",19364.0,1669833542231,cheerios,roastedpotatoes,5.3100000000000005,6.22,0.9099999999999993,roastedpotatoes,1075.699999988079,1077,1076.300000011921,True,i,20957.90000000596,1593.9000000059605,1669833543825,1594,HRV,HRV_0155,2022-11-30 18:43:44
10,"[{'imgObject': {}, 'id': 'eggs', 'src': '/static/foodstim60/eggs.jpg', 'key': 'u', 'origWidth': 409, 'origHeight': 409, 'width': 409, 'height': 409, 'widthPercent': 0.45, 'rescaleHeight': False, 'trialN': 10, 'loaded': True, 'loadedTime': 3169.9000000059605, 'positionName': 'LEFT', 'positionCoords': [359, 245.5], 'bid': 4.05}, {'imgObject': {}, 'id': 'salad w chicken', 'src': '/static/foodstim60/salad w chicken.jpg', 'key': 'i', 'origWidth': 411, 'origHeight': 411, 'width': 411, 'height': 411, 'widthPercent': 0.45, 'rescaleHeight': False, 'trialN': 10, 'loaded': True, 'loadedTime': 3215.5, 'positionName': 'RIGHT', 'positionCoords': [832, 244.5], 'bid': 5.71}]",20958.69999998808,1669833543826,eggs,salad w chicken,4.05,5.71,1.6600000000000001,salad w chicken,1063.300000011921,1064,1064.4000000059605,True,i,22524.5,1565.800000011921,1669833545392,1566,HRV,HRV_0155,2022-11-30 18:43:44
11,"[{'imgObject': {}, 'id': 'hotdog w must', 'src': '/static/foodstim60/hotdog w must.jpg', 'key': 'u', 'origWidth': 409, 'origHeight': 409, 'width': 409, 'height': 409, 'widthPercent': 0.45, 'rescaleHeight': False, 'trialN': 11, 'loaded': True, 'loadedTime': 3217.800000011921, 'positionName': 'LEFT', 'positionCoords': [359, 245.5], 'bid': 3.71}, {'imgObject': {}, 'id': 'corn cob', 'src': '/static/foodstim60/corn cob.jpg', 'key': 'i', 'origWidth': 411, 'origHeight': 411, 'width': 411, 'height': 411, 'widthPercent': 0.45, 'rescaleHeight': False, 'trialN': 11, 'loaded': True, 'loadedTime': 3223.800000011921, 'positionName': 'RIGHT', 'positionCoords': [832, 244.5], 'bid': 0.62}]",22525.09999999404,1669833545393,hotdog w must,corn cob,3.71,0.62,-3.09,hotdog w must,1155.0,1155,1155.5999999940395,True,u,24187.30000001192,1662.2000000178814,1669833547055,1662,HRV,HRV_0155,2022-11-30 18:43:44
12,"[{'imgObject': {}, 'id': 'pear', 'src': '/static/foodstim60/pear.jpg', 'key': 'u', 'origWidth': 411, 'origHeight': 410, 'width': 411, 'height': 410, 'widthPercent': 0.45, 'rescaleHeight': False, 'trialN': 12, 'loaded': True, 'loadedTime': 2898.4000000059605, 'positionName': 'LEFT', 'positionCoords': [357, 245], 'bid': 6.57}, {'imgObject': {}, 'id': 'Tribe humus pita', 'src': '/static/foodstim60/Tribe humus pita.jpg', 'key': 'i', 'origWidth': 411, 'origHeight': 411, 'width': 411, 'height': 411, 'widthPercent': 0.45, 'rescaleHeight': False, 'trialN': 12, 'loaded': True, 'loadedTime': 3144.300000011921, 'positionName': 'RIGHT', 'positionCoords': [832, 244.5], 'bid': 6.51}]",24188.0,1669833547055,pear,Tribe humus pita,6.57,6.51,-0.0600000000000005,Tribe humus pita,1057.0,1058,1057.5999999940395,True,i,25761.30000001192,1573.300000011921,1669833548629,1574,HRV,HRV_0155,2022-11-30 18:43:44
13,"[{'imgObject': {}, 'id': 'popsicles', 'src': '/static/foodstim60/popsicles.jpg', 'key': 'u', 'origWidth': 410, 'origHeight': 410, 'width': 410, 'height': 410, 'widthPercent': 0.45, 'rescaleHeight': False, 'trialN': 13, 'loaded': True, 'loadedTime': 3440.0999999940395, 'positionName': 'LEFT', 'positionCoords': [358, 245], 'bid': 7.98}, {'imgObject': {}, 'id': 'blueberries', 'src': '/static/foodstim60/blueberries.jpg', 'key': 'i', 'origWidth': 411, 'origHeight': 411, 'width': 411, 'height': 411, 'widthPercent': 0.45, 'rescaleHeight': False, 'trialN': 13, 'loaded': True, 'loadedTime': 3240.300000011921, 'positionName': 'RIGHT', 'positionCoords': [832, 244.5], 'bid': 7.47}]",25762.0,1669833548629,popsicles,blueberries,7.98,7.47,-0.5100000000000007,blueberries,844.5999999940395,846,845.5,True,i,27126.59999999404,1364.5999999940395,1669833549994,1365,HRV,HRV_0155,2022-11-30 18:43:44
14,"[{'imgObject': {}, 'id': 'chicken nuggets2', 'src': '/static/foodstim60/chicken nuggets2.jpg', 'key': 'u', 'origWidth': 410, 'origHeight': 409, 'width': 410, 'height': 409, 'widthPercent': 0.45, 'rescaleHeight': False, 'trialN': 14, 'loaded': True, 'loadedTime': 3258.4000000059605, 'positionName': 'LEFT', 'positionCoords': [358, 245.5], 'bid': 0.32}, {'imgObject': {}, 'id': 'cherry tomato', 'src': '/static/foodstim60/cherry tomato.jpg', 'key': 'i', 'origWidth': 410, 'origHeight': 410, 'width': 410, 'height': 410, 'widthPercent': 0.45, 'rescaleHeight': False, 'trialN': 14, 'loaded': True, 'loadedTime': 3267.4000000059605, 'positionName': 'RIGHT', 'positionCoords': [832, 245], 'bid': 1.95}]",27126.90000000596,1669833549994,chicken nuggets2,cherry tomato,0.32,1.95,1.63,chicken nuggets2,1355.699999988079,1357,1356.7999999821186,True,u,28995.40000000596,1868.5,1669833551863,1869,HRV,HRV_0155,2022-11-30 18:43:44
15,"[{'imgObject': {}, 'id': 'rigatoni and sauce', 'src': '/static/foodstim60/rigatoni and sauce.jpg', 'key': 'u', 'origWidth': 410, 'origHeight': 411, 'width': 410, 'height': 411, 'widthPercent': 0.45, 'rescaleHeight': False, 'trialN': 15, 'loaded': True, 'loadedTime': 3289.5, 'positionName': 'LEFT', 'positionCoords': [358, 244.5], 'bid': 1.13}, {'imgObject': {}, 'id': 'lox', 'src': '/static/foodstim60/lox.jpg', 'key': 'i', 'origWidth': 410, 'origHeight': 411, 'width': 410, 'height': 411, 'widthPercent': 0.45, 'rescaleHeight': False, 'trialN': 15, 'loaded': True, 'loadedTime': 3298.0999999940395, 'positionName': 'RIGHT', 'positionCoords': [832, 244.5], 'bid': 4.0600000000000005}]",28996.30000001192,1669833551864,rigatoni and sauce,lox,1.13,4.0600000000000005,2.9300000000000006,rigatoni and sauce,1388.0,1389,1389.199999988079,True,u,30895.5,1899.199999988079,1669833553763,1899,HRV,HRV_0155,2022-11-30 18:43:44
16,"[{'imgObject': {}, 'id': 'banana', 'src': '/static/foodstim60/banana.jpg', 'key': 'u', 'origWidth': 410, 'origHeight': 410, 'width': 410, 'height': 410, 'widthPercent': 0.45, 'rescaleHeight': False, 'trialN': 16, 'loaded': True, 'loadedTime': 3302.4000000059605, 'positionName': 'LEFT', 'positionCoords': [358, 245], 'bid': 7.13}, {'imgObject': {}, 'id': 'veggieswithdip', 'src': '/static/foodstim60/veggieswithdip.jpg', 'key': 'i', 'origWidth': 409, 'origHeight': 409, 'width': 409, 'height': 409, 'widthPercent': 0.45, 'rescaleHeight': False, 'trialN': 16, 'loaded': True, 'loadedTime': 3006.9000000059605, 'positionName': 'RIGHT', 'positionCoords': [832, 245.5], 'bid': 7.16}]",30895.80000001192,1669833553763,banana,veggieswithdip,7.13,7.16,0.03000000000000025,veggieswithdip,916.3999999761581,918,917.3999999761581,True,i,32328.0,1432.199999988079,1669833555195,1432,HRV,HRV_0155,2022-11-30 18:43:44
17,"[{'imgObject': {}, 'id': 'hashbrowns', 'src': '/static/foodstim60/hashbrowns.jpg', 'key': 'u', 'origWidth': 411, 'origHeight': 410, 'width': 411, 'height': 410, 'widthPercent': 0.45, 'rescaleHeight': False, 'trialN': 17, 'loaded': True, 'loadedTime': 3303.699999988079, 'positionName': 'LEFT', 'positionCoords': [357, 245], 'bid': 4.89}, {'imgObject': {}, 'id': 'cherry tomato', 'src': '/static/foodstim60/cherry tomato.jpg', 'key': 'i', 'origWidth': 410, 'origHeight': 410, 'width': 410, 'height': 410, 'widthPercent': 0.45, 'rescaleHeight': False, 'trialN': 17, 'loaded': True, 'loadedTime': 3264.300000011921, 'positionName': 'RIGHT', 'positionCoords': [832, 245], 'bid': 1.95}]",32328.59999999404,1669833555196,hashbrowns,cherry tomato,4.89,1.95,-2.9399999999999995,hashbrowns,1670.5999999940395,1672,1672.300000011921,True,u,34510.0,2181.4000000059605,1669833557377,2181,HRV,HRV_0155,2022-11-30 18:43:44
18,"[{'imgObject': {}, 'id': 'cocktailshrimp', 'src': '/static/foodstim60/cocktailshrimp.jpg', 'key': 'u', 'origWidth': 410, 'origHeight': 410, 'width': 410, 'height': 410, 'widthPercent': 0.45, 'rescaleHeight': False, 'trialN': 18, 'loaded': True, 'loadedTime': 3309.699999988079, 'positionName': 'LEFT', 'positionCoords': [358, 245], 'bid': 5.21}, {'imgObject': {}, 'id': 'turkey sandwich', 'src': '/static/foodstim60/turkey sandwich.jpg', 'key': 'i', 'origWidth': 409, 'origHeight': 409, 'width': 409, 'height': 409, 'widthPercent': 0.45, 'rescaleHeight': False, 'trialN': 18, 'loaded': True, 'loadedTime': 2925.199999988079, 'positionName': 'RIGHT', 'positionCoords': [832, 245.5], 'bid': 5.25}]",34510.59999999404,1669833557378,cocktailshrimp,turkey sandwich,5.21,5.25,0.040000000000000036,turkey sandwich,1458.300000011921,1460,1459.5999999940395,True,i,36472.90000000596,1962.300000011921,1669833559340,1962,HRV,HRV_0155,2022-11-30 18:43:44
19,"[{'imgObject': {}, 'id': 'orange slices', 'src': '/static/foodstim60/orange slices.jpg', 'key': 'u', 'origWidth': 409, 'origHeight': 410, 'width': 409, 'height': 410, 'widthPercent': 0.45, 'rescaleHeight': False, 'trialN': 19, 'loaded': True, 'loadedTime': 2977.4000000059605, 'positionName': 'LEFT', 'positionCoords': [359, 245], 'bid': 6.92}, {'imgObject': {}, 'id': 'chickenfingers', 'src': '/static/foodstim60/chickenfingers.jpg', 'key': 'i', 'origWidth': 410, 'origHeight': 410, 'width': 410, 'height': 410, 'widthPercent': 0.45, 'rescaleHeight': False, 'trialN': 19, 'loaded': True, 'loadedTime': 3023.199999988079, 'positionName': 'RIGHT', 'positionCoords': [832, 245], 'bid': 6.71}]",36473.69999998808,1669833559341,orange slices,chickenfingers,6.92,6.71,-0.20999999999999996,chickenfingers,1134.9000000059605,1136,1135.6000000238419,True,i,38119.69999998808,1646.0,1669833560987,1646,HRV,HRV_0155,2022-11-30 18:43:44
20,"[{'imgObject': {}, 'id': 'sushi w_condiments', 'src': '/static/foodstim60/sushi w_condiments.jpg', 'key': 'u', 'origWidth': 410, 'origHeight': 410, 'width': 410, 'height': 410, 'widthPercent': 0.45, 'rescaleHeight': False, 'trialN': 20, 'loaded': True, 'loadedTime': 2984, 'positionName': 'LEFT', 'positionCoords': [358, 245], 'bid': 5.01}, {'imgObject': {}, 'id': 'yogurt no spoon', 'src': '/static/foodstim60/yogurt no spoon.jpg', 'key': 'i', 'origWidth': 411, 'origHeight': 410, 'width': 411, 'height': 410, 'widthPercent': 0.45, 'rescaleHeight': False, 'trialN': 20, 'loaded': True, 'loadedTime': 3019.699999988079, 'positionName': 'RIGHT', 'positionCoords': [832, 245], 'bid': 4.95}]",38120.19999998808,1669833560988,sushi w_condiments,yogurt no spoon,5.01,4.95,-0.05999999999999961,yogurt no spoon,3270.300000011921,3271,3271.4000000059605,True,i,41901.30000001192,3781.100000023842,1669833564769,3781,HRV,HRV_0155,2022-11-30 18:43:44
21,"[{'imgObject': {}, 'id': 'salad w chicken', 'src': '/static/foodstim60/salad w chicken.jpg', 'key': 'u', 'origWidth': 411, 'origHeight': 411, 'width': 411, 'height': 411, 'widthPercent': 0.45, 'rescaleHeight': False, 'trialN': 21, 'loaded': True, 'loadedTime': 3209.5, 'positionName': 'LEFT', 'positionCoords': [357, 244.5], 'bid': 5.71}, {'imgObject': {}, 'id': 'bagel plain', 'src': '/static/foodstim60/bagel plain.jpg', 'key': 'i', 'origWidth': 410, 'origHeight': 410, 'width': 410, 'height': 410, 'widthPercent': 0.45, 'rescaleHeight': False, 'trialN': 21, 'loaded': True, 'loadedTime': 3068.0999999940395, 'positionName': 'RIGHT', 'positionCoords': [832, 245], 'bid': 6.63}]",41901.90000000596,1669833564769,salad w chicken,bagel plain,5.71,6.63,0.9199999999999999,bagel plain,1256.5999999940395,1258,1257.199999988079,True,i,43665.19999998808,1763.2999999821186,1669833566533,1764,HRV,HRV_0155,2022-11-30 18:43:44
22,"[{'imgObject': {}, 'id': 'strawberries', 'src': '/static/foodstim60/strawberries.jpg', 'key': 'u', 'origWidth': 410, 'origHeight': 410, 'width': 410, 'height': 410, 'widthPercent': 0.45, 'rescaleHeight': False, 'trialN': 22, 'loaded': True, 'loadedTime': 3076.4000000059605, 'positionName': 'LEFT', 'positionCoords': [358, 245], 'bid': 7.7}, {'imgObject': {}, 'id': 'sweetpotato', 'src': '/static/foodstim60/sweetpotato.jpg', 'key': 'i', 'origWidth': 410, 'origHeight': 410, 'width': 410, 'height': 410, 'widthPercent': 0.45, 'rescaleHeight': False, 'trialN': 22, 'loaded': True, 'loadedTime': 3251, 'positionName': 'RIGHT', 'positionCoords': [832, 245], 'bid': 7.22}]",43666.0,1669833566533,strawberries,sweetpotato,7.7,7.22,-0.4800000000000004,sweetpotato,961.1999999880791,963,962.5999999940395,True,i,45143.0,1477.0,1669833568010,1477,HRV,HRV_0155,2022-11-30 18:43:44
23,"[{'imgObject': {}, 'id': 'yogurt no spoon', 'src': '/static/foodstim60/yogurt no spoon.jpg', 'key': 'u', 'origWidth': 411, 'origHeight': 410, 'width': 411, 'height': 410, 'widthPercent': 0.45, 'rescaleHeight': False, 'trialN': 23, 'loaded': True, 'loadedTime': 3011.800000011921, 'positionName': 'LEFT', 'positionCoords': [357, 245], 'bid': 4.95}, {'imgObject': {}, 'id': 'blackbeanswithrice', 'src': '/static/foodstim60/blackbeanswithrice.jpg', 'key': 'i', 'origWidth': 410, 'origHeight': 410, 'width': 410, 'height': 410, 'widthPercent': 0.45, 'rescaleHeight': False, 'trialN': 23, 'loaded': True, 'loadedTime': 3259.5, 'positionName': 'RIGHT', 'positionCoords': [832, 245], 'bid': 4.67}]",45143.40000000596,1669833568011,yogurt no spoon,blackbeanswithrice,4.95,4.67,-0.28000000000000025,yogurt no spoon,1263.0999999940395,1264,1264.699999988079,True,u,46911.69999998808,1768.2999999821186,1669833569779,1768,HRV,HRV_0155,2022-11-30 18:43:44
24,"[{'imgObject': {}, 'id': 'blackbeanswithrice', 'src': '/static/foodstim60/blackbeanswithrice.jpg', 'key': 'u', 'origWidth': 410, 'origHeight': 410, 'width': 410, 'height': 410, 'widthPercent': 0.45, 'rescaleHeight': False, 'trialN': 24, 'loaded': True, 'loadedTime': 3262.300000011921, 'positionName': 'LEFT', 'positionCoords': [358, 245], 'bid': 4.67}, {'imgObject': {}, 'id': 'chicken nuggets2', 'src': '/static/foodstim60/chicken nuggets2.jpg', 'key': 'i', 'origWidth': 410, 'origHeight': 409, 'width': 410, 'height': 409, 'widthPercent': 0.45, 'rescaleHeight': False, 'trialN': 24, 'loaded': True, 'loadedTime': 3251.4000000059605, 'positionName': 'RIGHT', 'positionCoords': [832, 245.5], 'bid': 0.32}]",46912.0,1669833569779,blackbeanswithrice,chicken nuggets2,4.67,0.32,-4.35,chicken nuggets2,1163.300000011921,1165,1164.199999988079,True,i,48592.19999998808,1680.199999988079,1669833571460,1681,HRV,HRV_0155,2022-11-30 18:43:44
25,"[{'imgObject': {}, 'id': 'veggieswithdip', 'src': '/static/foodstim60/veggieswithdip.jpg', 'key': 'u', 'origWidth': 409, 'origHeight': 409, 'width': 409, 'height': 409, 'widthPercent': 0.45, 'rescaleHeight': False, 'trialN': 25, 'loaded': True, 'loadedTime': 3007.4000000059605, 'positionName': 'LEFT', 'positionCoords': [359, 245.5], 'bid': 7.16}, {'imgObject': {}, 'id': 'froot loops w milk', 'src': '/static/foodstim60/froot loops w milk.jpg', 'key': 'i', 'origWidth': 410, 'origHeight': 410, 'width': 410, 'height': 410, 'widthPercent': 0.45, 'rescaleHeight': False, 'trialN': 25, 'loaded': True, 'loadedTime': 3327.4000000059605, 'positionName': 'RIGHT', 'positionCoords': [832, 245], 'bid': 6.21}]",48592.5,1669833571460,veggieswithdip,froot loops w milk,7.16,6.21,-0.9500000000000002,veggieswithdip,888.0,888,888.5999999940395,True,u,49991.09999999404,1398.5999999940395,1669833572858,1398,HRV,HRV_0155,2022-11-30 18:43:44
26,"[{'imgObject': {}, 'id': 'veggieswithdip', 'src': '/static/foodstim60/veggieswithdip.jpg', 'key': 'u', 'origWidth': 409, 'origHeight': 409, 'width': 409, 'height': 409, 'widthPercent': 0.45, 'rescaleHeight': False, 'trialN': 26, 'loaded': True, 'loadedTime': 3005.4000000059605, 'positionName': 'LEFT', 'positionCoords': [359, 245.5], 'bid': 7.16}, {'imgObject': {}, 'id': 'hashbrowns', 'src': '/static/foodstim60/hashbrowns.jpg', 'key': 'i', 'origWidth': 411, 'origHeight': 410, 'width': 411, 'height': 410, 'widthPercent': 0.45, 'rescaleHeight': False, 'trialN': 26, 'loaded': True, 'loadedTime': 3306.4000000059605, 'positionName': 'RIGHT', 'positionCoords': [832, 245], 'bid': 4.89}]",49992.0,1669833572859,veggieswithdip,hashbrowns,7.16,4.89,-2.2700000000000005,veggieswithdip,3163.699999988079,3165,3164.199999988079,True,u,53669.40000000596,3677.4000000059605,1669833576537,3678,HRV,HRV_0155,2022-11-30 18:43:44
27,"[{'imgObject': {}, 'id': 'shreddedwheatwithmilk', 'src': '/static/foodstim60/shreddedwheatwithmilk.jpg', 'key': 'u', 'origWidth': 410, 'origHeight': 410, 'width': 410, 'height': 410, 'widthPercent': 0.45, 'rescaleHeight': False, 'trialN': 27, 'loaded': True, 'loadedTime': 3342.5999999940395, 'positionName': 'LEFT', 'positionCoords': [358, 245], 'bid': 6.43}, {'imgObject': {}, 'id': 'raisin bran w milk', 'src': '/static/foodstim60/raisin bran w milk.jpg', 'key': 'i', 'origWidth': 411, 'origHeight': 411, 'width': 411, 'height': 411, 'widthPercent': 0.45, 'rescaleHeight': False, 'trialN': 27, 'loaded': True, 'loadedTime': 3344.300000011921, 'positionName': 'RIGHT', 'positionCoords': [832, 244.5], 'bid': 5.8}]",53670.0,1669833576537,shreddedwheatwithmilk,raisin bran w milk,6.43,5.8,-0.6299999999999999,shreddedwheatwithmilk,1273.9000000059605,1276,1275.0999999940395,True,u,55449.40000000596,1779.4000000059605,1669833578317,1780,HRV,HRV_0155,2022-11-30 18:43:44
28,"[{'imgObject': {}, 'id': 'bagel and cc', 'src': '/static/foodstim60/bagel and cc.jpg', 'key': 'u', 'origWidth': 410, 'origHeight': 410, 'width': 410, 'height': 410, 'widthPercent': 0.45, 'rescaleHeight': False, 'trialN': 28, 'loaded': True, 'loadedTime': 3356.300000011921, 'positionName': 'LEFT', 'positionCoords': [358, 245], 'bid': 7.01}, {'imgObject': {}, 'id': 'popsicles', 'src': '/static/foodstim60/popsicles.jpg', 'key': 'i', 'origWidth': 410, 'origHeight': 410, 'width': 410, 'height': 410, 'widthPercent': 0.45, 'rescaleHeight': False, 'trialN': 28, 'loaded': True, 'loadedTime': 3441.4000000059605, 'positionName': 'RIGHT', 'positionCoords': [832, 245], 'bid': 7.98}]",55449.80000001192,1669833578317,bagel and cc,popsicles,7.01,7.98,0.9700000000000006,bagel and cc,957.6999999880791,959,958.8999999761581,True,u,56915.90000000596,1466.0999999940395,1669833579783,1466,HRV,HRV_0155,2022-11-30 18:43:44
29,"[{'imgObject': {}, 'id': 'avocado', 'src': '/static/foodstim60/avocado.jpg', 'key': 'u', 'origWidth': 409, 'origHeight': 409, 'width': 409, 'height': 409, 'widthPercent': 0.45, 'rescaleHeight': False, 'trialN': 29, 'loaded': True, 'loadedTime': 3363.5, 'positionName': 'LEFT', 'positionCoords': [359, 245.5], 'bid': 7.22}, {'imgObject': {}, 'id': 'sushi w_condiments', 'src': '/static/foodstim60/sushi w_condiments.jpg', 'key': 'i', 'origWidth': 410, 'origHeight': 410, 'width': 410, 'height': 410, 'widthPercent': 0.45, 'rescaleHeight': False, 'trialN': 29, 'loaded': True, 'loadedTime': 2984.699999988079, 'positionName': 'RIGHT', 'positionCoords': [832, 245], 'bid': 5.01}]",56916.30000001192,1669833579784,avocado,sushi w_condiments,7.22,5.01,-2.21,sushi w_condiments,1706.0,1706,1706.5999999940395,True,i,59129.90000000596,2213.5999999940395,1669833581997,2213,HRV,HRV_0155,2022-11-30 18:43:44
30,"[{'imgObject': {}, 'id': 'seaweed', 'src': '/static/foodstim60/seaweed.jpg', 'key': 'u', 'origWidth': 410, 'origHeight': 410, 'width': 410, 'height': 410, 'widthPercent': 0.45, 'rescaleHeight': False, 'trialN': 30, 'loaded': True, 'loadedTime': 3367.199999988079, 'positionName': 'LEFT', 'positionCoords': [358, 245], 'bid': 0.1}, {'imgObject': {}, 'id': 'mac & cheese', 'src': '/static/foodstim60/mac & cheese.jpg', 'key': 'i', 'origWidth': 410, 'origHeight': 410, 'width': 410, 'height': 410, 'widthPercent': 0.45, 'rescaleHeight': False, 'trialN': 30, 'loaded': True, 'loadedTime': 3390.300000011921, 'positionName': 'RIGHT', 'positionCoords': [832, 245], 'bid': 2.85}]",59130.30000001192,1669833581998,seaweed,mac & cheese,0.1,2.85,2.75,mac & cheese,1052.7999999821186,1054,1053.8999999761581,True,i,60694.80000001192,1564.5,1669833583562,1564,HRV,HRV_0155,2022-11-30 18:43:44
31,"[{'imgObject': {}, 'id': 'salad w chicken', 'src': '/static/foodstim60/salad w chicken.jpg', 'key': 'u', 'origWidth': 411, 'origHeight': 411, 'width': 411, 'height': 411, 'widthPercent': 0.45, 'rescaleHeight': False, 'trialN': 31, 'loaded': True, 'loadedTime': 3212.300000011921, 'positionName': 'LEFT', 'positionCoords': [357, 244.5], 'bid': 5.71}, {'imgObject': {}, 'id': 'cherries', 'src': '/static/foodstim60/cherries.jpg', 'key': 'i', 'origWidth': 410, 'origHeight': 411, 'width': 410, 'height': 411, 'widthPercent': 0.45, 'rescaleHeight': False, 'trialN': 31, 'loaded': True, 'loadedTime': 3391.800000011921, 'positionName': 'RIGHT', 'positionCoords': [832, 244.5], 'bid': 6.25}]",60695.30000001192,1669833583563,salad w chicken,cherries,5.71,6.25,0.54,cherries,1023.1999999880791,1024,1024.2999999821186,True,i,62229.69999998808,1534.3999999761581,1669833585097,1534,HRV,HRV_0155,2022-11-30 18:43:44
32,"[{'imgObject': {}, 'id': 'baked potato', 'src': '/static/foodstim60/baked potato.jpg', 'key': 'u', 'origWidth': 409, 'origHeight': 410, 'width': 409, 'height': 410, 'widthPercent': 0.45, 'rescaleHeight': False, 'trialN': 32, 'loaded': True, 'loadedTime': 3396.0999999940395, 'positionName': 'LEFT', 'positionCoords': [359, 245], 'bid': 4.16}, {'imgObject': {}, 'id': 'grilled chicken strips', 'src': '/static/foodstim60/grilled chicken strips.jpg', 'key': 'i', 'origWidth': 410, 'origHeight': 411, 'width': 410, 'height': 411, 'widthPercent': 0.45, 'rescaleHeight': False, 'trialN': 32, 'loaded': True, 'loadedTime': 3398.199999988079, 'positionName': 'RIGHT', 'positionCoords': [832, 244.5], 'bid': 7.03}]",62230.09999999404,1669833585097,baked potato,grilled chicken strips,4.16,7.03,2.87,grilled chicken strips,1118.7000000178814,1120,1119.800000011921,True,i,63858.90000000596,1628.800000011921,1669833586726,1629,HRV,HRV_0155,2022-11-30 18:43:44
33,"[{'imgObject': {}, 'id': 'rigatoni', 'src': '/static/foodstim60/rigatoni.jpg', 'key': 'u', 'origWidth': 411, 'origHeight': 411, 'width': 411, 'height': 411, 'widthPercent': 0.45, 'rescaleHeight': False, 'trialN': 33, 'loaded': True, 'loadedTime': 3119, 'positionName': 'LEFT', 'positionCoords': [357, 244.5], 'bid': 1.72}, {'imgObject': {}, 'id': 'rigatoni and sauce', 'src': '/static/foodstim60/rigatoni and sauce.jpg', 'key': 'i', 'origWidth': 410, 'origHeight': 411, 'width': 410, 'height': 411, 'widthPercent': 0.45, 'rescaleHeight': False, 'trialN': 33, 'loaded': True, 'loadedTime': 3290.0999999940395, 'positionName': 'RIGHT', 'positionCoords': [832, 244.5], 'bid': 1.13}]",63859.40000000596,1669833586727,rigatoni,rigatoni and sauce,1.72,1.13,-0.5900000000000001,rigatoni,1220.7999999821186,1222,1222.0999999940395,True,u,65600.19999998808,1740.7999999821186,1669833588468,1741,HRV,HRV_0155,2022-11-30 18:43:44
34,"[{'imgObject': {}, 'id': 'strawberries', 'src': '/static/foodstim60/strawberries.jpg', 'key': 'u', 'origWidth': 410, 'origHeight': 410, 'width': 410, 'height': 410, 'widthPercent': 0.45, 'rescaleHeight': False, 'trialN': 34, 'loaded': True, 'loadedTime': 3098.5999999940395, 'positionName': 'LEFT', 'positionCoords': [358, 245], 'bid': 7.7}, {'imgObject': {}, 'id': 'ice cream sundae 002', 'src': '/static/foodstim60/ice cream sundae 002.jpg', 'key': 'i', 'origWidth': 409, 'origHeight': 409, 'width': 409, 'height': 409, 'widthPercent': 0.45, 'rescaleHeight': False, 'trialN': 34, 'loaded': True, 'loadedTime': 3154.0999999940395, 'positionName': 'RIGHT', 'positionCoords': [832, 245.5], 'bid': 7.91}]",65600.90000000596,1669833588468,strawberries,ice cream sundae 002,7.7,7.91,0.20999999999999996,ice cream sundae 002,998.6999999880791,1000,1000.0,True,i,67105.59999999404,1504.699999988079,1669833589973,1505,HRV,HRV_0155,2022-11-30 18:43:44
35,"[{'imgObject': {}, 'id': 'mango', 'src': '/static/foodstim60/mango.jpg', 'key': 'u', 'origWidth': 411, 'origHeight': 411, 'width': 411, 'height': 411, 'widthPercent': 0.45, 'rescaleHeight': False, 'trialN': 35, 'loaded': True, 'loadedTime': 2987.9000000059605, 'positionName': 'LEFT', 'positionCoords': [357, 244.5], 'bid': 6.18}, {'imgObject': {}, 'id': 'banana', 'src': '/static/foodstim60/banana.jpg', 'key': 'i', 'origWidth': 410, 'origHeight': 410, 'width': 410, 'height': 410, 'widthPercent': 0.45, 'rescaleHeight': False, 'trialN': 35, 'loaded': True, 'loadedTime': 3300.9000000059605, 'positionName': 'RIGHT', 'positionCoords': [832, 245], 'bid': 7.13}]",67106.0,1669833589974,mango,banana,6.18,7.13,0.9500000000000002,mango,765.0999999940395,766,766.1999999880791,True,u,68386.09999999404,1280.0999999940395,1669833591254,1280,HRV,HRV_0155,2022-11-30 18:43:44
36,"[{'imgObject': {}, 'id': 'eggs', 'src': '/static/foodstim60/eggs.jpg', 'key': 'u', 'origWidth': 409, 'origHeight': 409, 'width': 409, 'height': 409, 'widthPercent': 0.45, 'rescaleHeight': False, 'trialN': 36, 'loaded': True, 'loadedTime': 3167.5999999940395, 'positionName': 'LEFT', 'positionCoords': [359, 245.5], 'bid': 4.05}, {'imgObject': {}, 'id': 'mashed potato', 'src': '/static/foodstim60/mashed potato.jpg', 'key': 'i', 'origWidth': 409, 'origHeight': 409, 'width': 409, 'height': 409, 'widthPercent': 0.45, 'rescaleHeight': False, 'trialN': 36, 'loaded': True, 'loadedTime': 3444.5, 'positionName': 'RIGHT', 'positionCoords': [832, 245.5], 'bid': 0.63}]",68386.59999999404,1669833591254,eggs,mashed potato,4.05,0.63,-3.42,eggs,1717.300000011921,1718,1717.9000000059605,True,u,70621.30000001192,2234.7000000178814,1669833593489,2235,HRV,HRV_0155,2022-11-30 18:43:44
37,"[{'imgObject': {}, 'id': 'banana', 'src': '/static/foodstim60/banana.jpg', 'key': 'u', 'origWidth': 410, 'origHeight': 410, 'width': 410, 'height': 410, 'widthPercent': 0.45, 'rescaleHeight': False, 'trialN': 37, 'loaded': True, 'loadedTime': 3302.699999988079, 'positionName': 'LEFT', 'positionCoords': [358, 245], 'bid': 7.13}, {'imgObject': {}, 'id': 'bagel and cc', 'src': '/static/foodstim60/bagel and cc.jpg', 'key': 'i', 'origWidth': 410, 'origHeight': 410, 'width': 410, 'height': 410, 'widthPercent': 0.45, 'rescaleHeight': False, 'trialN': 37, 'loaded': True, 'loadedTime': 3358.9000000059605, 'positionName': 'RIGHT', 'positionCoords': [832, 245], 'bid': 7.01}]",70622.0,1669833593490,banana,bagel and cc,7.13,7.01,-0.1200000000000001,bagel and cc,859.6999999880791,860,860.8000000119209,True,i,71998.5,1376.5,1669833594866,1376,HRV,HRV_0155,2022-11-30 18:43:44
38,"[{'imgObject': {}, 'id': 'Grapes', 'src': '/static/foodstim60/Grapes.jpg', 'key': 'u', 'origWidth': 411, 'origHeight': 411, 'width': 411, 'height': 411, 'widthPercent': 0.45, 'rescaleHeight': False, 'trialN': 38, 'loaded': True, 'loadedTime': 3448.199999988079, 'positionName': 'LEFT', 'positionCoords': [357, 244.5], 'bid': 7.92}, {'imgObject': {}, 'id': 'strawberries', 'src': '/static/foodstim60/strawberries.jpg', 'key': 'i', 'origWidth': 410, 'origHeight': 410, 'width': 410, 'height': 410, 'widthPercent': 0.45, 'rescaleHeight': False, 'trialN': 38, 'loaded': True, 'loadedTime': 3099.5, 'positionName': 'RIGHT', 'positionCoords': [832, 245], 'bid': 7.7}]",71999.09999999404,1669833594867,Grapes,strawberries,7.92,7.7,-0.21999999999999975,Grapes,1166.0999999940395,1166,1166.5999999940395,True,u,73681.19999998808,1682.0999999940395,1669833596549,1682,HRV,HRV_0155,2022-11-30 18:43:44
39,"[{'imgObject': {}, 'id': 'mashed potato', 'src': '/static/foodstim60/mashed potato.jpg', 'key': 'u', 'origWidth': 409, 'origHeight': 409, 'width': 409, 'height': 409, 'widthPercent': 0.45, 'rescaleHeight': False, 'trialN': 39, 'loaded': True, 'loadedTime': 3445.300000011921, 'positionName': 'LEFT', 'positionCoords': [359, 245.5], 'bid': 0.63}, {'imgObject': {}, 'id': 'chicken nuggets2', 'src': '/static/foodstim60/chicken nuggets2.jpg', 'key': 'i', 'origWidth': 410, 'origHeight': 409, 'width': 410, 'height': 409, 'widthPercent': 0.45, 'rescaleHeight': False, 'trialN': 39, 'loaded': True, 'loadedTime': 3255.199999988079, 'positionName': 'RIGHT', 'positionCoords': [832, 245.5], 'bid': 0.32}]",73681.69999998808,1669833596549,mashed potato,chicken nuggets2,0.63,0.32,-0.31,chicken nuggets2,814.0,815,814.7000000178814,True,i,75012.0,1330.300000011921,1669833597880,1331,HRV,HRV_0155,2022-11-30 18:43:44
40,"[{'imgObject': {}, 'id': 'apple slices', 'src': '/static/foodstim60/apple slices.jpg', 'key': 'u', 'origWidth': 409, 'origHeight': 410, 'width': 409, 'height': 410, 'widthPercent': 0.45, 'rescaleHeight': False, 'trialN': 40, 'loaded': True, 'loadedTime': 3450.300000011921, 'positionName': 'LEFT', 'positionCoords': [359, 245], 'bid': 6.92}, {'imgObject': {}, 'id': 'orange slices', 'src': '/static/foodstim60/orange slices.jpg', 'key': 'i', 'origWidth': 409, 'origHeight': 410, 'width': 409, 'height': 410, 'widthPercent': 0.45, 'rescaleHeight': False, 'trialN': 40, 'loaded': True, 'loadedTime': 2968.199999988079, 'positionName': 'RIGHT', 'positionCoords': [832, 245], 'bid': 6.92}]",75012.59999999404,1669833597880,apple slices,orange slices,6.92,6.92,0.0,apple slices,1174.300000011921,1175,1174.9000000059605,True,u,76709.90000000596,1697.300000011921,1669833599577,1697,HRV,HRV_0155,2022-11-30 18:43:44
41,"[{'imgObject': {}, 'id': 'cantaloupe', 'src': '/static/foodstim60/cantaloupe.jpg', 'key': 'u', 'origWidth': 409, 'origHeight': 409, 'width': 409, 'height': 409, 'widthPercent': 0.45, 'rescaleHeight': False, 'trialN': 41, 'loaded': True, 'loadedTime': 2982.0999999940395, 'positionName': 'LEFT', 'positionCoords': [359, 245.5], 'bid': 7.32}, {'imgObject': {}, 'id': 'steak', 'src': '/static/foodstim60/steak.jpg', 'key': 'i', 'origWidth': 410, 'origHeight': 410, 'width': 410, 'height': 410, 'widthPercent': 0.45, 'rescaleHeight': False, 'trialN': 41, 'loaded': True, 'loadedTime': 3002.5999999940395, 'positionName': 'RIGHT', 'positionCoords': [832, 245], 'bid': 7.51}]",76710.5,1669833599578,cantaloupe,steak,7.32,7.51,0.1899999999999995,cantaloupe,815.8000000119209,817,817.3000000119209,True,u,78042.30000001192,1331.800000011921,1669833600910,1332,HRV,HRV_0155,2022-11-30 18:43:44
42,"[{'imgObject': {}, 'id': 'seaweed', 'src': '/static/foodstim60/seaweed.jpg', 'key': 'u', 'origWidth': 410, 'origHeight': 410, 'width': 410, 'height': 410, 'widthPercent': 0.45, 'rescaleHeight': False, 'trialN': 42, 'loaded': True, 'loadedTime': 3369, 'positionName': 'LEFT', 'positionCoords': [358, 245], 'bid': 0.1}, {'imgObject': {}, 'id': 'corn cob', 'src': '/static/foodstim60/corn cob.jpg', 'key': 'i', 'origWidth': 411, 'origHeight': 411, 'width': 411, 'height': 411, 'widthPercent': 0.45, 'rescaleHeight': False, 'trialN': 42, 'loaded': True, 'loadedTime': 3228, 'positionName': 'RIGHT', 'positionCoords': [832, 244.5], 'bid': 0.62}]",78042.69999998808,1669833600910,seaweed,corn cob,0.1,0.62,0.52,seaweed,1269.4000000059605,1271,1270.6000000238419,True,u,79822.69999998808,1780.0,1669833602690,1780,HRV,HRV_0155,2022-11-30 18:43:44
43,"[{'imgObject': {}, 'id': 'kiwi', 'src': '/static/foodstim60/kiwi.jpg', 'key': 'u', 'origWidth': 410, 'origHeight': 410, 'width': 410, 'height': 410, 'widthPercent': 0.45, 'rescaleHeight': False, 'trialN': 43, 'loaded': True, 'loadedTime': 3452, 'positionName': 'LEFT', 'positionCoords': [358, 245], 'bid': 6.67}, {'imgObject': {}, 'id': 'pear', 'src': '/static/foodstim60/pear.jpg', 'key': 'i', 'origWidth': 411, 'origHeight': 410, 'width': 411, 'height': 410, 'widthPercent': 0.45, 'rescaleHeight': False, 'trialN': 43, 'loaded': True, 'loadedTime': 2853.5, 'positionName': 'RIGHT', 'positionCoords': [832, 245], 'bid': 6.57}]",79823.19999998808,1669833602691,kiwi,pear,6.67,6.57,-0.09999999999999964,kiwi,1189.0,1190,1190.0,True,u,81529.5,1706.300000011921,1669833604397,1706,HRV,HRV_0155,2022-11-30 18:43:44
44,"[{'imgObject': {}, 'id': 'froot loops w milk', 'src': '/static/foodstim60/froot loops w milk.jpg', 'key': 'u', 'origWidth': 410, 'origHeight': 410, 'width': 410, 'height': 410, 'widthPercent': 0.45, 'rescaleHeight': False, 'trialN': 44, 'loaded': True, 'loadedTime': 3328, 'positionName': 'LEFT', 'positionCoords': [358, 245], 'bid': 6.21}, {'imgObject': {}, 'id': 'cherries', 'src': '/static/foodstim60/cherries.jpg', 'key': 'i', 'origWidth': 410, 'origHeight': 411, 'width': 410, 'height': 411, 'widthPercent': 0.45, 'rescaleHeight': False, 'trialN': 44, 'loaded': True, 'loadedTime': 3393.9000000059605, 'positionName': 'RIGHT', 'positionCoords': [832, 244.5], 'bid': 6.25}]",81530.09999999404,1669833604398,froot loops w milk,cherries,6.21,6.25,0.040000000000000036,cherries,1067.0,1068,1068.4000000059605,True,i,83104.09999999404,1574.0,1669833605972,1574,HRV,HRV_0155,2022-11-30 18:43:44
45,"[{'imgObject': {}, 'id': 'shreddedwheatwithmilk', 'src': '/static/foodstim60/shreddedwheatwithmilk.jpg', 'key': 'u', 'origWidth': 410, 'origHeight': 410, 'width': 410, 'height': 410, 'widthPercent': 0.45, 'rescaleHeight': False, 'trialN': 45, 'loaded': True, 'loadedTime': 3342.4000000059605, 'positionName': 'LEFT', 'positionCoords': [358, 245], 'bid': 6.43}, {'imgObject': {}, 'id': 'eggsalad', 'src': '/static/foodstim60/eggsalad.jpg', 'key': 'i', 'origWidth': 410, 'origHeight': 409, 'width': 410, 'height': 409, 'widthPercent': 0.45, 'rescaleHeight': False, 'trialN': 45, 'loaded': True, 'loadedTime': 3454, 'positionName': 'RIGHT', 'positionCoords': [832, 245.5], 'bid': 1.14}]",83104.5,1669833605972,shreddedwheatwithmilk,eggsalad,6.43,1.14,-5.29,shreddedwheatwithmilk,744.5,746,745.9000000059605,True,u,84352.40000000596,1247.9000000059605,1669833607220,1248,HRV,HRV_0155,2022-11-30 18:43:44
46,"[{'imgObject': {}, 'id': 'tacos', 'src': '/static/foodstim60/tacos.jpg', 'key': 'u', 'origWidth': 411, 'origHeight': 411, 'width': 411, 'height': 411, 'widthPercent': 0.45, 'rescaleHeight': False, 'trialN': 46, 'loaded': True, 'loadedTime': 3460.9000000059605, 'positionName': 'LEFT', 'positionCoords': [357, 244.5], 'bid': 3.53}, {'imgObject': {}, 'id': 'omelette', 'src': '/static/foodstim60/omelette.jpg', 'key': 'i', 'origWidth': 410, 'origHeight': 409, 'width': 410, 'height': 409, 'widthPercent': 0.45, 'rescaleHeight': False, 'trialN': 46, 'loaded': True, 'loadedTime': 3003.199999988079, 'positionName': 'RIGHT', 'positionCoords': [832, 245.5], 'bid': 6.88}]",84352.90000000596,1669833607221,tacos,omelette,3.53,6.88,3.35,tacos,954.6999999880791,955,955.2999999821186,True,u,85822.69999998808,1469.7999999821186,1669833608690,1469,HRV,HRV_0155,2022-11-30 18:43:44
47,"[{'imgObject': {}, 'id': 'steak', 'src': '/static/foodstim60/steak.jpg', 'key': 'u', 'origWidth': 410, 'origHeight': 410, 'width': 410, 'height': 410, 'widthPercent': 0.45, 'rescaleHeight': False, 'trialN': 47, 'loaded': True, 'loadedTime': 3002.300000011921, 'positionName': 'LEFT', 'positionCoords': [358, 245], 'bid': 7.51}, {'imgObject': {}, 'id': 'fruitsalad', 'src': '/static/foodstim60/fruitsalad.jpg', 'key': 'i', 'origWidth': 410, 'origHeight': 410, 'width': 410, 'height': 410, 'widthPercent': 0.45, 'rescaleHeight': False, 'trialN': 47, 'loaded': True, 'loadedTime': 3009.0999999940395, 'positionName': 'RIGHT', 'positionCoords': [832, 245], 'bid': 7.58}]",85823.0,1669833608691,steak,fruitsalad,7.51,7.58,0.07000000000000028,steak,807.0999999940395,808,808.6999999880791,True,u,87144.30000001192,1321.300000011921,1669833610012,1321,HRV,HRV_0155,2022-11-30 18:43:44
48,"[{'imgObject': {}, 'id': 'avocado', 'src': '/static/foodstim60/avocado.jpg', 'key': 'u', 'origWidth': 409, 'origHeight': 409, 'width': 409, 'height': 409, 'widthPercent': 0.45, 'rescaleHeight': False, 'trialN': 48, 'loaded': True, 'loadedTime': 3361.9000000059605, 'positionName': 'LEFT', 'positionCoords': [359, 245.5], 'bid': 7.22}, {'imgObject': {}, 'id': 'olives', 'src': '/static/foodstim60/olives.jpg', 'key': 'i', 'origWidth': 410, 'origHeight': 410, 'width': 410, 'height': 410, 'widthPercent': 0.45, 'rescaleHeight': False, 'trialN': 48, 'loaded': True, 'loadedTime': 3103.800000011921, 'positionName': 'RIGHT', 'positionCoords': [832, 245], 'bid': 7.31}]",87144.69999998808,1669833610012,avocado,olives,7.22,7.31,0.08999999999999986,olives,744.0,746,745.3000000119209,True,i,88398.09999999404,1253.4000000059605,1669833611266,1254,HRV,HRV_0155,2022-11-30 18:43:44
49,"[{'imgObject': {}, 'id': 'strawberries', 'src': '/static/foodstim60/strawberries.jpg', 'key': 'u', 'origWidth': 410, 'origHeight': 410, 'width': 410, 'height': 410, 'widthPercent': 0.45, 'rescaleHeight': False, 'trialN': 49, 'loaded': True, 'loadedTime': 3072.699999988079, 'positionName': 'LEFT', 'positionCoords': [358, 245], 'bid': 7.7}, {'imgObject': {}, 'id': 'omelette', 'src': '/static/foodstim60/omelette.jpg', 'key': 'i', 'origWidth': 410, 'origHeight': 409, 'width': 410, 'height': 409, 'widthPercent': 0.45, 'rescaleHeight': False, 'trialN': 49, 'loaded': True, 'loadedTime': 3004.9000000059605, 'positionName': 'RIGHT', 'positionCoords': [832, 245.5], 'bid': 6.88}]",88398.5,1669833611266,strawberries,omelette,7.7,6.88,-0.8200000000000003,strawberries,1225.199999988079,1227,1226.9000000059605,True,u,90127.80000001192,1729.300000011921,1669833612995,1729,HRV,HRV_0155,2022-11-30 18:43:44
50,"[{'imgObject': {}, 'id': 'grilled chicken strips', 'src': '/static/foodstim60/grilled chicken strips.jpg', 'key': 'u', 'origWidth': 410, 'origHeight': 411, 'width': 410, 'height': 411, 'widthPercent': 0.45, 'rescaleHeight': False, 'trialN': 50, 'loaded': True, 'loadedTime': 3399.699999988079, 'positionName': 'LEFT', 'positionCoords': [358, 244.5], 'bid': 7.03}, {'imgObject': {}, 'id': 'veggieswithdip', 'src': '/static/foodstim60/veggieswithdip.jpg', 'key': 'i', 'origWidth': 409, 'origHeight': 409, 'width': 409, 'height': 409, 'widthPercent': 0.45, 'rescaleHeight': False, 'trialN': 50, 'loaded': True, 'loadedTime': 3006.699999988079, 'positionName': 'RIGHT', 'positionCoords': [832, 245.5], 'bid': 7.16}]",90128.40000000596,1669833612996,grilled chicken strips,veggieswithdip,7.03,7.16,0.1299999999999999,veggieswithdip,976.0,977,977.2999999821186,True,i,91616.0,1487.5999999940395,1669833614484,1488,HRV,HRV_0155,2022-11-30 18:43:44
51,"[{'imgObject': {}, 'id': 'bagel plain', 'src': '/static/foodstim60/bagel plain.jpg', 'key': 'u', 'origWidth': 410, 'origHeight': 410, 'width': 410, 'height': 410, 'widthPercent': 0.45, 'rescaleHeight': False, 'trialN': 51, 'loaded': True, 'loadedTime': 3062.5, 'positionName': 'LEFT', 'positionCoords': [358, 245], 'bid': 6.63}, {'imgObject': {}, 'id': 'blueberries', 'src': '/static/foodstim60/blueberries.jpg', 'key': 'i', 'origWidth': 411, 'origHeight': 411, 'width': 411, 'height': 411, 'widthPercent': 0.45, 'rescaleHeight': False, 'trialN': 51, 'loaded': True, 'loadedTime': 3247.5, 'positionName': 'RIGHT', 'positionCoords': [832, 244.5], 'bid': 7.47}]",91616.5,1669833614484,bagel plain,blueberries,6.63,7.47,0.8399999999999999,blueberries,702.4000000059605,703,703.0,True,i,92823.90000000596,1207.4000000059605,1669833615691,1207,HRV,HRV_0155,2022-11-30 18:43:44
52,"[{'imgObject': {}, 'id': 'kiwi', 'src': '/static/foodstim60/kiwi.jpg', 'key': 'u', 'origWidth': 410, 'origHeight': 410, 'width': 410, 'height': 410, 'widthPercent': 0.45, 'rescaleHeight': False, 'trialN': 52, 'loaded': True, 'loadedTime': 3450.5999999940395, 'positionName': 'LEFT', 'positionCoords': [358, 245], 'bid': 6.67}, {'imgObject': {}, 'id': 'bagel plain', 'src': '/static/foodstim60/bagel plain.jpg', 'key': 'i', 'origWidth': 410, 'origHeight': 410, 'width': 410, 'height': 410, 'widthPercent': 0.45, 'rescaleHeight': False, 'trialN': 52, 'loaded': True, 'loadedTime': 3067.5, 'positionName': 'RIGHT', 'positionCoords': [832, 245], 'bid': 6.63}]",92824.40000000596,1669833615692,kiwi,bagel plain,6.67,6.63,-0.040000000000000036,kiwi,770.5,772,771.5999999940395,True,u,94105.30000001192,1280.9000000059605,1669833616973,1281,HRV,HRV_0155,2022-11-30 18:43:44
53,"[{'imgObject': {}, 'id': 'raisin bran w milk', 'src': '/static/foodstim60/raisin bran w milk.jpg', 'key': 'u', 'origWidth': 411, 'origHeight': 411, 'width': 411, 'height': 411, 'widthPercent': 0.45, 'rescaleHeight': False, 'trialN': 53, 'loaded': True, 'loadedTime': 3344.5, 'positionName': 'LEFT', 'positionCoords': [357, 244.5], 'bid': 5.8}, {'imgObject': {}, 'id': 'mango', 'src': '/static/foodstim60/mango.jpg', 'key': 'i', 'origWidth': 411, 'origHeight': 411, 'width': 411, 'height': 411, 'widthPercent': 0.45, 'rescaleHeight': False, 'trialN': 53, 'loaded': True, 'loadedTime': 2987.5, 'positionName': 'RIGHT', 'positionCoords': [832, 244.5], 'bid': 6.18}]",94106.0,1669833616974,raisin bran w milk,mango,5.8,6.18,0.3799999999999999,raisin bran w milk,1058.699999988079,1059,1059.5999999940395,True,u,95672.30000001192,1566.300000011921,1669833618540,1566,HRV,HRV_0155,2022-11-30 18:43:44
54,"[{'imgObject': {}, 'id': 'turkey sandwich', 'src': '/static/foodstim60/turkey sandwich.jpg', 'key': 'u', 'origWidth': 409, 'origHeight': 409, 'width': 409, 'height': 409, 'widthPercent': 0.45, 'rescaleHeight': False, 'trialN': 54, 'loaded': True, 'loadedTime': 2922.699999988079, 'positionName': 'LEFT', 'positionCoords': [359, 245.5], 'bid': 5.25}, {'imgObject': {}, 'id': 'cheerios', 'src': '/static/foodstim60/cheerios.jpg', 'key': 'i', 'origWidth': 409, 'origHeight': 410, 'width': 409, 'height': 410, 'widthPercent': 0.45, 'rescaleHeight': False, 'trialN': 54, 'loaded': True, 'loadedTime': 3167.300000011921, 'positionName': 'RIGHT', 'positionCoords': [832, 245], 'bid': 5.3100000000000005}]",95672.90000000596,1669833618541,turkey sandwich,cheerios,5.25,5.3100000000000005,0.0600000000000005,turkey sandwich,797.0999999940395,797,797.9000000059605,True,u,96987.69999998808,1314.7999999821186,1669833619855,1314,HRV,HRV_0155,2022-11-30 18:43:44
55,"[{'imgObject': {}, 'id': 'burger', 'src': '/static/foodstim60/burger.jpg', 'key': 'u', 'origWidth': 409, 'origHeight': 409, 'width': 409, 'height': 409, 'widthPercent': 0.45, 'rescaleHeight': False, 'trialN': 55, 'loaded': True, 'loadedTime': 3473, 'positionName': 'LEFT', 'positionCoords': [359, 245.5], 'bid': 5.21}, {'imgObject': {}, 'id': 'hashbrowns', 'src': '/static/foodstim60/hashbrowns.jpg', 'key': 'i', 'origWidth': 411, 'origHeight': 410, 'width': 411, 'height': 410, 'widthPercent': 0.45, 'rescaleHeight': False, 'trialN': 55, 'loaded': True, 'loadedTime': 3305.199999988079, 'positionName': 'RIGHT', 'positionCoords': [832, 245], 'bid': 4.89}]",96988.0,1669833619856,burger,hashbrowns,5.21,4.89,-0.3200000000000003,burger,1298.0999999940395,1299,1299.0999999940395,True,u,98800.80000001192,1812.800000011921,1669833621668,1812,HRV,HRV_0155,2022-11-30 18:43:44
56,"[{'imgObject': {}, 'id': 'baked potato', 'src': '/static/foodstim60/baked potato.jpg', 'key': 'u', 'origWidth': 409, 'origHeight': 410, 'width': 409, 'height': 410, 'widthPercent': 0.45, 'rescaleHeight': False, 'trialN': 56, 'loaded': True, 'loadedTime': 3395, 'positionName': 'LEFT', 'positionCoords': [359, 245], 'bid': 4.16}, {'imgObject': {}, 'id': 'eggs', 'src': '/static/foodstim60/eggs.jpg', 'key': 'i', 'origWidth': 409, 'origHeight': 409, 'width': 409, 'height': 409, 'widthPercent': 0.45, 'rescaleHeight': False, 'trialN': 56, 'loaded': True, 'loadedTime': 3169.4000000059605, 'positionName': 'RIGHT', 'positionCoords': [832, 245.5], 'bid': 4.05}]",98801.40000000596,1669833621669,baked potato,eggs,4.16,4.05,-0.11000000000000032,baked potato,838.0999999940395,839,838.7999999821186,True,u,100156.80000001192,1355.4000000059605,1669833623024,1355,HRV,HRV_0155,2022-11-30 18:43:44
57,"[{'imgObject': {}, 'id': 'kiwi', 'src': '/static/foodstim60/kiwi.jpg', 'key': 'u', 'origWidth': 410, 'origHeight': 410, 'width': 410, 'height': 410, 'widthPercent': 0.45, 'rescaleHeight': False, 'trialN': 57, 'loaded': True, 'loadedTime': 3452.300000011921, 'positionName': 'LEFT', 'positionCoords': [358, 245], 'bid': 6.67}, {'imgObject': {}, 'id': 'steak', 'src': '/static/foodstim60/steak.jpg', 'key': 'i', 'origWidth': 410, 'origHeight': 410, 'width': 410, 'height': 410, 'widthPercent': 0.45, 'rescaleHeight': False, 'trialN': 57, 'loaded': True, 'loadedTime': 3002.800000011921, 'positionName': 'RIGHT', 'positionCoords': [832, 245], 'bid': 7.51}]",100157.19999998808,1669833623025,kiwi,steak,6.67,7.51,0.8399999999999999,kiwi,658.4000000059605,659,659.4000000059605,True,u,101322.5,1165.300000011921,1669833624190,1165,HRV,HRV_0155,2022-11-30 18:43:44
58,"[{'imgObject': {}, 'id': 'turkeysandwich', 'src': '/static/foodstim60/turkeysandwich.jpg', 'key': 'u', 'origWidth': 409, 'origHeight': 409, 'width': 409, 'height': 409, 'widthPercent': 0.45, 'rescaleHeight': False, 'trialN': 58, 'loaded': True, 'loadedTime': 3485.5999999940395, 'positionName': 'LEFT', 'positionCoords': [359, 245.5], 'bid': 5.07}, {'imgObject': {}, 'id': 'fried eggs', 'src': '/static/foodstim60/fried eggs.jpg', 'key': 'i', 'origWidth': 410, 'origHeight': 410, 'width': 410, 'height': 410, 'widthPercent': 0.45, 'rescaleHeight': False, 'trialN': 58, 'loaded': True, 'loadedTime': 2995.199999988079, 'positionName': 'RIGHT', 'positionCoords': [832, 245], 'bid': 5.1000000000000005}]",101322.90000000596,1669833624191,turkeysandwich,fried eggs,5.07,5.1000000000000005,0.03000000000000025,turkeysandwich,998.2999999821186,999,999.7999999821186,True,u,102830.80000001192,1507.9000000059605,1669833625698,1507,HRV,HRV_0155,2022-11-30 18:43:44
59,"[{'imgObject': {}, 'id': 'lox', 'src': '/static/foodstim60/lox.jpg', 'key': 'u', 'origWidth': 410, 'origHeight': 411, 'width': 410, 'height': 411, 'widthPercent': 0.45, 'rescaleHeight': False, 'trialN': 59, 'loaded': True, 'loadedTime': 3298.5, 'positionName': 'LEFT', 'positionCoords': [358, 244.5], 'bid': 4.0600000000000005}, {'imgObject': {}, 'id': 'raisin bran w milk', 'src': '/static/foodstim60/raisin bran w milk.jpg', 'key': 'i', 'origWidth': 411, 'origHeight': 411, 'width': 411, 'height': 411, 'widthPercent': 0.45, 'rescaleHeight': False, 'trialN': 59, 'loaded': True, 'loadedTime': 3342.9000000059605, 'positionName': 'RIGHT', 'positionCoords': [832, 244.5], 'bid': 5.8}]",102831.40000000596,1669833625699,lox,raisin bran w milk,4.0600000000000005,5.8,1.7399999999999993,lox,1406.0999999940395,1407,1407.199999988079,True,u,104744.90000000596,1913.5,1669833627612,1913,HRV,HRV_0155,2022-11-30 18:43:44
60,"[{'imgObject': {}, 'id': 'luckycharms', 'src': '/static/foodstim60/luckycharms.jpg', 'key': 'u', 'origWidth': 410, 'origHeight': 409, 'width': 410, 'height': 409, 'widthPercent': 0.45, 'rescaleHeight': False, 'trialN': 60, 'loaded': True, 'loadedTime': 3489, 'positionName': 'LEFT', 'positionCoords': [358, 245.5], 'bid': 5.25}, {'imgObject': {}, 'id': 'cheerios', 'src': '/static/foodstim60/cheerios.jpg', 'key': 'i', 'origWidth': 409, 'origHeight': 410, 'width': 409, 'height': 410, 'widthPercent': 0.45, 'rescaleHeight': False, 'trialN': 60, 'loaded': True, 'loadedTime': 3166.9000000059605, 'positionName': 'RIGHT', 'positionCoords': [832, 245], 'bid': 5.3100000000000005}]",104745.19999998808,1669833627613,luckycharms,cheerios,5.25,5.3100000000000005,0.0600000000000005,luckycharms,1170.5,1171,1171.2000000178814,True,u,106435.90000000596,1690.7000000178814,1669833629303,1690,HRV,HRV_0155,2022-11-30 18:43:44
61,"[{'imgObject': {}, 'id': 'shreddedwheatwithmilk', 'src': '/static/foodstim60/shreddedwheatwithmilk.jpg', 'key': 'u', 'origWidth': 410, 'origHeight': 410, 'width': 410, 'height': 410, 'widthPercent': 0.45, 'rescaleHeight': False, 'trialN': 61, 'loaded': True, 'loadedTime': 3342.0999999940395, 'positionName': 'LEFT', 'positionCoords': [358, 245], 'bid': 6.43}, {'imgObject': {}, 'id': 'roastedpotatoes', 'src': '/static/foodstim60/roastedpotatoes.jpg', 'key': 'i', 'origWidth': 409, 'origHeight': 410, 'width': 409, 'height': 410, 'widthPercent': 0.45, 'rescaleHeight': False, 'trialN': 61, 'loaded': True, 'loadedTime': 3149.300000011921, 'positionName': 'RIGHT', 'positionCoords': [832, 245], 'bid': 6.22}]",106436.40000000596,1669833629304,shreddedwheatwithmilk,roastedpotatoes,6.43,6.22,-0.20999999999999996,shreddedwheatwithmilk,976.0,977,977.1999999880791,True,u,107932.19999998808,1495.7999999821186,1669833630800,1496,HRV,HRV_0155,2022-11-30 18:43:44
62,"[{'imgObject': {}, 'id': 'burger', 'src': '/static/foodstim60/burger.jpg', 'key': 'u', 'origWidth': 409, 'origHeight': 409, 'width': 409, 'height': 409, 'widthPercent': 0.45, 'rescaleHeight': False, 'trialN': 62, 'loaded': True, 'loadedTime': 3476.699999988079, 'positionName': 'LEFT', 'positionCoords': [359, 245.5], 'bid': 5.21}, {'imgObject': {}, 'id': 'roastedpotatoes', 'src': '/static/foodstim60/roastedpotatoes.jpg', 'key': 'i', 'origWidth': 409, 'origHeight': 410, 'width': 409, 'height': 410, 'widthPercent': 0.45, 'rescaleHeight': False, 'trialN': 62, 'loaded': True, 'loadedTime': 3151.9000000059605, 'positionName': 'RIGHT', 'positionCoords': [832, 245], 'bid': 6.22}]",107932.69999998808,1669833630800,burger,roastedpotatoes,5.21,6.22,1.0099999999999998,roastedpotatoes,921.2000000178814,923,922.6000000238419,True,i,109362.40000000596,1429.7000000178814,1669833632230,1430,HRV,HRV_0155,2022-11-30 18:43:44
63,"[{'imgObject': {}, 'id': 'cheerios', 'src': '/static/foodstim60/cheerios.jpg', 'key': 'u', 'origWidth': 409, 'origHeight': 410, 'width': 409, 'height': 410, 'widthPercent': 0.45, 'rescaleHeight': False, 'trialN': 63, 'loaded': True, 'loadedTime': 3166.800000011921, 'positionName': 'LEFT', 'positionCoords': [359, 245], 'bid': 5.3100000000000005}, {'imgObject': {}, 'id': 'pear', 'src': '/static/foodstim60/pear.jpg', 'key': 'i', 'origWidth': 411, 'origHeight': 410, 'width': 411, 'height': 410, 'widthPercent': 0.45, 'rescaleHeight': False, 'trialN': 63, 'loaded': True, 'loadedTime': 2859, 'positionName': 'RIGHT', 'positionCoords': [832, 245], 'bid': 6.57}]",109363.0,1669833632231,cheerios,pear,5.3100000000000005,6.57,1.2599999999999998,pear,783.0999999940395,783,783.9000000059605,True,i,110653.40000000596,1290.4000000059605,1669833633521,1290,HRV,HRV_0155,2022-11-30 18:43:44
64,"[{'imgObject': {}, 'id': 'grilled chicken strips', 'src': '/static/foodstim60/grilled chicken strips.jpg', 'key': 'u', 'origWidth': 410, 'origHeight': 411, 'width': 410, 'height': 411, 'widthPercent': 0.45, 'rescaleHeight': False, 'trialN': 64, 'loaded': True, 'loadedTime': 3401.199999988079, 'positionName': 'LEFT', 'positionCoords': [358, 244.5], 'bid': 7.03}, {'imgObject': {}, 'id': 'bagel and cc', 'src': '/static/foodstim60/bagel and cc.jpg', 'key': 'i', 'origWidth': 410, 'origHeight': 410, 'width': 410, 'height': 410, 'widthPercent': 0.45, 'rescaleHeight': False, 'trialN': 64, 'loaded': True, 'loadedTime': 3359.5999999940395, 'positionName': 'RIGHT', 'positionCoords': [832, 245], 'bid': 7.01}]",110654.0,1669833633522,grilled chicken strips,bagel and cc,7.03,7.01,-0.020000000000000462,grilled chicken strips,965.4000000059605,966,966.5999999940395,True,u,112135.19999998808,1481.199999988079,1669833635003,1481,HRV,HRV_0155,2022-11-30 18:43:44
65,"[{'imgObject': {}, 'id': 'burrito', 'src': '/static/foodstim60/burrito.jpg', 'key': 'u', 'origWidth': 410, 'origHeight': 410, 'width': 410, 'height': 410, 'widthPercent': 0.45, 'rescaleHeight': False, 'trialN': 65, 'loaded': True, 'loadedTime': 3489.199999988079, 'positionName': 'LEFT', 'positionCoords': [358, 245], 'bid': 2.08}, {'imgObject': {}, 'id': 'mac & cheese', 'src': '/static/foodstim60/mac & cheese.jpg', 'key': 'i', 'origWidth': 410, 'origHeight': 410, 'width': 410, 'height': 410, 'widthPercent': 0.45, 'rescaleHeight': False, 'trialN': 65, 'loaded': True, 'loadedTime': 3369.0999999940395, 'positionName': 'RIGHT', 'positionCoords': [832, 245], 'bid': 2.85}]",112135.40000000596,1669833635003,burrito,mac & cheese,2.08,2.85,0.77,mac & cheese,1306.199999988079,1307,1306.7999999821186,True,i,113949.30000001192,1813.9000000059605,1669833636817,1814,HRV,HRV_0155,2022-11-30 18:43:44
66,"[{'imgObject': {}, 'id': 'lox', 'src': '/static/foodstim60/lox.jpg', 'key': 'u', 'origWidth': 410, 'origHeight': 411, 'width': 410, 'height': 411, 'widthPercent': 0.45, 'rescaleHeight': False, 'trialN': 66, 'loaded': True, 'loadedTime': 3299.9000000059605, 'positionName': 'LEFT', 'positionCoords': [358, 244.5], 'bid': 4.0600000000000005}, {'imgObject': {}, 'id': 'turkeysandwich', 'src': '/static/foodstim60/turkeysandwich.jpg', 'key': 'i', 'origWidth': 409, 'origHeight': 409, 'width': 409, 'height': 409, 'widthPercent': 0.45, 'rescaleHeight': False, 'trialN': 66, 'loaded': True, 'loadedTime': 3480, 'positionName': 'RIGHT', 'positionCoords': [832, 245.5], 'bid': 5.07}]",113949.80000001192,1669833636817,lox,turkeysandwich,4.0600000000000005,5.07,1.0099999999999998,lox,994.2999999821186,996,996.0,True,u,115447.80000001192,1498.0,1669833638315,1498,HRV,HRV_0155,2022-11-30 18:43:44
67,"[{'imgObject': {}, 'id': 'turkeysandwich', 'src': '/static/foodstim60/turkeysandwich.jpg', 'key': 'u', 'origWidth': 409, 'origHeight': 409, 'width': 409, 'height': 409, 'widthPercent': 0.45, 'rescaleHeight': False, 'trialN': 67, 'loaded': True, 'loadedTime': 3478.0999999940395, 'positionName': 'LEFT', 'positionCoords': [359, 245.5], 'bid': 5.07}, {'imgObject': {}, 'id': 'eggsalad', 'src': '/static/foodstim60/eggsalad.jpg', 'key': 'i', 'origWidth': 410, 'origHeight': 409, 'width': 410, 'height': 409, 'widthPercent': 0.45, 'rescaleHeight': False, 'trialN': 67, 'loaded': True, 'loadedTime': 3456.699999988079, 'positionName': 'RIGHT', 'positionCoords': [832, 245.5], 'bid': 1.14}]",115448.19999998808,1669833638316,turkeysandwich,eggsalad,5.07,1.14,-3.9300000000000006,turkeysandwich,831.6000000238419,833,832.9000000059605,True,u,116782.19999998808,1334.0,1669833639650,1334,HRV,HRV_0155,2022-11-30 18:43:44
68,"[{'imgObject': {}, 'id': 'blueberries', 'src': '/static/foodstim60/blueberries.jpg', 'key': 'u', 'origWidth': 411, 'origHeight': 411, 'width': 411, 'height': 411, 'widthPercent': 0.45, 'rescaleHeight': False, 'trialN': 68, 'loaded': True, 'loadedTime': 3237.699999988079, 'positionName': 'LEFT', 'positionCoords': [357, 244.5], 'bid': 7.47}, {'imgObject': {}, 'id': 'cantaloupe', 'src': '/static/foodstim60/cantaloupe.jpg', 'key': 'i', 'origWidth': 409, 'origHeight': 409, 'width': 409, 'height': 409, 'widthPercent': 0.45, 'rescaleHeight': False, 'trialN': 68, 'loaded': True, 'loadedTime': 2981.699999988079, 'positionName': 'RIGHT', 'positionCoords': [832, 245.5], 'bid': 7.32}]",116782.69999998808,1669833639650,blueberries,cantaloupe,7.47,7.32,-0.14999999999999947,blueberries,701.3000000119209,703,702.3000000119209,True,u,118004.40000000596,1221.7000000178814,1669833640872,1222,HRV,HRV_0155,2022-11-30 18:43:44
69,"[{'imgObject': {}, 'id': 'popsicles', 'src': '/static/foodstim60/popsicles.jpg', 'key': 'u', 'origWidth': 410, 'origHeight': 410, 'width': 410, 'height': 410, 'widthPercent': 0.45, 'rescaleHeight': False, 'trialN': 69, 'loaded': True, 'loadedTime': 3431.9000000059605, 'positionName': 'LEFT', 'positionCoords': [358, 245], 'bid': 7.98}, {'imgObject': {}, 'id': 'avocado', 'src': '/static/foodstim60/avocado.jpg', 'key': 'i', 'origWidth': 409, 'origHeight': 409, 'width': 409, 'height': 409, 'widthPercent': 0.45, 'rescaleHeight': False, 'trialN': 69, 'loaded': True, 'loadedTime': 3364.199999988079, 'positionName': 'RIGHT', 'positionCoords': [832, 245.5], 'bid': 7.22}]",118004.90000000596,1669833640873,popsicles,avocado,7.98,7.22,-0.7600000000000007,avocado,900.7999999821186,901,901.9000000059605,True,i,119410.19999998808,1405.2999999821186,1669833642278,1405,HRV,HRV_0155,2022-11-30 18:43:44
70,"[{'imgObject': {}, 'id': 'cantaloupe', 'src': '/static/foodstim60/cantaloupe.jpg', 'key': 'u', 'origWidth': 409, 'origHeight': 409, 'width': 409, 'height': 409, 'widthPercent': 0.45, 'rescaleHeight': False, 'trialN': 70, 'loaded': True, 'loadedTime': 2981.4000000059605, 'positionName': 'LEFT', 'positionCoords': [359, 245.5], 'bid': 7.32}, {'imgObject': {}, 'id': 'Grapes', 'src': '/static/foodstim60/Grapes.jpg', 'key': 'i', 'origWidth': 411, 'origHeight': 411, 'width': 411, 'height': 411, 'widthPercent': 0.45, 'rescaleHeight': False, 'trialN': 70, 'loaded': True, 'loadedTime': 3447.699999988079, 'positionName': 'RIGHT', 'positionCoords': [832, 244.5], 'bid': 7.92}]",119410.80000001192,1669833642278,cantaloupe,Grapes,7.32,7.92,0.5999999999999996,Grapes,723.3999999761581,725,725.0,True,i,120643.80000001192,1233.0,1669833643511,1233,HRV,HRV_0155,2022-11-30 18:43:44
71,"[{'imgObject': {}, 'id': 'hashbrowns', 'src': '/static/foodstim60/hashbrowns.jpg', 'key': 'u', 'origWidth': 411, 'origHeight': 410, 'width': 411, 'height': 410, 'widthPercent': 0.45, 'rescaleHeight': False, 'trialN': 71, 'loaded': True, 'loadedTime': 3306.699999988079, 'positionName': 'LEFT', 'positionCoords': [357, 245], 'bid': 4.89}, {'imgObject': {}, 'id': 'sushi w_condiments', 'src': '/static/foodstim60/sushi w_condiments.jpg', 'key': 'i', 'origWidth': 410, 'origHeight': 410, 'width': 410, 'height': 410, 'widthPercent': 0.45, 'rescaleHeight': False, 'trialN': 71, 'loaded': True, 'loadedTime': 2982.4000000059605, 'positionName': 'RIGHT', 'positionCoords': [832, 245], 'bid': 5.01}]",120644.30000001192,1669833643512,hashbrowns,sushi w_condiments,4.89,5.01,0.1200000000000001,hashbrowns,905.1999999880791,906,906.2999999821186,True,u,122064.19999998808,1419.8999999761581,1669833644932,1420,HRV,HRV_0155,2022-11-30 18:43:44
72,"[{'imgObject': {}, 'id': 'hotdog w must', 'src': '/static/foodstim60/hotdog w must.jpg', 'key': 'u', 'origWidth': 409, 'origHeight': 409, 'width': 409, 'height': 409, 'widthPercent': 0.45, 'rescaleHeight': False, 'trialN': 72, 'loaded': True, 'loadedTime': 3221.5, 'positionName': 'LEFT', 'positionCoords': [359, 245.5], 'bid': 3.71}, {'imgObject': {}, 'id': 'cheerios', 'src': '/static/foodstim60/cheerios.jpg', 'key': 'i', 'origWidth': 409, 'origHeight': 410, 'width': 409, 'height': 410, 'widthPercent': 0.45, 'rescaleHeight': False, 'trialN': 72, 'loaded': True, 'loadedTime': 3157.5, 'positionName': 'RIGHT', 'positionCoords': [832, 245], 'bid': 5.3100000000000005}]",122064.90000000596,1669833644932,hotdog w must,cheerios,3.71,5.3100000000000005,1.6000000000000005,hotdog w must,1845.199999988079,1847,1846.5,True,u,124421.5,2356.5999999940395,1669833647289,2357,HRV,HRV_0155,2022-11-30 18:43:44
73,"[{'imgObject': {}, 'id': 'orange slices', 'src': '/static/foodstim60/orange slices.jpg', 'key': 'u', 'origWidth': 409, 'origHeight': 410, 'width': 409, 'height': 410, 'widthPercent': 0.45, 'rescaleHeight': False, 'trialN': 73, 'loaded': True, 'loadedTime': 2976.9000000059605, 'positionName': 'LEFT', 'positionCoords': [359, 245], 'bid': 6.92}, {'imgObject': {}, 'id': 'cantaloupe', 'src': '/static/foodstim60/cantaloupe.jpg', 'key': 'i', 'origWidth': 409, 'origHeight': 409, 'width': 409, 'height': 409, 'widthPercent': 0.45, 'rescaleHeight': False, 'trialN': 73, 'loaded': True, 'loadedTime': 2980.800000011921, 'positionName': 'RIGHT', 'positionCoords': [832, 245.5], 'bid': 7.32}]",124422.0,1669833647290,orange slices,cantaloupe,6.92,7.32,0.40000000000000036,orange slices,1084.5,1085,1085.0999999940395,True,u,126020.09999999404,1598.0999999940395,1669833648888,1598,HRV,HRV_0155,2022-11-30 18:43:44
74,"[{'imgObject': {}, 'id': 'ice cream sundae 002', 'src': '/static/foodstim60/ice cream sundae 002.jpg', 'key': 'u', 'origWidth': 409, 'origHeight': 409, 'width': 409, 'height': 409, 'widthPercent': 0.45, 'rescaleHeight': False, 'trialN': 74, 'loaded': True, 'loadedTime': 3152.4000000059605, 'positionName': 'LEFT', 'positionCoords': [359, 245.5], 'bid': 7.91}, {'imgObject': {}, 'id': 'olives', 'src': '/static/foodstim60/olives.jpg', 'key': 'i', 'origWidth': 410, 'origHeight': 410, 'width': 410, 'height': 410, 'widthPercent': 0.45, 'rescaleHeight': False, 'trialN': 74, 'loaded': True, 'loadedTime': 3101.699999988079, 'positionName': 'RIGHT', 'positionCoords': [832, 245], 'bid': 7.31}]",126021.0,1669833648889,ice cream sundae 002,olives,7.91,7.31,-0.6000000000000005,olives,885.3000000119209,886,886.6999999880791,True,i,127419.19999998808,1398.199999988079,1669833650287,1398,HRV,HRV_0155,2022-11-30 18:43:44
75,"[{'imgObject': {}, 'id': 'blueberries', 'src': '/static/foodstim60/blueberries.jpg', 'key': 'u', 'origWidth': 411, 'origHeight': 411, 'width': 411, 'height': 411, 'widthPercent': 0.45, 'rescaleHeight': False, 'trialN': 75, 'loaded': True, 'loadedTime': 3239.0999999940395, 'positionName': 'LEFT', 'positionCoords': [357, 244.5], 'bid': 7.47}, {'imgObject': {}, 'id': 'apple slices', 'src': '/static/foodstim60/apple slices.jpg', 'key': 'i', 'origWidth': 409, 'origHeight': 410, 'width': 409, 'height': 410, 'widthPercent': 0.45, 'rescaleHeight': False, 'trialN': 75, 'loaded': True, 'loadedTime': 3450.4000000059605, 'positionName': 'RIGHT', 'positionCoords': [832, 245], 'bid': 6.92}]",127419.59999999404,1669833650287,blueberries,apple slices,7.47,6.92,-0.5499999999999998,apple slices,1412.2000000178814,1414,1413.4000000059605,True,i,129339.30000001192,1919.7000000178814,1669833652207,1920,HRV,HRV_0155,2022-11-30 18:43:44
76,"[{'imgObject': {}, 'id': 'turkeysandwich', 'src': '/static/foodstim60/turkeysandwich.jpg', 'key': 'u', 'origWidth': 409, 'origHeight': 409, 'width': 409, 'height': 409, 'widthPercent': 0.45, 'rescaleHeight': False, 'trialN': 76, 'loaded': True, 'loadedTime': 3484, 'positionName': 'LEFT', 'positionCoords': [359, 245.5], 'bid': 5.07}, {'imgObject': {}, 'id': 'edamame', 'src': '/static/foodstim60/edamame.jpg', 'key': 'i', 'origWidth': 409, 'origHeight': 410, 'width': 409, 'height': 410, 'widthPercent': 0.45, 'rescaleHeight': False, 'trialN': 76, 'loaded': True, 'loadedTime': 3495.199999988079, 'positionName': 'RIGHT', 'positionCoords': [832, 245], 'bid': 6.05}]",129339.69999998808,1669833652208,turkeysandwich,edamame,5.07,6.05,0.9799999999999995,turkeysandwich,1877.6000000238419,1878,1878.1000000238419,True,u,131729.90000000596,2390.2000000178814,1669833654598,2390,HRV,HRV_0155,2022-11-30 18:43:44
77,"[{'imgObject': {}, 'id': 'avocado', 'src': '/static/foodstim60/avocado.jpg', 'key': 'u', 'origWidth': 409, 'origHeight': 409, 'width': 409, 'height': 409, 'widthPercent': 0.45, 'rescaleHeight': False, 'trialN': 77, 'loaded': True, 'loadedTime': 3363.300000011921, 'positionName': 'LEFT', 'positionCoords': [359, 245.5], 'bid': 7.22}, {'imgObject': {}, 'id': 'raspberries', 'src': '/static/foodstim60/raspberries.jpg', 'key': 'i', 'origWidth': 411, 'origHeight': 411, 'width': 411, 'height': 411, 'widthPercent': 0.45, 'rescaleHeight': False, 'trialN': 77, 'loaded': True, 'loadedTime': 2998.9000000059605, 'positionName': 'RIGHT', 'positionCoords': [832, 244.5], 'bid': 7.18}]",131730.90000000596,1669833654599,avocado,raspberries,7.22,7.18,-0.040000000000000036,raspberries,821.0999999940395,822,822.2999999821186,True,i,133061.5,1330.5999999940395,1669833655929,1330,HRV,HRV_0155,2022-11-30 18:43:44
78,"[{'imgObject': {}, 'id': 'chicken nuggets2', 'src': '/static/foodstim60/chicken nuggets2.jpg', 'key': 'u', 'origWidth': 410, 'origHeight': 409, 'width': 410, 'height': 409, 'widthPercent': 0.45, 'rescaleHeight': False, 'trialN': 78, 'loaded': True, 'loadedTime': 3254.199999988079, 'positionName': 'LEFT', 'positionCoords': [358, 245.5], 'bid': 0.32}, {'imgObject': {}, 'id': 'seaweed', 'src': '/static/foodstim60/seaweed.jpg', 'key': 'i', 'origWidth': 410, 'origHeight': 410, 'width': 410, 'height': 410, 'widthPercent': 0.45, 'rescaleHeight': False, 'trialN': 78, 'loaded': True, 'loadedTime': 3368.800000011921, 'positionName': 'RIGHT', 'positionCoords': [832, 245], 'bid': 0.1}]",133062.0,1669833655930,chicken nuggets2,seaweed,0.32,0.1,-0.22,chicken nuggets2,825.5999999940395,826,826.6999999880791,True,u,134395.69999998808,1333.699999988079,1669833657264,1334,HRV,HRV_0155,2022-11-30 18:43:44
79,"[{'imgObject': {}, 'id': 'luckycharms', 'src': '/static/foodstim60/luckycharms.jpg', 'key': 'u', 'origWidth': 410, 'origHeight': 409, 'width': 410, 'height': 409, 'widthPercent': 0.45, 'rescaleHeight': False, 'trialN': 79, 'loaded': True, 'loadedTime': 3488.699999988079, 'positionName': 'LEFT', 'positionCoords': [358, 245.5], 'bid': 5.25}, {'imgObject': {}, 'id': 'shreddedwheatwithmilk', 'src': '/static/foodstim60/shreddedwheatwithmilk.jpg', 'key': 'i', 'origWidth': 410, 'origHeight': 410, 'width': 410, 'height': 410, 'widthPercent': 0.45, 'rescaleHeight': False, 'trialN': 79, 'loaded': True, 'loadedTime': 3329, 'positionName': 'RIGHT', 'positionCoords': [832, 245], 'bid': 6.43}]",134396.5,1669833657264,luckycharms,shreddedwheatwithmilk,5.25,6.43,1.1799999999999997,luckycharms,722.0999999940395,724,723.3000000119209,True,u,135629.80000001192,1233.300000011921,1669833658498,1234,HRV,HRV_0155,2022-11-30 18:43:44
80,"[{'imgObject': {}, 'id': 'ice cream sundae 002', 'src': '/static/foodstim60/ice cream sundae 002.jpg', 'key': 'u', 'origWidth': 409, 'origHeight': 409, 'width': 409, 'height': 409, 'widthPercent': 0.45, 'rescaleHeight': False, 'trialN': 80, 'loaded': True, 'loadedTime': 3153.699999988079, 'positionName': 'LEFT', 'positionCoords': [359, 245.5], 'bid': 7.91}, {'imgObject': {}, 'id': 'veggieswithdip', 'src': '/static/foodstim60/veggieswithdip.jpg', 'key': 'i', 'origWidth': 409, 'origHeight': 409, 'width': 409, 'height': 409, 'widthPercent': 0.45, 'rescaleHeight': False, 'trialN': 80, 'loaded': True, 'loadedTime': 3007.0999999940395, 'positionName': 'RIGHT', 'positionCoords': [832, 245.5], 'bid': 7.16}]",135630.30000001192,1669833658498,ice cream sundae 002,veggieswithdip,7.91,7.16,-0.75,veggieswithdip,759.0,760,759.5999999940395,True,i,136906.09999999404,1275.7999999821186,1669833659774,1276,HRV,HRV_0155,2022-11-30 18:43:44
81,"[{'imgObject': {}, 'id': 'cherries', 'src': '/static/foodstim60/cherries.jpg', 'key': 'u', 'origWidth': 410, 'origHeight': 411, 'width': 410, 'height': 411, 'widthPercent': 0.45, 'rescaleHeight': False, 'trialN': 81, 'loaded': True, 'loadedTime': 3394.300000011921, 'positionName': 'LEFT', 'positionCoords': [358, 244.5], 'bid': 6.25}, {'imgObject': {}, 'id': 'cocktailshrimp', 'src': '/static/foodstim60/cocktailshrimp.jpg', 'key': 'i', 'origWidth': 410, 'origHeight': 410, 'width': 410, 'height': 410, 'widthPercent': 0.45, 'rescaleHeight': False, 'trialN': 81, 'loaded': True, 'loadedTime': 3307.0999999940395, 'positionName': 'RIGHT', 'positionCoords': [832, 245], 'bid': 5.21}]",136906.5,1669833659774,cherries,cocktailshrimp,6.25,5.21,-1.04,cocktailshrimp,1181.199999988079,1182,1181.699999988079,True,i,138605.0,1698.5,1669833661473,1699,HRV,HRV_0155,2022-11-30 18:43:44
82,"[{'imgObject': {}, 'id': 'salad w chicken', 'src': '/static/foodstim60/salad w chicken.jpg', 'key': 'u', 'origWidth': 411, 'origHeight': 411, 'width': 411, 'height': 411, 'widthPercent': 0.45, 'rescaleHeight': False, 'trialN': 82, 'loaded': True, 'loadedTime': 3215.699999988079, 'positionName': 'LEFT', 'positionCoords': [357, 244.5], 'bid': 5.71}, {'imgObject': {}, 'id': 'Grapes', 'src': '/static/foodstim60/Grapes.jpg', 'key': 'i', 'origWidth': 411, 'origHeight': 411, 'width': 411, 'height': 411, 'widthPercent': 0.45, 'rescaleHeight': False, 'trialN': 82, 'loaded': True, 'loadedTime': 3445.5, 'positionName': 'RIGHT', 'positionCoords': [832, 244.5], 'bid': 7.92}]",138605.59999999404,1669833661473,salad w chicken,Grapes,5.71,7.92,2.21,Grapes,2472.9000000059605,2474,2473.5,True,i,141590.19999998808,2984.5999999940395,1669833664458,2985,HRV,HRV_0155,2022-11-30 18:43:44
83,"[{'imgObject': {}, 'id': 'apple slices', 'src': '/static/foodstim60/apple slices.jpg', 'key': 'u', 'origWidth': 409, 'origHeight': 410, 'width': 409, 'height': 410, 'widthPercent': 0.45, 'rescaleHeight': False, 'trialN': 83, 'loaded': True, 'loadedTime': 3449.9000000059605, 'positionName': 'LEFT', 'positionCoords': [359, 245], 'bid': 6.92}, {'imgObject': {}, 'id': 'eggs', 'src': '/static/foodstim60/eggs.jpg', 'key': 'i', 'origWidth': 409, 'origHeight': 409, 'width': 409, 'height': 409, 'widthPercent': 0.45, 'rescaleHeight': False, 'trialN': 83, 'loaded': True, 'loadedTime': 3208.0999999940395, 'positionName': 'RIGHT', 'positionCoords': [832, 245.5], 'bid': 4.05}]",141590.80000001192,1669833664459,apple slices,eggs,6.92,4.05,-2.87,apple slices,826.1999999880791,827,827.3999999761581,True,u,142933.0,1342.199999988079,1669833665801,1342,HRV,HRV_0155,2022-11-30 18:43:44
84,"[{'imgObject': {}, 'id': 'tacos', 'src': '/static/foodstim60/tacos.jpg', 'key': 'u', 'origWidth': 411, 'origHeight': 411, 'width': 411, 'height': 411, 'widthPercent': 0.45, 'rescaleHeight': False, 'trialN': 84, 'loaded': True, 'loadedTime': 3472.699999988079, 'positionName': 'LEFT', 'positionCoords': [357, 244.5], 'bid': 3.53}, {'imgObject': {}, 'id': 'mac & cheese', 'src': '/static/foodstim60/mac & cheese.jpg', 'key': 'i', 'origWidth': 410, 'origHeight': 410, 'width': 410, 'height': 410, 'widthPercent': 0.45, 'rescaleHeight': False, 'trialN': 84, 'loaded': True, 'loadedTime': 3376.9000000059605, 'positionName': 'RIGHT', 'positionCoords': [832, 245], 'bid': 2.85}]",142933.59999999404,1669833665801,tacos,mac & cheese,3.53,2.85,-0.6799999999999997,mac & cheese,785.9000000059605,787,786.4000000059605,True,i,144232.90000000596,1299.300000011921,1669833667101,1300,HRV,HRV_0155,2022-11-30 18:43:44
85,"[{'imgObject': {}, 'id': 'cherry tomato', 'src': '/static/foodstim60/cherry tomato.jpg', 'key': 'u', 'origWidth': 410, 'origHeight': 410, 'width': 410, 'height': 410, 'widthPercent': 0.45, 'rescaleHeight': False, 'trialN': 85, 'loaded': True, 'loadedTime': 3267.0999999940395, 'positionName': 'LEFT', 'positionCoords': [358, 245], 'bid': 1.95}, {'imgObject': {}, 'id': 'rigatoni', 'src': '/static/foodstim60/rigatoni.jpg', 'key': 'i', 'origWidth': 411, 'origHeight': 411, 'width': 411, 'height': 411, 'widthPercent': 0.45, 'rescaleHeight': False, 'trialN': 85, 'loaded': True, 'loadedTime': 3138.4000000059605, 'positionName': 'RIGHT', 'positionCoords': [832, 244.5], 'bid': 1.72}]",144233.19999998808,1669833667101,cherry tomato,rigatoni,1.95,1.72,-0.22999999999999998,rigatoni,1412.800000011921,1414,1414.0,True,i,146168.19999998808,1935.0,1669833669036,1935,HRV,HRV_0155,2022-11-30 18:43:44
86,"[{'imgObject': {}, 'id': 'granola w milk', 'src': '/static/foodstim60/granola w milk.jpg', 'key': 'u', 'origWidth': 410, 'origHeight': 410, 'width': 410, 'height': 410, 'widthPercent': 0.45, 'rescaleHeight': False, 'trialN': 86, 'loaded': True, 'loadedTime': 3496.800000011921, 'positionName': 'LEFT', 'positionCoords': [358, 245], 'bid': 5.11}, {'imgObject': {}, 'id': 'froot loops w milk', 'src': '/static/foodstim60/froot loops w milk.jpg', 'key': 'i', 'origWidth': 410, 'origHeight': 410, 'width': 410, 'height': 410, 'widthPercent': 0.45, 'rescaleHeight': False, 'trialN': 86, 'loaded': True, 'loadedTime': 3328.699999988079, 'positionName': 'RIGHT', 'positionCoords': [832, 245], 'bid': 6.21}]",146168.5,1669833669036,granola w milk,froot loops w milk,5.11,6.21,1.0999999999999996,froot loops w milk,1143.4000000059605,1145,1144.9000000059605,True,i,147826.90000000596,1658.4000000059605,1669833670695,1659,HRV,HRV_0155,2022-11-30 18:43:44
87,"[{'imgObject': {}, 'id': 'cherries', 'src': '/static/foodstim60/cherries.jpg', 'key': 'u', 'origWidth': 410, 'origHeight': 411, 'width': 410, 'height': 411, 'widthPercent': 0.45, 'rescaleHeight': False, 'trialN': 87, 'loaded': True, 'loadedTime': 3394.800000011921, 'positionName': 'LEFT', 'positionCoords': [358, 244.5], 'bid': 6.25}, {'imgObject': {}, 'id': 'avocado', 'src': '/static/foodstim60/avocado.jpg', 'key': 'i', 'origWidth': 409, 'origHeight': 409, 'width': 409, 'height': 409, 'widthPercent': 0.45, 'rescaleHeight': False, 'trialN': 87, 'loaded': True, 'loadedTime': 3363.5, 'positionName': 'RIGHT', 'positionCoords': [832, 245.5], 'bid': 7.22}]",147827.69999998808,1669833670695,cherries,avocado,6.25,7.22,0.9699999999999998,avocado,954.0,956,955.0,True,i,149299.5,1471.800000011921,1669833672167,1472,HRV,HRV_0155,2022-11-30 18:43:44
88,"[{'imgObject': {}, 'id': 'banana', 'src': '/static/foodstim60/banana.jpg', 'key': 'u', 'origWidth': 410, 'origHeight': 410, 'width': 410, 'height': 410, 'widthPercent': 0.45, 'rescaleHeight': False, 'trialN': 88, 'loaded': True, 'loadedTime': 3302.5, 'positionName': 'LEFT', 'positionCoords': [358, 245], 'bid': 7.13}, {'imgObject': {}, 'id': 'chickenfingers', 'src': '/static/foodstim60/chickenfingers.jpg', 'key': 'i', 'origWidth': 410, 'origHeight': 410, 'width': 410, 'height': 410, 'widthPercent': 0.45, 'rescaleHeight': False, 'trialN': 88, 'loaded': True, 'loadedTime': 3061.800000011921, 'positionName': 'RIGHT', 'positionCoords': [832, 245], 'bid': 6.71}]",149300.0,1669833672168,banana,chickenfingers,7.13,6.71,-0.41999999999999993,chickenfingers,1141.300000011921,1142,1142.5,True,i,150957.90000000596,1657.9000000059605,1669833673826,1658,HRV,HRV_0155,2022-11-30 18:43:44
89,"[{'imgObject': {}, 'id': 'baked potato', 'src': '/static/foodstim60/baked potato.jpg', 'key': 'u', 'origWidth': 409, 'origHeight': 410, 'width': 409, 'height': 410, 'widthPercent': 0.45, 'rescaleHeight': False, 'trialN': 89, 'loaded': True, 'loadedTime': 3397.5999999940395, 'positionName': 'LEFT', 'positionCoords': [359, 245], 'bid': 4.16}, {'imgObject': {}, 'id': 'lox', 'src': '/static/foodstim60/lox.jpg', 'key': 'i', 'origWidth': 410, 'origHeight': 411, 'width': 410, 'height': 411, 'widthPercent': 0.45, 'rescaleHeight': False, 'trialN': 89, 'loaded': True, 'loadedTime': 3291.800000011921, 'positionName': 'RIGHT', 'positionCoords': [832, 244.5], 'bid': 4.0600000000000005}]",150958.5,1669833673826,baked potato,lox,4.16,4.0600000000000005,-0.09999999999999964,lox,1644.0,1646,1645.5,True,i,153123.19999998808,2164.699999988079,1669833675991,2165,HRV,HRV_0155,2022-11-30 18:43:44
90,"[{'imgObject': {}, 'id': 'mac & cheese', 'src': '/static/foodstim60/mac & cheese.jpg', 'key': 'u', 'origWidth': 410, 'origHeight': 410, 'width': 410, 'height': 410, 'widthPercent': 0.45, 'rescaleHeight': False, 'trialN': 90, 'loaded': True, 'loadedTime': 3377.9000000059605, 'positionName': 'LEFT', 'positionCoords': [358, 245], 'bid': 2.85}, {'imgObject': {}, 'id': 'luckycharms', 'src': '/static/foodstim60/luckycharms.jpg', 'key': 'i', 'origWidth': 410, 'origHeight': 409, 'width': 410, 'height': 409, 'widthPercent': 0.45, 'rescaleHeight': False, 'trialN': 90, 'loaded': True, 'loadedTime': 3486, 'positionName': 'RIGHT', 'positionCoords': [832, 245.5], 'bid': 5.25}]",169416.40000000596,1669833692284,mac & cheese,luckycharms,2.85,5.25,2.4,luckycharms,1500.0,1502,1501.5,True,i,171418.40000000596,2002.0,1669833694286,2002,HRV,HRV_0155,2022-11-30 18:43:44
91,"[{'imgObject': {}, 'id': 'raisin bran w milk', 'src': '/static/foodstim60/raisin bran w milk.jpg', 'key': 'u', 'origWidth': 411, 'origHeight': 411, 'width': 411, 'height': 411, 'widthPercent': 0.45, 'rescaleHeight': False, 'trialN': 91, 'loaded': True, 'loadedTime': 3344.5999999940395, 'positionName': 'LEFT', 'positionCoords': [357, 244.5], 'bid': 5.8}, {'imgObject': {}, 'id': 'salad w chicken', 'src': '/static/foodstim60/salad w chicken.jpg', 'key': 'i', 'origWidth': 411, 'origHeight': 411, 'width': 411, 'height': 411, 'widthPercent': 0.45, 'rescaleHeight': False, 'trialN': 91, 'loaded': True, 'loadedTime': 3216.800000011921, 'positionName': 'RIGHT', 'positionCoords': [832, 244.5], 'bid': 5.71}]",171418.90000000596,1669833694287,raisin bran w milk,salad w chicken,5.8,5.71,-0.08999999999999986,raisin bran w milk,1296.4000000059605,1297,1297.699999988079,True,u,173227.09999999404,1808.199999988079,1669833696095,1808,HRV,HRV_0155,2022-11-30 18:43:44
92,"[{'imgObject': {}, 'id': 'fruitsalad', 'src': '/static/foodstim60/fruitsalad.jpg', 'key': 'u', 'origWidth': 410, 'origHeight': 410, 'width': 410, 'height': 410, 'widthPercent': 0.45, 'rescaleHeight': False, 'trialN': 92, 'loaded': True, 'loadedTime': 3007.699999988079, 'positionName': 'LEFT', 'positionCoords': [358, 245], 'bid': 7.58}, {'imgObject': {}, 'id': 'blueberries', 'src': '/static/foodstim60/blueberries.jpg', 'key': 'i', 'origWidth': 411, 'origHeight': 411, 'width': 411, 'height': 411, 'widthPercent': 0.45, 'rescaleHeight': False, 'trialN': 92, 'loaded': True, 'loadedTime': 3247.300000011921, 'positionName': 'RIGHT', 'positionCoords': [832, 244.5], 'bid': 7.47}]",173227.5,1669833696095,fruitsalad,blueberries,7.58,7.47,-0.11000000000000032,fruitsalad,1038.0,1039,1038.5999999940395,True,u,174781.30000001192,1553.800000011921,1669833697649,1554,HRV,HRV_0155,2022-11-30 18:43:44
93,"[{'imgObject': {}, 'id': 'cherry tomato', 'src': '/static/foodstim60/cherry tomato.jpg', 'key': 'u', 'origWidth': 410, 'origHeight': 410, 'width': 410, 'height': 410, 'widthPercent': 0.45, 'rescaleHeight': False, 'trialN': 93, 'loaded': True, 'loadedTime': 3266.199999988079, 'positionName': 'LEFT', 'positionCoords': [358, 245], 'bid': 1.95}, {'imgObject': {}, 'id': 'eggsalad', 'src': '/static/foodstim60/eggsalad.jpg', 'key': 'i', 'origWidth': 410, 'origHeight': 409, 'width': 410, 'height': 409, 'widthPercent': 0.45, 'rescaleHeight': False, 'trialN': 93, 'loaded': True, 'loadedTime': 3458.699999988079, 'positionName': 'RIGHT', 'positionCoords': [832, 245.5], 'bid': 1.14}]",174781.69999998808,1669833697650,cherry tomato,eggsalad,1.95,1.14,-0.81,cherry tomato,779.5,780,780.5,True,u,176077.80000001192,1296.1000000238419,1669833698946,1296,HRV,HRV_0155,2022-11-30 18:43:44
94,"[{'imgObject': {}, 'id': 'shreddedwheatwithmilk', 'src': '/static/foodstim60/shreddedwheatwithmilk.jpg', 'key': 'u', 'origWidth': 410, 'origHeight': 410, 'width': 410, 'height': 410, 'widthPercent': 0.45, 'rescaleHeight': False, 'trialN': 94, 'loaded': True, 'loadedTime': 3341.5999999940395, 'positionName': 'LEFT', 'positionCoords': [358, 245], 'bid': 6.43}, {'imgObject': {}, 'id': 'cherries', 'src': '/static/foodstim60/cherries.jpg', 'key': 'i', 'origWidth': 410, 'origHeight': 411, 'width': 410, 'height': 411, 'widthPercent': 0.45, 'rescaleHeight': False, 'trialN': 94, 'loaded': True, 'loadedTime': 3394.4000000059605, 'positionName': 'RIGHT', 'positionCoords': [832, 244.5], 'bid': 6.25}]",176078.19999998808,1669833698946,shreddedwheatwithmilk,cherries,6.43,6.25,-0.17999999999999972,cherries,1119.9000000059605,1121,1120.800000011921,True,i,177708.40000000596,1630.2000000178814,1669833700576,1630,HRV,HRV_0155,2022-11-30 18:43:44
95,"[{'imgObject': {}, 'id': 'turkey sandwich', 'src': '/static/foodstim60/turkey sandwich.jpg', 'key': 'u', 'origWidth': 409, 'origHeight': 409, 'width': 409, 'height': 409, 'widthPercent': 0.45, 'rescaleHeight': False, 'trialN': 95, 'loaded': True, 'loadedTime': 2927.699999988079, 'positionName': 'LEFT', 'positionCoords': [359, 245.5], 'bid': 5.25}, {'imgObject': {}, 'id': 'tacos', 'src': '/static/foodstim60/tacos.jpg', 'key': 'i', 'origWidth': 411, 'origHeight': 411, 'width': 411, 'height': 411, 'widthPercent': 0.45, 'rescaleHeight': False, 'trialN': 95, 'loaded': True, 'loadedTime': 3472.300000011921, 'positionName': 'RIGHT', 'positionCoords': [832, 244.5], 'bid': 3.53}]",177708.90000000596,1669833700577,turkey sandwich,tacos,5.25,3.53,-1.7200000000000002,turkey sandwich,1034.4000000059605,1035,1035.5,True,u,179257.69999998808,1548.7999999821186,1669833702125,1548,HRV,HRV_0155,2022-11-30 18:43:44
96,"[{'imgObject': {}, 'id': 'granola w milk', 'src': '/static/foodstim60/granola w milk.jpg', 'key': 'u', 'origWidth': 410, 'origHeight': 410, 'width': 410, 'height': 410, 'widthPercent': 0.45, 'rescaleHeight': False, 'trialN': 96, 'loaded': True, 'loadedTime': 3497.300000011921, 'positionName': 'LEFT', 'positionCoords': [358, 245], 'bid': 5.11}, {'imgObject': {}, 'id': 'blackbeanswithrice', 'src': '/static/foodstim60/blackbeanswithrice.jpg', 'key': 'i', 'origWidth': 410, 'origHeight': 410, 'width': 410, 'height': 410, 'widthPercent': 0.45, 'rescaleHeight': False, 'trialN': 96, 'loaded': True, 'loadedTime': 3260.800000011921, 'positionName': 'RIGHT', 'positionCoords': [832, 245], 'bid': 4.67}]",179257.90000000596,1669833702126,granola w milk,blackbeanswithrice,5.11,4.67,-0.4400000000000004,granola w milk,927.9000000059605,928,928.5,True,u,180701.09999999404,1443.199999988079,1669833703569,1443,HRV,HRV_0155,2022-11-30 18:43:44
97,"[{'imgObject': {}, 'id': 'orange slices', 'src': '/static/foodstim60/orange slices.jpg', 'key': 'u', 'origWidth': 409, 'origHeight': 410, 'width': 409, 'height': 410, 'widthPercent': 0.45, 'rescaleHeight': False, 'trialN': 97, 'loaded': True, 'loadedTime': 2975.199999988079, 'positionName': 'LEFT', 'positionCoords': [359, 245], 'bid': 6.92}, {'imgObject': {}, 'id': 'Tribe humus pita', 'src': '/static/foodstim60/Tribe humus pita.jpg', 'key': 'i', 'origWidth': 411, 'origHeight': 411, 'width': 411, 'height': 411, 'widthPercent': 0.45, 'rescaleHeight': False, 'trialN': 97, 'loaded': True, 'loadedTime': 3144.5999999940395, 'positionName': 'RIGHT', 'positionCoords': [832, 244.5], 'bid': 6.51}]",180701.40000000596,1669833703569,orange slices,Tribe humus pita,6.92,6.51,-0.41000000000000014,orange slices,779.6999999880791,780,780.1999999880791,True,u,181987.40000000596,1286.0,1669833704855,1286,HRV,HRV_0155,2022-11-30 18:43:44
98,"[{'imgObject': {}, 'id': 'mango', 'src': '/static/foodstim60/mango.jpg', 'key': 'u', 'origWidth': 411, 'origHeight': 411, 'width': 411, 'height': 411, 'widthPercent': 0.45, 'rescaleHeight': False, 'trialN': 98, 'loaded': True, 'loadedTime': 2988.0999999940395, 'positionName': 'LEFT', 'positionCoords': [357, 244.5], 'bid': 6.18}, {'imgObject': {}, 'id': 'chicken nuggets2', 'src': '/static/foodstim60/chicken nuggets2.jpg', 'key': 'i', 'origWidth': 410, 'origHeight': 409, 'width': 410, 'height': 409, 'widthPercent': 0.45, 'rescaleHeight': False, 'trialN': 98, 'loaded': True, 'loadedTime': 3259.300000011921, 'positionName': 'RIGHT', 'positionCoords': [832, 245.5], 'bid': 0.32}]",181987.80000001192,1669833704856,mango,chicken nuggets2,6.18,0.32,-5.859999999999999,chicken nuggets2,1114.7999999821186,1116,1116.0,True,i,183608.5,1620.699999988079,1669833706476,1620,HRV,HRV_0155,2022-11-30 18:43:44
99,"[{'imgObject': {}, 'id': 'grilled chicken strips', 'src': '/static/foodstim60/grilled chicken strips.jpg', 'key': 'u', 'origWidth': 410, 'origHeight': 411, 'width': 410, 'height': 411, 'widthPercent': 0.45, 'rescaleHeight': False, 'trialN': 99, 'loaded': True, 'loadedTime': 3399.800000011921, 'positionName': 'LEFT', 'positionCoords': [358, 244.5], 'bid': 7.03}, {'imgObject': {}, 'id': 'edamame', 'src': '/static/foodstim60/edamame.jpg', 'key': 'i', 'origWidth': 409, 'origHeight': 410, 'width': 409, 'height': 410, 'widthPercent': 0.45, 'rescaleHeight': False, 'trialN': 99, 'loaded': True, 'loadedTime': 3495, 'positionName': 'RIGHT', 'positionCoords': [832, 245], 'bid': 6.05}]",183609.19999998808,1669833706477,grilled chicken strips,edamame,7.03,6.05,-0.9800000000000004,grilled chicken strips,1035.1000000238419,1036,1036.1000000238419,True,u,185164.69999998808,1555.5,1669833708033,1556,HRV,HRV_0155,2022-11-30 18:43:44
100,"[{'imgObject': {}, 'id': 'baked potato', 'src': '/static/foodstim60/baked potato.jpg', 'key': 'u', 'origWidth': 409, 'origHeight': 410, 'width': 409, 'height': 410, 'widthPercent': 0.45, 'rescaleHeight': False, 'trialN': 100, 'loaded': True, 'loadedTime': 3397.4000000059605, 'positionName': 'LEFT', 'positionCoords': [359, 245], 'bid': 4.16}, {'imgObject': {}, 'id': 'seaweed', 'src': '/static/foodstim60/seaweed.jpg', 'key': 'i', 'origWidth': 410, 'origHeight': 410, 'width': 410, 'height': 410, 'widthPercent': 0.45, 'rescaleHeight': False, 'trialN': 100, 'loaded': True, 'loadedTime': 3367.9000000059605, 'positionName': 'RIGHT', 'positionCoords': [832, 245], 'bid': 0.1}]",185165.09999999404,1669833708033,baked potato,seaweed,4.16,0.1,-4.0600000000000005,baked potato,913.0999999940395,914,914.0,True,u,186586.09999999404,1421.0,1669833709454,1421,HRV,HRV_0155,2022-11-30 18:43:44
101,"[{'imgObject': {}, 'id': 'sweetpotato', 'src': '/static/foodstim60/sweetpotato.jpg', 'key': 'u', 'origWidth': 410, 'origHeight': 410, 'width': 410, 'height': 410, 'widthPercent': 0.45, 'rescaleHeight': False, 'trialN': 101, 'loaded': True, 'loadedTime': 3250.199999988079, 'positionName': 'LEFT', 'positionCoords': [358, 245], 'bid': 7.22}, {'imgObject': {}, 'id': 'olives', 'src': '/static/foodstim60/olives.jpg', 'key': 'i', 'origWidth': 410, 'origHeight': 410, 'width': 410, 'height': 410, 'widthPercent': 0.45, 'rescaleHeight': False, 'trialN': 101, 'loaded': True, 'loadedTime': 3117.699999988079, 'positionName': 'RIGHT', 'positionCoords': [832, 245], 'bid': 7.31}]",186586.5,1669833709454,sweetpotato,olives,7.22,7.31,0.08999999999999986,olives,1337.800000011921,1331,1338.800000011921,True,i,188437.5,1851.0,1669833711297,1843,HRV,HRV_0155,2022-11-30 18:43:44
102,"[{'imgObject': {}, 'id': 'roastedpotatoes', 'src': '/static/foodstim60/roastedpotatoes.jpg', 'key': 'u', 'origWidth': 409, 'origHeight': 410, 'width': 409, 'height': 410, 'widthPercent': 0.45, 'rescaleHeight': False, 'trialN': 102, 'loaded': True, 'loadedTime': 3150.300000011921, 'positionName': 'LEFT', 'positionCoords': [359, 245], 'bid': 6.22}, {'imgObject': {}, 'id': 'mashed potato', 'src': '/static/foodstim60/mashed potato.jpg', 'key': 'i', 'origWidth': 409, 'origHeight': 409, 'width': 409, 'height': 409, 'widthPercent': 0.45, 'rescaleHeight': False, 'trialN': 102, 'loaded': True, 'loadedTime': 3442.4000000059605, 'positionName': 'RIGHT', 'positionCoords': [832, 245.5], 'bid': 0.63}]",188438.40000000596,1669833711298,roastedpotatoes,mashed potato,6.22,0.63,-5.59,roastedpotatoes,674.6999999880791,675,675.2999999821186,True,u,189618.30000001192,1179.9000000059605,1669833712478,1180,HRV,HRV_0155,2022-11-30 18:43:44
103,"[{'imgObject': {}, 'id': 'cocktailshrimp', 'src': '/static/foodstim60/cocktailshrimp.jpg', 'key': 'u', 'origWidth': 410, 'origHeight': 410, 'width': 410, 'height': 410, 'widthPercent': 0.45, 'rescaleHeight': False, 'trialN': 103, 'loaded': True, 'loadedTime': 3310.0999999940395, 'positionName': 'LEFT', 'positionCoords': [358, 245], 'bid': 5.21}, {'imgObject': {}, 'id': 'salmon', 'src': '/static/foodstim60/salmon.jpg', 'key': 'i', 'origWidth': 410, 'origHeight': 409, 'width': 410, 'height': 409, 'widthPercent': 0.45, 'rescaleHeight': False, 'trialN': 103, 'loaded': True, 'loadedTime': 3497.5, 'positionName': 'RIGHT', 'positionCoords': [832, 245.5], 'bid': 2.56}]",189618.90000000596,1669833712479,cocktailshrimp,salmon,5.21,2.56,-2.65,cocktailshrimp,1455.699999988079,1457,1457.5,True,u,191598.19999998808,1979.2999999821186,1669833714458,1979,HRV,HRV_0155,2022-11-30 18:43:44
104,"[{'imgObject': {}, 'id': 'rigatoni', 'src': '/static/foodstim60/rigatoni.jpg', 'key': 'u', 'origWidth': 411, 'origHeight': 411, 'width': 411, 'height': 411, 'widthPercent': 0.45, 'rescaleHeight': False, 'trialN': 104, 'loaded': True, 'loadedTime': 3140.5999999940395, 'positionName': 'LEFT', 'positionCoords': [357, 244.5], 'bid': 1.72}, {'imgObject': {}, 'id': 'fried eggs', 'src': '/static/foodstim60/fried eggs.jpg', 'key': 'i', 'origWidth': 410, 'origHeight': 410, 'width': 410, 'height': 410, 'widthPercent': 0.45, 'rescaleHeight': False, 'trialN': 104, 'loaded': True, 'loadedTime': 2994, 'positionName': 'RIGHT', 'positionCoords': [832, 245], 'bid': 5.1000000000000005}]",191598.59999999404,1669833714458,rigatoni,fried eggs,1.72,5.1000000000000005,3.380000000000001,rigatoni,1406.300000011921,1408,1408.0999999940395,True,u,193518.69999998808,1920.0999999940395,1669833716378,1920,HRV,HRV_0155,2022-11-30 18:43:44
105,"[{'imgObject': {}, 'id': 'steak', 'src': '/static/foodstim60/steak.jpg', 'key': 'u', 'origWidth': 410, 'origHeight': 410, 'width': 410, 'height': 410, 'widthPercent': 0.45, 'rescaleHeight': False, 'trialN': 105, 'loaded': True, 'loadedTime': 3000.9000000059605, 'positionName': 'LEFT', 'positionCoords': [358, 245], 'bid': 7.51}, {'imgObject': {}, 'id': 'bagel and cc', 'src': '/static/foodstim60/bagel and cc.jpg', 'key': 'i', 'origWidth': 410, 'origHeight': 410, 'width': 410, 'height': 410, 'widthPercent': 0.45, 'rescaleHeight': False, 'trialN': 105, 'loaded': True, 'loadedTime': 3359.300000011921, 'positionName': 'RIGHT', 'positionCoords': [832, 245], 'bid': 7.01}]",193519.19999998808,1669833716379,steak,bagel and cc,7.51,7.01,-0.5,steak,721.2000000178814,722,722.3000000119209,True,u,194757.30000001192,1238.1000000238419,1669833717617,1238,HRV,HRV_0155,2022-11-30 18:43:44
106,"[{'imgObject': {}, 'id': 'kiwi', 'src': '/static/foodstim60/kiwi.jpg', 'key': 'u', 'origWidth': 410, 'origHeight': 410, 'width': 410, 'height': 410, 'widthPercent': 0.45, 'rescaleHeight': False, 'trialN': 106, 'loaded': True, 'loadedTime': 3452.5999999940395, 'positionName': 'LEFT', 'positionCoords': [358, 245], 'bid': 6.67}, {'imgObject': {}, 'id': 'salmon', 'src': '/static/foodstim60/salmon.jpg', 'key': 'i', 'origWidth': 410, 'origHeight': 409, 'width': 410, 'height': 409, 'widthPercent': 0.45, 'rescaleHeight': False, 'trialN': 106, 'loaded': True, 'loadedTime': 3499.300000011921, 'positionName': 'RIGHT', 'positionCoords': [832, 245.5], 'bid': 2.56}]",194757.80000001192,1669833717617,kiwi,salmon,6.67,2.56,-4.109999999999999,kiwi,1167.699999988079,1169,1168.5,True,u,196441.19999998808,1683.3999999761581,1669833719301,1684,HRV,HRV_0155,2022-11-30 18:43:44
107,"[{'imgObject': {}, 'id': 'hotdog w must', 'src': '/static/foodstim60/hotdog w must.jpg', 'key': 'u', 'origWidth': 409, 'origHeight': 409, 'width': 409, 'height': 409, 'widthPercent': 0.45, 'rescaleHeight': False, 'trialN': 107, 'loaded': True, 'loadedTime': 3221.199999988079, 'positionName': 'LEFT', 'positionCoords': [359, 245.5], 'bid': 3.71}, {'imgObject': {}, 'id': 'yogurt no spoon', 'src': '/static/foodstim60/yogurt no spoon.jpg', 'key': 'i', 'origWidth': 411, 'origHeight': 410, 'width': 411, 'height': 410, 'widthPercent': 0.45, 'rescaleHeight': False, 'trialN': 107, 'loaded': True, 'loadedTime': 3020.9000000059605, 'positionName': 'RIGHT', 'positionCoords': [832, 245], 'bid': 4.95}]",196441.5,1669833719301,hotdog w must,yogurt no spoon,3.71,4.95,1.2400000000000002,hotdog w must,949.1999999880791,951,950.5,True,u,197904.5,1463.0,1669833720764,1463,HRV,HRV_0155,2022-11-30 18:43:44
108,"[{'imgObject': {}, 'id': 'burrito', 'src': '/static/foodstim60/burrito.jpg', 'key': 'u', 'origWidth': 410, 'origHeight': 410, 'width': 410, 'height': 410, 'widthPercent': 0.45, 'rescaleHeight': False, 'trialN': 108, 'loaded': True, 'loadedTime': 3492.5999999940395, 'positionName': 'LEFT', 'positionCoords': [358, 245], 'bid': 2.08}, {'imgObject': {}, 'id': 'corn cob', 'src': '/static/foodstim60/corn cob.jpg', 'key': 'i', 'origWidth': 411, 'origHeight': 411, 'width': 411, 'height': 411, 'widthPercent': 0.45, 'rescaleHeight': False, 'trialN': 108, 'loaded': True, 'loadedTime': 3225.0999999940395, 'positionName': 'RIGHT', 'positionCoords': [832, 244.5], 'bid': 0.62}]",197905.0,1669833720765,burrito,corn cob,2.08,0.62,-1.46,burrito,1652.9000000059605,1654,1654.199999988079,True,u,200067.0,2162.0,1669833722927,2162,HRV,HRV_0155,2022-11-30 18:43:44
