trialN,stimuli,question,trialStartTime,trialStartTime_UNIX,stimulus1,rt,receivedResponse,rating,trialEndTime,trialDuration,stimulus1Loaded,exp,subjectId,date
0,"[{'imgObject': {}, 'id': 'bagel and cc', 'src': '/static/foodstim60/bagel and cc.jpg', 'key': 'NaN', 'origWidth': 410, 'origHeight': 410, 'width': 410, 'height': 410, 'widthPercent': 0.8, 'rescaleHeight': True, 'trialN': 0, 'loaded': True, 'loadedTime': 3965.300000011921, 'positionName': 'CENTER', 'positionCoords': [595, 245]}]",Rate how much you want to eat this food from 0 (least) to 10 (most).,5196.4000000059605,1669833079064,bagel and cc,2389.0,True,7.42,7585.4000000059605,2389.0,True,HRV,HRV_0155,2022-11-30 18:33:28
1,"[{'imgObject': {}, 'id': 'omelette', 'src': '/static/foodstim60/omelette.jpg', 'key': 'NaN', 'origWidth': 410, 'origHeight': 409, 'width': 410, 'height': 409, 'widthPercent': 0.8, 'rescaleHeight': True, 'trialN': 1, 'loaded': True, 'loadedTime': 3950.5, 'positionName': 'CENTER', 'positionCoords': [595, 245.5]}]",Rate how much you want to eat this food from 0 (least) to 10 (most).,7596.199999988079,1669833081464,omelette,1440.800000011921,True,6.73,9037.0,1440.800000011921,True,HRV,HRV_0155,2022-11-30 18:33:28
2,"[{'imgObject': {}, 'id': 'mac & cheese', 'src': '/static/foodstim60/mac & cheese.jpg', 'key': 'NaN', 'origWidth': 410, 'origHeight': 410, 'width': 410, 'height': 410, 'widthPercent': 0.8, 'rescaleHeight': True, 'trialN': 2, 'loaded': True, 'loadedTime': 4165.0999999940395, 'positionName': 'CENTER', 'positionCoords': [595, 245]}]",Rate how much you want to eat this food from 0 (least) to 10 (most).,9038.59999999404,1669833082906,mac & cheese,1778.800000011921,True,0.96,10817.40000000596,1778.800000011921,True,HRV,HRV_0155,2022-11-30 18:33:28
3,"[{'imgObject': {}, 'id': 'bagel plain', 'src': '/static/foodstim60/bagel plain.jpg', 'key': 'NaN', 'origWidth': 410, 'origHeight': 410, 'width': 410, 'height': 410, 'widthPercent': 0.8, 'rescaleHeight': True, 'trialN': 3, 'loaded': True, 'loadedTime': 4003.9000000059605, 'positionName': 'CENTER', 'positionCoords': [595, 245]}]",Rate how much you want to eat this food from 0 (least) to 10 (most).,10819.09999999404,1669833084687,bagel plain,1498.2000000178814,True,7.16,12317.300000011921,1498.2000000178814,True,HRV,HRV_0155,2022-11-30 18:33:28
4,"[{'imgObject': {}, 'id': 'popsicles', 'src': '/static/foodstim60/popsicles.jpg', 'key': 'NaN', 'origWidth': 410, 'origHeight': 410, 'width': 410, 'height': 410, 'widthPercent': 0.8, 'rescaleHeight': True, 'trialN': 4, 'loaded': True, 'loadedTime': 3980.199999988079, 'positionName': 'CENTER', 'positionCoords': [595, 245]}]",Rate how much you want to eat this food from 0 (least) to 10 (most).,12320.0,1669833086188,popsicles,2421.5999999940395,True,9.0,14741.59999999404,2421.5999999940395,True,HRV,HRV_0155,2022-11-30 18:33:28
5,"[{'imgObject': {}, 'id': 'seaweed', 'src': '/static/foodstim60/seaweed.jpg', 'key': 'NaN', 'origWidth': 410, 'origHeight': 410, 'width': 410, 'height': 410, 'widthPercent': 0.8, 'rescaleHeight': True, 'trialN': 5, 'loaded': True, 'loadedTime': 4037, 'positionName': 'CENTER', 'positionCoords': [595, 245]}]",Rate how much you want to eat this food from 0 (least) to 10 (most).,14744.59999999404,1669833088612,seaweed,2208.2000000178814,True,0.17,16952.80000001192,2208.2000000178814,True,HRV,HRV_0155,2022-11-30 18:33:28
6,"[{'imgObject': {}, 'id': 'raspberries', 'src': '/static/foodstim60/raspberries.jpg', 'key': 'NaN', 'origWidth': 411, 'origHeight': 411, 'width': 411, 'height': 411, 'widthPercent': 0.8, 'rescaleHeight': True, 'trialN': 6, 'loaded': True, 'loadedTime': 4025.5999999940395, 'positionName': 'CENTER', 'positionCoords': [594.5, 244.5]}]",Rate how much you want to eat this food from 0 (least) to 10 (most).,16954.40000000596,1669833090822,raspberries,2530.9000000059605,True,9.03,19485.30000001192,2530.9000000059605,True,HRV,HRV_0155,2022-11-30 18:33:28
7,"[{'imgObject': {}, 'id': 'salmon', 'src': '/static/foodstim60/salmon.jpg', 'key': 'NaN', 'origWidth': 410, 'origHeight': 409, 'width': 410, 'height': 409, 'widthPercent': 0.8, 'rescaleHeight': True, 'trialN': 7, 'loaded': True, 'loadedTime': 4039.4000000059605, 'positionName': 'CENTER', 'positionCoords': [595, 245.5]}]",Rate how much you want to eat this food from 0 (least) to 10 (most).,19487.19999998808,1669833093355,salmon,1938.4000000059605,True,4.07,21425.59999999404,1938.4000000059605,True,HRV,HRV_0155,2022-11-30 18:33:28
8,"[{'imgObject': {}, 'id': 'eggs', 'src': '/static/foodstim60/eggs.jpg', 'key': 'NaN', 'origWidth': 409, 'origHeight': 409, 'width': 409, 'height': 409, 'widthPercent': 0.8, 'rescaleHeight': True, 'trialN': 8, 'loaded': True, 'loadedTime': 4054.300000011921, 'positionName': 'CENTER', 'positionCoords': [595.5, 245.5]}]",Rate how much you want to eat this food from 0 (least) to 10 (most).,21428.69999998808,1669833095296,eggs,3724.100000023842,True,7.0200000000000005,25152.80000001192,3724.100000023842,True,HRV,HRV_0155,2022-11-30 18:33:28
9,"[{'imgObject': {}, 'id': 'turkeysandwich', 'src': '/static/foodstim60/turkeysandwich.jpg', 'key': 'NaN', 'origWidth': 409, 'origHeight': 409, 'width': 409, 'height': 409, 'widthPercent': 0.8, 'rescaleHeight': True, 'trialN': 9, 'loaded': True, 'loadedTime': 4081.9000000059605, 'positionName': 'CENTER', 'positionCoords': [595.5, 245.5]}]",Rate how much you want to eat this food from 0 (least) to 10 (most).,25154.90000000596,1669833099022,turkeysandwich,1866.0,True,5.63,27020.90000000596,1866.0,True,HRV,HRV_0155,2022-11-30 18:33:28
10,"[{'imgObject': {}, 'id': 'rigatoni and sauce', 'src': '/static/foodstim60/rigatoni and sauce.jpg', 'key': 'NaN', 'origWidth': 410, 'origHeight': 411, 'width': 410, 'height': 411, 'widthPercent': 0.8, 'rescaleHeight': True, 'trialN': 10, 'loaded': True, 'loadedTime': 4084.300000011921, 'positionName': 'CENTER', 'positionCoords': [595, 244.5]}]",Rate how much you want to eat this food from 0 (least) to 10 (most).,27023.40000000596,1669833100891,rigatoni and sauce,1821.4000000059605,True,2.43,28844.80000001192,1821.4000000059605,True,HRV,HRV_0155,2022-11-30 18:33:28
11,"[{'imgObject': {}, 'id': 'cherries', 'src': '/static/foodstim60/cherries.jpg', 'key': 'NaN', 'origWidth': 410, 'origHeight': 411, 'width': 410, 'height': 411, 'widthPercent': 0.8, 'rescaleHeight': True, 'trialN': 11, 'loaded': True, 'loadedTime': 4112.800000011921, 'positionName': 'CENTER', 'positionCoords': [595, 244.5]}]",Rate how much you want to eat this food from 0 (least) to 10 (most).,28847.80000001192,1669833102715,cherries,2913.7999999821186,True,7.12,31761.59999999404,2913.7999999821186,True,HRV,HRV_0155,2022-11-30 18:33:28
12,"[{'imgObject': {}, 'id': 'grilled chicken strips', 'src': '/static/foodstim60/grilled chicken strips.jpg', 'key': 'NaN', 'origWidth': 410, 'origHeight': 411, 'width': 410, 'height': 411, 'widthPercent': 0.8, 'rescaleHeight': True, 'trialN': 12, 'loaded': True, 'loadedTime': 4108.699999988079, 'positionName': 'CENTER', 'positionCoords': [595, 244.5]}]",Rate how much you want to eat this food from 0 (least) to 10 (most).,31765.40000000596,1669833105633,grilled chicken strips,1816.199999988079,True,6.42,33581.59999999404,1816.199999988079,True,HRV,HRV_0155,2022-11-30 18:33:28
13,"[{'imgObject': {}, 'id': 'corn cob', 'src': '/static/foodstim60/corn cob.jpg', 'key': 'NaN', 'origWidth': 411, 'origHeight': 411, 'width': 411, 'height': 411, 'widthPercent': 0.8, 'rescaleHeight': True, 'trialN': 13, 'loaded': True, 'loadedTime': 4120.5, 'positionName': 'CENTER', 'positionCoords': [594.5, 244.5]}]",Rate how much you want to eat this food from 0 (least) to 10 (most).,33585.80000001192,1669833107453,corn cob,2336.7999999821186,True,0.41000000000000003,35922.59999999404,2336.7999999821186,True,HRV,HRV_0155,2022-11-30 18:33:28
14,"[{'imgObject': {}, 'id': 'fruitsalad', 'src': '/static/foodstim60/fruitsalad.jpg', 'key': 'NaN', 'origWidth': 410, 'origHeight': 410, 'width': 410, 'height': 410, 'widthPercent': 0.8, 'rescaleHeight': True, 'trialN': 14, 'loaded': True, 'loadedTime': 4159.5, 'positionName': 'CENTER', 'positionCoords': [595, 245]}]",Rate how much you want to eat this food from 0 (least) to 10 (most).,35926.80000001192,1669833109794,fruitsalad,2398.699999988079,True,7.23,38325.5,2398.699999988079,True,HRV,HRV_0155,2022-11-30 18:33:28
15,"[{'imgObject': {}, 'id': 'mashed potato', 'src': '/static/foodstim60/mashed potato.jpg', 'key': 'NaN', 'origWidth': 409, 'origHeight': 409, 'width': 409, 'height': 409, 'widthPercent': 0.8, 'rescaleHeight': True, 'trialN': 15, 'loaded': True, 'loadedTime': 4135.300000011921, 'positionName': 'CENTER', 'positionCoords': [595.5, 245.5]}]",Rate how much you want to eat this food from 0 (least) to 10 (most).,38329.69999998808,1669833112197,mashed potato,2947.2000000178814,True,2.12,41276.90000000596,2947.2000000178814,True,HRV,HRV_0155,2022-11-30 18:33:28
16,"[{'imgObject': {}, 'id': 'lox', 'src': '/static/foodstim60/lox.jpg', 'key': 'NaN', 'origWidth': 410, 'origHeight': 411, 'width': 410, 'height': 411, 'widthPercent': 0.8, 'rescaleHeight': True, 'trialN': 16, 'loaded': True, 'loadedTime': 4193.4000000059605, 'positionName': 'CENTER', 'positionCoords': [595, 244.5]}]",Rate how much you want to eat this food from 0 (least) to 10 (most).,41279.30000001192,1669833115147,lox,4618.299999982119,True,7.07,45897.59999999404,4618.299999982119,True,HRV,HRV_0155,2022-11-30 18:33:28
17,"[{'imgObject': {}, 'id': 'blackbeanswithrice', 'src': '/static/foodstim60/blackbeanswithrice.jpg', 'key': 'NaN', 'origWidth': 410, 'origHeight': 410, 'width': 410, 'height': 410, 'widthPercent': 0.8, 'rescaleHeight': True, 'trialN': 17, 'loaded': True, 'loadedTime': 4189.9000000059605, 'positionName': 'CENTER', 'positionCoords': [595, 245]}]",Rate how much you want to eat this food from 0 (least) to 10 (most).,45900.80000001192,1669833119768,blackbeanswithrice,4692.399999976158,True,0.37,50593.19999998808,4692.399999976158,True,HRV,HRV_0155,2022-11-30 18:33:28
18,"[{'imgObject': {}, 'id': 'pear', 'src': '/static/foodstim60/pear.jpg', 'key': 'NaN', 'origWidth': 411, 'origHeight': 410, 'width': 411, 'height': 410, 'widthPercent': 0.8, 'rescaleHeight': True, 'trialN': 18, 'loaded': True, 'loadedTime': 4196.0999999940395, 'positionName': 'CENTER', 'positionCoords': [594.5, 245]}]",Rate how much you want to eat this food from 0 (least) to 10 (most).,50596.09999999404,1669833124464,pear,1861.5999999940395,True,6.8100000000000005,52457.69999998808,1861.5999999940395,True,HRV,HRV_0155,2022-11-30 18:33:28
19,"[{'imgObject': {}, 'id': 'salad w chicken', 'src': '/static/foodstim60/salad w chicken.jpg', 'key': 'NaN', 'origWidth': 411, 'origHeight': 411, 'width': 411, 'height': 411, 'widthPercent': 0.8, 'rescaleHeight': True, 'trialN': 19, 'loaded': True, 'loadedTime': 4201.699999988079, 'positionName': 'CENTER', 'positionCoords': [594.5, 244.5]}]",Rate how much you want to eat this food from 0 (least) to 10 (most).,52460.69999998808,1669833126328,salad w chicken,1312.9000000059605,True,6.71,53773.59999999404,1312.9000000059605,True,HRV,HRV_0155,2022-11-30 18:33:28
20,"[{'imgObject': {}, 'id': 'shreddedwheatwithmilk', 'src': '/static/foodstim60/shreddedwheatwithmilk.jpg', 'key': 'NaN', 'origWidth': 410, 'origHeight': 410, 'width': 410, 'height': 410, 'widthPercent': 0.8, 'rescaleHeight': True, 'trialN': 20, 'loaded': True, 'loadedTime': 4315.4000000059605, 'positionName': 'CENTER', 'positionCoords': [595, 245]}]",Rate how much you want to eat this food from 0 (least) to 10 (most).,53776.59999999404,1669833127644,shreddedwheatwithmilk,1493.0,True,6.53,55269.59999999404,1493.0,True,HRV,HRV_0155,2022-11-30 18:33:28
21,"[{'imgObject': {}, 'id': 'blueberries', 'src': '/static/foodstim60/blueberries.jpg', 'key': 'NaN', 'origWidth': 411, 'origHeight': 411, 'width': 411, 'height': 411, 'widthPercent': 0.8, 'rescaleHeight': True, 'trialN': 21, 'loaded': True, 'loadedTime': 4239, 'positionName': 'CENTER', 'positionCoords': [594.5, 244.5]}]",Rate how much you want to eat this food from 0 (least) to 10 (most).,55272.69999998808,1669833129140,blueberries,1488.9000000059605,True,8.14,56761.59999999404,1488.9000000059605,True,HRV,HRV_0155,2022-11-30 18:33:28
22,"[{'imgObject': {}, 'id': 'steak', 'src': '/static/foodstim60/steak.jpg', 'key': 'NaN', 'origWidth': 410, 'origHeight': 410, 'width': 410, 'height': 410, 'widthPercent': 0.8, 'rescaleHeight': True, 'trialN': 22, 'loaded': True, 'loadedTime': 4251.699999988079, 'positionName': 'CENTER', 'positionCoords': [595, 245]}]",Rate how much you want to eat this food from 0 (least) to 10 (most).,56765.19999998808,1669833130633,steak,1504.4000000059605,True,9.42,58269.59999999404,1504.4000000059605,True,HRV,HRV_0155,2022-11-30 18:33:28
23,"[{'imgObject': {}, 'id': 'froot loops w milk', 'src': '/static/foodstim60/froot loops w milk.jpg', 'key': 'NaN', 'origWidth': 410, 'origHeight': 410, 'width': 410, 'height': 410, 'widthPercent': 0.8, 'rescaleHeight': True, 'trialN': 23, 'loaded': True, 'loadedTime': 4257.800000011921, 'positionName': 'CENTER', 'positionCoords': [595, 245]}]",Rate how much you want to eat this food from 0 (least) to 10 (most).,58272.90000000596,1669833132141,froot loops w milk,1600.699999988079,True,6.55,59873.59999999404,1600.699999988079,True,HRV,HRV_0155,2022-11-30 18:33:28
24,"[{'imgObject': {}, 'id': 'Tribe humus pita', 'src': '/static/foodstim60/Tribe humus pita.jpg', 'key': 'NaN', 'origWidth': 411, 'origHeight': 411, 'width': 411, 'height': 411, 'widthPercent': 0.8, 'rescaleHeight': True, 'trialN': 24, 'loaded': True, 'loadedTime': 4254.4000000059605, 'positionName': 'CENTER', 'positionCoords': [594.5, 244.5]}]",Rate how much you want to eat this food from 0 (least) to 10 (most).,59877.59999999404,1669833133745,Tribe humus pita,1435.5999999940395,True,7.3100000000000005,61313.19999998808,1435.5999999940395,True,HRV,HRV_0155,2022-11-30 18:33:28
25,"[{'imgObject': {}, 'id': 'burger', 'src': '/static/foodstim60/burger.jpg', 'key': 'NaN', 'origWidth': 409, 'origHeight': 409, 'width': 409, 'height': 409, 'widthPercent': 0.8, 'rescaleHeight': True, 'trialN': 25, 'loaded': True, 'loadedTime': 4277.800000011921, 'positionName': 'CENTER', 'positionCoords': [595.5, 245.5]}]",Rate how much you want to eat this food from 0 (least) to 10 (most).,61316.80000001192,1669833135184,burger,1480.7999999821186,True,6.25,62797.59999999404,1480.7999999821186,True,HRV,HRV_0155,2022-11-30 18:33:28
26,"[{'imgObject': {}, 'id': 'baked potato', 'src': '/static/foodstim60/baked potato.jpg', 'key': 'NaN', 'origWidth': 409, 'origHeight': 410, 'width': 409, 'height': 410, 'widthPercent': 0.8, 'rescaleHeight': True, 'trialN': 26, 'loaded': True, 'loadedTime': 4300.699999988079, 'positionName': 'CENTER', 'positionCoords': [595.5, 245]}]",Rate how much you want to eat this food from 0 (least) to 10 (most).,62801.30000001192,1669833136669,baked potato,1828.3999999761581,True,5.32,64629.69999998808,1828.3999999761581,True,HRV,HRV_0155,2022-11-30 18:33:28
27,"[{'imgObject': {}, 'id': 'sweetpotato', 'src': '/static/foodstim60/sweetpotato.jpg', 'key': 'NaN', 'origWidth': 410, 'origHeight': 410, 'width': 410, 'height': 410, 'widthPercent': 0.8, 'rescaleHeight': True, 'trialN': 27, 'loaded': True, 'loadedTime': 4335.800000011921, 'positionName': 'CENTER', 'positionCoords': [595, 245]}]",Rate how much you want to eat this food from 0 (least) to 10 (most).,64633.30000001192,1669833138501,sweetpotato,1612.2999999821186,True,7.41,66245.59999999404,1612.2999999821186,True,HRV,HRV_0155,2022-11-30 18:33:28
28,"[{'imgObject': {}, 'id': 'luckycharms', 'src': '/static/foodstim60/luckycharms.jpg', 'key': 'NaN', 'origWidth': 410, 'origHeight': 409, 'width': 410, 'height': 409, 'widthPercent': 0.8, 'rescaleHeight': True, 'trialN': 28, 'loaded': True, 'loadedTime': 4330.699999988079, 'positionName': 'CENTER', 'positionCoords': [595, 245.5]}]",Rate how much you want to eat this food from 0 (least) to 10 (most).,66249.40000000596,1669833140117,luckycharms,1272.0999999940395,True,6.3500000000000005,67521.5,1272.0999999940395,True,HRV,HRV_0155,2022-11-30 18:33:28
29,"[{'imgObject': {}, 'id': 'hashbrowns', 'src': '/static/foodstim60/hashbrowns.jpg', 'key': 'NaN', 'origWidth': 411, 'origHeight': 410, 'width': 411, 'height': 410, 'widthPercent': 0.8, 'rescaleHeight': True, 'trialN': 29, 'loaded': True, 'loadedTime': 4375.800000011921, 'positionName': 'CENTER', 'positionCoords': [594.5, 245]}]",Rate how much you want to eat this food from 0 (least) to 10 (most).,67523.69999998808,1669833141391,hashbrowns,1869.9000000059605,True,4.71,69393.59999999404,1869.9000000059605,True,HRV,HRV_0155,2022-11-30 18:33:28
30,"[{'imgObject': {}, 'id': 'chicken nuggets2', 'src': '/static/foodstim60/chicken nuggets2.jpg', 'key': 'NaN', 'origWidth': 410, 'origHeight': 409, 'width': 410, 'height': 409, 'widthPercent': 0.8, 'rescaleHeight': True, 'trialN': 30, 'loaded': True, 'loadedTime': 4377.4000000059605, 'positionName': 'CENTER', 'positionCoords': [595, 245.5]}]",Rate how much you want to eat this food from 0 (least) to 10 (most).,69397.40000000596,1669833143265,chicken nuggets2,1703.9000000059605,True,4.96,71101.30000001192,1703.9000000059605,True,HRV,HRV_0155,2022-11-30 18:33:28
31,"[{'imgObject': {}, 'id': 'raisin bran w milk', 'src': '/static/foodstim60/raisin bran w milk.jpg', 'key': 'NaN', 'origWidth': 411, 'origHeight': 411, 'width': 411, 'height': 411, 'widthPercent': 0.8, 'rescaleHeight': True, 'trialN': 31, 'loaded': True, 'loadedTime': 4447.5, 'positionName': 'CENTER', 'positionCoords': [594.5, 244.5]}]",Rate how much you want to eat this food from 0 (least) to 10 (most).,71104.0,1669833144972,raisin bran w milk,2329.300000011921,True,6.82,73433.30000001192,2329.300000011921,True,HRV,HRV_0155,2022-11-30 18:33:28
32,"[{'imgObject': {}, 'id': 'yogurt no spoon', 'src': '/static/foodstim60/yogurt no spoon.jpg', 'key': 'NaN', 'origWidth': 411, 'origHeight': 410, 'width': 411, 'height': 410, 'widthPercent': 0.8, 'rescaleHeight': True, 'trialN': 32, 'loaded': True, 'loadedTime': 4571.699999988079, 'positionName': 'CENTER', 'positionCoords': [594.5, 245]}]",Rate how much you want to eat this food from 0 (least) to 10 (most).,73437.40000000596,1669833147305,yogurt no spoon,2468.199999988079,True,7.42,75905.59999999404,2468.199999988079,True,HRV,HRV_0155,2022-11-30 18:33:28
33,"[{'imgObject': {}, 'id': 'apple slices', 'src': '/static/foodstim60/apple slices.jpg', 'key': 'NaN', 'origWidth': 409, 'origHeight': 410, 'width': 409, 'height': 410, 'widthPercent': 0.8, 'rescaleHeight': True, 'trialN': 33, 'loaded': True, 'loadedTime': 4565.5999999940395, 'positionName': 'CENTER', 'positionCoords': [595.5, 245]}]",Rate how much you want to eat this food from 0 (least) to 10 (most).,75910.90000000596,1669833149778,apple slices,5354.0,True,7.01,81264.90000000596,5354.0,True,HRV,HRV_0155,2022-11-30 18:33:28
34,"[{'imgObject': {}, 'id': 'cocktailshrimp', 'src': '/static/foodstim60/cocktailshrimp.jpg', 'key': 'NaN', 'origWidth': 410, 'origHeight': 410, 'width': 410, 'height': 410, 'widthPercent': 0.8, 'rescaleHeight': True, 'trialN': 34, 'loaded': True, 'loadedTime': 4545.699999988079, 'positionName': 'CENTER', 'positionCoords': [595, 245]}]",Rate how much you want to eat this food from 0 (least) to 10 (most).,81267.30000001192,1669833155135,cocktailshrimp,2667.0,True,4.86,83934.30000001192,2667.0,True,HRV,HRV_0155,2022-11-30 18:33:28
35,"[{'imgObject': {}, 'id': 'rigatoni', 'src': '/static/foodstim60/rigatoni.jpg', 'key': 'NaN', 'origWidth': 411, 'origHeight': 411, 'width': 411, 'height': 411, 'widthPercent': 0.8, 'rescaleHeight': True, 'trialN': 35, 'loaded': True, 'loadedTime': 4555.5999999940395, 'positionName': 'CENTER', 'positionCoords': [594.5, 244.5]}]",Rate how much you want to eat this food from 0 (least) to 10 (most).,83937.09999999404,1669833157805,rigatoni,2064.2000000178814,True,1.33,86001.30000001192,2064.2000000178814,True,HRV,HRV_0155,2022-11-30 18:33:28
36,"[{'imgObject': {}, 'id': 'chickenfingers', 'src': '/static/foodstim60/chickenfingers.jpg', 'key': 'NaN', 'origWidth': 410, 'origHeight': 410, 'width': 410, 'height': 410, 'widthPercent': 0.8, 'rescaleHeight': True, 'trialN': 36, 'loaded': True, 'loadedTime': 4589, 'positionName': 'CENTER', 'positionCoords': [595, 245]}]",Rate how much you want to eat this food from 0 (least) to 10 (most).,86003.09999999404,1669833159871,chickenfingers,2106.4000000059605,True,7.22,88109.5,2106.4000000059605,True,HRV,HRV_0155,2022-11-30 18:33:28
37,"[{'imgObject': {}, 'id': 'veggieswithdip', 'src': '/static/foodstim60/veggieswithdip.jpg', 'key': 'NaN', 'origWidth': 409, 'origHeight': 409, 'width': 409, 'height': 409, 'widthPercent': 0.8, 'rescaleHeight': True, 'trialN': 37, 'loaded': True, 'loadedTime': 4609.699999988079, 'positionName': 'CENTER', 'positionCoords': [595.5, 245.5]}]",Rate how much you want to eat this food from 0 (least) to 10 (most).,88111.5,1669833161979,veggieswithdip,1758.0999999940395,True,5.96,89869.59999999404,1758.0999999940395,True,HRV,HRV_0155,2022-11-30 18:33:28
38,"[{'imgObject': {}, 'id': 'burrito', 'src': '/static/foodstim60/burrito.jpg', 'key': 'NaN', 'origWidth': 410, 'origHeight': 410, 'width': 410, 'height': 410, 'widthPercent': 0.8, 'rescaleHeight': True, 'trialN': 38, 'loaded': True, 'loadedTime': 4798, 'positionName': 'CENTER', 'positionCoords': [595, 245]}]",Rate how much you want to eat this food from 0 (least) to 10 (most).,89872.5,1669833163740,burrito,1976.800000011921,True,3.02,91849.30000001192,1976.800000011921,True,HRV,HRV_0155,2022-11-30 18:33:28
39,"[{'imgObject': {}, 'id': 'orange slices', 'src': '/static/foodstim60/orange slices.jpg', 'key': 'NaN', 'origWidth': 409, 'origHeight': 410, 'width': 409, 'height': 410, 'widthPercent': 0.8, 'rescaleHeight': True, 'trialN': 39, 'loaded': True, 'loadedTime': 4761.0999999940395, 'positionName': 'CENTER', 'positionCoords': [595.5, 245]}]",Rate how much you want to eat this food from 0 (least) to 10 (most).,91852.30000001192,1669833165720,orange slices,1461.3999999761581,True,7.05,93313.69999998808,1461.3999999761581,True,HRV,HRV_0155,2022-11-30 18:33:28
40,"[{'imgObject': {}, 'id': 'fried eggs', 'src': '/static/foodstim60/fried eggs.jpg', 'key': 'NaN', 'origWidth': 410, 'origHeight': 410, 'width': 410, 'height': 410, 'widthPercent': 0.8, 'rescaleHeight': True, 'trialN': 40, 'loaded': True, 'loadedTime': 4753.9000000059605, 'positionName': 'CENTER', 'positionCoords': [595, 245]}]",Rate how much you want to eat this food from 0 (least) to 10 (most).,93317.09999999404,1669833167185,fried eggs,1592.2000000178814,True,4.92,94909.30000001192,1592.2000000178814,True,HRV,HRV_0155,2022-11-30 18:33:28
41,"[{'imgObject': {}, 'id': 'sushi w_condiments', 'src': '/static/foodstim60/sushi w_condiments.jpg', 'key': 'NaN', 'origWidth': 410, 'origHeight': 410, 'width': 410, 'height': 410, 'widthPercent': 0.8, 'rescaleHeight': True, 'trialN': 41, 'loaded': True, 'loadedTime': 4758.4000000059605, 'positionName': 'CENTER', 'positionCoords': [595, 245]}]",Rate how much you want to eat this food from 0 (least) to 10 (most).,94912.5,1669833168780,sushi w_condiments,2424.699999988079,True,4.93,97337.19999998808,2424.699999988079,True,HRV,HRV_0155,2022-11-30 18:33:28
42,"[{'imgObject': {}, 'id': 'granola w milk', 'src': '/static/foodstim60/granola w milk.jpg', 'key': 'NaN', 'origWidth': 410, 'origHeight': 410, 'width': 410, 'height': 410, 'widthPercent': 0.8, 'rescaleHeight': True, 'trialN': 42, 'loaded': True, 'loadedTime': 4768, 'positionName': 'CENTER', 'positionCoords': [595, 245]}]",Rate how much you want to eat this food from 0 (least) to 10 (most).,97340.40000000596,1669833171208,granola w milk,3977.199999988079,True,5.66,101317.59999999404,3977.199999988079,True,HRV,HRV_0155,2022-11-30 18:33:28
43,"[{'imgObject': {}, 'id': 'tacos', 'src': '/static/foodstim60/tacos.jpg', 'key': 'NaN', 'origWidth': 411, 'origHeight': 411, 'width': 411, 'height': 411, 'widthPercent': 0.8, 'rescaleHeight': True, 'trialN': 43, 'loaded': True, 'loadedTime': 4751.4000000059605, 'positionName': 'CENTER', 'positionCoords': [594.5, 244.5]}]",Rate how much you want to eat this food from 0 (least) to 10 (most).,101321.69999998808,1669833175189,tacos,2239.7000000178814,True,4.11,103561.40000000596,2239.7000000178814,True,HRV,HRV_0155,2022-11-30 18:33:28
44,"[{'imgObject': {}, 'id': 'strawberries', 'src': '/static/foodstim60/strawberries.jpg', 'key': 'NaN', 'origWidth': 410, 'origHeight': 410, 'width': 410, 'height': 410, 'widthPercent': 0.8, 'rescaleHeight': True, 'trialN': 44, 'loaded': True, 'loadedTime': 4859.5, 'positionName': 'CENTER', 'positionCoords': [595, 245]}]",Rate how much you want to eat this food from 0 (least) to 10 (most).,103564.80000001192,1669833177433,strawberries,2112.5,True,5.96,105677.30000001192,2112.5,True,HRV,HRV_0155,2022-11-30 18:33:28
45,"[{'imgObject': {}, 'id': 'cantaloupe', 'src': '/static/foodstim60/cantaloupe.jpg', 'key': 'NaN', 'origWidth': 409, 'origHeight': 409, 'width': 409, 'height': 409, 'widthPercent': 0.8, 'rescaleHeight': True, 'trialN': 45, 'loaded': True, 'loadedTime': 4960.5, 'positionName': 'CENTER', 'positionCoords': [595.5, 245.5]}]",Rate how much you want to eat this food from 0 (least) to 10 (most).,105681.09999999404,1669833179549,cantaloupe,1515.9000000059605,True,5.97,107197.0,1515.9000000059605,True,HRV,HRV_0155,2022-11-30 18:33:28
46,"[{'imgObject': {}, 'id': 'roastedpotatoes', 'src': '/static/foodstim60/roastedpotatoes.jpg', 'key': 'NaN', 'origWidth': 409, 'origHeight': 410, 'width': 409, 'height': 410, 'widthPercent': 0.8, 'rescaleHeight': True, 'trialN': 46, 'loaded': True, 'loadedTime': 4965, 'positionName': 'CENTER', 'positionCoords': [595.5, 245]}]",Rate how much you want to eat this food from 0 (least) to 10 (most).,107199.40000000596,1669833181067,roastedpotatoes,2417.699999988079,True,5.21,109617.09999999404,2417.699999988079,True,HRV,HRV_0155,2022-11-30 18:33:28
47,"[{'imgObject': {}, 'id': 'banana', 'src': '/static/foodstim60/banana.jpg', 'key': 'NaN', 'origWidth': 410, 'origHeight': 410, 'width': 410, 'height': 410, 'widthPercent': 0.8, 'rescaleHeight': True, 'trialN': 47, 'loaded': True, 'loadedTime': 5009.4000000059605, 'positionName': 'CENTER', 'positionCoords': [595, 245]}]",Rate how much you want to eat this food from 0 (least) to 10 (most).,109636.30000001192,1669833183504,banana,1953.3999999761581,True,6.46,111589.69999998808,1953.3999999761581,True,HRV,HRV_0155,2022-11-30 18:33:28
48,"[{'imgObject': {}, 'id': 'Grapes', 'src': '/static/foodstim60/Grapes.jpg', 'key': 'NaN', 'origWidth': 411, 'origHeight': 411, 'width': 411, 'height': 411, 'widthPercent': 0.8, 'rescaleHeight': True, 'trialN': 48, 'loaded': True, 'loadedTime': 4969.5999999940395, 'positionName': 'CENTER', 'positionCoords': [594.5, 244.5]}]",Rate how much you want to eat this food from 0 (least) to 10 (most).,111593.5,1669833185461,Grapes,5812.0999999940395,True,9.120000000000001,117405.59999999404,5812.0999999940395,True,HRV,HRV_0155,2022-11-30 18:33:28
49,"[{'imgObject': {}, 'id': 'ice cream sundae 002', 'src': '/static/foodstim60/ice cream sundae 002.jpg', 'key': 'NaN', 'origWidth': 409, 'origHeight': 409, 'width': 409, 'height': 409, 'widthPercent': 0.8, 'rescaleHeight': True, 'trialN': 49, 'loaded': True, 'loadedTime': 5011.199999988079, 'positionName': 'CENTER', 'positionCoords': [595.5, 245.5]}]",Rate how much you want to eat this food from 0 (least) to 10 (most).,117409.80000001192,1669833191278,ice cream sundae 002,1184.7999999821186,True,8.43,118594.59999999404,1184.7999999821186,True,HRV,HRV_0155,2022-11-30 18:33:28
50,"[{'imgObject': {}, 'id': 'cherry tomato', 'src': '/static/foodstim60/cherry tomato.jpg', 'key': 'NaN', 'origWidth': 410, 'origHeight': 410, 'width': 410, 'height': 410, 'widthPercent': 0.8, 'rescaleHeight': True, 'trialN': 50, 'loaded': True, 'loadedTime': 5013.199999988079, 'positionName': 'CENTER', 'positionCoords': [595, 245]}]",Rate how much you want to eat this food from 0 (least) to 10 (most).,118598.59999999404,1669833192467,cherry tomato,1331.0,True,3.2600000000000002,119929.59999999404,1331.0,True,HRV,HRV_0155,2022-11-30 18:33:28
51,"[{'imgObject': {}, 'id': 'cheerios', 'src': '/static/foodstim60/cheerios.jpg', 'key': 'NaN', 'origWidth': 409, 'origHeight': 410, 'width': 409, 'height': 410, 'widthPercent': 0.8, 'rescaleHeight': True, 'trialN': 51, 'loaded': True, 'loadedTime': 5108.699999988079, 'positionName': 'CENTER', 'positionCoords': [595.5, 245]}]",Rate how much you want to eat this food from 0 (least) to 10 (most).,119932.19999998808,1669833193800,cheerios,1261.4000000059605,True,3.27,121193.59999999404,1261.4000000059605,True,HRV,HRV_0155,2022-11-30 18:33:28
52,"[{'imgObject': {}, 'id': 'kiwi', 'src': '/static/foodstim60/kiwi.jpg', 'key': 'NaN', 'origWidth': 410, 'origHeight': 410, 'width': 410, 'height': 410, 'widthPercent': 0.8, 'rescaleHeight': True, 'trialN': 52, 'loaded': True, 'loadedTime': 5083.199999988079, 'positionName': 'CENTER', 'positionCoords': [595, 245]}]",Rate how much you want to eat this food from 0 (least) to 10 (most).,121196.09999999404,1669833195064,kiwi,1285.300000011921,True,7.13,122481.40000000596,1285.300000011921,True,HRV,HRV_0155,2022-11-30 18:33:28
53,"[{'imgObject': {}, 'id': 'avocado', 'src': '/static/foodstim60/avocado.jpg', 'key': 'NaN', 'origWidth': 409, 'origHeight': 409, 'width': 409, 'height': 409, 'widthPercent': 0.8, 'rescaleHeight': True, 'trialN': 53, 'loaded': True, 'loadedTime': 5044, 'positionName': 'CENTER', 'positionCoords': [595.5, 245.5]}]",Rate how much you want to eat this food from 0 (least) to 10 (most).,122483.09999999404,1669833196351,avocado,1274.5999999940395,True,3.35,123757.69999998808,1274.5999999940395,True,HRV,HRV_0155,2022-11-30 18:33:28
54,"[{'imgObject': {}, 'id': 'edamame', 'src': '/static/foodstim60/edamame.jpg', 'key': 'NaN', 'origWidth': 409, 'origHeight': 410, 'width': 409, 'height': 410, 'widthPercent': 0.8, 'rescaleHeight': True, 'trialN': 54, 'loaded': True, 'loadedTime': 5094.699999988079, 'positionName': 'CENTER', 'positionCoords': [595.5, 245]}]",Rate how much you want to eat this food from 0 (least) to 10 (most).,123760.30000001192,1669833197628,edamame,1442.3999999761581,True,4.28,125202.69999998808,1442.3999999761581,True,HRV,HRV_0155,2022-11-30 18:33:28
55,"[{'imgObject': {}, 'id': 'hotdog w must', 'src': '/static/foodstim60/hotdog w must.jpg', 'key': 'NaN', 'origWidth': 409, 'origHeight': 409, 'width': 409, 'height': 409, 'widthPercent': 0.8, 'rescaleHeight': True, 'trialN': 55, 'loaded': True, 'loadedTime': 5092.300000011921, 'positionName': 'CENTER', 'positionCoords': [595.5, 245.5]}]",Rate how much you want to eat this food from 0 (least) to 10 (most).,125207.59999999404,1669833199076,hotdog w must,1354.0,True,2.7800000000000002,126561.59999999404,1354.0,True,HRV,HRV_0155,2022-11-30 18:33:28
56,"[{'imgObject': {}, 'id': 'olives', 'src': '/static/foodstim60/olives.jpg', 'key': 'NaN', 'origWidth': 410, 'origHeight': 410, 'width': 410, 'height': 410, 'widthPercent': 0.8, 'rescaleHeight': True, 'trialN': 56, 'loaded': True, 'loadedTime': 5097, 'positionName': 'CENTER', 'positionCoords': [595, 245]}]",Rate how much you want to eat this food from 0 (least) to 10 (most).,126564.40000000596,1669833200432,olives,1544.699999988079,True,6.890000000000001,128109.09999999404,1544.699999988079,True,HRV,HRV_0155,2022-11-30 18:33:28
57,"[{'imgObject': {}, 'id': 'turkey sandwich', 'src': '/static/foodstim60/turkey sandwich.jpg', 'key': 'NaN', 'origWidth': 409, 'origHeight': 409, 'width': 409, 'height': 409, 'widthPercent': 0.8, 'rescaleHeight': True, 'trialN': 57, 'loaded': True, 'loadedTime': 5169.5999999940395, 'positionName': 'CENTER', 'positionCoords': [595.5, 245.5]}]",Rate how much you want to eat this food from 0 (least) to 10 (most).,128112.0,1669833201980,turkey sandwich,1605.699999988079,True,5.0,129717.69999998808,1605.699999988079,True,HRV,HRV_0155,2022-11-30 18:33:28
58,"[{'imgObject': {}, 'id': 'mango', 'src': '/static/foodstim60/mango.jpg', 'key': 'NaN', 'origWidth': 411, 'origHeight': 411, 'width': 411, 'height': 411, 'widthPercent': 0.8, 'rescaleHeight': True, 'trialN': 58, 'loaded': True, 'loadedTime': 5175.699999988079, 'positionName': 'CENTER', 'positionCoords': [594.5, 244.5]}]",Rate how much you want to eat this food from 0 (least) to 10 (most).,129720.69999998808,1669833203589,mango,1768.9000000059605,True,6.51,131489.59999999404,1768.9000000059605,True,HRV,HRV_0155,2022-11-30 18:33:28
59,"[{'imgObject': {}, 'id': 'eggsalad', 'src': '/static/foodstim60/eggsalad.jpg', 'key': 'NaN', 'origWidth': 410, 'origHeight': 409, 'width': 410, 'height': 409, 'widthPercent': 0.8, 'rescaleHeight': True, 'trialN': 59, 'loaded': True, 'loadedTime': 5177.800000011921, 'positionName': 'CENTER', 'positionCoords': [595, 245.5]}]",Rate how much you want to eat this food from 0 (least) to 10 (most).,131493.09999999404,1669833205361,eggsalad,2336.300000011921,True,3.38,133829.40000000596,2336.300000011921,True,HRV,HRV_0155,2022-11-30 18:33:28
