trialN,stimuli,question,trialStartTime,trialStartTime_UNIX,stimulus1,rt,receivedResponse,rating,trialEndTime,trialDuration,stimulus1Loaded,exp,subjectId,date
0,"[{'imgObject': {}, 'id': 'blackbeanswithrice', 'src': '/static/foodstim60/blackbeanswithrice.jpg', 'key': 'NaN', 'origWidth': 410, 'origHeight': 410, 'width': 391.3, 'height': 391.3, 'widthPercent': 0.8, 'rescaleHeight': True, 'trialN': 0, 'loaded': True, 'loadedTime': 3859.2999999970198, 'positionName': 'CENTER', 'positionCoords': [285.5, 105.5]}]",Rate how much you want to eat this food from 0 (least) to 10 (most).,14335.5,1669838820940,blackbeanswithrice,6161.20000000298,True,0.05,20496.70000000298,6161.20000000298,True,HRV,HRV_0273,2022-11-30 20:10:03
1,"[{'imgObject': {}, 'id': 'fried eggs', 'src': '/static/foodstim60/fried eggs.jpg', 'key': 'NaN', 'origWidth': 410, 'origHeight': 410, 'width': 391.3, 'height': 391.3, 'widthPercent': 0.8, 'rescaleHeight': True, 'trialN': 1, 'loaded': True, 'loadedTime': 4229.5, 'positionName': 'CENTER', 'positionCoords': [285.5, 105.5]}]",Rate how much you want to eat this food from 0 (least) to 10 (most).,20505.70000000298,1669838827110,fried eggs,2181.0,True,0.59,22686.70000000298,2181.0,True,HRV,HRV_0273,2022-11-30 20:10:03
2,"[{'imgObject': {}, 'id': 'grilled chicken strips', 'src': '/static/foodstim60/grilled chicken strips.jpg', 'key': 'NaN', 'origWidth': 410, 'origHeight': 411, 'width': 390.3479318734793, 'height': 391.3, 'widthPercent': 0.8, 'rescaleHeight': True, 'trialN': 2, 'loaded': True, 'loadedTime': 4220.9000000059605, 'positionName': 'CENTER', 'positionCoords': [286, 105.5]}]",Rate how much you want to eat this food from 0 (least) to 10 (most).,22693.40000000596,1669838829298,grilled chicken strips,1816.2999999970198,True,1.73,24509.70000000298,1816.2999999970198,True,HRV,HRV_0273,2022-11-30 20:10:03
3,"[{'imgObject': {}, 'id': 'edamame', 'src': '/static/foodstim60/edamame.jpg', 'key': 'NaN', 'origWidth': 409, 'origHeight': 410, 'width': 390.3456097560975, 'height': 391.29999999999995, 'widthPercent': 0.8, 'rescaleHeight': True, 'trialN': 3, 'loaded': True, 'loadedTime': 4264.70000000298, 'positionName': 'CENTER', 'positionCoords': [286, 105.5]}]",Rate how much you want to eat this food from 0 (least) to 10 (most).,24515.10000000894,1669838831120,edamame,4781.5999999940395,True,0.23,29296.70000000298,4781.5999999940395,True,HRV,HRV_0273,2022-11-30 20:10:03
4,"[{'imgObject': {}, 'id': 'roastedpotatoes', 'src': '/static/foodstim60/roastedpotatoes.jpg', 'key': 'NaN', 'origWidth': 409, 'origHeight': 410, 'width': 390.3456097560975, 'height': 391.29999999999995, 'widthPercent': 0.8, 'rescaleHeight': True, 'trialN': 4, 'loaded': True, 'loadedTime': 4268.9000000059605, 'positionName': 'CENTER', 'positionCoords': [286, 105.5]}]",Rate how much you want to eat this food from 0 (least) to 10 (most).,29303.10000000894,1669838835908,roastedpotatoes,2841.5999999940395,True,4.08,32144.70000000298,2841.5999999940395,True,HRV,HRV_0273,2022-11-30 20:10:03
5,"[{'imgObject': {}, 'id': 'ice cream sundae 002', 'src': '/static/foodstim60/ice cream sundae 002.jpg', 'key': 'NaN', 'origWidth': 409, 'origHeight': 409, 'width': 391.3, 'height': 391.3, 'widthPercent': 0.8, 'rescaleHeight': True, 'trialN': 5, 'loaded': True, 'loadedTime': 4250.4000000059605, 'positionName': 'CENTER', 'positionCoords': [285.5, 105.5]}]",Rate how much you want to eat this food from 0 (least) to 10 (most).,32150.29999999702,1669838838755,ice cream sundae 002,2756.4000000059605,True,5.1000000000000005,34906.70000000298,2756.4000000059605,True,HRV,HRV_0273,2022-11-30 20:10:03
6,"[{'imgObject': {}, 'id': 'turkeysandwich', 'src': '/static/foodstim60/turkeysandwich.jpg', 'key': 'NaN', 'origWidth': 409, 'origHeight': 409, 'width': 391.3, 'height': 391.3, 'widthPercent': 0.8, 'rescaleHeight': True, 'trialN': 6, 'loaded': True, 'loadedTime': 4524.5, 'positionName': 'CENTER', 'positionCoords': [285.5, 105.5]}]",Rate how much you want to eat this food from 0 (least) to 10 (most).,34912.5,1669838841517,turkeysandwich,3779.2000000029802,True,8.86,38691.70000000298,3779.2000000029802,True,HRV,HRV_0273,2022-11-30 20:10:03
7,"[{'imgObject': {}, 'id': 'mashed potato', 'src': '/static/foodstim60/mashed potato.jpg', 'key': 'NaN', 'origWidth': 409, 'origHeight': 409, 'width': 391.3, 'height': 391.3, 'widthPercent': 0.8, 'rescaleHeight': True, 'trialN': 7, 'loaded': True, 'loadedTime': 4628.4000000059605, 'positionName': 'CENTER', 'positionCoords': [285.5, 105.5]}]",Rate how much you want to eat this food from 0 (least) to 10 (most).,38698.40000000596,1669838845303,mashed potato,3391.2999999970198,True,5.58,42089.70000000298,3391.2999999970198,True,HRV,HRV_0273,2022-11-30 20:10:03
8,"[{'imgObject': {}, 'id': 'tacos', 'src': '/static/foodstim60/tacos.jpg', 'key': 'NaN', 'origWidth': 411, 'origHeight': 411, 'width': 391.3, 'height': 391.3, 'widthPercent': 0.8, 'rescaleHeight': True, 'trialN': 8, 'loaded': True, 'loadedTime': 4869.100000008941, 'positionName': 'CENTER', 'positionCoords': [285.5, 105.5]}]",Rate how much you want to eat this food from 0 (least) to 10 (most).,42095.0,1669838848700,tacos,2971.7000000029802,True,9.82,45066.70000000298,2971.7000000029802,True,HRV,HRV_0273,2022-11-30 20:10:03
9,"[{'imgObject': {}, 'id': 'salad w chicken', 'src': '/static/foodstim60/salad w chicken.jpg', 'key': 'NaN', 'origWidth': 411, 'origHeight': 411, 'width': 391.3, 'height': 391.3, 'widthPercent': 0.8, 'rescaleHeight': True, 'trialN': 9, 'loaded': True, 'loadedTime': 4846.70000000298, 'positionName': 'CENTER', 'positionCoords': [285.5, 105.5]}]",Rate how much you want to eat this food from 0 (least) to 10 (most).,45072.79999999702,1669838851677,salad w chicken,2506.9000000059605,True,7.22,47579.70000000298,2506.9000000059605,True,HRV,HRV_0273,2022-11-30 20:10:03
10,"[{'imgObject': {}, 'id': 'rigatoni', 'src': '/static/foodstim60/rigatoni.jpg', 'key': 'NaN', 'origWidth': 411, 'origHeight': 411, 'width': 391.3, 'height': 391.3, 'widthPercent': 0.8, 'rescaleHeight': True, 'trialN': 10, 'loaded': True, 'loadedTime': 4881.29999999702, 'positionName': 'CENTER', 'positionCoords': [285.5, 105.5]}]",Rate how much you want to eat this food from 0 (least) to 10 (most).,47585.29999999702,1669838854190,rigatoni,3781.4000000059605,True,0.21,51366.70000000298,3781.4000000059605,True,HRV,HRV_0273,2022-11-30 20:10:03
11,"[{'imgObject': {}, 'id': 'cocktailshrimp', 'src': '/static/foodstim60/cocktailshrimp.jpg', 'key': 'NaN', 'origWidth': 410, 'origHeight': 410, 'width': 391.3, 'height': 391.3, 'widthPercent': 0.8, 'rescaleHeight': True, 'trialN': 11, 'loaded': True, 'loadedTime': 5414.79999999702, 'positionName': 'CENTER', 'positionCoords': [285.5, 105.5]}]",Rate how much you want to eat this food from 0 (least) to 10 (most).,51372.90000000596,1669838857977,cocktailshrimp,1756.7999999970198,True,0.13,53129.70000000298,1756.7999999970198,True,HRV,HRV_0273,2022-11-30 20:10:03
12,"[{'imgObject': {}, 'id': 'Grapes', 'src': '/static/foodstim60/Grapes.jpg', 'key': 'NaN', 'origWidth': 411, 'origHeight': 411, 'width': 391.3, 'height': 391.3, 'widthPercent': 0.8, 'rescaleHeight': True, 'trialN': 12, 'loaded': True, 'loadedTime': 5528.20000000298, 'positionName': 'CENTER', 'positionCoords': [285.5, 105.5]}]",Rate how much you want to eat this food from 0 (least) to 10 (most).,53135.10000000894,1669838859740,Grapes,3151.5999999940395,True,6.78,56286.70000000298,3151.5999999940395,True,HRV,HRV_0273,2022-11-30 20:10:03
13,"[{'imgObject': {}, 'id': 'cheerios', 'src': '/static/foodstim60/cheerios.jpg', 'key': 'NaN', 'origWidth': 409, 'origHeight': 410, 'width': 390.3456097560975, 'height': 391.29999999999995, 'widthPercent': 0.8, 'rescaleHeight': True, 'trialN': 13, 'loaded': True, 'loadedTime': 5242.79999999702, 'positionName': 'CENTER', 'positionCoords': [286, 105.5]}]",Rate how much you want to eat this food from 0 (least) to 10 (most).,56292.40000000596,1669838862897,cheerios,3139.2999999970198,True,0.55,59431.70000000298,3139.2999999970198,True,HRV,HRV_0273,2022-11-30 20:10:03
14,"[{'imgObject': {}, 'id': 'apple slices', 'src': '/static/foodstim60/apple slices.jpg', 'key': 'NaN', 'origWidth': 409, 'origHeight': 410, 'width': 390.3456097560975, 'height': 391.29999999999995, 'widthPercent': 0.8, 'rescaleHeight': True, 'trialN': 14, 'loaded': True, 'loadedTime': 5504.9000000059605, 'positionName': 'CENTER', 'positionCoords': [286, 105.5]}]",Rate how much you want to eat this food from 0 (least) to 10 (most).,59437.20000000298,1669838866042,apple slices,1717.5,True,2.17,61154.70000000298,1717.5,True,HRV,HRV_0273,2022-11-30 20:10:03
15,"[{'imgObject': {}, 'id': 'rigatoni and sauce', 'src': '/static/foodstim60/rigatoni and sauce.jpg', 'key': 'NaN', 'origWidth': 410, 'origHeight': 411, 'width': 390.3479318734793, 'height': 391.3, 'widthPercent': 0.8, 'rescaleHeight': True, 'trialN': 15, 'loaded': True, 'loadedTime': 9303.90000000596, 'positionName': 'CENTER', 'positionCoords': [286, 105.5]}]",Rate how much you want to eat this food from 0 (least) to 10 (most).,61159.60000000894,1669838867764,rigatoni and sauce,3185.0999999940395,True,8.4,64344.70000000298,3185.0999999940395,True,HRV,HRV_0273,2022-11-30 20:10:03
16,"[{'imgObject': {}, 'id': 'chickenfingers', 'src': '/static/foodstim60/chickenfingers.jpg', 'key': 'NaN', 'origWidth': 410, 'origHeight': 410, 'width': 391.3, 'height': 391.3, 'widthPercent': 0.8, 'rescaleHeight': True, 'trialN': 16, 'loaded': True, 'loadedTime': 5467.4000000059605, 'positionName': 'CENTER', 'positionCoords': [285.5, 105.5]}]",Rate how much you want to eat this food from 0 (least) to 10 (most).,64350.79999999702,1669838870955,chickenfingers,2346.9000000059605,True,9.19,66697.70000000298,2346.9000000059605,True,HRV,HRV_0273,2022-11-30 20:10:03
17,"[{'imgObject': {}, 'id': 'eggsalad', 'src': '/static/foodstim60/eggsalad.jpg', 'key': 'NaN', 'origWidth': 410, 'origHeight': 409, 'width': 392.25672371638143, 'height': 391.3, 'widthPercent': 0.8, 'rescaleHeight': True, 'trialN': 17, 'loaded': True, 'loadedTime': 9293, 'positionName': 'CENTER', 'positionCoords': [285, 105.5]}]",Rate how much you want to eat this food from 0 (least) to 10 (most).,66702.40000000596,1669838873307,eggsalad,2611.2999999970198,True,9.17,69313.70000000298,2611.2999999970198,True,HRV,HRV_0273,2022-11-30 20:10:03
18,"[{'imgObject': {}, 'id': 'eggs', 'src': '/static/foodstim60/eggs.jpg', 'key': 'NaN', 'origWidth': 409, 'origHeight': 409, 'width': 391.3, 'height': 391.3, 'widthPercent': 0.8, 'rescaleHeight': True, 'trialN': 18, 'loaded': True, 'loadedTime': 9372.40000000596, 'positionName': 'CENTER', 'positionCoords': [285.5, 105.5]}]",Rate how much you want to eat this food from 0 (least) to 10 (most).,69319.79999999702,1669838875924,eggs,4038.9000000059605,True,2.81,73358.70000000298,4038.9000000059605,True,HRV,HRV_0273,2022-11-30 20:10:03
19,"[{'imgObject': {}, 'id': 'olives', 'src': '/static/foodstim60/olives.jpg', 'key': 'NaN', 'origWidth': 410, 'origHeight': 410, 'width': 391.3, 'height': 391.3, 'widthPercent': 0.8, 'rescaleHeight': True, 'trialN': 19, 'loaded': True, 'loadedTime': 9339.60000000894, 'positionName': 'CENTER', 'positionCoords': [285.5, 105.5]}]",Rate how much you want to eat this food from 0 (least) to 10 (most).,73364.40000000596,1669838879969,olives,2505.2999999970198,True,0.01,75869.70000000298,2505.2999999970198,True,HRV,HRV_0273,2022-11-30 20:10:03
20,"[{'imgObject': {}, 'id': 'shreddedwheatwithmilk', 'src': '/static/foodstim60/shreddedwheatwithmilk.jpg', 'key': 'NaN', 'origWidth': 410, 'origHeight': 410, 'width': 391.3, 'height': 391.3, 'widthPercent': 0.8, 'rescaleHeight': True, 'trialN': 20, 'loaded': True, 'loadedTime': 9376.79999999702, 'positionName': 'CENTER', 'positionCoords': [285.5, 105.5]}]",Rate how much you want to eat this food from 0 (least) to 10 (most).,75874.70000000298,1669838882479,shreddedwheatwithmilk,1337.0,True,0.01,77211.70000000298,1337.0,True,HRV,HRV_0273,2022-11-30 20:10:03
21,"[{'imgObject': {}, 'id': 'burrito', 'src': '/static/foodstim60/burrito.jpg', 'key': 'NaN', 'origWidth': 410, 'origHeight': 410, 'width': 391.3, 'height': 391.3, 'widthPercent': 0.8, 'rescaleHeight': True, 'trialN': 21, 'loaded': True, 'loadedTime': 9386.29999999702, 'positionName': 'CENTER', 'positionCoords': [285.5, 105.5]}]",Rate how much you want to eat this food from 0 (least) to 10 (most).,77217.10000000894,1669838883822,burrito,4697.5999999940395,True,4.79,81914.70000000298,4697.5999999940395,True,HRV,HRV_0273,2022-11-30 20:10:03
22,"[{'imgObject': {}, 'id': 'mac & cheese', 'src': '/static/foodstim60/mac & cheese.jpg', 'key': 'NaN', 'origWidth': 410, 'origHeight': 410, 'width': 391.3, 'height': 391.3, 'widthPercent': 0.8, 'rescaleHeight': True, 'trialN': 22, 'loaded': True, 'loadedTime': 9659.40000000596, 'positionName': 'CENTER', 'positionCoords': [285.5, 105.5]}]",Rate how much you want to eat this food from 0 (least) to 10 (most).,81919.70000000298,1669838888524,mac & cheese,3910.0,True,9.49,85829.70000000298,3910.0,True,HRV,HRV_0273,2022-11-30 20:10:03
23,"[{'imgObject': {}, 'id': 'froot loops w milk', 'src': '/static/foodstim60/froot loops w milk.jpg', 'key': 'NaN', 'origWidth': 410, 'origHeight': 410, 'width': 391.3, 'height': 391.3, 'widthPercent': 0.8, 'rescaleHeight': True, 'trialN': 23, 'loaded': True, 'loadedTime': 9667.60000000894, 'positionName': 'CENTER', 'positionCoords': [285.5, 105.5]}]",Rate how much you want to eat this food from 0 (least) to 10 (most).,85835.90000000596,1669838892440,froot loops w milk,3712.7999999970198,True,0.05,89548.70000000298,3712.7999999970198,True,HRV,HRV_0273,2022-11-30 20:10:03
24,"[{'imgObject': {}, 'id': 'popsicles', 'src': '/static/foodstim60/popsicles.jpg', 'key': 'NaN', 'origWidth': 410, 'origHeight': 410, 'width': 391.3, 'height': 391.3, 'widthPercent': 0.8, 'rescaleHeight': True, 'trialN': 24, 'loaded': True, 'loadedTime': 9968.70000000298, 'positionName': 'CENTER', 'positionCoords': [285.5, 105.5]}]",Rate how much you want to eat this food from 0 (least) to 10 (most).,89554.60000000894,1669838896159,popsicles,2582.0999999940395,True,0.8200000000000001,92136.70000000298,2582.0999999940395,True,HRV,HRV_0273,2022-11-30 20:10:03
25,"[{'imgObject': {}, 'id': 'sushi w_condiments', 'src': '/static/foodstim60/sushi w_condiments.jpg', 'key': 'NaN', 'origWidth': 410, 'origHeight': 410, 'width': 391.3, 'height': 391.3, 'widthPercent': 0.8, 'rescaleHeight': True, 'trialN': 25, 'loaded': True, 'loadedTime': 9824.40000000596, 'positionName': 'CENTER', 'positionCoords': [285.5, 105.5]}]",Rate how much you want to eat this food from 0 (least) to 10 (most).,92141.79999999702,1669838898746,sushi w_condiments,6184.9000000059605,True,0.0,98326.70000000298,6184.9000000059605,True,HRV,HRV_0273,2022-11-30 20:10:03
26,"[{'imgObject': {}, 'id': 'cherries', 'src': '/static/foodstim60/cherries.jpg', 'key': 'NaN', 'origWidth': 410, 'origHeight': 411, 'width': 390.3479318734793, 'height': 391.3, 'widthPercent': 0.8, 'rescaleHeight': True, 'trialN': 26, 'loaded': True, 'loadedTime': 10380.10000000894, 'positionName': 'CENTER', 'positionCoords': [286, 105.5]}]",Rate how much you want to eat this food from 0 (least) to 10 (most).,98332.90000000596,1669838904938,cherries,2533.7999999970198,True,3.98,100866.70000000298,2533.7999999970198,True,HRV,HRV_0273,2022-11-30 20:10:03
27,"[{'imgObject': {}, 'id': 'luckycharms', 'src': '/static/foodstim60/luckycharms.jpg', 'key': 'NaN', 'origWidth': 410, 'origHeight': 409, 'width': 392.25672371638143, 'height': 391.3, 'widthPercent': 0.8, 'rescaleHeight': True, 'trialN': 27, 'loaded': True, 'loadedTime': 10032.60000000894, 'positionName': 'CENTER', 'positionCoords': [285, 105.5]}]",Rate how much you want to eat this food from 0 (least) to 10 (most).,100874.90000000596,1669838907479,luckycharms,2820.7999999970198,True,0.92,103695.70000000298,2820.7999999970198,True,HRV,HRV_0273,2022-11-30 20:10:03
28,"[{'imgObject': {}, 'id': 'Tribe humus pita', 'src': '/static/foodstim60/Tribe humus pita.jpg', 'key': 'NaN', 'origWidth': 411, 'origHeight': 411, 'width': 391.3, 'height': 391.3, 'widthPercent': 0.8, 'rescaleHeight': True, 'trialN': 28, 'loaded': True, 'loadedTime': 10038.20000000298, 'positionName': 'CENTER', 'positionCoords': [285.5, 105.5]}]",Rate how much you want to eat this food from 0 (least) to 10 (most).,103700.70000000298,1669838910305,Tribe humus pita,4561.0,True,0.21,108261.70000000298,4561.0,True,HRV,HRV_0273,2022-11-30 20:10:03
29,"[{'imgObject': {}, 'id': 'orange slices', 'src': '/static/foodstim60/orange slices.jpg', 'key': 'NaN', 'origWidth': 409, 'origHeight': 410, 'width': 390.3456097560975, 'height': 391.29999999999995, 'widthPercent': 0.8, 'rescaleHeight': True, 'trialN': 29, 'loaded': True, 'loadedTime': 10228.5, 'positionName': 'CENTER', 'positionCoords': [286, 105.5]}]",Rate how much you want to eat this food from 0 (least) to 10 (most).,108267.40000000596,1669838914872,orange slices,2289.2999999970198,True,3.17,110556.70000000298,2289.2999999970198,True,HRV,HRV_0273,2022-11-30 20:10:03
30,"[{'imgObject': {}, 'id': 'raisin bran w milk', 'src': '/static/foodstim60/raisin bran w milk.jpg', 'key': 'NaN', 'origWidth': 411, 'origHeight': 411, 'width': 391.3, 'height': 391.3, 'widthPercent': 0.8, 'rescaleHeight': True, 'trialN': 30, 'loaded': True, 'loadedTime': 10249.40000000596, 'positionName': 'CENTER', 'positionCoords': [285.5, 105.5]}]",Rate how much you want to eat this food from 0 (least) to 10 (most).,110562.70000000298,1669838917167,raisin bran w milk,5005.0,True,0.09,115567.70000000298,5005.0,True,HRV,HRV_0273,2022-11-30 20:10:03
31,"[{'imgObject': {}, 'id': 'seaweed', 'src': '/static/foodstim60/seaweed.jpg', 'key': 'NaN', 'origWidth': 410, 'origHeight': 410, 'width': 391.3, 'height': 391.3, 'widthPercent': 0.8, 'rescaleHeight': True, 'trialN': 31, 'loaded': True, 'loadedTime': 10604.60000000894, 'positionName': 'CENTER', 'positionCoords': [285.5, 105.5]}]",Rate how much you want to eat this food from 0 (least) to 10 (most).,115574.5,1669838922179,seaweed,2115.2000000029802,True,0.09,117689.70000000298,2115.2000000029802,True,HRV,HRV_0273,2022-11-30 20:10:03
32,"[{'imgObject': {}, 'id': 'veggieswithdip', 'src': '/static/foodstim60/veggieswithdip.jpg', 'key': 'NaN', 'origWidth': 409, 'origHeight': 409, 'width': 391.3, 'height': 391.3, 'widthPercent': 0.8, 'rescaleHeight': True, 'trialN': 32, 'loaded': True, 'loadedTime': 10521.79999999702, 'positionName': 'CENTER', 'positionCoords': [285.5, 105.5]}]",Rate how much you want to eat this food from 0 (least) to 10 (most).,117695.40000000596,1669838924300,veggieswithdip,2644.2999999970198,True,2.71,120339.70000000298,2644.2999999970198,True,HRV,HRV_0273,2022-11-30 20:10:03
33,"[{'imgObject': {}, 'id': 'raspberries', 'src': '/static/foodstim60/raspberries.jpg', 'key': 'NaN', 'origWidth': 411, 'origHeight': 411, 'width': 391.3, 'height': 391.3, 'widthPercent': 0.8, 'rescaleHeight': True, 'trialN': 33, 'loaded': True, 'loadedTime': 11309.79999999702, 'positionName': 'CENTER', 'positionCoords': [285.5, 105.5]}]",Rate how much you want to eat this food from 0 (least) to 10 (most).,120345.5,1669838926950,raspberries,1656.2000000029802,True,0.67,122001.70000000298,1656.2000000029802,True,HRV,HRV_0273,2022-11-30 20:10:03
34,"[{'imgObject': {}, 'id': 'avocado', 'src': '/static/foodstim60/avocado.jpg', 'key': 'NaN', 'origWidth': 409, 'origHeight': 409, 'width': 391.3, 'height': 391.3, 'widthPercent': 0.8, 'rescaleHeight': True, 'trialN': 34, 'loaded': True, 'loadedTime': 11120.79999999702, 'positionName': 'CENTER', 'positionCoords': [285.5, 105.5]}]",Rate how much you want to eat this food from 0 (least) to 10 (most).,122008.79999999702,1669838928613,avocado,3002.9000000059605,True,0.05,125011.70000000298,3002.9000000059605,True,HRV,HRV_0273,2022-11-30 20:10:03
35,"[{'imgObject': {}, 'id': 'lox', 'src': '/static/foodstim60/lox.jpg', 'key': 'NaN', 'origWidth': 410, 'origHeight': 411, 'width': 390.3479318734793, 'height': 391.3, 'widthPercent': 0.8, 'rescaleHeight': True, 'trialN': 35, 'loaded': True, 'loadedTime': 10709.60000000894, 'positionName': 'CENTER', 'positionCoords': [286, 105.5]}]",Rate how much you want to eat this food from 0 (least) to 10 (most).,125020.29999999702,1669838931625,lox,1286.4000000059605,True,0.05,126306.70000000298,1286.4000000059605,True,HRV,HRV_0273,2022-11-30 20:10:03
36,"[{'imgObject': {}, 'id': 'cherry tomato', 'src': '/static/foodstim60/cherry tomato.jpg', 'key': 'NaN', 'origWidth': 410, 'origHeight': 410, 'width': 391.3, 'height': 391.3, 'widthPercent': 0.8, 'rescaleHeight': True, 'trialN': 36, 'loaded': True, 'loadedTime': 11446.79999999702, 'positionName': 'CENTER', 'positionCoords': [285.5, 105.5]}]",Rate how much you want to eat this food from 0 (least) to 10 (most).,126315.0,1669838932920,cherry tomato,1898.7000000029802,True,1.42,128213.70000000298,1898.7000000029802,True,HRV,HRV_0273,2022-11-30 20:10:03
37,"[{'imgObject': {}, 'id': 'corn cob', 'src': '/static/foodstim60/corn cob.jpg', 'key': 'NaN', 'origWidth': 411, 'origHeight': 411, 'width': 391.3, 'height': 391.3, 'widthPercent': 0.8, 'rescaleHeight': True, 'trialN': 37, 'loaded': True, 'loadedTime': 11424.5, 'positionName': 'CENTER', 'positionCoords': [285.5, 105.5]}]",Rate how much you want to eat this food from 0 (least) to 10 (most).,128220.0,1669838934825,corn cob,2226.7000000029802,True,0.0,130446.70000000298,2226.7000000029802,True,HRV,HRV_0273,2022-11-30 20:10:03
38,"[{'imgObject': {}, 'id': 'burger', 'src': '/static/foodstim60/burger.jpg', 'key': 'NaN', 'origWidth': 409, 'origHeight': 409, 'width': 391.3, 'height': 391.3, 'widthPercent': 0.8, 'rescaleHeight': True, 'trialN': 38, 'loaded': True, 'loadedTime': 11115.20000000298, 'positionName': 'CENTER', 'positionCoords': [285.5, 105.5]}]",Rate how much you want to eat this food from 0 (least) to 10 (most).,130452.29999999702,1669838937057,burger,2874.4000000059605,True,5.18,133326.70000000298,2874.4000000059605,True,HRV,HRV_0273,2022-11-30 20:10:03
39,"[{'imgObject': {}, 'id': 'mango', 'src': '/static/foodstim60/mango.jpg', 'key': 'NaN', 'origWidth': 411, 'origHeight': 411, 'width': 391.3, 'height': 391.3, 'widthPercent': 0.8, 'rescaleHeight': True, 'trialN': 39, 'loaded': True, 'loadedTime': 11092, 'positionName': 'CENTER', 'positionCoords': [285.5, 105.5]}]",Rate how much you want to eat this food from 0 (least) to 10 (most).,133331.70000000298,1669838939936,mango,4248.0,True,0.05,137579.70000000298,4248.0,True,HRV,HRV_0273,2022-11-30 20:10:03
40,"[{'imgObject': {}, 'id': 'sweetpotato', 'src': '/static/foodstim60/sweetpotato.jpg', 'key': 'NaN', 'origWidth': 410, 'origHeight': 410, 'width': 391.3, 'height': 391.3, 'widthPercent': 0.8, 'rescaleHeight': True, 'trialN': 40, 'loaded': True, 'loadedTime': 11562.60000000894, 'positionName': 'CENTER', 'positionCoords': [285.5, 105.5]}]",Rate how much you want to eat this food from 0 (least) to 10 (most).,137585.90000000596,1669838944190,sweetpotato,1013.7999999970198,True,0.05,138599.70000000298,1013.7999999970198,True,HRV,HRV_0273,2022-11-30 20:10:03
41,"[{'imgObject': {}, 'id': 'bagel plain', 'src': '/static/foodstim60/bagel plain.jpg', 'key': 'NaN', 'origWidth': 410, 'origHeight': 410, 'width': 391.3, 'height': 391.3, 'widthPercent': 0.8, 'rescaleHeight': True, 'trialN': 41, 'loaded': True, 'loadedTime': 11886.70000000298, 'positionName': 'CENTER', 'positionCoords': [285.5, 105.5]}]",Rate how much you want to eat this food from 0 (least) to 10 (most).,138604.90000000596,1669838945209,bagel plain,1231.7999999970198,True,0.05,139836.70000000298,1231.7999999970198,True,HRV,HRV_0273,2022-11-30 20:10:03
42,"[{'imgObject': {}, 'id': 'omelette', 'src': '/static/foodstim60/omelette.jpg', 'key': 'NaN', 'origWidth': 410, 'origHeight': 409, 'width': 392.25672371638143, 'height': 391.3, 'widthPercent': 0.8, 'rescaleHeight': True, 'trialN': 42, 'loaded': True, 'loadedTime': 11645.20000000298, 'positionName': 'CENTER', 'positionCoords': [285, 105.5]}]",Rate how much you want to eat this food from 0 (least) to 10 (most).,139842.60000000894,1669838946447,omelette,1683.0999999940395,True,0.05,141525.70000000298,1683.0999999940395,True,HRV,HRV_0273,2022-11-30 20:10:03
43,"[{'imgObject': {}, 'id': 'yogurt no spoon', 'src': '/static/foodstim60/yogurt no spoon.jpg', 'key': 'NaN', 'origWidth': 411, 'origHeight': 410, 'width': 392.25439024390244, 'height': 391.3, 'widthPercent': 0.8, 'rescaleHeight': True, 'trialN': 43, 'loaded': True, 'loadedTime': 12098.10000000894, 'positionName': 'CENTER', 'positionCoords': [285, 105.5]}]",Rate how much you want to eat this food from 0 (least) to 10 (most).,141531.5,1669838948136,yogurt no spoon,2176.2000000029802,True,1.56,143707.70000000298,2176.2000000029802,True,HRV,HRV_0273,2022-11-30 20:10:03
44,"[{'imgObject': {}, 'id': 'bagel and cc', 'src': '/static/foodstim60/bagel and cc.jpg', 'key': 'NaN', 'origWidth': 410, 'origHeight': 410, 'width': 391.3, 'height': 391.3, 'widthPercent': 0.8, 'rescaleHeight': True, 'trialN': 44, 'loaded': True, 'loadedTime': 11872, 'positionName': 'CENTER', 'positionCoords': [285.5, 105.5]}]",Rate how much you want to eat this food from 0 (least) to 10 (most).,143714.90000000596,1669838950319,bagel and cc,3861.7999999970198,True,5.14,147576.70000000298,3861.7999999970198,True,HRV,HRV_0273,2022-11-30 20:10:03
45,"[{'imgObject': {}, 'id': 'strawberries', 'src': '/static/foodstim60/strawberries.jpg', 'key': 'NaN', 'origWidth': 410, 'origHeight': 410, 'width': 391.3, 'height': 391.3, 'widthPercent': 0.8, 'rescaleHeight': True, 'trialN': 45, 'loaded': True, 'loadedTime': 11948.29999999702, 'positionName': 'CENTER', 'positionCoords': [285.5, 105.5]}]",Rate how much you want to eat this food from 0 (least) to 10 (most).,147583.60000000894,1669838954188,strawberries,1397.0999999940395,True,5.14,148980.70000000298,1397.0999999940395,True,HRV,HRV_0273,2022-11-30 20:10:03
46,"[{'imgObject': {}, 'id': 'banana', 'src': '/static/foodstim60/banana.jpg', 'key': 'NaN', 'origWidth': 410, 'origHeight': 410, 'width': 391.3, 'height': 391.3, 'widthPercent': 0.8, 'rescaleHeight': True, 'trialN': 46, 'loaded': True, 'loadedTime': 12231, 'positionName': 'CENTER', 'positionCoords': [285.5, 105.5]}]",Rate how much you want to eat this food from 0 (least) to 10 (most).,148986.60000000894,1669838955591,banana,1885.0999999940395,True,6.28,150871.70000000298,1885.0999999940395,True,HRV,HRV_0273,2022-11-30 20:10:03
47,"[{'imgObject': {}, 'id': 'granola w milk', 'src': '/static/foodstim60/granola w milk.jpg', 'key': 'NaN', 'origWidth': 410, 'origHeight': 410, 'width': 391.3, 'height': 391.3, 'widthPercent': 0.8, 'rescaleHeight': True, 'trialN': 47, 'loaded': True, 'loadedTime': 12089.29999999702, 'positionName': 'CENTER', 'positionCoords': [285.5, 105.5]}]",Rate how much you want to eat this food from 0 (least) to 10 (most).,150877.0,1669838957481,granola w milk,4799.70000000298,True,0.07,155676.70000000298,4799.70000000298,True,HRV,HRV_0273,2022-11-30 20:10:03
48,"[{'imgObject': {}, 'id': 'steak', 'src': '/static/foodstim60/steak.jpg', 'key': 'NaN', 'origWidth': 410, 'origHeight': 410, 'width': 391.3, 'height': 391.3, 'widthPercent': 0.8, 'rescaleHeight': True, 'trialN': 48, 'loaded': True, 'loadedTime': 13191.79999999702, 'positionName': 'CENTER', 'positionCoords': [285.5, 105.5]}]",Rate how much you want to eat this food from 0 (least) to 10 (most).,155681.90000000596,1669838962286,steak,2694.7999999970198,True,9.01,158376.70000000298,2694.7999999970198,True,HRV,HRV_0273,2022-11-30 20:10:03
49,"[{'imgObject': {}, 'id': 'hotdog w must', 'src': '/static/foodstim60/hotdog w must.jpg', 'key': 'NaN', 'origWidth': 409, 'origHeight': 409, 'width': 391.3, 'height': 391.3, 'widthPercent': 0.8, 'rescaleHeight': True, 'trialN': 49, 'loaded': True, 'loadedTime': 13172, 'positionName': 'CENTER', 'positionCoords': [285.5, 105.5]}]",Rate how much you want to eat this food from 0 (least) to 10 (most).,158382.5,1669838964987,hotdog w must,4269.20000000298,True,0.61,162651.70000000298,4269.20000000298,True,HRV,HRV_0273,2022-11-30 20:10:03
50,"[{'imgObject': {}, 'id': 'hashbrowns', 'src': '/static/foodstim60/hashbrowns.jpg', 'key': 'NaN', 'origWidth': 411, 'origHeight': 410, 'width': 392.25439024390244, 'height': 391.3, 'widthPercent': 0.8, 'rescaleHeight': True, 'trialN': 50, 'loaded': True, 'loadedTime': 13679.40000000596, 'positionName': 'CENTER', 'positionCoords': [285, 105.5]}]",Rate how much you want to eat this food from 0 (least) to 10 (most).,162658.29999999702,1669838969263,hashbrowns,1981.4000000059605,True,0.0,164639.70000000298,1981.4000000059605,True,HRV,HRV_0273,2022-11-30 20:10:03
51,"[{'imgObject': {}, 'id': 'pear', 'src': '/static/foodstim60/pear.jpg', 'key': 'NaN', 'origWidth': 411, 'origHeight': 410, 'width': 392.25439024390244, 'height': 391.3, 'widthPercent': 0.8, 'rescaleHeight': True, 'trialN': 51, 'loaded': True, 'loadedTime': 13571.79999999702, 'positionName': 'CENTER', 'positionCoords': [285, 105.5]}]",Rate how much you want to eat this food from 0 (least) to 10 (most).,164644.70000000298,1669838971249,pear,1712.0,True,2.04,166356.70000000298,1712.0,True,HRV,HRV_0273,2022-11-30 20:10:03
52,"[{'imgObject': {}, 'id': 'salmon', 'src': '/static/foodstim60/salmon.jpg', 'key': 'NaN', 'origWidth': 410, 'origHeight': 409, 'width': 392.25672371638143, 'height': 391.3, 'widthPercent': 0.8, 'rescaleHeight': True, 'trialN': 52, 'loaded': True, 'loadedTime': 13364.60000000894, 'positionName': 'CENTER', 'positionCoords': [285, 105.5]}]",Rate how much you want to eat this food from 0 (least) to 10 (most).,166362.0,1669838972967,salmon,2762.7000000029802,True,0.17,169124.70000000298,2762.7000000029802,True,HRV,HRV_0273,2022-11-30 20:10:03
53,"[{'imgObject': {}, 'id': 'cantaloupe', 'src': '/static/foodstim60/cantaloupe.jpg', 'key': 'NaN', 'origWidth': 409, 'origHeight': 409, 'width': 391.3, 'height': 391.3, 'widthPercent': 0.8, 'rescaleHeight': True, 'trialN': 53, 'loaded': True, 'loadedTime': 13252.79999999702, 'positionName': 'CENTER', 'positionCoords': [285.5, 105.5]}]",Rate how much you want to eat this food from 0 (least) to 10 (most).,169129.70000000298,1669838975734,cantaloupe,2755.0,True,3.46,171884.70000000298,2755.0,True,HRV,HRV_0273,2022-11-30 20:10:03
54,"[{'imgObject': {}, 'id': 'turkey sandwich', 'src': '/static/foodstim60/turkey sandwich.jpg', 'key': 'NaN', 'origWidth': 409, 'origHeight': 409, 'width': 391.3, 'height': 391.3, 'widthPercent': 0.8, 'rescaleHeight': True, 'trialN': 54, 'loaded': True, 'loadedTime': 13692.90000000596, 'positionName': 'CENTER', 'positionCoords': [285.5, 105.5]}]",Rate how much you want to eat this food from 0 (least) to 10 (most).,171890.5,1669838978495,turkey sandwich,56.20000000298023,True,3.46,171946.70000000298,56.20000000298023,True,HRV,HRV_0273,2022-11-30 20:10:03
55,"[{'imgObject': {}, 'id': 'baked potato', 'src': '/static/foodstim60/baked potato.jpg', 'key': 'NaN', 'origWidth': 409, 'origHeight': 410, 'width': 390.3456097560975, 'height': 391.29999999999995, 'widthPercent': 0.8, 'rescaleHeight': True, 'trialN': 55, 'loaded': True, 'loadedTime': 13687.10000000894, 'positionName': 'CENTER', 'positionCoords': [286, 105.5]}]",Rate how much you want to eat this food from 0 (least) to 10 (most).,171982.70000000298,1669838978587,baked potato,4133.0,True,4.33,176115.70000000298,4133.0,True,HRV,HRV_0273,2022-11-30 20:10:03
56,"[{'imgObject': {}, 'id': 'blueberries', 'src': '/static/foodstim60/blueberries.jpg', 'key': 'NaN', 'origWidth': 411, 'origHeight': 411, 'width': 391.3, 'height': 391.3, 'widthPercent': 0.8, 'rescaleHeight': True, 'trialN': 56, 'loaded': True, 'loadedTime': 13829.20000000298, 'positionName': 'CENTER', 'positionCoords': [285.5, 105.5]}]",Rate how much you want to eat this food from 0 (least) to 10 (most).,176120.90000000596,1669838982725,blueberries,4380.79999999702,True,0.17,180501.70000000298,4380.79999999702,True,HRV,HRV_0273,2022-11-30 20:10:03
57,"[{'imgObject': {}, 'id': 'fruitsalad', 'src': '/static/foodstim60/fruitsalad.jpg', 'key': 'NaN', 'origWidth': 410, 'origHeight': 410, 'width': 391.3, 'height': 391.3, 'widthPercent': 0.8, 'rescaleHeight': True, 'trialN': 57, 'loaded': True, 'loadedTime': 14024.20000000298, 'positionName': 'CENTER', 'positionCoords': [285.5, 105.5]}]",Rate how much you want to eat this food from 0 (least) to 10 (most).,180507.40000000596,1669838987112,fruitsalad,5739.29999999702,True,9.96,186246.70000000298,5739.29999999702,True,HRV,HRV_0273,2022-11-30 20:10:03
58,"[{'imgObject': {}, 'id': 'chicken nuggets2', 'src': '/static/foodstim60/chicken nuggets2.jpg', 'key': 'NaN', 'origWidth': 410, 'origHeight': 409, 'width': 392.25672371638143, 'height': 391.3, 'widthPercent': 0.8, 'rescaleHeight': True, 'trialN': 58, 'loaded': True, 'loadedTime': 14332.29999999702, 'positionName': 'CENTER', 'positionCoords': [285, 105.5]}]",Rate how much you want to eat this food from 0 (least) to 10 (most).,186252.60000000894,1669838992857,chicken nuggets2,3678.0999999940395,True,0.0,189930.70000000298,3678.0999999940395,True,HRV,HRV_0273,2022-11-30 20:10:03
59,"[{'imgObject': {}, 'id': 'kiwi', 'src': '/static/foodstim60/kiwi.jpg', 'key': 'NaN', 'origWidth': 410, 'origHeight': 410, 'width': 391.3, 'height': 391.3, 'widthPercent': 0.8, 'rescaleHeight': True, 'trialN': 59, 'loaded': True, 'loadedTime': 14129.20000000298, 'positionName': 'CENTER', 'positionCoords': [285.5, 105.5]}]",Rate how much you want to eat this food from 0 (least) to 10 (most).,189938.0,1669838996543,kiwi,2631.7000000029802,True,5.6000000000000005,192569.70000000298,2631.7000000029802,True,HRV,HRV_0273,2022-11-30 20:10:03
