trialN,stimuli,trialStartTime,trialStartTime_UNIX,stimulus1,stimulus2,stimulus1Bid,stimulus2Bid,delta,selected,rt,rt_UNIX,rt_perfnow,receivedResponse,rsp,trialEndTime,trialDuration,trialEndTime_UNIX,trialDuration_UNIX,exp,subjectId,date
0,"[{'imgObject': {}, 'id': 'mango', 'src': '/static/foodstim60/mango.jpg', 'key': 'u', 'origWidth': 411, 'origHeight': 411, 'width': 411, 'height': 411, 'widthPercent': 0.45, 'rescaleHeight': False, 'trialN': 0, 'loaded': True, 'loadedTime': 4437.20000000298, 'positionName': 'LEFT', 'positionCoords': [50.76, 95.5], 'bid': 0.13}, {'imgObject': {}, 'id': 'salmon', 'src': '/static/foodstim60/salmon.jpg', 'key': 'i', 'origWidth': 410, 'origHeight': 409, 'width': 410, 'height': 409, 'widthPercent': 0.45, 'rescaleHeight': False, 'trialN': 0, 'loaded': True, 'loadedTime': 4472.100000008941, 'positionName': 'RIGHT', 'positionCoords': [500.24, 96.5], 'bid': 0}]",5327.4000000059605,1669839259567,mango,salmon,0.13,0.0,-0.13,mango,2774.0,2854,2854.0999999940395,True,u,8687.20000000298,3359.7999999970198,1669839262927,3360,HRV,HRV_0273,2022-11-30 20:21:02
1,"[{'imgObject': {}, 'id': 'rigatoni', 'src': '/static/foodstim60/rigatoni.jpg', 'key': 'u', 'origWidth': 411, 'origHeight': 411, 'width': 411, 'height': 411, 'widthPercent': 0.45, 'rescaleHeight': False, 'trialN': 1, 'loaded': True, 'loadedTime': 4473.20000000298, 'positionName': 'LEFT', 'positionCoords': [50.76, 95.5], 'bid': 0.13}, {'imgObject': {}, 'id': 'omelette', 'src': '/static/foodstim60/omelette.jpg', 'key': 'i', 'origWidth': 410, 'origHeight': 409, 'width': 410, 'height': 409, 'widthPercent': 0.45, 'rescaleHeight': False, 'trialN': 1, 'loaded': True, 'loadedTime': 4512.70000000298, 'positionName': 'RIGHT', 'positionCoords': [500.24, 96.5], 'bid': 0.01}]",8692.10000000894,1669839262932,rigatoni,omelette,0.13,0.01,-0.12000000000000001,rigatoni,1471.2999999970198,1477,1477.3999999910593,True,u,10670.40000000596,1978.2999999970198,1669839264910,1978,HRV,HRV_0273,2022-11-30 20:21:02
2,"[{'imgObject': {}, 'id': 'mac & cheese', 'src': '/static/foodstim60/mac & cheese.jpg', 'key': 'u', 'origWidth': 410, 'origHeight': 410, 'width': 410, 'height': 410, 'widthPercent': 0.45, 'rescaleHeight': False, 'trialN': 2, 'loaded': True, 'loadedTime': 4513.600000008941, 'positionName': 'LEFT', 'positionCoords': [51.76, 96], 'bid': 9.36}, {'imgObject': {}, 'id': 'burger', 'src': '/static/foodstim60/burger.jpg', 'key': 'i', 'origWidth': 409, 'origHeight': 409, 'width': 409, 'height': 409, 'widthPercent': 0.45, 'rescaleHeight': False, 'trialN': 2, 'loaded': True, 'loadedTime': 4551.600000008941, 'positionName': 'RIGHT', 'positionCoords': [500.24, 96.5], 'bid': 6.49}]",10671.300000011921,1669839264911,mac & cheese,burger,9.36,6.49,-2.869999999999999,mac & cheese,2837.0999999940395,2844,2843.699999988079,True,u,14015.90000000596,3344.5999999940395,1669839268256,3345,HRV,HRV_0273,2022-11-30 20:21:02
3,"[{'imgObject': {}, 'id': 'steak', 'src': '/static/foodstim60/steak.jpg', 'key': 'u', 'origWidth': 410, 'origHeight': 410, 'width': 410, 'height': 410, 'widthPercent': 0.45, 'rescaleHeight': False, 'trialN': 3, 'loaded': True, 'loadedTime': 4566.4000000059605, 'positionName': 'LEFT', 'positionCoords': [51.76, 96], 'bid': 8.86}, {'imgObject': {}, 'id': 'cocktailshrimp', 'src': '/static/foodstim60/cocktailshrimp.jpg', 'key': 'i', 'origWidth': 410, 'origHeight': 410, 'width': 410, 'height': 410, 'widthPercent': 0.45, 'rescaleHeight': False, 'trialN': 3, 'loaded': True, 'loadedTime': 4580.100000008941, 'positionName': 'RIGHT', 'positionCoords': [500.24, 96], 'bid': 0.4}]",14016.90000000596,1669839268257,steak,cocktailshrimp,8.86,0.4,-8.459999999999999,steak,1051.5,1057,1056.7999999970198,True,u,15574.70000000298,1557.7999999970198,1669839269815,1558,HRV,HRV_0273,2022-11-30 20:21:02
4,"[{'imgObject': {}, 'id': 'granola w milk', 'src': '/static/foodstim60/granola w milk.jpg', 'key': 'u', 'origWidth': 410, 'origHeight': 410, 'width': 410, 'height': 410, 'widthPercent': 0.45, 'rescaleHeight': False, 'trialN': 4, 'loaded': True, 'loadedTime': 4619.300000011921, 'positionName': 'LEFT', 'positionCoords': [51.76, 96], 'bid': 0}, {'imgObject': {}, 'id': 'cheerios', 'src': '/static/foodstim60/cheerios.jpg', 'key': 'i', 'origWidth': 409, 'origHeight': 410, 'width': 409, 'height': 410, 'widthPercent': 0.45, 'rescaleHeight': False, 'trialN': 4, 'loaded': True, 'loadedTime': 4621.100000008941, 'positionName': 'RIGHT', 'positionCoords': [500.24, 96], 'bid': 0.13}]",15575.70000000298,1669839269816,granola w milk,cheerios,0.0,0.13,0.13,cheerios,1790.7000000029802,1796,1796.2999999970198,True,i,17873.0,2297.2999999970198,1669839272113,2297,HRV,HRV_0273,2022-11-30 20:21:02
5,"[{'imgObject': {}, 'id': 'bagel plain', 'src': '/static/foodstim60/bagel plain.jpg', 'key': 'u', 'origWidth': 410, 'origHeight': 410, 'width': 410, 'height': 410, 'widthPercent': 0.45, 'rescaleHeight': False, 'trialN': 5, 'loaded': True, 'loadedTime': 4651.800000011921, 'positionName': 'LEFT', 'positionCoords': [51.76, 96], 'bid': 0.11}, {'imgObject': {}, 'id': 'yogurt no spoon', 'src': '/static/foodstim60/yogurt no spoon.jpg', 'key': 'i', 'origWidth': 411, 'origHeight': 410, 'width': 411, 'height': 410, 'widthPercent': 0.45, 'rescaleHeight': False, 'trialN': 5, 'loaded': True, 'loadedTime': 4658.800000011921, 'positionName': 'RIGHT', 'positionCoords': [500.24, 96], 'bid': 1.36}]",17874.0,1669839272114,bagel plain,yogurt no spoon,0.11,1.36,1.25,yogurt no spoon,1125.4000000059605,1131,1130.800000011921,True,i,19505.80000001192,1631.800000011921,1669839273746,1632,HRV,HRV_0273,2022-11-30 20:21:02
6,"[{'imgObject': {}, 'id': 'cantaloupe', 'src': '/static/foodstim60/cantaloupe.jpg', 'key': 'u', 'origWidth': 409, 'origHeight': 409, 'width': 409, 'height': 409, 'widthPercent': 0.45, 'rescaleHeight': False, 'trialN': 6, 'loaded': True, 'loadedTime': 4698.600000008941, 'positionName': 'LEFT', 'positionCoords': [52.76, 96.5], 'bid': 2.21}, {'imgObject': {}, 'id': 'salmon', 'src': '/static/foodstim60/salmon.jpg', 'key': 'i', 'origWidth': 410, 'origHeight': 409, 'width': 410, 'height': 409, 'widthPercent': 0.45, 'rescaleHeight': False, 'trialN': 6, 'loaded': True, 'loadedTime': 4445.300000011921, 'positionName': 'RIGHT', 'positionCoords': [500.24, 96.5], 'bid': 0}]",19506.80000001192,1669839273747,cantaloupe,salmon,2.21,0.0,-2.21,cantaloupe,1579.5999999940395,1585,1585.5999999940395,True,u,21593.30000001192,2086.5,1669839275833,2086,HRV,HRV_0273,2022-11-30 20:21:02
7,"[{'imgObject': {}, 'id': 'mac & cheese', 'src': '/static/foodstim60/mac & cheese.jpg', 'key': 'u', 'origWidth': 410, 'origHeight': 410, 'width': 410, 'height': 410, 'widthPercent': 0.45, 'rescaleHeight': False, 'trialN': 7, 'loaded': True, 'loadedTime': 4518.5, 'positionName': 'LEFT', 'positionCoords': [51.76, 96], 'bid': 9.36}, {'imgObject': {}, 'id': 'strawberries', 'src': '/static/foodstim60/strawberries.jpg', 'key': 'i', 'origWidth': 410, 'origHeight': 410, 'width': 410, 'height': 410, 'widthPercent': 0.45, 'rescaleHeight': False, 'trialN': 7, 'loaded': True, 'loadedTime': 4726.4000000059605, 'positionName': 'RIGHT', 'positionCoords': [500.24, 96], 'bid': 5.8100000000000005}]",21594.20000000298,1669839275834,mac & cheese,strawberries,9.36,5.8100000000000005,-3.549999999999999,mac & cheese,1885.2000000029802,1891,1890.6000000089407,True,u,23985.80000001192,2391.6000000089407,1669839278226,2392,HRV,HRV_0273,2022-11-30 20:21:02
8,"[{'imgObject': {}, 'id': 'eggs', 'src': '/static/foodstim60/eggs.jpg', 'key': 'u', 'origWidth': 409, 'origHeight': 409, 'width': 409, 'height': 409, 'widthPercent': 0.45, 'rescaleHeight': False, 'trialN': 8, 'loaded': True, 'loadedTime': 4736.20000000298, 'positionName': 'LEFT', 'positionCoords': [52.76, 96.5], 'bid': 1.94}, {'imgObject': {}, 'id': 'yogurt no spoon', 'src': '/static/foodstim60/yogurt no spoon.jpg', 'key': 'i', 'origWidth': 411, 'origHeight': 410, 'width': 411, 'height': 410, 'widthPercent': 0.45, 'rescaleHeight': False, 'trialN': 8, 'loaded': True, 'loadedTime': 4663.600000008941, 'positionName': 'RIGHT', 'positionCoords': [500.24, 96], 'bid': 1.36}]",23986.60000000894,1669839278226,eggs,yogurt no spoon,1.94,1.36,-0.5799999999999998,yogurt no spoon,1709.7999999970198,1717,1716.5999999940395,True,i,26204.10000000894,2217.5,1669839280444,2218,HRV,HRV_0273,2022-11-30 20:21:02
9,"[{'imgObject': {}, 'id': 'grilled chicken strips', 'src': '/static/foodstim60/grilled chicken strips.jpg', 'key': 'u', 'origWidth': 410, 'origHeight': 411, 'width': 410, 'height': 411, 'widthPercent': 0.45, 'rescaleHeight': False, 'trialN': 9, 'loaded': True, 'loadedTime': 4752.20000000298, 'positionName': 'LEFT', 'positionCoords': [51.76, 95.5], 'bid': 3.64}, {'imgObject': {}, 'id': 'banana', 'src': '/static/foodstim60/banana.jpg', 'key': 'i', 'origWidth': 410, 'origHeight': 410, 'width': 410, 'height': 410, 'widthPercent': 0.45, 'rescaleHeight': False, 'trialN': 9, 'loaded': True, 'loadedTime': 4778.100000008941, 'positionName': 'RIGHT', 'positionCoords': [500.24, 96], 'bid': 5.66}]",26204.90000000596,1669839280445,grilled chicken strips,banana,3.64,5.66,2.02,banana,1000.5,1006,1006.2999999970198,True,i,27712.20000000298,1507.2999999970198,1669839281952,1507,HRV,HRV_0273,2022-11-30 20:21:02
10,"[{'imgObject': {}, 'id': 'salad w chicken', 'src': '/static/foodstim60/salad w chicken.jpg', 'key': 'u', 'origWidth': 411, 'origHeight': 411, 'width': 411, 'height': 411, 'widthPercent': 0.45, 'rescaleHeight': False, 'trialN': 10, 'loaded': True, 'loadedTime': 4790.70000000298, 'positionName': 'LEFT', 'positionCoords': [50.76, 95.5], 'bid': 6.2}, {'imgObject': {}, 'id': 'cheerios', 'src': '/static/foodstim60/cheerios.jpg', 'key': 'i', 'origWidth': 409, 'origHeight': 410, 'width': 409, 'height': 410, 'widthPercent': 0.45, 'rescaleHeight': False, 'trialN': 10, 'loaded': True, 'loadedTime': 4625.70000000298, 'positionName': 'RIGHT', 'positionCoords': [500.24, 96], 'bid': 0.13}]",27713.0,1669839281953,salad w chicken,cheerios,6.2,0.13,-6.07,salad w chicken,1523.4000000059605,1529,1529.2000000029802,True,u,29743.0,2030.0,1669839283983,2030,HRV,HRV_0273,2022-11-30 20:21:02
11,"[{'imgObject': {}, 'id': 'orange slices', 'src': '/static/foodstim60/orange slices.jpg', 'key': 'u', 'origWidth': 409, 'origHeight': 410, 'width': 409, 'height': 410, 'widthPercent': 0.45, 'rescaleHeight': False, 'trialN': 11, 'loaded': True, 'loadedTime': 4807.800000011921, 'positionName': 'LEFT', 'positionCoords': [52.76, 96], 'bid': 3.69}, {'imgObject': {}, 'id': 'grilled chicken strips', 'src': '/static/foodstim60/grilled chicken strips.jpg', 'key': 'i', 'origWidth': 410, 'origHeight': 411, 'width': 410, 'height': 411, 'widthPercent': 0.45, 'rescaleHeight': False, 'trialN': 11, 'loaded': True, 'loadedTime': 4750.9000000059605, 'positionName': 'RIGHT', 'positionCoords': [500.24, 95.5], 'bid': 3.64}]",29743.70000000298,1669839283984,orange slices,grilled chicken strips,3.69,3.64,-0.04999999999999982,orange slices,1931.7000000029802,1936,1936.9000000059605,True,u,32181.5,2437.7999999970198,1669839286421,2437,HRV,HRV_0273,2022-11-30 20:21:02
12,"[{'imgObject': {}, 'id': 'seaweed', 'src': '/static/foodstim60/seaweed.jpg', 'key': 'u', 'origWidth': 410, 'origHeight': 410, 'width': 410, 'height': 410, 'widthPercent': 0.45, 'rescaleHeight': False, 'trialN': 12, 'loaded': True, 'loadedTime': 4824.70000000298, 'positionName': 'LEFT', 'positionCoords': [51.76, 96], 'bid': 0.17}, {'imgObject': {}, 'id': 'avocado', 'src': '/static/foodstim60/avocado.jpg', 'key': 'i', 'origWidth': 409, 'origHeight': 409, 'width': 409, 'height': 409, 'widthPercent': 0.45, 'rescaleHeight': False, 'trialN': 12, 'loaded': True, 'loadedTime': 4835.5, 'positionName': 'RIGHT', 'positionCoords': [500.24, 96.5], 'bid': 0}]",32182.20000000298,1669839286422,seaweed,avocado,0.17,0.0,-0.17,avocado,1591.2000000029802,1597,1597.1000000089407,True,i,34280.30000001192,2098.1000000089407,1669839288520,2098,HRV,HRV_0273,2022-11-30 20:21:02
13,"[{'imgObject': {}, 'id': 'sushi w_condiments', 'src': '/static/foodstim60/sushi w_condiments.jpg', 'key': 'u', 'origWidth': 410, 'origHeight': 410, 'width': 410, 'height': 410, 'widthPercent': 0.45, 'rescaleHeight': False, 'trialN': 13, 'loaded': True, 'loadedTime': 4860.100000008941, 'positionName': 'LEFT', 'positionCoords': [51.76, 96], 'bid': 0}, {'imgObject': {}, 'id': 'shreddedwheatwithmilk', 'src': '/static/foodstim60/shreddedwheatwithmilk.jpg', 'key': 'i', 'origWidth': 410, 'origHeight': 410, 'width': 410, 'height': 410, 'widthPercent': 0.45, 'rescaleHeight': False, 'trialN': 13, 'loaded': True, 'loadedTime': 4873.20000000298, 'positionName': 'RIGHT', 'positionCoords': [500.24, 96], 'bid': 0}]",34281.10000000894,1669839288521,sushi w_condiments,shreddedwheatwithmilk,0.0,0.0,0.0,shreddedwheatwithmilk,1188.2999999970198,1193,1193.3999999910593,True,i,35975.30000001192,1694.2000000029802,1669839290215,1694,HRV,HRV_0273,2022-11-30 20:21:02
14,"[{'imgObject': {}, 'id': 'ice cream sundae 002', 'src': '/static/foodstim60/ice cream sundae 002.jpg', 'key': 'u', 'origWidth': 409, 'origHeight': 409, 'width': 409, 'height': 409, 'widthPercent': 0.45, 'rescaleHeight': False, 'trialN': 14, 'loaded': True, 'loadedTime': 4896.600000008941, 'positionName': 'LEFT', 'positionCoords': [52.76, 96.5], 'bid': 4.95}, {'imgObject': {}, 'id': 'kiwi', 'src': '/static/foodstim60/kiwi.jpg', 'key': 'i', 'origWidth': 410, 'origHeight': 410, 'width': 410, 'height': 410, 'widthPercent': 0.45, 'rescaleHeight': False, 'trialN': 14, 'loaded': True, 'loadedTime': 4908.600000008941, 'positionName': 'RIGHT', 'positionCoords': [500.24, 96], 'bid': 6.99}]",35976.0,1669839290216,ice cream sundae 002,kiwi,4.95,6.99,2.04,kiwi,1547.4000000059605,1554,1553.9000000059605,True,i,38030.70000000298,2054.7000000029802,1669839292271,2055,HRV,HRV_0273,2022-11-30 20:21:02
15,"[{'imgObject': {}, 'id': 'luckycharms', 'src': '/static/foodstim60/luckycharms.jpg', 'key': 'u', 'origWidth': 410, 'origHeight': 409, 'width': 410, 'height': 409, 'widthPercent': 0.45, 'rescaleHeight': False, 'trialN': 15, 'loaded': True, 'loadedTime': 4916.300000011921, 'positionName': 'LEFT', 'positionCoords': [51.76, 96.5], 'bid': 0.8}, {'imgObject': {}, 'id': 'turkey sandwich', 'src': '/static/foodstim60/turkey sandwich.jpg', 'key': 'i', 'origWidth': 409, 'origHeight': 409, 'width': 409, 'height': 409, 'widthPercent': 0.45, 'rescaleHeight': False, 'trialN': 15, 'loaded': True, 'loadedTime': 4942.300000011921, 'positionName': 'RIGHT', 'positionCoords': [500.24, 96.5], 'bid': 9.88}]",38031.40000000596,1669839292271,luckycharms,turkey sandwich,0.8,9.88,9.08,turkey sandwich,1442.0,1449,1448.2999999970198,True,i,39980.70000000298,1949.2999999970198,1669839294220,1949,HRV,HRV_0273,2022-11-30 20:21:02
16,"[{'imgObject': {}, 'id': 'mac & cheese', 'src': '/static/foodstim60/mac & cheese.jpg', 'key': 'u', 'origWidth': 410, 'origHeight': 410, 'width': 410, 'height': 410, 'widthPercent': 0.45, 'rescaleHeight': False, 'trialN': 16, 'loaded': True, 'loadedTime': 4522.20000000298, 'positionName': 'LEFT', 'positionCoords': [51.76, 96], 'bid': 9.36}, {'imgObject': {}, 'id': 'turkey sandwich', 'src': '/static/foodstim60/turkey sandwich.jpg', 'key': 'i', 'origWidth': 409, 'origHeight': 409, 'width': 409, 'height': 409, 'widthPercent': 0.45, 'rescaleHeight': False, 'trialN': 16, 'loaded': True, 'loadedTime': 4943.100000008941, 'positionName': 'RIGHT', 'positionCoords': [500.24, 96.5], 'bid': 9.88}]",39981.40000000596,1669839294221,mac & cheese,turkey sandwich,9.36,9.88,0.5200000000000014,turkey sandwich,1908.0,1916,1916.0999999940395,True,i,42403.5,2422.0999999940395,1669839296643,2422,HRV,HRV_0273,2022-11-30 20:21:02
17,"[{'imgObject': {}, 'id': 'pear', 'src': '/static/foodstim60/pear.jpg', 'key': 'u', 'origWidth': 411, 'origHeight': 410, 'width': 411, 'height': 410, 'widthPercent': 0.45, 'rescaleHeight': False, 'trialN': 17, 'loaded': True, 'loadedTime': 4953.600000008941, 'positionName': 'LEFT', 'positionCoords': [50.76, 96], 'bid': 2.67}, {'imgObject': {}, 'id': 'cantaloupe', 'src': '/static/foodstim60/cantaloupe.jpg', 'key': 'i', 'origWidth': 409, 'origHeight': 409, 'width': 409, 'height': 409, 'widthPercent': 0.45, 'rescaleHeight': False, 'trialN': 17, 'loaded': True, 'loadedTime': 4700.70000000298, 'positionName': 'RIGHT', 'positionCoords': [500.24, 96.5], 'bid': 2.21}]",42404.0,1669839296644,pear,cantaloupe,2.67,2.21,-0.45999999999999996,pear,3054.4000000059605,3066,3066.5,True,u,45971.70000000298,3567.7000000029802,1669839300212,3568,HRV,HRV_0273,2022-11-30 20:21:02
18,"[{'imgObject': {}, 'id': 'salad w chicken', 'src': '/static/foodstim60/salad w chicken.jpg', 'key': 'u', 'origWidth': 411, 'origHeight': 411, 'width': 411, 'height': 411, 'widthPercent': 0.45, 'rescaleHeight': False, 'trialN': 18, 'loaded': True, 'loadedTime': 4788.100000008941, 'positionName': 'LEFT', 'positionCoords': [50.76, 95.5], 'bid': 6.2}, {'imgObject': {}, 'id': 'burger', 'src': '/static/foodstim60/burger.jpg', 'key': 'i', 'origWidth': 409, 'origHeight': 409, 'width': 409, 'height': 409, 'widthPercent': 0.45, 'rescaleHeight': False, 'trialN': 18, 'loaded': True, 'loadedTime': 4553, 'positionName': 'RIGHT', 'positionCoords': [500.24, 96.5], 'bid': 6.49}]",45976.0,1669839300216,salad w chicken,burger,6.2,6.49,0.29000000000000004,burger,1649.4000000059605,1658,1657.9000000059605,True,i,48134.70000000298,2158.7000000029802,1669839302375,2159,HRV,HRV_0273,2022-11-30 20:21:02
19,"[{'imgObject': {}, 'id': 'popsicles', 'src': '/static/foodstim60/popsicles.jpg', 'key': 'u', 'origWidth': 410, 'origHeight': 410, 'width': 410, 'height': 410, 'widthPercent': 0.45, 'rescaleHeight': False, 'trialN': 19, 'loaded': True, 'loadedTime': 4974.9000000059605, 'positionName': 'LEFT', 'positionCoords': [51.76, 96], 'bid': 1.44}, {'imgObject': {}, 'id': 'burrito', 'src': '/static/foodstim60/burrito.jpg', 'key': 'i', 'origWidth': 410, 'origHeight': 410, 'width': 410, 'height': 410, 'widthPercent': 0.45, 'rescaleHeight': False, 'trialN': 19, 'loaded': True, 'loadedTime': 4982.9000000059605, 'positionName': 'RIGHT', 'positionCoords': [500.24, 96], 'bid': 2.85}]",48135.40000000596,1669839302375,popsicles,burrito,1.44,2.85,1.4100000000000001,popsicles,2589.0,2595,2594.9000000059605,True,u,51231.0,3095.5999999940395,1669839305471,3096,HRV,HRV_0273,2022-11-30 20:21:02
20,"[{'imgObject': {}, 'id': 'steak', 'src': '/static/foodstim60/steak.jpg', 'key': 'u', 'origWidth': 410, 'origHeight': 410, 'width': 410, 'height': 410, 'widthPercent': 0.45, 'rescaleHeight': False, 'trialN': 20, 'loaded': True, 'loadedTime': 4567.9000000059605, 'positionName': 'LEFT', 'positionCoords': [51.76, 96], 'bid': 8.86}, {'imgObject': {}, 'id': 'eggsalad', 'src': '/static/foodstim60/eggsalad.jpg', 'key': 'i', 'origWidth': 410, 'origHeight': 409, 'width': 410, 'height': 409, 'widthPercent': 0.45, 'rescaleHeight': False, 'trialN': 20, 'loaded': True, 'loadedTime': 4991.800000011921, 'positionName': 'RIGHT', 'positionCoords': [500.24, 96.5], 'bid': 6.28}]",51231.70000000298,1669839305471,steak,eggsalad,8.86,6.28,-2.579999999999999,steak,1306.7000000029802,1314,1313.1000000089407,True,u,53045.80000001192,1814.1000000089407,1669839307286,1815,HRV,HRV_0273,2022-11-30 20:21:02
21,"[{'imgObject': {}, 'id': 'olives', 'src': '/static/foodstim60/olives.jpg', 'key': 'u', 'origWidth': 410, 'origHeight': 410, 'width': 410, 'height': 410, 'widthPercent': 0.45, 'rescaleHeight': False, 'trialN': 21, 'loaded': True, 'loadedTime': 4999.70000000298, 'positionName': 'LEFT', 'positionCoords': [51.76, 96], 'bid': 0.07}, {'imgObject': {}, 'id': 'omelette', 'src': '/static/foodstim60/omelette.jpg', 'key': 'i', 'origWidth': 410, 'origHeight': 409, 'width': 410, 'height': 409, 'widthPercent': 0.45, 'rescaleHeight': False, 'trialN': 21, 'loaded': True, 'loadedTime': 4487.100000008941, 'positionName': 'RIGHT', 'positionCoords': [500.24, 96.5], 'bid': 0.01}]",53046.40000000596,1669839307286,olives,omelette,0.07,0.01,-0.060000000000000005,olives,2718.0,2724,2724.0,True,u,56271.20000000298,3224.7999999970198,1669839310511,3225,HRV,HRV_0273,2022-11-30 20:21:02
22,"[{'imgObject': {}, 'id': 'veggieswithdip', 'src': '/static/foodstim60/veggieswithdip.jpg', 'key': 'u', 'origWidth': 409, 'origHeight': 409, 'width': 409, 'height': 409, 'widthPercent': 0.45, 'rescaleHeight': False, 'trialN': 22, 'loaded': True, 'loadedTime': 5011.5, 'positionName': 'LEFT', 'positionCoords': [52.76, 96.5], 'bid': 2.52}, {'imgObject': {}, 'id': 'cantaloupe', 'src': '/static/foodstim60/cantaloupe.jpg', 'key': 'i', 'origWidth': 409, 'origHeight': 409, 'width': 409, 'height': 409, 'widthPercent': 0.45, 'rescaleHeight': False, 'trialN': 22, 'loaded': True, 'loadedTime': 4689.100000008941, 'positionName': 'RIGHT', 'positionCoords': [500.24, 96.5], 'bid': 2.21}]",56271.90000000596,1669839310512,veggieswithdip,cantaloupe,2.52,2.21,-0.31000000000000005,veggieswithdip,2611.5,2619,2619.2999999970198,True,u,59392.0,3120.0999999940395,1669839313632,3120,HRV,HRV_0273,2022-11-30 20:21:02
23,"[{'imgObject': {}, 'id': 'cherries', 'src': '/static/foodstim60/cherries.jpg', 'key': 'u', 'origWidth': 410, 'origHeight': 411, 'width': 410, 'height': 411, 'widthPercent': 0.45, 'rescaleHeight': False, 'trialN': 23, 'loaded': True, 'loadedTime': 5007.5, 'positionName': 'LEFT', 'positionCoords': [51.76, 95.5], 'bid': 3.96}, {'imgObject': {}, 'id': 'steak', 'src': '/static/foodstim60/steak.jpg', 'key': 'i', 'origWidth': 410, 'origHeight': 410, 'width': 410, 'height': 410, 'widthPercent': 0.45, 'rescaleHeight': False, 'trialN': 23, 'loaded': True, 'loadedTime': 4559.4000000059605, 'positionName': 'RIGHT', 'positionCoords': [500.24, 96], 'bid': 8.86}]",59392.80000001192,1669839313633,cherries,steak,3.96,8.86,4.8999999999999995,steak,1396.5999999940395,1402,1401.8999999910593,True,i,61295.5,1902.699999988079,1669839315535,1902,HRV,HRV_0273,2022-11-30 20:21:02
24,"[{'imgObject': {}, 'id': 'cherry tomato', 'src': '/static/foodstim60/cherry tomato.jpg', 'key': 'u', 'origWidth': 410, 'origHeight': 410, 'width': 410, 'height': 410, 'widthPercent': 0.45, 'rescaleHeight': False, 'trialN': 24, 'loaded': True, 'loadedTime': 5037.600000008941, 'positionName': 'LEFT', 'positionCoords': [51.76, 96], 'bid': 1.98}, {'imgObject': {}, 'id': 'strawberries', 'src': '/static/foodstim60/strawberries.jpg', 'key': 'i', 'origWidth': 410, 'origHeight': 410, 'width': 410, 'height': 410, 'widthPercent': 0.45, 'rescaleHeight': False, 'trialN': 24, 'loaded': True, 'loadedTime': 4702.300000011921, 'positionName': 'RIGHT', 'positionCoords': [500.24, 96], 'bid': 5.8100000000000005}]",61296.20000000298,1669839315536,cherry tomato,strawberries,1.98,5.8100000000000005,3.8300000000000005,strawberries,933.2000000029802,939,938.7999999970198,True,i,62735.70000000298,1439.5,1669839316976,1440,HRV,HRV_0273,2022-11-30 20:21:02
25,"[{'imgObject': {}, 'id': 'sweetpotato', 'src': '/static/foodstim60/sweetpotato.jpg', 'key': 'u', 'origWidth': 410, 'origHeight': 410, 'width': 410, 'height': 410, 'widthPercent': 0.45, 'rescaleHeight': False, 'trialN': 25, 'loaded': True, 'loadedTime': 5050.20000000298, 'positionName': 'LEFT', 'positionCoords': [51.76, 96], 'bid': 0.3}, {'imgObject': {}, 'id': 'fried eggs', 'src': '/static/foodstim60/fried eggs.jpg', 'key': 'i', 'origWidth': 410, 'origHeight': 410, 'width': 410, 'height': 410, 'widthPercent': 0.45, 'rescaleHeight': False, 'trialN': 25, 'loaded': True, 'loadedTime': 5055.70000000298, 'positionName': 'RIGHT', 'positionCoords': [500.24, 96], 'bid': 0.28}]",62736.20000000298,1669839316976,sweetpotato,fried eggs,0.3,0.28,-0.019999999999999962,fried eggs,2389.2000000029802,2396,2396.0,True,i,65633.10000000894,2896.9000000059605,1669839319873,2897,HRV,HRV_0273,2022-11-30 20:21:02
26,"[{'imgObject': {}, 'id': 'banana', 'src': '/static/foodstim60/banana.jpg', 'key': 'u', 'origWidth': 410, 'origHeight': 410, 'width': 410, 'height': 410, 'widthPercent': 0.45, 'rescaleHeight': False, 'trialN': 26, 'loaded': True, 'loadedTime': 4771.5, 'positionName': 'LEFT', 'positionCoords': [51.76, 96], 'bid': 5.66}, {'imgObject': {}, 'id': 'blackbeanswithrice', 'src': '/static/foodstim60/blackbeanswithrice.jpg', 'key': 'i', 'origWidth': 410, 'origHeight': 410, 'width': 410, 'height': 410, 'widthPercent': 0.45, 'rescaleHeight': False, 'trialN': 26, 'loaded': True, 'loadedTime': 5068.70000000298, 'positionName': 'RIGHT', 'positionCoords': [500.24, 96], 'bid': 0.11}]",65633.70000000298,1669839319874,banana,blackbeanswithrice,5.66,0.11,-5.55,banana,1390.7000000029802,1396,1396.2999999970198,True,u,67530.90000000596,1897.2000000029802,1669839321771,1897,HRV,HRV_0273,2022-11-30 20:21:02
27,"[{'imgObject': {}, 'id': 'blackbeanswithrice', 'src': '/static/foodstim60/blackbeanswithrice.jpg', 'key': 'u', 'origWidth': 410, 'origHeight': 410, 'width': 410, 'height': 410, 'widthPercent': 0.45, 'rescaleHeight': False, 'trialN': 27, 'loaded': True, 'loadedTime': 5061.300000011921, 'positionName': 'LEFT', 'positionCoords': [51.76, 96], 'bid': 0.11}, {'imgObject': {}, 'id': 'popsicles', 'src': '/static/foodstim60/popsicles.jpg', 'key': 'i', 'origWidth': 410, 'origHeight': 410, 'width': 410, 'height': 410, 'widthPercent': 0.45, 'rescaleHeight': False, 'trialN': 27, 'loaded': True, 'loadedTime': 4960.20000000298, 'positionName': 'RIGHT', 'positionCoords': [500.24, 96], 'bid': 1.44}]",67531.5,1669839321771,blackbeanswithrice,popsicles,0.11,1.44,1.3299999999999998,popsicles,1269.9000000059605,1276,1275.9000000059605,True,i,69308.20000000298,1776.7000000029802,1669839323548,1777,HRV,HRV_0273,2022-11-30 20:21:02
28,"[{'imgObject': {}, 'id': 'popsicles', 'src': '/static/foodstim60/popsicles.jpg', 'key': 'u', 'origWidth': 410, 'origHeight': 410, 'width': 410, 'height': 410, 'widthPercent': 0.45, 'rescaleHeight': False, 'trialN': 28, 'loaded': True, 'loadedTime': 4955.20000000298, 'positionName': 'LEFT', 'positionCoords': [51.76, 96], 'bid': 1.44}, {'imgObject': {}, 'id': 'yogurt no spoon', 'src': '/static/foodstim60/yogurt no spoon.jpg', 'key': 'i', 'origWidth': 411, 'origHeight': 410, 'width': 411, 'height': 410, 'widthPercent': 0.45, 'rescaleHeight': False, 'trialN': 28, 'loaded': True, 'loadedTime': 4667.9000000059605, 'positionName': 'RIGHT', 'positionCoords': [500.24, 96], 'bid': 1.36}]",69308.90000000596,1669839323549,popsicles,yogurt no spoon,1.44,1.36,-0.07999999999999985,yogurt no spoon,1762.5,1768,1768.7999999970198,True,i,71578.5,2269.5999999940395,1669839325818,2269,HRV,HRV_0273,2022-11-30 20:21:02
29,"[{'imgObject': {}, 'id': 'bagel plain', 'src': '/static/foodstim60/bagel plain.jpg', 'key': 'u', 'origWidth': 410, 'origHeight': 410, 'width': 410, 'height': 410, 'widthPercent': 0.45, 'rescaleHeight': False, 'trialN': 29, 'loaded': True, 'loadedTime': 4656.100000008941, 'positionName': 'LEFT', 'positionCoords': [51.76, 96], 'bid': 0.11}, {'imgObject': {}, 'id': 'baked potato', 'src': '/static/foodstim60/baked potato.jpg', 'key': 'i', 'origWidth': 409, 'origHeight': 410, 'width': 409, 'height': 410, 'widthPercent': 0.45, 'rescaleHeight': False, 'trialN': 29, 'loaded': True, 'loadedTime': 5093.300000011921, 'positionName': 'RIGHT', 'positionCoords': [500.24, 96], 'bid': 5.58}]",71579.10000000894,1669839325819,bagel plain,baked potato,0.11,5.58,5.47,baked potato,1067.2999999970198,1073,1073.2000000029802,True,i,73153.10000000894,1574.0,1669839327393,1574,HRV,HRV_0273,2022-11-30 20:21:02
30,"[{'imgObject': {}, 'id': 'fruitsalad', 'src': '/static/foodstim60/fruitsalad.jpg', 'key': 'u', 'origWidth': 410, 'origHeight': 410, 'width': 410, 'height': 410, 'widthPercent': 0.45, 'rescaleHeight': False, 'trialN': 30, 'loaded': True, 'loadedTime': 5100.20000000298, 'positionName': 'LEFT', 'positionCoords': [51.76, 96], 'bid': 9.98}, {'imgObject': {}, 'id': 'salad w chicken', 'src': '/static/foodstim60/salad w chicken.jpg', 'key': 'i', 'origWidth': 411, 'origHeight': 411, 'width': 411, 'height': 411, 'widthPercent': 0.45, 'rescaleHeight': False, 'trialN': 30, 'loaded': True, 'loadedTime': 4786.800000011921, 'positionName': 'RIGHT', 'positionCoords': [500.24, 95.5], 'bid': 6.2}]",73153.70000000298,1669839327394,fruitsalad,salad w chicken,9.98,6.2,-3.7800000000000002,fruitsalad,1285.7000000029802,1291,1291.0,True,u,74945.60000000894,1791.9000000059605,1669839329185,1791,HRV,HRV_0273,2022-11-30 20:21:02
31,"[{'imgObject': {}, 'id': 'rigatoni', 'src': '/static/foodstim60/rigatoni.jpg', 'key': 'u', 'origWidth': 411, 'origHeight': 411, 'width': 411, 'height': 411, 'widthPercent': 0.45, 'rescaleHeight': False, 'trialN': 31, 'loaded': True, 'loadedTime': 4479.100000008941, 'positionName': 'LEFT', 'positionCoords': [50.76, 95.5], 'bid': 0.13}, {'imgObject': {}, 'id': 'mango', 'src': '/static/foodstim60/mango.jpg', 'key': 'i', 'origWidth': 411, 'origHeight': 411, 'width': 411, 'height': 411, 'widthPercent': 0.45, 'rescaleHeight': False, 'trialN': 31, 'loaded': True, 'loadedTime': 4438.300000011921, 'positionName': 'RIGHT', 'positionCoords': [500.24, 95.5], 'bid': 0.13}]",74946.30000001192,1669839329186,rigatoni,mango,0.13,0.13,0.0,mango,2185.0999999940395,2192,2191.5999999940395,True,i,77638.60000000894,2692.2999999970198,1669839331878,2692,HRV,HRV_0273,2022-11-30 20:21:02
32,"[{'imgObject': {}, 'id': 'Tribe humus pita', 'src': '/static/foodstim60/Tribe humus pita.jpg', 'key': 'u', 'origWidth': 411, 'origHeight': 411, 'width': 411, 'height': 411, 'widthPercent': 0.45, 'rescaleHeight': False, 'trialN': 32, 'loaded': True, 'loadedTime': 5111.4000000059605, 'positionName': 'LEFT', 'positionCoords': [50.76, 95.5], 'bid': 0.11}, {'imgObject': {}, 'id': 'blackbeanswithrice', 'src': '/static/foodstim60/blackbeanswithrice.jpg', 'key': 'i', 'origWidth': 410, 'origHeight': 410, 'width': 410, 'height': 410, 'widthPercent': 0.45, 'rescaleHeight': False, 'trialN': 32, 'loaded': True, 'loadedTime': 5071.100000008941, 'positionName': 'RIGHT', 'positionCoords': [500.24, 96], 'bid': 0.11}]",77639.30000001192,1669839331879,Tribe humus pita,blackbeanswithrice,0.11,0.11,0.0,Tribe humus pita,1742.0999999940395,1748,1748.0,True,u,79888.10000000894,2248.7999999970198,1669839334128,2249,HRV,HRV_0273,2022-11-30 20:21:02
33,"[{'imgObject': {}, 'id': 'hashbrowns', 'src': '/static/foodstim60/hashbrowns.jpg', 'key': 'u', 'origWidth': 411, 'origHeight': 410, 'width': 411, 'height': 410, 'widthPercent': 0.45, 'rescaleHeight': False, 'trialN': 33, 'loaded': True, 'loadedTime': 5118.600000008941, 'positionName': 'LEFT', 'positionCoords': [50.76, 96], 'bid': 0.11}, {'imgObject': {}, 'id': 'hotdog w must', 'src': '/static/foodstim60/hotdog w must.jpg', 'key': 'i', 'origWidth': 409, 'origHeight': 409, 'width': 409, 'height': 409, 'widthPercent': 0.45, 'rescaleHeight': False, 'trialN': 33, 'loaded': True, 'loadedTime': 5144.100000008941, 'positionName': 'RIGHT', 'positionCoords': [500.24, 96.5], 'bid': 0.09}]",79888.70000000298,1669839334129,hashbrowns,hotdog w must,0.11,0.09,-0.020000000000000004,hotdog w must,1722.7000000029802,1729,1729.0,True,i,82118.5,2229.7999999970198,1669839336358,2229,HRV,HRV_0273,2022-11-30 20:21:02
34,"[{'imgObject': {}, 'id': 'lox', 'src': '/static/foodstim60/lox.jpg', 'key': 'u', 'origWidth': 410, 'origHeight': 411, 'width': 410, 'height': 411, 'widthPercent': 0.45, 'rescaleHeight': False, 'trialN': 34, 'loaded': True, 'loadedTime': 5153.100000008941, 'positionName': 'LEFT', 'positionCoords': [51.76, 95.5], 'bid': 0.17}, {'imgObject': {}, 'id': 'blueberries', 'src': '/static/foodstim60/blueberries.jpg', 'key': 'i', 'origWidth': 411, 'origHeight': 411, 'width': 411, 'height': 411, 'widthPercent': 0.45, 'rescaleHeight': False, 'trialN': 34, 'loaded': True, 'loadedTime': 5156, 'positionName': 'RIGHT', 'positionCoords': [500.24, 95.5], 'bid': 0.17}]",82119.10000000894,1669839336359,lox,blueberries,0.17,0.17,0.0,lox,1064.2999999970198,1071,1071.3999999910593,True,u,83691.20000000298,1572.0999999940395,1669839337931,1572,HRV,HRV_0273,2022-11-30 20:21:02
35,"[{'imgObject': {}, 'id': 'shreddedwheatwithmilk', 'src': '/static/foodstim60/shreddedwheatwithmilk.jpg', 'key': 'u', 'origWidth': 410, 'origHeight': 410, 'width': 410, 'height': 410, 'widthPercent': 0.45, 'rescaleHeight': False, 'trialN': 35, 'loaded': True, 'loadedTime': 4873.800000011921, 'positionName': 'LEFT', 'positionCoords': [51.76, 96], 'bid': 0}, {'imgObject': {}, 'id': 'eggs', 'src': '/static/foodstim60/eggs.jpg', 'key': 'i', 'origWidth': 409, 'origHeight': 409, 'width': 409, 'height': 409, 'widthPercent': 0.45, 'rescaleHeight': False, 'trialN': 35, 'loaded': True, 'loadedTime': 4737.20000000298, 'positionName': 'RIGHT', 'positionCoords': [500.24, 96.5], 'bid': 1.94}]",83691.90000000596,1669839337932,shreddedwheatwithmilk,eggs,0.0,1.94,1.94,shreddedwheatwithmilk,1254.5,1260,1260.2000000029802,True,u,85453.0,1761.0999999940395,1669839339693,1761,HRV,HRV_0273,2022-11-30 20:21:02
36,"[{'imgObject': {}, 'id': 'raisin bran w milk', 'src': '/static/foodstim60/raisin bran w milk.jpg', 'key': 'u', 'origWidth': 411, 'origHeight': 411, 'width': 411, 'height': 411, 'widthPercent': 0.45, 'rescaleHeight': False, 'trialN': 36, 'loaded': True, 'loadedTime': 5171.5, 'positionName': 'LEFT', 'positionCoords': [50.76, 95.5], 'bid': 0.6900000000000001}, {'imgObject': {}, 'id': 'apple slices', 'src': '/static/foodstim60/apple slices.jpg', 'key': 'i', 'origWidth': 409, 'origHeight': 410, 'width': 409, 'height': 410, 'widthPercent': 0.45, 'rescaleHeight': False, 'trialN': 36, 'loaded': True, 'loadedTime': 5193.300000011921, 'positionName': 'RIGHT', 'positionCoords': [500.24, 96], 'bid': 3.39}]",85453.5,1669839339693,raisin bran w milk,apple slices,0.6900000000000001,3.39,2.7,raisin bran w milk,1368.9000000059605,1375,1374.7000000029802,True,u,87329.0,1875.5,1669839341569,1876,HRV,HRV_0273,2022-11-30 20:21:02
37,"[{'imgObject': {}, 'id': 'corn cob', 'src': '/static/foodstim60/corn cob.jpg', 'key': 'u', 'origWidth': 411, 'origHeight': 411, 'width': 411, 'height': 411, 'widthPercent': 0.45, 'rescaleHeight': False, 'trialN': 37, 'loaded': True, 'loadedTime': 5202.9000000059605, 'positionName': 'LEFT', 'positionCoords': [50.76, 95.5], 'bid': 0.34}, {'imgObject': {}, 'id': 'raisin bran w milk', 'src': '/static/foodstim60/raisin bran w milk.jpg', 'key': 'i', 'origWidth': 411, 'origHeight': 411, 'width': 411, 'height': 411, 'widthPercent': 0.45, 'rescaleHeight': False, 'trialN': 37, 'loaded': True, 'loadedTime': 5172.4000000059605, 'positionName': 'RIGHT', 'positionCoords': [500.24, 95.5], 'bid': 0.6900000000000001}]",87329.60000000894,1669839341569,corn cob,raisin bran w milk,0.34,0.6900000000000001,0.35000000000000003,raisin bran w milk,2161.7999999970198,2168,2167.7999999970198,True,i,89998.10000000894,2668.5,1669839344238,2669,HRV,HRV_0273,2022-11-30 20:21:02
38,"[{'imgObject': {}, 'id': 'eggs', 'src': '/static/foodstim60/eggs.jpg', 'key': 'u', 'origWidth': 409, 'origHeight': 409, 'width': 409, 'height': 409, 'widthPercent': 0.45, 'rescaleHeight': False, 'trialN': 38, 'loaded': True, 'loadedTime': 4738.300000011921, 'positionName': 'LEFT', 'positionCoords': [52.76, 96.5], 'bid': 1.94}, {'imgObject': {}, 'id': 'cherry tomato', 'src': '/static/foodstim60/cherry tomato.jpg', 'key': 'i', 'origWidth': 410, 'origHeight': 410, 'width': 410, 'height': 410, 'widthPercent': 0.45, 'rescaleHeight': False, 'trialN': 38, 'loaded': True, 'loadedTime': 5040.4000000059605, 'positionName': 'RIGHT', 'positionCoords': [500.24, 96], 'bid': 1.98}]",89998.70000000298,1669839344239,eggs,cherry tomato,1.94,1.98,0.040000000000000036,eggs,1924.7000000029802,1931,1931.5,True,u,92431.0,2432.2999999970198,1669839346671,2432,HRV,HRV_0273,2022-11-30 20:21:02
39,"[{'imgObject': {}, 'id': 'avocado', 'src': '/static/foodstim60/avocado.jpg', 'key': 'u', 'origWidth': 409, 'origHeight': 409, 'width': 409, 'height': 409, 'widthPercent': 0.45, 'rescaleHeight': False, 'trialN': 39, 'loaded': True, 'loadedTime': 4827.70000000298, 'positionName': 'LEFT', 'positionCoords': [52.76, 96.5], 'bid': 0}, {'imgObject': {}, 'id': 'edamame', 'src': '/static/foodstim60/edamame.jpg', 'key': 'i', 'origWidth': 409, 'origHeight': 410, 'width': 409, 'height': 410, 'widthPercent': 0.45, 'rescaleHeight': False, 'trialN': 39, 'loaded': True, 'loadedTime': 5204.800000011921, 'positionName': 'RIGHT', 'positionCoords': [500.24, 96], 'bid': 0.09}]",92431.60000000894,1669839346671,avocado,edamame,0.0,0.09,0.09,avocado,2294.7999999970198,2302,2301.8999999910593,True,u,95234.30000001192,2802.7000000029802,1669839349474,2803,HRV,HRV_0273,2022-11-30 20:21:02
40,"[{'imgObject': {}, 'id': 'apple slices', 'src': '/static/foodstim60/apple slices.jpg', 'key': 'u', 'origWidth': 409, 'origHeight': 410, 'width': 409, 'height': 410, 'widthPercent': 0.45, 'rescaleHeight': False, 'trialN': 40, 'loaded': True, 'loadedTime': 5179.9000000059605, 'positionName': 'LEFT', 'positionCoords': [52.76, 96], 'bid': 3.39}, {'imgObject': {}, 'id': 'Grapes', 'src': '/static/foodstim60/Grapes.jpg', 'key': 'i', 'origWidth': 411, 'origHeight': 411, 'width': 411, 'height': 411, 'widthPercent': 0.45, 'rescaleHeight': False, 'trialN': 40, 'loaded': True, 'loadedTime': 5220.600000008941, 'positionName': 'RIGHT', 'positionCoords': [500.24, 95.5], 'bid': 5.3500000000000005}]",95234.90000000596,1669839349475,apple slices,Grapes,3.39,5.3500000000000005,1.9600000000000004,Grapes,1442.5,1449,1449.0,True,i,97184.80000001192,1949.9000000059605,1669839351425,1950,HRV,HRV_0273,2022-11-30 20:21:02
41,"[{'imgObject': {}, 'id': 'mac & cheese', 'src': '/static/foodstim60/mac & cheese.jpg', 'key': 'u', 'origWidth': 410, 'origHeight': 410, 'width': 410, 'height': 410, 'widthPercent': 0.45, 'rescaleHeight': False, 'trialN': 41, 'loaded': True, 'loadedTime': 4521, 'positionName': 'LEFT', 'positionCoords': [51.76, 96], 'bid': 9.36}, {'imgObject': {}, 'id': 'fruitsalad', 'src': '/static/foodstim60/fruitsalad.jpg', 'key': 'i', 'origWidth': 410, 'origHeight': 410, 'width': 410, 'height': 410, 'widthPercent': 0.45, 'rescaleHeight': False, 'trialN': 41, 'loaded': True, 'loadedTime': 5102.800000011921, 'positionName': 'RIGHT', 'positionCoords': [500.24, 96], 'bid': 9.98}]",97185.5,1669839351425,mac & cheese,fruitsalad,9.36,9.98,0.620000000000001,fruitsalad,780.9000000059605,787,787.1000000089407,True,i,98473.5,1288.0,1669839352713,1288,HRV,HRV_0273,2022-11-30 20:21:02
42,"[{'imgObject': {}, 'id': 'blackbeanswithrice', 'src': '/static/foodstim60/blackbeanswithrice.jpg', 'key': 'u', 'origWidth': 410, 'origHeight': 410, 'width': 410, 'height': 410, 'widthPercent': 0.45, 'rescaleHeight': False, 'trialN': 42, 'loaded': True, 'loadedTime': 5066.5, 'positionName': 'LEFT', 'positionCoords': [51.76, 96], 'bid': 0.11}, {'imgObject': {}, 'id': 'chicken nuggets2', 'src': '/static/foodstim60/chicken nuggets2.jpg', 'key': 'i', 'origWidth': 410, 'origHeight': 409, 'width': 410, 'height': 409, 'widthPercent': 0.45, 'rescaleHeight': False, 'trialN': 42, 'loaded': True, 'loadedTime': 5229.5, 'positionName': 'RIGHT', 'positionCoords': [500.24, 96.5], 'bid': 0.11}]",98474.10000000894,1669839352714,blackbeanswithrice,chicken nuggets2,0.11,0.11,0.0,chicken nuggets2,1734.2999999970198,1741,1740.7999999970198,True,i,100715.80000001192,2241.7000000029802,1669839354956,2242,HRV,HRV_0273,2022-11-30 20:21:02
43,"[{'imgObject': {}, 'id': 'raisin bran w milk', 'src': '/static/foodstim60/raisin bran w milk.jpg', 'key': 'u', 'origWidth': 411, 'origHeight': 411, 'width': 411, 'height': 411, 'widthPercent': 0.45, 'rescaleHeight': False, 'trialN': 43, 'loaded': True, 'loadedTime': 5164.9000000059605, 'positionName': 'LEFT', 'positionCoords': [50.76, 95.5], 'bid': 0.6900000000000001}, {'imgObject': {}, 'id': 'cantaloupe', 'src': '/static/foodstim60/cantaloupe.jpg', 'key': 'i', 'origWidth': 409, 'origHeight': 409, 'width': 409, 'height': 409, 'widthPercent': 0.45, 'rescaleHeight': False, 'trialN': 43, 'loaded': True, 'loadedTime': 4695.9000000059605, 'positionName': 'RIGHT', 'positionCoords': [500.24, 96.5], 'bid': 2.21}]",100716.5,1669839354956,raisin bran w milk,cantaloupe,0.6900000000000001,2.21,1.52,cantaloupe,1066.9000000059605,1074,1073.7000000029802,True,i,102291.0,1574.5,1669839356531,1575,HRV,HRV_0273,2022-11-30 20:21:02
44,"[{'imgObject': {}, 'id': 'rigatoni', 'src': '/static/foodstim60/rigatoni.jpg', 'key': 'u', 'origWidth': 411, 'origHeight': 411, 'width': 411, 'height': 411, 'widthPercent': 0.45, 'rescaleHeight': False, 'trialN': 44, 'loaded': True, 'loadedTime': 4477.300000011921, 'positionName': 'LEFT', 'positionCoords': [50.76, 95.5], 'bid': 0.13}, {'imgObject': {}, 'id': 'fried eggs', 'src': '/static/foodstim60/fried eggs.jpg', 'key': 'i', 'origWidth': 410, 'origHeight': 410, 'width': 410, 'height': 410, 'widthPercent': 0.45, 'rescaleHeight': False, 'trialN': 44, 'loaded': True, 'loadedTime': 5056.300000011921, 'positionName': 'RIGHT', 'positionCoords': [500.24, 96], 'bid': 0.28}]",102291.70000000298,1669839356531,rigatoni,fried eggs,0.13,0.28,0.15000000000000002,fried eggs,1322.7000000029802,1329,1328.2999999970198,True,i,104120.90000000596,1829.2000000029802,1669839358361,1830,HRV,HRV_0273,2022-11-30 20:21:02
45,"[{'imgObject': {}, 'id': 'eggs', 'src': '/static/foodstim60/eggs.jpg', 'key': 'u', 'origWidth': 409, 'origHeight': 409, 'width': 409, 'height': 409, 'widthPercent': 0.45, 'rescaleHeight': False, 'trialN': 45, 'loaded': True, 'loadedTime': 4730.70000000298, 'positionName': 'LEFT', 'positionCoords': [52.76, 96.5], 'bid': 1.94}, {'imgObject': {}, 'id': 'corn cob', 'src': '/static/foodstim60/corn cob.jpg', 'key': 'i', 'origWidth': 411, 'origHeight': 411, 'width': 411, 'height': 411, 'widthPercent': 0.45, 'rescaleHeight': False, 'trialN': 45, 'loaded': True, 'loadedTime': 5195.9000000059605, 'positionName': 'RIGHT', 'positionCoords': [500.24, 95.5], 'bid': 0.34}]",104121.5,1669839358361,eggs,corn cob,1.94,0.34,-1.5999999999999999,eggs,1757.9000000059605,1766,1765.300000011921,True,u,106387.70000000298,2266.2000000029802,1669839360627,2266,HRV,HRV_0273,2022-11-30 20:21:02
46,"[{'imgObject': {}, 'id': 'orange slices', 'src': '/static/foodstim60/orange slices.jpg', 'key': 'u', 'origWidth': 409, 'origHeight': 410, 'width': 409, 'height': 410, 'widthPercent': 0.45, 'rescaleHeight': False, 'trialN': 46, 'loaded': True, 'loadedTime': 4811.9000000059605, 'positionName': 'LEFT', 'positionCoords': [52.76, 96], 'bid': 3.69}, {'imgObject': {}, 'id': 'popsicles', 'src': '/static/foodstim60/popsicles.jpg', 'key': 'i', 'origWidth': 410, 'origHeight': 410, 'width': 410, 'height': 410, 'widthPercent': 0.45, 'rescaleHeight': False, 'trialN': 46, 'loaded': True, 'loadedTime': 4961.300000011921, 'positionName': 'RIGHT', 'positionCoords': [500.24, 96], 'bid': 1.44}]",106388.5,1669839360628,orange slices,popsicles,3.69,1.44,-2.25,orange slices,2070.9000000059605,2077,2076.5,True,u,108965.90000000596,2577.4000000059605,1669839363206,2578,HRV,HRV_0273,2022-11-30 20:21:02
47,"[{'imgObject': {}, 'id': 'mango', 'src': '/static/foodstim60/mango.jpg', 'key': 'u', 'origWidth': 411, 'origHeight': 411, 'width': 411, 'height': 411, 'widthPercent': 0.45, 'rescaleHeight': False, 'trialN': 47, 'loaded': True, 'loadedTime': 4435.800000011921, 'positionName': 'LEFT', 'positionCoords': [50.76, 95.5], 'bid': 0.13}, {'imgObject': {}, 'id': 'seaweed', 'src': '/static/foodstim60/seaweed.jpg', 'key': 'i', 'origWidth': 410, 'origHeight': 410, 'width': 410, 'height': 410, 'widthPercent': 0.45, 'rescaleHeight': False, 'trialN': 47, 'loaded': True, 'loadedTime': 4823.600000008941, 'positionName': 'RIGHT', 'positionCoords': [500.24, 96], 'bid': 0.17}]",108966.5,1669839363206,mango,seaweed,0.13,0.17,0.04000000000000001,mango,1592.9000000059605,1599,1599.2000000029802,True,u,111066.5,2100.0,1669839365306,2100,HRV,HRV_0273,2022-11-30 20:21:02
48,"[{'imgObject': {}, 'id': 'raisin bran w milk', 'src': '/static/foodstim60/raisin bran w milk.jpg', 'key': 'u', 'origWidth': 411, 'origHeight': 411, 'width': 411, 'height': 411, 'widthPercent': 0.45, 'rescaleHeight': False, 'trialN': 48, 'loaded': True, 'loadedTime': 5170.9000000059605, 'positionName': 'LEFT', 'positionCoords': [50.76, 95.5], 'bid': 0.6900000000000001}, {'imgObject': {}, 'id': 'mac & cheese', 'src': '/static/foodstim60/mac & cheese.jpg', 'key': 'i', 'origWidth': 410, 'origHeight': 410, 'width': 410, 'height': 410, 'widthPercent': 0.45, 'rescaleHeight': False, 'trialN': 48, 'loaded': True, 'loadedTime': 4519.9000000059605, 'positionName': 'RIGHT', 'positionCoords': [500.24, 96], 'bid': 9.36}]",111067.10000000894,1669839365307,raisin bran w milk,mac & cheese,0.6900000000000001,9.36,8.67,mac & cheese,1441.2999999970198,1448,1447.7000000029802,True,i,113015.70000000298,1948.5999999940395,1669839367256,1949,HRV,HRV_0273,2022-11-30 20:21:02
49,"[{'imgObject': {}, 'id': 'hotdog w must', 'src': '/static/foodstim60/hotdog w must.jpg', 'key': 'u', 'origWidth': 409, 'origHeight': 409, 'width': 409, 'height': 409, 'widthPercent': 0.45, 'rescaleHeight': False, 'trialN': 49, 'loaded': True, 'loadedTime': 5146.600000008941, 'positionName': 'LEFT', 'positionCoords': [52.76, 96.5], 'bid': 0.09}, {'imgObject': {}, 'id': 'granola w milk', 'src': '/static/foodstim60/granola w milk.jpg', 'key': 'i', 'origWidth': 410, 'origHeight': 410, 'width': 410, 'height': 410, 'widthPercent': 0.45, 'rescaleHeight': False, 'trialN': 49, 'loaded': True, 'loadedTime': 4613.5, 'positionName': 'RIGHT', 'positionCoords': [500.24, 96], 'bid': 0}]",113017.20000000298,1669839367257,hotdog w must,granola w milk,0.09,0.0,-0.09,hotdog w must,1531.2000000029802,1568,1567.5,True,u,115086.0,2068.7999999970198,1669839369326,2069,HRV,HRV_0273,2022-11-30 20:21:02
50,"[{'imgObject': {}, 'id': 'chicken nuggets2', 'src': '/static/foodstim60/chicken nuggets2.jpg', 'key': 'u', 'origWidth': 410, 'origHeight': 409, 'width': 410, 'height': 409, 'widthPercent': 0.45, 'rescaleHeight': False, 'trialN': 50, 'loaded': True, 'loadedTime': 5230.800000011921, 'positionName': 'LEFT', 'positionCoords': [51.76, 96.5], 'bid': 0.11}, {'imgObject': {}, 'id': 'bagel plain', 'src': '/static/foodstim60/bagel plain.jpg', 'key': 'i', 'origWidth': 410, 'origHeight': 410, 'width': 410, 'height': 410, 'widthPercent': 0.45, 'rescaleHeight': False, 'trialN': 50, 'loaded': True, 'loadedTime': 4653.300000011921, 'positionName': 'RIGHT', 'positionCoords': [500.24, 96], 'bid': 0.11}]",115087.30000001192,1669839369327,chicken nuggets2,bagel plain,0.11,0.11,0.0,bagel plain,1715.0999999940395,1721,1720.8999999910593,True,i,117309.10000000894,2221.7999999970198,1669839371549,2222,HRV,HRV_0273,2022-11-30 20:21:02
51,"[{'imgObject': {}, 'id': 'lox', 'src': '/static/foodstim60/lox.jpg', 'key': 'u', 'origWidth': 410, 'origHeight': 411, 'width': 410, 'height': 411, 'widthPercent': 0.45, 'rescaleHeight': False, 'trialN': 51, 'loaded': True, 'loadedTime': 5155, 'positionName': 'LEFT', 'positionCoords': [51.76, 95.5], 'bid': 0.17}, {'imgObject': {}, 'id': 'omelette', 'src': '/static/foodstim60/omelette.jpg', 'key': 'i', 'origWidth': 410, 'origHeight': 409, 'width': 410, 'height': 409, 'widthPercent': 0.45, 'rescaleHeight': False, 'trialN': 51, 'loaded': True, 'loadedTime': 4489.4000000059605, 'positionName': 'RIGHT', 'positionCoords': [500.24, 96.5], 'bid': 0.01}]",117310.10000000894,1669839371550,lox,omelette,0.17,0.01,-0.16,omelette,2001.2999999970198,2008,2007.5999999940395,True,i,119818.60000000894,2508.5,1669839374058,2508,HRV,HRV_0273,2022-11-30 20:21:02
52,"[{'imgObject': {}, 'id': 'rigatoni and sauce', 'src': '/static/foodstim60/rigatoni and sauce.jpg', 'key': 'u', 'origWidth': 410, 'origHeight': 411, 'width': 410, 'height': 411, 'widthPercent': 0.45, 'rescaleHeight': False, 'trialN': 52, 'loaded': True, 'loadedTime': 5233, 'positionName': 'LEFT', 'positionCoords': [51.76, 95.5], 'bid': 7.18}, {'imgObject': {}, 'id': 'turkeysandwich', 'src': '/static/foodstim60/turkeysandwich.jpg', 'key': 'i', 'origWidth': 409, 'origHeight': 409, 'width': 409, 'height': 409, 'widthPercent': 0.45, 'rescaleHeight': False, 'trialN': 52, 'loaded': True, 'loadedTime': 5261.70000000298, 'positionName': 'RIGHT', 'positionCoords': [500.24, 96.5], 'bid': 8.700000000000001}]",119819.20000000298,1669839374059,rigatoni and sauce,turkeysandwich,7.18,8.700000000000001,1.5200000000000014,turkeysandwich,1802.2000000029802,1808,1808.2999999970198,True,i,122128.30000001192,2309.1000000089407,1669839376368,2309,HRV,HRV_0273,2022-11-30 20:21:02
53,"[{'imgObject': {}, 'id': 'blueberries', 'src': '/static/foodstim60/blueberries.jpg', 'key': 'u', 'origWidth': 411, 'origHeight': 411, 'width': 411, 'height': 411, 'widthPercent': 0.45, 'rescaleHeight': False, 'trialN': 53, 'loaded': True, 'loadedTime': 5160.300000011921, 'positionName': 'LEFT', 'positionCoords': [50.76, 95.5], 'bid': 0.17}, {'imgObject': {}, 'id': 'blackbeanswithrice', 'src': '/static/foodstim60/blackbeanswithrice.jpg', 'key': 'i', 'origWidth': 410, 'origHeight': 410, 'width': 410, 'height': 410, 'widthPercent': 0.45, 'rescaleHeight': False, 'trialN': 53, 'loaded': True, 'loadedTime': 5069.800000011921, 'positionName': 'RIGHT', 'positionCoords': [500.24, 96], 'bid': 0.11}]",122129.0,1669839376369,blueberries,blackbeanswithrice,0.17,0.11,-0.06000000000000001,blueberries,1344.4000000059605,1352,1351.9000000059605,True,u,123981.90000000596,1852.9000000059605,1669839378222,1853,HRV,HRV_0273,2022-11-30 20:21:02
54,"[{'imgObject': {}, 'id': 'roastedpotatoes', 'src': '/static/foodstim60/roastedpotatoes.jpg', 'key': 'u', 'origWidth': 409, 'origHeight': 410, 'width': 409, 'height': 410, 'widthPercent': 0.45, 'rescaleHeight': False, 'trialN': 54, 'loaded': True, 'loadedTime': 5249.800000011921, 'positionName': 'LEFT', 'positionCoords': [52.76, 96], 'bid': 3.58}, {'imgObject': {}, 'id': 'apple slices', 'src': '/static/foodstim60/apple slices.jpg', 'key': 'i', 'origWidth': 409, 'origHeight': 410, 'width': 409, 'height': 410, 'widthPercent': 0.45, 'rescaleHeight': False, 'trialN': 54, 'loaded': True, 'loadedTime': 5174.4000000059605, 'positionName': 'RIGHT', 'positionCoords': [500.24, 96], 'bid': 3.39}]",123982.70000000298,1669839378223,roastedpotatoes,apple slices,3.58,3.39,-0.18999999999999995,roastedpotatoes,1140.7000000029802,1146,1146.7999999970198,True,u,125630.60000000894,1647.9000000059605,1669839379870,1647,HRV,HRV_0273,2022-11-30 20:21:02
55,"[{'imgObject': {}, 'id': 'tacos', 'src': '/static/foodstim60/tacos.jpg', 'key': 'u', 'origWidth': 411, 'origHeight': 411, 'width': 411, 'height': 411, 'widthPercent': 0.45, 'rescaleHeight': False, 'trialN': 55, 'loaded': True, 'loadedTime': 5268.20000000298, 'positionName': 'LEFT', 'positionCoords': [50.76, 95.5], 'bid': 9.98}, {'imgObject': {}, 'id': 'fruitsalad', 'src': '/static/foodstim60/fruitsalad.jpg', 'key': 'i', 'origWidth': 410, 'origHeight': 410, 'width': 410, 'height': 410, 'widthPercent': 0.45, 'rescaleHeight': False, 'trialN': 55, 'loaded': True, 'loadedTime': 5103.300000011921, 'positionName': 'RIGHT', 'positionCoords': [500.24, 96], 'bid': 9.98}]",125631.80000001192,1669839379872,tacos,fruitsalad,9.98,9.98,0.0,fruitsalad,1876.5999999940395,1883,1883.3999999910593,True,i,128016.10000000894,2384.2999999970198,1669839382256,2384,HRV,HRV_0273,2022-11-30 20:21:02
56,"[{'imgObject': {}, 'id': 'baked potato', 'src': '/static/foodstim60/baked potato.jpg', 'key': 'u', 'origWidth': 409, 'origHeight': 410, 'width': 409, 'height': 410, 'widthPercent': 0.45, 'rescaleHeight': False, 'trialN': 56, 'loaded': True, 'loadedTime': 5094, 'positionName': 'LEFT', 'positionCoords': [52.76, 96], 'bid': 5.58}, {'imgObject': {}, 'id': 'fruitsalad', 'src': '/static/foodstim60/fruitsalad.jpg', 'key': 'i', 'origWidth': 410, 'origHeight': 410, 'width': 410, 'height': 410, 'widthPercent': 0.45, 'rescaleHeight': False, 'trialN': 56, 'loaded': True, 'loadedTime': 5102.20000000298, 'positionName': 'RIGHT', 'positionCoords': [500.24, 96], 'bid': 9.98}]",128016.70000000298,1669839382257,baked potato,fruitsalad,5.58,9.98,4.4,fruitsalad,1554.7000000029802,1560,1560.7999999970198,True,i,130078.30000001192,2061.6000000089407,1669839384318,2061,HRV,HRV_0273,2022-11-30 20:21:02
57,"[{'imgObject': {}, 'id': 'salmon', 'src': '/static/foodstim60/salmon.jpg', 'key': 'u', 'origWidth': 410, 'origHeight': 409, 'width': 410, 'height': 409, 'widthPercent': 0.45, 'rescaleHeight': False, 'trialN': 57, 'loaded': True, 'loadedTime': 4446.4000000059605, 'positionName': 'LEFT', 'positionCoords': [51.76, 96.5], 'bid': 0}, {'imgObject': {}, 'id': 'shreddedwheatwithmilk', 'src': '/static/foodstim60/shreddedwheatwithmilk.jpg', 'key': 'i', 'origWidth': 410, 'origHeight': 410, 'width': 410, 'height': 410, 'widthPercent': 0.45, 'rescaleHeight': False, 'trialN': 57, 'loaded': True, 'loadedTime': 4864.70000000298, 'positionName': 'RIGHT', 'positionCoords': [500.24, 96], 'bid': 0}]",130079.0,1669839384319,salmon,shreddedwheatwithmilk,0.0,0.0,0.0,salmon,1646.4000000059605,1652,1652.6000000089407,True,u,132232.40000000596,2153.4000000059605,1669839386472,2153,HRV,HRV_0273,2022-11-30 20:21:02
58,"[{'imgObject': {}, 'id': 'burrito', 'src': '/static/foodstim60/burrito.jpg', 'key': 'u', 'origWidth': 410, 'origHeight': 410, 'width': 410, 'height': 410, 'widthPercent': 0.45, 'rescaleHeight': False, 'trialN': 58, 'loaded': True, 'loadedTime': 4981.70000000298, 'positionName': 'LEFT', 'positionCoords': [51.76, 96], 'bid': 2.85}, {'imgObject': {}, 'id': 'veggieswithdip', 'src': '/static/foodstim60/veggieswithdip.jpg', 'key': 'i', 'origWidth': 409, 'origHeight': 409, 'width': 409, 'height': 409, 'widthPercent': 0.45, 'rescaleHeight': False, 'trialN': 58, 'loaded': True, 'loadedTime': 5016.9000000059605, 'positionName': 'RIGHT', 'positionCoords': [500.24, 96.5], 'bid': 2.52}]",132233.10000000894,1669839386473,burrito,veggieswithdip,2.85,2.52,-0.33000000000000007,burrito,1178.2999999970198,1184,1183.8999999910593,True,u,133917.80000001192,1684.7000000029802,1669839388158,1685,HRV,HRV_0273,2022-11-30 20:21:02
59,"[{'imgObject': {}, 'id': 'apple slices', 'src': '/static/foodstim60/apple slices.jpg', 'key': 'u', 'origWidth': 409, 'origHeight': 410, 'width': 409, 'height': 410, 'widthPercent': 0.45, 'rescaleHeight': False, 'trialN': 59, 'loaded': True, 'loadedTime': 5179.20000000298, 'positionName': 'LEFT', 'positionCoords': [52.76, 96], 'bid': 3.39}, {'imgObject': {}, 'id': 'omelette', 'src': '/static/foodstim60/omelette.jpg', 'key': 'i', 'origWidth': 410, 'origHeight': 409, 'width': 410, 'height': 409, 'widthPercent': 0.45, 'rescaleHeight': False, 'trialN': 59, 'loaded': True, 'loadedTime': 4510.9000000059605, 'positionName': 'RIGHT', 'positionCoords': [500.24, 96.5], 'bid': 0.01}]",133918.40000000596,1669839388158,apple slices,omelette,3.39,0.01,-3.3800000000000003,apple slices,1714.0,1720,1720.0,True,u,136139.20000000298,2220.7999999970198,1669839390379,2221,HRV,HRV_0273,2022-11-30 20:21:02
60,"[{'imgObject': {}, 'id': 'turkey sandwich', 'src': '/static/foodstim60/turkey sandwich.jpg', 'key': 'u', 'origWidth': 409, 'origHeight': 409, 'width': 409, 'height': 409, 'widthPercent': 0.45, 'rescaleHeight': False, 'trialN': 60, 'loaded': True, 'loadedTime': 4937.800000011921, 'positionName': 'LEFT', 'positionCoords': [52.76, 96.5], 'bid': 9.88}, {'imgObject': {}, 'id': 'bagel and cc', 'src': '/static/foodstim60/bagel and cc.jpg', 'key': 'i', 'origWidth': 410, 'origHeight': 410, 'width': 410, 'height': 410, 'widthPercent': 0.45, 'rescaleHeight': False, 'trialN': 60, 'loaded': True, 'loadedTime': 5272.800000011921, 'positionName': 'RIGHT', 'positionCoords': [500.24, 96], 'bid': 6.18}]",136139.80000001192,1669839390380,turkey sandwich,bagel and cc,9.88,6.18,-3.700000000000001,turkey sandwich,1546.5999999940395,1552,1552.5999999940395,True,u,138193.20000000298,2053.3999999910593,1669839392433,2053,HRV,HRV_0273,2022-11-30 20:21:02
61,"[{'imgObject': {}, 'id': 'banana', 'src': '/static/foodstim60/banana.jpg', 'key': 'u', 'origWidth': 410, 'origHeight': 410, 'width': 410, 'height': 410, 'widthPercent': 0.45, 'rescaleHeight': False, 'trialN': 61, 'loaded': True, 'loadedTime': 4779.600000008941, 'positionName': 'LEFT', 'positionCoords': [51.76, 96], 'bid': 5.66}, {'imgObject': {}, 'id': 'strawberries', 'src': '/static/foodstim60/strawberries.jpg', 'key': 'i', 'origWidth': 410, 'origHeight': 410, 'width': 410, 'height': 410, 'widthPercent': 0.45, 'rescaleHeight': False, 'trialN': 61, 'loaded': True, 'loadedTime': 4708.70000000298, 'positionName': 'RIGHT', 'positionCoords': [500.24, 96], 'bid': 5.8100000000000005}]",138193.80000001192,1669839392434,banana,strawberries,5.66,5.8100000000000005,0.15000000000000036,strawberries,2890.5999999940395,2896,2896.0999999940395,True,i,141590.60000000894,3396.7999999970198,1669839395830,3396,HRV,HRV_0273,2022-11-30 20:21:02
62,"[{'imgObject': {}, 'id': 'cantaloupe', 'src': '/static/foodstim60/cantaloupe.jpg', 'key': 'u', 'origWidth': 409, 'origHeight': 409, 'width': 409, 'height': 409, 'widthPercent': 0.45, 'rescaleHeight': False, 'trialN': 62, 'loaded': True, 'loadedTime': 4694.300000011921, 'positionName': 'LEFT', 'positionCoords': [52.76, 96.5], 'bid': 2.21}, {'imgObject': {}, 'id': 'bagel and cc', 'src': '/static/foodstim60/bagel and cc.jpg', 'key': 'i', 'origWidth': 410, 'origHeight': 410, 'width': 410, 'height': 410, 'widthPercent': 0.45, 'rescaleHeight': False, 'trialN': 62, 'loaded': True, 'loadedTime': 5293.4000000059605, 'positionName': 'RIGHT', 'positionCoords': [500.24, 96], 'bid': 6.18}]",141591.30000001192,1669839395831,cantaloupe,bagel and cc,2.21,6.18,3.9699999999999998,bagel and cc,1242.0999999940395,1248,1247.5999999940395,True,i,143339.60000000894,1748.2999999970198,1669839397580,1749,HRV,HRV_0273,2022-11-30 20:21:02
63,"[{'imgObject': {}, 'id': 'olives', 'src': '/static/foodstim60/olives.jpg', 'key': 'u', 'origWidth': 410, 'origHeight': 410, 'width': 410, 'height': 410, 'widthPercent': 0.45, 'rescaleHeight': False, 'trialN': 63, 'loaded': True, 'loadedTime': 5000.300000011921, 'positionName': 'LEFT', 'positionCoords': [51.76, 96], 'bid': 0.07}, {'imgObject': {}, 'id': 'raspberries', 'src': '/static/foodstim60/raspberries.jpg', 'key': 'i', 'origWidth': 411, 'origHeight': 411, 'width': 411, 'height': 411, 'widthPercent': 0.45, 'rescaleHeight': False, 'trialN': 63, 'loaded': True, 'loadedTime': 5295.5, 'positionName': 'RIGHT', 'positionCoords': [500.24, 95.5], 'bid': 0.01}]",143340.90000000596,1669839397581,olives,raspberries,0.07,0.01,-0.060000000000000005,raspberries,1958.5,1966,1965.7999999970198,True,i,145807.80000001192,2466.9000000059605,1669839400048,2467,HRV,HRV_0273,2022-11-30 20:21:02
64,"[{'imgObject': {}, 'id': 'cheerios', 'src': '/static/foodstim60/cheerios.jpg', 'key': 'u', 'origWidth': 409, 'origHeight': 410, 'width': 409, 'height': 410, 'widthPercent': 0.45, 'rescaleHeight': False, 'trialN': 64, 'loaded': True, 'loadedTime': 4642.300000011921, 'positionName': 'LEFT', 'positionCoords': [52.76, 96], 'bid': 0.13}, {'imgObject': {}, 'id': 'rigatoni', 'src': '/static/foodstim60/rigatoni.jpg', 'key': 'i', 'origWidth': 411, 'origHeight': 411, 'width': 411, 'height': 411, 'widthPercent': 0.45, 'rescaleHeight': False, 'trialN': 64, 'loaded': True, 'loadedTime': 4479.600000008941, 'positionName': 'RIGHT', 'positionCoords': [500.24, 95.5], 'bid': 0.13}]",145808.60000000894,1669839400048,cheerios,rigatoni,0.13,0.13,0.0,cheerios,1787.7999999970198,1798,1797.5999999940395,True,u,148107.10000000894,2298.5,1669839402347,2299,HRV,HRV_0273,2022-11-30 20:21:02
65,"[{'imgObject': {}, 'id': 'bagel and cc', 'src': '/static/foodstim60/bagel and cc.jpg', 'key': 'u', 'origWidth': 410, 'origHeight': 410, 'width': 410, 'height': 410, 'widthPercent': 0.45, 'rescaleHeight': False, 'trialN': 65, 'loaded': True, 'loadedTime': 5277, 'positionName': 'LEFT', 'positionCoords': [51.76, 96], 'bid': 6.18}, {'imgObject': {}, 'id': 'mashed potato', 'src': '/static/foodstim60/mashed potato.jpg', 'key': 'i', 'origWidth': 409, 'origHeight': 409, 'width': 409, 'height': 409, 'widthPercent': 0.45, 'rescaleHeight': False, 'trialN': 65, 'loaded': True, 'loadedTime': 5316.5, 'positionName': 'RIGHT', 'positionCoords': [500.24, 96.5], 'bid': 5.7}]",148107.80000001192,1669839402348,bagel and cc,mashed potato,6.18,5.7,-0.47999999999999954,bagel and cc,1024.5999999940395,1030,1030.7999999970198,True,u,149639.40000000596,1531.5999999940395,1669839403879,1531,HRV,HRV_0273,2022-11-30 20:21:02
66,"[{'imgObject': {}, 'id': 'cherries', 'src': '/static/foodstim60/cherries.jpg', 'key': 'u', 'origWidth': 410, 'origHeight': 411, 'width': 410, 'height': 411, 'widthPercent': 0.45, 'rescaleHeight': False, 'trialN': 66, 'loaded': True, 'loadedTime': 5008, 'positionName': 'LEFT', 'positionCoords': [51.76, 95.5], 'bid': 3.96}, {'imgObject': {}, 'id': 'Grapes', 'src': '/static/foodstim60/Grapes.jpg', 'key': 'i', 'origWidth': 411, 'origHeight': 411, 'width': 411, 'height': 411, 'widthPercent': 0.45, 'rescaleHeight': False, 'trialN': 66, 'loaded': True, 'loadedTime': 5221.5, 'positionName': 'RIGHT', 'positionCoords': [500.24, 95.5], 'bid': 5.3500000000000005}]",149640.10000000894,1669839403880,cherries,Grapes,3.96,5.3500000000000005,1.3900000000000006,Grapes,1831.2999999970198,1837,1837.2000000029802,True,i,151978.10000000894,2338.0,1669839406218,2338,HRV,HRV_0273,2022-11-30 20:21:02
67,"[{'imgObject': {}, 'id': 'baked potato', 'src': '/static/foodstim60/baked potato.jpg', 'key': 'u', 'origWidth': 409, 'origHeight': 410, 'width': 409, 'height': 410, 'widthPercent': 0.45, 'rescaleHeight': False, 'trialN': 67, 'loaded': True, 'loadedTime': 5086.5, 'positionName': 'LEFT', 'positionCoords': [52.76, 96], 'bid': 5.58}, {'imgObject': {}, 'id': 'Grapes', 'src': '/static/foodstim60/Grapes.jpg', 'key': 'i', 'origWidth': 411, 'origHeight': 411, 'width': 411, 'height': 411, 'widthPercent': 0.45, 'rescaleHeight': False, 'trialN': 67, 'loaded': True, 'loadedTime': 5218.600000008941, 'positionName': 'RIGHT', 'positionCoords': [500.24, 95.5], 'bid': 5.3500000000000005}]",151978.90000000596,1669839406219,baked potato,Grapes,5.58,5.3500000000000005,-0.22999999999999954,baked potato,3227.5,3234,3234.0,True,u,155713.70000000298,3734.7999999970198,1669839409954,3735,HRV,HRV_0273,2022-11-30 20:21:02
68,"[{'imgObject': {}, 'id': 'veggieswithdip', 'src': '/static/foodstim60/veggieswithdip.jpg', 'key': 'u', 'origWidth': 409, 'origHeight': 409, 'width': 409, 'height': 409, 'widthPercent': 0.45, 'rescaleHeight': False, 'trialN': 68, 'loaded': True, 'loadedTime': 5016, 'positionName': 'LEFT', 'positionCoords': [52.76, 96.5], 'bid': 2.52}, {'imgObject': {}, 'id': 'luckycharms', 'src': '/static/foodstim60/luckycharms.jpg', 'key': 'i', 'origWidth': 410, 'origHeight': 409, 'width': 410, 'height': 409, 'widthPercent': 0.45, 'rescaleHeight': False, 'trialN': 68, 'loaded': True, 'loadedTime': 4921.100000008941, 'positionName': 'RIGHT', 'positionCoords': [500.24, 96.5], 'bid': 0.8}]",155714.40000000596,1669839409954,veggieswithdip,luckycharms,2.52,0.8,-1.72,veggieswithdip,2229.0,2236,2235.5,True,u,158450.70000000298,2736.2999999970198,1669839412691,2737,HRV,HRV_0273,2022-11-30 20:21:02
69,"[{'imgObject': {}, 'id': 'roastedpotatoes', 'src': '/static/foodstim60/roastedpotatoes.jpg', 'key': 'u', 'origWidth': 409, 'origHeight': 410, 'width': 409, 'height': 410, 'widthPercent': 0.45, 'rescaleHeight': False, 'trialN': 69, 'loaded': True, 'loadedTime': 5251.600000008941, 'positionName': 'LEFT', 'positionCoords': [52.76, 96], 'bid': 3.58}, {'imgObject': {}, 'id': 'olives', 'src': '/static/foodstim60/olives.jpg', 'key': 'i', 'origWidth': 410, 'origHeight': 410, 'width': 410, 'height': 410, 'widthPercent': 0.45, 'rescaleHeight': False, 'trialN': 69, 'loaded': True, 'loadedTime': 4993.300000011921, 'positionName': 'RIGHT', 'positionCoords': [500.24, 96], 'bid': 0.07}]",158451.40000000596,1669839412691,roastedpotatoes,olives,3.58,0.07,-3.5100000000000002,roastedpotatoes,1077.0,1083,1083.2000000029802,True,u,160035.5,1584.0999999940395,1669839414275,1584,HRV,HRV_0273,2022-11-30 20:21:02
70,"[{'imgObject': {}, 'id': 'corn cob', 'src': '/static/foodstim60/corn cob.jpg', 'key': 'u', 'origWidth': 411, 'origHeight': 411, 'width': 411, 'height': 411, 'widthPercent': 0.45, 'rescaleHeight': False, 'trialN': 70, 'loaded': True, 'loadedTime': 5200.600000008941, 'positionName': 'LEFT', 'positionCoords': [50.76, 95.5], 'bid': 0.34}, {'imgObject': {}, 'id': 'turkeysandwich', 'src': '/static/foodstim60/turkeysandwich.jpg', 'key': 'i', 'origWidth': 409, 'origHeight': 409, 'width': 409, 'height': 409, 'widthPercent': 0.45, 'rescaleHeight': False, 'trialN': 70, 'loaded': True, 'loadedTime': 5258.800000011921, 'positionName': 'RIGHT', 'positionCoords': [500.24, 96.5], 'bid': 8.700000000000001}]",160036.20000000298,1669839414276,corn cob,turkeysandwich,0.34,8.700000000000001,8.360000000000001,turkeysandwich,1436.2000000029802,1442,1442.5,True,i,161979.40000000596,1943.2000000029802,1669839416219,1943,HRV,HRV_0273,2022-11-30 20:21:02
71,"[{'imgObject': {}, 'id': 'fried eggs', 'src': '/static/foodstim60/fried eggs.jpg', 'key': 'u', 'origWidth': 410, 'origHeight': 410, 'width': 410, 'height': 410, 'widthPercent': 0.45, 'rescaleHeight': False, 'trialN': 71, 'loaded': True, 'loadedTime': 5051.4000000059605, 'positionName': 'LEFT', 'positionCoords': [51.76, 96], 'bid': 0.28}, {'imgObject': {}, 'id': 'olives', 'src': '/static/foodstim60/olives.jpg', 'key': 'i', 'origWidth': 410, 'origHeight': 410, 'width': 410, 'height': 410, 'widthPercent': 0.45, 'rescaleHeight': False, 'trialN': 71, 'loaded': True, 'loadedTime': 4998.600000008941, 'positionName': 'RIGHT', 'positionCoords': [500.24, 96], 'bid': 0.07}]",161980.10000000894,1669839416220,fried eggs,olives,0.28,0.07,-0.21000000000000002,fried eggs,1558.2999999970198,1564,1564.2000000029802,True,u,164045.10000000894,2065.0,1669839418285,2065,HRV,HRV_0273,2022-11-30 20:21:02
72,"[{'imgObject': {}, 'id': 'blueberries', 'src': '/static/foodstim60/blueberries.jpg', 'key': 'u', 'origWidth': 411, 'origHeight': 411, 'width': 411, 'height': 411, 'widthPercent': 0.45, 'rescaleHeight': False, 'trialN': 72, 'loaded': True, 'loadedTime': 5163.100000008941, 'positionName': 'LEFT', 'positionCoords': [50.76, 95.5], 'bid': 0.17}, {'imgObject': {}, 'id': 'burger', 'src': '/static/foodstim60/burger.jpg', 'key': 'i', 'origWidth': 409, 'origHeight': 409, 'width': 409, 'height': 409, 'widthPercent': 0.45, 'rescaleHeight': False, 'trialN': 72, 'loaded': True, 'loadedTime': 4524.4000000059605, 'positionName': 'RIGHT', 'positionCoords': [500.24, 96.5], 'bid': 6.49}]",164045.70000000298,1669839418286,blueberries,burger,0.17,6.49,6.32,burger,1345.7000000029802,1351,1351.4000000059605,True,i,165897.70000000298,1852.0,1669839420138,1852,HRV,HRV_0273,2022-11-30 20:21:02
73,"[{'imgObject': {}, 'id': 'banana', 'src': '/static/foodstim60/banana.jpg', 'key': 'u', 'origWidth': 410, 'origHeight': 410, 'width': 410, 'height': 410, 'widthPercent': 0.45, 'rescaleHeight': False, 'trialN': 73, 'loaded': True, 'loadedTime': 4778.70000000298, 'positionName': 'LEFT', 'positionCoords': [51.76, 96], 'bid': 5.66}, {'imgObject': {}, 'id': 'mashed potato', 'src': '/static/foodstim60/mashed potato.jpg', 'key': 'i', 'origWidth': 409, 'origHeight': 409, 'width': 409, 'height': 409, 'widthPercent': 0.45, 'rescaleHeight': False, 'trialN': 73, 'loaded': True, 'loadedTime': 5318.20000000298, 'positionName': 'RIGHT', 'positionCoords': [500.24, 96.5], 'bid': 5.7}]",165898.20000000298,1669839420138,banana,mashed potato,5.66,5.7,0.040000000000000036,banana,2493.2000000029802,2499,2499.0,True,u,168897.90000000596,2999.7000000029802,1669839423138,3000,HRV,HRV_0273,2022-11-30 20:21:02
74,"[{'imgObject': {}, 'id': 'hotdog w must', 'src': '/static/foodstim60/hotdog w must.jpg', 'key': 'u', 'origWidth': 409, 'origHeight': 409, 'width': 409, 'height': 409, 'widthPercent': 0.45, 'rescaleHeight': False, 'trialN': 74, 'loaded': True, 'loadedTime': 5145, 'positionName': 'LEFT', 'positionCoords': [52.76, 96.5], 'bid': 0.09}, {'imgObject': {}, 'id': 'froot loops w milk', 'src': '/static/foodstim60/froot loops w milk.jpg', 'key': 'i', 'origWidth': 410, 'origHeight': 410, 'width': 410, 'height': 410, 'widthPercent': 0.45, 'rescaleHeight': False, 'trialN': 74, 'loaded': True, 'loadedTime': 5303.9000000059605, 'positionName': 'RIGHT', 'positionCoords': [500.24, 96], 'bid': 0.09}]",168898.60000000894,1669839423138,hotdog w must,froot loops w milk,0.09,0.09,0.0,froot loops w milk,1465.7999999970198,1472,1471.2999999970198,True,i,170870.70000000298,1972.0999999940395,1669839425111,1973,HRV,HRV_0273,2022-11-30 20:21:02
75,"[{'imgObject': {}, 'id': 'lox', 'src': '/static/foodstim60/lox.jpg', 'key': 'u', 'origWidth': 410, 'origHeight': 411, 'width': 410, 'height': 411, 'widthPercent': 0.45, 'rescaleHeight': False, 'trialN': 75, 'loaded': True, 'loadedTime': 5155.5, 'positionName': 'LEFT', 'positionCoords': [51.76, 95.5], 'bid': 0.17}, {'imgObject': {}, 'id': 'cherry tomato', 'src': '/static/foodstim60/cherry tomato.jpg', 'key': 'i', 'origWidth': 410, 'origHeight': 410, 'width': 410, 'height': 410, 'widthPercent': 0.45, 'rescaleHeight': False, 'trialN': 75, 'loaded': True, 'loadedTime': 5033, 'positionName': 'RIGHT', 'positionCoords': [500.24, 96], 'bid': 1.98}]",170871.40000000596,1669839425111,lox,cherry tomato,0.17,1.98,1.81,cherry tomato,905.0,912,911.2999999970198,True,i,172283.60000000894,1412.2000000029802,1669839426523,1412,HRV,HRV_0273,2022-11-30 20:21:02
76,"[{'imgObject': {}, 'id': 'Grapes', 'src': '/static/foodstim60/Grapes.jpg', 'key': 'u', 'origWidth': 411, 'origHeight': 411, 'width': 411, 'height': 411, 'widthPercent': 0.45, 'rescaleHeight': False, 'trialN': 76, 'loaded': True, 'loadedTime': 5219.5, 'positionName': 'LEFT', 'positionCoords': [50.76, 95.5], 'bid': 5.3500000000000005}, {'imgObject': {}, 'id': 'Tribe humus pita', 'src': '/static/foodstim60/Tribe humus pita.jpg', 'key': 'i', 'origWidth': 411, 'origHeight': 411, 'width': 411, 'height': 411, 'widthPercent': 0.45, 'rescaleHeight': False, 'trialN': 76, 'loaded': True, 'loadedTime': 5104.300000011921, 'positionName': 'RIGHT', 'positionCoords': [500.24, 95.5], 'bid': 0.11}]",172284.20000000298,1669839426524,Grapes,Tribe humus pita,5.3500000000000005,0.11,-5.24,Grapes,1627.2000000029802,1633,1632.9000000059605,True,u,174417.90000000596,2133.7000000029802,1669839428658,2134,HRV,HRV_0273,2022-11-30 20:21:02
77,"[{'imgObject': {}, 'id': 'hashbrowns', 'src': '/static/foodstim60/hashbrowns.jpg', 'key': 'u', 'origWidth': 411, 'origHeight': 410, 'width': 411, 'height': 410, 'widthPercent': 0.45, 'rescaleHeight': False, 'trialN': 77, 'loaded': True, 'loadedTime': 5117.20000000298, 'positionName': 'LEFT', 'positionCoords': [50.76, 96], 'bid': 0.11}, {'imgObject': {}, 'id': 'raspberries', 'src': '/static/foodstim60/raspberries.jpg', 'key': 'i', 'origWidth': 411, 'origHeight': 411, 'width': 411, 'height': 411, 'widthPercent': 0.45, 'rescaleHeight': False, 'trialN': 77, 'loaded': True, 'loadedTime': 5301.5, 'positionName': 'RIGHT', 'positionCoords': [500.24, 95.5], 'bid': 0.01}]",174418.5,1669839428658,hashbrowns,raspberries,0.11,0.01,-0.1,raspberries,1690.9000000059605,1698,1697.5,True,i,176616.80000001192,2198.300000011921,1669839430857,2199,HRV,HRV_0273,2022-11-30 20:21:02
78,"[{'imgObject': {}, 'id': 'burrito', 'src': '/static/foodstim60/burrito.jpg', 'key': 'u', 'origWidth': 410, 'origHeight': 410, 'width': 410, 'height': 410, 'widthPercent': 0.45, 'rescaleHeight': False, 'trialN': 78, 'loaded': True, 'loadedTime': 4984, 'positionName': 'LEFT', 'positionCoords': [51.76, 96], 'bid': 2.85}, {'imgObject': {}, 'id': 'burger', 'src': '/static/foodstim60/burger.jpg', 'key': 'i', 'origWidth': 409, 'origHeight': 409, 'width': 409, 'height': 409, 'widthPercent': 0.45, 'rescaleHeight': False, 'trialN': 78, 'loaded': True, 'loadedTime': 4554.5, 'positionName': 'RIGHT', 'positionCoords': [500.24, 96.5], 'bid': 6.49}]",176617.5,1669839430857,burrito,burger,2.85,6.49,3.64,burger,1958.9000000059605,1965,1964.9000000059605,True,i,179083.10000000894,2465.6000000089407,1669839433323,2466,HRV,HRV_0273,2022-11-30 20:21:02
79,"[{'imgObject': {}, 'id': 'chickenfingers', 'src': '/static/foodstim60/chickenfingers.jpg', 'key': 'u', 'origWidth': 410, 'origHeight': 410, 'width': 410, 'height': 410, 'widthPercent': 0.45, 'rescaleHeight': False, 'trialN': 79, 'loaded': True, 'loadedTime': 5322.4000000059605, 'positionName': 'LEFT', 'positionCoords': [51.76, 96], 'bid': 8.22}, {'imgObject': {}, 'id': 'tacos', 'src': '/static/foodstim60/tacos.jpg', 'key': 'i', 'origWidth': 411, 'origHeight': 411, 'width': 411, 'height': 411, 'widthPercent': 0.45, 'rescaleHeight': False, 'trialN': 79, 'loaded': True, 'loadedTime': 5271.300000011921, 'positionName': 'RIGHT', 'positionCoords': [500.24, 95.5], 'bid': 9.98}]",179083.70000000298,1669839433324,chickenfingers,tacos,8.22,9.98,1.7599999999999998,tacos,2431.7000000029802,2454,2454.1000000089407,True,i,182039.10000000894,2955.4000000059605,1669839436279,2955,HRV,HRV_0273,2022-11-30 20:21:02
80,"[{'imgObject': {}, 'id': 'pear', 'src': '/static/foodstim60/pear.jpg', 'key': 'u', 'origWidth': 411, 'origHeight': 410, 'width': 411, 'height': 410, 'widthPercent': 0.45, 'rescaleHeight': False, 'trialN': 80, 'loaded': True, 'loadedTime': 4946.300000011921, 'positionName': 'LEFT', 'positionCoords': [50.76, 96], 'bid': 2.67}, {'imgObject': {}, 'id': 'corn cob', 'src': '/static/foodstim60/corn cob.jpg', 'key': 'i', 'origWidth': 411, 'origHeight': 411, 'width': 411, 'height': 411, 'widthPercent': 0.45, 'rescaleHeight': False, 'trialN': 80, 'loaded': True, 'loadedTime': 5201.9000000059605, 'positionName': 'RIGHT', 'positionCoords': [500.24, 95.5], 'bid': 0.34}]",182039.70000000298,1669839436280,pear,corn cob,2.67,0.34,-2.33,pear,1488.7000000029802,1495,1495.4000000059605,True,u,184035.80000001192,1996.1000000089407,1669839438276,1996,HRV,HRV_0273,2022-11-30 20:21:02
81,"[{'imgObject': {}, 'id': 'banana', 'src': '/static/foodstim60/banana.jpg', 'key': 'u', 'origWidth': 410, 'origHeight': 410, 'width': 410, 'height': 410, 'widthPercent': 0.45, 'rescaleHeight': False, 'trialN': 81, 'loaded': True, 'loadedTime': 4775.800000011921, 'positionName': 'LEFT', 'positionCoords': [51.76, 96], 'bid': 5.66}, {'imgObject': {}, 'id': 'turkeysandwich', 'src': '/static/foodstim60/turkeysandwich.jpg', 'key': 'i', 'origWidth': 409, 'origHeight': 409, 'width': 409, 'height': 409, 'widthPercent': 0.45, 'rescaleHeight': False, 'trialN': 81, 'loaded': True, 'loadedTime': 5254.20000000298, 'positionName': 'RIGHT', 'positionCoords': [500.24, 96.5], 'bid': 8.700000000000001}]",184036.60000000894,1669839438276,banana,turkeysandwich,5.66,8.700000000000001,3.040000000000001,turkeysandwich,1433.7999999970198,1440,1439.2999999970198,True,i,185976.80000001192,1940.2000000029802,1669839440217,1941,HRV,HRV_0273,2022-11-30 20:21:02
82,"[{'imgObject': {}, 'id': 'luckycharms', 'src': '/static/foodstim60/luckycharms.jpg', 'key': 'u', 'origWidth': 410, 'origHeight': 409, 'width': 410, 'height': 409, 'widthPercent': 0.45, 'rescaleHeight': False, 'trialN': 82, 'loaded': True, 'loadedTime': 4918.300000011921, 'positionName': 'LEFT', 'positionCoords': [51.76, 96.5], 'bid': 0.8}, {'imgObject': {}, 'id': 'raisin bran w milk', 'src': '/static/foodstim60/raisin bran w milk.jpg', 'key': 'i', 'origWidth': 411, 'origHeight': 411, 'width': 411, 'height': 411, 'widthPercent': 0.45, 'rescaleHeight': False, 'trialN': 82, 'loaded': True, 'loadedTime': 5169.600000008941, 'positionName': 'RIGHT', 'positionCoords': [500.24, 95.5], 'bid': 0.6900000000000001}]",185977.40000000596,1669839440217,luckycharms,raisin bran w milk,0.8,0.6900000000000001,-0.10999999999999999,luckycharms,1659.0,1665,1664.5999999940395,True,u,188142.90000000596,2165.5,1669839442383,2166,HRV,HRV_0273,2022-11-30 20:21:02
83,"[{'imgObject': {}, 'id': 'turkeysandwich', 'src': '/static/foodstim60/turkeysandwich.jpg', 'key': 'u', 'origWidth': 409, 'origHeight': 409, 'width': 409, 'height': 409, 'widthPercent': 0.45, 'rescaleHeight': False, 'trialN': 83, 'loaded': True, 'loadedTime': 5259.5, 'positionName': 'LEFT', 'positionCoords': [52.76, 96.5], 'bid': 8.700000000000001}, {'imgObject': {}, 'id': 'salad w chicken', 'src': '/static/foodstim60/salad w chicken.jpg', 'key': 'i', 'origWidth': 411, 'origHeight': 411, 'width': 411, 'height': 411, 'widthPercent': 0.45, 'rescaleHeight': False, 'trialN': 83, 'loaded': True, 'loadedTime': 4789.600000008941, 'positionName': 'RIGHT', 'positionCoords': [500.24, 95.5], 'bid': 6.2}]",188143.5,1669839442383,turkeysandwich,salad w chicken,8.700000000000001,6.2,-2.500000000000001,turkeysandwich,2095.9000000059605,2102,2101.2000000029802,True,u,190745.60000000894,2602.1000000089407,1669839444985,2602,HRV,HRV_0273,2022-11-30 20:21:02
84,"[{'imgObject': {}, 'id': 'bagel plain', 'src': '/static/foodstim60/bagel plain.jpg', 'key': 'u', 'origWidth': 410, 'origHeight': 410, 'width': 410, 'height': 410, 'widthPercent': 0.45, 'rescaleHeight': False, 'trialN': 84, 'loaded': True, 'loadedTime': 4657.5, 'positionName': 'LEFT', 'positionCoords': [51.76, 96], 'bid': 0.11}, {'imgObject': {}, 'id': 'seaweed', 'src': '/static/foodstim60/seaweed.jpg', 'key': 'i', 'origWidth': 410, 'origHeight': 410, 'width': 410, 'height': 410, 'widthPercent': 0.45, 'rescaleHeight': False, 'trialN': 84, 'loaded': True, 'loadedTime': 4824, 'positionName': 'RIGHT', 'positionCoords': [500.24, 96], 'bid': 0.17}]",190746.20000000298,1669839444986,bagel plain,seaweed,0.11,0.17,0.06000000000000001,bagel plain,1743.2000000029802,1749,1748.7000000029802,True,u,192995.80000001192,2249.6000000089407,1669839447236,2250,HRV,HRV_0273,2022-11-30 20:21:02
85,"[{'imgObject': {}, 'id': 'froot loops w milk', 'src': '/static/foodstim60/froot loops w milk.jpg', 'key': 'u', 'origWidth': 410, 'origHeight': 410, 'width': 410, 'height': 410, 'widthPercent': 0.45, 'rescaleHeight': False, 'trialN': 85, 'loaded': True, 'loadedTime': 5309.9000000059605, 'positionName': 'LEFT', 'positionCoords': [51.76, 96], 'bid': 0.09}, {'imgObject': {}, 'id': 'sweetpotato', 'src': '/static/foodstim60/sweetpotato.jpg', 'key': 'i', 'origWidth': 410, 'origHeight': 410, 'width': 410, 'height': 410, 'widthPercent': 0.45, 'rescaleHeight': False, 'trialN': 85, 'loaded': True, 'loadedTime': 5041.4000000059605, 'positionName': 'RIGHT', 'positionCoords': [500.24, 96], 'bid': 0.3}]",192996.40000000596,1669839447236,froot loops w milk,sweetpotato,0.09,0.3,0.21,froot loops w milk,1016.0,1022,1022.2000000029802,True,u,194519.40000000596,1523.0,1669839448759,1523,HRV,HRV_0273,2022-11-30 20:21:02
86,"[{'imgObject': {}, 'id': 'tacos', 'src': '/static/foodstim60/tacos.jpg', 'key': 'u', 'origWidth': 411, 'origHeight': 411, 'width': 411, 'height': 411, 'widthPercent': 0.45, 'rescaleHeight': False, 'trialN': 86, 'loaded': True, 'loadedTime': 5262.600000008941, 'positionName': 'LEFT', 'positionCoords': [50.76, 95.5], 'bid': 9.98}, {'imgObject': {}, 'id': 'popsicles', 'src': '/static/foodstim60/popsicles.jpg', 'key': 'i', 'origWidth': 410, 'origHeight': 410, 'width': 410, 'height': 410, 'widthPercent': 0.45, 'rescaleHeight': False, 'trialN': 86, 'loaded': True, 'loadedTime': 4961.9000000059605, 'positionName': 'RIGHT', 'positionCoords': [500.24, 96], 'bid': 1.44}]",194520.10000000894,1669839448760,tacos,popsicles,9.98,1.44,-8.540000000000001,tacos,2479.2999999970198,2485,2484.5999999940395,True,u,197505.60000000894,2985.5,1669839451745,2985,HRV,HRV_0273,2022-11-30 20:21:02
87,"[{'imgObject': {}, 'id': 'ice cream sundae 002', 'src': '/static/foodstim60/ice cream sundae 002.jpg', 'key': 'u', 'origWidth': 409, 'origHeight': 409, 'width': 409, 'height': 409, 'widthPercent': 0.45, 'rescaleHeight': False, 'trialN': 87, 'loaded': True, 'loadedTime': 4880.300000011921, 'positionName': 'LEFT', 'positionCoords': [52.76, 96.5], 'bid': 4.95}, {'imgObject': {}, 'id': 'baked potato', 'src': '/static/foodstim60/baked potato.jpg', 'key': 'i', 'origWidth': 409, 'origHeight': 410, 'width': 409, 'height': 410, 'widthPercent': 0.45, 'rescaleHeight': False, 'trialN': 87, 'loaded': True, 'loadedTime': 5091.100000008941, 'positionName': 'RIGHT', 'positionCoords': [500.24, 96], 'bid': 5.58}]",197506.40000000596,1669839451746,ice cream sundae 002,baked potato,4.95,5.58,0.6299999999999999,baked potato,1545.0,1551,1551.0999999940395,True,i,199558.20000000298,2051.7999999970198,1669839453798,2052,HRV,HRV_0273,2022-11-30 20:21:02
88,"[{'imgObject': {}, 'id': 'lox', 'src': '/static/foodstim60/lox.jpg', 'key': 'u', 'origWidth': 410, 'origHeight': 411, 'width': 410, 'height': 411, 'widthPercent': 0.45, 'rescaleHeight': False, 'trialN': 88, 'loaded': True, 'loadedTime': 5152.100000008941, 'positionName': 'LEFT', 'positionCoords': [51.76, 95.5], 'bid': 0.17}, {'imgObject': {}, 'id': 'kiwi', 'src': '/static/foodstim60/kiwi.jpg', 'key': 'i', 'origWidth': 410, 'origHeight': 410, 'width': 410, 'height': 410, 'widthPercent': 0.45, 'rescaleHeight': False, 'trialN': 88, 'loaded': True, 'loadedTime': 4906.600000008941, 'positionName': 'RIGHT', 'positionCoords': [500.24, 96], 'bid': 6.99}]",199558.80000001192,1669839453799,lox,kiwi,0.17,6.99,6.82,kiwi,926.5999999940395,932,932.3999999910593,True,i,200992.0,1433.199999988079,1669839455232,1433,HRV,HRV_0273,2022-11-30 20:21:02
89,"[{'imgObject': {}, 'id': 'orange slices', 'src': '/static/foodstim60/orange slices.jpg', 'key': 'u', 'origWidth': 409, 'origHeight': 410, 'width': 409, 'height': 410, 'widthPercent': 0.45, 'rescaleHeight': False, 'trialN': 89, 'loaded': True, 'loadedTime': 4809, 'positionName': 'LEFT', 'positionCoords': [52.76, 96], 'bid': 3.69}, {'imgObject': {}, 'id': 'mashed potato', 'src': '/static/foodstim60/mashed potato.jpg', 'key': 'i', 'origWidth': 409, 'origHeight': 409, 'width': 409, 'height': 409, 'widthPercent': 0.45, 'rescaleHeight': False, 'trialN': 89, 'loaded': True, 'loadedTime': 5311.4000000059605, 'positionName': 'RIGHT', 'positionCoords': [500.24, 96.5], 'bid': 5.7}]",200992.70000000298,1669839455233,orange slices,mashed potato,3.69,5.7,2.0100000000000002,mashed potato,2596.7000000029802,2603,2603.4000000059605,True,i,204096.80000001192,3104.1000000089407,1669839458337,3104,HRV,HRV_0273,2022-11-30 20:21:02
90,"[{'imgObject': {}, 'id': 'hashbrowns', 'src': '/static/foodstim60/hashbrowns.jpg', 'key': 'u', 'origWidth': 411, 'origHeight': 410, 'width': 411, 'height': 410, 'widthPercent': 0.45, 'rescaleHeight': False, 'trialN': 90, 'loaded': True, 'loadedTime': 5136.20000000298, 'positionName': 'LEFT', 'positionCoords': [50.76, 96], 'bid': 0.11}, {'imgObject': {}, 'id': 'sushi w_condiments', 'src': '/static/foodstim60/sushi w_condiments.jpg', 'key': 'i', 'origWidth': 410, 'origHeight': 410, 'width': 410, 'height': 410, 'widthPercent': 0.45, 'rescaleHeight': False, 'trialN': 90, 'loaded': True, 'loadedTime': 4861.800000011921, 'positionName': 'RIGHT', 'positionCoords': [500.24, 96], 'bid': 0}]",208018.70000000298,1669839462259,hashbrowns,sushi w_condiments,0.11,0.0,-0.11,hashbrowns,1593.7000000029802,1603,1603.7000000029802,True,u,210123.20000000298,2104.5,1669839464363,2104,HRV,HRV_0273,2022-11-30 20:21:02
91,"[{'imgObject': {}, 'id': 'pear', 'src': '/static/foodstim60/pear.jpg', 'key': 'u', 'origWidth': 411, 'origHeight': 410, 'width': 411, 'height': 410, 'widthPercent': 0.45, 'rescaleHeight': False, 'trialN': 91, 'loaded': True, 'loadedTime': 4951.20000000298, 'positionName': 'LEFT', 'positionCoords': [50.76, 96], 'bid': 2.67}, {'imgObject': {}, 'id': 'eggsalad', 'src': '/static/foodstim60/eggsalad.jpg', 'key': 'i', 'origWidth': 410, 'origHeight': 409, 'width': 410, 'height': 409, 'widthPercent': 0.45, 'rescaleHeight': False, 'trialN': 91, 'loaded': True, 'loadedTime': 4985, 'positionName': 'RIGHT', 'positionCoords': [500.24, 96.5], 'bid': 6.28}]",210123.90000000596,1669839464364,pear,eggsalad,2.67,6.28,3.6100000000000003,eggsalad,1739.5,1746,1745.7999999970198,True,i,212370.60000000894,2246.7000000029802,1669839466610,2246,HRV,HRV_0273,2022-11-30 20:21:02
92,"[{'imgObject': {}, 'id': 'Grapes', 'src': '/static/foodstim60/Grapes.jpg', 'key': 'u', 'origWidth': 411, 'origHeight': 411, 'width': 411, 'height': 411, 'widthPercent': 0.45, 'rescaleHeight': False, 'trialN': 92, 'loaded': True, 'loadedTime': 5222.100000008941, 'positionName': 'LEFT', 'positionCoords': [50.76, 95.5], 'bid': 5.3500000000000005}, {'imgObject': {}, 'id': 'rigatoni and sauce', 'src': '/static/foodstim60/rigatoni and sauce.jpg', 'key': 'i', 'origWidth': 410, 'origHeight': 411, 'width': 410, 'height': 411, 'widthPercent': 0.45, 'rescaleHeight': False, 'trialN': 92, 'loaded': True, 'loadedTime': 5242.800000011921, 'positionName': 'RIGHT', 'positionCoords': [500.24, 95.5], 'bid': 7.18}]",212371.20000000298,1669839466611,Grapes,rigatoni and sauce,5.3500000000000005,7.18,1.8299999999999992,rigatoni and sauce,899.2000000029802,905,905.1000000089407,True,i,213777.10000000894,1405.9000000059605,1669839468017,1406,HRV,HRV_0273,2022-11-30 20:21:02
93,"[{'imgObject': {}, 'id': 'Tribe humus pita', 'src': '/static/foodstim60/Tribe humus pita.jpg', 'key': 'u', 'origWidth': 411, 'origHeight': 411, 'width': 411, 'height': 411, 'widthPercent': 0.45, 'rescaleHeight': False, 'trialN': 93, 'loaded': True, 'loadedTime': 5110.4000000059605, 'positionName': 'LEFT', 'positionCoords': [50.76, 95.5], 'bid': 0.11}, {'imgObject': {}, 'id': 'bagel plain', 'src': '/static/foodstim60/bagel plain.jpg', 'key': 'i', 'origWidth': 410, 'origHeight': 410, 'width': 410, 'height': 410, 'widthPercent': 0.45, 'rescaleHeight': False, 'trialN': 93, 'loaded': True, 'loadedTime': 4654.800000011921, 'positionName': 'RIGHT', 'positionCoords': [500.24, 96], 'bid': 0.11}]",213777.80000001192,1669839468018,Tribe humus pita,bagel plain,0.11,0.11,0.0,bagel plain,1857.5999999940395,1863,1863.2999999970198,True,i,216141.80000001192,2364.0,1669839470382,2364,HRV,HRV_0273,2022-11-30 20:21:02
94,"[{'imgObject': {}, 'id': 'sweetpotato', 'src': '/static/foodstim60/sweetpotato.jpg', 'key': 'u', 'origWidth': 410, 'origHeight': 410, 'width': 410, 'height': 410, 'widthPercent': 0.45, 'rescaleHeight': False, 'trialN': 94, 'loaded': True, 'loadedTime': 5048, 'positionName': 'LEFT', 'positionCoords': [51.76, 96], 'bid': 0.3}, {'imgObject': {}, 'id': 'chickenfingers', 'src': '/static/foodstim60/chickenfingers.jpg', 'key': 'i', 'origWidth': 410, 'origHeight': 410, 'width': 410, 'height': 410, 'widthPercent': 0.45, 'rescaleHeight': False, 'trialN': 94, 'loaded': True, 'loadedTime': 5324.300000011921, 'positionName': 'RIGHT', 'positionCoords': [500.24, 96], 'bid': 8.22}]",216142.5,1669839470382,sweetpotato,chickenfingers,0.3,8.22,7.920000000000001,sweetpotato,1027.9000000059605,1034,1034.0,True,u,217677.40000000596,1534.9000000059605,1669839471917,1535,HRV,HRV_0273,2022-11-30 20:21:02
95,"[{'imgObject': {}, 'id': 'corn cob', 'src': '/static/foodstim60/corn cob.jpg', 'key': 'u', 'origWidth': 411, 'origHeight': 411, 'width': 411, 'height': 411, 'widthPercent': 0.45, 'rescaleHeight': False, 'trialN': 95, 'loaded': True, 'loadedTime': 5203.70000000298, 'positionName': 'LEFT', 'positionCoords': [50.76, 95.5], 'bid': 0.34}, {'imgObject': {}, 'id': 'hotdog w must', 'src': '/static/foodstim60/hotdog w must.jpg', 'key': 'i', 'origWidth': 409, 'origHeight': 409, 'width': 409, 'height': 409, 'widthPercent': 0.45, 'rescaleHeight': False, 'trialN': 95, 'loaded': True, 'loadedTime': 5138.300000011921, 'positionName': 'RIGHT', 'positionCoords': [500.24, 96.5], 'bid': 0.09}]",217678.10000000894,1669839471918,corn cob,hotdog w must,0.34,0.09,-0.25,hotdog w must,2748.2999999970198,2754,2754.5,True,i,220933.40000000596,3255.2999999970198,1669839475173,3255,HRV,HRV_0273,2022-11-30 20:21:02
96,"[{'imgObject': {}, 'id': 'cherries', 'src': '/static/foodstim60/cherries.jpg', 'key': 'u', 'origWidth': 410, 'origHeight': 411, 'width': 410, 'height': 411, 'widthPercent': 0.45, 'rescaleHeight': False, 'trialN': 96, 'loaded': True, 'loadedTime': 5009.300000011921, 'positionName': 'LEFT', 'positionCoords': [51.76, 95.5], 'bid': 3.96}, {'imgObject': {}, 'id': 'burger', 'src': '/static/foodstim60/burger.jpg', 'key': 'i', 'origWidth': 409, 'origHeight': 409, 'width': 409, 'height': 409, 'widthPercent': 0.45, 'rescaleHeight': False, 'trialN': 96, 'loaded': True, 'loadedTime': 4527.9000000059605, 'positionName': 'RIGHT', 'positionCoords': [500.24, 96.5], 'bid': 6.49}]",220934.10000000894,1669839475174,cherries,burger,3.96,6.49,2.5300000000000002,burger,1044.2999999970198,1050,1050.3999999910593,True,i,222485.40000000596,1551.2999999970198,1669839476725,1551,HRV,HRV_0273,2022-11-30 20:21:02
97,"[{'imgObject': {}, 'id': 'granola w milk', 'src': '/static/foodstim60/granola w milk.jpg', 'key': 'u', 'origWidth': 410, 'origHeight': 410, 'width': 410, 'height': 410, 'widthPercent': 0.45, 'rescaleHeight': False, 'trialN': 97, 'loaded': True, 'loadedTime': 4614.9000000059605, 'positionName': 'LEFT', 'positionCoords': [51.76, 96], 'bid': 0}, {'imgObject': {}, 'id': 'salmon', 'src': '/static/foodstim60/salmon.jpg', 'key': 'i', 'origWidth': 410, 'origHeight': 409, 'width': 410, 'height': 409, 'widthPercent': 0.45, 'rescaleHeight': False, 'trialN': 97, 'loaded': True, 'loadedTime': 4470.5, 'positionName': 'RIGHT', 'positionCoords': [500.24, 96.5], 'bid': 0}]",222486.0,1669839476726,granola w milk,salmon,0.0,0.0,0.0,granola w milk,1735.4000000059605,1741,1741.300000011921,True,u,224728.20000000298,2242.2000000029802,1669839478968,2242,HRV,HRV_0273,2022-11-30 20:21:02
98,"[{'imgObject': {}, 'id': 'burrito', 'src': '/static/foodstim60/burrito.jpg', 'key': 'u', 'origWidth': 410, 'origHeight': 410, 'width': 410, 'height': 410, 'widthPercent': 0.45, 'rescaleHeight': False, 'trialN': 98, 'loaded': True, 'loadedTime': 4976.300000011921, 'positionName': 'LEFT', 'positionCoords': [51.76, 96], 'bid': 2.85}, {'imgObject': {}, 'id': 'raspberries', 'src': '/static/foodstim60/raspberries.jpg', 'key': 'i', 'origWidth': 411, 'origHeight': 411, 'width': 411, 'height': 411, 'widthPercent': 0.45, 'rescaleHeight': False, 'trialN': 98, 'loaded': True, 'loadedTime': 5302.20000000298, 'positionName': 'RIGHT', 'positionCoords': [500.24, 95.5], 'bid': 0.01}]",224728.90000000596,1669839478969,burrito,raspberries,2.85,0.01,-2.8400000000000003,burrito,2259.5,2265,2265.5999999940395,True,u,227495.40000000596,2766.5,1669839481735,2766,HRV,HRV_0273,2022-11-30 20:21:02
99,"[{'imgObject': {}, 'id': 'roastedpotatoes', 'src': '/static/foodstim60/roastedpotatoes.jpg', 'key': 'u', 'origWidth': 409, 'origHeight': 410, 'width': 409, 'height': 410, 'widthPercent': 0.45, 'rescaleHeight': False, 'trialN': 99, 'loaded': True, 'loadedTime': 5252.100000008941, 'positionName': 'LEFT', 'positionCoords': [52.76, 96], 'bid': 3.58}, {'imgObject': {}, 'id': 'orange slices', 'src': '/static/foodstim60/orange slices.jpg', 'key': 'i', 'origWidth': 409, 'origHeight': 410, 'width': 409, 'height': 410, 'widthPercent': 0.45, 'rescaleHeight': False, 'trialN': 99, 'loaded': True, 'loadedTime': 4811, 'positionName': 'RIGHT', 'positionCoords': [500.24, 96], 'bid': 3.69}]",227496.10000000894,1669839481736,roastedpotatoes,orange slices,3.58,3.69,0.10999999999999988,orange slices,2005.2999999970198,2011,2011.5,True,i,230008.40000000596,2512.2999999970198,1669839484248,2512,HRV,HRV_0273,2022-11-30 20:21:02
100,"[{'imgObject': {}, 'id': 'rigatoni and sauce', 'src': '/static/foodstim60/rigatoni and sauce.jpg', 'key': 'u', 'origWidth': 410, 'origHeight': 411, 'width': 410, 'height': 411, 'widthPercent': 0.45, 'rescaleHeight': False, 'trialN': 100, 'loaded': True, 'loadedTime': 5241.20000000298, 'positionName': 'LEFT', 'positionCoords': [51.76, 95.5], 'bid': 7.18}, {'imgObject': {}, 'id': 'chickenfingers', 'src': '/static/foodstim60/chickenfingers.jpg', 'key': 'i', 'origWidth': 410, 'origHeight': 410, 'width': 410, 'height': 410, 'widthPercent': 0.45, 'rescaleHeight': False, 'trialN': 100, 'loaded': True, 'loadedTime': 5319, 'positionName': 'RIGHT', 'positionCoords': [500.24, 96], 'bid': 8.22}]",230009.10000000894,1669839484249,rigatoni and sauce,chickenfingers,7.18,8.22,1.040000000000001,chickenfingers,1832.2999999970198,1838,1838.2000000029802,True,i,232348.10000000894,2339.0,1669839486588,2339,HRV,HRV_0273,2022-11-30 20:21:02
101,"[{'imgObject': {}, 'id': 'cherries', 'src': '/static/foodstim60/cherries.jpg', 'key': 'u', 'origWidth': 410, 'origHeight': 411, 'width': 410, 'height': 411, 'widthPercent': 0.45, 'rescaleHeight': False, 'trialN': 101, 'loaded': True, 'loadedTime': 5002.4000000059605, 'positionName': 'LEFT', 'positionCoords': [51.76, 95.5], 'bid': 3.96}, {'imgObject': {}, 'id': 'ice cream sundae 002', 'src': '/static/foodstim60/ice cream sundae 002.jpg', 'key': 'i', 'origWidth': 409, 'origHeight': 409, 'width': 409, 'height': 409, 'widthPercent': 0.45, 'rescaleHeight': False, 'trialN': 101, 'loaded': True, 'loadedTime': 4874.600000008941, 'positionName': 'RIGHT', 'positionCoords': [500.24, 96.5], 'bid': 4.95}]",232348.90000000596,1669839486589,cherries,ice cream sundae 002,3.96,4.95,0.9900000000000002,ice cream sundae 002,1179.5,1186,1185.7999999970198,True,i,234035.5,1686.5999999940395,1669839488275,1686,HRV,HRV_0273,2022-11-30 20:21:02
102,"[{'imgObject': {}, 'id': 'cheerios', 'src': '/static/foodstim60/cheerios.jpg', 'key': 'u', 'origWidth': 409, 'origHeight': 410, 'width': 409, 'height': 410, 'widthPercent': 0.45, 'rescaleHeight': False, 'trialN': 102, 'loaded': True, 'loadedTime': 4627.100000008941, 'positionName': 'LEFT', 'positionCoords': [52.76, 96], 'bid': 0.13}, {'imgObject': {}, 'id': 'froot loops w milk', 'src': '/static/foodstim60/froot loops w milk.jpg', 'key': 'i', 'origWidth': 410, 'origHeight': 410, 'width': 410, 'height': 410, 'widthPercent': 0.45, 'rescaleHeight': False, 'trialN': 102, 'loaded': True, 'loadedTime': 5307.4000000059605, 'positionName': 'RIGHT', 'positionCoords': [500.24, 96], 'bid': 0.09}]",234036.30000001192,1669839488276,cheerios,froot loops w milk,0.13,0.09,-0.04000000000000001,froot loops w milk,1060.0999999940395,1066,1065.8999999910593,True,i,235603.20000000298,1566.8999999910593,1669839489843,1567,HRV,HRV_0273,2022-11-30 20:21:02
103,"[{'imgObject': {}, 'id': 'strawberries', 'src': '/static/foodstim60/strawberries.jpg', 'key': 'u', 'origWidth': 410, 'origHeight': 410, 'width': 410, 'height': 410, 'widthPercent': 0.45, 'rescaleHeight': False, 'trialN': 103, 'loaded': True, 'loadedTime': 4707.300000011921, 'positionName': 'LEFT', 'positionCoords': [51.76, 96], 'bid': 5.8100000000000005}, {'imgObject': {}, 'id': 'bagel and cc', 'src': '/static/foodstim60/bagel and cc.jpg', 'key': 'i', 'origWidth': 410, 'origHeight': 410, 'width': 410, 'height': 410, 'widthPercent': 0.45, 'rescaleHeight': False, 'trialN': 103, 'loaded': True, 'loadedTime': 5291.20000000298, 'positionName': 'RIGHT', 'positionCoords': [500.24, 96], 'bid': 6.18}]",235603.80000001192,1669839489844,strawberries,bagel and cc,5.8100000000000005,6.18,0.3699999999999992,strawberries,3249.5999999940395,3255,3255.5,True,u,239360.10000000894,3756.2999999970198,1669839493600,3756,HRV,HRV_0273,2022-11-30 20:21:02
104,"[{'imgObject': {}, 'id': 'cocktailshrimp', 'src': '/static/foodstim60/cocktailshrimp.jpg', 'key': 'u', 'origWidth': 410, 'origHeight': 410, 'width': 410, 'height': 410, 'widthPercent': 0.45, 'rescaleHeight': False, 'trialN': 104, 'loaded': True, 'loadedTime': 4586.4000000059605, 'positionName': 'LEFT', 'positionCoords': [51.76, 96], 'bid': 0.4}, {'imgObject': {}, 'id': 'edamame', 'src': '/static/foodstim60/edamame.jpg', 'key': 'i', 'origWidth': 409, 'origHeight': 410, 'width': 409, 'height': 410, 'widthPercent': 0.45, 'rescaleHeight': False, 'trialN': 104, 'loaded': True, 'loadedTime': 5209.4000000059605, 'positionName': 'RIGHT', 'positionCoords': [500.24, 96], 'bid': 0.09}]",239360.80000001192,1669839493601,cocktailshrimp,edamame,0.4,0.09,-0.31000000000000005,edamame,2433.5999999940395,2439,2439.2999999970198,True,i,242300.90000000596,2940.0999999940395,1669839496541,2940,HRV,HRV_0273,2022-11-30 20:21:02
105,"[{'imgObject': {}, 'id': 'rigatoni', 'src': '/static/foodstim60/rigatoni.jpg', 'key': 'u', 'origWidth': 411, 'origHeight': 411, 'width': 411, 'height': 411, 'widthPercent': 0.45, 'rescaleHeight': False, 'trialN': 105, 'loaded': True, 'loadedTime': 4480.70000000298, 'positionName': 'LEFT', 'positionCoords': [50.76, 95.5], 'bid': 0.13}, {'imgObject': {}, 'id': 'strawberries', 'src': '/static/foodstim60/strawberries.jpg', 'key': 'i', 'origWidth': 410, 'origHeight': 410, 'width': 410, 'height': 410, 'widthPercent': 0.45, 'rescaleHeight': False, 'trialN': 105, 'loaded': True, 'loadedTime': 4725.800000011921, 'positionName': 'RIGHT', 'positionCoords': [500.24, 96], 'bid': 5.8100000000000005}]",242301.5,1669839496541,rigatoni,strawberries,0.13,5.8100000000000005,5.680000000000001,strawberries,1165.9000000059605,1172,1172.2000000029802,True,i,243974.5,1673.0,1669839498214,1673,HRV,HRV_0273,2022-11-30 20:21:02
106,"[{'imgObject': {}, 'id': 'lox', 'src': '/static/foodstim60/lox.jpg', 'key': 'u', 'origWidth': 410, 'origHeight': 411, 'width': 410, 'height': 411, 'widthPercent': 0.45, 'rescaleHeight': False, 'trialN': 106, 'loaded': True, 'loadedTime': 5154.300000011921, 'positionName': 'LEFT', 'positionCoords': [51.76, 95.5], 'bid': 0.17}, {'imgObject': {}, 'id': 'sweetpotato', 'src': '/static/foodstim60/sweetpotato.jpg', 'key': 'i', 'origWidth': 410, 'origHeight': 410, 'width': 410, 'height': 410, 'widthPercent': 0.45, 'rescaleHeight': False, 'trialN': 106, 'loaded': True, 'loadedTime': 5045.70000000298, 'positionName': 'RIGHT', 'positionCoords': [500.24, 96], 'bid': 0.3}]",243975.10000000894,1669839498215,lox,sweetpotato,0.17,0.3,0.12999999999999998,sweetpotato,1598.2999999970198,1605,1605.0999999940395,True,i,246081.20000000298,2106.0999999940395,1669839500321,2106,HRV,HRV_0273,2022-11-30 20:21:02
107,"[{'imgObject': {}, 'id': 'baked potato', 'src': '/static/foodstim60/baked potato.jpg', 'key': 'u', 'origWidth': 409, 'origHeight': 410, 'width': 409, 'height': 410, 'widthPercent': 0.45, 'rescaleHeight': False, 'trialN': 107, 'loaded': True, 'loadedTime': 5094.800000011921, 'positionName': 'LEFT', 'positionCoords': [52.76, 96], 'bid': 5.58}, {'imgObject': {}, 'id': 'roastedpotatoes', 'src': '/static/foodstim60/roastedpotatoes.jpg', 'key': 'i', 'origWidth': 409, 'origHeight': 410, 'width': 409, 'height': 410, 'widthPercent': 0.45, 'rescaleHeight': False, 'trialN': 107, 'loaded': True, 'loadedTime': 5250.800000011921, 'positionName': 'RIGHT', 'positionCoords': [500.24, 96], 'bid': 3.58}]",246081.80000001192,1669839500322,baked potato,roastedpotatoes,5.58,3.58,-2.0,baked potato,2792.5999999940395,2797,2797.7999999970198,True,u,249380.5,3298.699999988079,1669839503620,3298,HRV,HRV_0273,2022-11-30 20:21:02
108,"[{'imgObject': {}, 'id': 'granola w milk', 'src': '/static/foodstim60/granola w milk.jpg', 'key': 'u', 'origWidth': 410, 'origHeight': 410, 'width': 410, 'height': 410, 'widthPercent': 0.45, 'rescaleHeight': False, 'trialN': 108, 'loaded': True, 'loadedTime': 4615.9000000059605, 'positionName': 'LEFT', 'positionCoords': [51.76, 96], 'bid': 0}, {'imgObject': {}, 'id': 'bagel plain', 'src': '/static/foodstim60/bagel plain.jpg', 'key': 'i', 'origWidth': 410, 'origHeight': 410, 'width': 410, 'height': 410, 'widthPercent': 0.45, 'rescaleHeight': False, 'trialN': 108, 'loaded': True, 'loadedTime': 4646.20000000298, 'positionName': 'RIGHT', 'positionCoords': [500.24, 96], 'bid': 0.11}]",249381.30000001192,1669839503621,granola w milk,bagel plain,0.0,0.11,0.11,bagel plain,2073.0999999940395,2079,2078.699999988079,True,i,251960.80000001192,2579.5,1669839506201,2580,HRV,HRV_0273,2022-11-30 20:21:02
