success,trial_type,trial_index,time_elapsed,internal_node_id,Block,TrialNumber,TrialTime,trialTimeDiff,FPS_avg,FPS_med,FPS_mode,TrialDur,winResizeTime,rt,block,button_pressed,MotCoh,MotDir,ColCoh,Color,ChoiceKey,Choice,Accuracy,RT,nFrames,FPS,PPD,missTrial,missTrialMsg,onsetDelay,fullScreenExitTime,canvCenter,TrialType,Score,BlockTrial,stimulus,button_labels,exp,subjectId,date
True,fullscreen,0,2300,0.0-0.0,0.0,1.0,,,,,,,,,,,,,,,,,,,,,,,,,,,,,,,,HRV,HRV_0273,2022-11-30 20:33:46
,wl-check-fps,1,7355,0.0-1.0,0.0,2.0,"[3717.3, 3721.2, 3729.5, 3777.3, 3785.8, 3798.9, 3813.2, 3830.7, 3846.7, 3863.4, 3880, 3901.1, 3917.7, 3954.6, 3957.7, 3964.3, 3981.7, 3995.6, 4013.6, 4029.1, 4046.1, 4062, 4081.6, 4097.2, 4114.5, 4129, 4147.9, 4163.1, 4179.7, 4195.7, 4213.6, 4228.8, 4246.6, 4264.3, 4280.2, 4297.6, 4313.6, 4330.6, 4346.6, 4363.4, 4380.8, 4395.9, 4414.2, 4429.3, 4445.9, 4465.3, 4482.8, 4498.3, 4513.9, 4531.2, 4548.8, 4582.3, 4596.7, 4612.6, 4629.9, 4645.9, 4663.9, 4679.3, 4696.3, 4714, 4730.5, 4745.9, 4763.2, 4781.6, 4797.7, 4813.9, 4830.9, 4846.2, 4863.1, 4880.5, 4897.9, 4914.6, 4929.3, 4947.9, 4963.3, 4980.9, 4996.3, 5012.6, 5030.7, 5047.1, 5063.9, 5079.5, 5097.6, 5113.1, 5130, 5147.9, 5163.7, 5180.1, 5197.9, 5214, 5232.9, 5247.4, 5264.2, 5281.2, 5299.3, 5315.2, 5332.5, 5346.8, 5365.2, 5380.3, 5399.1, 5413.7, 5430.5, 5447.2, 5464, 5481.4, 5497.8, 5515.3, 5530.4, 5548.2, 5564.1, 5581.1, 5597, 5615.6, 5631.4, 5649.4, 5663.9, 5683.1, 5698, 5716, 5730.5, 5748.7, 5764.8, 5782.7, 5798.4, 5815.5, 5831.3, 5848.2, 5865.1, 5881, 5898.5, 5915.6, 5931.3, 5949.2, 5965.7, 5981, 5999.5, 6014.3, 6031.5, 6049.1, 6066.7, 6080.7, 6099.3, 6114.9, 6132.9, 6148.8, 6165.5, 6181, 6199.5, 6215.3, 6232.7, 6248.7, 6264.4, 6281.8, 6298.7, 6315.2, 6331, 6348.8, 6364.5, 6382.6, 6399.6, 6415.6, 6430.9, 6450.2, 6464.3, 6483.8, 6498.8, 6516.6, 6532.5, 6549.7, 6564.3, 6582.3, 6599.1, 6615.2, 6631.9, 6648, 6665.5, 6681.2, 6698.7, 6714.7, 6731.5, 6748.9, 6765.5, 6781.3, 6799.6, 6815.7, 6834.4, 6848.3, 6866.2, 6882.7, 6900, 6914.7, 6933.4, 6949.5, 6967, 6981.6, 6999.3, 7015, 7032.1, 7049.8, 7066.4, 7082.8, 7099.5, 7115.8, 7131.8, 7148.5, 7165.4, 7182.7, 7198.6, 7217.4, 7232, 7249.7, 7267, 7283.5, 7299.4, 7317.7, 7331.9, 7350.2, 7366.7, 7383.3, 7398.8, 7416.2, 7433.7, 7448.8, 7465.7, 7482.4, 7498.9, 7515.6, 7532, 7548.3, 7565.6, 7581.9, 7598.3, 7615.6, 7633.3, 7649.4, 7667.1, 7682.4, 7701, 7715.5, 7732.9, 7749.7, 7765.4, 7782.4, 7800.6, 7817.3, 7832.5, 7848.8, 7867.3, 7883.5, 7901.1, 7916.4, 7933.2, 7948.9, 7966.6, 7983.8, 7999.5, 8018.4, 8034, 8051.3, 8068, 8084.8, 8099.6, 8117.1, 8132.7, 8150.2, 8166.6, 8183.1, 8199.4, 8216.9, 8234.8, 8251.5, 8267.7, 8282.9, 8299.5, 8316.4, 8334.4, 8349.7, 8367.5, 8384.1, 8401.5, 8416.3, 8435.1, 8449.7, 8468.5, 8484.3, 8501.9, 8518, 8535.1, 8550, 8566.7, 8584.8, 8600.9, 8620.1, 8633.4, 8651.6, 8668.3, 8686.2, 8699.7, 8717.8]","[11.6, 3.9, 8.3, 47.8, 8.5, 13.1, 14.3, 17.5, 16, 16.7, 16.6, 21.1, 16.6, 36.9, 3.1, 6.6, 17.4, 13.9, 18, 15.5, 17, 15.9, 19.6, 15.6, 17.3, 14.5, 18.9, 15.2, 16.6, 16, 17.9, 15.2, 17.8, 17.7, 15.9, 17.4, 16, 17, 16, 16.8, 17.4, 15.1, 18.3, 15.1, 16.6, 19.4, 17.5, 15.5, 15.6, 17.3, 17.6, 33.5, 14.4, 15.9, 17.3, 16, 18, 15.4, 17, 17.7, 16.5, 15.4, 17.3, 18.4, 16.1, 16.2, 17, 15.3, 16.9, 17.4, 17.4, 16.7, 14.7, 18.6, 15.4, 17.6, 15.4, 16.3, 18.1, 16.4, 16.8, 15.6, 18.1, 15.5, 16.9, 17.9, 15.8, 16.4, 17.8, 16.1, 18.9, 14.5, 16.8, 17, 18.1, 15.9, 17.3, 14.3, 18.4, 15.1, 18.8, 14.6, 16.8, 16.7, 16.8, 17.4, 16.4, 17.5, 15.1, 17.8, 15.9, 17, 15.9, 18.6, 15.8, 18, 14.5, 19.2, 14.9, 18, 14.5, 18.2, 16.1, 17.9, 15.7, 17.1, 15.8, 16.9, 16.9, 15.9, 17.5, 17.1, 15.7, 17.9, 16.5, 15.3, 18.5, 14.8, 17.2, 17.6, 17.6, 14, 18.6, 15.6, 18, 15.9, 16.7, 15.5, 18.5, 15.8, 17.4, 16, 15.7, 17.4, 16.9, 16.5, 15.8, 17.8, 15.7, 18.1, 17, 16, 15.3, 19.3, 14.1, 19.5, 15, 17.8, 15.9, 17.2, 14.6, 18, 16.8, 16.1, 16.7, 16.1, 17.5, 15.7, 17.5, 16, 16.8, 17.4, 16.6, 15.8, 18.3, 16.1, 18.7, 13.9, 17.9, 16.5, 17.3, 14.7, 18.7, 16.1, 17.5, 14.6, 17.7, 15.7, 17.1, 17.7, 16.6, 16.4, 16.7, 16.3, 16, 16.7, 16.9, 17.3, 15.9, 18.8, 14.6, 17.7, 17.3, 16.5, 15.9, 18.3, 14.2, 18.3, 16.5, 16.6, 15.5, 17.4, 17.5, 15.1, 16.9, 16.7, 16.5, 16.7, 16.4, 16.3, 17.3, 16.3, 16.4, 17.3, 17.7, 16.1, 17.7, 15.3, 18.6, 14.5, 17.4, 16.8, 15.7, 17, 18.2, 16.7, 15.2, 16.3, 18.5, 16.2, 17.6, 15.3, 16.8, 15.7, 17.7, 17.2, 15.7, 18.9, 15.6, 17.3, 16.7, 16.8, 14.8, 17.5, 15.6, 17.5, 16.4, 16.5, 16.3, 17.5, 17.9, 16.7, 16.2, 15.2, 16.6, 16.9, 18, 15.3, 17.8, 16.6, 17.4, 14.8, 18.8, 14.6, 18.8, 15.8, 17.6, 16.1, 17.1, 14.9, 16.7, 18.1, 16.1, 19.2, 13.3, 18.2, 16.7, 17.9, 13.5, 18.1]",60.0,60.0,60.0,5029.3,[],,,,,,,,,,,,,,,,,,,,,,,,,HRV,HRV_0273,2022-11-30 20:33:46
,wl-html-keyboard-response,2,36811,0.0-2.0-0.0,0.0,3.0,,,,,,,,27432.70000000298,0.0,0,,,,,,,,,,,,,,,,,,,,,,HRV,HRV_0273,2022-11-30 20:33:46
,wl-rdm,3,46215,0.0-3.0-0.0,0.0,4.0,,,,,,,[],,,,0.0,0.0,87.9,0.0,u,0.0,True,3737.6000000089407,224.0,60.0,40.0,False,,3000.0,[],"[481, 301]",ColorTask_Demo,,,,,HRV,HRV_0273,2022-11-30 20:33:46
,wl-rdm,4,51768,0.0-3.0-1.0,0.0,5.0,,,,,,,[],,,,0.0,0.0,87.9,1.0,i,1.0,True,1437.2000000178814,87.0,60.0,40.0,False,,2000.0,[],"[481, 301]",ColorTask_Demo,,,,,HRV,HRV_0273,2022-11-30 20:33:46
,wl-html-keyboard-response,5,56796,0.0-3.0-2.0,0.0,6.0,,,,,,,,,0.0,0,,,,,,,,,,,,,,,,,,,,,,HRV,HRV_0273,2022-11-30 20:33:46
,wl-rdm,6,71202,0.0-3.1-0.1,0.0,4.0,,,,,,,[],,,,0.0,0.0,87.9,0.0,u,0.0,True,2078.8999999910593,125.0,60.0,40.0,False,too_early ,3000.0,[],"[481, 301]",ColorTask_Demo,,,,,HRV,HRV_0273,2022-11-30 20:33:46
,wl-rdm,7,77357,0.0-3.1-1.1,0.0,5.0,,,,,,,[],,,,0.0,0.0,87.9,1.0,i,1.0,True,2026.3999999910593,122.0,60.0,40.0,False,,2000.0,[],"[481, 301]",ColorTask_Demo,,,,,HRV,HRV_0273,2022-11-30 20:33:46
,wl-html-keyboard-response,8,82135,0.0-3.1-2.1,0.0,6.0,,,,,,,,,0.0,0,,,,,,,,,,,,,,,,,,,,,,HRV,HRV_0273,2022-11-30 20:33:46
,wl-rdm,9,89718,0.0-3.2-0.2,0.0,4.0,,,,,,,[],,,,0.0,0.0,87.9,0.0,u,0.0,True,1994.0,120.0,60.0,40.0,False,,3000.0,[],"[481, 301]",ColorTask_Demo,,,,,HRV,HRV_0273,2022-11-30 20:33:46
,wl-rdm,10,95690,0.0-3.2-1.2,0.0,5.0,,,,,,,[],,,,0.0,0.0,87.9,1.0,i,1.0,True,1909.199999988079,115.0,60.0,40.0,False,,2000.0,[],"[481, 301]",ColorTask_Demo,,,,,HRV,HRV_0273,2022-11-30 20:33:46
,wl-html-keyboard-response,11,99614,0.0-3.2-2.2,0.0,6.0,,,,,,,,,0.0,0,,,,,,,,,,,,,,,,,,,,,,HRV,HRV_0273,2022-11-30 20:33:46
,wl-rdm,12,107169,0.0-3.3-0.3,0.0,4.0,,,,,,,[],,,,0.0,0.0,87.9,0.0,u,0.0,True,1878.1000000089407,113.0,60.0,40.0,False,,3000.0,[],"[481, 301]",ColorTask_Demo,,,,,HRV,HRV_0273,2022-11-30 20:33:46
,wl-rdm,13,112921,0.0-3.3-1.3,0.0,5.0,,,,,,,[],,,,0.0,0.0,87.9,1.0,i,1.0,True,1643.3999999910593,99.0,60.0,40.0,False,,2000.0,[],"[481, 301]",ColorTask_Demo,,,,,HRV,HRV_0273,2022-11-30 20:33:46
,wl-html-keyboard-response,14,116614,0.0-3.3-2.3,0.0,6.0,,,,,,,,1686.0,0.0,1,,,,,,,,,,,,,,,,,,,,,,HRV,HRV_0273,2022-11-30 20:33:46
,wl-html-keyboard-response,15,123895,0.0-4.0-0.0,0.0,7.0,,,,,,,,5273.79999999702,0.0,0,,,,,,,,,,,,,,,,,,,,,,HRV,HRV_0273,2022-11-30 20:33:46
,wl-html-keyboard-response,16,133392,0.0-5.0-0.0,0.0,8.0,,,,,,,,7489.79999999702,0.0,0,,,,,,,,,,,,,,,,,,,,,,HRV,HRV_0273,2022-11-30 20:33:46
,wl-rdm,17,136642,0.0-6.0-0.0,0.0,9.0,,,,,,,[],,,,,,73.6,1.0,i,1.0,True,1797.7000000029802,108.0,60.0,40.0,False,,358.00203582772207,[],"[481, 301]",ColorTask,1.0,1.0,,,HRV,HRV_0273,2022-11-30 20:33:46
,wl-rdm,18,139530,0.0-6.1-0.1,0.0,10.0,,,,,,,[],,,,,,56.4,0.0,u,0.0,True,1581.300000011921,95.0,60.0,40.0,False,,201.38794864812613,[],"[481, 301]",ColorTask,2.0,2.0,,,HRV,HRV_0273,2022-11-30 20:33:46
,wl-rdm,19,142181,0.0-6.2-0.2,0.0,11.0,,,,,,,[],,,,,,53.2,1.0,i,1.0,True,1294.8999999910593,78.0,60.0,40.0,False,,255.21869560413074,[],"[481, 301]",ColorTask,3.0,3.0,,,HRV,HRV_0273,2022-11-30 20:33:46
,wl-rdm,20,144883,0.0-6.3-0.3,0.0,12.0,,,,,,,[],,,,,,87.9,1.0,i,1.0,True,1279.5,76.0,60.0,40.0,False,,328.4670771213632,[],"[481, 301]",ColorTask,4.0,4.0,,,HRV,HRV_0273,2022-11-30 20:33:46
,wl-rdm,21,147102,0.0-6.4-0.4,0.0,13.0,,,,,,,[],,,,,,87.9,1.0,u,0.0,False,816.0999999940395,49.0,60.0,40.0,False,,311.52551017955,[],"[481, 301]",ColorTask,3.0,5.0,,,HRV,HRV_0273,2022-11-30 20:33:46
,wl-rdm,22,150754,0.0-6.5-0.5,0.0,14.0,,,,,,,[],,,,,,56.4,0.0,u,0.0,True,2311.1000000089407,139.0,60.0,40.0,False,,252.171533146712,[],"[481, 301]",ColorTask,4.0,6.0,,,HRV,HRV_0273,2022-11-30 20:33:46
,wl-rdm,23,153792,0.0-6.6-0.6,0.0,15.0,,,,,,,[],,,,,,56.4,1.0,i,1.0,True,1591.4000000059605,96.0,60.0,40.0,False,,366.24412660118605,[],"[481, 301]",ColorTask,5.0,7.0,,,HRV,HRV_0273,2022-11-30 20:33:46
,wl-rdm,24,156377,0.0-6.7-0.7,0.0,16.0,,,,,,,[],,,,,,62.5,0.0,u,0.0,True,1289.5999999940395,78.0,60.0,40.0,False,,200.2152299121974,[],"[481, 301]",ColorTask,6.0,8.0,,,HRV,HRV_0273,2022-11-30 20:33:46
,wl-rdm,25,159329,0.0-6.8-0.8,0.0,17.0,,,,,,,[],,,,,,56.4,1.0,i,1.0,True,1612.9000000059605,97.0,60.0,40.0,False,,241.96939917017272,[],"[481, 301]",ColorTask,7.0,9.0,,,HRV,HRV_0273,2022-11-30 20:33:46
,wl-rdm,26,162065,0.0-6.9-0.9,0.0,18.0,,,,,,,[],,,,,,50.0,0.0,u,0.0,True,1435.7999999970198,87.0,60.0,40.0,False,,230.0327129191255,[],"[481, 301]",ColorTask,8.0,10.0,,,HRV,HRV_0273,2022-11-30 20:33:46
,wl-rdm,27,165801,0.0-6.10-0.10,0.0,19.0,,,,,,,[],,,,,,87.9,0.0,u,0.0,True,2301.8999999910593,139.0,60.0,40.0,False,,359.1800521466904,[],"[481, 301]",ColorTask,9.0,11.0,,,HRV,HRV_0273,2022-11-30 20:33:46
,wl-rdm,28,168687,0.0-6.11-0.11,0.0,20.0,,,,,,,[],,,,,,87.9,0.0,u,0.0,True,1543.3999999910593,93.0,60.0,40.0,False,,240.47230131497855,[],"[481, 301]",ColorTask,10.0,12.0,,,HRV,HRV_0273,2022-11-30 20:33:46
,wl-rdm,29,171222,0.0-6.12-0.12,0.0,21.0,,,,,,,[],,,,,,53.2,1.0,u,0.0,False,1216.800000011921,73.0,60.0,40.0,False,,220.37828679399806,[],"[481, 301]",ColorTask,9.0,13.0,,,HRV,HRV_0273,2022-11-30 20:33:46
,wl-rdm,30,174042,0.0-6.13-0.13,0.0,22.0,,,,,,,[],,,,,,53.2,1.0,i,1.0,True,1476.2999999970198,89.0,60.0,40.0,False,,252.76933651239113,[],"[481, 301]",ColorTask,10.0,14.0,,,HRV,HRV_0273,2022-11-30 20:33:46
,wl-rdm,31,176445,0.0-6.14-0.14,0.0,23.0,,,,,,,[],,,,,,62.5,1.0,i,1.0,True,987.8999999910593,60.0,60.0,40.0,False,,327.3633562184627,[],"[481, 301]",ColorTask,11.0,15.0,,,HRV,HRV_0273,2022-11-30 20:33:46
,wl-rdm,32,179514,0.0-6.15-0.15,0.0,24.0,,,,,,,[],,,,,,73.6,0.0,u,0.0,True,1741.5,105.0,60.0,40.0,False,,229.42816031958677,[],"[481, 301]",ColorTask,12.0,16.0,,,HRV,HRV_0273,2022-11-30 20:33:46
,wl-rdm,33,182249,0.0-6.16-0.16,0.0,25.0,,,,,,,[],,,,,,62.5,1.0,i,1.0,True,1338.5000000149012,81.0,60.0,40.0,False,,298.0409453126096,[],"[481, 301]",ColorTask,13.0,17.0,,,HRV,HRV_0273,2022-11-30 20:33:46
,wl-rdm,34,185018,0.0-6.17-0.17,0.0,26.0,,,,,,,[],,,,,,87.9,0.0,u,0.0,True,1332.1000000089407,80.0,60.0,40.0,False,,363.3538565563573,[],"[481, 301]",ColorTask,14.0,18.0,,,HRV,HRV_0273,2022-11-30 20:33:46
,wl-rdm,35,187888,0.0-6.18-0.18,0.0,27.0,,,,,,,[],,,,,,53.2,0.0,u,0.0,True,1511.2000000029802,91.0,60.0,40.0,False,,250.40189604846444,[],"[481, 301]",ColorTask,15.0,19.0,,,HRV,HRV_0273,2022-11-30 20:33:46
,wl-rdm,36,190424,0.0-6.19-0.19,0.0,28.0,,,,,,,[],,,,,,56.4,0.0,u,0.0,True,1141.2999999970198,69.0,60.0,40.0,False,,291.29562894737103,[],"[481, 301]",ColorTask,16.0,20.0,,,HRV,HRV_0273,2022-11-30 20:33:46
,wl-rdm,37,192909,0.0-6.20-0.20,0.0,29.0,,,,,,,[],,,,,,87.9,0.0,u,0.0,True,1098.2999999970198,66.0,60.0,40.0,False,,285.8541049812155,[],"[481, 301]",ColorTask,17.0,21.0,,,HRV,HRV_0273,2022-11-30 20:33:46
,wl-rdm,38,195762,0.0-6.21-0.21,0.0,30.0,,,,,,,[],,,,,,73.6,0.0,u,0.0,True,1359.800000011921,82.0,60.0,40.0,False,,389.2114707506173,[],"[481, 301]",ColorTask,18.0,22.0,,,HRV,HRV_0273,2022-11-30 20:33:46
,wl-rdm,39,198264,0.0-6.22-0.22,0.0,31.0,,,,,,,[],,,,,,87.9,0.0,u,0.0,True,1109.9999999850988,67.0,60.0,40.0,False,,302.3473191030742,[],"[481, 301]",ColorTask,19.0,23.0,,,HRV,HRV_0273,2022-11-30 20:33:46
,wl-rdm,40,200833,0.0-6.23-0.23,0.0,32.0,,,,,,,[],,,,,,87.9,0.0,u,0.0,True,1105.5,67.0,60.0,40.0,False,,399.97528255120164,[],"[481, 301]",ColorTask,20.0,24.0,,,HRV,HRV_0273,2022-11-30 20:33:46
,wl-rdm,41,203686,0.0-6.24-0.24,0.0,33.0,,,,,,,[],,,,,,53.2,1.0,i,1.0,True,1477.0,89.0,60.0,40.0,False,,312.3257534122581,[],"[481, 301]",ColorTask,21.0,25.0,,,HRV,HRV_0273,2022-11-30 20:33:46
,wl-rdm,42,205888,0.0-6.25-0.25,0.0,34.0,,,,,,,[],,,,,,73.6,1.0,i,1.0,True,821.7000000029802,50.0,60.0,40.0,False,,279.528731047707,[],"[481, 301]",ColorTask,22.0,26.0,,,HRV,HRV_0273,2022-11-30 20:33:46
,wl-rdm,43,208090,0.0-6.26-0.26,0.0,35.0,,,,,,,[],,,,,,73.6,1.0,i,1.0,True,879.7000000178814,53.0,60.0,40.0,False,,228.4378689276396,[],"[481, 301]",ColorTask,23.0,27.0,,,HRV,HRV_0273,2022-11-30 20:33:46
,wl-rdm,44,210409,0.0-6.27-0.27,0.0,36.0,,,,,,,[],,,,,,87.9,1.0,u,0.0,False,844.5999999940395,51.0,60.0,40.0,False,,380.4665493644195,[],"[481, 301]",ColorTask,22.0,28.0,,,HRV,HRV_0273,2022-11-30 20:33:46
,wl-rdm,45,212577,0.0-6.28-0.28,0.0,37.0,,,,,,,[],,,,,,87.9,1.0,i,1.0,True,833.9999999850988,50.0,60.0,40.0,False,,227.08422369193175,[],"[481, 301]",ColorTask,23.0,29.0,,,HRV,HRV_0273,2022-11-30 20:33:46
,wl-rdm,46,214830,0.0-6.29-0.29,0.0,38.0,,,,,,,[],,,,,,87.9,1.0,i,1.0,True,863.3999999910593,52.0,60.0,40.0,False,,292.25188530028845,[],"[481, 301]",ColorTask,24.0,30.0,,,HRV,HRV_0273,2022-11-30 20:33:46
,wl-rdm,47,217815,0.0-6.30-0.30,0.0,39.0,,,,,,,[],,,,,,56.4,0.0,i,1.0,False,1531.5,92.0,60.0,40.0,False,,365.8427599520052,[],"[481, 301]",ColorTask,23.0,31.0,,,HRV,HRV_0273,2022-11-30 20:33:46
,wl-rdm,48,220318,0.0-6.31-0.31,0.0,40.0,,,,,,,[],,,,,,53.2,0.0,u,0.0,True,1223.0,74.0,60.0,40.0,False,,201.1900995489513,[],"[481, 301]",ColorTask,24.0,32.0,,,HRV,HRV_0273,2022-11-30 20:33:46
,wl-rdm,49,222552,0.0-6.32-0.32,0.0,41.0,,,,,,,[],,,,,,73.6,1.0,i,1.0,True,905.5999999940395,55.0,60.0,40.0,False,,260.9089261710371,[],"[481, 301]",ColorTask,25.0,33.0,,,HRV,HRV_0273,2022-11-30 20:33:46
,wl-rdm,50,225804,0.0-6.33-0.33,0.0,42.0,,,,,,,[],,,,,,62.5,0.0,u,0.0,True,1859.0999999940395,112.0,60.0,40.0,False,,297.7844863643518,[],"[481, 301]",ColorTask,26.0,34.0,,,HRV,HRV_0273,2022-11-30 20:33:46
,wl-rdm,51,229291,0.0-6.34-0.34,0.0,43.0,,,,,,,[],,,,,,50.0,0.0,i,1.0,False,2180.2999999970198,131.0,60.0,40.0,False,,214.12678576630242,[],"[481, 301]",ColorTask,25.0,35.0,,,HRV,HRV_0273,2022-11-30 20:33:46
,wl-rdm,52,232359,0.0-6.35-0.35,0.0,44.0,,,,,,,[],,,,,,73.6,1.0,i,1.0,True,1640.1000000089407,99.0,60.0,40.0,False,,320.275307993721,[],"[481, 301]",ColorTask,26.0,36.0,,,HRV,HRV_0273,2022-11-30 20:33:46
,wl-rdm,53,235430,0.0-6.36-0.36,0.0,45.0,,,,,,,[],,,,,,50.0,1.0,i,1.0,True,1732.0000000149012,104.0,60.0,40.0,False,,267.0896941415907,[],"[481, 301]",ColorTask,27.0,37.0,,,HRV,HRV_0273,2022-11-30 20:33:46
,wl-rdm,54,237849,0.0-6.37-0.37,0.0,46.0,,,,,,,[],,,,,,53.2,1.0,i,1.0,True,991.0,60.0,60.0,40.0,False,,338.32933308930933,[],"[481, 301]",ColorTask,28.0,38.0,,,HRV,HRV_0273,2022-11-30 20:33:46
,wl-rdm,55,240267,0.0-6.38-0.38,0.0,47.0,,,,,,,[],,,,,,53.2,1.0,u,0.0,False,993.1000000089407,60.0,60.0,40.0,False,,341.3024796718337,[],"[481, 301]",ColorTask,27.0,39.0,,,HRV,HRV_0273,2022-11-30 20:33:46
,wl-rdm,56,242837,0.0-6.39-0.39,0.0,48.0,,,,,,,[],,,,,,62.5,0.0,i,1.0,False,1215.3999999910593,72.0,60.0,40.0,False,,253.961040345095,[],"[481, 301]",ColorTask,26.0,40.0,,,HRV,HRV_0273,2022-11-30 20:33:46
,wl-rdm,57,246572,0.0-6.40-0.40,0.0,49.0,,,,,,,[],,,,,,62.5,0.0,u,0.0,True,2262.5999999940395,136.0,60.0,40.0,False,,389.7115490447916,[],"[481, 301]",ColorTask,27.0,41.0,,,HRV,HRV_0273,2022-11-30 20:33:46
,wl-rdm,58,249576,0.0-6.41-0.41,0.0,50.0,,,,,,,[],,,,,,50.0,0.0,i,1.0,False,1587.2999999970198,96.0,60.0,40.0,False,,322.7593901904079,[],"[481, 301]",ColorTask,26.0,42.0,,,HRV,HRV_0273,2022-11-30 20:33:46
,wl-rdm,59,251678,0.0-6.42-0.42,0.0,51.0,,,,,,,[],,,,,,56.4,1.0,u,0.0,False,613.2000000178814,37.0,60.0,40.0,False,,388.9881861090679,[],"[481, 301]",ColorTask,25.0,43.0,,,HRV,HRV_0273,2022-11-30 20:33:46
,wl-rdm,60,254864,0.0-6.43-0.43,0.0,52.0,,,,,,,[],,,,,,73.6,0.0,u,0.0,True,1859.8999999910593,112.0,60.0,40.0,False,,231.1622477300411,[],"[481, 301]",ColorTask,26.0,44.0,,,HRV,HRV_0273,2022-11-30 20:33:46
,wl-rdm,61,258084,0.0-6.44-0.44,0.0,53.0,,,,,,,[],,,,,,62.5,0.0,i,1.0,False,1909.7999999970198,115.0,60.0,40.0,False,,201.79174272104942,[],"[481, 301]",ColorTask,25.0,45.0,,,HRV,HRV_0273,2022-11-30 20:33:46
,wl-rdm,62,260152,0.0-6.45-0.45,0.0,54.0,,,,,,,[],,,,,,53.2,0.0,u,0.0,True,759.6999999880791,46.0,60.0,40.0,False,,242.95857842617667,[],"[481, 301]",ColorTask,26.0,46.0,,,HRV,HRV_0273,2022-11-30 20:33:46
,wl-rdm,63,263622,0.0-6.46-0.46,0.0,55.0,,,,,,,[],,,,,,53.2,1.0,i,1.0,True,2045.7999999970198,123.0,60.0,40.0,False,,343.5818013986774,[],"[481, 301]",ColorTask,27.0,47.0,,,HRV,HRV_0273,2022-11-30 20:33:46
,wl-rdm,64,267525,0.0-6.47-0.47,0.0,56.0,,,,,,,[],,,,,,50.0,1.0,i,1.0,True,2475.1000000089407,149.0,60.0,40.0,False,,319.4269952362108,[],"[481, 301]",ColorTask,28.0,48.0,,,HRV,HRV_0273,2022-11-30 20:33:46
,wl-rdm,65,271128,0.0-6.48-0.48,0.0,57.0,,,,,,,[],,,,,,53.2,1.0,i,1.0,True,2142.000000014901,129.0,60.0,40.0,False,,365.49053034089144,[],"[481, 301]",ColorTask,29.0,49.0,,,HRV,HRV_0273,2022-11-30 20:33:46
,wl-rdm,66,273597,0.0-6.49-0.49,0.0,58.0,,,,,,,[],,,,,,62.5,1.0,i,1.0,True,1079.7000000029802,65.0,60.0,40.0,False,,294.75822014548527,[],"[481, 301]",ColorTask,30.0,50.0,,,HRV,HRV_0273,2022-11-30 20:33:46
,wl-rdm,67,276633,0.0-6.50-0.50,0.0,59.0,,,,,,,[],,,,,,73.6,0.0,u,0.0,True,1709.5000000149012,103.0,60.0,40.0,False,,244.94493979927788,[],"[481, 301]",ColorTask,31.0,51.0,,,HRV,HRV_0273,2022-11-30 20:33:46
,wl-rdm,68,281119,0.0-6.51-0.51,0.0,59.0,,,,,,,[],,,,,,56.4,0.0,u,,,3308.800000011921,179.0,60.0,40.0,True,RT_timeout ,382.5142467781321,[],"[481, 301]",ColorTask,30.0,52.0,,,HRV,HRV_0273,2022-11-30 20:33:46
,wl-rdm,69,283289,0.0-6.52-0.52,0.0,60.0,,,,,,,[],,,,,,73.6,0.0,u,0.0,True,826.5,50.0,60.0,40.0,False,,253.9146699171866,[],"[481, 301]",ColorTask,31.0,53.0,,,HRV,HRV_0273,2022-11-30 20:33:46
,wl-rdm,70,285927,0.0-6.53-0.53,0.0,61.0,,,,,,,[],,,,,,53.2,0.0,u,0.0,True,1310.3999999910593,79.0,60.0,40.0,False,,223.46255827364868,[],"[481, 301]",ColorTask,32.0,54.0,,,HRV,HRV_0273,2022-11-30 20:33:46
,wl-rdm,71,288727,0.0-6.54-0.54,0.0,62.0,,,,,,,[],,,,,,56.4,0.0,u,0.0,True,1458.8999999910593,88.0,60.0,40.0,False,,249.43537528283795,[],"[481, 301]",ColorTask,33.0,55.0,,,HRV,HRV_0273,2022-11-30 20:33:46
,wl-rdm,72,291329,0.0-6.55-0.55,0.0,63.0,,,,,,,[],,,,,,50.0,1.0,u,0.0,False,1312.7000000029802,79.0,60.0,40.0,False,,216.61902707634675,[],"[481, 301]",ColorTask,32.0,56.0,,,HRV,HRV_0273,2022-11-30 20:33:46
,wl-rdm,73,293465,0.0-6.56-0.56,0.0,64.0,,,,,,,[],,,,,,50.0,0.0,u,0.0,True,816.6999999880791,49.0,60.0,40.0,False,,233.69177766027616,[],"[481, 301]",ColorTask,33.0,57.0,,,HRV,HRV_0273,2022-11-30 20:33:46
,wl-rdm,74,296071,0.0-6.57-0.57,0.0,65.0,,,,,,,[],,,,,,50.0,1.0,u,0.0,False,1293.2000000029802,78.0,60.0,40.0,False,,225.24036162351297,[],"[481, 301]",ColorTask,32.0,58.0,,,HRV,HRV_0273,2022-11-30 20:33:46
,wl-rdm,75,298268,0.0-6.58-0.58,0.0,66.0,,,,,,,[],,,,,,73.6,1.0,u,0.0,False,908.1999999880791,55.0,60.0,40.0,False,,205.47967691861197,[],"[481, 301]",ColorTask,31.0,59.0,,,HRV,HRV_0273,2022-11-30 20:33:46
,wl-rdm,76,300452,0.0-6.59-0.59,0.0,67.0,,,,,,,[],,,,,,62.5,1.0,i,1.0,True,859.5,52.0,60.0,40.0,False,,224.5129600709838,[],"[481, 301]",ColorTask,32.0,60.0,,,HRV,HRV_0273,2022-11-30 20:33:46
,wl-rdm,77,302856,0.0-6.60-0.60,0.0,68.0,,,,,,,[],,,,,,56.4,1.0,i,1.0,True,940.6999999880791,57.0,60.0,40.0,False,,356.40314827485383,[],"[481, 301]",ColorTask,33.0,61.0,,,HRV,HRV_0273,2022-11-30 20:33:46
,wl-rdm,78,305325,0.0-6.61-0.61,0.0,69.0,,,,,,,[],,,,,,62.5,1.0,i,1.0,True,992.7000000029802,60.0,60.0,40.0,False,,383.35051426822406,[],"[481, 301]",ColorTask,34.0,62.0,,,HRV,HRV_0273,2022-11-30 20:33:46
,wl-rdm,79,308079,0.0-6.62-0.62,0.0,70.0,,,,,,,[],,,,,,56.4,0.0,u,0.0,True,1431.199999988079,86.0,60.0,40.0,False,,217.52940726170985,[],"[481, 301]",ColorTask,35.0,63.0,,,HRV,HRV_0273,2022-11-30 20:33:46
,wl-rdm,80,310697,0.0-6.63-0.63,0.0,71.0,,,,,,,[],,,,,,56.4,0.0,u,0.0,True,1192.699999988079,72.0,60.0,40.0,False,,321.8539836961801,[],"[481, 301]",ColorTask,36.0,64.0,,,HRV,HRV_0273,2022-11-30 20:33:46
,wl-rdm,81,312982,0.0-6.64-0.64,0.0,72.0,,,,,,,[],,,,,,87.9,1.0,u,0.0,False,958.5000000149012,58.0,60.0,40.0,False,,262.70373800763497,[],"[481, 301]",ColorTask,35.0,65.0,,,HRV,HRV_0273,2022-11-30 20:33:46
,wl-rdm,82,314049,0.0-6.65-0.65,0.0,72.0,,,,,,,[],,,,,,50.0,1.0,i,,,63.8999999910593,0.0,60.0,40.0,True,too_early ,253.48788395253325,[],"[481, 301]",ColorTask,34.0,66.0,,,HRV,HRV_0273,2022-11-30 20:33:46
,wl-rdm,83,317002,0.0-6.66-0.66,0.0,73.0,,,,,,,[],,,,,,56.4,1.0,i,1.0,True,1523.8999999910593,92.0,60.0,40.0,False,,303.1632508440233,[],"[481, 301]",ColorTask,35.0,67.0,,,HRV,HRV_0273,2022-11-30 20:33:46
,wl-rdm,84,321173,0.0-6.67-0.67,0.0,74.0,,,,,,,[],,,,,,62.5,0.0,i,1.0,False,2826.699999988079,170.0,60.0,40.0,False,,232.00562748516325,[],"[481, 301]",ColorTask,34.0,68.0,,,HRV,HRV_0273,2022-11-30 20:33:46
,wl-rdm,85,323673,0.0-6.68-0.68,0.0,75.0,,,,,,,[],,,,,,62.5,1.0,u,0.0,False,1187.5,72.0,60.0,40.0,False,,203.2249896964294,[],"[481, 301]",ColorTask,33.0,69.0,,,HRV,HRV_0273,2022-11-30 20:33:46
,wl-rdm,86,326527,0.0-6.69-0.69,0.0,76.0,,,,,,,[],,,,,,53.2,0.0,i,1.0,False,1531.800000011921,92.0,60.0,40.0,False,,237.44666054389387,[],"[481, 301]",ColorTask,32.0,70.0,,,HRV,HRV_0273,2022-11-30 20:33:46
,wl-rdm,87,329279,0.0-6.70-0.70,0.0,77.0,,,,,,,[],,,,,,62.5,1.0,i,1.0,True,1394.0,84.0,60.0,40.0,False,,263.2268520853671,[],"[481, 301]",ColorTask,33.0,71.0,,,HRV,HRV_0273,2022-11-30 20:33:46
,wl-rdm,88,332132,0.0-6.71-0.71,0.0,78.0,,,,,,,[],,,,,,87.9,0.0,u,0.0,True,1407.4000000059605,85.0,60.0,40.0,False,,355.4046757202964,[],"[481, 301]",ColorTask,34.0,72.0,,,HRV,HRV_0273,2022-11-30 20:33:46
,wl-rdm,89,334966,0.0-6.72-0.72,0.0,79.0,,,,,,,[],,,,,,50.0,1.0,u,0.0,False,1509.7000000178814,91.0,60.0,40.0,False,,229.29412551090158,[],"[481, 301]",ColorTask,33.0,73.0,,,HRV,HRV_0273,2022-11-30 20:33:46
,wl-rdm,90,337437,0.0-6.73-0.73,0.0,80.0,,,,,,,[],,,,,,73.6,0.0,u,0.0,True,1144.2000000029802,68.0,60.0,40.0,False,,264.52974173265346,[],"[481, 301]",ColorTask,34.0,74.0,,,HRV,HRV_0273,2022-11-30 20:33:46
,wl-rdm,91,340343,0.0-6.74-0.74,0.0,81.0,,,,,,,[],,,,,,56.4,1.0,i,1.0,True,1427.9999999850988,86.0,60.0,40.0,False,,381.5320688175069,[],"[481, 301]",ColorTask,35.0,75.0,,,HRV,HRV_0273,2022-11-30 20:33:46
,wl-rdm,92,342875,0.0-6.75-0.75,0.0,82.0,,,,,,,[],,,,,,87.9,1.0,i,1.0,True,1111.4000000059605,67.0,60.0,40.0,False,,307.28852185827645,[],"[481, 301]",ColorTask,36.0,76.0,,,HRV,HRV_0273,2022-11-30 20:33:46
,wl-rdm,93,345976,0.0-6.76-0.76,0.0,83.0,,,,,,,[],,,,,,56.4,1.0,u,0.0,False,1663.1000000089407,100.0,60.0,40.0,False,,330.6656996520959,[],"[481, 301]",ColorTask,35.0,77.0,,,HRV,HRV_0273,2022-11-30 20:33:46
,wl-rdm,94,349130,0.0-6.77-0.77,0.0,84.0,,,,,,,[],,,,,,50.0,0.0,u,0.0,True,1761.5,106.0,60.0,40.0,False,,302.1288274506858,[],"[481, 301]",ColorTask,36.0,78.0,,,HRV,HRV_0273,2022-11-30 20:33:46
,wl-rdm,95,351298,0.0-6.78-0.78,0.0,85.0,,,,,,,[],,,,,,87.9,1.0,u,0.0,False,846.2999999970198,51.0,60.0,40.0,False,,225.3079483555586,[],"[481, 301]",ColorTask,35.0,79.0,,,HRV,HRV_0273,2022-11-30 20:33:46
,wl-rdm,96,353502,0.0-6.79-0.79,0.0,86.0,,,,,,,[],,,,,,87.9,1.0,i,1.0,True,904.7000000029802,55.0,60.0,40.0,False,,210.7613357956215,[],"[481, 301]",ColorTask,36.0,80.0,,,HRV,HRV_0273,2022-11-30 20:33:46
,wl-rdm,97,356303,0.0-6.80-0.80,0.0,87.0,,,,,,,[],,,,,,73.6,0.0,u,0.0,True,1330.7000000178814,79.0,60.0,40.0,False,,383.82775676467463,[],"[481, 301]",ColorTask,37.0,81.0,,,HRV,HRV_0273,2022-11-30 20:33:46
,wl-rdm,98,359457,0.0-6.81-0.81,0.0,88.0,,,,,,,[],,,,,,56.4,0.0,u,0.0,True,1835.199999988079,110.0,60.0,40.0,False,,227.17634771658,[],"[481, 301]",ColorTask,38.0,82.0,,,HRV,HRV_0273,2022-11-30 20:33:46
,wl-rdm,99,362592,0.0-6.82-0.82,0.0,89.0,,,,,,,[],,,,,,62.5,1.0,u,0.0,False,1745.800000011921,105.0,60.0,40.0,False,,286.6390594263703,[],"[481, 301]",ColorTask,37.0,83.0,,,HRV,HRV_0273,2022-11-30 20:33:46
,wl-rdm,100,365211,0.0-6.83-0.83,0.0,90.0,,,,,,,[],,,,,,62.5,0.0,u,0.0,True,1305.5999999940395,79.0,60.0,40.0,False,,207.32901703824132,[],"[481, 301]",ColorTask,38.0,84.0,,,HRV,HRV_0273,2022-11-30 20:33:46
,wl-rdm,101,368247,0.0-6.84-0.84,0.0,91.0,,,,,,,[],,,,,,50.0,0.0,i,1.0,False,1642.8999999910593,99.0,60.0,40.0,False,,287.77647099296655,[],"[481, 301]",ColorTask,37.0,85.0,,,HRV,HRV_0273,2022-11-30 20:33:46
,wl-rdm,102,370899,0.0-6.85-0.85,0.0,92.0,,,,,,,[],,,,,,50.0,1.0,i,1.0,True,1289.0999999940395,78.0,60.0,40.0,False,,267.5494147702892,[],"[481, 301]",ColorTask,38.0,86.0,,,HRV,HRV_0273,2022-11-30 20:33:46
,wl-rdm,103,373418,0.0-6.86-0.86,0.0,93.0,,,,,,,[],,,,,,87.9,0.0,u,0.0,True,1197.4999999850988,72.0,60.0,40.0,False,,233.78359869345584,[],"[481, 301]",ColorTask,39.0,87.0,,,HRV,HRV_0273,2022-11-30 20:33:46
,wl-rdm,104,376286,0.0-6.87-0.87,0.0,94.0,,,,,,,[],,,,,,50.0,0.0,i,1.0,False,1449.1000000089407,87.0,60.0,40.0,False,,357.9956580595748,[],"[481, 301]",ColorTask,38.0,88.0,,,HRV,HRV_0273,2022-11-30 20:33:46
,wl-rdm,105,378856,0.0-6.88-0.88,0.0,95.0,,,,,,,[],,,,,,50.0,1.0,u,0.0,False,1218.2000000029802,73.0,60.0,40.0,False,,258.1849217745694,[],"[481, 301]",ColorTask,37.0,89.0,,,HRV,HRV_0273,2022-11-30 20:33:46
,wl-rdm,106,382176,0.0-6.89-0.89,0.0,96.0,,,,,,,[],,,,,,53.2,0.0,u,0.0,True,2026.9999999850988,122.0,60.0,40.0,False,,203.23656516059808,[],"[481, 301]",ColorTask,38.0,90.0,,,HRV,HRV_0273,2022-11-30 20:33:46
,wl-rdm,107,384828,0.0-6.90-0.90,0.0,97.0,,,,,,,[],,,,,,56.4,0.0,u,0.0,True,1311.6000000089407,79.0,60.0,40.0,False,,242.5428701239348,[],"[481, 301]",ColorTask,39.0,91.0,,,HRV,HRV_0273,2022-11-30 20:33:46
,wl-rdm,108,387631,0.0-6.91-0.91,0.0,98.0,,,,,,,[],,,,,,56.4,1.0,u,0.0,False,1323.5999999940395,80.0,60.0,40.0,False,,398.41480453488504,[],"[481, 301]",ColorTask,38.0,92.0,,,HRV,HRV_0273,2022-11-30 20:33:46
,wl-rdm,109,390951,0.0-6.92-0.92,0.0,99.0,,,,,,,[],,,,,,50.0,1.0,i,1.0,True,1827.7000000029802,110.0,60.0,40.0,False,,388.93051271569016,[],"[481, 301]",ColorTask,39.0,93.0,,,HRV,HRV_0273,2022-11-30 20:33:46
,wl-rdm,110,394135,0.0-6.93-0.93,0.0,100.0,,,,,,,[],,,,,,53.2,0.0,i,1.0,False,1861.7999999821186,112.0,60.0,40.0,False,,239.4647325543755,[],"[481, 301]",ColorTask,38.0,94.0,,,HRV,HRV_0273,2022-11-30 20:33:46
,wl-rdm,111,397790,0.0-6.94-0.94,0.0,101.0,,,,,,,[],,,,,,50.0,1.0,u,0.0,False,2211.7000000029802,132.0,60.0,40.0,False,,377.3483408728214,[],"[481, 301]",ColorTask,37.0,95.0,,,HRV,HRV_0273,2022-11-30 20:33:46
,wl-rdm,112,401910,0.0-6.95-0.95,0.0,102.0,,,,,,,[],,,,,,53.2,1.0,i,1.0,True,2632.2999999970198,158.0,60.0,40.0,False,,395.81523992243183,[],"[481, 301]",ColorTask,38.0,96.0,,,HRV,HRV_0273,2022-11-30 20:33:46
,wl-rdm,113,404412,0.0-6.96-0.96,0.0,103.0,,,,,,,[],,,,,,62.5,0.0,u,0.0,True,1114.7999999970198,67.0,60.0,40.0,False,,289.0495894198268,[],"[481, 301]",ColorTask,39.0,97.0,,,HRV,HRV_0273,2022-11-30 20:33:46
,wl-rdm,114,406615,0.0-6.97-0.97,0.0,104.0,,,,,,,[],,,,,,73.6,1.0,u,0.0,False,797.4000000059605,48.0,60.0,40.0,False,,307.56116567988215,[],"[481, 301]",ColorTask,38.0,98.0,,,HRV,HRV_0273,2022-11-30 20:33:46
,wl-rdm,115,408650,0.0-6.98-0.98,0.0,105.0,,,,,,,[],,,,,,62.5,1.0,i,1.0,True,698.4999999850988,42.0,60.0,40.0,False,,261.90631094111006,[],"[481, 301]",ColorTask,39.0,99.0,,,HRV,HRV_0273,2022-11-30 20:33:46
,wl-rdm,116,411518,0.0-6.99-0.99,0.0,106.0,,,,,,,[],,,,,,56.4,1.0,i,1.0,True,1428.7000000029802,86.0,60.0,40.0,False,,365.5924120002866,[],"[481, 301]",ColorTask,40.0,100.0,,,HRV,HRV_0273,2022-11-30 20:33:46
,wl-rdm,117,414470,0.0-6.100-0.100,0.0,107.0,,,,,,,[],,,,,,73.6,1.0,i,1.0,True,1566.300000011921,94.0,60.0,40.0,False,,311.4177249573541,[],"[481, 301]",ColorTask,41.0,101.0,,,HRV,HRV_0273,2022-11-30 20:33:46
,wl-rdm,118,417156,0.0-6.101-0.101,0.0,108.0,,,,,,,[],,,,,,87.9,0.0,u,0.0,True,1316.5000000149012,78.0,60.0,40.0,False,,298.3168035200009,[],"[481, 301]",ColorTask,42.0,102.0,,,HRV,HRV_0273,2022-11-30 20:33:46
,wl-rdm,119,419708,0.0-6.102-0.102,0.0,109.0,,,,,,,[],,,,,,62.5,0.0,u,0.0,True,1157.199999988079,70.0,60.0,40.0,False,,307.7712367345198,[],"[481, 301]",ColorTask,43.0,103.0,,,HRV,HRV_0273,2022-11-30 20:33:46
,wl-rdm,120,422746,0.0-6.103-0.103,0.0,110.0,,,,,,,[],,,,,,50.0,0.0,u,0.0,True,1645.5,99.0,60.0,40.0,False,,318.67325381959614,[],"[481, 301]",ColorTask,44.0,104.0,,,HRV,HRV_0273,2022-11-30 20:33:46
,wl-rdm,121,425465,0.0-6.104-0.104,0.0,111.0,,,,,,,[],,,,,,53.2,0.0,u,0.0,True,1274.8999999910593,77.0,60.0,40.0,False,,334.4057185047634,[],"[481, 301]",ColorTask,45.0,105.0,,,HRV,HRV_0273,2022-11-30 20:33:46
,wl-rdm,122,428317,0.0-6.105-0.105,0.0,112.0,,,,,,,[],,,,,,73.6,0.0,u,0.0,True,1354.8999999910593,82.0,60.0,40.0,False,,395.16249777064024,[],"[481, 301]",ColorTask,46.0,106.0,,,HRV,HRV_0273,2022-11-30 20:33:46
,wl-rdm,123,430686,0.0-6.106-0.106,0.0,113.0,,,,,,,[],,,,,,73.6,0.0,u,0.0,True,941.9000000059605,57.0,60.0,40.0,False,,332.9872779013652,[],"[481, 301]",ColorTask,47.0,107.0,,,HRV,HRV_0273,2022-11-30 20:33:46
,wl-rdm,124,433255,0.0-6.107-0.107,0.0,114.0,,,,,,,[],,,,,,73.6,1.0,i,1.0,True,1144.3999999910593,69.0,60.0,40.0,False,,353.97078123877674,[],"[481, 301]",ColorTask,48.0,108.0,,,HRV,HRV_0273,2022-11-30 20:33:46
,wl-rdm,125,436057,0.0-6.108-0.108,0.0,115.0,,,,,,,[],,,,,,53.2,0.0,i,1.0,False,1477.2000000178814,89.0,60.0,40.0,False,,264.7932627897555,[],"[481, 301]",ColorTask,47.0,109.0,,,HRV,HRV_0273,2022-11-30 20:33:46
,wl-rdm,126,439210,0.0-6.109-0.109,0.0,116.0,,,,,,,[],,,,,,50.0,0.0,u,0.0,True,1757.199999988079,106.0,60.0,40.0,False,,292.29451236899695,[],"[481, 301]",ColorTask,48.0,110.0,,,HRV,HRV_0273,2022-11-30 20:33:46
,wl-html-keyboard-response,127,449751,0.0-7.0-0.0,1.0,117.0,,,,,,,,8518.70000000298,1.0,0,,,,,,,,,,,,,,,,,,,,,,HRV,HRV_0273,2022-11-30 20:33:46
,wl-rdm,128,452621,0.0-8.0-0.0,1.0,118.0,,,,,,,[],,,,,,53.2,0.0,u,0.0,True,1445.4000000059605,87.0,60.0,40.0,False,,312.6685733342407,[],"[481, 301]",ColorTask,49.0,1.0,,,HRV,HRV_0273,2022-11-30 20:33:46
,wl-rdm,129,454923,0.0-8.1-0.1,1.0,119.0,,,,,,,[],,,,,,87.9,0.0,u,0.0,True,960.2999999970198,58.0,60.0,40.0,False,,265.7626800026595,[],"[481, 301]",ColorTask,50.0,2.0,,,HRV,HRV_0273,2022-11-30 20:33:46
,wl-rdm,130,457093,0.0-8.2-0.2,1.0,120.0,,,,,,,[],,,,,,50.0,1.0,u,0.0,False,847.4999999850988,51.0,60.0,40.0,False,,235.16385521628303,[],"[481, 301]",ColorTask,49.0,3.0,,,HRV,HRV_0273,2022-11-30 20:33:46
,wl-rdm,131,459361,0.0-8.3-0.3,1.0,121.0,,,,,,,[],,,,,,62.5,1.0,i,1.0,True,887.9000000059605,54.0,60.0,40.0,False,,273.4130962358104,[],"[481, 301]",ColorTask,50.0,4.0,,,HRV,HRV_0273,2022-11-30 20:33:46
,wl-rdm,132,461562,0.0-8.4-0.4,1.0,122.0,,,,,,,[],,,,,,73.6,1.0,u,0.0,False,853.2999999970198,52.0,60.0,40.0,False,,281.93500714624156,[],"[481, 301]",ColorTask,49.0,5.0,,,HRV,HRV_0273,2022-11-30 20:33:46
,wl-rdm,133,464399,0.0-8.5-0.5,1.0,123.0,,,,,,,[],,,,,,62.5,1.0,i,1.0,True,1458.300000011921,87.0,60.0,40.0,False,,313.4296250948093,[],"[481, 301]",ColorTask,50.0,6.0,,,HRV,HRV_0273,2022-11-30 20:33:46
,wl-rdm,134,467033,0.0-8.6-0.6,1.0,124.0,,,,,,,[],,,,,,56.4,1.0,i,1.0,True,1157.300000011921,70.0,60.0,40.0,False,,379.77478218410306,[],"[481, 301]",ColorTask,51.0,7.0,,,HRV,HRV_0273,2022-11-30 20:33:46
,wl-rdm,135,470072,0.0-8.7-0.7,1.0,125.0,,,,,,,[],,,,,,62.5,1.0,i,1.0,True,1681.8999999910593,101.0,60.0,40.0,False,,281.447886953382,[],"[481, 301]",ColorTask,52.0,8.0,,,HRV,HRV_0273,2022-11-30 20:33:46
,wl-rdm,136,472271,0.0-8.8-0.8,1.0,126.0,,,,,,,[],,,,,,53.2,1.0,i,1.0,True,780.7999999970198,47.0,60.0,40.0,False,,326.42027470499534,[],"[481, 301]",ColorTask,53.0,9.0,,,HRV,HRV_0273,2022-11-30 20:33:46
,wl-rdm,137,475859,0.0-8.9-0.9,1.0,127.0,,,,,,,[],,,,,,56.4,0.0,u,0.0,True,2115.7999999970198,127.0,60.0,40.0,False,,388.5926671214136,[],"[481, 301]",ColorTask,54.0,10.0,,,HRV,HRV_0273,2022-11-30 20:33:46
,wl-rdm,138,478461,0.0-8.10-0.10,1.0,128.0,,,,,,,[],,,,,,73.6,0.0,u,0.0,True,1265.6000000089407,76.0,60.0,40.0,False,,237.96124901636895,[],"[481, 301]",ColorTask,55.0,11.0,,,HRV,HRV_0273,2022-11-30 20:33:46
,wl-rdm,139,481047,0.0-8.11-0.11,1.0,129.0,,,,,,,[],,,,,,62.5,0.0,u,0.0,True,1243.8999999910593,75.0,60.0,40.0,False,,251.74693993598098,[],"[481, 301]",ColorTask,56.0,12.0,,,HRV,HRV_0273,2022-11-30 20:33:46
,wl-rdm,140,484249,0.0-8.12-0.12,1.0,130.0,,,,,,,[],,,,,,53.2,1.0,i,1.0,True,1805.0,109.0,60.0,40.0,False,,303.9266231320797,[],"[481, 301]",ColorTask,57.0,13.0,,,HRV,HRV_0273,2022-11-30 20:33:46
,wl-rdm,141,486467,0.0-8.13-0.13,1.0,131.0,,,,,,,[],,,,,,50.0,1.0,i,1.0,True,910.7999999970198,55.0,60.0,40.0,False,,208.36275303709886,[],"[481, 301]",ColorTask,58.0,14.0,,,HRV,HRV_0273,2022-11-30 20:33:46
,wl-rdm,142,488803,0.0-8.14-0.14,1.0,132.0,,,,,,,[],,,,,,56.4,0.0,u,0.0,True,909.2999999970198,55.0,60.0,40.0,False,,331.93603832558483,[],"[481, 301]",ColorTask,59.0,15.0,,,HRV,HRV_0273,2022-11-30 20:33:46
,wl-rdm,143,491322,0.0-8.15-0.15,1.0,133.0,,,,,,,[],,,,,,53.2,0.0,i,1.0,False,1081.5,65.0,60.0,40.0,False,,349.06893447942844,[],"[481, 301]",ColorTask,58.0,16.0,,,HRV,HRV_0273,2022-11-30 20:33:46
,wl-rdm,144,494575,0.0-8.16-0.16,1.0,134.0,,,,,,,[],,,,,,56.4,0.0,u,0.0,True,1844.199999988079,111.0,60.0,40.0,False,,301.15468652663196,[],"[481, 301]",ColorTask,59.0,17.0,,,HRV,HRV_0273,2022-11-30 20:33:46
,wl-rdm,145,497211,0.0-8.17-0.17,1.0,135.0,,,,,,,[],,,,,,73.6,1.0,i,1.0,True,1363.7000000029802,82.0,60.0,40.0,False,,200.02639800535823,[],"[481, 301]",ColorTask,60.0,18.0,,,HRV,HRV_0273,2022-11-30 20:33:46
,wl-rdm,146,499463,0.0-8.18-0.18,1.0,136.0,,,,,,,[],,,,,,53.2,0.0,i,1.0,False,913.1999999880791,55.0,60.0,40.0,False,,270.4830087988092,[],"[481, 301]",ColorTask,59.0,19.0,,,HRV,HRV_0273,2022-11-30 20:33:46
,wl-rdm,147,502032,0.0-8.19-0.19,1.0,137.0,,,,,,,[],,,,,,87.9,0.0,u,0.0,True,1178.6000000089407,71.0,60.0,40.0,False,,306.6914434856858,[],"[481, 301]",ColorTask,60.0,20.0,,,HRV,HRV_0273,2022-11-30 20:33:46
,wl-rdm,148,505171,0.0-8.20-0.20,1.0,138.0,,,,,,,[],,,,,,56.4,1.0,i,1.0,True,1713.7000000178814,103.0,60.0,40.0,False,,343.2261899623584,[],"[481, 301]",ColorTask,61.0,21.0,,,HRV,HRV_0273,2022-11-30 20:33:46
,wl-rdm,149,508221,0.0-8.21-0.21,1.0,139.0,,,,,,,[],,,,,,87.9,1.0,i,1.0,True,1681.2999999970198,101.0,60.0,40.0,False,,283.07280925054187,[],"[481, 301]",ColorTask,62.0,22.0,,,HRV,HRV_0273,2022-11-30 20:33:46
,wl-rdm,150,511523,0.0-8.22-0.22,1.0,140.0,,,,,,,[],,,,,,50.0,1.0,i,1.0,True,1879.7000000029802,113.0,60.0,40.0,False,,336.2692194838853,[],"[481, 301]",ColorTask,63.0,23.0,,,HRV,HRV_0273,2022-11-30 20:33:46
,wl-rdm,151,514309,0.0-8.23-0.23,1.0,141.0,,,,,,,[],,,,,,56.4,1.0,u,0.0,False,1309.7999999821186,79.0,60.0,40.0,False,,366.60468523269657,[],"[481, 301]",ColorTask,62.0,24.0,,,HRV,HRV_0273,2022-11-30 20:33:46
,wl-rdm,152,517563,0.0-8.24-0.24,1.0,142.0,,,,,,,[],,,,,,62.5,1.0,u,0.0,False,1894.2999999970198,114.0,60.0,40.0,False,,265.43489286476745,[],"[481, 301]",ColorTask,61.0,25.0,,,HRV,HRV_0273,2022-11-30 20:33:46
,wl-rdm,153,520448,0.0-8.25-0.25,1.0,143.0,,,,,,,[],,,,,,62.5,0.0,u,0.0,True,1562.0999999940395,94.0,60.0,40.0,False,,246.54915503699675,[],"[481, 301]",ColorTask,62.0,26.0,,,HRV,HRV_0273,2022-11-30 20:33:46
,wl-rdm,154,522717,0.0-8.26-0.26,1.0,144.0,,,,,,,[],,,,,,62.5,1.0,i,1.0,True,975.3999999910593,59.0,60.0,40.0,False,,201.69154600494502,[],"[481, 301]",ColorTask,63.0,27.0,,,HRV,HRV_0273,2022-11-30 20:33:46
,wl-rdm,155,524902,0.0-8.27-0.27,1.0,145.0,,,,,,,[],,,,,,62.5,1.0,i,1.0,True,780.3999999910593,47.0,60.0,40.0,False,,304.54019950397725,[],"[481, 301]",ColorTask,64.0,28.0,,,HRV,HRV_0273,2022-11-30 20:33:46
,wl-rdm,156,527488,0.0-8.28-0.28,1.0,146.0,,,,,,,[],,,,,,53.2,1.0,i,1.0,True,1180.7000000029802,71.0,60.0,40.0,False,,306.8342363576128,[],"[481, 301]",ColorTask,65.0,29.0,,,HRV,HRV_0273,2022-11-30 20:33:46
,wl-rdm,157,530625,0.0-8.29-0.29,1.0,147.0,,,,,,,[],,,,,,50.0,0.0,i,1.0,False,1694.2999999970198,102.0,60.0,40.0,False,,344.79200060763003,[],"[481, 301]",ColorTask,64.0,30.0,,,HRV,HRV_0273,2022-11-30 20:33:46
,wl-rdm,158,533025,0.0-8.30-0.30,1.0,148.0,,,,,,,[],,,,,,56.4,0.0,u,0.0,True,1042.300000011921,63.0,60.0,40.0,False,,238.16625798497623,[],"[481, 301]",ColorTask,65.0,31.0,,,HRV,HRV_0273,2022-11-30 20:33:46
,wl-rdm,159,535933,0.0-8.31-0.31,1.0,149.0,,,,,,,[],,,,,,73.6,1.0,i,1.0,True,1549.5,93.0,60.0,40.0,False,,251.15859259072232,[],"[481, 301]",ColorTask,66.0,32.0,,,HRV,HRV_0273,2022-11-30 20:33:46
,wl-rdm,160,538886,0.0-8.32-0.32,1.0,150.0,,,,,,,[],,,,,,62.5,0.0,u,0.0,True,1555.9000000059605,94.0,60.0,40.0,False,,327.7827298779815,[],"[481, 301]",ColorTask,67.0,33.0,,,HRV,HRV_0273,2022-11-30 20:33:46
,wl-rdm,161,542184,0.0-8.33-0.33,1.0,151.0,,,,,,,[],,,,,,73.6,0.0,u,0.0,True,1855.2000000178814,111.0,60.0,40.0,False,,360.10926811694605,[],"[481, 301]",ColorTask,68.0,34.0,,,HRV,HRV_0273,2022-11-30 20:33:46
,wl-rdm,162,545236,0.0-8.34-0.34,1.0,152.0,,,,,,,[],,,,,,50.0,0.0,i,1.0,False,1674.5,101.0,60.0,40.0,False,,281.71919626150293,[],"[481, 301]",ColorTask,67.0,35.0,,,HRV,HRV_0273,2022-11-30 20:33:46
,wl-rdm,163,547939,0.0-8.35-0.35,1.0,153.0,,,,,,,[],,,,,,87.9,1.0,i,1.0,True,1255.0000000149012,76.0,60.0,40.0,False,,352.6331826015713,[],"[481, 301]",ColorTask,68.0,36.0,,,HRV,HRV_0273,2022-11-30 20:33:46
,wl-rdm,164,550608,0.0-8.36-0.36,1.0,154.0,,,,,,,[],,,,,,50.0,1.0,u,0.0,False,1294.9999999850988,78.0,60.0,40.0,False,,281.3544829381683,[],"[481, 301]",ColorTask,67.0,37.0,,,HRV,HRV_0273,2022-11-30 20:33:46
,wl-rdm,165,553443,0.0-8.37-0.37,1.0,155.0,,,,,,,[],,,,,,50.0,0.0,u,0.0,True,1389.7000000029802,84.0,60.0,40.0,False,,325.61655825743355,[],"[481, 301]",ColorTask,68.0,38.0,,,HRV,HRV_0273,2022-11-30 20:33:46
,wl-rdm,166,555980,0.0-8.38-0.38,1.0,156.0,,,,,,,[],,,,,,62.5,0.0,u,0.0,True,1209.9999999850988,73.0,60.0,40.0,False,,235.6043952906249,[],"[481, 301]",ColorTask,69.0,39.0,,,HRV,HRV_0273,2022-11-30 20:33:46
,wl-rdm,167,559100,0.0-8.39-0.39,1.0,157.0,,,,,,,[],,,,,,56.4,1.0,u,0.0,False,1672.2999999970198,101.0,60.0,40.0,False,,362.76458945742183,[],"[481, 301]",ColorTask,68.0,40.0,,,HRV,HRV_0273,2022-11-30 20:33:46
,wl-rdm,168,561618,0.0-8.40-0.40,1.0,158.0,,,,,,,[],,,,,,73.6,1.0,u,0.0,False,1227.5,74.0,60.0,40.0,False,,226.1071858705607,[],"[481, 301]",ColorTask,67.0,41.0,,,HRV,HRV_0273,2022-11-30 20:33:46
,wl-rdm,169,564253,0.0-8.41-0.41,1.0,159.0,,,,,,,[],,,,,,62.5,0.0,i,1.0,False,1284.5999999791384,77.0,60.0,40.0,False,,253.0630951583839,[],"[481, 301]",ColorTask,66.0,42.0,,,HRV,HRV_0273,2022-11-30 20:33:46
,wl-rdm,170,567423,0.0-8.42-0.42,1.0,160.0,,,,,,,[],,,,,,73.6,0.0,u,0.0,True,1781.699999988079,107.0,60.0,40.0,False,,286.2494779820969,[],"[481, 301]",ColorTask,67.0,43.0,,,HRV,HRV_0273,2022-11-30 20:33:46
,wl-rdm,171,571310,0.0-8.43-0.43,1.0,161.0,,,,,,,[],,,,,,50.0,0.0,i,1.0,False,2541.2000000029802,153.0,60.0,40.0,False,,265.47723337437196,[],"[481, 301]",ColorTask,66.0,44.0,,,HRV,HRV_0273,2022-11-30 20:33:46
,wl-rdm,172,573944,0.0-8.44-0.44,1.0,162.0,,,,,,,[],,,,,,53.2,0.0,u,0.0,True,1282.9000000059605,77.0,60.0,40.0,False,,239.4735623685129,[],"[481, 301]",ColorTask,67.0,45.0,,,HRV,HRV_0273,2022-11-30 20:33:46
,wl-rdm,173,577865,0.0-8.45-0.45,1.0,163.0,,,,,,,[],,,,,,50.0,0.0,i,1.0,False,2471.0999999940395,149.0,60.0,40.0,False,,367.8951161932182,[],"[481, 301]",ColorTask,66.0,46.0,,,HRV,HRV_0273,2022-11-30 20:33:46
,wl-rdm,174,580183,0.0-8.46-0.46,1.0,164.0,,,,,,,[],,,,,,62.5,0.0,u,0.0,True,984.2999999970198,59.0,60.0,40.0,False,,257.3445124226404,[],"[481, 301]",ColorTask,67.0,47.0,,,HRV,HRV_0273,2022-11-30 20:33:46
,wl-rdm,175,582602,0.0-8.47-0.47,1.0,165.0,,,,,,,[],,,,,,87.9,0.0,u,0.0,True,1061.9000000059605,64.0,60.0,40.0,False,,273.3434545675242,[],"[481, 301]",ColorTask,68.0,48.0,,,HRV,HRV_0273,2022-11-30 20:33:46
,wl-rdm,176,585188,0.0-8.48-0.48,1.0,166.0,,,,,,,[],,,,,,62.5,1.0,i,1.0,True,1295.2999999970198,78.0,60.0,40.0,False,,226.32550345793348,[],"[481, 301]",ColorTask,69.0,49.0,,,HRV,HRV_0273,2022-11-30 20:33:46
,wl-rdm,177,587657,0.0-8.49-0.49,1.0,167.0,,,,,,,[],,,,,,87.9,0.0,u,0.0,True,1145.5000000149012,69.0,60.0,40.0,False,,221.48085194350782,[],"[481, 301]",ColorTask,70.0,50.0,,,HRV,HRV_0273,2022-11-30 20:33:46
,wl-rdm,178,590193,0.0-8.50-0.50,1.0,168.0,,,,,,,[],,,,,,87.9,1.0,i,1.0,True,1161.0999999940395,70.0,60.0,40.0,False,,279.75096408395984,[],"[481, 301]",ColorTask,71.0,51.0,,,HRV,HRV_0273,2022-11-30 20:33:46
,wl-rdm,179,593214,0.0-8.51-0.51,1.0,169.0,,,,,,,[],,,,,,53.2,0.0,u,0.0,True,1625.2999999970198,98.0,60.0,40.0,False,,283.63451434638506,[],"[481, 301]",ColorTask,72.0,52.0,,,HRV,HRV_0273,2022-11-30 20:33:46
,wl-rdm,180,595230,0.0-8.52-0.52,1.0,170.0,,,,,,,[],,,,,,87.9,0.0,u,0.0,True,707.5999999940395,43.0,60.0,40.0,False,,205.4365050891703,[],"[481, 301]",ColorTask,73.0,53.0,,,HRV,HRV_0273,2022-11-30 20:33:46
,wl-rdm,181,597917,0.0-8.53-0.53,1.0,171.0,,,,,,,[],,,,,,87.9,0.0,u,0.0,True,1373.7999999970198,83.0,60.0,40.0,False,,211.6467632894384,[],"[481, 301]",ColorTask,74.0,54.0,,,HRV,HRV_0273,2022-11-30 20:33:46
,wl-rdm,182,600685,0.0-8.54-0.54,1.0,172.0,,,,,,,[],,,,,,62.5,1.0,u,0.0,False,1331.0,80.0,60.0,40.0,False,,367.67523011532353,[],"[481, 301]",ColorTask,73.0,55.0,,,HRV,HRV_0273,2022-11-30 20:33:46
,wl-rdm,183,604054,0.0-8.55-0.55,1.0,173.0,,,,,,,[],,,,,,56.4,0.0,i,1.0,False,1998.5000000149012,120.0,60.0,40.0,False,,305.29684196100567,[],"[481, 301]",ColorTask,72.0,56.0,,,HRV,HRV_0273,2022-11-30 20:33:46
,wl-rdm,184,606959,0.0-8.56-0.56,1.0,174.0,,,,,,,[],,,,,,50.0,0.0,u,0.0,True,1495.9000000059605,90.0,60.0,40.0,False,,329.66134835231094,[],"[481, 301]",ColorTask,73.0,57.0,,,HRV,HRV_0273,2022-11-30 20:33:46
,wl-rdm,185,610462,0.0-8.57-0.57,1.0,175.0,,,,,,,[],,,,,,53.2,0.0,u,0.0,True,2076.0999999940395,125.0,60.0,40.0,False,,319.5686238614349,[],"[481, 301]",ColorTask,74.0,58.0,,,HRV,HRV_0273,2022-11-30 20:33:46
,wl-rdm,186,613112,0.0-8.58-0.58,1.0,176.0,,,,,,,[],,,,,,53.2,1.0,i,1.0,True,1324.800000011921,80.0,60.0,40.0,False,,217.22307974601733,[],"[481, 301]",ColorTask,75.0,59.0,,,HRV,HRV_0273,2022-11-30 20:33:46
,wl-rdm,187,614213,0.0-8.59-0.59,1.0,176.0,,,,,,,[],,,,,,53.2,1.0,i,,,429.20000000298023,0.0,60.0,40.0,True,too_early ,244.55992353135852,[],"[481, 301]",ColorTask,74.0,60.0,,,HRV,HRV_0273,2022-11-30 20:33:46
,wl-rdm,188,616767,0.0-8.60-0.60,1.0,177.0,,,,,,,[],,,,,,62.5,1.0,i,1.0,True,1237.6000000089407,75.0,60.0,40.0,False,,233.84654357371392,[],"[481, 301]",ColorTask,75.0,61.0,,,HRV,HRV_0273,2022-11-30 20:33:46
,wl-rdm,189,619337,0.0-8.61-0.61,1.0,178.0,,,,,,,[],,,,,,87.9,0.0,u,0.0,True,1261.5999999940395,76.0,60.0,40.0,False,,247.60280270476835,[],"[481, 301]",ColorTask,76.0,62.0,,,HRV,HRV_0273,2022-11-30 20:33:46
,wl-rdm,190,621937,0.0-8.62-0.62,1.0,179.0,,,,,,,[],,,,,,62.5,0.0,u,0.0,True,1328.800000011921,79.0,60.0,40.0,False,,213.6276571085083,[],"[481, 301]",ColorTask,77.0,63.0,,,HRV,HRV_0273,2022-11-30 20:33:46
,wl-rdm,191,625675,0.0-8.63-0.63,1.0,180.0,,,,,,,[],,,,,,50.0,1.0,i,1.0,True,2340.3999999910593,141.0,60.0,40.0,False,,304.2660237830047,[],"[481, 301]",ColorTask,78.0,64.0,,,HRV,HRV_0273,2022-11-30 20:33:46
,wl-rdm,192,629043,0.0-8.64-0.64,1.0,181.0,,,,,,,[],,,,,,62.5,0.0,u,0.0,True,1973.2999999970198,119.0,60.0,40.0,False,,289.07305224361244,[],"[481, 301]",ColorTask,79.0,65.0,,,HRV,HRV_0273,2022-11-30 20:33:46
,wl-rdm,193,631647,0.0-8.65-0.65,1.0,182.0,,,,,,,[],,,,,,73.6,0.0,u,0.0,True,1276.5,77.0,60.0,40.0,False,,218.16504005727396,[],"[481, 301]",ColorTask,80.0,66.0,,,HRV,HRV_0273,2022-11-30 20:33:46
,wl-rdm,194,634966,0.0-8.66-0.66,1.0,183.0,,,,,,,[],,,,,,73.6,0.0,u,0.0,True,1977.0,119.0,60.0,40.0,False,,245.27956457406856,[],"[481, 301]",ColorTask,81.0,67.0,,,HRV,HRV_0273,2022-11-30 20:33:46
,wl-rdm,195,637400,0.0-8.67-0.67,1.0,184.0,,,,,,,[],,,,,,87.9,1.0,i,1.0,True,1046.5999999940395,63.0,60.0,40.0,False,,295.36689537631145,[],"[481, 301]",ColorTask,82.0,68.0,,,HRV,HRV_0273,2022-11-30 20:33:46
,wl-rdm,196,639885,0.0-8.68-0.68,1.0,185.0,,,,,,,[],,,,,,56.4,1.0,i,1.0,True,1076.5,65.0,60.0,40.0,False,,346.5784215731406,[],"[481, 301]",ColorTask,83.0,69.0,,,HRV,HRV_0273,2022-11-30 20:33:46
,wl-rdm,197,642304,0.0-8.69-0.69,1.0,186.0,,,,,,,[],,,,,,62.5,0.0,u,0.0,True,976.1999999880791,59.0,60.0,40.0,False,,375.39665905498214,[],"[481, 301]",ColorTask,84.0,70.0,,,HRV,HRV_0273,2022-11-30 20:33:46
,wl-rdm,198,644624,0.0-8.70-0.70,1.0,187.0,,,,,,,[],,,,,,50.0,0.0,u,0.0,True,940.2999999970198,57.0,60.0,40.0,False,,290.62788565811667,[],"[481, 301]",ColorTask,85.0,71.0,,,HRV,HRV_0273,2022-11-30 20:33:46
,wl-rdm,199,647626,0.0-8.71-0.71,1.0,188.0,,,,,,,[],,,,,,50.0,1.0,i,1.0,True,1679.4000000059605,101.0,60.0,40.0,False,,223.18213821032379,[],"[481, 301]",ColorTask,86.0,72.0,,,HRV,HRV_0273,2022-11-30 20:33:46
,wl-rdm,200,649727,0.0-8.72-0.72,1.0,189.0,,,,,,,[],,,,,,87.9,1.0,i,1.0,True,706.7000000178814,43.0,60.0,40.0,False,,303.90687331557615,[],"[481, 301]",ColorTask,87.0,73.0,,,HRV,HRV_0273,2022-11-30 20:33:46
,wl-rdm,201,651897,0.0-8.73-0.73,1.0,190.0,,,,,,,[],,,,,,87.9,1.0,i,1.0,True,845.6000000089407,51.0,60.0,40.0,False,,226.83218305573462,[],"[481, 301]",ColorTask,88.0,74.0,,,HRV,HRV_0273,2022-11-30 20:33:46
,wl-rdm,202,654149,0.0-8.74-0.74,1.0,191.0,,,,,,,[],,,,,,73.6,1.0,i,1.0,True,947.3999999910593,57.0,60.0,40.0,False,,212.18859705673646,[],"[481, 301]",ColorTask,89.0,75.0,,,HRV,HRV_0273,2022-11-30 20:33:46
,wl-rdm,203,656350,0.0-8.75-0.75,1.0,192.0,,,,,,,[],,,,,,50.0,0.0,i,1.0,False,826.4000000208616,50.0,60.0,40.0,False,,313.7469769789486,[],"[481, 301]",ColorTask,88.0,76.0,,,HRV,HRV_0273,2022-11-30 20:33:46
,wl-rdm,204,658786,0.0-8.76-0.76,1.0,193.0,,,,,,,[],,,,,,50.0,1.0,u,0.0,False,979.5999999940395,59.0,60.0,40.0,False,,386.8212047426962,[],"[481, 301]",ColorTask,87.0,77.0,,,HRV,HRV_0273,2022-11-30 20:33:46
,wl-rdm,205,662456,0.0-8.77-0.77,1.0,194.0,,,,,,,[],,,,,,50.0,1.0,u,0.0,False,2217.9000000059605,133.0,60.0,40.0,False,,344.50612768087666,[],"[481, 301]",ColorTask,86.0,78.0,,,HRV,HRV_0273,2022-11-30 20:33:46
,wl-rdm,206,665542,0.0-8.78-0.78,1.0,195.0,,,,,,,[],,,,,,56.4,1.0,i,1.0,True,1623.3999999910593,98.0,60.0,40.0,False,,359.15018092053026,[],"[481, 301]",ColorTask,87.0,79.0,,,HRV,HRV_0273,2022-11-30 20:33:46
,wl-rdm,207,668227,0.0-8.79-0.79,1.0,196.0,,,,,,,[],,,,,,56.4,0.0,i,1.0,False,1229.0999999940395,74.0,60.0,40.0,False,,371.19273310806796,[],"[481, 301]",ColorTask,86.0,80.0,,,HRV,HRV_0273,2022-11-30 20:33:46
,wl-rdm,208,671314,0.0-8.80-0.80,1.0,197.0,,,,,,,[],,,,,,73.6,1.0,i,1.0,True,1700.6000000089407,102.0,60.0,40.0,False,,312.569351724365,[],"[481, 301]",ColorTask,87.0,81.0,,,HRV,HRV_0273,2022-11-30 20:33:46
,wl-rdm,209,675071,0.0-8.81-0.81,1.0,198.0,,,,,,,[],,,,,,73.6,0.0,u,0.0,True,2465.9000000059605,148.0,60.0,40.0,False,,216.46825884127367,[],"[481, 301]",ColorTask,88.0,82.0,,,HRV,HRV_0273,2022-11-30 20:33:46
,wl-rdm,210,678370,0.0-8.82-0.82,1.0,199.0,,,,,,,[],,,,,,53.2,1.0,i,1.0,True,1824.4999999850988,110.0,60.0,40.0,False,,388.48142977066925,[],"[481, 301]",ColorTask,89.0,83.0,,,HRV,HRV_0273,2022-11-30 20:33:46
,wl-rdm,211,681923,0.0-8.83-0.83,1.0,200.0,,,,,,,[],,,,,,53.2,0.0,u,0.0,True,2209.7999999970198,133.0,60.0,40.0,False,,275.44923977940726,[],"[481, 301]",ColorTask,90.0,84.0,,,HRV,HRV_0273,2022-11-30 20:33:46
,wl-rdm,212,684658,0.0-8.84-0.84,1.0,201.0,,,,,,,[],,,,,,56.4,0.0,u,0.0,True,1361.3999999910593,82.0,60.0,40.0,False,,285.4798260594895,[],"[481, 301]",ColorTask,91.0,85.0,,,HRV,HRV_0273,2022-11-30 20:33:46
,wl-rdm,213,687210,0.0-8.85-0.85,1.0,202.0,,,,,,,[],,,,,,73.6,0.0,u,0.0,True,1157.2999999970198,70.0,60.0,40.0,False,,310.26900853730706,[],"[481, 301]",ColorTask,92.0,86.0,,,HRV,HRV_0273,2022-11-30 20:33:46
,wl-rdm,214,689463,0.0-8.86-0.86,1.0,203.0,,,,,,,[],,,,,,73.6,0.0,u,0.0,True,888.1999999880791,54.0,60.0,40.0,False,,273.1213707926928,[],"[481, 301]",ColorTask,93.0,87.0,,,HRV,HRV_0273,2022-11-30 20:33:46
,wl-rdm,215,691582,0.0-8.87-0.87,1.0,204.0,,,,,,,[],,,,,,87.9,0.0,u,0.0,True,794.9000000059605,48.0,60.0,40.0,False,,248.4143617322377,[],"[481, 301]",ColorTask,94.0,88.0,,,HRV,HRV_0273,2022-11-30 20:33:46
,wl-rdm,216,694201,0.0-8.88-0.88,1.0,205.0,,,,,,,[],,,,,,87.9,1.0,i,1.0,True,1260.7000000029802,76.0,60.0,40.0,False,,265.33167655558486,[],"[481, 301]",ColorTask,95.0,89.0,,,HRV,HRV_0273,2022-11-30 20:33:46
,wl-rdm,217,696938,0.0-8.89-0.89,1.0,206.0,,,,,,,[],,,,,,87.9,0.0,u,0.0,True,1314.9000000059605,79.0,60.0,40.0,False,,303.1275016724117,[],"[481, 301]",ColorTask,96.0,90.0,,,HRV,HRV_0273,2022-11-30 20:33:46
,wl-rdm,218,699506,0.0-8.90-0.90,1.0,207.0,,,,,,,[],,,,,,87.9,1.0,i,1.0,True,1128.6000000089407,68.0,60.0,40.0,False,,351.98605801963186,[],"[481, 301]",ColorTask,97.0,91.0,,,HRV,HRV_0273,2022-11-30 20:33:46
,wl-rdm,219,701973,0.0-8.91-0.91,1.0,208.0,,,,,,,[],,,,,,56.4,1.0,i,1.0,True,1076.0000000149012,64.0,60.0,40.0,False,,328.5248510463447,[],"[481, 301]",ColorTask,98.0,92.0,,,HRV,HRV_0273,2022-11-30 20:33:46
,wl-rdm,220,704577,0.0-8.92-0.92,1.0,209.0,,,,,,,[],,,,,,56.4,1.0,i,1.0,True,1259.7000000029802,76.0,60.0,40.0,False,,254.29634385243253,[],"[481, 301]",ColorTask,99.0,93.0,,,HRV,HRV_0273,2022-11-30 20:33:46
,wl-rdm,221,706780,0.0-8.93-0.93,1.0,210.0,,,,,,,[],,,,,,50.0,1.0,i,1.0,True,898.6000000089407,54.0,60.0,40.0,False,,205.69029817546132,[],"[481, 301]",ColorTask,100.0,94.0,,,HRV,HRV_0273,2022-11-30 20:33:46
,wl-rdm,222,708963,0.0-8.94-0.94,1.0,211.0,,,,,,,[],,,,,,73.6,1.0,i,1.0,True,881.5,53.0,60.0,40.0,False,,212.19801628964922,[],"[481, 301]",ColorTask,101.0,95.0,,,HRV,HRV_0273,2022-11-30 20:33:46
,wl-rdm,223,711565,0.0-8.95-0.95,1.0,212.0,,,,,,,[],,,,,,56.4,1.0,i,1.0,True,1295.2999999970198,78.0,60.0,40.0,False,,224.92109873692718,[],"[481, 301]",ColorTask,102.0,96.0,,,HRV,HRV_0273,2022-11-30 20:33:46
,wl-rdm,224,713818,0.0-8.96-0.96,1.0,213.0,,,,,,,[],,,,,,87.9,1.0,i,1.0,True,930.6000000089407,56.0,60.0,40.0,False,,237.71017197228787,[],"[481, 301]",ColorTask,103.0,97.0,,,HRV,HRV_0273,2022-11-30 20:33:46
,wl-rdm,225,716037,0.0-8.97-0.97,1.0,214.0,,,,,,,[],,,,,,73.6,1.0,i,1.0,True,848.2000000178814,51.0,60.0,40.0,False,,288.6993440240668,[],"[481, 301]",ColorTask,104.0,98.0,,,HRV,HRV_0273,2022-11-30 20:33:46
,wl-rdm,226,718673,0.0-8.98-0.98,1.0,215.0,,,,,,,[],,,,,,53.2,0.0,i,1.0,False,1341.5000000149012,80.0,60.0,40.0,False,,213.74147354364024,[],"[481, 301]",ColorTask,103.0,99.0,,,HRV,HRV_0273,2022-11-30 20:33:46
,wl-rdm,227,721507,0.0-8.99-0.99,1.0,216.0,,,,,,,[],,,,,,56.4,0.0,i,1.0,False,1458.0,88.0,60.0,40.0,False,,272.2995034577589,[],"[481, 301]",ColorTask,102.0,100.0,,,HRV,HRV_0273,2022-11-30 20:33:46
,wl-rdm,228,724043,0.0-8.100-0.100,1.0,217.0,,,,,,,[],,,,,,53.2,1.0,i,1.0,True,1144.7000000029802,69.0,60.0,40.0,False,,307.30093573318294,[],"[481, 301]",ColorTask,103.0,101.0,,,HRV,HRV_0273,2022-11-30 20:33:46
,wl-rdm,229,726662,0.0-8.101-0.101,1.0,218.0,,,,,,,[],,,,,,73.6,1.0,i,1.0,True,1206.6000000089407,73.0,60.0,40.0,False,,317.05441030303655,[],"[481, 301]",ColorTask,104.0,102.0,,,HRV,HRV_0273,2022-11-30 20:33:46
,wl-rdm,230,729531,0.0-8.102-0.102,1.0,219.0,,,,,,,[],,,,,,56.4,0.0,u,0.0,True,1508.7999999970198,91.0,60.0,40.0,False,,253.44018289278608,[],"[481, 301]",ColorTask,105.0,103.0,,,HRV,HRV_0273,2022-11-30 20:33:46
,wl-rdm,231,732201,0.0-8.103-0.103,1.0,220.0,,,,,,,[],,,,,,73.6,0.0,u,0.0,True,1349.800000011921,81.0,60.0,40.0,False,,225.96561879916987,[],"[481, 301]",ColorTask,106.0,104.0,,,HRV,HRV_0273,2022-11-30 20:33:46
,wl-rdm,232,735037,0.0-8.104-0.104,1.0,221.0,,,,,,,[],,,,,,53.2,1.0,i,1.0,True,1465.2999999970198,88.0,60.0,40.0,False,,310.89272711725494,[],"[481, 301]",ColorTask,107.0,105.0,,,HRV,HRV_0273,2022-11-30 20:33:46
,wl-rdm,233,737539,0.0-8.105-0.105,1.0,222.0,,,,,,,[],,,,,,53.2,0.0,u,0.0,True,1234.7999999970198,74.0,60.0,40.0,False,,211.43833394556145,[],"[481, 301]",ColorTask,108.0,106.0,,,HRV,HRV_0273,2022-11-30 20:33:46
,wl-rdm,234,740258,0.0-8.106-0.106,1.0,223.0,,,,,,,[],,,,,,53.2,1.0,i,1.0,True,1379.300000011921,83.0,60.0,40.0,False,,262.6893923634371,[],"[481, 301]",ColorTask,109.0,107.0,,,HRV,HRV_0273,2022-11-30 20:33:46
,wl-rdm,235,742961,0.0-8.107-0.107,1.0,224.0,,,,,,,[],,,,,,53.2,1.0,i,1.0,True,1353.2999999970198,82.0,60.0,40.0,False,,249.8568702795924,[],"[481, 301]",ColorTask,110.0,108.0,,,HRV,HRV_0273,2022-11-30 20:33:46
,wl-rdm,236,745645,0.0-8.108-0.108,1.0,225.0,,,,,,,[],,,,,,50.0,0.0,u,0.0,True,1273.4999999850988,77.0,60.0,40.0,False,,295.60512310491856,[],"[481, 301]",ColorTask,111.0,109.0,,,HRV,HRV_0273,2022-11-30 20:33:46
,wl-html-button-response,237,751053,0.0-9.0-0.0,,,,,,,,,,5392.79999999702,,0,,,,,,,,,,,,,,,,,,,,<h3>End of this session. Thank you!</h3><br>,['Close window'],HRV,HRV_0273,2022-11-30 20:33:46
