success,trial_type,trial_index,time_elapsed,internal_node_id,Block,TrialNumber,TrialTime,trialTimeDiff,FPS_avg,FPS_med,FPS_mode,TrialDur,winResizeTime,rt,block,button_pressed,MotCoh,MotDir,ColCoh,Color,ChoiceKey,Choice,Accuracy,RT,nFrames,FPS,PPD,missTrial,missTrialMsg,onsetDelay,fullScreenExitTime,canvCenter,TrialType,Score,BlockTrial,stimulus,button_labels,exp,subjectId,date
True,fullscreen,0,2278,0.0-0.0,0.0,1.0,,,,,,,,,,,,,,,,,,,,,,,,,,,,,,,,HRV,HRV_0219,2022-11-30 19:09:56
,wl-check-fps,1,7284,0.0-1.0,0.0,2.0,"[2689, 2704.4, 2721.2, 2738, 2754.5, 2771.3, 2787.9, 2804.9, 2821.3, 2838.2, 2855.1, 2871.4, 2888.1, 2904.6, 2921.4, 2938.1, 2954.8, 2971.5, 2988.2, 3004.8, 3021.8, 3038.3, 3055, 3071.5, 3088.3, 3104.9, 3121.6, 3138.3, 3155.4, 3171.6, 3188.3, 3205.1, 3221.7, 3238.4, 3255.1, 3271.6, 3288.3, 3305, 3321.7, 3338.3, 3355.1, 3371.7, 3388.4, 3405.1, 3421.8, 3438.5, 3455.3, 3471.8, 3488.6, 3505.3, 3522.1, 3538.5, 3555.2, 3572.1, 3588.6, 3605.4, 3622.2, 3638.6, 3655.3, 3672.1, 3688.7, 3705.4, 3722.2, 3738.9, 3755.4, 3772.2, 3788.9, 3805.5, 3822.2, 3838.9, 3855.4, 3872.2, 3889, 3905.6, 3922.3, 3939.1, 3955.6, 3972.4, 3989, 4005.7, 4022.5, 4039.1, 4055.8, 4072.4, 4089.1, 4105.8, 4122.4, 4139.1, 4155.8, 4172.5, 4189.2, 4206.1, 4222.6, 4239.2, 4256, 4272.6, 4289.4, 4306.1, 4322.6, 4339.3, 4356.1, 4372.7, 4389.3, 4406.1, 4422.7, 4439.4, 4456.2, 4472.8, 4489.5, 4506.2, 4522.9, 4539.5, 4556.2, 4573.1, 4589.6, 4606.5, 4623.1, 4639.6, 4656.3, 4673, 4689.6, 4706.4, 4723.1, 4739.8, 4756.6, 4773.2, 4789.8, 4806.6, 4823.2, 4839.8, 4856.5, 4873.2, 4890.1, 4906.6, 4923.2, 4940.1, 4956.6, 4973.3, 4990.1, 5006.6, 5023.6, 5040.1, 5056.7, 5073.4, 5090.2, 5106.8, 5123.5, 5140.2, 5156.8, 5173.5, 5190.2, 5206.8, 5223.6, 5240.2, 5257.1, 5273.6, 5290.2, 5307.1, 5323.6, 5340.3, 5357.1, 5373.7, 5390.4, 5407, 5423.7, 5440.4, 5457.1, 5473.7, 5490.4, 5507.2, 5523.8, 5540.5, 5557.3, 5573.8, 5590.6, 5607.2, 5624.1, 5640.6, 5657.3, 5674.1, 5690.7, 5707.3, 5724.1, 5740.8, 5757.4, 5774.1, 5790.8, 5807.4, 5824.1, 5840.7, 5857.4, 5874.2, 5890.8, 5908.6, 5924.3, 5941.1, 5957.6, 5974.3, 5991.1, 6007.7, 6024.4, 6041.2, 6057.7, 6074.6, 6091.2, 6107.8, 6124.5, 6141.2, 6157.8, 6174.4, 6191.2, 6207.8, 6224.5, 6241.3, 6257.8, 6274.6, 6291.3, 6308.1, 6324.6, 6341.4, 6358.1, 6374.6, 6391.3, 6408.1, 6424.8, 6441.5, 6458.1, 6474.8, 6491.4, 6508.1, 6524.8, 6541.5, 6558.2, 6574.8, 6591.5, 6608.3, 6625.2, 6641.7, 6658.3, 6675.1, 6691.6, 6708.4, 6725.2, 6741.7, 6758.4, 6775.2, 6791.8, 6808.5, 6825.1, 6841.8, 6858.5, 6875.2, 6891.9, 6908.6, 6925.2, 6941.9, 6958.6, 6975.3, 6992, 7008.7, 7025.3, 7042, 7058.7, 7075.4, 7092, 7108.8, 7125.4, 7142.1, 7158.8, 7175.4, 7192.1, 7208.8, 7225.5, 7242.2, 7258.8, 7275.5, 7292.2, 7308.9, 7325.6, 7342.3, 7359.2, 7375.7, 7392.4, 7409.2, 7425.6, 7442.3, 7459.2, 7475.8, 7492.4, 7509.2, 7525.7, 7542.6, 7559.1, 7575.8, 7592.5, 7609.2, 7625.9, 7642.6, 7659.3, 7676.1]","[0.8, 15.4, 16.8, 16.8, 16.5, 16.8, 16.6, 17, 16.4, 16.9, 16.9, 16.3, 16.7, 16.5, 16.8, 16.7, 16.7, 16.7, 16.7, 16.6, 17, 16.5, 16.7, 16.5, 16.8, 16.6, 16.7, 16.7, 17.1, 16.2, 16.7, 16.8, 16.6, 16.7, 16.7, 16.5, 16.7, 16.7, 16.7, 16.6, 16.8, 16.6, 16.7, 16.7, 16.7, 16.7, 16.8, 16.5, 16.8, 16.7, 16.8, 16.4, 16.7, 16.9, 16.5, 16.8, 16.8, 16.4, 16.7, 16.8, 16.6, 16.7, 16.8, 16.7, 16.5, 16.8, 16.7, 16.6, 16.7, 16.7, 16.5, 16.8, 16.8, 16.6, 16.7, 16.8, 16.5, 16.8, 16.6, 16.7, 16.8, 16.6, 16.7, 16.6, 16.7, 16.7, 16.6, 16.7, 16.7, 16.7, 16.7, 16.9, 16.5, 16.6, 16.8, 16.6, 16.8, 16.7, 16.5, 16.7, 16.8, 16.6, 16.6, 16.8, 16.6, 16.7, 16.8, 16.6, 16.7, 16.7, 16.7, 16.6, 16.7, 16.9, 16.5, 16.9, 16.6, 16.5, 16.7, 16.7, 16.6, 16.8, 16.7, 16.7, 16.8, 16.6, 16.6, 16.8, 16.6, 16.6, 16.7, 16.7, 16.9, 16.5, 16.6, 16.9, 16.5, 16.7, 16.8, 16.5, 17, 16.5, 16.6, 16.7, 16.8, 16.6, 16.7, 16.7, 16.6, 16.7, 16.7, 16.6, 16.8, 16.6, 16.9, 16.5, 16.6, 16.9, 16.5, 16.7, 16.8, 16.6, 16.7, 16.6, 16.7, 16.7, 16.7, 16.6, 16.7, 16.8, 16.6, 16.7, 16.8, 16.5, 16.8, 16.6, 16.9, 16.5, 16.7, 16.8, 16.6, 16.6, 16.8, 16.7, 16.6, 16.7, 16.7, 16.6, 16.7, 16.6, 16.7, 16.8, 16.6, 17.8, 15.7, 16.8, 16.5, 16.7, 16.8, 16.6, 16.7, 16.8, 16.5, 16.9, 16.6, 16.6, 16.7, 16.7, 16.6, 16.6, 16.8, 16.6, 16.7, 16.8, 16.5, 16.8, 16.7, 16.8, 16.5, 16.8, 16.7, 16.5, 16.7, 16.8, 16.7, 16.7, 16.6, 16.7, 16.6, 16.7, 16.7, 16.7, 16.7, 16.6, 16.7, 16.8, 16.9, 16.5, 16.6, 16.8, 16.5, 16.8, 16.8, 16.5, 16.7, 16.8, 16.6, 16.7, 16.6, 16.7, 16.7, 16.7, 16.7, 16.7, 16.6, 16.7, 16.7, 16.7, 16.7, 16.7, 16.6, 16.7, 16.7, 16.7, 16.6, 16.8, 16.6, 16.7, 16.7, 16.6, 16.7, 16.7, 16.7, 16.7, 16.6, 16.7, 16.7, 16.7, 16.7, 16.7, 16.9, 16.5, 16.7, 16.8, 16.4, 16.7, 16.9, 16.6, 16.6, 16.8, 16.5, 16.9, 16.5, 16.7, 16.7, 16.7, 16.7, 16.7, 16.7, 16.8]",60.0,60.0,60.0,5004.4,[],,,,,,,,,,,,,,,,,,,,,,,,,HRV,HRV_0219,2022-11-30 19:09:56
,wl-html-keyboard-response,2,18803,0.0-2.0-0.0,0.0,3.0,,,,,,,,9504.299999952316,0.0,0,,,,,,,,,,,,,,,,,,,,,,HRV,HRV_0219,2022-11-30 19:09:56
,wl-rdm,3,27666,0.0-3.0-0.0,0.0,4.0,,,,,,,[],,,,0.0,0.0,87.9,0.0,u,0.0,True,3296.5999999046326,198.0,60.0,40.0,False,,3000.0,[],"[640, 360]",ColorTask_Demo,,,,,HRV,HRV_0219,2022-11-30 19:09:56
,wl-rdm,4,32838,0.0-3.0-1.0,0.0,5.0,,,,,,,[],,,,0.0,0.0,87.9,1.0,i,1.0,True,1105.0,67.0,60.0,40.0,False,,2000.0,[],"[640, 360]",ColorTask_Demo,,,,,HRV,HRV_0219,2022-11-30 19:09:56
,wl-html-keyboard-response,5,37163,0.0-3.0-2.0,0.0,6.0,,,,,,,,2322.4000000953674,0.0,1,,,,,,,,,,,,,,,,,,,,,,HRV,HRV_0219,2022-11-30 19:09:56
,wl-html-keyboard-response,6,45787,0.0-4.0-0.0,0.0,7.0,,,,,,,,6616.5,0.0,0,,,,,,,,,,,,,,,,,,,,,,HRV,HRV_0219,2022-11-30 19:09:56
,wl-html-keyboard-response,7,58707,0.0-5.0-0.0,0.0,8.0,,,,,,,,10913.799999952316,0.0,0,,,,,,,,,,,,,,,,,,,,,,HRV,HRV_0219,2022-11-30 19:09:56
,wl-rdm,8,61817,0.0-6.0-0.0,0.0,9.0,,,,,,,[],,,,,,50.0,1.0,i,1.0,True,1844.7999999523163,111.0,60.0,40.0,False,,200.50687006616704,[],"[640, 360]",ColorTask,1.0,1.0,,,HRV,HRV_0219,2022-11-30 19:09:56
,wl-rdm,9,64202,0.0-6.1-0.1,0.0,10.0,,,,,,,[],,,,,,50.0,0.0,u,0.0,True,975.7000000476837,59.0,60.0,40.0,False,,337.35445848328794,[],"[640, 360]",ColorTask,2.0,2.0,,,HRV,HRV_0219,2022-11-30 19:09:56
,wl-rdm,10,67056,0.0-6.2-0.2,0.0,11.0,,,,,,,[],,,,,,50.0,0.0,i,1.0,False,1488.2999999523163,90.0,60.0,40.0,False,,298.3924581468355,[],"[640, 360]",ColorTask,1.0,3.0,,,HRV,HRV_0219,2022-11-30 19:09:56
,wl-rdm,11,70125,0.0-6.3-0.3,0.0,12.0,,,,,,,[],,,,,,62.5,1.0,u,0.0,False,1785.7000000476837,108.0,60.0,40.0,False,,205.12104092960084,[],"[640, 360]",ColorTask,0.0,4.0,,,HRV,HRV_0219,2022-11-30 19:09:56
,wl-rdm,12,73095,0.0-6.4-0.4,0.0,13.0,,,,,,,[],,,,,,53.2,1.0,u,0.0,False,1622.9000000953674,98.0,60.0,40.0,False,,271.0122300393097,[],"[640, 360]",ColorTask,-1.0,5.0,,,HRV,HRV_0219,2022-11-30 19:09:56
,wl-rdm,13,76698,0.0-6.5-0.5,0.0,14.0,,,,,,,[],,,,,,62.5,0.0,u,0.0,True,2203.5999999046326,133.0,60.0,40.0,False,,322.02924580583624,[],"[640, 360]",ColorTask,0.0,6.0,,,HRV,HRV_0219,2022-11-30 19:09:56
,wl-rdm,14,80635,0.0-6.6-0.6,0.0,15.0,,,,,,,[],,,,,,50.0,1.0,u,0.0,False,2630.2999999523163,158.0,60.0,40.0,False,,240.6180927585805,[],"[640, 360]",ColorTask,-1.0,7.0,,,HRV,HRV_0219,2022-11-30 19:09:56
,wl-rdm,15,83488,0.0-6.7-0.7,0.0,16.0,,,,,,,[],,,,,,53.2,1.0,i,1.0,True,1539.1999998092651,93.0,60.0,40.0,False,,248.72184753904043,[],"[640, 360]",ColorTask,0.0,8.0,,,HRV,HRV_0219,2022-11-30 19:09:56
,wl-rdm,16,86374,0.0-6.8-0.8,0.0,17.0,,,,,,,[],,,,,,62.5,0.0,u,0.0,True,1574.6999998092651,95.0,60.0,40.0,False,,243.58200583036057,[],"[640, 360]",ColorTask,1.0,9.0,,,HRV,HRV_0219,2022-11-30 19:09:56
,wl-rdm,17,89011,0.0-6.9-0.9,0.0,18.0,,,,,,,[],,,,,,73.6,0.0,u,0.0,True,1170.2999999523163,71.0,60.0,40.0,False,,396.70439877766614,[],"[640, 360]",ColorTask,2.0,10.0,,,HRV,HRV_0219,2022-11-30 19:09:56
,wl-rdm,18,91346,0.0-6.10-0.10,0.0,19.0,,,,,,,[],,,,,,53.2,1.0,i,1.0,True,1064.5,64.0,60.0,40.0,False,,216.45490673934756,[],"[640, 360]",ColorTask,3.0,11.0,,,HRV,HRV_0219,2022-11-30 19:09:56
,wl-rdm,19,93949,0.0-6.11-0.11,0.0,20.0,,,,,,,[],,,,,,50.0,1.0,i,1.0,True,1202.0,73.0,60.0,40.0,False,,325.23298678053413,[],"[640, 360]",ColorTask,4.0,12.0,,,HRV,HRV_0219,2022-11-30 19:09:56
,wl-rdm,20,96452,0.0-6.12-0.12,0.0,21.0,,,,,,,[],,,,,,56.4,1.0,i,1.0,True,1136.8999998569489,69.0,60.0,40.0,False,,293.7123389488598,[],"[640, 360]",ColorTask,5.0,13.0,,,HRV,HRV_0219,2022-11-30 19:09:56
,wl-rdm,21,99087,0.0-6.13-0.13,0.0,22.0,,,,,,,[],,,,,,53.2,0.0,i,1.0,False,1299.4000000953674,78.0,60.0,40.0,False,,272.0294155331917,[],"[640, 360]",ColorTask,4.0,14.0,,,HRV,HRV_0219,2022-11-30 19:09:56
,wl-rdm,22,102508,0.0-6.14-0.14,0.0,23.0,,,,,,,[],,,,,,56.4,1.0,u,0.0,False,2145.0999999046326,129.0,60.0,40.0,False,,216.68505379843307,[],"[640, 360]",ColorTask,3.0,15.0,,,HRV,HRV_0219,2022-11-30 19:09:56
,wl-rdm,23,105193,0.0-6.15-0.15,0.0,24.0,,,,,,,[],,,,,,50.0,0.0,i,1.0,False,1264.7000000476837,76.0,60.0,40.0,False,,352.56236149593826,[],"[640, 360]",ColorTask,2.0,16.0,,,HRV,HRV_0219,2022-11-30 19:09:56
,wl-rdm,24,107846,0.0-6.16-0.16,0.0,25.0,,,,,,,[],,,,,,73.6,1.0,i,1.0,True,1252.3999998569489,76.0,60.0,40.0,False,,329.14454788421097,[],"[640, 360]",ColorTask,3.0,17.0,,,HRV,HRV_0219,2022-11-30 19:09:56
,wl-rdm,25,110282,0.0-6.17-0.17,0.0,26.0,,,,,,,[],,,,,,87.9,1.0,i,1.0,True,1140.1000001430511,69.0,60.0,40.0,False,,222.44137923173514,[],"[640, 360]",ColorTask,4.0,18.0,,,HRV,HRV_0219,2022-11-30 19:09:56
,wl-rdm,26,113034,0.0-6.18-0.18,0.0,27.0,,,,,,,[],,,,,,50.0,0.0,i,1.0,False,1475.6000001430511,89.0,60.0,40.0,False,,212.69152370350773,[],"[640, 360]",ColorTask,3.0,19.0,,,HRV,HRV_0219,2022-11-30 19:09:56
,wl-rdm,27,115737,0.0-6.19-0.19,0.0,28.0,,,,,,,[],,,,,,50.0,1.0,i,1.0,True,1341.2000000476837,81.0,60.0,40.0,False,,293.0871839228574,[],"[640, 360]",ColorTask,4.0,20.0,,,HRV,HRV_0219,2022-11-30 19:09:56
,wl-rdm,28,118423,0.0-6.20-0.20,0.0,29.0,,,,,,,[],,,,,,73.6,0.0,u,0.0,True,1226.8000001907349,74.0,60.0,40.0,False,,398.38460597472306,[],"[640, 360]",ColorTask,5.0,21.0,,,HRV,HRV_0219,2022-11-30 19:09:56
,wl-rdm,29,120909,0.0-6.21-0.21,0.0,30.0,,,,,,,[],,,,,,56.4,0.0,i,1.0,False,1166.5,70.0,60.0,40.0,False,,263.2166353622449,[],"[640, 360]",ColorTask,4.0,22.0,,,HRV,HRV_0219,2022-11-30 19:09:56
,wl-rdm,30,123879,0.0-6.22-0.22,0.0,31.0,,,,,,,[],,,,,,56.4,0.0,u,0.0,True,1602.1999998092651,97.0,60.0,40.0,False,,285.7112102045955,[],"[640, 360]",ColorTask,5.0,23.0,,,HRV,HRV_0219,2022-11-30 19:09:56
,wl-rdm,31,126781,0.0-6.23-0.23,0.0,32.0,,,,,,,[],,,,,,62.5,0.0,u,0.0,True,1588.2000000476837,96.0,60.0,40.0,False,,235.48560348699007,[],"[640, 360]",ColorTask,6.0,24.0,,,HRV,HRV_0219,2022-11-30 19:09:56
,wl-rdm,32,130318,0.0-6.24-0.24,0.0,33.0,,,,,,,[],,,,,,50.0,1.0,i,1.0,True,2233.899999856949,134.0,60.0,40.0,False,,242.93030156440108,[],"[640, 360]",ColorTask,7.0,25.0,,,HRV,HRV_0219,2022-11-30 19:09:56
,wl-rdm,33,133588,0.0-6.25-0.25,0.0,34.0,,,,,,,[],,,,,,56.4,0.0,u,0.0,True,1936.7000000476837,117.0,60.0,40.0,False,,252.69319794435899,[],"[640, 360]",ColorTask,8.0,26.0,,,HRV,HRV_0219,2022-11-30 19:09:56
,wl-rdm,34,136458,0.0-6.26-0.26,0.0,35.0,,,,,,,[],,,,,,50.0,1.0,i,1.0,True,1575.1000001430511,95.0,60.0,40.0,False,,219.7366295525414,[],"[640, 360]",ColorTask,9.0,27.0,,,HRV,HRV_0219,2022-11-30 19:09:56
,wl-rdm,35,139694,0.0-6.27-0.27,0.0,36.0,,,,,,,[],,,,,,62.5,0.0,u,0.0,True,1839.3999998569489,111.0,60.0,40.0,False,,327.6735387625894,[],"[640, 360]",ColorTask,10.0,28.0,,,HRV,HRV_0219,2022-11-30 19:09:56
,wl-rdm,36,142297,0.0-6.28-0.28,0.0,37.0,,,,,,,[],,,,,,87.9,0.0,u,0.0,True,1307.0,79.0,60.0,40.0,False,,217.70713150201325,[],"[640, 360]",ColorTask,11.0,29.0,,,HRV,HRV_0219,2022-11-30 19:09:56
,wl-rdm,37,145216,0.0-6.29-0.29,0.0,38.0,,,,,,,[],,,,,,56.4,1.0,i,1.0,True,1632.6999998092651,98.0,60.0,40.0,False,,219.00288363610971,[],"[640, 360]",ColorTask,12.0,30.0,,,HRV,HRV_0219,2022-11-30 19:09:56
,wl-rdm,38,147669,0.0-6.30-0.30,0.0,39.0,,,,,,,[],,,,,,87.9,1.0,i,1.0,True,1046.9999997615814,63.0,60.0,40.0,False,,337.17297585326855,[],"[640, 360]",ColorTask,13.0,31.0,,,HRV,HRV_0219,2022-11-30 19:09:56
,wl-rdm,39,150438,0.0-6.31-0.31,0.0,40.0,,,,,,,[],,,,,,62.5,1.0,i,1.0,True,1327.3000001907349,80.0,60.0,40.0,False,,375.04823202632156,[],"[640, 360]",ColorTask,14.0,32.0,,,HRV,HRV_0219,2022-11-30 19:09:56
,wl-rdm,40,153024,0.0-6.32-0.32,0.0,41.0,,,,,,,[],,,,,,56.4,1.0,i,1.0,True,1208.6999998092651,73.0,60.0,40.0,False,,305.76702553810117,[],"[640, 360]",ColorTask,15.0,33.0,,,HRV,HRV_0219,2022-11-30 19:09:56
,wl-rdm,41,155777,0.0-6.33-0.33,0.0,42.0,,,,,,,[],,,,,,56.4,1.0,i,1.0,True,1475.0,89.0,60.0,40.0,False,,216.00370464169922,[],"[640, 360]",ColorTask,16.0,34.0,,,HRV,HRV_0219,2022-11-30 19:09:56
,wl-rdm,42,158563,0.0-6.34-0.34,0.0,43.0,,,,,,,[],,,,,,73.6,1.0,i,1.0,True,1425.9999997615814,86.0,60.0,40.0,False,,294.01620134072573,[],"[640, 360]",ColorTask,17.0,35.0,,,HRV,HRV_0219,2022-11-30 19:09:56
,wl-rdm,43,161733,0.0-6.35-0.35,0.0,44.0,,,,,,,[],,,,,,50.0,0.0,i,1.0,False,1738.7999999523163,105.0,60.0,40.0,False,,361.21288781928126,[],"[640, 360]",ColorTask,16.0,36.0,,,HRV,HRV_0219,2022-11-30 19:09:56
,wl-rdm,44,164369,0.0-6.36-0.36,0.0,45.0,,,,,,,[],,,,,,53.2,1.0,u,0.0,False,1266.9000000953674,76.0,60.0,40.0,False,,315.09477358413005,[],"[640, 360]",ColorTask,15.0,37.0,,,HRV,HRV_0219,2022-11-30 19:09:56
,wl-rdm,45,167088,0.0-6.37-0.37,0.0,46.0,,,,,,,[],,,,,,73.6,1.0,i,1.0,True,1343.6000001430511,81.0,60.0,40.0,False,,308.81035523548985,[],"[640, 360]",ColorTask,16.0,38.0,,,HRV,HRV_0219,2022-11-30 19:09:56
,wl-rdm,46,169657,0.0-6.38-0.38,0.0,47.0,,,,,,,[],,,,,,87.9,1.0,i,1.0,True,1261.6999998092651,76.0,60.0,40.0,False,,240.4165422015134,[],"[640, 360]",ColorTask,17.0,39.0,,,HRV,HRV_0219,2022-11-30 19:09:56
,wl-rdm,47,172510,0.0-6.39-0.39,0.0,48.0,,,,,,,[],,,,,,56.4,0.0,u,0.0,True,1446.3000001907349,87.0,60.0,40.0,False,,344.65253760604463,[],"[640, 360]",ColorTask,18.0,40.0,,,HRV,HRV_0219,2022-11-30 19:09:56
,wl-rdm,48,175179,0.0-6.40-0.40,0.0,49.0,,,,,,,[],,,,,,87.9,1.0,i,1.0,True,1324.4000000953674,80.0,60.0,40.0,False,,267.4026217851307,[],"[640, 360]",ColorTask,19.0,41.0,,,HRV,HRV_0219,2022-11-30 19:09:56
,wl-rdm,49,177865,0.0-6.41-0.41,0.0,50.0,,,,,,,[],,,,,,87.9,0.0,u,0.0,True,1285.5999999046326,78.0,60.0,40.0,False,,325.7763199994045,[],"[640, 360]",ColorTask,20.0,42.0,,,HRV,HRV_0219,2022-11-30 19:09:56
,wl-rdm,50,180885,0.0-6.42-0.42,0.0,51.0,,,,,,,[],,,,,,56.4,0.0,i,1.0,False,1584.0999999046326,95.0,60.0,40.0,False,,380.56772492228214,[],"[640, 360]",ColorTask,19.0,43.0,,,HRV,HRV_0219,2022-11-30 19:09:56
,wl-rdm,51,183888,0.0-6.43-0.43,0.0,52.0,,,,,,,[],,,,,,62.5,0.0,u,0.0,True,1728.8999998569489,104.0,60.0,40.0,False,,215.4483670643569,[],"[640, 360]",ColorTask,20.0,44.0,,,HRV,HRV_0219,2022-11-30 19:09:56
,wl-rdm,52,186223,0.0-6.44-0.44,0.0,53.0,,,,,,,[],,,,,,87.9,1.0,i,1.0,True,1062.0999999046326,64.0,60.0,40.0,False,,214.44006656286538,[],"[640, 360]",ColorTask,21.0,45.0,,,HRV,HRV_0219,2022-11-30 19:09:56
,wl-rdm,53,188709,0.0-6.45-0.45,0.0,54.0,,,,,,,[],,,,,,73.6,0.0,u,0.0,True,1156.5,70.0,60.0,40.0,False,,257.9681444334509,[],"[640, 360]",ColorTask,22.0,46.0,,,HRV,HRV_0219,2022-11-30 19:09:56
,wl-rdm,54,191445,0.0-6.46-0.46,0.0,55.0,,,,,,,[],,,,,,56.4,1.0,i,1.0,True,1418.1000001430511,85.0,60.0,40.0,False,,260.7303601736547,[],"[640, 360]",ColorTask,23.0,47.0,,,HRV,HRV_0219,2022-11-30 19:09:56
,wl-rdm,55,194131,0.0-6.47-0.47,0.0,56.0,,,,,,,[],,,,,,87.9,0.0,u,0.0,True,1233.7999999523163,74.0,60.0,40.0,False,,388.22334279991173,[],"[640, 360]",ColorTask,24.0,48.0,,,HRV,HRV_0219,2022-11-30 19:09:56
,wl-rdm,56,196701,0.0-6.48-0.48,0.0,57.0,,,,,,,[],,,,,,62.5,1.0,i,1.0,True,1291.5,78.0,60.0,40.0,False,,200.22999779509078,[],"[640, 360]",ColorTask,25.0,49.0,,,HRV,HRV_0219,2022-11-30 19:09:56
,wl-rdm,57,199270,0.0-6.49-0.49,0.0,58.0,,,,,,,[],,,,,,73.6,0.0,u,0.0,True,1123.9999997615814,68.0,60.0,40.0,False,,370.95991963228073,[],"[640, 360]",ColorTask,26.0,50.0,,,HRV,HRV_0219,2022-11-30 19:09:56
,wl-rdm,58,202039,0.0-6.50-0.50,0.0,59.0,,,,,,,[],,,,,,87.9,0.0,u,0.0,True,1333.5,80.0,60.0,40.0,False,,368.3287056558386,[],"[640, 360]",ColorTask,27.0,51.0,,,HRV,HRV_0219,2022-11-30 19:09:56
,wl-rdm,59,205242,0.0-6.51-0.51,0.0,60.0,,,,,,,[],,,,,,53.2,1.0,i,1.0,True,1845.3000001907349,111.0,60.0,40.0,False,,286.7589404408142,[],"[640, 360]",ColorTask,28.0,52.0,,,HRV,HRV_0219,2022-11-30 19:09:56
,wl-rdm,60,208028,0.0-6.52-0.52,0.0,61.0,,,,,,,[],,,,,,56.4,1.0,u,0.0,False,1501.0999999046326,90.0,60.0,40.0,False,,228.3631708212825,[],"[640, 360]",ColorTask,27.0,53.0,,,HRV,HRV_0219,2022-11-30 19:09:56
,wl-rdm,61,211315,0.0-6.53-0.53,0.0,62.0,,,,,,,[],,,,,,53.2,0.0,u,0.0,True,1878.5999999046326,113.0,60.0,40.0,False,,342.69054193826537,[],"[640, 360]",ColorTask,28.0,54.0,,,HRV,HRV_0219,2022-11-30 19:09:56
,wl-rdm,62,213734,0.0-6.54-0.54,0.0,63.0,,,,,,,[],,,,,,87.9,0.0,u,0.0,True,1086.1000001430511,66.0,60.0,40.0,False,,266.59421207144936,[],"[640, 360]",ColorTask,29.0,55.0,,,HRV,HRV_0219,2022-11-30 19:09:56
,wl-rdm,63,216403,0.0-6.55-0.55,0.0,64.0,,,,,,,[],,,,,,62.5,1.0,i,1.0,True,1344.9000000953674,81.0,60.0,40.0,False,,261.3740520098134,[],"[640, 360]",ColorTask,30.0,56.0,,,HRV,HRV_0219,2022-11-30 19:09:56
,wl-rdm,64,218655,0.0-6.56-0.56,0.0,65.0,,,,,,,[],,,,,,87.9,1.0,i,1.0,True,890.4000000953674,54.0,60.0,40.0,False,,297.1429875566683,[],"[640, 360]",ColorTask,31.0,57.0,,,HRV,HRV_0219,2022-11-30 19:09:56
,wl-rdm,65,221792,0.0-6.57-0.57,0.0,66.0,,,,,,,[],,,,,,56.4,1.0,i,1.0,True,1724.4000000953674,104.0,60.0,40.0,False,,336.0009613827412,[],"[640, 360]",ColorTask,32.0,58.0,,,HRV,HRV_0219,2022-11-30 19:09:56
,wl-rdm,66,224645,0.0-6.58-0.58,0.0,67.0,,,,,,,[],,,,,,56.4,0.0,i,1.0,False,1580.5,95.0,60.0,40.0,False,,209.46620454219467,[],"[640, 360]",ColorTask,31.0,59.0,,,HRV,HRV_0219,2022-11-30 19:09:56
,wl-rdm,67,227297,0.0-6.59-0.59,0.0,68.0,,,,,,,[],,,,,,73.6,1.0,i,1.0,True,1273.0,77.0,60.0,40.0,False,,310.976600535713,[],"[640, 360]",ColorTask,32.0,60.0,,,HRV,HRV_0219,2022-11-30 19:09:56
,wl-rdm,68,230017,0.0-6.60-0.60,0.0,69.0,,,,,,,[],,,,,,62.5,0.0,u,0.0,True,1257.4000000953674,76.0,60.0,40.0,False,,384.64597762466985,[],"[640, 360]",ColorTask,33.0,61.0,,,HRV,HRV_0219,2022-11-30 19:09:56
,wl-rdm,69,232970,0.0-6.61-0.61,0.0,70.0,,,,,,,[],,,,,,62.5,0.0,u,0.0,True,1598.3999998569489,96.0,60.0,40.0,False,,298.20744284343414,[],"[640, 360]",ColorTask,34.0,62.0,,,HRV,HRV_0219,2022-11-30 19:09:56
,wl-rdm,70,236723,0.0-6.62-0.62,0.0,71.0,,,,,,,[],,,,,,87.9,0.0,u,0.0,True,2433.7000000476837,146.0,60.0,40.0,False,,265.20588234616736,[],"[640, 360]",ColorTask,35.0,63.0,,,HRV,HRV_0219,2022-11-30 19:09:56
,wl-rdm,71,240127,0.0-6.63-0.63,0.0,72.0,,,,,,,[],,,,,,62.5,0.0,u,0.0,True,1986.7000002861023,120.0,60.0,40.0,False,,343.24000224312704,[],"[640, 360]",ColorTask,36.0,64.0,,,HRV,HRV_0219,2022-11-30 19:09:56
,wl-rdm,72,243013,0.0-6.64-0.64,0.0,73.0,,,,,,,[],,,,,,50.0,0.0,i,1.0,False,1471.2999999523163,89.0,60.0,40.0,False,,342.5294438013266,[],"[640, 360]",ColorTask,35.0,65.0,,,HRV,HRV_0219,2022-11-30 19:09:56
,wl-rdm,73,245315,0.0-6.65-0.65,0.0,74.0,,,,,,,[],,,,,,62.5,1.0,i,1.0,True,1014.2000000476837,61.0,60.0,40.0,False,,218.68050660095278,[],"[640, 360]",ColorTask,36.0,66.0,,,HRV,HRV_0219,2022-11-30 19:09:56
,wl-rdm,74,247784,0.0-6.66-0.66,0.0,75.0,,,,,,,[],,,,,,87.9,0.0,u,0.0,True,1061.3999998569489,64.0,60.0,40.0,False,,345.6646302058638,[],"[640, 360]",ColorTask,37.0,67.0,,,HRV,HRV_0219,2022-11-30 19:09:56
,wl-rdm,75,250704,0.0-6.67-0.67,0.0,76.0,,,,,,,[],,,,,,53.2,0.0,u,0.0,True,1503.0999999046326,91.0,60.0,40.0,False,,324.53719531713483,[],"[640, 360]",ColorTask,38.0,68.0,,,HRV,HRV_0219,2022-11-30 19:09:56
,wl-rdm,76,253840,0.0-6.68-0.68,0.0,77.0,,,,,,,[],,,,,,56.4,0.0,u,0.0,True,1860.5999999046326,112.0,60.0,40.0,False,,213.89465545383797,[],"[640, 360]",ColorTask,39.0,69.0,,,HRV,HRV_0219,2022-11-30 19:09:56
,wl-rdm,77,256643,0.0-6.69-0.69,0.0,78.0,,,,,,,[],,,,,,53.2,1.0,u,0.0,False,1532.8000001907349,92.0,60.0,40.0,False,,213.03602707003748,[],"[640, 360]",ColorTask,38.0,70.0,,,HRV,HRV_0219,2022-11-30 19:09:56
,wl-rdm,78,259829,0.0-6.70-0.70,0.0,79.0,,,,,,,[],,,,,,50.0,1.0,u,0.0,False,1841.7999999523163,111.0,60.0,40.0,False,,276.8245429111558,[],"[640, 360]",ColorTask,37.0,71.0,,,HRV,HRV_0219,2022-11-30 19:09:56
,wl-rdm,79,262582,0.0-6.71-0.71,0.0,80.0,,,,,,,[],,,,,,56.4,0.0,u,0.0,True,1483.7000000476837,89.0,60.0,40.0,False,,210.26447731676333,[],"[640, 360]",ColorTask,38.0,72.0,,,HRV,HRV_0219,2022-11-30 19:09:56
,wl-rdm,80,265935,0.0-6.72-0.72,0.0,81.0,,,,,,,[],,,,,,53.2,0.0,i,1.0,False,2079.4000000953674,125.0,60.0,40.0,False,,208.9108117174073,[],"[640, 360]",ColorTask,37.0,73.0,,,HRV,HRV_0219,2022-11-30 19:09:56
,wl-rdm,81,268405,0.0-6.73-0.73,0.0,82.0,,,,,,,[],,,,,,73.6,1.0,i,1.0,True,1198.5,72.0,60.0,40.0,False,,204.24376773387544,[],"[640, 360]",ColorTask,38.0,74.0,,,HRV,HRV_0219,2022-11-30 19:09:56
,wl-rdm,82,270790,0.0-6.74-0.74,0.0,83.0,,,,,,,[],,,,,,50.0,0.0,u,0.0,True,1115.7999999523163,67.0,60.0,40.0,False,,200.21875800567804,[],"[640, 360]",ColorTask,39.0,75.0,,,HRV,HRV_0219,2022-11-30 19:09:56
,wl-rdm,83,273310,0.0-6.75-0.75,0.0,84.0,,,,,,,[],,,,,,53.2,1.0,u,0.0,False,1069.2999999523163,65.0,60.0,40.0,False,,375.17947920802726,[],"[640, 360]",ColorTask,38.0,76.0,,,HRV,HRV_0219,2022-11-30 19:09:56
,wl-rdm,84,275979,0.0-6.76-0.76,0.0,85.0,,,,,,,[],,,,,,62.5,1.0,i,1.0,True,1351.2000000476837,81.0,60.0,40.0,False,,263.6373933026953,[],"[640, 360]",ColorTask,39.0,77.0,,,HRV,HRV_0219,2022-11-30 19:09:56
,wl-rdm,85,279049,0.0-6.77-0.77,0.0,86.0,,,,,,,[],,,,,,53.2,0.0,i,1.0,False,1795.9000000953674,108.0,60.0,40.0,False,,208.88749428685634,[],"[640, 360]",ColorTask,38.0,78.0,,,HRV,HRV_0219,2022-11-30 19:09:56
,wl-rdm,86,281718,0.0-6.78-0.78,0.0,87.0,,,,,,,[],,,,,,62.5,1.0,i,1.0,True,1326.3999998569489,80.0,60.0,40.0,False,,283.3581658307381,[],"[640, 360]",ColorTask,39.0,79.0,,,HRV,HRV_0219,2022-11-30 19:09:56
,wl-rdm,87,284521,0.0-6.79-0.79,0.0,88.0,,,,,,,[],,,,,,62.5,1.0,i,1.0,True,1388.0999999046326,84.0,60.0,40.0,False,,342.6612314157197,[],"[640, 360]",ColorTask,40.0,80.0,,,HRV,HRV_0219,2022-11-30 19:09:56
,wl-rdm,88,287991,0.0-6.80-0.80,0.0,89.0,,,,,,,[],,,,,,50.0,1.0,i,1.0,True,2062.0999999046326,124.0,60.0,40.0,False,,348.7771590941174,[],"[640, 360]",ColorTask,41.0,81.0,,,HRV,HRV_0219,2022-11-30 19:09:56
,wl-rdm,89,291161,0.0-6.81-0.81,0.0,90.0,,,,,,,[],,,,,,73.6,0.0,u,0.0,True,1786.0,108.0,60.0,40.0,False,,307.68001499926436,[],"[640, 360]",ColorTask,42.0,82.0,,,HRV,HRV_0219,2022-11-30 19:09:56
,wl-rdm,90,293563,0.0-6.82-0.82,0.0,91.0,,,,,,,[],,,,,,73.6,0.0,u,0.0,True,1005.2999999523163,61.0,60.0,40.0,False,,328.1458718057829,[],"[640, 360]",ColorTask,43.0,83.0,,,HRV,HRV_0219,2022-11-30 19:09:56
,wl-rdm,91,296316,0.0-6.83-0.83,0.0,92.0,,,,,,,[],,,,,,73.6,0.0,u,0.0,True,1448.2999999523163,87.0,60.0,40.0,False,,243.11930756881378,[],"[640, 360]",ColorTask,44.0,84.0,,,HRV,HRV_0219,2022-11-30 19:09:56
,wl-rdm,92,299519,0.0-6.84-0.84,0.0,93.0,,,,,,,[],,,,,,53.2,0.0,i,1.0,False,1787.7000000476837,108.0,60.0,40.0,False,,346.45951165913436,[],"[640, 360]",ColorTask,43.0,85.0,,,HRV,HRV_0219,2022-11-30 19:09:56
,wl-rdm,93,302188,0.0-6.85-0.85,0.0,94.0,,,,,,,[],,,,,,50.0,0.0,i,1.0,False,1307.2000000476837,79.0,60.0,40.0,False,,292.2789684068995,[],"[640, 360]",ColorTask,42.0,86.0,,,HRV,HRV_0219,2022-11-30 19:09:56
,wl-rdm,94,304390,0.0-6.86-0.86,0.0,95.0,,,,,,,[],,,,,,87.9,0.0,u,0.0,True,898.5999999046326,54.0,60.0,40.0,False,,236.85325957656923,[],"[640, 360]",ColorTask,43.0,87.0,,,HRV,HRV_0219,2022-11-30 19:09:56
,wl-rdm,95,306676,0.0-6.87-0.87,0.0,96.0,,,,,,,[],,,,,,73.6,1.0,i,1.0,True,965.2999999523163,58.0,60.0,40.0,False,,250.5232836043641,[],"[640, 360]",ColorTask,44.0,88.0,,,HRV,HRV_0219,2022-11-30 19:09:56
,wl-rdm,96,309162,0.0-6.88-0.88,0.0,97.0,,,,,,,[],,,,,,87.9,1.0,i,1.0,True,1093.5,66.0,60.0,40.0,False,,330.66000077706906,[],"[640, 360]",ColorTask,45.0,89.0,,,HRV,HRV_0219,2022-11-30 19:09:56
,wl-rdm,97,311848,0.0-6.89-0.89,0.0,98.0,,,,,,,[],,,,,,73.6,0.0,u,0.0,True,1379.0,83.0,60.0,40.0,False,,246.78832636842787,[],"[640, 360]",ColorTask,46.0,90.0,,,HRV,HRV_0219,2022-11-30 19:09:56
,wl-rdm,98,314600,0.0-6.90-0.90,0.0,99.0,,,,,,,[],,,,,,56.4,1.0,i,1.0,True,1372.7999999523163,83.0,60.0,40.0,False,,311.0390793090147,[],"[640, 360]",ColorTask,47.0,91.0,,,HRV,HRV_0219,2022-11-30 19:09:56
,wl-rdm,99,317336,0.0-6.91-0.91,0.0,100.0,,,,,,,[],,,,,,53.2,0.0,u,0.0,True,1462.3999998569489,88.0,60.0,40.0,False,,213.1086669083203,[],"[640, 360]",ColorTask,48.0,92.0,,,HRV,HRV_0219,2022-11-30 19:09:56
,wl-rdm,100,319989,0.0-6.92-0.92,0.0,101.0,,,,,,,[],,,,,,73.6,1.0,i,1.0,True,1274.6000001430511,77.0,60.0,40.0,False,,313.5636247298248,[],"[640, 360]",ColorTask,49.0,93.0,,,HRV,HRV_0219,2022-11-30 19:09:56
,wl-rdm,101,323893,0.0-6.93-0.93,0.0,102.0,,,,,,,[],,,,,,53.2,0.0,u,0.0,True,2592.7000000476837,156.0,60.0,40.0,False,,233.847728625012,[],"[640, 360]",ColorTask,50.0,94.0,,,HRV,HRV_0219,2022-11-30 19:09:56
,wl-rdm,102,327647,0.0-6.94-0.94,0.0,103.0,,,,,,,[],,,,,,53.2,0.0,u,0.0,True,2319.4000000953674,140.0,60.0,40.0,False,,361.4543036537575,[],"[640, 360]",ColorTask,51.0,95.0,,,HRV,HRV_0219,2022-11-30 19:09:56
,wl-rdm,103,330299,0.0-6.95-0.95,0.0,104.0,,,,,,,[],,,,,,56.4,0.0,u,0.0,True,1360.7999999523163,82.0,60.0,40.0,False,,219.28010274871588,[],"[640, 360]",ColorTask,52.0,96.0,,,HRV,HRV_0219,2022-11-30 19:09:56
,wl-rdm,104,333853,0.0-6.96-0.96,0.0,105.0,,,,,,,[],,,,,,73.6,1.0,i,1.0,True,2152.5,130.0,60.0,40.0,False,,329.8423267108798,[],"[640, 360]",ColorTask,53.0,97.0,,,HRV,HRV_0219,2022-11-30 19:09:56
,wl-rdm,105,336205,0.0-6.97-0.97,0.0,106.0,,,,,,,[],,,,,,87.9,1.0,i,1.0,True,1025.5,62.0,60.0,40.0,False,,258.0919423480516,[],"[640, 360]",ColorTask,54.0,98.0,,,HRV,HRV_0219,2022-11-30 19:09:56
,wl-rdm,106,338808,0.0-6.98-0.98,0.0,107.0,,,,,,,[],,,,,,73.6,1.0,i,1.0,True,1234.3999998569489,74.0,60.0,40.0,False,,305.33706620204504,[],"[640, 360]",ColorTask,55.0,99.0,,,HRV,HRV_0219,2022-11-30 19:09:56
,wl-rdm,107,341677,0.0-6.99-0.99,0.0,108.0,,,,,,,[],,,,,,62.5,1.0,i,1.0,True,1601.3999998569489,96.0,60.0,40.0,False,,203.09772490639153,[],"[640, 360]",ColorTask,56.0,100.0,,,HRV,HRV_0219,2022-11-30 19:09:56
,wl-rdm,108,345815,0.0-6.100-0.100,0.0,109.0,,,,,,,[],,,,,,62.5,0.0,i,1.0,False,2676.899999856949,161.0,60.0,40.0,False,,397.9600460979936,[],"[640, 360]",ColorTask,55.0,101.0,,,HRV,HRV_0219,2022-11-30 19:09:56
,wl-rdm,109,349251,0.0-6.101-0.101,0.0,110.0,,,,,,,[],,,,,,50.0,0.0,u,0.0,True,2166.0,130.0,60.0,40.0,False,,206.41556137606446,[],"[640, 360]",ColorTask,56.0,102.0,,,HRV,HRV_0219,2022-11-30 19:09:56
,wl-rdm,110,353272,0.0-6.102-0.102,0.0,111.0,,,,,,,[],,,,,,53.2,1.0,u,0.0,False,2726.2000000476837,164.0,60.0,40.0,False,,225.3651928284726,[],"[640, 360]",ColorTask,55.0,103.0,,,HRV,HRV_0219,2022-11-30 19:09:56
,wl-rdm,111,355424,0.0-6.103-0.103,0.0,112.0,,,,,,,[],,,,,,87.9,0.0,u,0.0,True,882.5000002384186,53.0,60.0,40.0,False,,209.21415736677238,[],"[640, 360]",ColorTask,56.0,104.0,,,HRV,HRV_0219,2022-11-30 19:09:56
,wl-rdm,112,357576,0.0-6.104-0.104,0.0,113.0,,,,,,,[],,,,,,50.0,1.0,u,0.0,False,841.0,51.0,60.0,40.0,False,,240.3988030688134,[],"[640, 360]",ColorTask,55.0,105.0,,,HRV,HRV_0219,2022-11-30 19:09:56
,wl-rdm,113,359945,0.0-6.105-0.105,0.0,114.0,,,,,,,[],,,,,,73.6,0.0,u,0.0,True,926.0,56.0,60.0,40.0,False,,376.9951095963737,[],"[640, 360]",ColorTask,56.0,106.0,,,HRV,HRV_0219,2022-11-30 19:09:56
,wl-rdm,114,362064,0.0-6.106-0.106,0.0,115.0,,,,,,,[],,,,,,87.9,1.0,i,1.0,True,783.0,47.0,60.0,40.0,False,,277.0888064126582,[],"[640, 360]",ColorTask,57.0,107.0,,,HRV,HRV_0219,2022-11-30 19:09:56
,wl-rdm,115,364800,0.0-6.107-0.107,0.0,116.0,,,,,,,[],,,,,,53.2,1.0,i,1.0,True,1433.8999998569489,86.0,60.0,40.0,False,,242.39204125407926,[],"[640, 360]",ColorTask,58.0,108.0,,,HRV,HRV_0219,2022-11-30 19:09:56
,wl-html-keyboard-response,116,373195,0.0-7.0-0.0,1.0,117.0,,,,,,,,6387.5,1.0,0,,,,,,,,,,,,,,,,,,,,,,HRV,HRV_0219,2022-11-30 19:09:56
,wl-rdm,117,375511,0.0-8.0-0.0,1.0,118.0,,,,,,,[],,,,,,56.4,0.0,i,1.0,False,1003.1000001430511,61.0,60.0,40.0,False,,243.81088405617913,[],"[640, 360]",ColorTask,57.0,1.0,,,HRV,HRV_0219,2022-11-30 19:09:56
,wl-rdm,118,377596,0.0-8.1-0.1,1.0,119.0,,,,,,,[],,,,,,53.2,1.0,i,1.0,True,789.2999999523163,48.0,60.0,40.0,False,,230.9960049003367,[],"[640, 360]",ColorTask,58.0,2.0,,,HRV,HRV_0219,2022-11-30 19:09:56
,wl-rdm,119,379882,0.0-8.2-0.2,1.0,120.0,,,,,,,[],,,,,,62.5,0.0,u,0.0,True,916.5,55.0,60.0,40.0,False,,301.6075412430737,[],"[640, 360]",ColorTask,59.0,3.0,,,HRV,HRV_0219,2022-11-30 19:09:56
,wl-rdm,120,381884,0.0-8.3-0.3,1.0,121.0,,,,,,,[],,,,,,87.9,0.0,u,0.0,True,700.5,42.0,60.0,40.0,False,,239.69607617069505,[],"[640, 360]",ColorTask,60.0,4.0,,,HRV,HRV_0219,2022-11-30 19:09:56
,wl-rdm,121,383936,0.0-8.4-0.4,1.0,122.0,,,,,,,[],,,,,,87.9,1.0,i,1.0,True,777.6000001430511,47.0,60.0,40.0,False,,206.19655116967297,[],"[640, 360]",ColorTask,61.0,5.0,,,HRV,HRV_0219,2022-11-30 19:09:56
,wl-rdm,122,386538,0.0-8.5-0.5,1.0,123.0,,,,,,,[],,,,,,50.0,1.0,i,1.0,True,1242.5,75.0,60.0,40.0,False,,290.43360896572324,[],"[640, 360]",ColorTask,62.0,6.0,,,HRV,HRV_0219,2022-11-30 19:09:56
,wl-rdm,123,389141,0.0-8.6-0.6,1.0,124.0,,,,,,,[],,,,,,50.0,1.0,i,1.0,True,1290.0999999046326,78.0,60.0,40.0,False,,237.0961555288947,[],"[640, 360]",ColorTask,63.0,7.0,,,HRV,HRV_0219,2022-11-30 19:09:56
,wl-rdm,124,391426,0.0-8.7-0.7,1.0,125.0,,,,,,,[],,,,,,62.5,1.0,i,1.0,True,942.5,57.0,60.0,40.0,False,,269.21562264771575,[],"[640, 360]",ColorTask,64.0,8.0,,,HRV,HRV_0219,2022-11-30 19:09:56
,wl-rdm,125,393795,0.0-8.8-0.8,1.0,126.0,,,,,,,[],,,,,,62.5,1.0,i,1.0,True,1010.8999998569489,61.0,60.0,40.0,False,,296.0168940803847,[],"[640, 360]",ColorTask,65.0,9.0,,,HRV,HRV_0219,2022-11-30 19:09:56
,wl-rdm,126,396465,0.0-8.9-0.9,1.0,127.0,,,,,,,[],,,,,,56.4,0.0,i,1.0,False,1228.3999998569489,74.0,60.0,40.0,False,,379.3055724372839,[],"[640, 360]",ColorTask,64.0,10.0,,,HRV,HRV_0219,2022-11-30 19:09:56
,wl-rdm,127,398850,0.0-8.10-0.10,1.0,128.0,,,,,,,[],,,,,,53.2,0.0,u,0.0,True,1076.5,65.0,60.0,40.0,False,,236.71451832146178,[],"[640, 360]",ColorTask,65.0,11.0,,,HRV,HRV_0219,2022-11-30 19:09:56
,wl-rdm,128,401720,0.0-8.11-0.11,1.0,129.0,,,,,,,[],,,,,,50.0,1.0,u,0.0,False,1546.5,93.0,60.0,40.0,False,,266.7538480980374,[],"[640, 360]",ColorTask,64.0,12.0,,,HRV,HRV_0219,2022-11-30 19:09:56
,wl-rdm,129,404606,0.0-8.12-0.12,1.0,130.0,,,,,,,[],,,,,,62.5,0.0,u,0.0,True,1467.6999998092651,88.0,60.0,40.0,False,,360.70379807175726,[],"[640, 360]",ColorTask,65.0,13.0,,,HRV,HRV_0219,2022-11-30 19:09:56
,wl-rdm,130,406842,0.0-8.13-0.13,1.0,131.0,,,,,,,[],,,,,,87.9,1.0,i,1.0,True,811.0999999046326,49.0,60.0,40.0,False,,364.63436288738535,[],"[640, 360]",ColorTask,66.0,14.0,,,HRV,HRV_0219,2022-11-30 19:09:56
,wl-rdm,131,409311,0.0-8.14-0.14,1.0,132.0,,,,,,,[],,,,,,53.2,1.0,i,1.0,True,1198.2000000476837,72.0,60.0,40.0,False,,214.87713895982938,[],"[640, 360]",ColorTask,67.0,15.0,,,HRV,HRV_0219,2022-11-30 19:09:56
,wl-rdm,132,411613,0.0-8.15-0.15,1.0,133.0,,,,,,,[],,,,,,73.6,0.0,u,0.0,True,866.2000000476837,52.0,60.0,40.0,False,,376.3977777359851,[],"[640, 360]",ColorTask,68.0,16.0,,,HRV,HRV_0219,2022-11-30 19:09:56
,wl-rdm,133,414132,0.0-8.16-0.16,1.0,134.0,,,,,,,[],,,,,,53.2,0.0,i,1.0,False,1184.9000000953674,72.0,60.0,40.0,False,,250.62035745586834,[],"[640, 360]",ColorTask,67.0,17.0,,,HRV,HRV_0219,2022-11-30 19:09:56
,wl-rdm,134,416434,0.0-8.17-0.17,1.0,135.0,,,,,,,[],,,,,,73.6,0.0,u,0.0,True,922.2000000476837,56.0,60.0,40.0,False,,313.3433359619777,[],"[640, 360]",ColorTask,68.0,18.0,,,HRV,HRV_0219,2022-11-30 19:09:56
,wl-rdm,135,418737,0.0-8.18-0.18,1.0,136.0,,,,,,,[],,,,,,53.2,1.0,i,1.0,True,1030.2000000476837,62.0,60.0,40.0,False,,211.15226452448786,[],"[640, 360]",ColorTask,69.0,19.0,,,HRV,HRV_0219,2022-11-30 19:09:56
,wl-rdm,136,421356,0.0-8.19-0.19,1.0,137.0,,,,,,,[],,,,,,50.0,1.0,i,1.0,True,1286.2000000476837,78.0,60.0,40.0,False,,251.3549440959452,[],"[640, 360]",ColorTask,70.0,20.0,,,HRV,HRV_0219,2022-11-30 19:09:56
,wl-rdm,137,423775,0.0-8.20-0.20,1.0,138.0,,,,,,,[],,,,,,56.4,1.0,i,1.0,True,974.2999999523163,59.0,60.0,40.0,False,,370.487516570765,[],"[640, 360]",ColorTask,71.0,21.0,,,HRV,HRV_0219,2022-11-30 19:09:56
,wl-rdm,138,426061,0.0-8.21-0.21,1.0,139.0,,,,,,,[],,,,,,73.6,0.0,u,0.0,True,1010.4000000953674,61.0,60.0,40.0,False,,206.8667604524222,[],"[640, 360]",ColorTask,72.0,22.0,,,HRV,HRV_0219,2022-11-30 19:09:56
,wl-rdm,139,429164,0.0-8.22-0.22,1.0,140.0,,,,,,,[],,,,,,53.2,0.0,u,0.0,True,1781.7000000476837,107.0,60.0,40.0,False,,262.5900215284649,[],"[640, 360]",ColorTask,73.0,23.0,,,HRV,HRV_0219,2022-11-30 19:09:56
,wl-rdm,140,432017,0.0-8.23-0.23,1.0,141.0,,,,,,,[],,,,,,62.5,0.0,i,1.0,False,1515.6999998092651,91.0,60.0,40.0,False,,270.08555730571777,[],"[640, 360]",ColorTask,72.0,24.0,,,HRV,HRV_0219,2022-11-30 19:09:56
,wl-rdm,141,434302,0.0-8.24-0.24,1.0,142.0,,,,,,,[],,,,,,50.0,0.0,i,1.0,False,967.5999999046326,58.0,60.0,40.0,False,,255.21056583289257,[],"[640, 360]",ColorTask,71.0,25.0,,,HRV,HRV_0219,2022-11-30 19:09:56
,wl-rdm,142,436788,0.0-8.25-0.25,1.0,143.0,,,,,,,[],,,,,,50.0,1.0,u,0.0,False,1170.8999998569489,71.0,60.0,40.0,False,,243.8980594118084,[],"[640, 360]",ColorTask,70.0,26.0,,,HRV,HRV_0219,2022-11-30 19:09:56
,wl-rdm,143,439057,0.0-8.26-0.26,1.0,144.0,,,,,,,[],,,,,,87.9,0.0,u,0.0,True,890.4000000953674,54.0,60.0,40.0,False,,307.7391644537349,[],"[640, 360]",ColorTask,71.0,27.0,,,HRV,HRV_0219,2022-11-30 19:09:56
,wl-rdm,144,442343,0.0-8.27-0.27,1.0,145.0,,,,,,,[],,,,,,56.4,0.0,u,0.0,True,2004.7000000476837,121.0,60.0,40.0,False,,210.93666861194984,[],"[640, 360]",ColorTask,72.0,28.0,,,HRV,HRV_0219,2022-11-30 19:09:56
,wl-rdm,145,444696,0.0-8.28-0.28,1.0,146.0,,,,,,,[],,,,,,73.6,1.0,i,1.0,True,1033.5999999046326,62.0,60.0,40.0,False,,263.7205678274565,[],"[640, 360]",ColorTask,73.0,29.0,,,HRV,HRV_0219,2022-11-30 19:09:56
,wl-rdm,146,447181,0.0-8.29-0.29,1.0,147.0,,,,,,,[],,,,,,73.6,1.0,i,1.0,True,1027.9000000953674,62.0,60.0,40.0,False,,392.1364921902567,[],"[640, 360]",ColorTask,74.0,30.0,,,HRV,HRV_0219,2022-11-30 19:09:56
,wl-rdm,147,449683,0.0-8.30-0.30,1.0,148.0,,,,,,,[],,,,,,53.2,1.0,i,1.0,True,1096.5999999046326,66.0,60.0,40.0,False,,341.3109058290288,[],"[640, 360]",ColorTask,75.0,31.0,,,HRV,HRV_0219,2022-11-30 19:09:56
,wl-rdm,148,451819,0.0-8.31-0.31,1.0,149.0,,,,,,,[],,,,,,87.9,0.0,u,0.0,True,830.2999999523163,50.0,60.0,40.0,False,,246.69591265045622,[],"[640, 360]",ColorTask,76.0,32.0,,,HRV,HRV_0219,2022-11-30 19:09:56
,wl-rdm,149,454588,0.0-8.32-0.32,1.0,150.0,,,,,,,[],,,,,,56.4,1.0,i,1.0,True,1337.0,81.0,60.0,40.0,False,,353.6794613042333,[],"[640, 360]",ColorTask,77.0,33.0,,,HRV,HRV_0219,2022-11-30 19:09:56
,wl-rdm,150,457558,0.0-8.33-0.33,1.0,151.0,,,,,,,[],,,,,,62.5,1.0,i,1.0,True,1641.4999997615814,99.0,60.0,40.0,False,,257.3819717609646,[],"[640, 360]",ColorTask,78.0,34.0,,,HRV,HRV_0219,2022-11-30 19:09:56
,wl-rdm,151,460377,0.0-8.34-0.34,1.0,152.0,,,,,,,[],,,,,,73.6,0.0,u,0.0,True,1462.6999998092651,88.0,60.0,40.0,False,,297.63049144261186,[],"[640, 360]",ColorTask,79.0,35.0,,,HRV,HRV_0219,2022-11-30 19:09:56
,wl-rdm,152,463030,0.0-8.35-0.35,1.0,153.0,,,,,,,[],,,,,,53.2,1.0,i,1.0,True,1337.5,81.0,60.0,40.0,False,,247.6108071770875,[],"[640, 360]",ColorTask,80.0,36.0,,,HRV,HRV_0219,2022-11-30 19:09:56
,wl-rdm,153,465082,0.0-8.36-0.36,1.0,154.0,,,,,,,[],,,,,,73.6,1.0,i,1.0,True,756.1000001430511,46.0,60.0,40.0,False,,232.5827087161356,[],"[640, 360]",ColorTask,81.0,37.0,,,HRV,HRV_0219,2022-11-30 19:09:56
,wl-rdm,154,467768,0.0-8.37-0.37,1.0,155.0,,,,,,,[],,,,,,73.6,0.0,u,0.0,True,1227.1000001430511,74.0,60.0,40.0,False,,384.10243483925683,[],"[640, 360]",ColorTask,82.0,38.0,,,HRV,HRV_0219,2022-11-30 19:09:56
,wl-rdm,155,470320,0.0-8.38-0.38,1.0,156.0,,,,,,,[],,,,,,73.6,0.0,u,0.0,True,1197.5999999046326,72.0,60.0,40.0,False,,285.98058339092916,[],"[640, 360]",ColorTask,83.0,39.0,,,HRV,HRV_0219,2022-11-30 19:09:56
,wl-rdm,156,472656,0.0-8.39-0.39,1.0,157.0,,,,,,,[],,,,,,62.5,1.0,i,1.0,True,939.7999999523163,57.0,60.0,40.0,False,,321.8322211247937,[],"[640, 360]",ColorTask,84.0,40.0,,,HRV,HRV_0219,2022-11-30 19:09:56
,wl-rdm,157,474858,0.0-8.40-0.40,1.0,158.0,,,,,,,[],,,,,,87.9,0.0,u,0.0,True,871.0999999046326,53.0,60.0,40.0,False,,260.4210318530867,[],"[640, 360]",ColorTask,85.0,41.0,,,HRV,HRV_0219,2022-11-30 19:09:56
,wl-rdm,158,478111,0.0-8.41-0.41,1.0,159.0,,,,,,,[],,,,,,53.2,0.0,u,0.0,True,1911.1000001430511,115.0,60.0,40.0,False,,278.3612647965316,[],"[640, 360]",ColorTask,86.0,42.0,,,HRV,HRV_0219,2022-11-30 19:09:56
,wl-rdm,159,480263,0.0-8.42-0.42,1.0,160.0,,,,,,,[],,,,,,87.9,1.0,i,1.0,True,824.2999999523163,50.0,60.0,40.0,False,,255.82272410119896,[],"[640, 360]",ColorTask,87.0,43.0,,,HRV,HRV_0219,2022-11-30 19:09:56
,wl-rdm,160,482466,0.0-8.43-0.43,1.0,161.0,,,,,,,[],,,,,,56.4,0.0,i,1.0,False,805.7999999523163,49.0,60.0,40.0,False,,318.2135294518415,[],"[640, 360]",ColorTask,86.0,44.0,,,HRV,HRV_0219,2022-11-30 19:09:56
,wl-rdm,161,484734,0.0-8.44-0.44,1.0,162.0,,,,,,,[],,,,,,87.9,1.0,i,1.0,True,851.4000000953674,52.0,60.0,40.0,False,,339.61527033068,[],"[640, 360]",ColorTask,87.0,45.0,,,HRV,HRV_0219,2022-11-30 19:09:56
,wl-rdm,162,487337,0.0-8.45-0.45,1.0,163.0,,,,,,,[],,,,,,62.5,1.0,i,1.0,True,1281.7999999523163,77.0,60.0,40.0,False,,262.1647574448069,[],"[640, 360]",ColorTask,88.0,46.0,,,HRV,HRV_0219,2022-11-30 19:09:56
,wl-rdm,163,489790,0.0-8.46-0.46,1.0,164.0,,,,,,,[],,,,,,50.0,1.0,u,0.0,False,1171.9000000953674,71.0,60.0,40.0,False,,216.33552901758438,[],"[640, 360]",ColorTask,87.0,47.0,,,HRV,HRV_0219,2022-11-30 19:09:56
,wl-rdm,164,491975,0.0-8.47-0.47,1.0,165.0,,,,,,,[],,,,,,87.9,1.0,i,1.0,True,801.4000000953674,49.0,60.0,40.0,False,,308.42225099422944,[],"[640, 360]",ColorTask,88.0,48.0,,,HRV,HRV_0219,2022-11-30 19:09:56
,wl-rdm,165,494277,0.0-8.48-0.48,1.0,166.0,,,,,,,[],,,,,,87.9,1.0,i,1.0,True,844.5999999046326,51.0,60.0,40.0,False,,398.53814748277955,[],"[640, 360]",ColorTask,89.0,49.0,,,HRV,HRV_0219,2022-11-30 19:09:56
,wl-rdm,166,496880,0.0-8.49-0.49,1.0,167.0,,,,,,,[],,,,,,56.4,1.0,i,1.0,True,1217.3999998569489,73.0,60.0,40.0,False,,326.072610230768,[],"[640, 360]",ColorTask,90.0,50.0,,,HRV,HRV_0219,2022-11-30 19:09:56
,wl-rdm,167,499616,0.0-8.50-0.50,1.0,168.0,,,,,,,[],,,,,,56.4,0.0,i,1.0,False,1334.2000000476837,80.0,60.0,40.0,False,,338.6748487370477,[],"[640, 360]",ColorTask,89.0,51.0,,,HRV,HRV_0219,2022-11-30 19:09:56
,wl-rdm,168,501851,0.0-8.51-0.51,1.0,169.0,,,,,,,[],,,,,,87.9,1.0,i,1.0,True,891.9000000953674,54.0,60.0,40.0,False,,280.15664615753184,[],"[640, 360]",ColorTask,90.0,52.0,,,HRV,HRV_0219,2022-11-30 19:09:56
,wl-rdm,169,504354,0.0-8.52-0.52,1.0,170.0,,,,,,,[],,,,,,53.2,0.0,i,1.0,False,1191.2000002861023,72.0,60.0,40.0,False,,240.41433707066125,[],"[640, 360]",ColorTask,89.0,53.0,,,HRV,HRV_0219,2022-11-30 19:09:56
,wl-rdm,170,507107,0.0-8.53-0.53,1.0,171.0,,,,,,,[],,,,,,62.5,0.0,u,0.0,True,1399.2999999523163,84.0,60.0,40.0,False,,295.09453146034565,[],"[640, 360]",ColorTask,90.0,54.0,,,HRV,HRV_0219,2022-11-30 19:09:56
,wl-rdm,171,510044,0.0-8.54-0.54,1.0,172.0,,,,,,,[],,,,,,62.5,0.0,u,0.0,True,1541.0999999046326,93.0,60.0,40.0,False,,323.64284830481444,[],"[640, 360]",ColorTask,91.0,55.0,,,HRV,HRV_0219,2022-11-30 19:09:56
,wl-rdm,172,513263,0.0-8.55-0.55,1.0,173.0,,,,,,,[],,,,,,50.0,0.0,i,1.0,False,1856.7000000476837,112.0,60.0,40.0,False,,298.5552496736523,[],"[640, 360]",ColorTask,90.0,56.0,,,HRV,HRV_0219,2022-11-30 19:09:56
,wl-rdm,173,515983,0.0-8.56-0.56,1.0,174.0,,,,,,,[],,,,,,53.2,0.0,i,1.0,False,1305.0,79.0,60.0,40.0,False,,337.2771967837097,[],"[640, 360]",ColorTask,89.0,57.0,,,HRV,HRV_0219,2022-11-30 19:09:56
,wl-rdm,174,518919,0.0-8.57-0.57,1.0,175.0,,,,,,,[],,,,,,53.2,1.0,i,1.0,True,1655.4000000953674,100.0,60.0,40.0,False,,201.23786799468303,[],"[640, 360]",ColorTask,90.0,58.0,,,HRV,HRV_0219,2022-11-30 19:09:56
,wl-rdm,175,521955,0.0-8.58-0.58,1.0,176.0,,,,,,,[],,,,,,56.4,1.0,i,1.0,True,1626.0,98.0,60.0,40.0,False,,341.6824945210365,[],"[640, 360]",ColorTask,91.0,59.0,,,HRV,HRV_0219,2022-11-30 19:09:56
,wl-rdm,176,524358,0.0-8.59-0.59,1.0,177.0,,,,,,,[],,,,,,87.9,0.0,u,0.0,True,1068.1999998092651,65.0,60.0,40.0,False,,254.2772677667228,[],"[640, 360]",ColorTask,92.0,60.0,,,HRV,HRV_0219,2022-11-30 19:09:56
,wl-rdm,177,527277,0.0-8.60-0.60,1.0,178.0,,,,,,,[],,,,,,50.0,0.0,u,0.0,True,1507.9000000953674,91.0,60.0,40.0,False,,336.68790358668457,[],"[640, 360]",ColorTask,93.0,61.0,,,HRV,HRV_0219,2022-11-30 19:09:56
,wl-rdm,178,529830,0.0-8.61-0.61,1.0,179.0,,,,,,,[],,,,,,87.9,0.0,u,0.0,True,1098.3999998569489,66.0,60.0,40.0,False,,395.52443437043064,[],"[640, 360]",ColorTask,94.0,62.0,,,HRV,HRV_0219,2022-11-30 19:09:56
,wl-rdm,179,532199,0.0-8.62-0.62,1.0,180.0,,,,,,,[],,,,,,53.2,1.0,i,1.0,True,1056.2999999523163,64.0,60.0,40.0,False,,238.2815686381195,[],"[640, 360]",ColorTask,95.0,63.0,,,HRV,HRV_0219,2022-11-30 19:09:56
,wl-rdm,180,535319,0.0-8.63-0.63,1.0,181.0,,,,,,,[],,,,,,73.6,0.0,u,0.0,True,1752.2000000476837,106.0,60.0,40.0,False,,299.40899599722263,[],"[640, 360]",ColorTask,96.0,64.0,,,HRV,HRV_0219,2022-11-30 19:09:56
,wl-rdm,181,537571,0.0-8.64-0.64,1.0,182.0,,,,,,,[],,,,,,73.6,0.0,u,0.0,True,876.5,53.0,60.0,40.0,False,,303.37282496998154,[],"[640, 360]",ColorTask,97.0,65.0,,,HRV,HRV_0219,2022-11-30 19:09:56
,wl-rdm,182,540290,0.0-8.65-0.65,1.0,183.0,,,,,,,[],,,,,,56.4,1.0,i,1.0,True,1328.7999999523163,80.0,60.0,40.0,False,,322.15201904882576,[],"[640, 360]",ColorTask,98.0,66.0,,,HRV,HRV_0219,2022-11-30 19:09:56
,wl-rdm,183,543176,0.0-8.66-0.66,1.0,184.0,,,,,,,[],,,,,,56.4,0.0,u,0.0,True,1572.9000000953674,95.0,60.0,40.0,False,,241.38582783926825,[],"[640, 360]",ColorTask,99.0,67.0,,,HRV,HRV_0219,2022-11-30 19:09:56
,wl-rdm,184,545679,0.0-8.67-0.67,1.0,185.0,,,,,,,[],,,,,,73.6,1.0,i,1.0,True,1168.7999999523163,71.0,60.0,40.0,False,,254.03449069693858,[],"[640, 360]",ColorTask,100.0,68.0,,,HRV,HRV_0219,2022-11-30 19:09:56
,wl-rdm,185,548498,0.0-8.68-0.68,1.0,186.0,,,,,,,[],,,,,,56.4,1.0,i,1.0,True,1404.7999999523163,85.0,60.0,40.0,False,,344.5123412767322,[],"[640, 360]",ColorTask,101.0,69.0,,,HRV,HRV_0219,2022-11-30 19:09:56
,wl-rdm,186,551818,0.0-8.69-0.69,1.0,187.0,,,,,,,[],,,,,,62.5,0.0,u,0.0,True,1896.7000000476837,114.0,60.0,40.0,False,,364.0851936745613,[],"[640, 360]",ColorTask,102.0,70.0,,,HRV,HRV_0219,2022-11-30 19:09:56
,wl-rdm,187,554237,0.0-8.70-0.70,1.0,188.0,,,,,,,[],,,,,,87.9,0.0,u,0.0,True,1102.1000001430511,67.0,60.0,40.0,False,,241.82739456990203,[],"[640, 360]",ColorTask,103.0,71.0,,,HRV,HRV_0219,2022-11-30 19:09:56
,wl-rdm,188,556723,0.0-8.71-0.71,1.0,189.0,,,,,,,[],,,,,,56.4,0.0,u,0.0,True,1190.3999998569489,72.0,60.0,40.0,False,,218.8777511265143,[],"[640, 360]",ColorTask,104.0,72.0,,,HRV,HRV_0219,2022-11-30 19:09:56
,wl-rdm,189,559209,0.0-8.72-0.72,1.0,190.0,,,,,,,[],,,,,,56.4,1.0,u,0.0,False,1156.8999998569489,70.0,60.0,40.0,False,,264.79765493838426,[],"[640, 360]",ColorTask,103.0,73.0,,,HRV,HRV_0219,2022-11-30 19:09:56
,wl-rdm,190,561761,0.0-8.73-0.73,1.0,191.0,,,,,,,[],,,,,,53.2,1.0,u,0.0,False,1197.7000000476837,72.0,60.0,40.0,False,,295.4931432607909,[],"[640, 360]",ColorTask,102.0,74.0,,,HRV,HRV_0219,2022-11-30 19:09:56
,wl-rdm,191,564698,0.0-8.74-0.74,1.0,192.0,,,,,,,[],,,,,,62.5,0.0,u,0.0,True,1615.2000002861023,97.0,60.0,40.0,False,,264.6121060733967,[],"[640, 360]",ColorTask,103.0,75.0,,,HRV,HRV_0219,2022-11-30 19:09:56
,wl-rdm,192,567033,0.0-8.75-0.75,1.0,193.0,,,,,,,[],,,,,,73.6,1.0,i,1.0,True,868.1000001430511,53.0,60.0,40.0,False,,390.5832835527531,[],"[640, 360]",ColorTask,104.0,76.0,,,HRV,HRV_0219,2022-11-30 19:09:56
,wl-rdm,193,569703,0.0-8.76-0.76,1.0,194.0,,,,,,,[],,,,,,50.0,0.0,u,0.0,True,1369.2000000476837,83.0,60.0,40.0,False,,230.475064042788,[],"[640, 360]",ColorTask,105.0,77.0,,,HRV,HRV_0219,2022-11-30 19:09:56
,wl-rdm,194,571871,0.0-8.77-0.77,1.0,195.0,,,,,,,[],,,,,,50.0,1.0,u,0.0,False,877.5,53.0,60.0,40.0,False,,223.11575808309922,[],"[640, 360]",ColorTask,104.0,78.0,,,HRV,HRV_0219,2022-11-30 19:09:56
,wl-rdm,195,573990,0.0-8.78-0.78,1.0,196.0,,,,,,,[],,,,,,62.5,1.0,i,1.0,True,677.2999999523163,41.0,60.0,40.0,False,,367.26238036175846,[],"[640, 360]",ColorTask,105.0,79.0,,,HRV,HRV_0219,2022-11-30 19:09:56
,wl-rdm,196,576076,0.0-8.79-0.79,1.0,197.0,,,,,,,[],,,,,,73.6,1.0,i,1.0,True,722.1000001430511,44.0,60.0,40.0,False,,291.9414883448192,[],"[640, 360]",ColorTask,106.0,80.0,,,HRV,HRV_0219,2022-11-30 19:09:56
,wl-rdm,197,578294,0.0-8.80-0.80,1.0,198.0,,,,,,,[],,,,,,56.4,1.0,i,1.0,True,922.0999999046326,56.0,60.0,40.0,False,,229.14680924284585,[],"[640, 360]",ColorTask,107.0,81.0,,,HRV,HRV_0219,2022-11-30 19:09:56
,wl-rdm,198,580847,0.0-8.81-0.81,1.0,199.0,,,,,,,[],,,,,,53.2,0.0,u,0.0,True,1261.1000001430511,76.0,60.0,40.0,False,,233.5339045987024,[],"[640, 360]",ColorTask,108.0,82.0,,,HRV,HRV_0219,2022-11-30 19:09:56
,wl-rdm,199,583750,0.0-8.82-0.82,1.0,200.0,,,,,,,[],,,,,,50.0,0.0,i,1.0,False,1562.900000333786,94.0,60.0,40.0,False,,281.1447906773624,[],"[640, 360]",ColorTask,107.0,83.0,,,HRV,HRV_0219,2022-11-30 19:09:56
,wl-rdm,200,586002,0.0-8.83-0.83,1.0,201.0,,,,,,,[],,,,,,87.9,0.0,u,0.0,True,799.1999998092651,48.0,60.0,40.0,False,,384.63125746103304,[],"[640, 360]",ColorTask,108.0,84.0,,,HRV,HRV_0219,2022-11-30 19:09:56
,wl-rdm,201,588955,0.0-8.84-0.84,1.0,202.0,,,,,,,[],,,,,,53.2,0.0,u,0.0,True,1519.0,92.0,60.0,40.0,False,,359.43067929128483,[],"[640, 360]",ColorTask,109.0,85.0,,,HRV,HRV_0219,2022-11-30 19:09:56
,wl-rdm,202,591407,0.0-8.85-0.85,1.0,203.0,,,,,,,[],,,,,,73.6,1.0,i,1.0,True,1178.2999999523163,71.0,60.0,40.0,False,,207.7329982892631,[],"[640, 360]",ColorTask,110.0,86.0,,,HRV,HRV_0219,2022-11-30 19:09:56
,wl-rdm,203,594928,0.0-8.86-0.86,1.0,204.0,,,,,,,[],,,,,,62.5,0.0,u,0.0,True,2187.7999999523163,132.0,60.0,40.0,False,,263.29829340894526,[],"[640, 360]",ColorTask,111.0,87.0,,,HRV,HRV_0219,2022-11-30 19:09:56
,wl-rdm,204,597497,0.0-8.87-0.87,1.0,205.0,,,,,,,[],,,,,,73.6,1.0,i,1.0,True,1219.7000000476837,74.0,60.0,40.0,False,,272.7662969121214,[],"[640, 360]",ColorTask,112.0,88.0,,,HRV,HRV_0219,2022-11-30 19:09:56
,wl-rdm,205,599899,0.0-8.88-0.88,1.0,206.0,,,,,,,[],,,,,,62.5,1.0,i,1.0,True,1086.5000002384186,66.0,60.0,40.0,False,,246.2061581032317,[],"[640, 360]",ColorTask,113.0,89.0,,,HRV,HRV_0219,2022-11-30 19:09:56
,wl-rdm,206,602402,0.0-8.89-0.89,1.0,207.0,,,,,,,[],,,,,,56.4,1.0,i,1.0,True,1035.5,63.0,60.0,40.0,False,,397.9316977204643,[],"[640, 360]",ColorTask,114.0,90.0,,,HRV,HRV_0219,2022-11-30 19:09:56
,wl-rdm,207,604804,0.0-8.90-0.90,1.0,208.0,,,,,,,[],,,,,,50.0,1.0,u,0.0,False,1082.6000001430511,65.0,60.0,40.0,False,,252.33096510690876,[],"[640, 360]",ColorTask,113.0,91.0,,,HRV,HRV_0219,2022-11-30 19:09:56
,wl-rdm,208,607523,0.0-8.91-0.91,1.0,209.0,,,,,,,[],,,,,,50.0,0.0,u,0.0,True,1359.2999999523163,82.0,60.0,40.0,False,,298.2234003880414,[],"[640, 360]",ColorTask,114.0,92.0,,,HRV,HRV_0219,2022-11-30 19:09:56
,wl-rdm,209,609725,0.0-8.92-0.92,1.0,210.0,,,,,,,[],,,,,,87.9,0.0,u,0.0,True,831.5,50.0,60.0,40.0,False,,300.30691028399264,[],"[640, 360]",ColorTask,115.0,93.0,,,HRV,HRV_0219,2022-11-30 19:09:56
,wl-rdm,210,612295,0.0-8.93-0.93,1.0,211.0,,,,,,,[],,,,,,62.5,1.0,i,1.0,True,1308.7999999523163,79.0,60.0,40.0,False,,200.0859500258753,[],"[640, 360]",ColorTask,116.0,94.0,,,HRV,HRV_0219,2022-11-30 19:09:56
,wl-rdm,211,615214,0.0-8.94-0.94,1.0,212.0,,,,,,,[],,,,,,56.4,0.0,u,0.0,True,1582.0999999046326,95.0,60.0,40.0,False,,276.01454564542263,[],"[640, 360]",ColorTask,117.0,95.0,,,HRV,HRV_0219,2022-11-30 19:09:56
,wl-rdm,212,618084,0.0-8.95-0.95,1.0,213.0,,,,,,,[],,,,,,50.0,0.0,u,0.0,True,1552.4000000953674,94.0,60.0,40.0,False,,234.05751831724035,[],"[640, 360]",ColorTask,118.0,96.0,,,HRV,HRV_0219,2022-11-30 19:09:56
,wl-rdm,213,620469,0.0-8.96-0.96,1.0,214.0,,,,,,,[],,,,,,50.0,0.0,u,0.0,True,978.7999999523163,59.0,60.0,40.0,False,,334.2829139789361,[],"[640, 360]",ColorTask,119.0,97.0,,,HRV,HRV_0219,2022-11-30 19:09:56
,wl-rdm,214,622822,0.0-8.97-0.97,1.0,215.0,,,,,,,[],,,,,,87.9,1.0,i,1.0,True,914.5,55.0,60.0,40.0,False,,378.0823155049517,[],"[640, 360]",ColorTask,120.0,98.0,,,HRV,HRV_0219,2022-11-30 19:09:56
,wl-rdm,215,625307,0.0-8.98-0.98,1.0,216.0,,,,,,,[],,,,,,62.5,1.0,i,1.0,True,1197.9000000953674,72.0,60.0,40.0,False,,223.5497150597803,[],"[640, 360]",ColorTask,121.0,99.0,,,HRV,HRV_0219,2022-11-30 19:09:56
,wl-rdm,216,628310,0.0-8.99-0.99,1.0,217.0,,,,,,,[],,,,,,53.2,0.0,i,1.0,False,1645.9000000953674,99.0,60.0,40.0,False,,295.38381307737103,[],"[640, 360]",ColorTask,120.0,100.0,,,HRV,HRV_0219,2022-11-30 19:09:56
,wl-rdm,217,630812,0.0-8.100-0.100,1.0,218.0,,,,,,,[],,,,,,73.6,1.0,i,1.0,True,1126.2999999523163,68.0,60.0,40.0,False,,305.72633694685385,[],"[640, 360]",ColorTask,121.0,101.0,,,HRV,HRV_0219,2022-11-30 19:09:56
,wl-rdm,218,633482,0.0-8.101-0.101,1.0,219.0,,,,,,,[],,,,,,62.5,0.0,u,0.0,True,1270.0,77.0,60.0,40.0,False,,319.1236056481449,[],"[640, 360]",ColorTask,122.0,102.0,,,HRV,HRV_0219,2022-11-30 19:09:56
,wl-rdm,219,636151,0.0-8.102-0.102,1.0,220.0,,,,,,,[],,,,,,50.0,1.0,u,0.0,False,1228.4000000953674,74.0,60.0,40.0,False,,379.4222347445641,[],"[640, 360]",ColorTask,121.0,103.0,,,HRV,HRV_0219,2022-11-30 19:09:56
,wl-rdm,220,638787,0.0-8.103-0.103,1.0,221.0,,,,,,,[],,,,,,73.6,0.0,u,0.0,True,1215.9000000953674,73.0,60.0,40.0,False,,362.39702143568985,[],"[640, 360]",ColorTask,122.0,104.0,,,HRV,HRV_0219,2022-11-30 19:09:56
,wl-rdm,221,641539,0.0-8.104-0.104,1.0,222.0,,,,,,,[],,,,,,56.4,0.0,u,0.0,True,1482.5,89.0,60.0,40.0,False,,204.6833629572739,[],"[640, 360]",ColorTask,123.0,105.0,,,HRV,HRV_0219,2022-11-30 19:09:56
,wl-rdm,222,644109,0.0-8.105-0.105,1.0,223.0,,,,,,,[],,,,,,50.0,0.0,i,1.0,False,1267.2000000476837,76.0,60.0,40.0,False,,248.34635165837,[],"[640, 360]",ColorTask,122.0,106.0,,,HRV,HRV_0219,2022-11-30 19:09:56
,wl-rdm,223,646311,0.0-8.106-0.106,1.0,224.0,,,,,,,[],,,,,,53.2,1.0,u,0.0,False,895.5,54.0,60.0,40.0,False,,237.22003564424728,[],"[640, 360]",ColorTask,121.0,107.0,,,HRV,HRV_0219,2022-11-30 19:09:56
,wl-rdm,224,648563,0.0-8.107-0.107,1.0,225.0,,,,,,,[],,,,,,87.9,1.0,i,1.0,True,949.8000001907349,57.0,60.0,40.0,False,,238.10736560496926,[],"[640, 360]",ColorTask,122.0,108.0,,,HRV,HRV_0219,2022-11-30 19:09:56
,wl-html-button-response,225,650898,0.0-9.0-0.0,,,,,,,,,,2332.600000143051,,0,,,,,,,,,,,,,,,,,,,,<h3>End of this session. Thank you!</h3><br>,['Close window'],HRV,HRV_0219,2022-11-30 19:09:56
