trialN,stimuli,trialStartTime,trialStartTime_UNIX,stimulus1,stimulus2,stimulus1Bid,stimulus2Bid,delta,selected,rt,rt_UNIX,rt_perfnow,receivedResponse,rsp,trialEndTime,trialDuration,trialEndTime_UNIX,trialDuration_UNIX,exp,subjectId,date
0,"[{'imgObject': {}, 'id': 'mashed potato', 'src': '/static/foodstim60/mashed potato.jpg', 'key': 'u', 'origWidth': 409, 'origHeight': 409, 'width': 409, 'height': 409, 'widthPercent': 0.45, 'rescaleHeight': False, 'trialN': 0, 'loaded': True, 'loadedTime': 2219.0999999046326, 'positionName': 'LEFT', 'positionCoords': [205.4, 155.5], 'bid': 2.68}, {'imgObject': {}, 'id': 'eggsalad', 'src': '/static/foodstim60/eggsalad.jpg', 'key': 'i', 'origWidth': 410, 'origHeight': 409, 'width': 410, 'height': 409, 'widthPercent': 0.45, 'rescaleHeight': False, 'trialN': 0, 'loaded': True, 'loadedTime': 2221.2000000476837, 'positionName': 'RIGHT', 'positionCoords': [665.6, 155.5], 'bid': 2.07}]",2330.5,1669834379275,mashed potato,eggsalad,2.68,2.07,-0.6100000000000003,eggsalad,3145.2999999523163,3146,3145.899999856949,True,i,5990.0,3659.5,1669834382934,3659,HRV,HRV_0219,2022-11-30 18:59:01
1,"[{'imgObject': {}, 'id': 'pear', 'src': '/static/foodstim60/pear.jpg', 'key': 'u', 'origWidth': 411, 'origHeight': 410, 'width': 411, 'height': 410, 'widthPercent': 0.45, 'rescaleHeight': False, 'trialN': 1, 'loaded': True, 'loadedTime': 2224.399999856949, 'positionName': 'LEFT', 'positionCoords': [203.4, 155], 'bid': 5.82}, {'imgObject': {}, 'id': 'chicken nuggets2', 'src': '/static/foodstim60/chicken nuggets2.jpg', 'key': 'i', 'origWidth': 410, 'origHeight': 409, 'width': 410, 'height': 409, 'widthPercent': 0.45, 'rescaleHeight': False, 'trialN': 1, 'loaded': True, 'loadedTime': 2225.7999999523163, 'positionName': 'RIGHT', 'positionCoords': [665.6, 155.5], 'bid': 5.59}]",5990.099999904633,1669834382934,pear,chicken nuggets2,5.82,5.59,-0.23000000000000043,chicken nuggets2,925.9000000953674,927,926.2999999523163,True,i,7433.5,1443.4000000953674,1669834384378,1444,HRV,HRV_0219,2022-11-30 18:59:01
2,"[{'imgObject': {}, 'id': 'blackbeanswithrice', 'src': '/static/foodstim60/blackbeanswithrice.jpg', 'key': 'u', 'origWidth': 410, 'origHeight': 410, 'width': 410, 'height': 410, 'widthPercent': 0.45, 'rescaleHeight': False, 'trialN': 2, 'loaded': True, 'loadedTime': 2229.5999999046326, 'positionName': 'LEFT', 'positionCoords': [204.4, 155], 'bid': 1.25}, {'imgObject': {}, 'id': 'olives', 'src': '/static/foodstim60/olives.jpg', 'key': 'i', 'origWidth': 410, 'origHeight': 410, 'width': 410, 'height': 410, 'widthPercent': 0.45, 'rescaleHeight': False, 'trialN': 2, 'loaded': True, 'loadedTime': 2230.899999856949, 'positionName': 'RIGHT', 'positionCoords': [665.6, 155], 'bid': 1.81}]",7433.700000047684,1669834384378,blackbeanswithrice,olives,1.25,1.81,0.56,olives,1402.5,1403,1402.8999998569489,True,i,9338.200000047684,1904.5,1669834386283,1905,HRV,HRV_0219,2022-11-30 18:59:01
3,"[{'imgObject': {}, 'id': 'avocado', 'src': '/static/foodstim60/avocado.jpg', 'key': 'u', 'origWidth': 409, 'origHeight': 409, 'width': 409, 'height': 409, 'widthPercent': 0.45, 'rescaleHeight': False, 'trialN': 3, 'loaded': True, 'loadedTime': 2232, 'positionName': 'LEFT', 'positionCoords': [205.4, 155.5], 'bid': 1.78}, {'imgObject': {}, 'id': 'pear', 'src': '/static/foodstim60/pear.jpg', 'key': 'i', 'origWidth': 411, 'origHeight': 410, 'width': 411, 'height': 410, 'widthPercent': 0.45, 'rescaleHeight': False, 'trialN': 3, 'loaded': True, 'loadedTime': 2222.2999999523163, 'positionName': 'RIGHT', 'positionCoords': [665.6, 155], 'bid': 5.82}]",9338.5,1669834386283,avocado,pear,1.78,5.82,4.04,pear,977.7999999523163,978,978.3999998569489,True,i,10823.399999856949,1484.8999998569489,1669834387768,1485,HRV,HRV_0219,2022-11-30 18:59:01
4,"[{'imgObject': {}, 'id': 'blueberries', 'src': '/static/foodstim60/blueberries.jpg', 'key': 'u', 'origWidth': 411, 'origHeight': 411, 'width': 411, 'height': 411, 'widthPercent': 0.45, 'rescaleHeight': False, 'trialN': 4, 'loaded': True, 'loadedTime': 2232.5, 'positionName': 'LEFT', 'positionCoords': [203.4, 154.5], 'bid': 3.59}, {'imgObject': {}, 'id': 'cocktailshrimp', 'src': '/static/foodstim60/cocktailshrimp.jpg', 'key': 'i', 'origWidth': 410, 'origHeight': 410, 'width': 410, 'height': 410, 'widthPercent': 0.45, 'rescaleHeight': False, 'trialN': 4, 'loaded': True, 'loadedTime': 2233.399999856949, 'positionName': 'RIGHT', 'positionCoords': [665.6, 155], 'bid': 4.37}]",10823.700000047684,1669834387768,blueberries,cocktailshrimp,3.59,4.37,0.7800000000000002,cocktailshrimp,1111.5,1112,1111.7999999523163,True,i,12456.5,1632.7999999523163,1669834389401,1633,HRV,HRV_0219,2022-11-30 18:59:01
5,"[{'imgObject': {}, 'id': 'cocktailshrimp', 'src': '/static/foodstim60/cocktailshrimp.jpg', 'key': 'u', 'origWidth': 410, 'origHeight': 410, 'width': 410, 'height': 410, 'widthPercent': 0.45, 'rescaleHeight': False, 'trialN': 5, 'loaded': True, 'loadedTime': 2233.5, 'positionName': 'LEFT', 'positionCoords': [204.4, 155], 'bid': 4.37}, {'imgObject': {}, 'id': 'grilled chicken strips', 'src': '/static/foodstim60/grilled chicken strips.jpg', 'key': 'i', 'origWidth': 410, 'origHeight': 411, 'width': 410, 'height': 411, 'widthPercent': 0.45, 'rescaleHeight': False, 'trialN': 5, 'loaded': True, 'loadedTime': 2235.2999999523163, 'positionName': 'RIGHT', 'positionCoords': [665.6, 154.5], 'bid': 5.32}]",12456.799999952316,1669834389401,cocktailshrimp,grilled chicken strips,4.37,5.32,0.9500000000000002,cocktailshrimp,1563.9000000953674,1564,1564.2000000476837,True,u,14533.599999904633,2076.7999999523163,1669834391478,2077,HRV,HRV_0219,2022-11-30 18:59:01
6,"[{'imgObject': {}, 'id': 'cheerios', 'src': '/static/foodstim60/cheerios.jpg', 'key': 'u', 'origWidth': 409, 'origHeight': 410, 'width': 409, 'height': 410, 'widthPercent': 0.45, 'rescaleHeight': False, 'trialN': 6, 'loaded': True, 'loadedTime': 2241.2000000476837, 'positionName': 'LEFT', 'positionCoords': [205.4, 155], 'bid': 3.43}, {'imgObject': {}, 'id': 'granola w milk', 'src': '/static/foodstim60/granola w milk.jpg', 'key': 'i', 'origWidth': 410, 'origHeight': 410, 'width': 410, 'height': 410, 'widthPercent': 0.45, 'rescaleHeight': False, 'trialN': 6, 'loaded': True, 'loadedTime': 2241.5, 'positionName': 'RIGHT', 'positionCoords': [665.6, 155], 'bid': 4.09}]",14533.799999952316,1669834391478,cheerios,granola w milk,3.43,4.09,0.6599999999999997,cheerios,2071.0999999046326,2072,2071.4000000953674,True,u,17114.099999904633,2580.2999999523163,1669834394058,2580,HRV,HRV_0219,2022-11-30 18:59:01
7,"[{'imgObject': {}, 'id': 'cherry tomato', 'src': '/static/foodstim60/cherry tomato.jpg', 'key': 'u', 'origWidth': 410, 'origHeight': 410, 'width': 410, 'height': 410, 'widthPercent': 0.45, 'rescaleHeight': False, 'trialN': 7, 'loaded': True, 'loadedTime': 2252, 'positionName': 'LEFT', 'positionCoords': [204.4, 155], 'bid': 5.12}, {'imgObject': {}, 'id': 'shreddedwheatwithmilk', 'src': '/static/foodstim60/shreddedwheatwithmilk.jpg', 'key': 'i', 'origWidth': 410, 'origHeight': 410, 'width': 410, 'height': 410, 'widthPercent': 0.45, 'rescaleHeight': False, 'trialN': 7, 'loaded': True, 'loadedTime': 2253.7000000476837, 'positionName': 'RIGHT', 'positionCoords': [665.6, 155], 'bid': 6.43}]",17114.200000047684,1669834394059,cherry tomato,shreddedwheatwithmilk,5.12,6.43,1.3099999999999996,shreddedwheatwithmilk,1338.8999998569489,1339,1339.1999998092651,True,i,18956.099999904633,1841.8999998569489,1669834395900,1841,HRV,HRV_0219,2022-11-30 18:59:01
8,"[{'imgObject': {}, 'id': 'mashed potato', 'src': '/static/foodstim60/mashed potato.jpg', 'key': 'u', 'origWidth': 409, 'origHeight': 409, 'width': 409, 'height': 409, 'widthPercent': 0.45, 'rescaleHeight': False, 'trialN': 8, 'loaded': True, 'loadedTime': 2219, 'positionName': 'LEFT', 'positionCoords': [205.4, 155.5], 'bid': 2.68}, {'imgObject': {}, 'id': 'blackbeanswithrice', 'src': '/static/foodstim60/blackbeanswithrice.jpg', 'key': 'i', 'origWidth': 410, 'origHeight': 410, 'width': 410, 'height': 410, 'widthPercent': 0.45, 'rescaleHeight': False, 'trialN': 8, 'loaded': True, 'loadedTime': 2229.5, 'positionName': 'RIGHT', 'positionCoords': [665.6, 155], 'bid': 1.25}]",18956.299999952316,1669834395901,mashed potato,blackbeanswithrice,2.68,1.25,-1.4300000000000002,mashed potato,1281,1281,1281.4000000953674,True,u,20740.799999952316,1784.5,1669834397685,1784,HRV,HRV_0219,2022-11-30 18:59:01
9,"[{'imgObject': {}, 'id': 'olives', 'src': '/static/foodstim60/olives.jpg', 'key': 'u', 'origWidth': 410, 'origHeight': 410, 'width': 410, 'height': 410, 'widthPercent': 0.45, 'rescaleHeight': False, 'trialN': 9, 'loaded': True, 'loadedTime': 2230.7999999523163, 'positionName': 'LEFT', 'positionCoords': [204.4, 155], 'bid': 1.81}, {'imgObject': {}, 'id': 'mango', 'src': '/static/foodstim60/mango.jpg', 'key': 'i', 'origWidth': 411, 'origHeight': 411, 'width': 411, 'height': 411, 'widthPercent': 0.45, 'rescaleHeight': False, 'trialN': 9, 'loaded': True, 'loadedTime': 2254.7999999523163, 'positionName': 'RIGHT', 'positionCoords': [665.6, 154.5], 'bid': 4.5}]",20741.099999904633,1669834397685,olives,mango,1.81,4.5,2.69,mango,832.1000001430511,833,832.2999999523163,True,i,22086.200000047684,1345.1000001430511,1669834399031,1346,HRV,HRV_0219,2022-11-30 18:59:01
10,"[{'imgObject': {}, 'id': 'strawberries', 'src': '/static/foodstim60/strawberries.jpg', 'key': 'u', 'origWidth': 410, 'origHeight': 410, 'width': 410, 'height': 410, 'widthPercent': 0.45, 'rescaleHeight': False, 'trialN': 10, 'loaded': True, 'loadedTime': 2255.2999999523163, 'positionName': 'LEFT', 'positionCoords': [204.4, 155], 'bid': 9.06}, {'imgObject': {}, 'id': 'turkeysandwich', 'src': '/static/foodstim60/turkeysandwich.jpg', 'key': 'i', 'origWidth': 409, 'origHeight': 409, 'width': 409, 'height': 409, 'widthPercent': 0.45, 'rescaleHeight': False, 'trialN': 10, 'loaded': True, 'loadedTime': 2256.0999999046326, 'positionName': 'RIGHT', 'positionCoords': [665.6, 155.5], 'bid': 6.68}]",22086.39999985695,1669834399031,strawberries,turkeysandwich,9.06,6.68,-2.380000000000001,strawberries,1096.9000000953674,1097,1097.1000001430511,True,u,23695.5,1609.1000001430511,1669834400640,1609,HRV,HRV_0219,2022-11-30 18:59:01
11,"[{'imgObject': {}, 'id': 'sweetpotato', 'src': '/static/foodstim60/sweetpotato.jpg', 'key': 'u', 'origWidth': 410, 'origHeight': 410, 'width': 410, 'height': 410, 'widthPercent': 0.45, 'rescaleHeight': False, 'trialN': 11, 'loaded': True, 'loadedTime': 2256.899999856949, 'positionName': 'LEFT', 'positionCoords': [204.4, 155], 'bid': 0.9}, {'imgObject': {}, 'id': 'tacos', 'src': '/static/foodstim60/tacos.jpg', 'key': 'i', 'origWidth': 411, 'origHeight': 411, 'width': 411, 'height': 411, 'widthPercent': 0.45, 'rescaleHeight': False, 'trialN': 11, 'loaded': True, 'loadedTime': 2261.7000000476837, 'positionName': 'RIGHT', 'positionCoords': [665.6, 154.5], 'bid': 3}]",23695.700000047684,1669834400640,sweetpotato,tacos,0.9,3.0,2.1,tacos,1366.0999999046326,1367,1366.3999998569489,True,i,25574.299999952316,1878.5999999046326,1669834402519,1879,HRV,HRV_0219,2022-11-30 18:59:01
12,"[{'imgObject': {}, 'id': 'froot loops w milk', 'src': '/static/foodstim60/froot loops w milk.jpg', 'key': 'u', 'origWidth': 410, 'origHeight': 410, 'width': 410, 'height': 410, 'widthPercent': 0.45, 'rescaleHeight': False, 'trialN': 12, 'loaded': True, 'loadedTime': 2263.0999999046326, 'positionName': 'LEFT', 'positionCoords': [204.4, 155], 'bid': 5.34}, {'imgObject': {}, 'id': 'turkeysandwich', 'src': '/static/foodstim60/turkeysandwich.jpg', 'key': 'i', 'origWidth': 409, 'origHeight': 409, 'width': 409, 'height': 409, 'widthPercent': 0.45, 'rescaleHeight': False, 'trialN': 12, 'loaded': True, 'loadedTime': 2256.399999856949, 'positionName': 'RIGHT', 'positionCoords': [665.6, 155.5], 'bid': 6.68}]",25574.39999985695,1669834402519,froot loops w milk,turkeysandwich,5.34,6.68,1.3399999999999999,turkeysandwich,943.5,944,943.7000000476837,True,i,27028.200000047684,1453.8000001907349,1669834403973,1454,HRV,HRV_0219,2022-11-30 18:59:01
13,"[{'imgObject': {}, 'id': 'rigatoni', 'src': '/static/foodstim60/rigatoni.jpg', 'key': 'u', 'origWidth': 411, 'origHeight': 411, 'width': 411, 'height': 411, 'widthPercent': 0.45, 'rescaleHeight': False, 'trialN': 13, 'loaded': True, 'loadedTime': 2264.899999856949, 'positionName': 'LEFT', 'positionCoords': [203.4, 154.5], 'bid': 1.93}, {'imgObject': {}, 'id': 'edamame', 'src': '/static/foodstim60/edamame.jpg', 'key': 'i', 'origWidth': 409, 'origHeight': 410, 'width': 409, 'height': 410, 'widthPercent': 0.45, 'rescaleHeight': False, 'trialN': 13, 'loaded': True, 'loadedTime': 2273.899999856949, 'positionName': 'RIGHT', 'positionCoords': [665.6, 155], 'bid': 1.25}]",27028.39999985695,1669834403973,rigatoni,edamame,1.93,1.25,-0.6799999999999999,rigatoni,1609.6000001430511,1610,1609.8000001907349,True,u,29156.0,2127.600000143051,1669834406101,2128,HRV,HRV_0219,2022-11-30 18:59:01
14,"[{'imgObject': {}, 'id': 'burger', 'src': '/static/foodstim60/burger.jpg', 'key': 'u', 'origWidth': 409, 'origHeight': 409, 'width': 409, 'height': 409, 'widthPercent': 0.45, 'rescaleHeight': False, 'trialN': 14, 'loaded': True, 'loadedTime': 2274.399999856949, 'positionName': 'LEFT', 'positionCoords': [205.4, 155.5], 'bid': 6.37}, {'imgObject': {}, 'id': 'pear', 'src': '/static/foodstim60/pear.jpg', 'key': 'i', 'origWidth': 411, 'origHeight': 410, 'width': 411, 'height': 410, 'widthPercent': 0.45, 'rescaleHeight': False, 'trialN': 14, 'loaded': True, 'loadedTime': 2223.399999856949, 'positionName': 'RIGHT', 'positionCoords': [665.6, 155], 'bid': 5.82}]",29156.200000047684,1669834406101,burger,pear,6.37,5.82,-0.5499999999999998,burger,1266.0999999046326,1266,1266.3999998569489,True,u,30939.099999904633,1782.8999998569489,1669834407884,1783,HRV,HRV_0219,2022-11-30 18:59:01
15,"[{'imgObject': {}, 'id': 'fruitsalad', 'src': '/static/foodstim60/fruitsalad.jpg', 'key': 'u', 'origWidth': 410, 'origHeight': 410, 'width': 410, 'height': 410, 'widthPercent': 0.45, 'rescaleHeight': False, 'trialN': 15, 'loaded': True, 'loadedTime': 2275.2000000476837, 'positionName': 'LEFT', 'positionCoords': [204.4, 155], 'bid': 5.93}, {'imgObject': {}, 'id': 'shreddedwheatwithmilk', 'src': '/static/foodstim60/shreddedwheatwithmilk.jpg', 'key': 'i', 'origWidth': 410, 'origHeight': 410, 'width': 410, 'height': 410, 'widthPercent': 0.45, 'rescaleHeight': False, 'trialN': 15, 'loaded': True, 'loadedTime': 2252.899999856949, 'positionName': 'RIGHT', 'positionCoords': [665.6, 155], 'bid': 6.43}]",30939.200000047684,1669834407884,fruitsalad,shreddedwheatwithmilk,5.93,6.43,0.5,fruitsalad,1267.1999998092651,1267,1267.5999999046326,True,u,32720.0,1780.7999999523163,1669834409665,1781,HRV,HRV_0219,2022-11-30 18:59:01
16,"[{'imgObject': {}, 'id': 'shreddedwheatwithmilk', 'src': '/static/foodstim60/shreddedwheatwithmilk.jpg', 'key': 'u', 'origWidth': 410, 'origHeight': 410, 'width': 410, 'height': 410, 'widthPercent': 0.45, 'rescaleHeight': False, 'trialN': 16, 'loaded': True, 'loadedTime': 2253.399999856949, 'positionName': 'LEFT', 'positionCoords': [204.4, 155], 'bid': 6.43}, {'imgObject': {}, 'id': 'blueberries', 'src': '/static/foodstim60/blueberries.jpg', 'key': 'i', 'origWidth': 411, 'origHeight': 411, 'width': 411, 'height': 411, 'widthPercent': 0.45, 'rescaleHeight': False, 'trialN': 16, 'loaded': True, 'loadedTime': 2232.0999999046326, 'positionName': 'RIGHT', 'positionCoords': [665.6, 154.5], 'bid': 3.59}]",32720.099999904633,1669834409665,shreddedwheatwithmilk,blueberries,6.43,3.59,-2.84,shreddedwheatwithmilk,1121.2999999523163,1121,1121.6000001430511,True,u,34358.59999990463,1638.5,1669834411303,1638,HRV,HRV_0219,2022-11-30 18:59:01
17,"[{'imgObject': {}, 'id': 'luckycharms', 'src': '/static/foodstim60/luckycharms.jpg', 'key': 'u', 'origWidth': 410, 'origHeight': 409, 'width': 410, 'height': 409, 'widthPercent': 0.45, 'rescaleHeight': False, 'trialN': 17, 'loaded': True, 'loadedTime': 2287.7000000476837, 'positionName': 'LEFT', 'positionCoords': [204.4, 155.5], 'bid': 6.21}, {'imgObject': {}, 'id': 'chicken nuggets2', 'src': '/static/foodstim60/chicken nuggets2.jpg', 'key': 'i', 'origWidth': 410, 'origHeight': 409, 'width': 410, 'height': 409, 'widthPercent': 0.45, 'rescaleHeight': False, 'trialN': 17, 'loaded': True, 'loadedTime': 2226.5999999046326, 'positionName': 'RIGHT', 'positionCoords': [665.6, 155.5], 'bid': 5.59}]",34358.700000047684,1669834411303,luckycharms,chicken nuggets2,6.21,5.59,-0.6200000000000001,chicken nuggets2,880,881,880.3999998569489,True,i,35753.09999990463,1394.3999998569489,1669834412698,1395,HRV,HRV_0219,2022-11-30 18:59:01
18,"[{'imgObject': {}, 'id': 'raspberries', 'src': '/static/foodstim60/raspberries.jpg', 'key': 'u', 'origWidth': 411, 'origHeight': 411, 'width': 411, 'height': 411, 'widthPercent': 0.45, 'rescaleHeight': False, 'trialN': 18, 'loaded': True, 'loadedTime': 2289.2000000476837, 'positionName': 'LEFT', 'positionCoords': [203.4, 154.5], 'bid': 5.8100000000000005}, {'imgObject': {}, 'id': 'corn cob', 'src': '/static/foodstim60/corn cob.jpg', 'key': 'i', 'origWidth': 411, 'origHeight': 411, 'width': 411, 'height': 411, 'widthPercent': 0.45, 'rescaleHeight': False, 'trialN': 18, 'loaded': True, 'loadedTime': 2290.2000000476837, 'positionName': 'RIGHT', 'positionCoords': [665.6, 154.5], 'bid': 5.43}]",35753.299999952316,1669834412698,raspberries,corn cob,5.8100000000000005,5.43,-0.3800000000000008,raspberries,1533.7000000476837,1534,1533.9000000953674,True,u,37804.700000047684,2051.4000000953674,1669834414749,2051,HRV,HRV_0219,2022-11-30 18:59:01
19,"[{'imgObject': {}, 'id': 'bagel and cc', 'src': '/static/foodstim60/bagel and cc.jpg', 'key': 'u', 'origWidth': 410, 'origHeight': 410, 'width': 410, 'height': 410, 'widthPercent': 0.45, 'rescaleHeight': False, 'trialN': 19, 'loaded': True, 'loadedTime': 2292.5, 'positionName': 'LEFT', 'positionCoords': [204.4, 155], 'bid': 4.59}, {'imgObject': {}, 'id': 'orange slices', 'src': '/static/foodstim60/orange slices.jpg', 'key': 'i', 'origWidth': 409, 'origHeight': 410, 'width': 409, 'height': 410, 'widthPercent': 0.45, 'rescaleHeight': False, 'trialN': 19, 'loaded': True, 'loadedTime': 2294.5999999046326, 'positionName': 'RIGHT', 'positionCoords': [665.6, 155], 'bid': 8.68}]",37804.799999952316,1669834414750,bagel and cc,orange slices,4.59,8.68,4.09,orange slices,914.2999999523163,914,914.5999999046326,True,i,39233.5,1428.7000000476837,1669834416178,1428,HRV,HRV_0219,2022-11-30 18:59:01
20,"[{'imgObject': {}, 'id': 'hashbrowns', 'src': '/static/foodstim60/hashbrowns.jpg', 'key': 'u', 'origWidth': 411, 'origHeight': 410, 'width': 411, 'height': 410, 'widthPercent': 0.45, 'rescaleHeight': False, 'trialN': 20, 'loaded': True, 'loadedTime': 2295.899999856949, 'positionName': 'LEFT', 'positionCoords': [203.4, 155], 'bid': 4.6000000000000005}, {'imgObject': {}, 'id': 'chicken nuggets2', 'src': '/static/foodstim60/chicken nuggets2.jpg', 'key': 'i', 'origWidth': 410, 'origHeight': 409, 'width': 410, 'height': 409, 'widthPercent': 0.45, 'rescaleHeight': False, 'trialN': 20, 'loaded': True, 'loadedTime': 2227, 'positionName': 'RIGHT', 'positionCoords': [665.6, 155.5], 'bid': 5.59}]",39233.799999952316,1669834416178,hashbrowns,chicken nuggets2,4.6000000000000005,5.59,0.9899999999999993,chicken nuggets2,909.5,910,909.7000000476837,True,i,40650.700000047684,1416.9000000953674,1669834417595,1417,HRV,HRV_0219,2022-11-30 18:59:01
21,"[{'imgObject': {}, 'id': 'turkey sandwich', 'src': '/static/foodstim60/turkey sandwich.jpg', 'key': 'u', 'origWidth': 409, 'origHeight': 409, 'width': 409, 'height': 409, 'widthPercent': 0.45, 'rescaleHeight': False, 'trialN': 21, 'loaded': True, 'loadedTime': 2297.5, 'positionName': 'LEFT', 'positionCoords': [205.4, 155.5], 'bid': 7.43}, {'imgObject': {}, 'id': 'hotdog w must', 'src': '/static/foodstim60/hotdog w must.jpg', 'key': 'i', 'origWidth': 409, 'origHeight': 409, 'width': 409, 'height': 409, 'widthPercent': 0.45, 'rescaleHeight': False, 'trialN': 21, 'loaded': True, 'loadedTime': 2298, 'positionName': 'RIGHT', 'positionCoords': [665.6, 155.5], 'bid': 7.01}]",40650.89999985695,1669834417596,turkey sandwich,hotdog w must,7.43,7.01,-0.41999999999999993,turkey sandwich,1428.5,1428,1428.8000001907349,True,u,42601.39999985695,1950.5,1669834419546,1950,HRV,HRV_0219,2022-11-30 18:59:01
22,"[{'imgObject': {}, 'id': 'yogurt no spoon', 'src': '/static/foodstim60/yogurt no spoon.jpg', 'key': 'u', 'origWidth': 411, 'origHeight': 410, 'width': 411, 'height': 410, 'widthPercent': 0.45, 'rescaleHeight': False, 'trialN': 22, 'loaded': True, 'loadedTime': 2299.7999999523163, 'positionName': 'LEFT', 'positionCoords': [203.4, 155], 'bid': 6.12}, {'imgObject': {}, 'id': 'banana', 'src': '/static/foodstim60/banana.jpg', 'key': 'i', 'origWidth': 410, 'origHeight': 410, 'width': 410, 'height': 410, 'widthPercent': 0.45, 'rescaleHeight': False, 'trialN': 22, 'loaded': True, 'loadedTime': 2300.399999856949, 'positionName': 'RIGHT', 'positionCoords': [665.6, 155], 'bid': 8.89}]",42601.59999990463,1669834419546,yogurt no spoon,banana,6.12,8.89,2.7700000000000005,banana,1528.1000001430511,1529,1528.2999999523163,True,i,44637.59999990463,2036.0,1669834421582,2036,HRV,HRV_0219,2022-11-30 18:59:01
23,"[{'imgObject': {}, 'id': 'sushi w_condiments', 'src': '/static/foodstim60/sushi w_condiments.jpg', 'key': 'u', 'origWidth': 410, 'origHeight': 410, 'width': 410, 'height': 410, 'widthPercent': 0.45, 'rescaleHeight': False, 'trialN': 23, 'loaded': True, 'loadedTime': 2301.2000000476837, 'positionName': 'LEFT', 'positionCoords': [204.4, 155], 'bid': 4.71}, {'imgObject': {}, 'id': 'mashed potato', 'src': '/static/foodstim60/mashed potato.jpg', 'key': 'i', 'origWidth': 409, 'origHeight': 409, 'width': 409, 'height': 409, 'widthPercent': 0.45, 'rescaleHeight': False, 'trialN': 23, 'loaded': True, 'loadedTime': 2218.7999999523163, 'positionName': 'RIGHT', 'positionCoords': [665.6, 155.5], 'bid': 2.68}]",44637.89999985695,1669834421583,sushi w_condiments,mashed potato,4.71,2.68,-2.03,sushi w_condiments,1561.8000001907349,1562,1562.0,True,u,46716.700000047684,2078.800000190735,1669834423661,2078,HRV,HRV_0219,2022-11-30 18:59:01
24,"[{'imgObject': {}, 'id': 'Grapes', 'src': '/static/foodstim60/Grapes.jpg', 'key': 'u', 'origWidth': 411, 'origHeight': 411, 'width': 411, 'height': 411, 'widthPercent': 0.45, 'rescaleHeight': False, 'trialN': 24, 'loaded': True, 'loadedTime': 2301.899999856949, 'positionName': 'LEFT', 'positionCoords': [203.4, 154.5], 'bid': 8.4}, {'imgObject': {}, 'id': 'steak', 'src': '/static/foodstim60/steak.jpg', 'key': 'i', 'origWidth': 410, 'origHeight': 410, 'width': 410, 'height': 410, 'widthPercent': 0.45, 'rescaleHeight': False, 'trialN': 24, 'loaded': True, 'loadedTime': 2302.899999856949, 'positionName': 'RIGHT', 'positionCoords': [665.6, 155], 'bid': 8.59}]",46716.89999985695,1669834423662,Grapes,steak,8.4,8.59,0.1899999999999995,Grapes,1354.9000000953674,1355,1355.2000000476837,True,u,48591.700000047684,1874.8000001907349,1669834425536,1874,HRV,HRV_0219,2022-11-30 18:59:01
25,"[{'imgObject': {}, 'id': 'grilled chicken strips', 'src': '/static/foodstim60/grilled chicken strips.jpg', 'key': 'u', 'origWidth': 410, 'origHeight': 411, 'width': 410, 'height': 411, 'widthPercent': 0.45, 'rescaleHeight': False, 'trialN': 25, 'loaded': True, 'loadedTime': 2235.5, 'positionName': 'LEFT', 'positionCoords': [204.4, 154.5], 'bid': 5.32}, {'imgObject': {}, 'id': 'cantaloupe', 'src': '/static/foodstim60/cantaloupe.jpg', 'key': 'i', 'origWidth': 409, 'origHeight': 409, 'width': 409, 'height': 409, 'widthPercent': 0.45, 'rescaleHeight': False, 'trialN': 25, 'loaded': True, 'loadedTime': 2303.5, 'positionName': 'RIGHT', 'positionCoords': [665.6, 155.5], 'bid': 1.15}]",48591.799999952316,1669834425537,grilled chicken strips,cantaloupe,5.32,1.15,-4.17,grilled chicken strips,1864.2000000476837,1864,1864.4000000953674,True,u,50971.0,2379.2000000476837,1669834427916,2379,HRV,HRV_0219,2022-11-30 18:59:01
26,"[{'imgObject': {}, 'id': 'veggieswithdip', 'src': '/static/foodstim60/veggieswithdip.jpg', 'key': 'u', 'origWidth': 409, 'origHeight': 409, 'width': 409, 'height': 409, 'widthPercent': 0.45, 'rescaleHeight': False, 'trialN': 26, 'loaded': True, 'loadedTime': 2303.7000000476837, 'positionName': 'LEFT', 'positionCoords': [205.4, 155.5], 'bid': 1.34}, {'imgObject': {}, 'id': 'blackbeanswithrice', 'src': '/static/foodstim60/blackbeanswithrice.jpg', 'key': 'i', 'origWidth': 410, 'origHeight': 410, 'width': 410, 'height': 410, 'widthPercent': 0.45, 'rescaleHeight': False, 'trialN': 26, 'loaded': True, 'loadedTime': 2228.5, 'positionName': 'RIGHT', 'positionCoords': [665.6, 155], 'bid': 1.25}]",50971.200000047684,1669834427916,veggieswithdip,blackbeanswithrice,1.34,1.25,-0.09000000000000008,blackbeanswithrice,1293.1999998092651,1293,1293.5,True,i,52770.700000047684,1799.5,1669834429715,1799,HRV,HRV_0219,2022-11-30 18:59:01
27,"[{'imgObject': {}, 'id': 'chickenfingers', 'src': '/static/foodstim60/chickenfingers.jpg', 'key': 'u', 'origWidth': 410, 'origHeight': 410, 'width': 410, 'height': 410, 'widthPercent': 0.45, 'rescaleHeight': False, 'trialN': 27, 'loaded': True, 'loadedTime': 2305.5999999046326, 'positionName': 'LEFT', 'positionCoords': [204.4, 155], 'bid': 7.81}, {'imgObject': {}, 'id': 'chicken nuggets2', 'src': '/static/foodstim60/chicken nuggets2.jpg', 'key': 'i', 'origWidth': 410, 'origHeight': 409, 'width': 410, 'height': 409, 'widthPercent': 0.45, 'rescaleHeight': False, 'trialN': 27, 'loaded': True, 'loadedTime': 2227.399999856949, 'positionName': 'RIGHT', 'positionCoords': [665.6, 155.5], 'bid': 5.59}]",52770.89999985695,1669834429716,chickenfingers,chicken nuggets2,7.81,5.59,-2.2199999999999998,chickenfingers,1423.5,1423,1423.7000000476837,True,u,54708.89999985695,1938.0,1669834431654,1938,HRV,HRV_0219,2022-11-30 18:59:01
28,"[{'imgObject': {}, 'id': 'fried eggs', 'src': '/static/foodstim60/fried eggs.jpg', 'key': 'u', 'origWidth': 410, 'origHeight': 410, 'width': 410, 'height': 410, 'widthPercent': 0.45, 'rescaleHeight': False, 'trialN': 28, 'loaded': True, 'loadedTime': 2306.2999999523163, 'positionName': 'LEFT', 'positionCoords': [204.4, 155], 'bid': 6.62}, {'imgObject': {}, 'id': 'grilled chicken strips', 'src': '/static/foodstim60/grilled chicken strips.jpg', 'key': 'i', 'origWidth': 410, 'origHeight': 411, 'width': 410, 'height': 411, 'widthPercent': 0.45, 'rescaleHeight': False, 'trialN': 28, 'loaded': True, 'loadedTime': 2235.5999999046326, 'positionName': 'RIGHT', 'positionCoords': [665.6, 154.5], 'bid': 5.32}]",54709.09999990463,1669834431654,fried eggs,grilled chicken strips,6.62,5.32,-1.2999999999999998,fried eggs,1707.7000000476837,1708,1707.9000000953674,True,u,56928.700000047684,2219.600000143051,1669834433873,2219,HRV,HRV_0219,2022-11-30 18:59:01
29,"[{'imgObject': {}, 'id': 'chickenfingers', 'src': '/static/foodstim60/chickenfingers.jpg', 'key': 'u', 'origWidth': 410, 'origHeight': 410, 'width': 410, 'height': 410, 'widthPercent': 0.45, 'rescaleHeight': False, 'trialN': 29, 'loaded': True, 'loadedTime': 2305.7000000476837, 'positionName': 'LEFT', 'positionCoords': [204.4, 155], 'bid': 7.81}, {'imgObject': {}, 'id': 'mac & cheese', 'src': '/static/foodstim60/mac & cheese.jpg', 'key': 'i', 'origWidth': 410, 'origHeight': 410, 'width': 410, 'height': 410, 'widthPercent': 0.45, 'rescaleHeight': False, 'trialN': 29, 'loaded': True, 'loadedTime': 2309.7999999523163, 'positionName': 'RIGHT', 'positionCoords': [665.6, 155], 'bid': 7.81}]",56929.0,1669834433874,chickenfingers,mac & cheese,7.81,7.81,0.0,chickenfingers,1999.8999998569489,2000,2000.3999998569489,True,u,59436.5,2507.5,1669834436381,2507,HRV,HRV_0219,2022-11-30 18:59:01
30,"[{'imgObject': {}, 'id': 'ice cream sundae 002', 'src': '/static/foodstim60/ice cream sundae 002.jpg', 'key': 'u', 'origWidth': 409, 'origHeight': 409, 'width': 409, 'height': 409, 'widthPercent': 0.45, 'rescaleHeight': False, 'trialN': 30, 'loaded': True, 'loadedTime': 2310.7999999523163, 'positionName': 'LEFT', 'positionCoords': [205.4, 155.5], 'bid': 4.0600000000000005}, {'imgObject': {}, 'id': 'burrito', 'src': '/static/foodstim60/burrito.jpg', 'key': 'i', 'origWidth': 410, 'origHeight': 410, 'width': 410, 'height': 410, 'widthPercent': 0.45, 'rescaleHeight': False, 'trialN': 30, 'loaded': True, 'loadedTime': 2311.5, 'positionName': 'RIGHT', 'positionCoords': [665.6, 155], 'bid': 4.0600000000000005}]",59436.700000047684,1669834436381,ice cream sundae 002,burrito,4.0600000000000005,4.0600000000000005,0.0,ice cream sundae 002,1532.5,1533,1532.7999999523163,True,u,61487.700000047684,2051.0,1669834438432,2051,HRV,HRV_0219,2022-11-30 18:59:01
31,"[{'imgObject': {}, 'id': 'mac & cheese', 'src': '/static/foodstim60/mac & cheese.jpg', 'key': 'u', 'origWidth': 410, 'origHeight': 410, 'width': 410, 'height': 410, 'widthPercent': 0.45, 'rescaleHeight': False, 'trialN': 31, 'loaded': True, 'loadedTime': 2307.0999999046326, 'positionName': 'LEFT', 'positionCoords': [204.4, 155], 'bid': 7.81}, {'imgObject': {}, 'id': 'cocktailshrimp', 'src': '/static/foodstim60/cocktailshrimp.jpg', 'key': 'i', 'origWidth': 410, 'origHeight': 410, 'width': 410, 'height': 410, 'widthPercent': 0.45, 'rescaleHeight': False, 'trialN': 31, 'loaded': True, 'loadedTime': 2233, 'positionName': 'RIGHT', 'positionCoords': [665.6, 155], 'bid': 4.37}]",61487.89999985695,1669834438433,mac & cheese,cocktailshrimp,7.81,4.37,-3.4399999999999995,mac & cheese,1209.4000000953674,1209,1209.7000000476837,True,u,63206.799999952316,1718.9000000953674,1669834440152,1719,HRV,HRV_0219,2022-11-30 18:59:01
32,"[{'imgObject': {}, 'id': 'apple slices', 'src': '/static/foodstim60/apple slices.jpg', 'key': 'u', 'origWidth': 409, 'origHeight': 410, 'width': 409, 'height': 410, 'widthPercent': 0.45, 'rescaleHeight': False, 'trialN': 32, 'loaded': True, 'loadedTime': 2312.2000000476837, 'positionName': 'LEFT', 'positionCoords': [205.4, 155], 'bid': 5.92}, {'imgObject': {}, 'id': 'yogurt no spoon', 'src': '/static/foodstim60/yogurt no spoon.jpg', 'key': 'i', 'origWidth': 411, 'origHeight': 410, 'width': 411, 'height': 410, 'widthPercent': 0.45, 'rescaleHeight': False, 'trialN': 32, 'loaded': True, 'loadedTime': 2299.5999999046326, 'positionName': 'RIGHT', 'positionCoords': [665.6, 155], 'bid': 6.12}]",63207.09999990463,1669834440152,apple slices,yogurt no spoon,5.92,6.12,0.20000000000000018,apple slices,2348.600000143051,2349,2348.7999999523163,True,u,66064.5,2857.4000000953674,1669834443009,2857,HRV,HRV_0219,2022-11-30 18:59:01
33,"[{'imgObject': {}, 'id': 'cherries', 'src': '/static/foodstim60/cherries.jpg', 'key': 'u', 'origWidth': 410, 'origHeight': 411, 'width': 410, 'height': 411, 'widthPercent': 0.45, 'rescaleHeight': False, 'trialN': 33, 'loaded': True, 'loadedTime': 2312.899999856949, 'positionName': 'LEFT', 'positionCoords': [204.4, 154.5], 'bid': 8.9}, {'imgObject': {}, 'id': 'raisin bran w milk', 'src': '/static/foodstim60/raisin bran w milk.jpg', 'key': 'i', 'origWidth': 411, 'origHeight': 411, 'width': 411, 'height': 411, 'widthPercent': 0.45, 'rescaleHeight': False, 'trialN': 33, 'loaded': True, 'loadedTime': 2313.7000000476837, 'positionName': 'RIGHT', 'positionCoords': [665.6, 154.5], 'bid': 4.62}]",66064.70000004768,1669834443009,cherries,raisin bran w milk,8.9,4.62,-4.28,cherries,1017.0999999046326,1018,1017.2999999523163,True,u,67594.70000004768,1530.0,1669834444539,1530,HRV,HRV_0219,2022-11-30 18:59:01
34,"[{'imgObject': {}, 'id': 'turkeysandwich', 'src': '/static/foodstim60/turkeysandwich.jpg', 'key': 'u', 'origWidth': 409, 'origHeight': 409, 'width': 409, 'height': 409, 'widthPercent': 0.45, 'rescaleHeight': False, 'trialN': 34, 'loaded': True, 'loadedTime': 2256.0999999046326, 'positionName': 'LEFT', 'positionCoords': [205.4, 155.5], 'bid': 6.68}, {'imgObject': {}, 'id': 'turkey sandwich', 'src': '/static/foodstim60/turkey sandwich.jpg', 'key': 'i', 'origWidth': 409, 'origHeight': 409, 'width': 409, 'height': 409, 'widthPercent': 0.45, 'rescaleHeight': False, 'trialN': 34, 'loaded': True, 'loadedTime': 2298, 'positionName': 'RIGHT', 'positionCoords': [665.6, 155.5], 'bid': 7.43}]",67594.79999995232,1669834444539,turkeysandwich,turkey sandwich,6.68,7.43,0.75,turkey sandwich,1287.2000000476837,1288,1287.5,True,i,69392.59999990463,1797.7999999523163,1669834446337,1798,HRV,HRV_0219,2022-11-30 18:59:01
35,"[{'imgObject': {}, 'id': 'hotdog w must', 'src': '/static/foodstim60/hotdog w must.jpg', 'key': 'u', 'origWidth': 409, 'origHeight': 409, 'width': 409, 'height': 409, 'widthPercent': 0.45, 'rescaleHeight': False, 'trialN': 35, 'loaded': True, 'loadedTime': 2298.7999999523163, 'positionName': 'LEFT', 'positionCoords': [205.4, 155.5], 'bid': 7.01}, {'imgObject': {}, 'id': 'fried eggs', 'src': '/static/foodstim60/fried eggs.jpg', 'key': 'i', 'origWidth': 410, 'origHeight': 410, 'width': 410, 'height': 410, 'widthPercent': 0.45, 'rescaleHeight': False, 'trialN': 35, 'loaded': True, 'loadedTime': 2306.5, 'positionName': 'RIGHT', 'positionCoords': [665.6, 155], 'bid': 6.62}]",69392.79999995232,1669834446337,hotdog w must,fried eggs,7.01,6.62,-0.3899999999999997,fried eggs,1065.2999999523163,1066,1065.5999999046326,True,i,70972.0,1579.2000000476837,1669834447917,1580,HRV,HRV_0219,2022-11-30 18:59:01
36,"[{'imgObject': {}, 'id': 'granola w milk', 'src': '/static/foodstim60/granola w milk.jpg', 'key': 'u', 'origWidth': 410, 'origHeight': 410, 'width': 410, 'height': 410, 'widthPercent': 0.45, 'rescaleHeight': False, 'trialN': 36, 'loaded': True, 'loadedTime': 2242, 'positionName': 'LEFT', 'positionCoords': [204.4, 155], 'bid': 4.09}, {'imgObject': {}, 'id': 'cherry tomato', 'src': '/static/foodstim60/cherry tomato.jpg', 'key': 'i', 'origWidth': 410, 'origHeight': 410, 'width': 410, 'height': 410, 'widthPercent': 0.45, 'rescaleHeight': False, 'trialN': 36, 'loaded': True, 'loadedTime': 2252, 'positionName': 'RIGHT', 'positionCoords': [665.6, 155], 'bid': 5.12}]",70972.29999995232,1669834447917,granola w milk,cherry tomato,4.09,5.12,1.0300000000000002,cherry tomato,1573.7999999523163,1574,1574.0999999046326,True,i,73055.5,2083.2000000476837,1669834450000,2083,HRV,HRV_0219,2022-11-30 18:59:01
37,"[{'imgObject': {}, 'id': 'fruitsalad', 'src': '/static/foodstim60/fruitsalad.jpg', 'key': 'u', 'origWidth': 410, 'origHeight': 410, 'width': 410, 'height': 410, 'widthPercent': 0.45, 'rescaleHeight': False, 'trialN': 37, 'loaded': True, 'loadedTime': 2276.0999999046326, 'positionName': 'LEFT', 'positionCoords': [204.4, 155], 'bid': 5.93}, {'imgObject': {}, 'id': 'orange slices', 'src': '/static/foodstim60/orange slices.jpg', 'key': 'i', 'origWidth': 409, 'origHeight': 410, 'width': 409, 'height': 410, 'widthPercent': 0.45, 'rescaleHeight': False, 'trialN': 37, 'loaded': True, 'loadedTime': 2294.899999856949, 'positionName': 'RIGHT', 'positionCoords': [665.6, 155], 'bid': 8.68}]",73055.79999995232,1669834450000,fruitsalad,orange slices,5.93,8.68,2.75,orange slices,994.5999999046326,995,994.7999999523163,True,i,74566.0,1510.2000000476837,1669834451511,1511,HRV,HRV_0219,2022-11-30 18:59:01
38,"[{'imgObject': {}, 'id': 'Grapes', 'src': '/static/foodstim60/Grapes.jpg', 'key': 'u', 'origWidth': 411, 'origHeight': 411, 'width': 411, 'height': 411, 'widthPercent': 0.45, 'rescaleHeight': False, 'trialN': 38, 'loaded': True, 'loadedTime': 2302, 'positionName': 'LEFT', 'positionCoords': [203.4, 154.5], 'bid': 8.4}, {'imgObject': {}, 'id': 'chickenfingers', 'src': '/static/foodstim60/chickenfingers.jpg', 'key': 'i', 'origWidth': 410, 'origHeight': 410, 'width': 410, 'height': 410, 'widthPercent': 0.45, 'rescaleHeight': False, 'trialN': 38, 'loaded': True, 'loadedTime': 2305.5999999046326, 'positionName': 'RIGHT', 'positionCoords': [665.6, 155], 'bid': 7.81}]",74566.20000004768,1669834451511,Grapes,chickenfingers,8.4,7.81,-0.5900000000000007,chickenfingers,1862.6999998092651,1863,1862.8999998569489,True,i,76932.70000004768,2366.5,1669834453877,2366,HRV,HRV_0219,2022-11-30 18:59:01
39,"[{'imgObject': {}, 'id': 'lox', 'src': '/static/foodstim60/lox.jpg', 'key': 'u', 'origWidth': 410, 'origHeight': 411, 'width': 410, 'height': 411, 'widthPercent': 0.45, 'rescaleHeight': False, 'trialN': 39, 'loaded': True, 'loadedTime': 2315, 'positionName': 'LEFT', 'positionCoords': [204.4, 154.5], 'bid': 0.98}, {'imgObject': {}, 'id': 'sweetpotato', 'src': '/static/foodstim60/sweetpotato.jpg', 'key': 'i', 'origWidth': 410, 'origHeight': 410, 'width': 410, 'height': 410, 'widthPercent': 0.45, 'rescaleHeight': False, 'trialN': 39, 'loaded': True, 'loadedTime': 2257, 'positionName': 'RIGHT', 'positionCoords': [665.6, 155], 'bid': 0.9}]",76932.89999985695,1669834453878,lox,sweetpotato,0.98,0.9,-0.07999999999999996,sweetpotato,1822,1822,1822.3000001907349,True,i,79265.09999990463,2332.2000000476837,1669834456210,2332,HRV,HRV_0219,2022-11-30 18:59:01
40,"[{'imgObject': {}, 'id': 'eggsalad', 'src': '/static/foodstim60/eggsalad.jpg', 'key': 'u', 'origWidth': 410, 'origHeight': 409, 'width': 410, 'height': 409, 'widthPercent': 0.45, 'rescaleHeight': False, 'trialN': 40, 'loaded': True, 'loadedTime': 2220.7999999523163, 'positionName': 'LEFT', 'positionCoords': [204.4, 155.5], 'bid': 2.07}, {'imgObject': {}, 'id': 'kiwi', 'src': '/static/foodstim60/kiwi.jpg', 'key': 'i', 'origWidth': 410, 'origHeight': 410, 'width': 410, 'height': 410, 'widthPercent': 0.45, 'rescaleHeight': False, 'trialN': 40, 'loaded': True, 'loadedTime': 2315.399999856949, 'positionName': 'RIGHT', 'positionCoords': [665.6, 155], 'bid': 2.17}]",79265.20000004768,1669834456210,eggsalad,kiwi,2.07,2.17,0.10000000000000009,kiwi,1521.8999998569489,1522,1522.1999998092651,True,i,81292.09999990463,2026.8999998569489,1669834458237,2027,HRV,HRV_0219,2022-11-30 18:59:01
41,"[{'imgObject': {}, 'id': 'turkeysandwich', 'src': '/static/foodstim60/turkeysandwich.jpg', 'key': 'u', 'origWidth': 409, 'origHeight': 409, 'width': 409, 'height': 409, 'widthPercent': 0.45, 'rescaleHeight': False, 'trialN': 41, 'loaded': True, 'loadedTime': 2255.5999999046326, 'positionName': 'LEFT', 'positionCoords': [205.4, 155.5], 'bid': 6.68}, {'imgObject': {}, 'id': 'Tribe humus pita', 'src': '/static/foodstim60/Tribe humus pita.jpg', 'key': 'i', 'origWidth': 411, 'origHeight': 411, 'width': 411, 'height': 411, 'widthPercent': 0.45, 'rescaleHeight': False, 'trialN': 41, 'loaded': True, 'loadedTime': 2317.399999856949, 'positionName': 'RIGHT', 'positionCoords': [665.6, 154.5], 'bid': 3.95}]",81292.20000004768,1669834458237,turkeysandwich,Tribe humus pita,6.68,3.95,-2.7299999999999995,turkeysandwich,927.0999999046326,927,927.2999999523163,True,u,82733.09999990463,1440.8999998569489,1669834459678,1441,HRV,HRV_0219,2022-11-30 18:59:01
42,"[{'imgObject': {}, 'id': 'ice cream sundae 002', 'src': '/static/foodstim60/ice cream sundae 002.jpg', 'key': 'u', 'origWidth': 409, 'origHeight': 409, 'width': 409, 'height': 409, 'widthPercent': 0.45, 'rescaleHeight': False, 'trialN': 42, 'loaded': True, 'loadedTime': 2310.7000000476837, 'positionName': 'LEFT', 'positionCoords': [205.4, 155.5], 'bid': 4.0600000000000005}, {'imgObject': {}, 'id': 'veggieswithdip', 'src': '/static/foodstim60/veggieswithdip.jpg', 'key': 'i', 'origWidth': 409, 'origHeight': 409, 'width': 409, 'height': 409, 'widthPercent': 0.45, 'rescaleHeight': False, 'trialN': 42, 'loaded': True, 'loadedTime': 2304.2999999523163, 'positionName': 'RIGHT', 'positionCoords': [665.6, 155.5], 'bid': 1.34}]",82733.29999995232,1669834459678,ice cream sundae 002,veggieswithdip,4.0600000000000005,1.34,-2.7200000000000006,ice cream sundae 002,838.0999999046326,838,838.4000000953674,True,u,84081.39999985695,1348.0999999046326,1669834461026,1348,HRV,HRV_0219,2022-11-30 18:59:01
43,"[{'imgObject': {}, 'id': 'cantaloupe', 'src': '/static/foodstim60/cantaloupe.jpg', 'key': 'u', 'origWidth': 409, 'origHeight': 409, 'width': 409, 'height': 409, 'widthPercent': 0.45, 'rescaleHeight': False, 'trialN': 43, 'loaded': True, 'loadedTime': 2303.5999999046326, 'positionName': 'LEFT', 'positionCoords': [205.4, 155.5], 'bid': 1.15}, {'imgObject': {}, 'id': 'bagel plain', 'src': '/static/foodstim60/bagel plain.jpg', 'key': 'i', 'origWidth': 410, 'origHeight': 410, 'width': 410, 'height': 410, 'widthPercent': 0.45, 'rescaleHeight': False, 'trialN': 43, 'loaded': True, 'loadedTime': 2318.899999856949, 'positionName': 'RIGHT', 'positionCoords': [665.6, 155], 'bid': 3.6}]",84081.59999990463,1669834461026,cantaloupe,bagel plain,1.15,3.6,2.45,bagel plain,874,875,874.2000000476837,True,i,85471.09999990463,1389.5,1669834462416,1390,HRV,HRV_0219,2022-11-30 18:59:01
44,"[{'imgObject': {}, 'id': 'eggsalad', 'src': '/static/foodstim60/eggsalad.jpg', 'key': 'u', 'origWidth': 410, 'origHeight': 409, 'width': 410, 'height': 409, 'widthPercent': 0.45, 'rescaleHeight': False, 'trialN': 44, 'loaded': True, 'loadedTime': 2221.7999999523163, 'positionName': 'LEFT', 'positionCoords': [204.4, 155.5], 'bid': 2.07}, {'imgObject': {}, 'id': 'lox', 'src': '/static/foodstim60/lox.jpg', 'key': 'i', 'origWidth': 410, 'origHeight': 411, 'width': 410, 'height': 411, 'widthPercent': 0.45, 'rescaleHeight': False, 'trialN': 44, 'loaded': True, 'loadedTime': 2314.899999856949, 'positionName': 'RIGHT', 'positionCoords': [665.6, 154.5], 'bid': 0.98}]",85471.29999995232,1669834462416,eggsalad,lox,2.07,0.98,-1.0899999999999999,eggsalad,1311.2999999523163,1312,1311.5999999046326,True,u,87297.09999990463,1825.7999999523163,1669834464242,1826,HRV,HRV_0219,2022-11-30 18:59:01
45,"[{'imgObject': {}, 'id': 'bagel and cc', 'src': '/static/foodstim60/bagel and cc.jpg', 'key': 'u', 'origWidth': 410, 'origHeight': 410, 'width': 410, 'height': 410, 'widthPercent': 0.45, 'rescaleHeight': False, 'trialN': 45, 'loaded': True, 'loadedTime': 2291.5999999046326, 'positionName': 'LEFT', 'positionCoords': [204.4, 155], 'bid': 4.59}, {'imgObject': {}, 'id': 'corn cob', 'src': '/static/foodstim60/corn cob.jpg', 'key': 'i', 'origWidth': 411, 'origHeight': 411, 'width': 411, 'height': 411, 'widthPercent': 0.45, 'rescaleHeight': False, 'trialN': 45, 'loaded': True, 'loadedTime': 2291.0999999046326, 'positionName': 'RIGHT', 'positionCoords': [665.6, 154.5], 'bid': 5.43}]",87297.29999995232,1669834464242,bagel and cc,corn cob,4.59,5.43,0.8399999999999999,bagel and cc,2178.7000000476837,2179,2178.9000000953674,True,u,89991.39999985695,2694.0999999046326,1669834466936,2694,HRV,HRV_0219,2022-11-30 18:59:01
46,"[{'imgObject': {}, 'id': 'edamame', 'src': '/static/foodstim60/edamame.jpg', 'key': 'u', 'origWidth': 409, 'origHeight': 410, 'width': 409, 'height': 410, 'widthPercent': 0.45, 'rescaleHeight': False, 'trialN': 46, 'loaded': True, 'loadedTime': 2273.7999999523163, 'positionName': 'LEFT', 'positionCoords': [205.4, 155], 'bid': 1.25}, {'imgObject': {}, 'id': 'tacos', 'src': '/static/foodstim60/tacos.jpg', 'key': 'i', 'origWidth': 411, 'origHeight': 411, 'width': 411, 'height': 411, 'widthPercent': 0.45, 'rescaleHeight': False, 'trialN': 46, 'loaded': True, 'loadedTime': 2261.5999999046326, 'positionName': 'RIGHT', 'positionCoords': [665.6, 154.5], 'bid': 3}]",89991.5,1669834466936,edamame,tacos,1.25,3.0,1.75,tacos,1332.8999998569489,1333,1333.0999999046326,True,i,91838.39999985695,1846.8999998569489,1669834468783,1847,HRV,HRV_0219,2022-11-30 18:59:01
47,"[{'imgObject': {}, 'id': 'tacos', 'src': '/static/foodstim60/tacos.jpg', 'key': 'u', 'origWidth': 411, 'origHeight': 411, 'width': 411, 'height': 411, 'widthPercent': 0.45, 'rescaleHeight': False, 'trialN': 47, 'loaded': True, 'loadedTime': 2261.7000000476837, 'positionName': 'LEFT', 'positionCoords': [203.4, 154.5], 'bid': 3}, {'imgObject': {}, 'id': 'ice cream sundae 002', 'src': '/static/foodstim60/ice cream sundae 002.jpg', 'key': 'i', 'origWidth': 409, 'origHeight': 409, 'width': 409, 'height': 409, 'widthPercent': 0.45, 'rescaleHeight': False, 'trialN': 47, 'loaded': True, 'loadedTime': 2310.7999999523163, 'positionName': 'RIGHT', 'positionCoords': [665.6, 155.5], 'bid': 4.0600000000000005}]",91838.70000004768,1669834468783,tacos,ice cream sundae 002,3.0,4.0600000000000005,1.0600000000000005,ice cream sundae 002,2293.5999999046326,2294,2293.899999856949,True,i,94635.89999985695,2797.199999809265,1669834471581,2798,HRV,HRV_0219,2022-11-30 18:59:01
48,"[{'imgObject': {}, 'id': 'froot loops w milk', 'src': '/static/foodstim60/froot loops w milk.jpg', 'key': 'u', 'origWidth': 410, 'origHeight': 410, 'width': 410, 'height': 410, 'widthPercent': 0.45, 'rescaleHeight': False, 'trialN': 48, 'loaded': True, 'loadedTime': 2262.2999999523163, 'positionName': 'LEFT', 'positionCoords': [204.4, 155], 'bid': 5.34}, {'imgObject': {}, 'id': 'raisin bran w milk', 'src': '/static/foodstim60/raisin bran w milk.jpg', 'key': 'i', 'origWidth': 411, 'origHeight': 411, 'width': 411, 'height': 411, 'widthPercent': 0.45, 'rescaleHeight': False, 'trialN': 48, 'loaded': True, 'loadedTime': 2313.7000000476837, 'positionName': 'RIGHT', 'positionCoords': [665.6, 154.5], 'bid': 4.62}]",94636.09999990463,1669834471581,froot loops w milk,raisin bran w milk,5.34,4.62,-0.7199999999999998,froot loops w milk,1288.5,1289,1288.7999999523163,True,u,96439.0,1802.9000000953674,1669834473384,1803,HRV,HRV_0219,2022-11-30 18:59:01
49,"[{'imgObject': {}, 'id': 'banana', 'src': '/static/foodstim60/banana.jpg', 'key': 'u', 'origWidth': 410, 'origHeight': 410, 'width': 410, 'height': 410, 'widthPercent': 0.45, 'rescaleHeight': False, 'trialN': 49, 'loaded': True, 'loadedTime': 2300.0999999046326, 'positionName': 'LEFT', 'positionCoords': [204.4, 155], 'bid': 8.89}, {'imgObject': {}, 'id': 'turkey sandwich', 'src': '/static/foodstim60/turkey sandwich.jpg', 'key': 'i', 'origWidth': 409, 'origHeight': 409, 'width': 409, 'height': 409, 'widthPercent': 0.45, 'rescaleHeight': False, 'trialN': 49, 'loaded': True, 'loadedTime': 2296.5999999046326, 'positionName': 'RIGHT', 'positionCoords': [665.6, 155.5], 'bid': 7.43}]",96439.09999990463,1669834473384,banana,turkey sandwich,8.89,7.43,-1.4600000000000009,turkey sandwich,703.7000000476837,704,704.0,True,i,97658.59999990463,1219.5,1669834474603,1219,HRV,HRV_0219,2022-11-30 18:59:01
50,"[{'imgObject': {}, 'id': 'orange slices', 'src': '/static/foodstim60/orange slices.jpg', 'key': 'u', 'origWidth': 409, 'origHeight': 410, 'width': 409, 'height': 410, 'widthPercent': 0.45, 'rescaleHeight': False, 'trialN': 50, 'loaded': True, 'loadedTime': 2295, 'positionName': 'LEFT', 'positionCoords': [205.4, 155], 'bid': 8.68}, {'imgObject': {}, 'id': 'rigatoni and sauce', 'src': '/static/foodstim60/rigatoni and sauce.jpg', 'key': 'i', 'origWidth': 410, 'origHeight': 411, 'width': 410, 'height': 411, 'widthPercent': 0.45, 'rescaleHeight': False, 'trialN': 50, 'loaded': True, 'loadedTime': 2320.399999856949, 'positionName': 'RIGHT', 'positionCoords': [665.6, 154.5], 'bid': 6.390000000000001}]",97658.70000004768,1669834474603,orange slices,rigatoni and sauce,8.68,6.390000000000001,-2.289999999999999,orange slices,946,947,946.1999998092651,True,u,99108.39999985695,1449.6999998092651,1669834476053,1450,HRV,HRV_0219,2022-11-30 18:59:01
51,"[{'imgObject': {}, 'id': 'banana', 'src': '/static/foodstim60/banana.jpg', 'key': 'u', 'origWidth': 410, 'origHeight': 410, 'width': 410, 'height': 410, 'widthPercent': 0.45, 'rescaleHeight': False, 'trialN': 51, 'loaded': True, 'loadedTime': 2300.5, 'positionName': 'LEFT', 'positionCoords': [204.4, 155], 'bid': 8.89}, {'imgObject': {}, 'id': 'shreddedwheatwithmilk', 'src': '/static/foodstim60/shreddedwheatwithmilk.jpg', 'key': 'i', 'origWidth': 410, 'origHeight': 410, 'width': 410, 'height': 410, 'widthPercent': 0.45, 'rescaleHeight': False, 'trialN': 51, 'loaded': True, 'loadedTime': 2253.7000000476837, 'positionName': 'RIGHT', 'positionCoords': [665.6, 155], 'bid': 6.43}]",99108.59999990463,1669834476053,banana,shreddedwheatwithmilk,8.89,6.43,-2.460000000000001,banana,1088.2999999523163,1089,1088.5,True,u,100702.70000004768,1594.1000001430511,1669834477647,1594,HRV,HRV_0219,2022-11-30 18:59:01
52,"[{'imgObject': {}, 'id': 'raspberries', 'src': '/static/foodstim60/raspberries.jpg', 'key': 'u', 'origWidth': 411, 'origHeight': 411, 'width': 411, 'height': 411, 'widthPercent': 0.45, 'rescaleHeight': False, 'trialN': 52, 'loaded': True, 'loadedTime': 2289.5999999046326, 'positionName': 'LEFT', 'positionCoords': [203.4, 154.5], 'bid': 5.8100000000000005}, {'imgObject': {}, 'id': 'pear', 'src': '/static/foodstim60/pear.jpg', 'key': 'i', 'origWidth': 411, 'origHeight': 410, 'width': 411, 'height': 410, 'widthPercent': 0.45, 'rescaleHeight': False, 'trialN': 52, 'loaded': True, 'loadedTime': 2223.7000000476837, 'positionName': 'RIGHT', 'positionCoords': [665.6, 155], 'bid': 5.82}]",100702.79999995232,1669834477648,raspberries,pear,5.8100000000000005,5.82,0.009999999999999787,pear,1398.2999999523163,1398,1398.5999999046326,True,i,102611.79999995232,1909.0,1669834479556,1908,HRV,HRV_0219,2022-11-30 18:59:01
53,"[{'imgObject': {}, 'id': 'cherry tomato', 'src': '/static/foodstim60/cherry tomato.jpg', 'key': 'u', 'origWidth': 410, 'origHeight': 410, 'width': 410, 'height': 410, 'widthPercent': 0.45, 'rescaleHeight': False, 'trialN': 53, 'loaded': True, 'loadedTime': 2252.2000000476837, 'positionName': 'LEFT', 'positionCoords': [204.4, 155], 'bid': 5.12}, {'imgObject': {}, 'id': 'froot loops w milk', 'src': '/static/foodstim60/froot loops w milk.jpg', 'key': 'i', 'origWidth': 410, 'origHeight': 410, 'width': 410, 'height': 410, 'widthPercent': 0.45, 'rescaleHeight': False, 'trialN': 53, 'loaded': True, 'loadedTime': 2261.899999856949, 'positionName': 'RIGHT', 'positionCoords': [665.6, 155], 'bid': 5.34}]",102611.79999995232,1669834479557,cherry tomato,froot loops w milk,5.12,5.34,0.21999999999999975,froot loops w milk,1313.4000000953674,1313,1313.5999999046326,True,i,104432.0,1820.2000000476837,1669834481377,1820,HRV,HRV_0219,2022-11-30 18:59:01
54,"[{'imgObject': {}, 'id': 'popsicles', 'src': '/static/foodstim60/popsicles.jpg', 'key': 'u', 'origWidth': 410, 'origHeight': 410, 'width': 410, 'height': 410, 'widthPercent': 0.45, 'rescaleHeight': False, 'trialN': 54, 'loaded': True, 'loadedTime': 2320.5, 'positionName': 'LEFT', 'positionCoords': [204.4, 155], 'bid': 5.0600000000000005}, {'imgObject': {}, 'id': 'mango', 'src': '/static/foodstim60/mango.jpg', 'key': 'i', 'origWidth': 411, 'origHeight': 411, 'width': 411, 'height': 411, 'widthPercent': 0.45, 'rescaleHeight': False, 'trialN': 54, 'loaded': True, 'loadedTime': 2254.5, 'positionName': 'RIGHT', 'positionCoords': [665.6, 154.5], 'bid': 4.5}]",104432.09999990463,1669834481377,popsicles,mango,5.0600000000000005,4.5,-0.5600000000000005,mango,1941.4000000953674,1941,1941.6000001430511,True,i,106880.59999990463,2448.5,1669834483825,2448,HRV,HRV_0219,2022-11-30 18:59:01
55,"[{'imgObject': {}, 'id': 'baked potato', 'src': '/static/foodstim60/baked potato.jpg', 'key': 'u', 'origWidth': 409, 'origHeight': 410, 'width': 409, 'height': 410, 'widthPercent': 0.45, 'rescaleHeight': False, 'trialN': 55, 'loaded': True, 'loadedTime': 2322.5, 'positionName': 'LEFT', 'positionCoords': [205.4, 155], 'bid': 4.93}, {'imgObject': {}, 'id': 'raisin bran w milk', 'src': '/static/foodstim60/raisin bran w milk.jpg', 'key': 'i', 'origWidth': 411, 'origHeight': 411, 'width': 411, 'height': 411, 'widthPercent': 0.45, 'rescaleHeight': False, 'trialN': 55, 'loaded': True, 'loadedTime': 2313.0999999046326, 'positionName': 'RIGHT', 'positionCoords': [665.6, 154.5], 'bid': 4.62}]",106880.89999985695,1669834483826,baked potato,raisin bran w milk,4.93,4.62,-0.3099999999999996,baked potato,1982.7000000476837,1983,1982.9000000953674,True,u,109385.39999985695,2504.5,1669834486330,2504,HRV,HRV_0219,2022-11-30 18:59:01
56,"[{'imgObject': {}, 'id': 'corn cob', 'src': '/static/foodstim60/corn cob.jpg', 'key': 'u', 'origWidth': 411, 'origHeight': 411, 'width': 411, 'height': 411, 'widthPercent': 0.45, 'rescaleHeight': False, 'trialN': 56, 'loaded': True, 'loadedTime': 2291.5, 'positionName': 'LEFT', 'positionCoords': [203.4, 154.5], 'bid': 5.43}, {'imgObject': {}, 'id': 'chicken nuggets2', 'src': '/static/foodstim60/chicken nuggets2.jpg', 'key': 'i', 'origWidth': 410, 'origHeight': 409, 'width': 410, 'height': 409, 'widthPercent': 0.45, 'rescaleHeight': False, 'trialN': 56, 'loaded': True, 'loadedTime': 2227.899999856949, 'positionName': 'RIGHT', 'positionCoords': [665.6, 155.5], 'bid': 5.59}]",109385.5,1669834486330,corn cob,chicken nuggets2,5.43,5.59,0.16000000000000014,chicken nuggets2,1332.2000000476837,1333,1332.3999998569489,True,i,111236.70000004768,1851.2000000476837,1669834488181,1851,HRV,HRV_0219,2022-11-30 18:59:01
57,"[{'imgObject': {}, 'id': 'strawberries', 'src': '/static/foodstim60/strawberries.jpg', 'key': 'u', 'origWidth': 410, 'origHeight': 410, 'width': 410, 'height': 410, 'widthPercent': 0.45, 'rescaleHeight': False, 'trialN': 57, 'loaded': True, 'loadedTime': 2254.7999999523163, 'positionName': 'LEFT', 'positionCoords': [204.4, 155], 'bid': 9.06}, {'imgObject': {}, 'id': 'cherries', 'src': '/static/foodstim60/cherries.jpg', 'key': 'i', 'origWidth': 410, 'origHeight': 411, 'width': 410, 'height': 411, 'widthPercent': 0.45, 'rescaleHeight': False, 'trialN': 57, 'loaded': True, 'loadedTime': 2313, 'positionName': 'RIGHT', 'positionCoords': [665.6, 154.5], 'bid': 8.9}]",111236.79999995232,1669834488182,strawberries,cherries,9.06,8.9,-0.16000000000000014,strawberries,1641.5,1641,1641.5999999046326,True,u,113389.79999995232,2153.0,1669834490335,2153,HRV,HRV_0219,2022-11-30 18:59:01
58,"[{'imgObject': {}, 'id': 'cantaloupe', 'src': '/static/foodstim60/cantaloupe.jpg', 'key': 'u', 'origWidth': 409, 'origHeight': 409, 'width': 409, 'height': 409, 'widthPercent': 0.45, 'rescaleHeight': False, 'trialN': 58, 'loaded': True, 'loadedTime': 2303.5, 'positionName': 'LEFT', 'positionCoords': [205.4, 155.5], 'bid': 1.15}, {'imgObject': {}, 'id': 'seaweed', 'src': '/static/foodstim60/seaweed.jpg', 'key': 'i', 'origWidth': 410, 'origHeight': 410, 'width': 410, 'height': 410, 'widthPercent': 0.45, 'rescaleHeight': False, 'trialN': 58, 'loaded': True, 'loadedTime': 2323.7999999523163, 'positionName': 'RIGHT', 'positionCoords': [665.6, 155], 'bid': 0.98}]",113390.09999990463,1669834490335,cantaloupe,seaweed,1.15,0.98,-0.16999999999999993,cantaloupe,1936.2000000476837,1936,1936.6000001430511,True,u,115843.59999990463,2453.5,1669834492788,2453,HRV,HRV_0219,2022-11-30 18:59:01
59,"[{'imgObject': {}, 'id': 'Grapes', 'src': '/static/foodstim60/Grapes.jpg', 'key': 'u', 'origWidth': 411, 'origHeight': 411, 'width': 411, 'height': 411, 'widthPercent': 0.45, 'rescaleHeight': False, 'trialN': 59, 'loaded': True, 'loadedTime': 2301.399999856949, 'positionName': 'LEFT', 'positionCoords': [203.4, 154.5], 'bid': 8.4}, {'imgObject': {}, 'id': 'fried eggs', 'src': '/static/foodstim60/fried eggs.jpg', 'key': 'i', 'origWidth': 410, 'origHeight': 410, 'width': 410, 'height': 410, 'widthPercent': 0.45, 'rescaleHeight': False, 'trialN': 59, 'loaded': True, 'loadedTime': 2306.2999999523163, 'positionName': 'RIGHT', 'positionCoords': [665.6, 155], 'bid': 6.62}]",115843.79999995232,1669834492788,Grapes,fried eggs,8.4,6.62,-1.7800000000000002,Grapes,1362.7999999523163,1364,1363.2000000476837,True,u,117719.39999985695,1875.5999999046326,1669834494664,1876,HRV,HRV_0219,2022-11-30 18:59:01
60,"[{'imgObject': {}, 'id': 'pear', 'src': '/static/foodstim60/pear.jpg', 'key': 'u', 'origWidth': 411, 'origHeight': 410, 'width': 411, 'height': 410, 'widthPercent': 0.45, 'rescaleHeight': False, 'trialN': 60, 'loaded': True, 'loadedTime': 2223, 'positionName': 'LEFT', 'positionCoords': [203.4, 155], 'bid': 5.82}, {'imgObject': {}, 'id': 'Grapes', 'src': '/static/foodstim60/Grapes.jpg', 'key': 'i', 'origWidth': 411, 'origHeight': 411, 'width': 411, 'height': 411, 'widthPercent': 0.45, 'rescaleHeight': False, 'trialN': 60, 'loaded': True, 'loadedTime': 2302.2000000476837, 'positionName': 'RIGHT', 'positionCoords': [665.6, 154.5], 'bid': 8.4}]",117719.59999990463,1669834494664,pear,Grapes,5.82,8.4,2.58,Grapes,1087.2000000476837,1088,1087.5,True,i,119314.89999985695,1595.2999999523163,1669834496260,1596,HRV,HRV_0219,2022-11-30 18:59:01
61,"[{'imgObject': {}, 'id': 'edamame', 'src': '/static/foodstim60/edamame.jpg', 'key': 'u', 'origWidth': 409, 'origHeight': 410, 'width': 409, 'height': 410, 'widthPercent': 0.45, 'rescaleHeight': False, 'trialN': 61, 'loaded': True, 'loadedTime': 2273.7000000476837, 'positionName': 'LEFT', 'positionCoords': [205.4, 155], 'bid': 1.25}, {'imgObject': {}, 'id': 'roastedpotatoes', 'src': '/static/foodstim60/roastedpotatoes.jpg', 'key': 'i', 'origWidth': 409, 'origHeight': 410, 'width': 409, 'height': 410, 'widthPercent': 0.45, 'rescaleHeight': False, 'trialN': 61, 'loaded': True, 'loadedTime': 2324.5, 'positionName': 'RIGHT', 'positionCoords': [665.6, 155], 'bid': 5.39}]",119315.09999990463,1669834496260,edamame,roastedpotatoes,1.25,5.39,4.14,roastedpotatoes,1038.6000001430511,1039,1038.9000000953674,True,i,120864.89999985695,1549.7999999523163,1669834497810,1550,HRV,HRV_0219,2022-11-30 18:59:01
62,"[{'imgObject': {}, 'id': 'popsicles', 'src': '/static/foodstim60/popsicles.jpg', 'key': 'u', 'origWidth': 410, 'origHeight': 410, 'width': 410, 'height': 410, 'widthPercent': 0.45, 'rescaleHeight': False, 'trialN': 62, 'loaded': True, 'loadedTime': 2321.5999999046326, 'positionName': 'LEFT', 'positionCoords': [204.4, 155], 'bid': 5.0600000000000005}, {'imgObject': {}, 'id': 'sushi w_condiments', 'src': '/static/foodstim60/sushi w_condiments.jpg', 'key': 'i', 'origWidth': 410, 'origHeight': 410, 'width': 410, 'height': 410, 'widthPercent': 0.45, 'rescaleHeight': False, 'trialN': 62, 'loaded': True, 'loadedTime': 2301.399999856949, 'positionName': 'RIGHT', 'positionCoords': [665.6, 155], 'bid': 4.71}]",120865.0,1669834497810,popsicles,sushi w_condiments,5.0600000000000005,4.71,-0.35000000000000053,sushi w_condiments,894,894,894.5,True,i,122281.39999985695,1416.3999998569489,1669834499226,1416,HRV,HRV_0219,2022-11-30 18:59:01
63,"[{'imgObject': {}, 'id': 'omelette', 'src': '/static/foodstim60/omelette.jpg', 'key': 'u', 'origWidth': 410, 'origHeight': 409, 'width': 410, 'height': 409, 'widthPercent': 0.45, 'rescaleHeight': False, 'trialN': 63, 'loaded': True, 'loadedTime': 2324.899999856949, 'positionName': 'LEFT', 'positionCoords': [204.4, 155.5], 'bid': 6.25}, {'imgObject': {}, 'id': 'burger', 'src': '/static/foodstim60/burger.jpg', 'key': 'i', 'origWidth': 409, 'origHeight': 409, 'width': 409, 'height': 409, 'widthPercent': 0.45, 'rescaleHeight': False, 'trialN': 63, 'loaded': True, 'loadedTime': 2274.7999999523163, 'positionName': 'RIGHT', 'positionCoords': [665.6, 155.5], 'bid': 6.37}]",122281.59999990463,1669834499226,omelette,burger,6.25,6.37,0.1200000000000001,burger,2189.7000000476837,2190,2190.0,True,i,124979.20000004768,2697.600000143051,1669834501924,2698,HRV,HRV_0219,2022-11-30 18:59:01
64,"[{'imgObject': {}, 'id': 'seaweed', 'src': '/static/foodstim60/seaweed.jpg', 'key': 'u', 'origWidth': 410, 'origHeight': 410, 'width': 410, 'height': 410, 'widthPercent': 0.45, 'rescaleHeight': False, 'trialN': 64, 'loaded': True, 'loadedTime': 2322.899999856949, 'positionName': 'LEFT', 'positionCoords': [204.4, 155], 'bid': 0.98}, {'imgObject': {}, 'id': 'popsicles', 'src': '/static/foodstim60/popsicles.jpg', 'key': 'i', 'origWidth': 410, 'origHeight': 410, 'width': 410, 'height': 410, 'widthPercent': 0.45, 'rescaleHeight': False, 'trialN': 64, 'loaded': True, 'loadedTime': 2321.2000000476837, 'positionName': 'RIGHT', 'positionCoords': [665.6, 155], 'bid': 5.0600000000000005}]",124979.5,1669834501924,seaweed,popsicles,0.98,5.0600000000000005,4.08,popsicles,900.0999999046326,901,900.2999999523163,True,i,126386.59999990463,1407.0999999046326,1669834503331,1407,HRV,HRV_0219,2022-11-30 18:59:01
65,"[{'imgObject': {}, 'id': 'popsicles', 'src': '/static/foodstim60/popsicles.jpg', 'key': 'u', 'origWidth': 410, 'origHeight': 410, 'width': 410, 'height': 410, 'widthPercent': 0.45, 'rescaleHeight': False, 'trialN': 65, 'loaded': True, 'loadedTime': 2321.2000000476837, 'positionName': 'LEFT', 'positionCoords': [204.4, 155], 'bid': 5.0600000000000005}, {'imgObject': {}, 'id': 'ice cream sundae 002', 'src': '/static/foodstim60/ice cream sundae 002.jpg', 'key': 'i', 'origWidth': 409, 'origHeight': 409, 'width': 409, 'height': 409, 'widthPercent': 0.45, 'rescaleHeight': False, 'trialN': 65, 'loaded': True, 'loadedTime': 2310.5999999046326, 'positionName': 'RIGHT', 'positionCoords': [665.6, 155.5], 'bid': 4.0600000000000005}]",126386.79999995232,1669834503332,popsicles,ice cream sundae 002,5.0600000000000005,4.0600000000000005,-1.0,ice cream sundae 002,1700.7999999523163,1701,1701.0999999046326,True,i,128604.09999990463,2217.2999999523163,1669834505549,2217,HRV,HRV_0219,2022-11-30 18:59:01
66,"[{'imgObject': {}, 'id': 'luckycharms', 'src': '/static/foodstim60/luckycharms.jpg', 'key': 'u', 'origWidth': 410, 'origHeight': 409, 'width': 410, 'height': 409, 'widthPercent': 0.45, 'rescaleHeight': False, 'trialN': 66, 'loaded': True, 'loadedTime': 2288.5, 'positionName': 'LEFT', 'positionCoords': [204.4, 155.5], 'bid': 6.21}, {'imgObject': {}, 'id': 'kiwi', 'src': '/static/foodstim60/kiwi.jpg', 'key': 'i', 'origWidth': 410, 'origHeight': 410, 'width': 410, 'height': 410, 'widthPercent': 0.45, 'rescaleHeight': False, 'trialN': 66, 'loaded': True, 'loadedTime': 2316.5999999046326, 'positionName': 'RIGHT', 'positionCoords': [665.6, 155], 'bid': 2.17}]",128604.29999995232,1669834505549,luckycharms,kiwi,6.21,2.17,-4.04,luckycharms,1075.4000000953674,1076,1075.5999999046326,True,u,130189.20000004768,1584.9000000953674,1669834507134,1585,HRV,HRV_0219,2022-11-30 18:59:01
67,"[{'imgObject': {}, 'id': 'granola w milk', 'src': '/static/foodstim60/granola w milk.jpg', 'key': 'u', 'origWidth': 410, 'origHeight': 410, 'width': 410, 'height': 410, 'widthPercent': 0.45, 'rescaleHeight': False, 'trialN': 67, 'loaded': True, 'loadedTime': 2242, 'positionName': 'LEFT', 'positionCoords': [204.4, 155], 'bid': 4.09}, {'imgObject': {}, 'id': 'cocktailshrimp', 'src': '/static/foodstim60/cocktailshrimp.jpg', 'key': 'i', 'origWidth': 410, 'origHeight': 410, 'width': 410, 'height': 410, 'widthPercent': 0.45, 'rescaleHeight': False, 'trialN': 67, 'loaded': True, 'loadedTime': 2233.7000000476837, 'positionName': 'RIGHT', 'positionCoords': [665.6, 155], 'bid': 4.37}]",130189.39999985695,1669834507134,granola w milk,cocktailshrimp,4.09,4.37,0.28000000000000025,cocktailshrimp,1396.9000000953674,1397,1397.1000001430511,True,i,132094.29999995232,1904.9000000953674,1669834509039,1905,HRV,HRV_0219,2022-11-30 18:59:01
68,"[{'imgObject': {}, 'id': 'lox', 'src': '/static/foodstim60/lox.jpg', 'key': 'u', 'origWidth': 410, 'origHeight': 411, 'width': 410, 'height': 411, 'widthPercent': 0.45, 'rescaleHeight': False, 'trialN': 68, 'loaded': True, 'loadedTime': 2314.2000000476837, 'positionName': 'LEFT', 'positionCoords': [204.4, 154.5], 'bid': 0.98}, {'imgObject': {}, 'id': 'cantaloupe', 'src': '/static/foodstim60/cantaloupe.jpg', 'key': 'i', 'origWidth': 409, 'origHeight': 409, 'width': 409, 'height': 409, 'widthPercent': 0.45, 'rescaleHeight': False, 'trialN': 68, 'loaded': True, 'loadedTime': 2303.5, 'positionName': 'RIGHT', 'positionCoords': [665.6, 155.5], 'bid': 1.15}]",132094.5,1669834509039,lox,cantaloupe,0.98,1.15,0.16999999999999993,cantaloupe,1313.3999998569489,1314,1313.5999999046326,True,i,133920.5,1826.0,1669834510865,1826,HRV,HRV_0219,2022-11-30 18:59:01
69,"[{'imgObject': {}, 'id': 'salmon', 'src': '/static/foodstim60/salmon.jpg', 'key': 'u', 'origWidth': 410, 'origHeight': 409, 'width': 410, 'height': 409, 'widthPercent': 0.45, 'rescaleHeight': False, 'trialN': 69, 'loaded': True, 'loadedTime': 2325.7000000476837, 'positionName': 'LEFT', 'positionCoords': [204.4, 155.5], 'bid': 1.53}, {'imgObject': {}, 'id': 'blueberries', 'src': '/static/foodstim60/blueberries.jpg', 'key': 'i', 'origWidth': 411, 'origHeight': 411, 'width': 411, 'height': 411, 'widthPercent': 0.45, 'rescaleHeight': False, 'trialN': 69, 'loaded': True, 'loadedTime': 2232.7999999523163, 'positionName': 'RIGHT', 'positionCoords': [665.6, 154.5], 'bid': 3.59}]",133920.70000004768,1669834510865,salmon,blueberries,1.53,3.59,2.0599999999999996,salmon,1159.7999999523163,1160,1160.0,True,u,135594.09999990463,1673.3999998569489,1669834512539,1674,HRV,HRV_0219,2022-11-30 18:59:01
70,"[{'imgObject': {}, 'id': 'cheerios', 'src': '/static/foodstim60/cheerios.jpg', 'key': 'u', 'origWidth': 409, 'origHeight': 410, 'width': 409, 'height': 410, 'widthPercent': 0.45, 'rescaleHeight': False, 'trialN': 70, 'loaded': True, 'loadedTime': 2241.2999999523163, 'positionName': 'LEFT', 'positionCoords': [205.4, 155], 'bid': 3.43}, {'imgObject': {}, 'id': 'seaweed', 'src': '/static/foodstim60/seaweed.jpg', 'key': 'i', 'origWidth': 410, 'origHeight': 410, 'width': 410, 'height': 410, 'widthPercent': 0.45, 'rescaleHeight': False, 'trialN': 70, 'loaded': True, 'loadedTime': 2323.7000000476837, 'positionName': 'RIGHT', 'positionCoords': [665.6, 155], 'bid': 0.98}]",135594.09999990463,1669834512539,cheerios,seaweed,3.43,0.98,-2.45,cheerios,1190.4000000953674,1191,1190.7000000476837,True,u,137296.09999990463,1702.0,1669834514241,1702,HRV,HRV_0219,2022-11-30 18:59:01
71,"[{'imgObject': {}, 'id': 'grilled chicken strips', 'src': '/static/foodstim60/grilled chicken strips.jpg', 'key': 'u', 'origWidth': 410, 'origHeight': 411, 'width': 410, 'height': 411, 'widthPercent': 0.45, 'rescaleHeight': False, 'trialN': 71, 'loaded': True, 'loadedTime': 2235.2000000476837, 'positionName': 'LEFT', 'positionCoords': [204.4, 154.5], 'bid': 5.32}, {'imgObject': {}, 'id': 'cherry tomato', 'src': '/static/foodstim60/cherry tomato.jpg', 'key': 'i', 'origWidth': 410, 'origHeight': 410, 'width': 410, 'height': 410, 'widthPercent': 0.45, 'rescaleHeight': False, 'trialN': 71, 'loaded': True, 'loadedTime': 2251.399999856949, 'positionName': 'RIGHT', 'positionCoords': [665.6, 155], 'bid': 5.12}]",137296.29999995232,1669834514241,grilled chicken strips,cherry tomato,5.32,5.12,-0.20000000000000018,grilled chicken strips,1600.2999999523163,1601,1600.5999999046326,True,u,139416.29999995232,2120.0,1669834516361,2120,HRV,HRV_0219,2022-11-30 18:59:01
72,"[{'imgObject': {}, 'id': 'salad w chicken', 'src': '/static/foodstim60/salad w chicken.jpg', 'key': 'u', 'origWidth': 411, 'origHeight': 411, 'width': 411, 'height': 411, 'widthPercent': 0.45, 'rescaleHeight': False, 'trialN': 72, 'loaded': True, 'loadedTime': 2326.5, 'positionName': 'LEFT', 'positionCoords': [203.4, 154.5], 'bid': 1.68}, {'imgObject': {}, 'id': 'olives', 'src': '/static/foodstim60/olives.jpg', 'key': 'i', 'origWidth': 410, 'origHeight': 410, 'width': 410, 'height': 410, 'widthPercent': 0.45, 'rescaleHeight': False, 'trialN': 72, 'loaded': True, 'loadedTime': 2230.399999856949, 'positionName': 'RIGHT', 'positionCoords': [665.6, 155], 'bid': 1.81}]",139416.5,1669834516361,salad w chicken,olives,1.68,1.81,0.13000000000000012,salad w chicken,2619.2999999523163,2620,2619.5999999046326,True,u,142550.70000004768,3134.2000000476837,1669834519495,3134,HRV,HRV_0219,2022-11-30 18:59:01
73,"[{'imgObject': {}, 'id': 'roastedpotatoes', 'src': '/static/foodstim60/roastedpotatoes.jpg', 'key': 'u', 'origWidth': 409, 'origHeight': 410, 'width': 409, 'height': 410, 'widthPercent': 0.45, 'rescaleHeight': False, 'trialN': 73, 'loaded': True, 'loadedTime': 2323.7999999523163, 'positionName': 'LEFT', 'positionCoords': [205.4, 155], 'bid': 5.39}, {'imgObject': {}, 'id': 'hotdog w must', 'src': '/static/foodstim60/hotdog w must.jpg', 'key': 'i', 'origWidth': 409, 'origHeight': 409, 'width': 409, 'height': 409, 'widthPercent': 0.45, 'rescaleHeight': False, 'trialN': 73, 'loaded': True, 'loadedTime': 2298.899999856949, 'positionName': 'RIGHT', 'positionCoords': [665.6, 155.5], 'bid': 7.01}]",142550.89999985695,1669834519496,roastedpotatoes,hotdog w must,5.39,7.01,1.62,roastedpotatoes,1262.3000001907349,1262,1262.6000001430511,True,u,144319.59999990463,1768.7000000476837,1669834521264,1768,HRV,HRV_0219,2022-11-30 18:59:01
74,"[{'imgObject': {}, 'id': 'salmon', 'src': '/static/foodstim60/salmon.jpg', 'key': 'u', 'origWidth': 410, 'origHeight': 409, 'width': 410, 'height': 409, 'widthPercent': 0.45, 'rescaleHeight': False, 'trialN': 74, 'loaded': True, 'loadedTime': 2325.5, 'positionName': 'LEFT', 'positionCoords': [204.4, 155.5], 'bid': 1.53}, {'imgObject': {}, 'id': 'granola w milk', 'src': '/static/foodstim60/granola w milk.jpg', 'key': 'i', 'origWidth': 410, 'origHeight': 410, 'width': 410, 'height': 410, 'widthPercent': 0.45, 'rescaleHeight': False, 'trialN': 74, 'loaded': True, 'loadedTime': 2243, 'positionName': 'RIGHT', 'positionCoords': [665.6, 155], 'bid': 4.09}]",144319.79999995232,1669834521265,salmon,granola w milk,1.53,4.09,2.5599999999999996,salmon,989.5,989,989.7999999523163,True,u,145811.39999985695,1491.5999999046326,1669834522756,1491,HRV,HRV_0219,2022-11-30 18:59:01
75,"[{'imgObject': {}, 'id': 'turkey sandwich', 'src': '/static/foodstim60/turkey sandwich.jpg', 'key': 'u', 'origWidth': 409, 'origHeight': 409, 'width': 409, 'height': 409, 'widthPercent': 0.45, 'rescaleHeight': False, 'trialN': 75, 'loaded': True, 'loadedTime': 2298, 'positionName': 'LEFT', 'positionCoords': [205.4, 155.5], 'bid': 7.43}, {'imgObject': {}, 'id': 'corn cob', 'src': '/static/foodstim60/corn cob.jpg', 'key': 'i', 'origWidth': 411, 'origHeight': 411, 'width': 411, 'height': 411, 'widthPercent': 0.45, 'rescaleHeight': False, 'trialN': 75, 'loaded': True, 'loadedTime': 2291.2999999523163, 'positionName': 'RIGHT', 'positionCoords': [665.6, 154.5], 'bid': 5.43}]",145811.59999990463,1669834522756,turkey sandwich,corn cob,7.43,5.43,-2.0,turkey sandwich,937.7999999523163,938,938.1000001430511,True,u,147255.29999995232,1443.7000000476837,1669834524200,1444,HRV,HRV_0219,2022-11-30 18:59:01
76,"[{'imgObject': {}, 'id': 'banana', 'src': '/static/foodstim60/banana.jpg', 'key': 'u', 'origWidth': 410, 'origHeight': 410, 'width': 410, 'height': 410, 'widthPercent': 0.45, 'rescaleHeight': False, 'trialN': 76, 'loaded': True, 'loadedTime': 2300.399999856949, 'positionName': 'LEFT', 'positionCoords': [204.4, 155], 'bid': 8.89}, {'imgObject': {}, 'id': 'strawberries', 'src': '/static/foodstim60/strawberries.jpg', 'key': 'i', 'origWidth': 410, 'origHeight': 410, 'width': 410, 'height': 410, 'widthPercent': 0.45, 'rescaleHeight': False, 'trialN': 76, 'loaded': True, 'loadedTime': 2255.5999999046326, 'positionName': 'RIGHT', 'positionCoords': [665.6, 155], 'bid': 9.06}]",147255.5,1669834524200,banana,strawberries,8.89,9.06,0.16999999999999993,strawberries,1498.0999999046326,1499,1498.3999998569489,True,i,149259.5,2004.0,1669834526204,2004,HRV,HRV_0219,2022-11-30 18:59:01
77,"[{'imgObject': {}, 'id': 'mashed potato', 'src': '/static/foodstim60/mashed potato.jpg', 'key': 'u', 'origWidth': 409, 'origHeight': 409, 'width': 409, 'height': 409, 'widthPercent': 0.45, 'rescaleHeight': False, 'trialN': 77, 'loaded': True, 'loadedTime': 2219.0999999046326, 'positionName': 'LEFT', 'positionCoords': [205.4, 155.5], 'bid': 2.68}, {'imgObject': {}, 'id': 'tacos', 'src': '/static/foodstim60/tacos.jpg', 'key': 'i', 'origWidth': 411, 'origHeight': 411, 'width': 411, 'height': 411, 'widthPercent': 0.45, 'rescaleHeight': False, 'trialN': 77, 'loaded': True, 'loadedTime': 2260.5999999046326, 'positionName': 'RIGHT', 'positionCoords': [665.6, 154.5], 'bid': 3}]",149259.70000004768,1669834526204,mashed potato,tacos,2.68,3.0,0.31999999999999984,tacos,1226.1999998092651,1227,1226.5,True,i,151000.70000004768,1741.0,1669834527945,1741,HRV,HRV_0219,2022-11-30 18:59:01
78,"[{'imgObject': {}, 'id': 'eggs', 'src': '/static/foodstim60/eggs.jpg', 'key': 'u', 'origWidth': 409, 'origHeight': 409, 'width': 409, 'height': 409, 'widthPercent': 0.45, 'rescaleHeight': False, 'trialN': 78, 'loaded': True, 'loadedTime': 2327.2000000476837, 'positionName': 'LEFT', 'positionCoords': [205.4, 155.5], 'bid': 4.37}, {'imgObject': {}, 'id': 'avocado', 'src': '/static/foodstim60/avocado.jpg', 'key': 'i', 'origWidth': 409, 'origHeight': 409, 'width': 409, 'height': 409, 'widthPercent': 0.45, 'rescaleHeight': False, 'trialN': 78, 'loaded': True, 'loadedTime': 2231.7999999523163, 'positionName': 'RIGHT', 'positionCoords': [665.6, 155.5], 'bid': 1.78}]",151000.79999995232,1669834527946,eggs,avocado,4.37,1.78,-2.59,eggs,1163.0999999046326,1163,1163.2999999523163,True,u,152673.39999985695,1672.5999999046326,1669834529618,1672,HRV,HRV_0219,2022-11-30 18:59:01
79,"[{'imgObject': {}, 'id': 'blackbeanswithrice', 'src': '/static/foodstim60/blackbeanswithrice.jpg', 'key': 'u', 'origWidth': 410, 'origHeight': 410, 'width': 410, 'height': 410, 'widthPercent': 0.45, 'rescaleHeight': False, 'trialN': 79, 'loaded': True, 'loadedTime': 2229.7000000476837, 'positionName': 'LEFT', 'positionCoords': [204.4, 155], 'bid': 1.25}, {'imgObject': {}, 'id': 'Tribe humus pita', 'src': '/static/foodstim60/Tribe humus pita.jpg', 'key': 'i', 'origWidth': 411, 'origHeight': 411, 'width': 411, 'height': 411, 'widthPercent': 0.45, 'rescaleHeight': False, 'trialN': 79, 'loaded': True, 'loadedTime': 2317.399999856949, 'positionName': 'RIGHT', 'positionCoords': [665.6, 154.5], 'bid': 3.95}]",152673.59999990463,1669834529618,blackbeanswithrice,Tribe humus pita,1.25,3.95,2.7,Tribe humus pita,1352.4000000953674,1353,1352.7000000476837,True,i,154531.79999995232,1858.2000000476837,1669834531477,1859,HRV,HRV_0219,2022-11-30 18:59:01
80,"[{'imgObject': {}, 'id': 'Tribe humus pita', 'src': '/static/foodstim60/Tribe humus pita.jpg', 'key': 'u', 'origWidth': 411, 'origHeight': 411, 'width': 411, 'height': 411, 'widthPercent': 0.45, 'rescaleHeight': False, 'trialN': 80, 'loaded': True, 'loadedTime': 2317.5, 'positionName': 'LEFT', 'positionCoords': [203.4, 154.5], 'bid': 3.95}, {'imgObject': {}, 'id': 'bagel plain', 'src': '/static/foodstim60/bagel plain.jpg', 'key': 'i', 'origWidth': 410, 'origHeight': 410, 'width': 410, 'height': 410, 'widthPercent': 0.45, 'rescaleHeight': False, 'trialN': 80, 'loaded': True, 'loadedTime': 2318.5, 'positionName': 'RIGHT', 'positionCoords': [665.6, 155], 'bid': 3.6}]",154531.89999985695,1669834531477,Tribe humus pita,bagel plain,3.95,3.6,-0.3500000000000001,bagel plain,1890.3000001907349,1890,1890.6000001430511,True,i,156938.09999990463,2406.2000000476837,1669834533883,2406,HRV,HRV_0219,2022-11-30 18:59:01
81,"[{'imgObject': {}, 'id': 'hotdog w must', 'src': '/static/foodstim60/hotdog w must.jpg', 'key': 'u', 'origWidth': 409, 'origHeight': 409, 'width': 409, 'height': 409, 'widthPercent': 0.45, 'rescaleHeight': False, 'trialN': 81, 'loaded': True, 'loadedTime': 2299, 'positionName': 'LEFT', 'positionCoords': [205.4, 155.5], 'bid': 7.01}, {'imgObject': {}, 'id': 'apple slices', 'src': '/static/foodstim60/apple slices.jpg', 'key': 'i', 'origWidth': 409, 'origHeight': 410, 'width': 409, 'height': 410, 'widthPercent': 0.45, 'rescaleHeight': False, 'trialN': 81, 'loaded': True, 'loadedTime': 2312.2999999523163, 'positionName': 'RIGHT', 'positionCoords': [665.6, 155], 'bid': 5.92}]",156938.29999995232,1669834533883,hotdog w must,apple slices,7.01,5.92,-1.0899999999999999,apple slices,2112.4000000953674,2113,2112.7000000476837,True,i,159568.20000004768,2629.9000000953674,1669834536513,2630,HRV,HRV_0219,2022-11-30 18:59:01
82,"[{'imgObject': {}, 'id': 'eggsalad', 'src': '/static/foodstim60/eggsalad.jpg', 'key': 'u', 'origWidth': 410, 'origHeight': 409, 'width': 410, 'height': 409, 'widthPercent': 0.45, 'rescaleHeight': False, 'trialN': 82, 'loaded': True, 'loadedTime': 2219.5, 'positionName': 'LEFT', 'positionCoords': [204.4, 155.5], 'bid': 2.07}, {'imgObject': {}, 'id': 'hashbrowns', 'src': '/static/foodstim60/hashbrowns.jpg', 'key': 'i', 'origWidth': 411, 'origHeight': 410, 'width': 411, 'height': 410, 'widthPercent': 0.45, 'rescaleHeight': False, 'trialN': 82, 'loaded': True, 'loadedTime': 2296, 'positionName': 'RIGHT', 'positionCoords': [665.6, 155], 'bid': 4.6000000000000005}]",159568.29999995232,1669834536513,eggsalad,hashbrowns,2.07,4.6000000000000005,2.5300000000000007,eggsalad,3088.5999999046326,3089,3088.9000000953674,True,u,163172.70000004768,3604.4000000953674,1669834540117,3604,HRV,HRV_0219,2022-11-30 18:59:01
83,"[{'imgObject': {}, 'id': 'luckycharms', 'src': '/static/foodstim60/luckycharms.jpg', 'key': 'u', 'origWidth': 410, 'origHeight': 409, 'width': 410, 'height': 409, 'widthPercent': 0.45, 'rescaleHeight': False, 'trialN': 83, 'loaded': True, 'loadedTime': 2288.5, 'positionName': 'LEFT', 'positionCoords': [204.4, 155.5], 'bid': 6.21}, {'imgObject': {}, 'id': 'fruitsalad', 'src': '/static/foodstim60/fruitsalad.jpg', 'key': 'i', 'origWidth': 410, 'origHeight': 410, 'width': 410, 'height': 410, 'widthPercent': 0.45, 'rescaleHeight': False, 'trialN': 83, 'loaded': True, 'loadedTime': 2276.399999856949, 'positionName': 'RIGHT', 'positionCoords': [665.6, 155], 'bid': 5.93}]",163172.89999985695,1669834540118,luckycharms,fruitsalad,6.21,5.93,-0.28000000000000025,fruitsalad,2882.4000000953674,2882,2882.800000190735,True,i,166575.89999985695,3403.0,1669834543521,3403,HRV,HRV_0219,2022-11-30 18:59:01
84,"[{'imgObject': {}, 'id': 'rigatoni and sauce', 'src': '/static/foodstim60/rigatoni and sauce.jpg', 'key': 'u', 'origWidth': 410, 'origHeight': 411, 'width': 410, 'height': 411, 'widthPercent': 0.45, 'rescaleHeight': False, 'trialN': 84, 'loaded': True, 'loadedTime': 2320.399999856949, 'positionName': 'LEFT', 'positionCoords': [204.4, 154.5], 'bid': 6.390000000000001}, {'imgObject': {}, 'id': 'cheerios', 'src': '/static/foodstim60/cheerios.jpg', 'key': 'i', 'origWidth': 409, 'origHeight': 410, 'width': 409, 'height': 410, 'widthPercent': 0.45, 'rescaleHeight': False, 'trialN': 84, 'loaded': True, 'loadedTime': 2241.0999999046326, 'positionName': 'RIGHT', 'positionCoords': [665.6, 155], 'bid': 3.43}]",166576.0,1669834543521,rigatoni and sauce,cheerios,6.390000000000001,3.43,-2.9600000000000004,rigatoni and sauce,2067.5,2068,2067.7999999523163,True,u,169156.70000004768,2580.7000000476837,1669834546101,2580,HRV,HRV_0219,2022-11-30 18:59:01
85,"[{'imgObject': {}, 'id': 'bagel plain', 'src': '/static/foodstim60/bagel plain.jpg', 'key': 'u', 'origWidth': 410, 'origHeight': 410, 'width': 410, 'height': 410, 'widthPercent': 0.45, 'rescaleHeight': False, 'trialN': 85, 'loaded': True, 'loadedTime': 2318.5, 'positionName': 'LEFT', 'positionCoords': [204.4, 155], 'bid': 3.6}, {'imgObject': {}, 'id': 'cheerios', 'src': '/static/foodstim60/cheerios.jpg', 'key': 'i', 'origWidth': 409, 'origHeight': 410, 'width': 409, 'height': 410, 'widthPercent': 0.45, 'rescaleHeight': False, 'trialN': 85, 'loaded': True, 'loadedTime': 2241.5, 'positionName': 'RIGHT', 'positionCoords': [665.6, 155], 'bid': 3.43}]",169156.79999995232,1669834546102,bagel plain,cheerios,3.6,3.43,-0.16999999999999993,bagel plain,2643,2643,2643.2999999523163,True,u,172314.29999995232,3157.5,1669834549259,3157,HRV,HRV_0219,2022-11-30 18:59:01
86,"[{'imgObject': {}, 'id': 'mac & cheese', 'src': '/static/foodstim60/mac & cheese.jpg', 'key': 'u', 'origWidth': 410, 'origHeight': 410, 'width': 410, 'height': 410, 'widthPercent': 0.45, 'rescaleHeight': False, 'trialN': 86, 'loaded': True, 'loadedTime': 2306.5999999046326, 'positionName': 'LEFT', 'positionCoords': [204.4, 155], 'bid': 7.81}, {'imgObject': {}, 'id': 'luckycharms', 'src': '/static/foodstim60/luckycharms.jpg', 'key': 'i', 'origWidth': 410, 'origHeight': 409, 'width': 410, 'height': 409, 'widthPercent': 0.45, 'rescaleHeight': False, 'trialN': 86, 'loaded': True, 'loadedTime': 2288.399999856949, 'positionName': 'RIGHT', 'positionCoords': [665.6, 155.5], 'bid': 6.21}]",172314.5,1669834549259,mac & cheese,luckycharms,7.81,6.21,-1.5999999999999996,NaN,NaN,NaN,,False,NaN,176334.89999985695,4020.399999856949,1669834553280,4021,HRV,HRV_0219,2022-11-30 18:59:01
87,"[{'imgObject': {}, 'id': 'chickenfingers', 'src': '/static/foodstim60/chickenfingers.jpg', 'key': 'u', 'origWidth': 410, 'origHeight': 410, 'width': 410, 'height': 410, 'widthPercent': 0.45, 'rescaleHeight': False, 'trialN': 87, 'loaded': True, 'loadedTime': 2305.7000000476837, 'positionName': 'LEFT', 'positionCoords': [204.4, 155], 'bid': 7.81}, {'imgObject': {}, 'id': 'granola w milk', 'src': '/static/foodstim60/granola w milk.jpg', 'key': 'i', 'origWidth': 410, 'origHeight': 410, 'width': 410, 'height': 410, 'widthPercent': 0.45, 'rescaleHeight': False, 'trialN': 87, 'loaded': True, 'loadedTime': 2242.7000000476837, 'positionName': 'RIGHT', 'positionCoords': [665.6, 155], 'bid': 4.09}]",176335.09999990463,1669834553280,chickenfingers,granola w milk,7.81,4.09,-3.7199999999999998,chickenfingers,865.2999999523163,865,865.6000001430511,True,u,177714.89999985695,1379.7999999523163,1669834554660,1380,HRV,HRV_0219,2022-11-30 18:59:01
88,"[{'imgObject': {}, 'id': 'rigatoni and sauce', 'src': '/static/foodstim60/rigatoni and sauce.jpg', 'key': 'u', 'origWidth': 410, 'origHeight': 411, 'width': 410, 'height': 411, 'widthPercent': 0.45, 'rescaleHeight': False, 'trialN': 88, 'loaded': True, 'loadedTime': 2320.5, 'positionName': 'LEFT', 'positionCoords': [204.4, 154.5], 'bid': 6.390000000000001}, {'imgObject': {}, 'id': 'apple slices', 'src': '/static/foodstim60/apple slices.jpg', 'key': 'i', 'origWidth': 409, 'origHeight': 410, 'width': 409, 'height': 410, 'widthPercent': 0.45, 'rescaleHeight': False, 'trialN': 88, 'loaded': True, 'loadedTime': 2312.2000000476837, 'positionName': 'RIGHT', 'positionCoords': [665.6, 155], 'bid': 5.92}]",177715.0,1669834554660,rigatoni and sauce,apple slices,6.390000000000001,5.92,-0.47000000000000064,rigatoni and sauce,2157.5999999046326,2158,2157.899999856949,True,u,180389.09999990463,2674.0999999046326,1669834557334,2674,HRV,HRV_0219,2022-11-30 18:59:01
89,"[{'imgObject': {}, 'id': 'apple slices', 'src': '/static/foodstim60/apple slices.jpg', 'key': 'u', 'origWidth': 409, 'origHeight': 410, 'width': 409, 'height': 410, 'widthPercent': 0.45, 'rescaleHeight': False, 'trialN': 89, 'loaded': True, 'loadedTime': 2312.2999999523163, 'positionName': 'LEFT', 'positionCoords': [205.4, 155], 'bid': 5.92}, {'imgObject': {}, 'id': 'olives', 'src': '/static/foodstim60/olives.jpg', 'key': 'i', 'origWidth': 410, 'origHeight': 410, 'width': 410, 'height': 410, 'widthPercent': 0.45, 'rescaleHeight': False, 'trialN': 89, 'loaded': True, 'loadedTime': 2231, 'positionName': 'RIGHT', 'positionCoords': [665.6, 155], 'bid': 1.81}]",180389.20000004768,1669834557334,apple slices,olives,5.92,1.81,-4.109999999999999,apple slices,947.5999999046326,948,947.8999998569489,True,u,181843.29999995232,1454.0999999046326,1669834558788,1454,HRV,HRV_0219,2022-11-30 18:59:01
90,"[{'imgObject': {}, 'id': 'rigatoni and sauce', 'src': '/static/foodstim60/rigatoni and sauce.jpg', 'key': 'u', 'origWidth': 410, 'origHeight': 411, 'width': 410, 'height': 411, 'widthPercent': 0.45, 'rescaleHeight': False, 'trialN': 90, 'loaded': True, 'loadedTime': 2319, 'positionName': 'LEFT', 'positionCoords': [204.4, 154.5], 'bid': 6.390000000000001}, {'imgObject': {}, 'id': 'popsicles', 'src': '/static/foodstim60/popsicles.jpg', 'key': 'i', 'origWidth': 410, 'origHeight': 410, 'width': 410, 'height': 410, 'widthPercent': 0.45, 'rescaleHeight': False, 'trialN': 90, 'loaded': True, 'loadedTime': 2321.5, 'positionName': 'RIGHT', 'positionCoords': [665.6, 155], 'bid': 5.0600000000000005}]",186658.20000004768,1669834563603,rigatoni and sauce,popsicles,6.390000000000001,5.0600000000000005,-1.33,rigatoni and sauce,1959.1999998092651,1959,1959.3999998569489,True,u,189131.5,2473.2999999523163,1669834566076,2473,HRV,HRV_0219,2022-11-30 18:59:01
91,"[{'imgObject': {}, 'id': 'bagel plain', 'src': '/static/foodstim60/bagel plain.jpg', 'key': 'u', 'origWidth': 410, 'origHeight': 410, 'width': 410, 'height': 410, 'widthPercent': 0.45, 'rescaleHeight': False, 'trialN': 91, 'loaded': True, 'loadedTime': 2318.5999999046326, 'positionName': 'LEFT', 'positionCoords': [204.4, 155], 'bid': 3.6}, {'imgObject': {}, 'id': 'fried eggs', 'src': '/static/foodstim60/fried eggs.jpg', 'key': 'i', 'origWidth': 410, 'origHeight': 410, 'width': 410, 'height': 410, 'widthPercent': 0.45, 'rescaleHeight': False, 'trialN': 91, 'loaded': True, 'loadedTime': 2305.7999999523163, 'positionName': 'RIGHT', 'positionCoords': [665.6, 155], 'bid': 6.62}]",189131.79999995232,1669834566077,bagel plain,fried eggs,3.6,6.62,3.02,fried eggs,1110,1110,1110.4000000953674,True,i,190761.59999990463,1629.7999999523163,1669834567706,1629,HRV,HRV_0219,2022-11-30 18:59:01
92,"[{'imgObject': {}, 'id': 'bagel and cc', 'src': '/static/foodstim60/bagel and cc.jpg', 'key': 'u', 'origWidth': 410, 'origHeight': 410, 'width': 410, 'height': 410, 'widthPercent': 0.45, 'rescaleHeight': False, 'trialN': 92, 'loaded': True, 'loadedTime': 2292.899999856949, 'positionName': 'LEFT', 'positionCoords': [204.4, 155], 'bid': 4.59}, {'imgObject': {}, 'id': 'eggs', 'src': '/static/foodstim60/eggs.jpg', 'key': 'i', 'origWidth': 409, 'origHeight': 409, 'width': 409, 'height': 409, 'widthPercent': 0.45, 'rescaleHeight': False, 'trialN': 92, 'loaded': True, 'loadedTime': 2327.2000000476837, 'positionName': 'RIGHT', 'positionCoords': [665.6, 155.5], 'bid': 4.37}]",190761.79999995232,1669834567707,bagel and cc,eggs,4.59,4.37,-0.21999999999999975,NaN,NaN,NaN,,False,NaN,194774.70000004768,4012.9000000953674,1669834571719,4012,HRV,HRV_0219,2022-11-30 18:59:01
93,"[{'imgObject': {}, 'id': 'hashbrowns', 'src': '/static/foodstim60/hashbrowns.jpg', 'key': 'u', 'origWidth': 411, 'origHeight': 410, 'width': 411, 'height': 410, 'widthPercent': 0.45, 'rescaleHeight': False, 'trialN': 93, 'loaded': True, 'loadedTime': 2295.2999999523163, 'positionName': 'LEFT', 'positionCoords': [203.4, 155], 'bid': 4.6000000000000005}, {'imgObject': {}, 'id': 'bagel and cc', 'src': '/static/foodstim60/bagel and cc.jpg', 'key': 'i', 'origWidth': 410, 'origHeight': 410, 'width': 410, 'height': 410, 'widthPercent': 0.45, 'rescaleHeight': False, 'trialN': 93, 'loaded': True, 'loadedTime': 2292.0999999046326, 'positionName': 'RIGHT', 'positionCoords': [665.6, 155], 'bid': 4.59}]",194775.09999990463,1669834571720,hashbrowns,bagel and cc,4.6000000000000005,4.59,-0.010000000000000675,bagel and cc,1421.2999999523163,1421,1421.4000000953674,True,i,196699.5,1924.4000000953674,1669834573644,1924,HRV,HRV_0219,2022-11-30 18:59:01
94,"[{'imgObject': {}, 'id': 'turkey sandwich', 'src': '/static/foodstim60/turkey sandwich.jpg', 'key': 'u', 'origWidth': 409, 'origHeight': 409, 'width': 409, 'height': 409, 'widthPercent': 0.45, 'rescaleHeight': False, 'trialN': 94, 'loaded': True, 'loadedTime': 2297.7999999523163, 'positionName': 'LEFT', 'positionCoords': [205.4, 155.5], 'bid': 7.43}, {'imgObject': {}, 'id': 'fruitsalad', 'src': '/static/foodstim60/fruitsalad.jpg', 'key': 'i', 'origWidth': 410, 'origHeight': 410, 'width': 410, 'height': 410, 'widthPercent': 0.45, 'rescaleHeight': False, 'trialN': 94, 'loaded': True, 'loadedTime': 2276.7999999523163, 'positionName': 'RIGHT', 'positionCoords': [665.6, 155], 'bid': 5.93}]",196699.70000004768,1669834573644,turkey sandwich,fruitsalad,7.43,5.93,-1.5,turkey sandwich,1014.6999998092651,1015,1014.8999998569489,True,u,198223.70000004768,1524.0,1669834575168,1524,HRV,HRV_0219,2022-11-30 18:59:01
95,"[{'imgObject': {}, 'id': 'baked potato', 'src': '/static/foodstim60/baked potato.jpg', 'key': 'u', 'origWidth': 409, 'origHeight': 410, 'width': 409, 'height': 410, 'widthPercent': 0.45, 'rescaleHeight': False, 'trialN': 95, 'loaded': True, 'loadedTime': 2321.899999856949, 'positionName': 'LEFT', 'positionCoords': [205.4, 155], 'bid': 4.93}, {'imgObject': {}, 'id': 'burger', 'src': '/static/foodstim60/burger.jpg', 'key': 'i', 'origWidth': 409, 'origHeight': 409, 'width': 409, 'height': 409, 'widthPercent': 0.45, 'rescaleHeight': False, 'trialN': 95, 'loaded': True, 'loadedTime': 2275, 'positionName': 'RIGHT', 'positionCoords': [665.6, 155.5], 'bid': 6.37}]",198223.79999995232,1669834575169,baked potato,burger,4.93,6.37,1.4400000000000004,burger,1090.5,1090,1090.7999999523163,True,i,199829.29999995232,1605.5,1669834576774,1605,HRV,HRV_0219,2022-11-30 18:59:01
96,"[{'imgObject': {}, 'id': 'hotdog w must', 'src': '/static/foodstim60/hotdog w must.jpg', 'key': 'u', 'origWidth': 409, 'origHeight': 409, 'width': 409, 'height': 409, 'widthPercent': 0.45, 'rescaleHeight': False, 'trialN': 96, 'loaded': True, 'loadedTime': 2298.7000000476837, 'positionName': 'LEFT', 'positionCoords': [205.4, 155.5], 'bid': 7.01}, {'imgObject': {}, 'id': 'burrito', 'src': '/static/foodstim60/burrito.jpg', 'key': 'i', 'origWidth': 410, 'origHeight': 410, 'width': 410, 'height': 410, 'widthPercent': 0.45, 'rescaleHeight': False, 'trialN': 96, 'loaded': True, 'loadedTime': 2311.7000000476837, 'positionName': 'RIGHT', 'positionCoords': [665.6, 155], 'bid': 4.0600000000000005}]",199829.5,1669834576774,hotdog w must,burrito,7.01,4.0600000000000005,-2.9499999999999993,hotdog w must,1068.8999998569489,1069,1069.2000000476837,True,u,201409.79999995232,1580.2999999523163,1669834578355,1581,HRV,HRV_0219,2022-11-30 18:59:01
97,"[{'imgObject': {}, 'id': 'avocado', 'src': '/static/foodstim60/avocado.jpg', 'key': 'u', 'origWidth': 409, 'origHeight': 409, 'width': 409, 'height': 409, 'widthPercent': 0.45, 'rescaleHeight': False, 'trialN': 97, 'loaded': True, 'loadedTime': 2232.0999999046326, 'positionName': 'LEFT', 'positionCoords': [205.4, 155.5], 'bid': 1.78}, {'imgObject': {}, 'id': 'salad w chicken', 'src': '/static/foodstim60/salad w chicken.jpg', 'key': 'i', 'origWidth': 411, 'origHeight': 411, 'width': 411, 'height': 411, 'widthPercent': 0.45, 'rescaleHeight': False, 'trialN': 97, 'loaded': True, 'loadedTime': 2326.5, 'positionName': 'RIGHT', 'positionCoords': [665.6, 154.5], 'bid': 1.68}]",201410.0,1669834578355,avocado,salad w chicken,1.78,1.68,-0.10000000000000009,salad w chicken,1256.7000000476837,1257,1257.0,True,i,203176.79999995232,1766.7999999523163,1669834580122,1767,HRV,HRV_0219,2022-11-30 18:59:01
98,"[{'imgObject': {}, 'id': 'salad w chicken', 'src': '/static/foodstim60/salad w chicken.jpg', 'key': 'u', 'origWidth': 411, 'origHeight': 411, 'width': 411, 'height': 411, 'widthPercent': 0.45, 'rescaleHeight': False, 'trialN': 98, 'loaded': True, 'loadedTime': 2326.399999856949, 'positionName': 'LEFT', 'positionCoords': [203.4, 154.5], 'bid': 1.68}, {'imgObject': {}, 'id': 'raspberries', 'src': '/static/foodstim60/raspberries.jpg', 'key': 'i', 'origWidth': 411, 'origHeight': 411, 'width': 411, 'height': 411, 'widthPercent': 0.45, 'rescaleHeight': False, 'trialN': 98, 'loaded': True, 'loadedTime': 2289.2000000476837, 'positionName': 'RIGHT', 'positionCoords': [665.6, 154.5], 'bid': 5.8100000000000005}]",203176.89999985695,1669834580122,salad w chicken,raspberries,1.68,5.8100000000000005,4.130000000000001,salad w chicken,1074.1000001430511,1074,1074.4000000953674,True,u,204754.89999985695,1578.0,1669834581700,1578,HRV,HRV_0219,2022-11-30 18:59:01
99,"[{'imgObject': {}, 'id': 'cherries', 'src': '/static/foodstim60/cherries.jpg', 'key': 'u', 'origWidth': 410, 'origHeight': 411, 'width': 410, 'height': 411, 'widthPercent': 0.45, 'rescaleHeight': False, 'trialN': 99, 'loaded': True, 'loadedTime': 2312.7999999523163, 'positionName': 'LEFT', 'positionCoords': [204.4, 154.5], 'bid': 8.9}, {'imgObject': {}, 'id': 'orange slices', 'src': '/static/foodstim60/orange slices.jpg', 'key': 'i', 'origWidth': 409, 'origHeight': 410, 'width': 409, 'height': 410, 'widthPercent': 0.45, 'rescaleHeight': False, 'trialN': 99, 'loaded': True, 'loadedTime': 2294.2000000476837, 'positionName': 'RIGHT', 'positionCoords': [665.6, 155], 'bid': 8.68}]",204755.09999990463,1669834581700,cherries,orange slices,8.9,8.68,-0.22000000000000064,orange slices,2098.100000143051,2098,2098.2999999523163,True,i,207365.5,2610.4000000953674,1669834584310,2610,HRV,HRV_0219,2022-11-30 18:59:01
100,"[{'imgObject': {}, 'id': 'burger', 'src': '/static/foodstim60/burger.jpg', 'key': 'u', 'origWidth': 409, 'origHeight': 409, 'width': 409, 'height': 409, 'widthPercent': 0.45, 'rescaleHeight': False, 'trialN': 100, 'loaded': True, 'loadedTime': 2275.2000000476837, 'positionName': 'LEFT', 'positionCoords': [205.4, 155.5], 'bid': 6.37}, {'imgObject': {}, 'id': 'tacos', 'src': '/static/foodstim60/tacos.jpg', 'key': 'i', 'origWidth': 411, 'origHeight': 411, 'width': 411, 'height': 411, 'widthPercent': 0.45, 'rescaleHeight': False, 'trialN': 100, 'loaded': True, 'loadedTime': 2261.2999999523163, 'positionName': 'RIGHT', 'positionCoords': [665.6, 154.5], 'bid': 3}]",207365.70000004768,1669834584310,burger,tacos,6.37,3.0,-3.37,burger,1341.6999998092651,1342,1342.0,True,u,209217.79999995232,1852.0999999046326,1669834586163,1853,HRV,HRV_0219,2022-11-30 18:59:01
101,"[{'imgObject': {}, 'id': 'steak', 'src': '/static/foodstim60/steak.jpg', 'key': 'u', 'origWidth': 410, 'origHeight': 410, 'width': 410, 'height': 410, 'widthPercent': 0.45, 'rescaleHeight': False, 'trialN': 101, 'loaded': True, 'loadedTime': 2302.2999999523163, 'positionName': 'LEFT', 'positionCoords': [204.4, 155], 'bid': 8.59}, {'imgObject': {}, 'id': 'mac & cheese', 'src': '/static/foodstim60/mac & cheese.jpg', 'key': 'i', 'origWidth': 410, 'origHeight': 410, 'width': 410, 'height': 410, 'widthPercent': 0.45, 'rescaleHeight': False, 'trialN': 101, 'loaded': True, 'loadedTime': 2307.2000000476837, 'positionName': 'RIGHT', 'positionCoords': [665.6, 155], 'bid': 7.81}]",209218.09999990463,1669834586163,steak,mac & cheese,8.59,7.81,-0.7800000000000002,steak,1481.5,1482,1481.7000000476837,True,u,211203.0,1984.9000000953674,1669834588148,1985,HRV,HRV_0219,2022-11-30 18:59:01
102,"[{'imgObject': {}, 'id': 'hashbrowns', 'src': '/static/foodstim60/hashbrowns.jpg', 'key': 'u', 'origWidth': 411, 'origHeight': 410, 'width': 411, 'height': 410, 'widthPercent': 0.45, 'rescaleHeight': False, 'trialN': 102, 'loaded': True, 'loadedTime': 2296.2000000476837, 'positionName': 'LEFT', 'positionCoords': [203.4, 155], 'bid': 4.6000000000000005}, {'imgObject': {}, 'id': 'banana', 'src': '/static/foodstim60/banana.jpg', 'key': 'i', 'origWidth': 410, 'origHeight': 410, 'width': 410, 'height': 410, 'widthPercent': 0.45, 'rescaleHeight': False, 'trialN': 102, 'loaded': True, 'loadedTime': 2300.399999856949, 'positionName': 'RIGHT', 'positionCoords': [665.6, 155], 'bid': 8.89}]",211203.20000004768,1669834588148,hashbrowns,banana,4.6000000000000005,8.89,4.29,banana,1112.5999999046326,1113,1113.0,True,i,212824.0,1620.7999999523163,1669834589769,1621,HRV,HRV_0219,2022-11-30 18:59:01
103,"[{'imgObject': {}, 'id': 'Tribe humus pita', 'src': '/static/foodstim60/Tribe humus pita.jpg', 'key': 'u', 'origWidth': 411, 'origHeight': 411, 'width': 411, 'height': 411, 'widthPercent': 0.45, 'rescaleHeight': False, 'trialN': 103, 'loaded': True, 'loadedTime': 2317.7999999523163, 'positionName': 'LEFT', 'positionCoords': [203.4, 154.5], 'bid': 3.95}, {'imgObject': {}, 'id': 'blueberries', 'src': '/static/foodstim60/blueberries.jpg', 'key': 'i', 'origWidth': 411, 'origHeight': 411, 'width': 411, 'height': 411, 'widthPercent': 0.45, 'rescaleHeight': False, 'trialN': 103, 'loaded': True, 'loadedTime': 2232.7000000476837, 'positionName': 'RIGHT', 'positionCoords': [665.6, 154.5], 'bid': 3.59}]",212824.20000004768,1669834589769,Tribe humus pita,blueberries,3.95,3.59,-0.3600000000000003,Tribe humus pita,1843.5999999046326,1844,1843.7999999523163,True,u,215173.89999985695,2349.699999809265,1669834592119,2350,HRV,HRV_0219,2022-11-30 18:59:01
104,"[{'imgObject': {}, 'id': 'grilled chicken strips', 'src': '/static/foodstim60/grilled chicken strips.jpg', 'key': 'u', 'origWidth': 410, 'origHeight': 411, 'width': 410, 'height': 411, 'widthPercent': 0.45, 'rescaleHeight': False, 'trialN': 104, 'loaded': True, 'loadedTime': 2235.399999856949, 'positionName': 'LEFT', 'positionCoords': [204.4, 154.5], 'bid': 5.32}, {'imgObject': {}, 'id': 'hashbrowns', 'src': '/static/foodstim60/hashbrowns.jpg', 'key': 'i', 'origWidth': 411, 'origHeight': 410, 'width': 411, 'height': 410, 'widthPercent': 0.45, 'rescaleHeight': False, 'trialN': 104, 'loaded': True, 'loadedTime': 2296.0999999046326, 'positionName': 'RIGHT', 'positionCoords': [665.6, 155], 'bid': 4.6000000000000005}]",215174.09999990463,1669834592119,grilled chicken strips,hashbrowns,5.32,4.6000000000000005,-0.7199999999999998,grilled chicken strips,1590.1000001430511,1590,1590.4000000953674,True,u,217275.09999990463,2101.0,1669834594220,2101,HRV,HRV_0219,2022-11-30 18:59:01
105,"[{'imgObject': {}, 'id': 'baked potato', 'src': '/static/foodstim60/baked potato.jpg', 'key': 'u', 'origWidth': 409, 'origHeight': 410, 'width': 409, 'height': 410, 'widthPercent': 0.45, 'rescaleHeight': False, 'trialN': 105, 'loaded': True, 'loadedTime': 2322.5999999046326, 'positionName': 'LEFT', 'positionCoords': [205.4, 155], 'bid': 4.93}, {'imgObject': {}, 'id': 'eggs', 'src': '/static/foodstim60/eggs.jpg', 'key': 'i', 'origWidth': 409, 'origHeight': 409, 'width': 409, 'height': 409, 'widthPercent': 0.45, 'rescaleHeight': False, 'trialN': 105, 'loaded': True, 'loadedTime': 2326.5999999046326, 'positionName': 'RIGHT', 'positionCoords': [665.6, 155.5], 'bid': 4.37}]",217275.29999995232,1669834594220,baked potato,eggs,4.93,4.37,-0.5599999999999996,baked potato,1987.7999999523163,1988,1988.0999999046326,True,u,219785.0,2509.7000000476837,1669834596730,2510,HRV,HRV_0219,2022-11-30 18:59:01
106,"[{'imgObject': {}, 'id': 'salad w chicken', 'src': '/static/foodstim60/salad w chicken.jpg', 'key': 'u', 'origWidth': 411, 'origHeight': 411, 'width': 411, 'height': 411, 'widthPercent': 0.45, 'rescaleHeight': False, 'trialN': 106, 'loaded': True, 'loadedTime': 2326.399999856949, 'positionName': 'LEFT', 'positionCoords': [203.4, 154.5], 'bid': 1.68}, {'imgObject': {}, 'id': 'bagel plain', 'src': '/static/foodstim60/bagel plain.jpg', 'key': 'i', 'origWidth': 410, 'origHeight': 410, 'width': 410, 'height': 410, 'widthPercent': 0.45, 'rescaleHeight': False, 'trialN': 106, 'loaded': True, 'loadedTime': 2318.5999999046326, 'positionName': 'RIGHT', 'positionCoords': [665.6, 155], 'bid': 3.6}]",219785.20000004768,1669834596730,salad w chicken,bagel plain,1.68,3.6,1.9200000000000002,bagel plain,1779.3999998569489,1780,1779.6999998092651,True,i,222067.70000004768,2282.5,1669834599012,2282,HRV,HRV_0219,2022-11-30 18:59:01
107,"[{'imgObject': {}, 'id': 'sweetpotato', 'src': '/static/foodstim60/sweetpotato.jpg', 'key': 'u', 'origWidth': 410, 'origHeight': 410, 'width': 410, 'height': 410, 'widthPercent': 0.45, 'rescaleHeight': False, 'trialN': 107, 'loaded': True, 'loadedTime': 2257.0999999046326, 'positionName': 'LEFT', 'positionCoords': [204.4, 155], 'bid': 0.9}, {'imgObject': {}, 'id': 'baked potato', 'src': '/static/foodstim60/baked potato.jpg', 'key': 'i', 'origWidth': 409, 'origHeight': 410, 'width': 409, 'height': 410, 'widthPercent': 0.45, 'rescaleHeight': False, 'trialN': 107, 'loaded': True, 'loadedTime': 2322.7999999523163, 'positionName': 'RIGHT', 'positionCoords': [665.6, 155], 'bid': 4.93}]",222067.79999995232,1669834599013,sweetpotato,baked potato,0.9,4.93,4.029999999999999,baked potato,1137,1137,1137.2999999523163,True,i,223709.79999995232,1642.0,1669834600654,1641,HRV,HRV_0219,2022-11-30 18:59:01
