trialN,stimuli,question,trialStartTime,trialStartTime_UNIX,stimulus1,rt,receivedResponse,rating,trialEndTime,trialDuration,stimulus1Loaded,exp,subjectId,date
0,"[{'imgObject': {}, 'id': 'salmon', 'src': '/static/foodstim60/salmon.jpg', 'key': 'NaN', 'origWidth': 410, 'origHeight': 409, 'width': 410, 'height': 409, 'widthPercent': 0.8, 'rescaleHeight': True, 'trialN': 0, 'loaded': True, 'loadedTime': 1815.7000000476837, 'positionName': 'CENTER', 'positionCoords': [635, 320.5]}]",Rate how much you want to eat this food from 0 (least) to 10 (most).,2085.0,1669830184980,salmon,2399.7000000476837,True,6.140000000000001,4484.700000047684,2399.7000000476837,True,HRV,HRV_0065,2022-11-30 17:45:10
1,"[{'imgObject': {}, 'id': 'chickenfingers', 'src': '/static/foodstim60/chickenfingers.jpg', 'key': 'NaN', 'origWidth': 410, 'origHeight': 410, 'width': 410, 'height': 410, 'widthPercent': 0.8, 'rescaleHeight': True, 'trialN': 1, 'loaded': True, 'loadedTime': 1821.7999999523163, 'positionName': 'CENTER', 'positionCoords': [635, 320]}]",Rate how much you want to eat this food from 0 (least) to 10 (most).,4485.799999952316,1669830187380,chickenfingers,1784.0,True,7.83,6269.799999952316,1784.0,True,HRV,HRV_0065,2022-11-30 17:45:10
2,"[{'imgObject': {}, 'id': 'burger', 'src': '/static/foodstim60/burger.jpg', 'key': 'NaN', 'origWidth': 409, 'origHeight': 409, 'width': 409, 'height': 409, 'widthPercent': 0.8, 'rescaleHeight': True, 'trialN': 2, 'loaded': True, 'loadedTime': 1826.3999999761581, 'positionName': 'CENTER', 'positionCoords': [635.5, 320.5]}]",Rate how much you want to eat this food from 0 (least) to 10 (most).,6270.600000023842,1669830189165,burger,3455.1999999284744,True,3.2600000000000002,9725.799999952316,3455.1999999284744,True,HRV,HRV_0065,2022-11-30 17:45:10
3,"[{'imgObject': {}, 'id': 'veggieswithdip', 'src': '/static/foodstim60/veggieswithdip.jpg', 'key': 'NaN', 'origWidth': 409, 'origHeight': 409, 'width': 409, 'height': 409, 'widthPercent': 0.8, 'rescaleHeight': True, 'trialN': 3, 'loaded': True, 'loadedTime': 1829.7000000476837, 'positionName': 'CENTER', 'positionCoords': [635.5, 320.5]}]",Rate how much you want to eat this food from 0 (least) to 10 (most).,9726.399999976158,1669830192621,veggieswithdip,1522.3000000715256,True,6.08,11248.700000047684,1522.3000000715256,True,HRV,HRV_0065,2022-11-30 17:45:10
4,"[{'imgObject': {}, 'id': 'tacos', 'src': '/static/foodstim60/tacos.jpg', 'key': 'NaN', 'origWidth': 411, 'origHeight': 411, 'width': 411, 'height': 411, 'widthPercent': 0.8, 'rescaleHeight': True, 'trialN': 4, 'loaded': True, 'loadedTime': 1833.8999999761581, 'positionName': 'CENTER', 'positionCoords': [634.5, 319.5]}]",Rate how much you want to eat this food from 0 (least) to 10 (most).,11249.399999976158,1669830194144,tacos,1724.3999999761581,True,9.59,12973.799999952316,1724.3999999761581,True,HRV,HRV_0065,2022-11-30 17:45:10
5,"[{'imgObject': {}, 'id': 'mac & cheese', 'src': '/static/foodstim60/mac & cheese.jpg', 'key': 'NaN', 'origWidth': 410, 'origHeight': 410, 'width': 410, 'height': 410, 'widthPercent': 0.8, 'rescaleHeight': True, 'trialN': 5, 'loaded': True, 'loadedTime': 1837.6000000238419, 'positionName': 'CENTER', 'positionCoords': [635, 320]}]",Rate how much you want to eat this food from 0 (least) to 10 (most).,12974.5,1669830195869,mac & cheese,1463.3999999761581,True,5.82,14437.899999976158,1463.3999999761581,True,HRV,HRV_0065,2022-11-30 17:45:10
6,"[{'imgObject': {}, 'id': 'lox', 'src': '/static/foodstim60/lox.jpg', 'key': 'NaN', 'origWidth': 410, 'origHeight': 411, 'width': 410, 'height': 411, 'widthPercent': 0.8, 'rescaleHeight': True, 'trialN': 6, 'loaded': True, 'loadedTime': 1842.3999999761581, 'positionName': 'CENTER', 'positionCoords': [635, 319.5]}]",Rate how much you want to eat this food from 0 (least) to 10 (most).,14438.600000023842,1669830197333,lox,2119.100000023842,True,1.46,16557.700000047684,2119.100000023842,True,HRV,HRV_0065,2022-11-30 17:45:10
7,"[{'imgObject': {}, 'id': 'cheerios', 'src': '/static/foodstim60/cheerios.jpg', 'key': 'NaN', 'origWidth': 409, 'origHeight': 410, 'width': 409, 'height': 410, 'widthPercent': 0.8, 'rescaleHeight': True, 'trialN': 7, 'loaded': True, 'loadedTime': 1845.5, 'positionName': 'CENTER', 'positionCoords': [635.5, 320]}]",Rate how much you want to eat this food from 0 (least) to 10 (most).,16558.600000023842,1669830199453,cheerios,2954.100000023842,True,5.03,19512.700000047684,2954.100000023842,True,HRV,HRV_0065,2022-11-30 17:45:10
8,"[{'imgObject': {}, 'id': 'eggsalad', 'src': '/static/foodstim60/eggsalad.jpg', 'key': 'NaN', 'origWidth': 410, 'origHeight': 409, 'width': 410, 'height': 409, 'widthPercent': 0.8, 'rescaleHeight': True, 'trialN': 8, 'loaded': True, 'loadedTime': 1849.1000000238419, 'positionName': 'CENTER', 'positionCoords': [635, 320.5]}]",Rate how much you want to eat this food from 0 (least) to 10 (most).,19513.600000023842,1669830202408,eggsalad,1739.0,True,3.69,21252.600000023842,1739.0,True,HRV,HRV_0065,2022-11-30 17:45:10
9,"[{'imgObject': {}, 'id': 'cocktailshrimp', 'src': '/static/foodstim60/cocktailshrimp.jpg', 'key': 'NaN', 'origWidth': 410, 'origHeight': 410, 'width': 410, 'height': 410, 'widthPercent': 0.8, 'rescaleHeight': True, 'trialN': 9, 'loaded': True, 'loadedTime': 1852.7999999523163, 'positionName': 'CENTER', 'positionCoords': [635, 320]}]",Rate how much you want to eat this food from 0 (least) to 10 (most).,21253.399999976158,1669830204148,cocktailshrimp,1646.2000000476837,True,8.3,22899.600000023842,1646.2000000476837,True,HRV,HRV_0065,2022-11-30 17:45:10
10,"[{'imgObject': {}, 'id': 'grilled chicken strips', 'src': '/static/foodstim60/grilled chicken strips.jpg', 'key': 'NaN', 'origWidth': 410, 'origHeight': 411, 'width': 410, 'height': 411, 'widthPercent': 0.8, 'rescaleHeight': True, 'trialN': 10, 'loaded': True, 'loadedTime': 1858, 'positionName': 'CENTER', 'positionCoords': [635, 319.5]}]",Rate how much you want to eat this food from 0 (least) to 10 (most).,22900.5,1669830205795,grilled chicken strips,1535.2000000476837,True,5.9,24435.700000047684,1535.2000000476837,True,HRV,HRV_0065,2022-11-30 17:45:10
11,"[{'imgObject': {}, 'id': 'ice cream sundae 002', 'src': '/static/foodstim60/ice cream sundae 002.jpg', 'key': 'NaN', 'origWidth': 409, 'origHeight': 409, 'width': 409, 'height': 409, 'widthPercent': 0.8, 'rescaleHeight': True, 'trialN': 11, 'loaded': True, 'loadedTime': 1864, 'positionName': 'CENTER', 'positionCoords': [635.5, 320.5]}]",Rate how much you want to eat this food from 0 (least) to 10 (most).,24436.399999976158,1669830207331,ice cream sundae 002,1559.3999999761581,True,3.4,25995.799999952316,1559.3999999761581,True,HRV,HRV_0065,2022-11-30 17:45:10
12,"[{'imgObject': {}, 'id': 'hashbrowns', 'src': '/static/foodstim60/hashbrowns.jpg', 'key': 'NaN', 'origWidth': 411, 'origHeight': 410, 'width': 411, 'height': 410, 'widthPercent': 0.8, 'rescaleHeight': True, 'trialN': 12, 'loaded': True, 'loadedTime': 1868.5, 'positionName': 'CENTER', 'positionCoords': [634.5, 320]}]",Rate how much you want to eat this food from 0 (least) to 10 (most).,25996.799999952316,1669830208891,hashbrowns,1578.9000000953674,True,0.6,27575.700000047684,1578.9000000953674,True,HRV,HRV_0065,2022-11-30 17:45:10
13,"[{'imgObject': {}, 'id': 'rigatoni', 'src': '/static/foodstim60/rigatoni.jpg', 'key': 'NaN', 'origWidth': 411, 'origHeight': 411, 'width': 411, 'height': 411, 'widthPercent': 0.8, 'rescaleHeight': True, 'trialN': 13, 'loaded': True, 'loadedTime': 1873.6000000238419, 'positionName': 'CENTER', 'positionCoords': [634.5, 319.5]}]",Rate how much you want to eat this food from 0 (least) to 10 (most).,27576.700000047684,1669830210471,rigatoni,1357.8999999761581,True,0.85,28934.600000023842,1357.8999999761581,True,HRV,HRV_0065,2022-11-30 17:45:10
14,"[{'imgObject': {}, 'id': 'strawberries', 'src': '/static/foodstim60/strawberries.jpg', 'key': 'NaN', 'origWidth': 410, 'origHeight': 410, 'width': 410, 'height': 410, 'widthPercent': 0.8, 'rescaleHeight': True, 'trialN': 14, 'loaded': True, 'loadedTime': 1886.6000000238419, 'positionName': 'CENTER', 'positionCoords': [635, 320]}]",Rate how much you want to eat this food from 0 (least) to 10 (most).,28935.200000047684,1669830211830,strawberries,1823.5,True,7.19,30758.700000047684,1823.5,True,HRV,HRV_0065,2022-11-30 17:45:10
15,"[{'imgObject': {}, 'id': 'salad w chicken', 'src': '/static/foodstim60/salad w chicken.jpg', 'key': 'NaN', 'origWidth': 411, 'origHeight': 411, 'width': 411, 'height': 411, 'widthPercent': 0.8, 'rescaleHeight': True, 'trialN': 15, 'loaded': True, 'loadedTime': 1892.5, 'positionName': 'CENTER', 'positionCoords': [634.5, 319.5]}]",Rate how much you want to eat this food from 0 (least) to 10 (most).,30759.299999952316,1669830213654,salad w chicken,1607.3000000715256,True,9.08,32366.600000023842,1607.3000000715256,True,HRV,HRV_0065,2022-11-30 17:45:10
16,"[{'imgObject': {}, 'id': 'kiwi', 'src': '/static/foodstim60/kiwi.jpg', 'key': 'NaN', 'origWidth': 410, 'origHeight': 410, 'width': 410, 'height': 410, 'widthPercent': 0.8, 'rescaleHeight': True, 'trialN': 16, 'loaded': True, 'loadedTime': 1895.6000000238419, 'positionName': 'CENTER', 'positionCoords': [635, 320]}]",Rate how much you want to eat this food from 0 (least) to 10 (most).,32367.299999952316,1669830215262,kiwi,1786.4000000953674,True,8.01,34153.700000047684,1786.4000000953674,True,HRV,HRV_0065,2022-11-30 17:45:10
17,"[{'imgObject': {}, 'id': 'hotdog w must', 'src': '/static/foodstim60/hotdog w must.jpg', 'key': 'NaN', 'origWidth': 409, 'origHeight': 409, 'width': 409, 'height': 409, 'widthPercent': 0.8, 'rescaleHeight': True, 'trialN': 17, 'loaded': True, 'loadedTime': 1901, 'positionName': 'CENTER', 'positionCoords': [635.5, 320.5]}]",Rate how much you want to eat this food from 0 (least) to 10 (most).,34154.299999952316,1669830217049,hotdog w must,1631.3000000715256,True,2.42,35785.60000002384,1631.3000000715256,True,HRV,HRV_0065,2022-11-30 17:45:10
18,"[{'imgObject': {}, 'id': 'blackbeanswithrice', 'src': '/static/foodstim60/blackbeanswithrice.jpg', 'key': 'NaN', 'origWidth': 410, 'origHeight': 410, 'width': 410, 'height': 410, 'widthPercent': 0.8, 'rescaleHeight': True, 'trialN': 18, 'loaded': True, 'loadedTime': 1908.6000000238419, 'positionName': 'CENTER', 'positionCoords': [635, 320]}]",Rate how much you want to eat this food from 0 (least) to 10 (most).,35786.299999952316,1669830218681,blackbeanswithrice,1424.3000000715256,True,1.34,37210.60000002384,1424.3000000715256,True,HRV,HRV_0065,2022-11-30 17:45:10
19,"[{'imgObject': {}, 'id': 'omelette', 'src': '/static/foodstim60/omelette.jpg', 'key': 'NaN', 'origWidth': 410, 'origHeight': 409, 'width': 410, 'height': 409, 'widthPercent': 0.8, 'rescaleHeight': True, 'trialN': 19, 'loaded': True, 'loadedTime': 1912.7000000476837, 'positionName': 'CENTER', 'positionCoords': [635, 320.5]}]",Rate how much you want to eat this food from 0 (least) to 10 (most).,37211.299999952316,1669830220106,omelette,1576.2000000476837,True,1.17,38787.5,1576.2000000476837,True,HRV,HRV_0065,2022-11-30 17:45:10
20,"[{'imgObject': {}, 'id': 'baked potato', 'src': '/static/foodstim60/baked potato.jpg', 'key': 'NaN', 'origWidth': 409, 'origHeight': 410, 'width': 409, 'height': 410, 'widthPercent': 0.8, 'rescaleHeight': True, 'trialN': 20, 'loaded': True, 'loadedTime': 1916.6000000238419, 'positionName': 'CENTER', 'positionCoords': [635.5, 320]}]",Rate how much you want to eat this food from 0 (least) to 10 (most).,38788.299999952316,1669830221683,baked potato,1548.4000000953674,True,6.41,40336.700000047684,1548.4000000953674,True,HRV,HRV_0065,2022-11-30 17:45:10
21,"[{'imgObject': {}, 'id': 'edamame', 'src': '/static/foodstim60/edamame.jpg', 'key': 'NaN', 'origWidth': 409, 'origHeight': 410, 'width': 409, 'height': 410, 'widthPercent': 0.8, 'rescaleHeight': True, 'trialN': 21, 'loaded': True, 'loadedTime': 1919.8999999761581, 'positionName': 'CENTER', 'positionCoords': [635.5, 320]}]",Rate how much you want to eat this food from 0 (least) to 10 (most).,40337.200000047684,1669830223232,edamame,1603.5,True,0.79,41940.700000047684,1603.5,True,HRV,HRV_0065,2022-11-30 17:45:10
22,"[{'imgObject': {}, 'id': 'bagel plain', 'src': '/static/foodstim60/bagel plain.jpg', 'key': 'NaN', 'origWidth': 410, 'origHeight': 410, 'width': 410, 'height': 410, 'widthPercent': 0.8, 'rescaleHeight': True, 'trialN': 22, 'loaded': True, 'loadedTime': 1923.6000000238419, 'positionName': 'CENTER', 'positionCoords': [635, 320]}]",Rate how much you want to eat this food from 0 (least) to 10 (most).,41941.299999952316,1669830224836,bagel plain,1763.2000000476837,True,1.94,43704.5,1763.2000000476837,True,HRV,HRV_0065,2022-11-30 17:45:10
23,"[{'imgObject': {}, 'id': 'raisin bran w milk', 'src': '/static/foodstim60/raisin bran w milk.jpg', 'key': 'NaN', 'origWidth': 411, 'origHeight': 411, 'width': 411, 'height': 411, 'widthPercent': 0.8, 'rescaleHeight': True, 'trialN': 23, 'loaded': True, 'loadedTime': 1927.5, 'positionName': 'CENTER', 'positionCoords': [634.5, 319.5]}]",Rate how much you want to eat this food from 0 (least) to 10 (most).,43705.10000002384,1669830226600,raisin bran w milk,1841.5,True,6.47,45546.60000002384,1841.5,True,HRV,HRV_0065,2022-11-30 17:45:10
24,"[{'imgObject': {}, 'id': 'olives', 'src': '/static/foodstim60/olives.jpg', 'key': 'NaN', 'origWidth': 410, 'origHeight': 410, 'width': 410, 'height': 410, 'widthPercent': 0.8, 'rescaleHeight': True, 'trialN': 24, 'loaded': True, 'loadedTime': 1930.8999999761581, 'positionName': 'CENTER', 'positionCoords': [635, 320]}]",Rate how much you want to eat this food from 0 (least) to 10 (most).,45547.200000047684,1669830228442,olives,2731.5999999046326,True,1.45,48278.799999952316,2731.5999999046326,True,HRV,HRV_0065,2022-11-30 17:45:10
25,"[{'imgObject': {}, 'id': 'rigatoni and sauce', 'src': '/static/foodstim60/rigatoni and sauce.jpg', 'key': 'NaN', 'origWidth': 410, 'origHeight': 411, 'width': 410, 'height': 411, 'widthPercent': 0.8, 'rescaleHeight': True, 'trialN': 25, 'loaded': True, 'loadedTime': 1933.8999999761581, 'positionName': 'CENTER', 'positionCoords': [635, 319.5]}]",Rate how much you want to eat this food from 0 (least) to 10 (most).,48279.39999997616,1669830231174,rigatoni and sauce,3581.3000000715256,True,4.94,51860.700000047684,3581.3000000715256,True,HRV,HRV_0065,2022-11-30 17:45:10
26,"[{'imgObject': {}, 'id': 'Tribe humus pita', 'src': '/static/foodstim60/Tribe humus pita.jpg', 'key': 'NaN', 'origWidth': 411, 'origHeight': 411, 'width': 411, 'height': 411, 'widthPercent': 0.8, 'rescaleHeight': True, 'trialN': 26, 'loaded': True, 'loadedTime': 1937.2000000476837, 'positionName': 'CENTER', 'positionCoords': [634.5, 319.5]}]",Rate how much you want to eat this food from 0 (least) to 10 (most).,51861.5,1669830234756,Tribe humus pita,2087.100000023842,True,0.86,53948.60000002384,2087.100000023842,True,HRV,HRV_0065,2022-11-30 17:45:10
27,"[{'imgObject': {}, 'id': 'luckycharms', 'src': '/static/foodstim60/luckycharms.jpg', 'key': 'NaN', 'origWidth': 410, 'origHeight': 409, 'width': 410, 'height': 409, 'widthPercent': 0.8, 'rescaleHeight': True, 'trialN': 27, 'loaded': True, 'loadedTime': 1940.5, 'positionName': 'CENTER', 'positionCoords': [635, 320.5]}]",Rate how much you want to eat this food from 0 (least) to 10 (most).,53949.5,1669830236844,luckycharms,1919.1000000238419,True,5.89,55868.60000002384,1919.1000000238419,True,HRV,HRV_0065,2022-11-30 17:45:10
28,"[{'imgObject': {}, 'id': 'mango', 'src': '/static/foodstim60/mango.jpg', 'key': 'NaN', 'origWidth': 411, 'origHeight': 411, 'width': 411, 'height': 411, 'widthPercent': 0.8, 'rescaleHeight': True, 'trialN': 28, 'loaded': True, 'loadedTime': 1944.7999999523163, 'positionName': 'CENTER', 'positionCoords': [634.5, 319.5]}]",Rate how much you want to eat this food from 0 (least) to 10 (most).,55869.39999997616,1669830238764,mango,2717.3000000715256,True,7.1000000000000005,58586.700000047684,2717.3000000715256,True,HRV,HRV_0065,2022-11-30 17:45:10
29,"[{'imgObject': {}, 'id': 'froot loops w milk', 'src': '/static/foodstim60/froot loops w milk.jpg', 'key': 'NaN', 'origWidth': 410, 'origHeight': 410, 'width': 410, 'height': 410, 'widthPercent': 0.8, 'rescaleHeight': True, 'trialN': 29, 'loaded': True, 'loadedTime': 1950.2000000476837, 'positionName': 'CENTER', 'positionCoords': [635, 320]}]",Rate how much you want to eat this food from 0 (least) to 10 (most).,58587.39999997616,1669830241482,froot loops w milk,4106.300000071526,True,2.6,62693.700000047684,4106.300000071526,True,HRV,HRV_0065,2022-11-30 17:45:10
30,"[{'imgObject': {}, 'id': 'burrito', 'src': '/static/foodstim60/burrito.jpg', 'key': 'NaN', 'origWidth': 410, 'origHeight': 410, 'width': 410, 'height': 410, 'widthPercent': 0.8, 'rescaleHeight': True, 'trialN': 30, 'loaded': True, 'loadedTime': 1954.1000000238419, 'positionName': 'CENTER', 'positionCoords': [635, 320]}]",Rate how much you want to eat this food from 0 (least) to 10 (most).,62694.5,1669830245589,burrito,3569.100000023842,True,4.47,66263.60000002384,3569.100000023842,True,HRV,HRV_0065,2022-11-30 17:45:10
31,"[{'imgObject': {}, 'id': 'bagel and cc', 'src': '/static/foodstim60/bagel and cc.jpg', 'key': 'NaN', 'origWidth': 410, 'origHeight': 410, 'width': 410, 'height': 410, 'widthPercent': 0.8, 'rescaleHeight': True, 'trialN': 31, 'loaded': True, 'loadedTime': 1960.1000000238419, 'positionName': 'CENTER', 'positionCoords': [635, 320]}]",Rate how much you want to eat this food from 0 (least) to 10 (most).,66264.20000004768,1669830249159,bagel and cc,1958.3999999761581,True,5.73,68222.60000002384,1958.3999999761581,True,HRV,HRV_0065,2022-11-30 17:45:10
32,"[{'imgObject': {}, 'id': 'fruitsalad', 'src': '/static/foodstim60/fruitsalad.jpg', 'key': 'NaN', 'origWidth': 410, 'origHeight': 410, 'width': 410, 'height': 410, 'widthPercent': 0.8, 'rescaleHeight': True, 'trialN': 32, 'loaded': True, 'loadedTime': 1965, 'positionName': 'CENTER', 'positionCoords': [635, 320]}]",Rate how much you want to eat this food from 0 (least) to 10 (most).,68223.29999995232,1669830251118,fruitsalad,2351.3000000715256,True,8.61,70574.60000002384,2351.3000000715256,True,HRV,HRV_0065,2022-11-30 17:45:10
33,"[{'imgObject': {}, 'id': 'apple slices', 'src': '/static/foodstim60/apple slices.jpg', 'key': 'NaN', 'origWidth': 409, 'origHeight': 410, 'width': 409, 'height': 410, 'widthPercent': 0.8, 'rescaleHeight': True, 'trialN': 33, 'loaded': True, 'loadedTime': 1970.1000000238419, 'positionName': 'CENTER', 'positionCoords': [635.5, 320]}]",Rate how much you want to eat this food from 0 (least) to 10 (most).,70575.39999997616,1669830253470,apple slices,1384.1000000238419,True,7.47,71959.5,1384.1000000238419,True,HRV,HRV_0065,2022-11-30 17:45:10
34,"[{'imgObject': {}, 'id': 'corn cob', 'src': '/static/foodstim60/corn cob.jpg', 'key': 'NaN', 'origWidth': 411, 'origHeight': 411, 'width': 411, 'height': 411, 'widthPercent': 0.8, 'rescaleHeight': True, 'trialN': 34, 'loaded': True, 'loadedTime': 1974.8999999761581, 'positionName': 'CENTER', 'positionCoords': [634.5, 319.5]}]",Rate how much you want to eat this food from 0 (least) to 10 (most).,71960.20000004768,1669830254855,corn cob,1511.2999999523163,True,1.71,73471.5,1511.2999999523163,True,HRV,HRV_0065,2022-11-30 17:45:10
35,"[{'imgObject': {}, 'id': 'cantaloupe', 'src': '/static/foodstim60/cantaloupe.jpg', 'key': 'NaN', 'origWidth': 409, 'origHeight': 409, 'width': 409, 'height': 409, 'widthPercent': 0.8, 'rescaleHeight': True, 'trialN': 35, 'loaded': True, 'loadedTime': 1979, 'positionName': 'CENTER', 'positionCoords': [635.5, 320.5]}]",Rate how much you want to eat this food from 0 (least) to 10 (most).,73472.29999995232,1669830256367,cantaloupe,3074.2000000476837,True,0.34,76546.5,3074.2000000476837,True,HRV,HRV_0065,2022-11-30 17:45:10
36,"[{'imgObject': {}, 'id': 'raspberries', 'src': '/static/foodstim60/raspberries.jpg', 'key': 'NaN', 'origWidth': 411, 'origHeight': 411, 'width': 411, 'height': 411, 'widthPercent': 0.8, 'rescaleHeight': True, 'trialN': 36, 'loaded': True, 'loadedTime': 1982.3999999761581, 'positionName': 'CENTER', 'positionCoords': [634.5, 319.5]}]",Rate how much you want to eat this food from 0 (least) to 10 (most).,76547.20000004768,1669830259442,raspberries,1598.3999999761581,True,5.73,78145.60000002384,1598.3999999761581,True,HRV,HRV_0065,2022-11-30 17:45:10
37,"[{'imgObject': {}, 'id': 'turkeysandwich', 'src': '/static/foodstim60/turkeysandwich.jpg', 'key': 'NaN', 'origWidth': 409, 'origHeight': 409, 'width': 409, 'height': 409, 'widthPercent': 0.8, 'rescaleHeight': True, 'trialN': 37, 'loaded': True, 'loadedTime': 1985.6000000238419, 'positionName': 'CENTER', 'positionCoords': [635.5, 320.5]}]",Rate how much you want to eat this food from 0 (least) to 10 (most).,78146.10000002384,1669830261041,turkeysandwich,1688.3999999761581,True,8.950000000000001,79834.5,1688.3999999761581,True,HRV,HRV_0065,2022-11-30 17:45:10
38,"[{'imgObject': {}, 'id': 'turkey sandwich', 'src': '/static/foodstim60/turkey sandwich.jpg', 'key': 'NaN', 'origWidth': 409, 'origHeight': 409, 'width': 409, 'height': 409, 'widthPercent': 0.8, 'rescaleHeight': True, 'trialN': 38, 'loaded': True, 'loadedTime': 1989.1000000238419, 'positionName': 'CENTER', 'positionCoords': [635.5, 320.5]}]",Rate how much you want to eat this food from 0 (least) to 10 (most).,79835.20000004768,1669830262730,turkey sandwich,1400.2999999523163,True,9.35,81235.5,1400.2999999523163,True,HRV,HRV_0065,2022-11-30 17:45:10
39,"[{'imgObject': {}, 'id': 'avocado', 'src': '/static/foodstim60/avocado.jpg', 'key': 'NaN', 'origWidth': 409, 'origHeight': 409, 'width': 409, 'height': 409, 'widthPercent': 0.8, 'rescaleHeight': True, 'trialN': 39, 'loaded': True, 'loadedTime': 1992.6000000238419, 'positionName': 'CENTER', 'positionCoords': [635.5, 320.5]}]",Rate how much you want to eat this food from 0 (least) to 10 (most).,81236.20000004768,1669830264131,avocado,2081.399999976158,True,1.29,83317.60000002384,2081.399999976158,True,HRV,HRV_0065,2022-11-30 17:45:10
40,"[{'imgObject': {}, 'id': 'Grapes', 'src': '/static/foodstim60/Grapes.jpg', 'key': 'NaN', 'origWidth': 411, 'origHeight': 411, 'width': 411, 'height': 411, 'widthPercent': 0.8, 'rescaleHeight': True, 'trialN': 40, 'loaded': True, 'loadedTime': 1995.8999999761581, 'positionName': 'CENTER', 'positionCoords': [634.5, 319.5]}]",Rate how much you want to eat this food from 0 (least) to 10 (most).,83318.20000004768,1669830266213,Grapes,1414.2999999523163,True,7.16,84732.5,1414.2999999523163,True,HRV,HRV_0065,2022-11-30 17:45:10
41,"[{'imgObject': {}, 'id': 'cherries', 'src': '/static/foodstim60/cherries.jpg', 'key': 'NaN', 'origWidth': 410, 'origHeight': 411, 'width': 410, 'height': 411, 'widthPercent': 0.8, 'rescaleHeight': True, 'trialN': 41, 'loaded': True, 'loadedTime': 1999.2999999523163, 'positionName': 'CENTER', 'positionCoords': [635, 319.5]}]",Rate how much you want to eat this food from 0 (least) to 10 (most).,84733.29999995232,1669830267628,cherries,1283.2000000476837,True,7.47,86016.5,1283.2000000476837,True,HRV,HRV_0065,2022-11-30 17:45:10
42,"[{'imgObject': {}, 'id': 'fried eggs', 'src': '/static/foodstim60/fried eggs.jpg', 'key': 'NaN', 'origWidth': 410, 'origHeight': 410, 'width': 410, 'height': 410, 'widthPercent': 0.8, 'rescaleHeight': True, 'trialN': 42, 'loaded': True, 'loadedTime': 2002.5, 'positionName': 'CENTER', 'positionCoords': [635, 320]}]",Rate how much you want to eat this food from 0 (least) to 10 (most).,86017.20000004768,1669830268912,fried eggs,3167.5,True,6.75,89184.70000004768,3167.5,True,HRV,HRV_0065,2022-11-30 17:45:10
43,"[{'imgObject': {}, 'id': 'orange slices', 'src': '/static/foodstim60/orange slices.jpg', 'key': 'NaN', 'origWidth': 409, 'origHeight': 410, 'width': 409, 'height': 410, 'widthPercent': 0.8, 'rescaleHeight': True, 'trialN': 43, 'loaded': True, 'loadedTime': 2005.5, 'positionName': 'CENTER', 'positionCoords': [635.5, 320]}]",Rate how much you want to eat this food from 0 (least) to 10 (most).,89185.5,1669830272080,orange slices,1697.0,True,7.58,90882.5,1697.0,True,HRV,HRV_0065,2022-11-30 17:45:10
44,"[{'imgObject': {}, 'id': 'granola w milk', 'src': '/static/foodstim60/granola w milk.jpg', 'key': 'NaN', 'origWidth': 410, 'origHeight': 410, 'width': 410, 'height': 410, 'widthPercent': 0.8, 'rescaleHeight': True, 'trialN': 44, 'loaded': True, 'loadedTime': 2009.6000000238419, 'positionName': 'CENTER', 'positionCoords': [635, 320]}]",Rate how much you want to eat this food from 0 (least) to 10 (most).,90883.29999995232,1669830273778,granola w milk,2131.100000023842,True,5.61,93014.39999997616,2131.100000023842,True,HRV,HRV_0065,2022-11-30 17:45:10
45,"[{'imgObject': {}, 'id': 'yogurt no spoon', 'src': '/static/foodstim60/yogurt no spoon.jpg', 'key': 'NaN', 'origWidth': 411, 'origHeight': 410, 'width': 411, 'height': 410, 'widthPercent': 0.8, 'rescaleHeight': True, 'trialN': 45, 'loaded': True, 'loadedTime': 2013.5, 'positionName': 'CENTER', 'positionCoords': [634.5, 320]}]",Rate how much you want to eat this food from 0 (least) to 10 (most).,93015.29999995232,1669830275910,yogurt no spoon,1308.3000000715256,True,7.15,94323.60000002384,1308.3000000715256,True,HRV,HRV_0065,2022-11-30 17:45:10
46,"[{'imgObject': {}, 'id': 'blueberries', 'src': '/static/foodstim60/blueberries.jpg', 'key': 'NaN', 'origWidth': 411, 'origHeight': 411, 'width': 411, 'height': 411, 'widthPercent': 0.8, 'rescaleHeight': True, 'trialN': 46, 'loaded': True, 'loadedTime': 2017.2000000476837, 'positionName': 'CENTER', 'positionCoords': [634.5, 319.5]}]",Rate how much you want to eat this food from 0 (least) to 10 (most).,94324.60000002384,1669830277219,blueberries,1790.1000000238419,True,5.04,96114.70000004768,1790.1000000238419,True,HRV,HRV_0065,2022-11-30 17:45:10
47,"[{'imgObject': {}, 'id': 'sushi w_condiments', 'src': '/static/foodstim60/sushi w_condiments.jpg', 'key': 'NaN', 'origWidth': 410, 'origHeight': 410, 'width': 410, 'height': 410, 'widthPercent': 0.8, 'rescaleHeight': True, 'trialN': 47, 'loaded': True, 'loadedTime': 2021.2000000476837, 'positionName': 'CENTER', 'positionCoords': [635, 320]}]",Rate how much you want to eat this food from 0 (least) to 10 (most).,96115.20000004768,1669830279010,sushi w_condiments,2192.5999999046326,True,9.85,98307.79999995232,2192.5999999046326,True,HRV,HRV_0065,2022-11-30 17:45:10
48,"[{'imgObject': {}, 'id': 'sweetpotato', 'src': '/static/foodstim60/sweetpotato.jpg', 'key': 'NaN', 'origWidth': 410, 'origHeight': 410, 'width': 410, 'height': 410, 'widthPercent': 0.8, 'rescaleHeight': True, 'trialN': 48, 'loaded': True, 'loadedTime': 2025.5, 'positionName': 'CENTER', 'positionCoords': [635, 320]}]",Rate how much you want to eat this food from 0 (least) to 10 (most).,98308.70000004768,1669830281203,sweetpotato,1752.8999999761581,True,2.5300000000000002,100061.60000002384,1752.8999999761581,True,HRV,HRV_0065,2022-11-30 17:45:10
49,"[{'imgObject': {}, 'id': 'pear', 'src': '/static/foodstim60/pear.jpg', 'key': 'NaN', 'origWidth': 411, 'origHeight': 410, 'width': 411, 'height': 410, 'widthPercent': 0.8, 'rescaleHeight': True, 'trialN': 49, 'loaded': True, 'loadedTime': 2029.7999999523163, 'positionName': 'CENTER', 'positionCoords': [634.5, 320]}]",Rate how much you want to eat this food from 0 (least) to 10 (most).,100062.20000004768,1669830282957,pear,2780.2999999523163,True,6.890000000000001,102842.5,2780.2999999523163,True,HRV,HRV_0065,2022-11-30 17:45:10
50,"[{'imgObject': {}, 'id': 'popsicles', 'src': '/static/foodstim60/popsicles.jpg', 'key': 'NaN', 'origWidth': 410, 'origHeight': 410, 'width': 410, 'height': 410, 'widthPercent': 0.8, 'rescaleHeight': True, 'trialN': 50, 'loaded': True, 'loadedTime': 2033.6000000238419, 'positionName': 'CENTER', 'positionCoords': [635, 320]}]",Rate how much you want to eat this food from 0 (least) to 10 (most).,102843.20000004768,1669830285738,popsicles,2882.399999976158,True,5.01,105725.60000002384,2882.399999976158,True,HRV,HRV_0065,2022-11-30 17:45:10
51,"[{'imgObject': {}, 'id': 'mashed potato', 'src': '/static/foodstim60/mashed potato.jpg', 'key': 'NaN', 'origWidth': 409, 'origHeight': 409, 'width': 409, 'height': 409, 'widthPercent': 0.8, 'rescaleHeight': True, 'trialN': 51, 'loaded': True, 'loadedTime': 2037.3999999761581, 'positionName': 'CENTER', 'positionCoords': [635.5, 320.5]}]",Rate how much you want to eat this food from 0 (least) to 10 (most).,105726.29999995232,1669830288621,mashed potato,3403.100000023842,True,2.89,109129.39999997616,3403.100000023842,True,HRV,HRV_0065,2022-11-30 17:45:10
52,"[{'imgObject': {}, 'id': 'chicken nuggets2', 'src': '/static/foodstim60/chicken nuggets2.jpg', 'key': 'NaN', 'origWidth': 410, 'origHeight': 409, 'width': 410, 'height': 409, 'widthPercent': 0.8, 'rescaleHeight': True, 'trialN': 52, 'loaded': True, 'loadedTime': 2046.2999999523163, 'positionName': 'CENTER', 'positionCoords': [635, 320.5]}]",Rate how much you want to eat this food from 0 (least) to 10 (most).,109130.10000002384,1669830292025,chicken nuggets2,1463.3999999761581,True,5.76,110593.5,1463.3999999761581,True,HRV,HRV_0065,2022-11-30 17:45:10
53,"[{'imgObject': {}, 'id': 'cherry tomato', 'src': '/static/foodstim60/cherry tomato.jpg', 'key': 'NaN', 'origWidth': 410, 'origHeight': 410, 'width': 410, 'height': 410, 'widthPercent': 0.8, 'rescaleHeight': True, 'trialN': 53, 'loaded': True, 'loadedTime': 2051.2999999523163, 'positionName': 'CENTER', 'positionCoords': [635, 320]}]",Rate how much you want to eat this food from 0 (least) to 10 (most).,110594.10000002384,1669830293489,cherry tomato,3098.2999999523163,True,5.7700000000000005,113692.39999997616,3098.2999999523163,True,HRV,HRV_0065,2022-11-30 17:45:10
54,"[{'imgObject': {}, 'id': 'seaweed', 'src': '/static/foodstim60/seaweed.jpg', 'key': 'NaN', 'origWidth': 410, 'origHeight': 410, 'width': 410, 'height': 410, 'widthPercent': 0.8, 'rescaleHeight': True, 'trialN': 54, 'loaded': True, 'loadedTime': 2055.899999976158, 'positionName': 'CENTER', 'positionCoords': [635, 320]}]",Rate how much you want to eat this food from 0 (least) to 10 (most).,113693.20000004768,1669830296588,seaweed,2501.399999976158,True,5.0200000000000005,116194.60000002384,2501.399999976158,True,HRV,HRV_0065,2022-11-30 17:45:10
55,"[{'imgObject': {}, 'id': 'shreddedwheatwithmilk', 'src': '/static/foodstim60/shreddedwheatwithmilk.jpg', 'key': 'NaN', 'origWidth': 410, 'origHeight': 410, 'width': 410, 'height': 410, 'widthPercent': 0.8, 'rescaleHeight': True, 'trialN': 55, 'loaded': True, 'loadedTime': 2060.899999976158, 'positionName': 'CENTER', 'positionCoords': [635, 320]}]",Rate how much you want to eat this food from 0 (least) to 10 (most).,116195.70000004768,1669830299090,shreddedwheatwithmilk,2212.7999999523163,True,6.2700000000000005,118408.5,2212.7999999523163,True,HRV,HRV_0065,2022-11-30 17:45:10
56,"[{'imgObject': {}, 'id': 'roastedpotatoes', 'src': '/static/foodstim60/roastedpotatoes.jpg', 'key': 'NaN', 'origWidth': 409, 'origHeight': 410, 'width': 409, 'height': 410, 'widthPercent': 0.8, 'rescaleHeight': True, 'trialN': 56, 'loaded': True, 'loadedTime': 2066.5, 'positionName': 'CENTER', 'positionCoords': [635.5, 320]}]",Rate how much you want to eat this food from 0 (least) to 10 (most).,118409.20000004768,1669830301304,roastedpotatoes,1567.1999999284744,True,7.28,119976.39999997616,1567.1999999284744,True,HRV,HRV_0065,2022-11-30 17:45:10
57,"[{'imgObject': {}, 'id': 'steak', 'src': '/static/foodstim60/steak.jpg', 'key': 'NaN', 'origWidth': 410, 'origHeight': 410, 'width': 410, 'height': 410, 'widthPercent': 0.8, 'rescaleHeight': True, 'trialN': 57, 'loaded': True, 'loadedTime': 2071.399999976158, 'positionName': 'CENTER', 'positionCoords': [635, 320]}]",Rate how much you want to eat this food from 0 (least) to 10 (most).,119977.0,1669830302872,steak,1406.3999999761581,True,7.3,121383.39999997616,1406.3999999761581,True,HRV,HRV_0065,2022-11-30 17:45:10
58,"[{'imgObject': {}, 'id': 'eggs', 'src': '/static/foodstim60/eggs.jpg', 'key': 'NaN', 'origWidth': 409, 'origHeight': 409, 'width': 409, 'height': 409, 'widthPercent': 0.8, 'rescaleHeight': True, 'trialN': 58, 'loaded': True, 'loadedTime': 2076.5, 'positionName': 'CENTER', 'positionCoords': [635.5, 320.5]}]",Rate how much you want to eat this food from 0 (least) to 10 (most).,121384.10000002384,1669830304279,eggs,3932.2999999523163,True,4.26,125316.39999997616,3932.2999999523163,True,HRV,HRV_0065,2022-11-30 17:45:10
59,"[{'imgObject': {}, 'id': 'banana', 'src': '/static/foodstim60/banana.jpg', 'key': 'NaN', 'origWidth': 410, 'origHeight': 410, 'width': 410, 'height': 410, 'widthPercent': 0.8, 'rescaleHeight': True, 'trialN': 59, 'loaded': True, 'loadedTime': 2081.2000000476837, 'positionName': 'CENTER', 'positionCoords': [635, 320]}]",Rate how much you want to eat this food from 0 (least) to 10 (most).,125317.10000002384,1669830308212,banana,1688.2999999523163,True,7.46,127005.39999997616,1688.2999999523163,True,HRV,HRV_0065,2022-11-30 17:45:10
