trialN,stimuli,question,trialStartTime,trialStartTime_UNIX,stimulus1,rt,receivedResponse,rating,trialEndTime,trialDuration,stimulus1Loaded,exp,subjectId,date
0,"[{'imgObject': {}, 'id': 'eggsalad', 'src': '/static/foodstim60/eggsalad.jpg', 'key': 'NaN', 'origWidth': 410, 'origHeight': 409, 'width': 410, 'height': 409, 'widthPercent': 0.8, 'rescaleHeight': True, 'trialN': 0, 'loaded': True, 'loadedTime': 2498.5, 'positionName': 'CENTER', 'positionCoords': [635, 320.5]}]",Rate how much you want to eat this food from 0 (least) to 10 (most).,2965.0,1669830014542,eggsalad,6936.700000047684,True,1.94,9901.700000047684,6936.700000047684,True,HRV,HRV_0065,2022-11-30 17:42:55
1,"[{'imgObject': {}, 'id': 'cherries', 'src': '/static/foodstim60/cherries.jpg', 'key': 'NaN', 'origWidth': 410, 'origHeight': 411, 'width': 410, 'height': 411, 'widthPercent': 0.8, 'rescaleHeight': True, 'trialN': 1, 'loaded': True, 'loadedTime': 2509.3000000715256, 'positionName': 'CENTER', 'positionCoords': [635, 319.5]}]",Rate how much you want to eat this food from 0 (least) to 10 (most).,9902.800000071526,1669830021479,cherries,2270.899999976158,True,5.86,12173.700000047684,2270.899999976158,True,HRV,HRV_0065,2022-11-30 17:42:55
2,"[{'imgObject': {}, 'id': 'bagel and cc', 'src': '/static/foodstim60/bagel and cc.jpg', 'key': 'NaN', 'origWidth': 410, 'origHeight': 410, 'width': 410, 'height': 410, 'widthPercent': 0.8, 'rescaleHeight': True, 'trialN': 2, 'loaded': True, 'loadedTime': 2517.600000023842, 'positionName': 'CENTER', 'positionCoords': [635, 320]}]",Rate how much you want to eat this food from 0 (least) to 10 (most).,12174.399999976158,1669830023751,bagel and cc,3466.3000000715256,True,4.94,15640.700000047684,3466.3000000715256,True,HRV,HRV_0065,2022-11-30 17:42:55
3,"[{'imgObject': {}, 'id': 'edamame', 'src': '/static/foodstim60/edamame.jpg', 'key': 'NaN', 'origWidth': 409, 'origHeight': 410, 'width': 409, 'height': 410, 'widthPercent': 0.8, 'rescaleHeight': True, 'trialN': 3, 'loaded': True, 'loadedTime': 2505.2000000476837, 'positionName': 'CENTER', 'positionCoords': [635.5, 320]}]",Rate how much you want to eat this food from 0 (least) to 10 (most).,15641.300000071526,1669830027218,edamame,1602.3999999761581,True,1.71,17243.700000047684,1602.3999999761581,True,HRV,HRV_0065,2022-11-30 17:42:55
4,"[{'imgObject': {}, 'id': 'shreddedwheatwithmilk', 'src': '/static/foodstim60/shreddedwheatwithmilk.jpg', 'key': 'NaN', 'origWidth': 410, 'origHeight': 410, 'width': 410, 'height': 410, 'widthPercent': 0.8, 'rescaleHeight': True, 'trialN': 4, 'loaded': True, 'loadedTime': 2514.3000000715256, 'positionName': 'CENTER', 'positionCoords': [635, 320]}]",Rate how much you want to eat this food from 0 (least) to 10 (most).,17244.300000071526,1669830028821,shreddedwheatwithmilk,1984.3999999761581,True,7.0200000000000005,19228.700000047684,1984.3999999761581,True,HRV,HRV_0065,2022-11-30 17:42:55
5,"[{'imgObject': {}, 'id': 'yogurt no spoon', 'src': '/static/foodstim60/yogurt no spoon.jpg', 'key': 'NaN', 'origWidth': 411, 'origHeight': 410, 'width': 411, 'height': 410, 'widthPercent': 0.8, 'rescaleHeight': True, 'trialN': 5, 'loaded': True, 'loadedTime': 2521.5, 'positionName': 'CENTER', 'positionCoords': [634.5, 320]}]",Rate how much you want to eat this food from 0 (least) to 10 (most).,19229.399999976158,1669830030806,yogurt no spoon,2294.4000000953674,True,7.9,21523.800000071526,2294.4000000953674,True,HRV,HRV_0065,2022-11-30 17:42:55
6,"[{'imgObject': {}, 'id': 'salad w chicken', 'src': '/static/foodstim60/salad w chicken.jpg', 'key': 'NaN', 'origWidth': 411, 'origHeight': 411, 'width': 411, 'height': 411, 'widthPercent': 0.8, 'rescaleHeight': True, 'trialN': 6, 'loaded': True, 'loadedTime': 2574.8000000715256, 'positionName': 'CENTER', 'positionCoords': [634.5, 319.5]}]",Rate how much you want to eat this food from 0 (least) to 10 (most).,21524.600000023842,1669830033101,salad w chicken,2390.100000023842,True,9.41,23914.700000047684,2390.100000023842,True,HRV,HRV_0065,2022-11-30 17:42:55
7,"[{'imgObject': {}, 'id': 'veggieswithdip', 'src': '/static/foodstim60/veggieswithdip.jpg', 'key': 'NaN', 'origWidth': 409, 'origHeight': 409, 'width': 409, 'height': 409, 'widthPercent': 0.8, 'rescaleHeight': True, 'trialN': 7, 'loaded': True, 'loadedTime': 2550.8000000715256, 'positionName': 'CENTER', 'positionCoords': [635.5, 320.5]}]",Rate how much you want to eat this food from 0 (least) to 10 (most).,23915.399999976158,1669830035492,veggieswithdip,2209.3000000715256,True,7.38,26124.700000047684,2209.3000000715256,True,HRV,HRV_0065,2022-11-30 17:42:55
8,"[{'imgObject': {}, 'id': 'cherry tomato', 'src': '/static/foodstim60/cherry tomato.jpg', 'key': 'NaN', 'origWidth': 410, 'origHeight': 410, 'width': 410, 'height': 410, 'widthPercent': 0.8, 'rescaleHeight': True, 'trialN': 8, 'loaded': True, 'loadedTime': 2557.100000023842, 'positionName': 'CENTER', 'positionCoords': [635, 320]}]",Rate how much you want to eat this food from 0 (least) to 10 (most).,26125.700000047684,1669830037702,cherry tomato,1800.1000000238419,True,5.0200000000000005,27925.800000071526,1800.1000000238419,True,HRV,HRV_0065,2022-11-30 17:42:55
9,"[{'imgObject': {}, 'id': 'baked potato', 'src': '/static/foodstim60/baked potato.jpg', 'key': 'NaN', 'origWidth': 409, 'origHeight': 410, 'width': 409, 'height': 410, 'widthPercent': 0.8, 'rescaleHeight': True, 'trialN': 9, 'loaded': True, 'loadedTime': 2583.8000000715256, 'positionName': 'CENTER', 'positionCoords': [635.5, 320]}]",Rate how much you want to eat this food from 0 (least) to 10 (most).,27926.700000047684,1669830039503,baked potato,1786.0,True,6.57,29712.700000047684,1786.0,True,HRV,HRV_0065,2022-11-30 17:42:55
10,"[{'imgObject': {}, 'id': 'blackbeanswithrice', 'src': '/static/foodstim60/blackbeanswithrice.jpg', 'key': 'NaN', 'origWidth': 410, 'origHeight': 410, 'width': 410, 'height': 410, 'widthPercent': 0.8, 'rescaleHeight': True, 'trialN': 10, 'loaded': True, 'loadedTime': 2591.399999976158, 'positionName': 'CENTER', 'positionCoords': [635, 320]}]",Rate how much you want to eat this food from 0 (least) to 10 (most).,29713.5,1669830041290,blackbeanswithrice,1925.2000000476837,True,2.97,31638.700000047684,1925.2000000476837,True,HRV,HRV_0065,2022-11-30 17:42:55
11,"[{'imgObject': {}, 'id': 'steak', 'src': '/static/foodstim60/steak.jpg', 'key': 'NaN', 'origWidth': 410, 'origHeight': 410, 'width': 410, 'height': 410, 'widthPercent': 0.8, 'rescaleHeight': True, 'trialN': 11, 'loaded': True, 'loadedTime': 2562.100000023842, 'positionName': 'CENTER', 'positionCoords': [635, 320]}]",Rate how much you want to eat this food from 0 (least) to 10 (most).,31639.300000071526,1669830043216,steak,1780.2999999523163,True,6.890000000000001,33419.60000002384,1780.2999999523163,True,HRV,HRV_0065,2022-11-30 17:42:55
12,"[{'imgObject': {}, 'id': 'kiwi', 'src': '/static/foodstim60/kiwi.jpg', 'key': 'NaN', 'origWidth': 410, 'origHeight': 410, 'width': 410, 'height': 410, 'widthPercent': 0.8, 'rescaleHeight': True, 'trialN': 12, 'loaded': True, 'loadedTime': 2601.600000023842, 'positionName': 'CENTER', 'positionCoords': [635, 320]}]",Rate how much you want to eat this food from 0 (least) to 10 (most).,33420.10000002384,1669830044997,kiwi,2513.7000000476837,True,9.23,35933.800000071526,2513.7000000476837,True,HRV,HRV_0065,2022-11-30 17:42:55
13,"[{'imgObject': {}, 'id': 'Tribe humus pita', 'src': '/static/foodstim60/Tribe humus pita.jpg', 'key': 'NaN', 'origWidth': 411, 'origHeight': 411, 'width': 411, 'height': 411, 'widthPercent': 0.8, 'rescaleHeight': True, 'trialN': 13, 'loaded': True, 'loadedTime': 2605.899999976158, 'positionName': 'CENTER', 'positionCoords': [634.5, 319.5]}]",Rate how much you want to eat this food from 0 (least) to 10 (most).,35934.5,1669830047511,Tribe humus pita,3255.2000000476837,True,0.29,39189.700000047684,3255.2000000476837,True,HRV,HRV_0065,2022-11-30 17:42:55
14,"[{'imgObject': {}, 'id': 'pear', 'src': '/static/foodstim60/pear.jpg', 'key': 'NaN', 'origWidth': 411, 'origHeight': 410, 'width': 411, 'height': 410, 'widthPercent': 0.8, 'rescaleHeight': True, 'trialN': 14, 'loaded': True, 'loadedTime': 2611.899999976158, 'positionName': 'CENTER', 'positionCoords': [634.5, 320]}]",Rate how much you want to eat this food from 0 (least) to 10 (most).,39190.60000002384,1669830050767,pear,2666.100000023842,True,6.71,41856.700000047684,2666.100000023842,True,HRV,HRV_0065,2022-11-30 17:42:55
15,"[{'imgObject': {}, 'id': 'mashed potato', 'src': '/static/foodstim60/mashed potato.jpg', 'key': 'NaN', 'origWidth': 409, 'origHeight': 409, 'width': 409, 'height': 409, 'widthPercent': 0.8, 'rescaleHeight': True, 'trialN': 15, 'loaded': True, 'loadedTime': 2616.2000000476837, 'positionName': 'CENTER', 'positionCoords': [635.5, 320.5]}]",Rate how much you want to eat this food from 0 (least) to 10 (most).,41857.5,1669830053434,mashed potato,2572.100000023842,True,4.95,44429.60000002384,2572.100000023842,True,HRV,HRV_0065,2022-11-30 17:42:55
16,"[{'imgObject': {}, 'id': 'tacos', 'src': '/static/foodstim60/tacos.jpg', 'key': 'NaN', 'origWidth': 411, 'origHeight': 411, 'width': 411, 'height': 411, 'widthPercent': 0.8, 'rescaleHeight': True, 'trialN': 16, 'loaded': True, 'loadedTime': 2627.600000023842, 'positionName': 'CENTER', 'positionCoords': [634.5, 319.5]}]",Rate how much you want to eat this food from 0 (least) to 10 (most).,44430.39999997616,1669830056007,tacos,2758.2000000476837,True,9.85,47188.60000002384,2758.2000000476837,True,HRV,HRV_0065,2022-11-30 17:42:55
17,"[{'imgObject': {}, 'id': 'lox', 'src': '/static/foodstim60/lox.jpg', 'key': 'NaN', 'origWidth': 410, 'origHeight': 411, 'width': 410, 'height': 411, 'widthPercent': 0.8, 'rescaleHeight': True, 'trialN': 17, 'loaded': True, 'loadedTime': 2632.100000023842, 'positionName': 'CENTER', 'positionCoords': [635, 319.5]}]",Rate how much you want to eat this food from 0 (least) to 10 (most).,47189.5,1669830058766,lox,3092.2000000476837,True,2.04,50281.700000047684,3092.2000000476837,True,HRV,HRV_0065,2022-11-30 17:42:55
18,"[{'imgObject': {}, 'id': 'ice cream sundae 002', 'src': '/static/foodstim60/ice cream sundae 002.jpg', 'key': 'NaN', 'origWidth': 409, 'origHeight': 409, 'width': 409, 'height': 409, 'widthPercent': 0.8, 'rescaleHeight': True, 'trialN': 18, 'loaded': True, 'loadedTime': 2645.8000000715256, 'positionName': 'CENTER', 'positionCoords': [635.5, 320.5]}]",Rate how much you want to eat this food from 0 (least) to 10 (most).,50282.300000071526,1669830061859,ice cream sundae 002,2164.399999976158,True,1.29,52446.700000047684,2164.399999976158,True,HRV,HRV_0065,2022-11-30 17:42:55
19,"[{'imgObject': {}, 'id': 'chicken nuggets2', 'src': '/static/foodstim60/chicken nuggets2.jpg', 'key': 'NaN', 'origWidth': 410, 'origHeight': 409, 'width': 410, 'height': 409, 'widthPercent': 0.8, 'rescaleHeight': True, 'trialN': 19, 'loaded': True, 'loadedTime': 2650.2000000476837, 'positionName': 'CENTER', 'positionCoords': [635, 320.5]}]",Rate how much you want to eat this food from 0 (least) to 10 (most).,52447.300000071526,1669830064024,chicken nuggets2,2465.2999999523163,True,6.04,54912.60000002384,2465.2999999523163,True,HRV,HRV_0065,2022-11-30 17:42:55
20,"[{'imgObject': {}, 'id': 'chickenfingers', 'src': '/static/foodstim60/chickenfingers.jpg', 'key': 'NaN', 'origWidth': 410, 'origHeight': 410, 'width': 410, 'height': 410, 'widthPercent': 0.8, 'rescaleHeight': True, 'trialN': 20, 'loaded': True, 'loadedTime': 2655.600000023842, 'positionName': 'CENTER', 'positionCoords': [635, 320]}]",Rate how much you want to eat this food from 0 (least) to 10 (most).,54913.200000047684,1669830066490,chickenfingers,2350.399999976158,True,7.46,57263.60000002384,2350.399999976158,True,HRV,HRV_0065,2022-11-30 17:42:55
21,"[{'imgObject': {}, 'id': 'burrito', 'src': '/static/foodstim60/burrito.jpg', 'key': 'NaN', 'origWidth': 410, 'origHeight': 410, 'width': 410, 'height': 410, 'widthPercent': 0.8, 'rescaleHeight': True, 'trialN': 21, 'loaded': True, 'loadedTime': 2660.600000023842, 'positionName': 'CENTER', 'positionCoords': [635, 320]}]",Rate how much you want to eat this food from 0 (least) to 10 (most).,57264.200000047684,1669830068841,burrito,2642.399999976158,True,5.79,59906.60000002384,2642.399999976158,True,HRV,HRV_0065,2022-11-30 17:42:55
22,"[{'imgObject': {}, 'id': 'bagel plain', 'src': '/static/foodstim60/bagel plain.jpg', 'key': 'NaN', 'origWidth': 410, 'origHeight': 410, 'width': 410, 'height': 410, 'widthPercent': 0.8, 'rescaleHeight': True, 'trialN': 22, 'loaded': True, 'loadedTime': 2668.899999976158, 'positionName': 'CENTER', 'positionCoords': [635, 320]}]",Rate how much you want to eat this food from 0 (least) to 10 (most).,59907.300000071526,1669830071484,bagel plain,1922.3999999761581,True,3.0100000000000002,61829.700000047684,1922.3999999761581,True,HRV,HRV_0065,2022-11-30 17:42:55
23,"[{'imgObject': {}, 'id': 'burger', 'src': '/static/foodstim60/burger.jpg', 'key': 'NaN', 'origWidth': 409, 'origHeight': 409, 'width': 409, 'height': 409, 'widthPercent': 0.8, 'rescaleHeight': True, 'trialN': 23, 'loaded': True, 'loadedTime': 2676.3000000715256, 'positionName': 'CENTER', 'positionCoords': [635.5, 320.5]}]",Rate how much you want to eat this food from 0 (least) to 10 (most).,61830.5,1669830073407,burger,2020.2000000476837,True,2.34,63850.700000047684,2020.2000000476837,True,HRV,HRV_0065,2022-11-30 17:42:55
24,"[{'imgObject': {}, 'id': 'cantaloupe', 'src': '/static/foodstim60/cantaloupe.jpg', 'key': 'NaN', 'origWidth': 409, 'origHeight': 409, 'width': 409, 'height': 409, 'widthPercent': 0.8, 'rescaleHeight': True, 'trialN': 24, 'loaded': True, 'loadedTime': 2694.600000023842, 'positionName': 'CENTER', 'positionCoords': [635.5, 320.5]}]",Rate how much you want to eat this food from 0 (least) to 10 (most).,63851.39999997616,1669830075428,cantaloupe,2492.2000000476837,True,0.22,66343.60000002384,2492.2000000476837,True,HRV,HRV_0065,2022-11-30 17:42:55
25,"[{'imgObject': {}, 'id': 'strawberries', 'src': '/static/foodstim60/strawberries.jpg', 'key': 'NaN', 'origWidth': 410, 'origHeight': 410, 'width': 410, 'height': 410, 'widthPercent': 0.8, 'rescaleHeight': True, 'trialN': 25, 'loaded': True, 'loadedTime': 2700.100000023842, 'positionName': 'CENTER', 'positionCoords': [635, 320]}]",Rate how much you want to eat this food from 0 (least) to 10 (most).,66344.5,1669830077921,strawberries,3670.0,True,6.36,70014.5,3670.0,True,HRV,HRV_0065,2022-11-30 17:42:55
26,"[{'imgObject': {}, 'id': 'hotdog w must', 'src': '/static/foodstim60/hotdog w must.jpg', 'key': 'NaN', 'origWidth': 409, 'origHeight': 409, 'width': 409, 'height': 409, 'widthPercent': 0.8, 'rescaleHeight': True, 'trialN': 26, 'loaded': True, 'loadedTime': 2704.7000000476837, 'positionName': 'CENTER', 'positionCoords': [635.5, 320.5]}]",Rate how much you want to eat this food from 0 (least) to 10 (most).,70015.30000007153,1669830081592,hotdog w must,3163.2999999523163,True,2.23,73178.60000002384,3163.2999999523163,True,HRV,HRV_0065,2022-11-30 17:42:55
27,"[{'imgObject': {}, 'id': 'hashbrowns', 'src': '/static/foodstim60/hashbrowns.jpg', 'key': 'NaN', 'origWidth': 411, 'origHeight': 410, 'width': 411, 'height': 410, 'widthPercent': 0.8, 'rescaleHeight': True, 'trialN': 27, 'loaded': True, 'loadedTime': 2709.2000000476837, 'positionName': 'CENTER', 'positionCoords': [634.5, 320]}]",Rate how much you want to eat this food from 0 (least) to 10 (most).,73179.20000004768,1669830084756,hashbrowns,6086.5,True,0.91,79265.70000004768,6086.5,True,HRV,HRV_0065,2022-11-30 17:42:55
28,"[{'imgObject': {}, 'id': 'rigatoni and sauce', 'src': '/static/foodstim60/rigatoni and sauce.jpg', 'key': 'NaN', 'origWidth': 410, 'origHeight': 411, 'width': 410, 'height': 411, 'widthPercent': 0.8, 'rescaleHeight': True, 'trialN': 28, 'loaded': True, 'loadedTime': 2713.2000000476837, 'positionName': 'CENTER', 'positionCoords': [635, 319.5]}]",Rate how much you want to eat this food from 0 (least) to 10 (most).,79266.39999997616,1669830090842,rigatoni and sauce,2635.100000023842,True,3.0,81901.5,2635.100000023842,True,HRV,HRV_0065,2022-11-30 17:42:55
29,"[{'imgObject': {}, 'id': 'sweetpotato', 'src': '/static/foodstim60/sweetpotato.jpg', 'key': 'NaN', 'origWidth': 410, 'origHeight': 410, 'width': 410, 'height': 410, 'widthPercent': 0.8, 'rescaleHeight': True, 'trialN': 29, 'loaded': True, 'loadedTime': 2717.399999976158, 'positionName': 'CENTER', 'positionCoords': [635, 320]}]",Rate how much you want to eat this food from 0 (least) to 10 (most).,81902.20000004768,1669830093478,sweetpotato,1868.2999999523163,True,0.08,83770.5,1868.2999999523163,True,HRV,HRV_0065,2022-11-30 17:42:55
30,"[{'imgObject': {}, 'id': 'fruitsalad', 'src': '/static/foodstim60/fruitsalad.jpg', 'key': 'NaN', 'origWidth': 410, 'origHeight': 410, 'width': 410, 'height': 410, 'widthPercent': 0.8, 'rescaleHeight': True, 'trialN': 30, 'loaded': True, 'loadedTime': 2741.7000000476837, 'positionName': 'CENTER', 'positionCoords': [635, 320]}]",Rate how much you want to eat this food from 0 (least) to 10 (most).,83771.20000004768,1669830095347,fruitsalad,3643.2999999523163,True,7.47,87414.5,3643.2999999523163,True,HRV,HRV_0065,2022-11-30 17:42:55
31,"[{'imgObject': {}, 'id': 'grilled chicken strips', 'src': '/static/foodstim60/grilled chicken strips.jpg', 'key': 'NaN', 'origWidth': 410, 'origHeight': 411, 'width': 410, 'height': 411, 'widthPercent': 0.8, 'rescaleHeight': True, 'trialN': 31, 'loaded': True, 'loadedTime': 2751.2000000476837, 'positionName': 'CENTER', 'positionCoords': [635, 319.5]}]",Rate how much you want to eat this food from 0 (least) to 10 (most).,87415.20000004768,1669830098991,grilled chicken strips,2141.2999999523163,True,5.65,89556.5,2141.2999999523163,True,HRV,HRV_0065,2022-11-30 17:42:55
32,"[{'imgObject': {}, 'id': 'blueberries', 'src': '/static/foodstim60/blueberries.jpg', 'key': 'NaN', 'origWidth': 411, 'origHeight': 411, 'width': 411, 'height': 411, 'widthPercent': 0.8, 'rescaleHeight': True, 'trialN': 32, 'loaded': True, 'loadedTime': 2765.100000023842, 'positionName': 'CENTER', 'positionCoords': [634.5, 319.5]}]",Rate how much you want to eat this food from 0 (least) to 10 (most).,89557.30000007153,1669830101133,blueberries,1991.1999999284744,True,4.96,91548.5,1991.1999999284744,True,HRV,HRV_0065,2022-11-30 17:42:55
33,"[{'imgObject': {}, 'id': 'rigatoni', 'src': '/static/foodstim60/rigatoni.jpg', 'key': 'NaN', 'origWidth': 411, 'origHeight': 411, 'width': 411, 'height': 411, 'widthPercent': 0.8, 'rescaleHeight': True, 'trialN': 33, 'loaded': True, 'loadedTime': 2760.600000023842, 'positionName': 'CENTER', 'positionCoords': [634.5, 319.5]}]",Rate how much you want to eat this food from 0 (least) to 10 (most).,91549.30000007153,1669830103125,rigatoni,2545.1999999284744,True,1.71,94094.5,2545.1999999284744,True,HRV,HRV_0065,2022-11-30 17:42:55
34,"[{'imgObject': {}, 'id': 'orange slices', 'src': '/static/foodstim60/orange slices.jpg', 'key': 'NaN', 'origWidth': 409, 'origHeight': 410, 'width': 409, 'height': 410, 'widthPercent': 0.8, 'rescaleHeight': True, 'trialN': 34, 'loaded': True, 'loadedTime': 2756.7000000476837, 'positionName': 'CENTER', 'positionCoords': [635.5, 320]}]",Rate how much you want to eat this food from 0 (least) to 10 (most).,94095.20000004768,1669830105671,orange slices,2159.2999999523163,True,8.1,96254.5,2159.2999999523163,True,HRV,HRV_0065,2022-11-30 17:42:55
35,"[{'imgObject': {}, 'id': 'turkey sandwich', 'src': '/static/foodstim60/turkey sandwich.jpg', 'key': 'NaN', 'origWidth': 409, 'origHeight': 409, 'width': 409, 'height': 409, 'widthPercent': 0.8, 'rescaleHeight': True, 'trialN': 35, 'loaded': True, 'loadedTime': 2771, 'positionName': 'CENTER', 'positionCoords': [635.5, 320.5]}]",Rate how much you want to eat this food from 0 (least) to 10 (most).,96255.30000007153,1669830107831,turkey sandwich,2458.0999999046326,True,8.540000000000001,98713.39999997616,2458.0999999046326,True,HRV,HRV_0065,2022-11-30 17:42:55
36,"[{'imgObject': {}, 'id': 'cheerios', 'src': '/static/foodstim60/cheerios.jpg', 'key': 'NaN', 'origWidth': 409, 'origHeight': 410, 'width': 409, 'height': 410, 'widthPercent': 0.8, 'rescaleHeight': True, 'trialN': 36, 'loaded': True, 'loadedTime': 2792.7000000476837, 'positionName': 'CENTER', 'positionCoords': [635.5, 320]}]",Rate how much you want to eat this food from 0 (least) to 10 (most).,98714.0,1669830110290,cheerios,2303.5,True,6.390000000000001,101017.5,2303.5,True,HRV,HRV_0065,2022-11-30 17:42:55
37,"[{'imgObject': {}, 'id': 'omelette', 'src': '/static/foodstim60/omelette.jpg', 'key': 'NaN', 'origWidth': 410, 'origHeight': 409, 'width': 410, 'height': 409, 'widthPercent': 0.8, 'rescaleHeight': True, 'trialN': 37, 'loaded': True, 'loadedTime': 2808.600000023842, 'positionName': 'CENTER', 'positionCoords': [635, 320.5]}]",Rate how much you want to eat this food from 0 (least) to 10 (most).,101018.20000004768,1669830112594,omelette,2761.1999999284744,True,2.38,103779.39999997616,2761.1999999284744,True,HRV,HRV_0065,2022-11-30 17:42:55
38,"[{'imgObject': {}, 'id': 'granola w milk', 'src': '/static/foodstim60/granola w milk.jpg', 'key': 'NaN', 'origWidth': 410, 'origHeight': 410, 'width': 410, 'height': 410, 'widthPercent': 0.8, 'rescaleHeight': True, 'trialN': 38, 'loaded': True, 'loadedTime': 2798.5, 'positionName': 'CENTER', 'positionCoords': [635, 320]}]",Rate how much you want to eat this food from 0 (least) to 10 (most).,103780.10000002384,1669830115356,granola w milk,4463.399999976158,True,5.07,108243.5,4463.399999976158,True,HRV,HRV_0065,2022-11-30 17:42:55
39,"[{'imgObject': {}, 'id': 'seaweed', 'src': '/static/foodstim60/seaweed.jpg', 'key': 'NaN', 'origWidth': 410, 'origHeight': 410, 'width': 410, 'height': 410, 'widthPercent': 0.8, 'rescaleHeight': True, 'trialN': 39, 'loaded': True, 'loadedTime': 2813.8000000715256, 'positionName': 'CENTER', 'positionCoords': [635, 320]}]",Rate how much you want to eat this food from 0 (least) to 10 (most).,108244.20000004768,1669830119820,seaweed,3017.2999999523163,True,4.0,111261.5,3017.2999999523163,True,HRV,HRV_0065,2022-11-30 17:42:55
40,"[{'imgObject': {}, 'id': 'roastedpotatoes', 'src': '/static/foodstim60/roastedpotatoes.jpg', 'key': 'NaN', 'origWidth': 409, 'origHeight': 410, 'width': 409, 'height': 410, 'widthPercent': 0.8, 'rescaleHeight': True, 'trialN': 40, 'loaded': True, 'loadedTime': 2804.5, 'positionName': 'CENTER', 'positionCoords': [635.5, 320]}]",Rate how much you want to eat this food from 0 (least) to 10 (most).,111262.5,1669830122838,roastedpotatoes,3052.0,True,7.47,114314.5,3052.0,True,HRV,HRV_0065,2022-11-30 17:42:55
41,"[{'imgObject': {}, 'id': 'froot loops w milk', 'src': '/static/foodstim60/froot loops w milk.jpg', 'key': 'NaN', 'origWidth': 410, 'origHeight': 410, 'width': 410, 'height': 410, 'widthPercent': 0.8, 'rescaleHeight': True, 'trialN': 41, 'loaded': True, 'loadedTime': 2818.3000000715256, 'positionName': 'CENTER', 'positionCoords': [635, 320]}]",Rate how much you want to eat this food from 0 (least) to 10 (most).,114315.20000004768,1669830125891,froot loops w milk,2638.1999999284744,True,3.27,116953.39999997616,2638.1999999284744,True,HRV,HRV_0065,2022-11-30 17:42:55
42,"[{'imgObject': {}, 'id': 'corn cob', 'src': '/static/foodstim60/corn cob.jpg', 'key': 'NaN', 'origWidth': 411, 'origHeight': 411, 'width': 411, 'height': 411, 'widthPercent': 0.8, 'rescaleHeight': True, 'trialN': 42, 'loaded': True, 'loadedTime': 2832.399999976158, 'positionName': 'CENTER', 'positionCoords': [634.5, 319.5]}]",Rate how much you want to eat this food from 0 (least) to 10 (most).,116954.10000002384,1669830128530,corn cob,1943.2999999523163,True,1.3900000000000001,118897.39999997616,1943.2999999523163,True,HRV,HRV_0065,2022-11-30 17:42:55
43,"[{'imgObject': {}, 'id': 'luckycharms', 'src': '/static/foodstim60/luckycharms.jpg', 'key': 'NaN', 'origWidth': 410, 'origHeight': 409, 'width': 410, 'height': 409, 'widthPercent': 0.8, 'rescaleHeight': True, 'trialN': 43, 'loaded': True, 'loadedTime': 2862.100000023842, 'positionName': 'CENTER', 'positionCoords': [635, 320.5]}]",Rate how much you want to eat this food from 0 (least) to 10 (most).,118898.0,1669830130474,luckycharms,1838.6000000238419,True,6.08,120736.60000002384,1838.6000000238419,True,HRV,HRV_0065,2022-11-30 17:42:55
44,"[{'imgObject': {}, 'id': 'popsicles', 'src': '/static/foodstim60/popsicles.jpg', 'key': 'NaN', 'origWidth': 410, 'origHeight': 410, 'width': 410, 'height': 410, 'widthPercent': 0.8, 'rescaleHeight': True, 'trialN': 44, 'loaded': True, 'loadedTime': 2845.8000000715256, 'positionName': 'CENTER', 'positionCoords': [635, 320]}]",Rate how much you want to eat this food from 0 (least) to 10 (most).,120737.30000007153,1669830132313,popsicles,1971.1999999284744,True,4.94,122708.5,1971.1999999284744,True,HRV,HRV_0065,2022-11-30 17:42:55
45,"[{'imgObject': {}, 'id': 'eggs', 'src': '/static/foodstim60/eggs.jpg', 'key': 'NaN', 'origWidth': 409, 'origHeight': 409, 'width': 409, 'height': 409, 'widthPercent': 0.8, 'rescaleHeight': True, 'trialN': 45, 'loaded': True, 'loadedTime': 2856.100000023842, 'positionName': 'CENTER', 'positionCoords': [635.5, 320.5]}]",Rate how much you want to eat this food from 0 (least) to 10 (most).,122709.10000002384,1669830134285,eggs,3022.399999976158,True,5.94,125731.5,3022.399999976158,True,HRV,HRV_0065,2022-11-30 17:42:55
46,"[{'imgObject': {}, 'id': 'salmon', 'src': '/static/foodstim60/salmon.jpg', 'key': 'NaN', 'origWidth': 410, 'origHeight': 409, 'width': 410, 'height': 409, 'widthPercent': 0.8, 'rescaleHeight': True, 'trialN': 46, 'loaded': True, 'loadedTime': 2872.5, 'positionName': 'CENTER', 'positionCoords': [635, 320.5]}]",Rate how much you want to eat this food from 0 (least) to 10 (most).,125732.20000004768,1669830137308,salmon,3473.1999999284744,True,5.0200000000000005,129205.39999997616,3473.1999999284744,True,HRV,HRV_0065,2022-11-30 17:42:55
47,"[{'imgObject': {}, 'id': 'avocado', 'src': '/static/foodstim60/avocado.jpg', 'key': 'NaN', 'origWidth': 409, 'origHeight': 409, 'width': 409, 'height': 409, 'widthPercent': 0.8, 'rescaleHeight': True, 'trialN': 47, 'loaded': True, 'loadedTime': 2866.8000000715256, 'positionName': 'CENTER', 'positionCoords': [635.5, 320.5]}]",Rate how much you want to eat this food from 0 (least) to 10 (most).,129206.10000002384,1669830140782,avocado,2504.399999976158,True,2.05,131710.5,2504.399999976158,True,HRV,HRV_0065,2022-11-30 17:42:55
48,"[{'imgObject': {}, 'id': 'cocktailshrimp', 'src': '/static/foodstim60/cocktailshrimp.jpg', 'key': 'NaN', 'origWidth': 410, 'origHeight': 410, 'width': 410, 'height': 410, 'widthPercent': 0.8, 'rescaleHeight': True, 'trialN': 48, 'loaded': True, 'loadedTime': 2880.5, 'positionName': 'CENTER', 'positionCoords': [635, 320]}]",Rate how much you want to eat this food from 0 (least) to 10 (most).,131711.20000004768,1669830143287,cocktailshrimp,3031.399999976158,True,8.52,134742.60000002384,3031.399999976158,True,HRV,HRV_0065,2022-11-30 17:42:55
49,"[{'imgObject': {}, 'id': 'sushi w_condiments', 'src': '/static/foodstim60/sushi w_condiments.jpg', 'key': 'NaN', 'origWidth': 410, 'origHeight': 410, 'width': 410, 'height': 410, 'widthPercent': 0.8, 'rescaleHeight': True, 'trialN': 49, 'loaded': True, 'loadedTime': 2887.2000000476837, 'positionName': 'CENTER', 'positionCoords': [635, 320]}]",Rate how much you want to eat this food from 0 (least) to 10 (most).,134743.60000002384,1669830146320,sushi w_condiments,3499.100000023842,True,10.0,138242.70000004768,3499.100000023842,True,HRV,HRV_0065,2022-11-30 17:42:55
50,"[{'imgObject': {}, 'id': 'mango', 'src': '/static/foodstim60/mango.jpg', 'key': 'NaN', 'origWidth': 411, 'origHeight': 411, 'width': 411, 'height': 411, 'widthPercent': 0.8, 'rescaleHeight': True, 'trialN': 50, 'loaded': True, 'loadedTime': 2898.600000023842, 'positionName': 'CENTER', 'positionCoords': [634.5, 319.5]}]",Rate how much you want to eat this food from 0 (least) to 10 (most).,138243.5,1669830149819,mango,2317.899999976158,True,5.67,140561.39999997616,2317.899999976158,True,HRV,HRV_0065,2022-11-30 17:42:55
51,"[{'imgObject': {}, 'id': 'Grapes', 'src': '/static/foodstim60/Grapes.jpg', 'key': 'NaN', 'origWidth': 411, 'origHeight': 411, 'width': 411, 'height': 411, 'widthPercent': 0.8, 'rescaleHeight': True, 'trialN': 51, 'loaded': True, 'loadedTime': 2903.3000000715256, 'positionName': 'CENTER', 'positionCoords': [634.5, 319.5]}]",Rate how much you want to eat this food from 0 (least) to 10 (most).,140561.89999997616,1669830152138,Grapes,2572.5,True,6.84,143134.39999997616,2572.5,True,HRV,HRV_0065,2022-11-30 17:42:55
52,"[{'imgObject': {}, 'id': 'raspberries', 'src': '/static/foodstim60/raspberries.jpg', 'key': 'NaN', 'origWidth': 411, 'origHeight': 411, 'width': 411, 'height': 411, 'widthPercent': 0.8, 'rescaleHeight': True, 'trialN': 52, 'loaded': True, 'loadedTime': 2908.600000023842, 'positionName': 'CENTER', 'positionCoords': [634.5, 319.5]}]",Rate how much you want to eat this food from 0 (least) to 10 (most).,143135.0,1669830154711,raspberries,1640.3999999761581,True,5.7700000000000005,144775.39999997616,1640.3999999761581,True,HRV,HRV_0065,2022-11-30 17:42:55
53,"[{'imgObject': {}, 'id': 'turkeysandwich', 'src': '/static/foodstim60/turkeysandwich.jpg', 'key': 'NaN', 'origWidth': 409, 'origHeight': 409, 'width': 409, 'height': 409, 'widthPercent': 0.8, 'rescaleHeight': True, 'trialN': 53, 'loaded': True, 'loadedTime': 2913.2000000476837, 'positionName': 'CENTER', 'positionCoords': [635.5, 320.5]}]",Rate how much you want to eat this food from 0 (least) to 10 (most).,144776.10000002384,1669830156352,turkeysandwich,1658.2999999523163,True,8.69,146434.39999997616,1658.2999999523163,True,HRV,HRV_0065,2022-11-30 17:42:55
54,"[{'imgObject': {}, 'id': 'olives', 'src': '/static/foodstim60/olives.jpg', 'key': 'NaN', 'origWidth': 410, 'origHeight': 410, 'width': 410, 'height': 410, 'widthPercent': 0.8, 'rescaleHeight': True, 'trialN': 54, 'loaded': True, 'loadedTime': 2917.8000000715256, 'positionName': 'CENTER', 'positionCoords': [635, 320]}]",Rate how much you want to eat this food from 0 (least) to 10 (most).,146435.10000002384,1669830158011,olives,1858.2999999523163,True,2.22,148293.39999997616,1858.2999999523163,True,HRV,HRV_0065,2022-11-30 17:42:55
55,"[{'imgObject': {}, 'id': 'mac & cheese', 'src': '/static/foodstim60/mac & cheese.jpg', 'key': 'NaN', 'origWidth': 410, 'origHeight': 410, 'width': 410, 'height': 410, 'widthPercent': 0.8, 'rescaleHeight': True, 'trialN': 55, 'loaded': True, 'loadedTime': 2942.899999976158, 'positionName': 'CENTER', 'positionCoords': [635, 320]}]",Rate how much you want to eat this food from 0 (least) to 10 (most).,148294.0,1669830159870,mac & cheese,4016.399999976158,True,5.82,152310.39999997616,4016.399999976158,True,HRV,HRV_0065,2022-11-30 17:42:55
56,"[{'imgObject': {}, 'id': 'apple slices', 'src': '/static/foodstim60/apple slices.jpg', 'key': 'NaN', 'origWidth': 409, 'origHeight': 410, 'width': 409, 'height': 410, 'widthPercent': 0.8, 'rescaleHeight': True, 'trialN': 56, 'loaded': True, 'loadedTime': 2937.600000023842, 'positionName': 'CENTER', 'positionCoords': [635.5, 320]}]",Rate how much you want to eat this food from 0 (least) to 10 (most).,152311.10000002384,1669830163887,apple slices,5477.299999952316,True,6.88,157788.39999997616,5477.299999952316,True,HRV,HRV_0065,2022-11-30 17:42:55
57,"[{'imgObject': {}, 'id': 'banana', 'src': '/static/foodstim60/banana.jpg', 'key': 'NaN', 'origWidth': 410, 'origHeight': 410, 'width': 410, 'height': 410, 'widthPercent': 0.8, 'rescaleHeight': True, 'trialN': 57, 'loaded': True, 'loadedTime': 2947.7000000476837, 'positionName': 'CENTER', 'positionCoords': [635, 320]}]",Rate how much you want to eat this food from 0 (least) to 10 (most).,157789.10000002384,1669830169365,banana,1843.2999999523163,True,7.28,159632.39999997616,1843.2999999523163,True,HRV,HRV_0065,2022-11-30 17:42:55
58,"[{'imgObject': {}, 'id': 'raisin bran w milk', 'src': '/static/foodstim60/raisin bran w milk.jpg', 'key': 'NaN', 'origWidth': 411, 'origHeight': 411, 'width': 411, 'height': 411, 'widthPercent': 0.8, 'rescaleHeight': True, 'trialN': 58, 'loaded': True, 'loadedTime': 2951.399999976158, 'positionName': 'CENTER', 'positionCoords': [634.5, 319.5]}]",Rate how much you want to eat this food from 0 (least) to 10 (most).,159633.10000002384,1669830171209,raisin bran w milk,2048.399999976158,True,7.05,161681.5,2048.399999976158,True,HRV,HRV_0065,2022-11-30 17:42:55
59,"[{'imgObject': {}, 'id': 'fried eggs', 'src': '/static/foodstim60/fried eggs.jpg', 'key': 'NaN', 'origWidth': 410, 'origHeight': 410, 'width': 410, 'height': 410, 'widthPercent': 0.8, 'rescaleHeight': True, 'trialN': 59, 'loaded': True, 'loadedTime': 2961.399999976158, 'positionName': 'CENTER', 'positionCoords': [635, 320]}]",Rate how much you want to eat this food from 0 (least) to 10 (most).,161682.30000007153,1669830173258,fried eggs,1832.0999999046326,True,7.82,163514.39999997616,1832.0999999046326,True,HRV,HRV_0065,2022-11-30 17:42:55
