trialN,stimuli,trialStartTime,trialStartTime_UNIX,stimulus1,stimulus2,stimulus1Bid,stimulus2Bid,delta,selected,rt,rt_UNIX,rt_perfnow,receivedResponse,rsp,trialEndTime,trialDuration,trialEndTime_UNIX,trialDuration_UNIX,exp,subjectId,date
0,"[{'imgObject': {}, 'id': 'shreddedwheatwithmilk', 'src': '/static/foodstim60/shreddedwheatwithmilk.jpg', 'key': 'u', 'origWidth': 410, 'origHeight': 410, 'width': 410, 'height': 410, 'widthPercent': 0.45, 'rescaleHeight': False, 'trialN': 0, 'loaded': True, 'loadedTime': 3234.2999999523163, 'positionName': 'LEFT', 'positionCoords': [396.4, 320], 'bid': 6.2700000000000005}, {'imgObject': {}, 'id': 'granola w milk', 'src': '/static/foodstim60/granola w milk.jpg', 'key': 'i', 'origWidth': 410, 'origHeight': 410, 'width': 410, 'height': 410, 'widthPercent': 0.45, 'rescaleHeight': False, 'trialN': 0, 'loaded': True, 'loadedTime': 3248.2999999523163, 'positionName': 'RIGHT', 'positionCoords': [873.6, 320], 'bid': 5.61}]",4074.1999999284744,1669830390549,shreddedwheatwithmilk,granola w milk,6.2700000000000005,5.61,-0.6600000000000001,granola w milk,1547.6000000238419,1549,1548.8000000715256,True,i,6125.099999904633,2050.899999976158,1669830392600,2051,HRV,HRV_0065,2022-11-30 17:53:07
1,"[{'imgObject': {}, 'id': 'salad w chicken', 'src': '/static/foodstim60/salad w chicken.jpg', 'key': 'u', 'origWidth': 411, 'origHeight': 411, 'width': 411, 'height': 411, 'widthPercent': 0.45, 'rescaleHeight': False, 'trialN': 1, 'loaded': True, 'loadedTime': 3265.6999999284744, 'positionName': 'LEFT', 'positionCoords': [395.4, 319.5], 'bid': 9.08}, {'imgObject': {}, 'id': 'turkey sandwich', 'src': '/static/foodstim60/turkey sandwich.jpg', 'key': 'i', 'origWidth': 409, 'origHeight': 409, 'width': 409, 'height': 409, 'widthPercent': 0.45, 'rescaleHeight': False, 'trialN': 1, 'loaded': True, 'loadedTime': 3285.7999999523163, 'positionName': 'RIGHT', 'positionCoords': [873.6, 320.5], 'bid': 9.35}]",6125.199999928474,1669830392600,salad w chicken,turkey sandwich,9.08,9.35,0.2699999999999996,salad w chicken,1233.5,1234,1233.8000000715256,True,u,7860.699999928474,1735.5,1669830394336,1736,HRV,HRV_0065,2022-11-30 17:53:07
2,"[{'imgObject': {}, 'id': 'ice cream sundae 002', 'src': '/static/foodstim60/ice cream sundae 002.jpg', 'key': 'u', 'origWidth': 409, 'origHeight': 409, 'width': 409, 'height': 409, 'widthPercent': 0.45, 'rescaleHeight': False, 'trialN': 2, 'loaded': True, 'loadedTime': 3296.899999976158, 'positionName': 'LEFT', 'positionCoords': [397.4, 320.5], 'bid': 3.4}, {'imgObject': {}, 'id': 'edamame', 'src': '/static/foodstim60/edamame.jpg', 'key': 'i', 'origWidth': 409, 'origHeight': 410, 'width': 409, 'height': 410, 'widthPercent': 0.45, 'rescaleHeight': False, 'trialN': 2, 'loaded': True, 'loadedTime': 3331.5999999046326, 'positionName': 'RIGHT', 'positionCoords': [873.6, 320], 'bid': 0.79}]",7860.899999976158,1669830394336,ice cream sundae 002,edamame,3.4,0.79,-2.61,ice cream sundae 002,1330.7999999523163,1331,1331.0,True,u,9692.599999904633,1831.6999999284744,1669830396168,1832,HRV,HRV_0065,2022-11-30 17:53:07
3,"[{'imgObject': {}, 'id': 'rigatoni and sauce', 'src': '/static/foodstim60/rigatoni and sauce.jpg', 'key': 'u', 'origWidth': 410, 'origHeight': 411, 'width': 410, 'height': 411, 'widthPercent': 0.45, 'rescaleHeight': False, 'trialN': 3, 'loaded': True, 'loadedTime': 3345.2999999523163, 'positionName': 'LEFT', 'positionCoords': [396.4, 319.5], 'bid': 4.94}, {'imgObject': {}, 'id': 'avocado', 'src': '/static/foodstim60/avocado.jpg', 'key': 'i', 'origWidth': 409, 'origHeight': 409, 'width': 409, 'height': 409, 'widthPercent': 0.45, 'rescaleHeight': False, 'trialN': 3, 'loaded': True, 'loadedTime': 3362.899999976158, 'positionName': 'RIGHT', 'positionCoords': [873.6, 320.5], 'bid': 1.29}]",9692.799999952316,1669830396168,rigatoni and sauce,avocado,4.94,1.29,-3.6500000000000004,rigatoni and sauce,1325.2000000476837,1325,1325.5,True,u,11524.599999904633,1831.7999999523163,1669830398000,1832,HRV,HRV_0065,2022-11-30 17:53:07
4,"[{'imgObject': {}, 'id': 'chickenfingers', 'src': '/static/foodstim60/chickenfingers.jpg', 'key': 'u', 'origWidth': 410, 'origHeight': 410, 'width': 410, 'height': 410, 'widthPercent': 0.45, 'rescaleHeight': False, 'trialN': 4, 'loaded': True, 'loadedTime': 3385.0999999046326, 'positionName': 'LEFT', 'positionCoords': [396.4, 320], 'bid': 7.83}, {'imgObject': {}, 'id': 'turkey sandwich', 'src': '/static/foodstim60/turkey sandwich.jpg', 'key': 'i', 'origWidth': 409, 'origHeight': 409, 'width': 409, 'height': 409, 'widthPercent': 0.45, 'rescaleHeight': False, 'trialN': 4, 'loaded': True, 'loadedTime': 3293.2999999523163, 'positionName': 'RIGHT', 'positionCoords': [873.6, 320.5], 'bid': 9.35}]",11524.699999928474,1669830398000,chickenfingers,turkey sandwich,7.83,9.35,1.5199999999999996,turkey sandwich,1547.0,1547,1547.2000000476837,True,i,13572.899999976158,2048.2000000476837,1669830400048,2048,HRV,HRV_0065,2022-11-30 17:53:07
5,"[{'imgObject': {}, 'id': 'ice cream sundae 002', 'src': '/static/foodstim60/ice cream sundae 002.jpg', 'key': 'u', 'origWidth': 409, 'origHeight': 409, 'width': 409, 'height': 409, 'widthPercent': 0.45, 'rescaleHeight': False, 'trialN': 5, 'loaded': True, 'loadedTime': 3315.399999976158, 'positionName': 'LEFT', 'positionCoords': [397.4, 320.5], 'bid': 3.4}, {'imgObject': {}, 'id': 'blackbeanswithrice', 'src': '/static/foodstim60/blackbeanswithrice.jpg', 'key': 'i', 'origWidth': 410, 'origHeight': 410, 'width': 410, 'height': 410, 'widthPercent': 0.45, 'rescaleHeight': False, 'trialN': 5, 'loaded': True, 'loadedTime': 3416.1999999284744, 'positionName': 'RIGHT', 'positionCoords': [873.6, 320], 'bid': 1.34}]",13573.0,1669830400048,ice cream sundae 002,blackbeanswithrice,3.4,1.34,-2.0599999999999996,ice cream sundae 002,1654.7999999523163,1655,1655.0999999046326,True,u,15732.5,2159.5,1669830402208,2160,HRV,HRV_0065,2022-11-30 17:53:07
6,"[{'imgObject': {}, 'id': 'strawberries', 'src': '/static/foodstim60/strawberries.jpg', 'key': 'u', 'origWidth': 410, 'origHeight': 410, 'width': 410, 'height': 410, 'widthPercent': 0.45, 'rescaleHeight': False, 'trialN': 6, 'loaded': True, 'loadedTime': 3419, 'positionName': 'LEFT', 'positionCoords': [396.4, 320], 'bid': 7.19}, {'imgObject': {}, 'id': 'roastedpotatoes', 'src': '/static/foodstim60/roastedpotatoes.jpg', 'key': 'i', 'origWidth': 409, 'origHeight': 410, 'width': 409, 'height': 410, 'widthPercent': 0.45, 'rescaleHeight': False, 'trialN': 6, 'loaded': True, 'loadedTime': 3451.0999999046326, 'positionName': 'RIGHT', 'positionCoords': [873.6, 320], 'bid': 7.28}]",15732.699999928474,1669830402208,strawberries,roastedpotatoes,7.19,7.28,0.08999999999999986,strawberries,1353.0,1353,1353.3000000715256,True,u,17588.799999952316,1856.1000000238419,1669830404064,1856,HRV,HRV_0065,2022-11-30 17:53:07
7,"[{'imgObject': {}, 'id': 'steak', 'src': '/static/foodstim60/steak.jpg', 'key': 'u', 'origWidth': 410, 'origHeight': 410, 'width': 410, 'height': 410, 'widthPercent': 0.45, 'rescaleHeight': False, 'trialN': 7, 'loaded': True, 'loadedTime': 3473, 'positionName': 'LEFT', 'positionCoords': [396.4, 320], 'bid': 7.3}, {'imgObject': {}, 'id': 'banana', 'src': '/static/foodstim60/banana.jpg', 'key': 'i', 'origWidth': 410, 'origHeight': 410, 'width': 410, 'height': 410, 'widthPercent': 0.45, 'rescaleHeight': False, 'trialN': 7, 'loaded': True, 'loadedTime': 3479.7999999523163, 'positionName': 'RIGHT', 'positionCoords': [873.6, 320], 'bid': 7.46}]",17588.899999976158,1669830404064,steak,banana,7.3,7.46,0.16000000000000014,banana,2349.7999999523163,2350,2350.100000023842,True,i,20443.699999928474,2854.7999999523163,1669830406919,2855,HRV,HRV_0065,2022-11-30 17:53:07
8,"[{'imgObject': {}, 'id': 'strawberries', 'src': '/static/foodstim60/strawberries.jpg', 'key': 'u', 'origWidth': 410, 'origHeight': 410, 'width': 410, 'height': 410, 'widthPercent': 0.45, 'rescaleHeight': False, 'trialN': 8, 'loaded': True, 'loadedTime': 3430.6999999284744, 'positionName': 'LEFT', 'positionCoords': [396.4, 320], 'bid': 7.19}, {'imgObject': {}, 'id': 'froot loops w milk', 'src': '/static/foodstim60/froot loops w milk.jpg', 'key': 'i', 'origWidth': 410, 'origHeight': 410, 'width': 410, 'height': 410, 'widthPercent': 0.45, 'rescaleHeight': False, 'trialN': 8, 'loaded': True, 'loadedTime': 3508.0999999046326, 'positionName': 'RIGHT', 'positionCoords': [873.6, 320], 'bid': 2.6}]",20443.799999952316,1669830406919,strawberries,froot loops w milk,7.19,2.6,-4.59,strawberries,1924.1000000238419,1924,1924.5,True,u,22868.599999904633,2424.7999999523163,1669830409344,2425,HRV,HRV_0065,2022-11-30 17:53:07
9,"[{'imgObject': {}, 'id': 'corn cob', 'src': '/static/foodstim60/corn cob.jpg', 'key': 'u', 'origWidth': 411, 'origHeight': 411, 'width': 411, 'height': 411, 'widthPercent': 0.45, 'rescaleHeight': False, 'trialN': 9, 'loaded': True, 'loadedTime': 3523.1999999284744, 'positionName': 'LEFT', 'positionCoords': [395.4, 319.5], 'bid': 1.71}, {'imgObject': {}, 'id': 'blueberries', 'src': '/static/foodstim60/blueberries.jpg', 'key': 'i', 'origWidth': 411, 'origHeight': 411, 'width': 411, 'height': 411, 'widthPercent': 0.45, 'rescaleHeight': False, 'trialN': 9, 'loaded': True, 'loadedTime': 3528.5, 'positionName': 'RIGHT', 'positionCoords': [873.6, 319.5], 'bid': 5.04}]",22868.599999904633,1669830409344,corn cob,blueberries,1.71,5.04,3.33,blueberries,1432.0,1432,1432.2000000476837,True,i,24804.399999976158,1935.8000000715256,1669830411280,1936,HRV,HRV_0065,2022-11-30 17:53:07
10,"[{'imgObject': {}, 'id': 'granola w milk', 'src': '/static/foodstim60/granola w milk.jpg', 'key': 'u', 'origWidth': 410, 'origHeight': 410, 'width': 410, 'height': 410, 'widthPercent': 0.45, 'rescaleHeight': False, 'trialN': 10, 'loaded': True, 'loadedTime': 3239.1999999284744, 'positionName': 'LEFT', 'positionCoords': [396.4, 320], 'bid': 5.61}, {'imgObject': {}, 'id': 'luckycharms', 'src': '/static/foodstim60/luckycharms.jpg', 'key': 'i', 'origWidth': 410, 'origHeight': 409, 'width': 410, 'height': 409, 'widthPercent': 0.45, 'rescaleHeight': False, 'trialN': 10, 'loaded': True, 'loadedTime': 3560.1999999284744, 'positionName': 'RIGHT', 'positionCoords': [873.6, 320.5], 'bid': 5.89}]",24804.5,1669830411280,granola w milk,luckycharms,5.61,5.89,0.27999999999999936,granola w milk,2065.0999999046326,2065,2065.5,True,u,27372.099999904633,2567.5999999046326,1669830413847,2567,HRV,HRV_0065,2022-11-30 17:53:07
11,"[{'imgObject': {}, 'id': 'cantaloupe', 'src': '/static/foodstim60/cantaloupe.jpg', 'key': 'u', 'origWidth': 409, 'origHeight': 409, 'width': 409, 'height': 409, 'widthPercent': 0.45, 'rescaleHeight': False, 'trialN': 11, 'loaded': True, 'loadedTime': 3578.1999999284744, 'positionName': 'LEFT', 'positionCoords': [397.4, 320.5], 'bid': 0.34}, {'imgObject': {}, 'id': 'edamame', 'src': '/static/foodstim60/edamame.jpg', 'key': 'i', 'origWidth': 409, 'origHeight': 410, 'width': 409, 'height': 410, 'widthPercent': 0.45, 'rescaleHeight': False, 'trialN': 11, 'loaded': True, 'loadedTime': 3331.7999999523163, 'positionName': 'RIGHT', 'positionCoords': [873.6, 320], 'bid': 0.79}]",27372.099999904633,1669830413847,cantaloupe,edamame,0.34,0.79,0.45,edamame,1957.5,1958,1957.8000000715256,True,i,29836.399999976158,2464.3000000715256,1669830416312,2465,HRV,HRV_0065,2022-11-30 17:53:07
12,"[{'imgObject': {}, 'id': 'mac & cheese', 'src': '/static/foodstim60/mac & cheese.jpg', 'key': 'u', 'origWidth': 410, 'origHeight': 410, 'width': 410, 'height': 410, 'widthPercent': 0.45, 'rescaleHeight': False, 'trialN': 12, 'loaded': True, 'loadedTime': 3599.7999999523163, 'positionName': 'LEFT', 'positionCoords': [396.4, 320], 'bid': 5.82}, {'imgObject': {}, 'id': 'rigatoni and sauce', 'src': '/static/foodstim60/rigatoni and sauce.jpg', 'key': 'i', 'origWidth': 410, 'origHeight': 411, 'width': 410, 'height': 411, 'widthPercent': 0.45, 'rescaleHeight': False, 'trialN': 12, 'loaded': True, 'loadedTime': 3337, 'positionName': 'RIGHT', 'positionCoords': [873.6, 319.5], 'bid': 4.94}]",29836.5,1669830416312,mac & cheese,rigatoni and sauce,5.82,4.94,-0.8799999999999999,mac & cheese,1060.1999999284744,1060,1060.3999999761581,True,u,31404.899999976158,1568.3999999761581,1669830417880,1568,HRV,HRV_0065,2022-11-30 17:53:07
13,"[{'imgObject': {}, 'id': 'burrito', 'src': '/static/foodstim60/burrito.jpg', 'key': 'u', 'origWidth': 410, 'origHeight': 410, 'width': 410, 'height': 410, 'widthPercent': 0.45, 'rescaleHeight': False, 'trialN': 13, 'loaded': True, 'loadedTime': 3600, 'positionName': 'LEFT', 'positionCoords': [396.4, 320], 'bid': 4.47}, {'imgObject': {}, 'id': 'popsicles', 'src': '/static/foodstim60/popsicles.jpg', 'key': 'i', 'origWidth': 410, 'origHeight': 410, 'width': 410, 'height': 410, 'widthPercent': 0.45, 'rescaleHeight': False, 'trialN': 13, 'loaded': True, 'loadedTime': 3621.5999999046326, 'positionName': 'RIGHT', 'positionCoords': [873.6, 320], 'bid': 5.01}]",31405.0,1669830417880,burrito,popsicles,4.47,5.01,0.54,burrito,2021.0,2022,2021.5,True,u,33932.699999928474,2527.6999999284744,1669830420408,2528,HRV,HRV_0065,2022-11-30 17:53:07
14,"[{'imgObject': {}, 'id': 'mango', 'src': '/static/foodstim60/mango.jpg', 'key': 'u', 'origWidth': 411, 'origHeight': 411, 'width': 411, 'height': 411, 'widthPercent': 0.45, 'rescaleHeight': False, 'trialN': 14, 'loaded': True, 'loadedTime': 3647.1999999284744, 'positionName': 'LEFT', 'positionCoords': [395.4, 319.5], 'bid': 7.1000000000000005}, {'imgObject': {}, 'id': 'chickenfingers', 'src': '/static/foodstim60/chickenfingers.jpg', 'key': 'i', 'origWidth': 410, 'origHeight': 410, 'width': 410, 'height': 410, 'widthPercent': 0.45, 'rescaleHeight': False, 'trialN': 14, 'loaded': True, 'loadedTime': 3385.5, 'positionName': 'RIGHT', 'positionCoords': [873.6, 320], 'bid': 7.83}]",33932.799999952316,1669830420408,mango,chickenfingers,7.1000000000000005,7.83,0.7299999999999995,chickenfingers,2256.7999999523163,2257,2257.100000023842,True,i,36693.0,2760.2000000476837,1669830423168,2760,HRV,HRV_0065,2022-11-30 17:53:07
15,"[{'imgObject': {}, 'id': 'turkeysandwich', 'src': '/static/foodstim60/turkeysandwich.jpg', 'key': 'u', 'origWidth': 409, 'origHeight': 409, 'width': 409, 'height': 409, 'widthPercent': 0.45, 'rescaleHeight': False, 'trialN': 15, 'loaded': True, 'loadedTime': 3666.6999999284744, 'positionName': 'LEFT', 'positionCoords': [397.4, 320.5], 'bid': 8.950000000000001}, {'imgObject': {}, 'id': 'fruitsalad', 'src': '/static/foodstim60/fruitsalad.jpg', 'key': 'i', 'origWidth': 410, 'origHeight': 410, 'width': 410, 'height': 410, 'widthPercent': 0.45, 'rescaleHeight': False, 'trialN': 15, 'loaded': True, 'loadedTime': 3685.399999976158, 'positionName': 'RIGHT', 'positionCoords': [873.6, 320], 'bid': 8.61}]",36693.09999990463,1669830423168,turkeysandwich,fruitsalad,8.950000000000001,8.61,-0.34000000000000163,fruitsalad,1538.7000000476837,1539,1538.9000000953674,True,i,38732.39999997616,2039.3000000715256,1669830425207,2039,HRV,HRV_0065,2022-11-30 17:53:07
16,"[{'imgObject': {}, 'id': 'mac & cheese', 'src': '/static/foodstim60/mac & cheese.jpg', 'key': 'u', 'origWidth': 410, 'origHeight': 410, 'width': 410, 'height': 410, 'widthPercent': 0.45, 'rescaleHeight': False, 'trialN': 16, 'loaded': True, 'loadedTime': 3599.5, 'positionName': 'LEFT', 'positionCoords': [396.4, 320], 'bid': 5.82}, {'imgObject': {}, 'id': 'blueberries', 'src': '/static/foodstim60/blueberries.jpg', 'key': 'i', 'origWidth': 411, 'origHeight': 411, 'width': 411, 'height': 411, 'widthPercent': 0.45, 'rescaleHeight': False, 'trialN': 16, 'loaded': True, 'loadedTime': 3529.899999976158, 'positionName': 'RIGHT', 'positionCoords': [873.6, 319.5], 'bid': 5.04}]",38732.39999997616,1669830425208,mac & cheese,blueberries,5.82,5.04,-0.7800000000000002,mac & cheese,1312.5,1312,1312.7999999523163,True,u,40548.699999928474,1816.2999999523163,1669830427024,1816,HRV,HRV_0065,2022-11-30 17:53:07
17,"[{'imgObject': {}, 'id': 'fruitsalad', 'src': '/static/foodstim60/fruitsalad.jpg', 'key': 'u', 'origWidth': 410, 'origHeight': 410, 'width': 410, 'height': 410, 'widthPercent': 0.45, 'rescaleHeight': False, 'trialN': 17, 'loaded': True, 'loadedTime': 3685.7999999523163, 'positionName': 'LEFT', 'positionCoords': [396.4, 320], 'bid': 8.61}, {'imgObject': {}, 'id': 'fried eggs', 'src': '/static/foodstim60/fried eggs.jpg', 'key': 'i', 'origWidth': 410, 'origHeight': 410, 'width': 410, 'height': 410, 'widthPercent': 0.45, 'rescaleHeight': False, 'trialN': 17, 'loaded': True, 'loadedTime': 3699, 'positionName': 'RIGHT', 'positionCoords': [873.6, 320], 'bid': 6.75}]",40548.699999928474,1669830427024,fruitsalad,fried eggs,8.61,6.75,-1.8599999999999994,fruitsalad,1214.8999999761581,1215,1215.2000000476837,True,u,42268.699999928474,1720.0,1669830428744,1720,HRV,HRV_0065,2022-11-30 17:53:07
18,"[{'imgObject': {}, 'id': 'mashed potato', 'src': '/static/foodstim60/mashed potato.jpg', 'key': 'u', 'origWidth': 409, 'origHeight': 409, 'width': 409, 'height': 409, 'widthPercent': 0.45, 'rescaleHeight': False, 'trialN': 18, 'loaded': True, 'loadedTime': 3709.899999976158, 'positionName': 'LEFT', 'positionCoords': [397.4, 320.5], 'bid': 2.89}, {'imgObject': {}, 'id': 'omelette', 'src': '/static/foodstim60/omelette.jpg', 'key': 'i', 'origWidth': 410, 'origHeight': 409, 'width': 410, 'height': 409, 'widthPercent': 0.45, 'rescaleHeight': False, 'trialN': 18, 'loaded': True, 'loadedTime': 3729.899999976158, 'positionName': 'RIGHT', 'positionCoords': [873.6, 320.5], 'bid': 1.17}]",42268.799999952316,1669830428744,mashed potato,omelette,2.89,1.17,-1.7200000000000002,omelette,2101.100000023842,2101,2101.2999999523163,True,i,44876.39999997616,2607.600000023842,1669830431352,2608,HRV,HRV_0065,2022-11-30 17:53:07
19,"[{'imgObject': {}, 'id': 'apple slices', 'src': '/static/foodstim60/apple slices.jpg', 'key': 'u', 'origWidth': 409, 'origHeight': 410, 'width': 409, 'height': 410, 'widthPercent': 0.45, 'rescaleHeight': False, 'trialN': 19, 'loaded': True, 'loadedTime': 3735.7999999523163, 'positionName': 'LEFT', 'positionCoords': [397.4, 320], 'bid': 7.47}, {'imgObject': {}, 'id': 'chickenfingers', 'src': '/static/foodstim60/chickenfingers.jpg', 'key': 'i', 'origWidth': 410, 'origHeight': 410, 'width': 410, 'height': 410, 'widthPercent': 0.45, 'rescaleHeight': False, 'trialN': 19, 'loaded': True, 'loadedTime': 3380.6999999284744, 'positionName': 'RIGHT', 'positionCoords': [873.6, 320], 'bid': 7.83}]",44876.59999990463,1669830431352,apple slices,chickenfingers,7.47,7.83,0.3600000000000003,chickenfingers,1420.1000000238419,1420,1420.6000000238419,True,i,47484.799999952316,2608.2000000476837,1669830433960,2608,HRV,HRV_0065,2022-11-30 17:53:07
20,"[{'imgObject': {}, 'id': 'bagel plain', 'src': '/static/foodstim60/bagel plain.jpg', 'key': 'u', 'origWidth': 410, 'origHeight': 410, 'width': 410, 'height': 410, 'widthPercent': 0.45, 'rescaleHeight': False, 'trialN': 20, 'loaded': True, 'loadedTime': 3751.399999976158, 'positionName': 'LEFT', 'positionCoords': [396.4, 320], 'bid': 1.94}, {'imgObject': {}, 'id': 'omelette', 'src': '/static/foodstim60/omelette.jpg', 'key': 'i', 'origWidth': 410, 'origHeight': 409, 'width': 410, 'height': 409, 'widthPercent': 0.45, 'rescaleHeight': False, 'trialN': 20, 'loaded': True, 'loadedTime': 3724.1999999284744, 'positionName': 'RIGHT', 'positionCoords': [873.6, 320.5], 'bid': 1.17}]",47484.89999997616,1669830433960,bagel plain,omelette,1.94,1.17,-0.77,omelette,2000.8999999761581,2001,2001.2999999523163,True,i,49988.699999928474,2503.7999999523163,1669830436464,2504,HRV,HRV_0065,2022-11-30 17:53:07
21,"[{'imgObject': {}, 'id': 'turkey sandwich', 'src': '/static/foodstim60/turkey sandwich.jpg', 'key': 'u', 'origWidth': 409, 'origHeight': 409, 'width': 409, 'height': 409, 'widthPercent': 0.45, 'rescaleHeight': False, 'trialN': 21, 'loaded': True, 'loadedTime': 3276.6999999284744, 'positionName': 'LEFT', 'positionCoords': [397.4, 320.5], 'bid': 9.35}, {'imgObject': {}, 'id': 'banana', 'src': '/static/foodstim60/banana.jpg', 'key': 'i', 'origWidth': 410, 'origHeight': 410, 'width': 410, 'height': 410, 'widthPercent': 0.45, 'rescaleHeight': False, 'trialN': 21, 'loaded': True, 'loadedTime': 3478.0999999046326, 'positionName': 'RIGHT', 'positionCoords': [873.6, 320], 'bid': 7.46}]",49988.699999928474,1669830436464,turkey sandwich,banana,9.35,7.46,-1.8899999999999997,turkey sandwich,1158.0,1158,1158.3000000715256,True,u,51652.299999952316,1663.6000000238419,1669830438127,1663,HRV,HRV_0065,2022-11-30 17:53:07
22,"[{'imgObject': {}, 'id': 'cantaloupe', 'src': '/static/foodstim60/cantaloupe.jpg', 'key': 'u', 'origWidth': 409, 'origHeight': 409, 'width': 409, 'height': 409, 'widthPercent': 0.45, 'rescaleHeight': False, 'trialN': 22, 'loaded': True, 'loadedTime': 3578, 'positionName': 'LEFT', 'positionCoords': [397.4, 320.5], 'bid': 0.34}, {'imgObject': {}, 'id': 'corn cob', 'src': '/static/foodstim60/corn cob.jpg', 'key': 'i', 'origWidth': 411, 'origHeight': 411, 'width': 411, 'height': 411, 'widthPercent': 0.45, 'rescaleHeight': False, 'trialN': 22, 'loaded': True, 'loadedTime': 3517.7999999523163, 'positionName': 'RIGHT', 'positionCoords': [873.6, 319.5], 'bid': 1.71}]",51652.39999997616,1669830438128,cantaloupe,corn cob,0.34,1.71,1.3699999999999999,corn cob,1688.1999999284744,1688,1688.3999999761581,True,i,53844.89999997616,2192.5,1669830440320,2192,HRV,HRV_0065,2022-11-30 17:53:07
23,"[{'imgObject': {}, 'id': 'hashbrowns', 'src': '/static/foodstim60/hashbrowns.jpg', 'key': 'u', 'origWidth': 411, 'origHeight': 410, 'width': 411, 'height': 410, 'widthPercent': 0.45, 'rescaleHeight': False, 'trialN': 23, 'loaded': True, 'loadedTime': 3768, 'positionName': 'LEFT', 'positionCoords': [395.4, 320], 'bid': 0.6}, {'imgObject': {}, 'id': 'mac & cheese', 'src': '/static/foodstim60/mac & cheese.jpg', 'key': 'i', 'origWidth': 410, 'origHeight': 410, 'width': 410, 'height': 410, 'widthPercent': 0.45, 'rescaleHeight': False, 'trialN': 23, 'loaded': True, 'loadedTime': 3587.1999999284744, 'positionName': 'RIGHT', 'positionCoords': [873.6, 320], 'bid': 5.82}]",53845.0,1669830440320,hashbrowns,mac & cheese,0.6,5.82,5.220000000000001,mac & cheese,1290.0,1290,1290.2999999523163,True,i,55636.39999997616,1791.3999999761581,1669830442112,1792,HRV,HRV_0065,2022-11-30 17:53:07
24,"[{'imgObject': {}, 'id': 'ice cream sundae 002', 'src': '/static/foodstim60/ice cream sundae 002.jpg', 'key': 'u', 'origWidth': 409, 'origHeight': 409, 'width': 409, 'height': 409, 'widthPercent': 0.45, 'rescaleHeight': False, 'trialN': 24, 'loaded': True, 'loadedTime': 3318.399999976158, 'positionName': 'LEFT', 'positionCoords': [397.4, 320.5], 'bid': 3.4}, {'imgObject': {}, 'id': 'burger', 'src': '/static/foodstim60/burger.jpg', 'key': 'i', 'origWidth': 409, 'origHeight': 409, 'width': 409, 'height': 409, 'widthPercent': 0.45, 'rescaleHeight': False, 'trialN': 24, 'loaded': True, 'loadedTime': 3775.5999999046326, 'positionName': 'RIGHT', 'positionCoords': [873.6, 320.5], 'bid': 3.26}]",55636.5,1669830442112,ice cream sundae 002,burger,3.4,3.26,-0.14000000000000012,burger,2427.0999999046326,2427,2427.2999999523163,True,i,58564.5,2928.0,1669830445040,2928,HRV,HRV_0065,2022-11-30 17:53:07
25,"[{'imgObject': {}, 'id': 'yogurt no spoon', 'src': '/static/foodstim60/yogurt no spoon.jpg', 'key': 'u', 'origWidth': 411, 'origHeight': 410, 'width': 411, 'height': 410, 'widthPercent': 0.45, 'rescaleHeight': False, 'trialN': 25, 'loaded': True, 'loadedTime': 3791.5999999046326, 'positionName': 'LEFT', 'positionCoords': [395.4, 320], 'bid': 7.15}, {'imgObject': {}, 'id': 'shreddedwheatwithmilk', 'src': '/static/foodstim60/shreddedwheatwithmilk.jpg', 'key': 'i', 'origWidth': 410, 'origHeight': 410, 'width': 410, 'height': 410, 'widthPercent': 0.45, 'rescaleHeight': False, 'trialN': 25, 'loaded': True, 'loadedTime': 3232.0999999046326, 'positionName': 'RIGHT', 'positionCoords': [873.6, 320], 'bid': 6.2700000000000005}]",58564.59999990463,1669830445040,yogurt no spoon,shreddedwheatwithmilk,7.15,6.2700000000000005,-0.8799999999999999,yogurt no spoon,2436.0,2436,2436.2000000476837,True,u,61508.299999952316,2943.7000000476837,1669830447983,2943,HRV,HRV_0065,2022-11-30 17:53:07
26,"[{'imgObject': {}, 'id': 'apple slices', 'src': '/static/foodstim60/apple slices.jpg', 'key': 'u', 'origWidth': 409, 'origHeight': 410, 'width': 409, 'height': 410, 'widthPercent': 0.45, 'rescaleHeight': False, 'trialN': 26, 'loaded': True, 'loadedTime': 3744.5999999046326, 'positionName': 'LEFT', 'positionCoords': [397.4, 320], 'bid': 7.47}, {'imgObject': {}, 'id': 'eggs', 'src': '/static/foodstim60/eggs.jpg', 'key': 'i', 'origWidth': 409, 'origHeight': 409, 'width': 409, 'height': 409, 'widthPercent': 0.45, 'rescaleHeight': False, 'trialN': 26, 'loaded': True, 'loadedTime': 3813.899999976158, 'positionName': 'RIGHT', 'positionCoords': [873.6, 320.5], 'bid': 4.26}]",61508.39999997616,1669830447983,apple slices,eggs,7.47,4.26,-3.21,apple slices,1298.1999999284744,1299,1298.5,True,u,63308.89999997616,1800.5,1669830449784,1801,HRV,HRV_0065,2022-11-30 17:53:07
27,"[{'imgObject': {}, 'id': 'apple slices', 'src': '/static/foodstim60/apple slices.jpg', 'key': 'u', 'origWidth': 409, 'origHeight': 410, 'width': 409, 'height': 410, 'widthPercent': 0.45, 'rescaleHeight': False, 'trialN': 27, 'loaded': True, 'loadedTime': 3730.1999999284744, 'positionName': 'LEFT', 'positionCoords': [397.4, 320], 'bid': 7.47}, {'imgObject': {}, 'id': 'veggieswithdip', 'src': '/static/foodstim60/veggieswithdip.jpg', 'key': 'i', 'origWidth': 409, 'origHeight': 409, 'width': 409, 'height': 409, 'widthPercent': 0.45, 'rescaleHeight': False, 'trialN': 27, 'loaded': True, 'loadedTime': 3818.5999999046326, 'positionName': 'RIGHT', 'positionCoords': [873.6, 320.5], 'bid': 6.08}]",63309.0,1669830449784,apple slices,veggieswithdip,7.47,6.08,-1.3899999999999997,veggieswithdip,1298.5999999046326,1299,1298.7999999523163,True,i,65109.09999990463,1800.0999999046326,1669830451584,1800,HRV,HRV_0065,2022-11-30 17:53:07
28,"[{'imgObject': {}, 'id': 'omelette', 'src': '/static/foodstim60/omelette.jpg', 'key': 'u', 'origWidth': 410, 'origHeight': 409, 'width': 410, 'height': 409, 'widthPercent': 0.45, 'rescaleHeight': False, 'trialN': 28, 'loaded': True, 'loadedTime': 3723.899999976158, 'positionName': 'LEFT', 'positionCoords': [396.4, 320.5], 'bid': 1.17}, {'imgObject': {}, 'id': 'blackbeanswithrice', 'src': '/static/foodstim60/blackbeanswithrice.jpg', 'key': 'i', 'origWidth': 410, 'origHeight': 410, 'width': 410, 'height': 410, 'widthPercent': 0.45, 'rescaleHeight': False, 'trialN': 28, 'loaded': True, 'loadedTime': 3416.399999976158, 'positionName': 'RIGHT', 'positionCoords': [873.6, 320], 'bid': 1.34}]",65109.199999928474,1669830451584,omelette,blackbeanswithrice,1.17,1.34,0.17000000000000015,omelette,1464.8000000715256,1465,1465.0,True,u,67076.79999995232,1967.6000000238419,1669830453552,1968,HRV,HRV_0065,2022-11-30 17:53:07
29,"[{'imgObject': {}, 'id': 'fruitsalad', 'src': '/static/foodstim60/fruitsalad.jpg', 'key': 'u', 'origWidth': 410, 'origHeight': 410, 'width': 410, 'height': 410, 'widthPercent': 0.45, 'rescaleHeight': False, 'trialN': 29, 'loaded': True, 'loadedTime': 3689.5, 'positionName': 'LEFT', 'positionCoords': [396.4, 320], 'bid': 8.61}, {'imgObject': {}, 'id': 'cherries', 'src': '/static/foodstim60/cherries.jpg', 'key': 'i', 'origWidth': 410, 'origHeight': 411, 'width': 410, 'height': 411, 'widthPercent': 0.45, 'rescaleHeight': False, 'trialN': 29, 'loaded': True, 'loadedTime': 3832.6999999284744, 'positionName': 'RIGHT', 'positionCoords': [873.6, 319.5], 'bid': 7.47}]",67076.89999997616,1669830453552,fruitsalad,cherries,8.61,7.47,-1.1399999999999997,fruitsalad,2723.600000023842,2724,2723.7999999523163,True,u,70308.29999995232,3231.399999976158,1669830456783,3231,HRV,HRV_0065,2022-11-30 17:53:07
30,"[{'imgObject': {}, 'id': 'mashed potato', 'src': '/static/foodstim60/mashed potato.jpg', 'key': 'u', 'origWidth': 409, 'origHeight': 409, 'width': 409, 'height': 409, 'widthPercent': 0.45, 'rescaleHeight': False, 'trialN': 30, 'loaded': True, 'loadedTime': 3709.6999999284744, 'positionName': 'LEFT', 'positionCoords': [397.4, 320.5], 'bid': 2.89}, {'imgObject': {}, 'id': 'roastedpotatoes', 'src': '/static/foodstim60/roastedpotatoes.jpg', 'key': 'i', 'origWidth': 409, 'origHeight': 410, 'width': 409, 'height': 410, 'widthPercent': 0.45, 'rescaleHeight': False, 'trialN': 30, 'loaded': True, 'loadedTime': 3445.7999999523163, 'positionName': 'RIGHT', 'positionCoords': [873.6, 320], 'bid': 7.28}]",70308.39999997616,1669830456783,mashed potato,roastedpotatoes,2.89,7.28,4.390000000000001,roastedpotatoes,1280.1999999284744,1281,1280.2999999523163,True,i,72092.5,1784.1000000238419,1669830458567,1784,HRV,HRV_0065,2022-11-30 17:53:07
31,"[{'imgObject': {}, 'id': 'luckycharms', 'src': '/static/foodstim60/luckycharms.jpg', 'key': 'u', 'origWidth': 410, 'origHeight': 409, 'width': 410, 'height': 409, 'widthPercent': 0.45, 'rescaleHeight': False, 'trialN': 31, 'loaded': True, 'loadedTime': 3555.399999976158, 'positionName': 'LEFT', 'positionCoords': [396.4, 320.5], 'bid': 5.89}, {'imgObject': {}, 'id': 'grilled chicken strips', 'src': '/static/foodstim60/grilled chicken strips.jpg', 'key': 'i', 'origWidth': 410, 'origHeight': 411, 'width': 410, 'height': 411, 'widthPercent': 0.45, 'rescaleHeight': False, 'trialN': 31, 'loaded': True, 'loadedTime': 3857, 'positionName': 'RIGHT', 'positionCoords': [873.6, 319.5], 'bid': 5.9}]",72092.59999990463,1669830458567,luckycharms,grilled chicken strips,5.89,5.9,0.010000000000000675,grilled chicken strips,1106.9000000953674,1108,1107.1000000238419,True,i,73700.69999992847,1608.1000000238419,1669830460176,1609,HRV,HRV_0065,2022-11-30 17:53:07
32,"[{'imgObject': {}, 'id': 'cocktailshrimp', 'src': '/static/foodstim60/cocktailshrimp.jpg', 'key': 'u', 'origWidth': 410, 'origHeight': 410, 'width': 410, 'height': 410, 'widthPercent': 0.45, 'rescaleHeight': False, 'trialN': 32, 'loaded': True, 'loadedTime': 3897.5999999046326, 'positionName': 'LEFT', 'positionCoords': [396.4, 320], 'bid': 8.3}, {'imgObject': {}, 'id': 'raisin bran w milk', 'src': '/static/foodstim60/raisin bran w milk.jpg', 'key': 'i', 'origWidth': 411, 'origHeight': 411, 'width': 411, 'height': 411, 'widthPercent': 0.45, 'rescaleHeight': False, 'trialN': 32, 'loaded': True, 'loadedTime': 3912.0999999046326, 'positionName': 'RIGHT', 'positionCoords': [873.6, 319.5], 'bid': 6.47}]",73700.79999995232,1669830460176,cocktailshrimp,raisin bran w milk,8.3,6.47,-1.830000000000001,cocktailshrimp,1793.8999999761581,1794,1794.1000000238419,True,u,75996.29999995232,2295.5,1669830462471,2295,HRV,HRV_0065,2022-11-30 17:53:07
33,"[{'imgObject': {}, 'id': 'rigatoni', 'src': '/static/foodstim60/rigatoni.jpg', 'key': 'u', 'origWidth': 411, 'origHeight': 411, 'width': 411, 'height': 411, 'widthPercent': 0.45, 'rescaleHeight': False, 'trialN': 33, 'loaded': True, 'loadedTime': 3912.1999999284744, 'positionName': 'LEFT', 'positionCoords': [395.4, 319.5], 'bid': 0.85}, {'imgObject': {}, 'id': 'grilled chicken strips', 'src': '/static/foodstim60/grilled chicken strips.jpg', 'key': 'i', 'origWidth': 410, 'origHeight': 411, 'width': 410, 'height': 411, 'widthPercent': 0.45, 'rescaleHeight': False, 'trialN': 33, 'loaded': True, 'loadedTime': 3857.2999999523163, 'positionName': 'RIGHT', 'positionCoords': [873.6, 319.5], 'bid': 5.9}]",75996.39999997616,1669830462471,rigatoni,grilled chicken strips,0.85,5.9,5.050000000000001,grilled chicken strips,1812.3999999761581,1813,1812.6999999284744,True,i,78316.5,2320.100000023842,1669830464791,2320,HRV,HRV_0065,2022-11-30 17:53:07
34,"[{'imgObject': {}, 'id': 'burrito', 'src': '/static/foodstim60/burrito.jpg', 'key': 'u', 'origWidth': 410, 'origHeight': 410, 'width': 410, 'height': 410, 'widthPercent': 0.45, 'rescaleHeight': False, 'trialN': 34, 'loaded': True, 'loadedTime': 3604, 'positionName': 'LEFT', 'positionCoords': [396.4, 320], 'bid': 4.47}, {'imgObject': {}, 'id': 'froot loops w milk', 'src': '/static/foodstim60/froot loops w milk.jpg', 'key': 'i', 'origWidth': 410, 'origHeight': 410, 'width': 410, 'height': 410, 'widthPercent': 0.45, 'rescaleHeight': False, 'trialN': 34, 'loaded': True, 'loadedTime': 3499.399999976158, 'positionName': 'RIGHT', 'positionCoords': [873.6, 320], 'bid': 2.6}]",78316.5,1669830464791,burrito,froot loops w milk,4.47,2.6,-1.8699999999999997,burrito,1249.0999999046326,1250,1249.2999999523163,True,u,80069.0,1752.5,1669830466544,1753,HRV,HRV_0065,2022-11-30 17:53:07
35,"[{'imgObject': {}, 'id': 'chicken nuggets2', 'src': '/static/foodstim60/chicken nuggets2.jpg', 'key': 'u', 'origWidth': 410, 'origHeight': 409, 'width': 410, 'height': 409, 'widthPercent': 0.45, 'rescaleHeight': False, 'trialN': 35, 'loaded': True, 'loadedTime': 3924, 'positionName': 'LEFT', 'positionCoords': [396.4, 320.5], 'bid': 5.76}, {'imgObject': {}, 'id': 'raspberries', 'src': '/static/foodstim60/raspberries.jpg', 'key': 'i', 'origWidth': 411, 'origHeight': 411, 'width': 411, 'height': 411, 'widthPercent': 0.45, 'rescaleHeight': False, 'trialN': 35, 'loaded': True, 'loadedTime': 3958.6999999284744, 'positionName': 'RIGHT', 'positionCoords': [873.6, 319.5], 'bid': 5.73}]",80069.09999990463,1669830466544,chicken nuggets2,raspberries,5.76,5.73,-0.02999999999999936,chicken nuggets2,1100.4000000953674,1101,1100.6000000238419,True,u,81676.39999997616,1607.3000000715256,1669830468151,1607,HRV,HRV_0065,2022-11-30 17:53:07
36,"[{'imgObject': {}, 'id': 'kiwi', 'src': '/static/foodstim60/kiwi.jpg', 'key': 'u', 'origWidth': 410, 'origHeight': 410, 'width': 410, 'height': 410, 'widthPercent': 0.45, 'rescaleHeight': False, 'trialN': 36, 'loaded': True, 'loadedTime': 3958.899999976158, 'positionName': 'LEFT', 'positionCoords': [396.4, 320], 'bid': 8.01}, {'imgObject': {}, 'id': 'baked potato', 'src': '/static/foodstim60/baked potato.jpg', 'key': 'i', 'origWidth': 409, 'origHeight': 410, 'width': 409, 'height': 410, 'widthPercent': 0.45, 'rescaleHeight': False, 'trialN': 36, 'loaded': True, 'loadedTime': 3975.6999999284744, 'positionName': 'RIGHT', 'positionCoords': [873.6, 320], 'bid': 6.41}]",81676.5,1669830468151,kiwi,baked potato,8.01,6.41,-1.5999999999999996,kiwi,1648.8999999761581,1649,1649.1999999284744,True,u,83828.89999997616,2152.399999976158,1669830470304,2153,HRV,HRV_0065,2022-11-30 17:53:07
37,"[{'imgObject': {}, 'id': 'avocado', 'src': '/static/foodstim60/avocado.jpg', 'key': 'u', 'origWidth': 409, 'origHeight': 409, 'width': 409, 'height': 409, 'widthPercent': 0.45, 'rescaleHeight': False, 'trialN': 37, 'loaded': True, 'loadedTime': 3375.5, 'positionName': 'LEFT', 'positionCoords': [397.4, 320.5], 'bid': 1.29}, {'imgObject': {}, 'id': 'Tribe humus pita', 'src': '/static/foodstim60/Tribe humus pita.jpg', 'key': 'i', 'origWidth': 411, 'origHeight': 411, 'width': 411, 'height': 411, 'widthPercent': 0.45, 'rescaleHeight': False, 'trialN': 37, 'loaded': True, 'loadedTime': 3980.2999999523163, 'positionName': 'RIGHT', 'positionCoords': [873.6, 319.5], 'bid': 0.86}]",83829.09999990463,1669830470304,avocado,Tribe humus pita,1.29,0.86,-0.43000000000000005,avocado,1634.3000000715256,1634,1634.5,True,u,85964.59999990463,2135.5,1669830472439,2135,HRV,HRV_0065,2022-11-30 17:53:07
38,"[{'imgObject': {}, 'id': 'orange slices', 'src': '/static/foodstim60/orange slices.jpg', 'key': 'u', 'origWidth': 409, 'origHeight': 410, 'width': 409, 'height': 410, 'widthPercent': 0.45, 'rescaleHeight': False, 'trialN': 38, 'loaded': True, 'loadedTime': 3992.5, 'positionName': 'LEFT', 'positionCoords': [397.4, 320], 'bid': 7.58}, {'imgObject': {}, 'id': 'salmon', 'src': '/static/foodstim60/salmon.jpg', 'key': 'i', 'origWidth': 410, 'origHeight': 409, 'width': 410, 'height': 409, 'widthPercent': 0.45, 'rescaleHeight': False, 'trialN': 38, 'loaded': True, 'loadedTime': 3999, 'positionName': 'RIGHT', 'positionCoords': [873.6, 320.5], 'bid': 6.140000000000001}]",85964.69999992847,1669830472440,orange slices,salmon,7.58,6.140000000000001,-1.4399999999999995,orange slices,1914.3999999761581,1914,1914.7000000476837,True,u,88484.89999997616,2520.2000000476837,1669830474960,2520,HRV,HRV_0065,2022-11-30 17:53:07
39,"[{'imgObject': {}, 'id': 'sushi w_condiments', 'src': '/static/foodstim60/sushi w_condiments.jpg', 'key': 'u', 'origWidth': 410, 'origHeight': 410, 'width': 410, 'height': 410, 'widthPercent': 0.45, 'rescaleHeight': False, 'trialN': 39, 'loaded': True, 'loadedTime': 4004.5, 'positionName': 'LEFT', 'positionCoords': [396.4, 320], 'bid': 9.85}, {'imgObject': {}, 'id': 'turkey sandwich', 'src': '/static/foodstim60/turkey sandwich.jpg', 'key': 'i', 'origWidth': 409, 'origHeight': 409, 'width': 409, 'height': 409, 'widthPercent': 0.45, 'rescaleHeight': False, 'trialN': 39, 'loaded': True, 'loadedTime': 3282, 'positionName': 'RIGHT', 'positionCoords': [873.6, 320.5], 'bid': 9.35}]",88485.0,1669830474960,sushi w_condiments,turkey sandwich,9.85,9.35,-0.5,sushi w_condiments,2360.6999999284744,2361,2361.399999976158,True,u,91348.69999992847,2863.6999999284744,1669830477824,2864,HRV,HRV_0065,2022-11-30 17:53:07
40,"[{'imgObject': {}, 'id': 'olives', 'src': '/static/foodstim60/olives.jpg', 'key': 'u', 'origWidth': 410, 'origHeight': 410, 'width': 410, 'height': 410, 'widthPercent': 0.45, 'rescaleHeight': False, 'trialN': 40, 'loaded': True, 'loadedTime': 4004.7999999523163, 'positionName': 'LEFT', 'positionCoords': [396.4, 320], 'bid': 1.45}, {'imgObject': {}, 'id': 'edamame', 'src': '/static/foodstim60/edamame.jpg', 'key': 'i', 'origWidth': 409, 'origHeight': 410, 'width': 409, 'height': 410, 'widthPercent': 0.45, 'rescaleHeight': False, 'trialN': 40, 'loaded': True, 'loadedTime': 3322.5, 'positionName': 'RIGHT', 'positionCoords': [873.6, 320], 'bid': 0.79}]",91348.89999997616,1669830477824,olives,edamame,1.45,0.79,-0.6599999999999999,olives,1449.6999999284744,1450,1449.8999999761581,True,u,93300.19999992847,1951.2999999523163,1669830479775,1951,HRV,HRV_0065,2022-11-30 17:53:07
41,"[{'imgObject': {}, 'id': 'orange slices', 'src': '/static/foodstim60/orange slices.jpg', 'key': 'u', 'origWidth': 409, 'origHeight': 410, 'width': 409, 'height': 410, 'widthPercent': 0.45, 'rescaleHeight': False, 'trialN': 41, 'loaded': True, 'loadedTime': 3983.5, 'positionName': 'LEFT', 'positionCoords': [397.4, 320], 'bid': 7.58}, {'imgObject': {}, 'id': 'burrito', 'src': '/static/foodstim60/burrito.jpg', 'key': 'i', 'origWidth': 410, 'origHeight': 410, 'width': 410, 'height': 410, 'widthPercent': 0.45, 'rescaleHeight': False, 'trialN': 41, 'loaded': True, 'loadedTime': 3610.7999999523163, 'positionName': 'RIGHT', 'positionCoords': [873.6, 320], 'bid': 4.47}]",93300.39999997616,1669830479775,orange slices,burrito,7.58,4.47,-3.1100000000000003,orange slices,1070.2999999523163,1071,1070.6000000238419,True,u,94877.09999990463,1576.6999999284744,1669830481352,1577,HRV,HRV_0065,2022-11-30 17:53:07
42,"[{'imgObject': {}, 'id': 'edamame', 'src': '/static/foodstim60/edamame.jpg', 'key': 'u', 'origWidth': 409, 'origHeight': 410, 'width': 409, 'height': 410, 'widthPercent': 0.45, 'rescaleHeight': False, 'trialN': 42, 'loaded': True, 'loadedTime': 3325.5, 'positionName': 'LEFT', 'positionCoords': [397.4, 320], 'bid': 0.79}, {'imgObject': {}, 'id': 'luckycharms', 'src': '/static/foodstim60/luckycharms.jpg', 'key': 'i', 'origWidth': 410, 'origHeight': 409, 'width': 410, 'height': 409, 'widthPercent': 0.45, 'rescaleHeight': False, 'trialN': 42, 'loaded': True, 'loadedTime': 3559.899999976158, 'positionName': 'RIGHT', 'positionCoords': [873.6, 320.5], 'bid': 5.89}]",94877.19999992847,1669830481352,edamame,luckycharms,0.79,5.89,5.1,luckycharms,1288.2000000476837,1289,1288.5,True,i,96668.09999990463,1790.8999999761581,1669830483143,1791,HRV,HRV_0065,2022-11-30 17:53:07
43,"[{'imgObject': {}, 'id': 'burger', 'src': '/static/foodstim60/burger.jpg', 'key': 'u', 'origWidth': 409, 'origHeight': 409, 'width': 409, 'height': 409, 'widthPercent': 0.45, 'rescaleHeight': False, 'trialN': 43, 'loaded': True, 'loadedTime': 3776, 'positionName': 'LEFT', 'positionCoords': [397.4, 320.5], 'bid': 3.26}, {'imgObject': {}, 'id': 'hashbrowns', 'src': '/static/foodstim60/hashbrowns.jpg', 'key': 'i', 'origWidth': 411, 'origHeight': 410, 'width': 411, 'height': 410, 'widthPercent': 0.45, 'rescaleHeight': False, 'trialN': 43, 'loaded': True, 'loadedTime': 3761.1999999284744, 'positionName': 'RIGHT', 'positionCoords': [873.6, 320], 'bid': 0.6}]",96668.19999992847,1669830483143,burger,hashbrowns,3.26,0.6,-2.6599999999999997,burger,1145.3999999761581,1146,1145.6000000238419,True,u,98316.29999995232,1648.1000000238419,1669830484791,1648,HRV,HRV_0065,2022-11-30 17:53:07
44,"[{'imgObject': {}, 'id': 'kiwi', 'src': '/static/foodstim60/kiwi.jpg', 'key': 'u', 'origWidth': 410, 'origHeight': 410, 'width': 410, 'height': 410, 'widthPercent': 0.45, 'rescaleHeight': False, 'trialN': 44, 'loaded': True, 'loadedTime': 3971.2999999523163, 'positionName': 'LEFT', 'positionCoords': [396.4, 320], 'bid': 8.01}, {'imgObject': {}, 'id': 'yogurt no spoon', 'src': '/static/foodstim60/yogurt no spoon.jpg', 'key': 'i', 'origWidth': 411, 'origHeight': 410, 'width': 411, 'height': 410, 'widthPercent': 0.45, 'rescaleHeight': False, 'trialN': 44, 'loaded': True, 'loadedTime': 3788.0999999046326, 'positionName': 'RIGHT', 'positionCoords': [873.6, 320], 'bid': 7.15}]",98316.39999997616,1669830484791,kiwi,yogurt no spoon,8.01,7.15,-0.8599999999999994,yogurt no spoon,1070.1999999284744,1071,1070.5,True,i,99892.79999995232,1576.3999999761581,1669830486368,1577,HRV,HRV_0065,2022-11-30 17:53:07
45,"[{'imgObject': {}, 'id': 'burger', 'src': '/static/foodstim60/burger.jpg', 'key': 'u', 'origWidth': 409, 'origHeight': 409, 'width': 409, 'height': 409, 'widthPercent': 0.45, 'rescaleHeight': False, 'trialN': 45, 'loaded': True, 'loadedTime': 3775.7999999523163, 'positionName': 'LEFT', 'positionCoords': [397.4, 320.5], 'bid': 3.26}, {'imgObject': {}, 'id': 'steak', 'src': '/static/foodstim60/steak.jpg', 'key': 'i', 'origWidth': 410, 'origHeight': 410, 'width': 410, 'height': 410, 'widthPercent': 0.45, 'rescaleHeight': False, 'trialN': 45, 'loaded': True, 'loadedTime': 3465.5999999046326, 'positionName': 'RIGHT', 'positionCoords': [873.6, 320], 'bid': 7.3}]",99893.0,1669830486368,burger,steak,3.26,7.3,4.04,steak,1788.5,1789,1788.6999999284744,True,i,102189.0,2296.0,1669830488664,2296,HRV,HRV_0065,2022-11-30 17:53:07
46,"[{'imgObject': {}, 'id': 'baked potato', 'src': '/static/foodstim60/baked potato.jpg', 'key': 'u', 'origWidth': 409, 'origHeight': 410, 'width': 409, 'height': 410, 'widthPercent': 0.45, 'rescaleHeight': False, 'trialN': 46, 'loaded': True, 'loadedTime': 3980.0999999046326, 'positionName': 'LEFT', 'positionCoords': [397.4, 320], 'bid': 6.41}, {'imgObject': {}, 'id': 'fried eggs', 'src': '/static/foodstim60/fried eggs.jpg', 'key': 'i', 'origWidth': 410, 'origHeight': 410, 'width': 410, 'height': 410, 'widthPercent': 0.45, 'rescaleHeight': False, 'trialN': 46, 'loaded': True, 'loadedTime': 3693.899999976158, 'positionName': 'RIGHT', 'positionCoords': [873.6, 320], 'bid': 6.75}]",102189.0,1669830488664,baked potato,fried eggs,6.41,6.75,0.33999999999999986,fried eggs,1369.3999999761581,1369,1369.6999999284744,True,i,104060.89999997616,1871.8999999761581,1669830490536,1872,HRV,HRV_0065,2022-11-30 17:53:07
47,"[{'imgObject': {}, 'id': 'luckycharms', 'src': '/static/foodstim60/luckycharms.jpg', 'key': 'u', 'origWidth': 410, 'origHeight': 409, 'width': 410, 'height': 409, 'widthPercent': 0.45, 'rescaleHeight': False, 'trialN': 47, 'loaded': True, 'loadedTime': 3553.899999976158, 'positionName': 'LEFT', 'positionCoords': [396.4, 320.5], 'bid': 5.89}, {'imgObject': {}, 'id': 'banana', 'src': '/static/foodstim60/banana.jpg', 'key': 'i', 'origWidth': 410, 'origHeight': 410, 'width': 410, 'height': 410, 'widthPercent': 0.45, 'rescaleHeight': False, 'trialN': 47, 'loaded': True, 'loadedTime': 3480, 'positionName': 'RIGHT', 'positionCoords': [873.6, 320], 'bid': 7.46}]",104061.0,1669830490536,luckycharms,banana,5.89,7.46,1.5700000000000003,banana,2477.5,2477,2477.5999999046326,True,i,107484.29999995232,3423.2999999523163,1669830493959,3423,HRV,HRV_0065,2022-11-30 17:53:07
48,"[{'imgObject': {}, 'id': 'veggieswithdip', 'src': '/static/foodstim60/veggieswithdip.jpg', 'key': 'u', 'origWidth': 409, 'origHeight': 409, 'width': 409, 'height': 409, 'widthPercent': 0.45, 'rescaleHeight': False, 'trialN': 48, 'loaded': True, 'loadedTime': 3814.1999999284744, 'positionName': 'LEFT', 'positionCoords': [397.4, 320.5], 'bid': 6.08}, {'imgObject': {}, 'id': 'raspberries', 'src': '/static/foodstim60/raspberries.jpg', 'key': 'i', 'origWidth': 411, 'origHeight': 411, 'width': 411, 'height': 411, 'widthPercent': 0.45, 'rescaleHeight': False, 'trialN': 48, 'loaded': True, 'loadedTime': 3940.6999999284744, 'positionName': 'RIGHT', 'positionCoords': [873.6, 319.5], 'bid': 5.73}]",107484.39999997616,1669830493959,veggieswithdip,raspberries,6.08,5.73,-0.34999999999999964,veggieswithdip,1387.0,1387,1387.1999999284744,True,u,109372.79999995232,1888.3999999761581,1669830495848,1889,HRV,HRV_0065,2022-11-30 17:53:07
49,"[{'imgObject': {}, 'id': 'cocktailshrimp', 'src': '/static/foodstim60/cocktailshrimp.jpg', 'key': 'u', 'origWidth': 410, 'origHeight': 410, 'width': 410, 'height': 410, 'widthPercent': 0.45, 'rescaleHeight': False, 'trialN': 49, 'loaded': True, 'loadedTime': 3892.899999976158, 'positionName': 'LEFT', 'positionCoords': [396.4, 320], 'bid': 8.3}, {'imgObject': {}, 'id': 'Grapes', 'src': '/static/foodstim60/Grapes.jpg', 'key': 'i', 'origWidth': 411, 'origHeight': 411, 'width': 411, 'height': 411, 'widthPercent': 0.45, 'rescaleHeight': False, 'trialN': 49, 'loaded': True, 'loadedTime': 4023.2999999523163, 'positionName': 'RIGHT', 'positionCoords': [873.6, 319.5], 'bid': 7.16}]",109372.89999997616,1669830495848,cocktailshrimp,Grapes,8.3,7.16,-1.1400000000000006,cocktailshrimp,1958.7999999523163,1959,1959.1000000238419,True,u,111836.5,2463.600000023842,1669830498311,2463,HRV,HRV_0065,2022-11-30 17:53:07
50,"[{'imgObject': {}, 'id': 'cheerios', 'src': '/static/foodstim60/cheerios.jpg', 'key': 'u', 'origWidth': 409, 'origHeight': 410, 'width': 409, 'height': 410, 'widthPercent': 0.45, 'rescaleHeight': False, 'trialN': 50, 'loaded': True, 'loadedTime': 4024.899999976158, 'positionName': 'LEFT', 'positionCoords': [397.4, 320], 'bid': 5.03}, {'imgObject': {}, 'id': 'lox', 'src': '/static/foodstim60/lox.jpg', 'key': 'i', 'origWidth': 410, 'origHeight': 411, 'width': 410, 'height': 411, 'widthPercent': 0.45, 'rescaleHeight': False, 'trialN': 50, 'loaded': True, 'loadedTime': 4033.399999976158, 'positionName': 'RIGHT', 'positionCoords': [873.6, 319.5], 'bid': 1.46}]",111836.69999992847,1669830498312,cheerios,lox,5.03,1.46,-3.5700000000000003,cheerios,1062.0,1062,1062.3000000715256,True,u,113404.5,1567.8000000715256,1669830499879,1567,HRV,HRV_0065,2022-11-30 17:53:07
51,"[{'imgObject': {}, 'id': 'shreddedwheatwithmilk', 'src': '/static/foodstim60/shreddedwheatwithmilk.jpg', 'key': 'u', 'origWidth': 410, 'origHeight': 410, 'width': 410, 'height': 410, 'widthPercent': 0.45, 'rescaleHeight': False, 'trialN': 51, 'loaded': True, 'loadedTime': 3204.6999999284744, 'positionName': 'LEFT', 'positionCoords': [396.4, 320], 'bid': 6.2700000000000005}, {'imgObject': {}, 'id': 'chickenfingers', 'src': '/static/foodstim60/chickenfingers.jpg', 'key': 'i', 'origWidth': 410, 'origHeight': 410, 'width': 410, 'height': 410, 'widthPercent': 0.45, 'rescaleHeight': False, 'trialN': 51, 'loaded': True, 'loadedTime': 3385.399999976158, 'positionName': 'RIGHT', 'positionCoords': [873.6, 320], 'bid': 7.83}]",113404.59999990463,1669830499879,shreddedwheatwithmilk,chickenfingers,6.2700000000000005,7.83,1.5599999999999996,chickenfingers,1456.0,1457,1456.3000000715256,True,i,115364.89999997616,1960.3000000715256,1669830501840,1961,HRV,HRV_0065,2022-11-30 17:53:07
52,"[{'imgObject': {}, 'id': 'hotdog w must', 'src': '/static/foodstim60/hotdog w must.jpg', 'key': 'u', 'origWidth': 409, 'origHeight': 409, 'width': 409, 'height': 409, 'widthPercent': 0.45, 'rescaleHeight': False, 'trialN': 52, 'loaded': True, 'loadedTime': 4042.5999999046326, 'positionName': 'LEFT', 'positionCoords': [397.4, 320.5], 'bid': 2.42}, {'imgObject': {}, 'id': 'edamame', 'src': '/static/foodstim60/edamame.jpg', 'key': 'i', 'origWidth': 409, 'origHeight': 410, 'width': 409, 'height': 410, 'widthPercent': 0.45, 'rescaleHeight': False, 'trialN': 52, 'loaded': True, 'loadedTime': 3334, 'positionName': 'RIGHT', 'positionCoords': [873.6, 320], 'bid': 0.79}]",115365.0,1669830501840,hotdog w must,edamame,2.42,0.79,-1.63,hotdog w must,1461.5,1462,1461.6999999284744,True,u,117331.89999997616,1966.8999999761581,1669830503807,1967,HRV,HRV_0065,2022-11-30 17:53:07
53,"[{'imgObject': {}, 'id': 'lox', 'src': '/static/foodstim60/lox.jpg', 'key': 'u', 'origWidth': 410, 'origHeight': 411, 'width': 410, 'height': 411, 'widthPercent': 0.45, 'rescaleHeight': False, 'trialN': 53, 'loaded': True, 'loadedTime': 4033.1999999284744, 'positionName': 'LEFT', 'positionCoords': [396.4, 319.5], 'bid': 1.46}, {'imgObject': {}, 'id': 'fried eggs', 'src': '/static/foodstim60/fried eggs.jpg', 'key': 'i', 'origWidth': 410, 'origHeight': 410, 'width': 410, 'height': 410, 'widthPercent': 0.45, 'rescaleHeight': False, 'trialN': 53, 'loaded': True, 'loadedTime': 3699.399999976158, 'positionName': 'RIGHT', 'positionCoords': [873.6, 320], 'bid': 6.75}]",117332.0,1669830503807,lox,fried eggs,1.46,6.75,5.29,fried eggs,1010.2999999523163,1010,1010.5999999046326,True,i,118845.19999992847,1513.1999999284744,1669830505320,1513,HRV,HRV_0065,2022-11-30 17:53:07
54,"[{'imgObject': {}, 'id': 'ice cream sundae 002', 'src': '/static/foodstim60/ice cream sundae 002.jpg', 'key': 'u', 'origWidth': 409, 'origHeight': 409, 'width': 409, 'height': 409, 'widthPercent': 0.45, 'rescaleHeight': False, 'trialN': 54, 'loaded': True, 'loadedTime': 3300.5, 'positionName': 'LEFT', 'positionCoords': [397.4, 320.5], 'bid': 3.4}, {'imgObject': {}, 'id': 'seaweed', 'src': '/static/foodstim60/seaweed.jpg', 'key': 'i', 'origWidth': 410, 'origHeight': 410, 'width': 410, 'height': 410, 'widthPercent': 0.45, 'rescaleHeight': False, 'trialN': 54, 'loaded': True, 'loadedTime': 4053.5, 'positionName': 'RIGHT', 'positionCoords': [873.6, 320], 'bid': 5.0200000000000005}]",118845.19999992847,1669830505320,ice cream sundae 002,seaweed,3.4,5.0200000000000005,1.6200000000000006,ice cream sundae 002,1133.3999999761581,1134,1133.7000000476837,True,u,120484.29999995232,1639.1000000238419,1669830506959,1639,HRV,HRV_0065,2022-11-30 17:53:07
55,"[{'imgObject': {}, 'id': 'hashbrowns', 'src': '/static/foodstim60/hashbrowns.jpg', 'key': 'u', 'origWidth': 411, 'origHeight': 410, 'width': 411, 'height': 410, 'widthPercent': 0.45, 'rescaleHeight': False, 'trialN': 55, 'loaded': True, 'loadedTime': 3771.5, 'positionName': 'LEFT', 'positionCoords': [395.4, 320], 'bid': 0.6}, {'imgObject': {}, 'id': 'cantaloupe', 'src': '/static/foodstim60/cantaloupe.jpg', 'key': 'i', 'origWidth': 409, 'origHeight': 409, 'width': 409, 'height': 409, 'widthPercent': 0.45, 'rescaleHeight': False, 'trialN': 55, 'loaded': True, 'loadedTime': 3578.5999999046326, 'positionName': 'RIGHT', 'positionCoords': [873.6, 320.5], 'bid': 0.34}]",120484.39999997616,1669830506959,hashbrowns,cantaloupe,0.6,0.34,-0.25999999999999995,hashbrowns,2810.600000023842,2811,2811.0,True,u,123796.39999997616,3312.0,1669830510271,3312,HRV,HRV_0065,2022-11-30 17:53:07
56,"[{'imgObject': {}, 'id': 'salmon', 'src': '/static/foodstim60/salmon.jpg', 'key': 'u', 'origWidth': 410, 'origHeight': 409, 'width': 410, 'height': 409, 'widthPercent': 0.45, 'rescaleHeight': False, 'trialN': 56, 'loaded': True, 'loadedTime': 3996.7999999523163, 'positionName': 'LEFT', 'positionCoords': [396.4, 320.5], 'bid': 6.140000000000001}, {'imgObject': {}, 'id': 'veggieswithdip', 'src': '/static/foodstim60/veggieswithdip.jpg', 'key': 'i', 'origWidth': 409, 'origHeight': 409, 'width': 409, 'height': 409, 'widthPercent': 0.45, 'rescaleHeight': False, 'trialN': 56, 'loaded': True, 'loadedTime': 3821.899999976158, 'positionName': 'RIGHT', 'positionCoords': [873.6, 320.5], 'bid': 6.08}]",123796.59999990463,1669830510272,salmon,veggieswithdip,6.140000000000001,6.08,-0.0600000000000005,veggieswithdip,1583.8000000715256,1584,1584.0,True,i,125884.59999990463,2088.0,1669830512360,2088,HRV,HRV_0065,2022-11-30 17:53:07
57,"[{'imgObject': {}, 'id': 'salad w chicken', 'src': '/static/foodstim60/salad w chicken.jpg', 'key': 'u', 'origWidth': 411, 'origHeight': 411, 'width': 411, 'height': 411, 'widthPercent': 0.45, 'rescaleHeight': False, 'trialN': 57, 'loaded': True, 'loadedTime': 3273.0999999046326, 'positionName': 'LEFT', 'positionCoords': [395.4, 319.5], 'bid': 9.08}, {'imgObject': {}, 'id': 'tacos', 'src': '/static/foodstim60/tacos.jpg', 'key': 'i', 'origWidth': 411, 'origHeight': 411, 'width': 411, 'height': 411, 'widthPercent': 0.45, 'rescaleHeight': False, 'trialN': 57, 'loaded': True, 'loadedTime': 4055.7999999523163, 'positionName': 'RIGHT', 'positionCoords': [873.6, 319.5], 'bid': 9.59}]",125884.69999992847,1669830512360,salad w chicken,tacos,9.08,9.59,0.5099999999999998,tacos,1328.7000000476837,1329,1329.1000000238419,True,i,127716.59999990463,1831.8999999761581,1669830514192,1832,HRV,HRV_0065,2022-11-30 17:53:07
58,"[{'imgObject': {}, 'id': 'yogurt no spoon', 'src': '/static/foodstim60/yogurt no spoon.jpg', 'key': 'u', 'origWidth': 411, 'origHeight': 410, 'width': 411, 'height': 410, 'widthPercent': 0.45, 'rescaleHeight': False, 'trialN': 58, 'loaded': True, 'loadedTime': 3796.1999999284744, 'positionName': 'LEFT', 'positionCoords': [395.4, 320], 'bid': 7.15}, {'imgObject': {}, 'id': 'pear', 'src': '/static/foodstim60/pear.jpg', 'key': 'i', 'origWidth': 411, 'origHeight': 410, 'width': 411, 'height': 410, 'widthPercent': 0.45, 'rescaleHeight': False, 'trialN': 58, 'loaded': True, 'loadedTime': 4058.5, 'positionName': 'RIGHT', 'positionCoords': [873.6, 320], 'bid': 6.890000000000001}]",127716.69999992847,1669830514192,yogurt no spoon,pear,7.15,6.890000000000001,-0.2599999999999998,yogurt no spoon,2101.8000000715256,2102,2102.100000023842,True,u,130325.0,2608.3000000715256,1669830516800,2608,HRV,HRV_0065,2022-11-30 17:53:07
59,"[{'imgObject': {}, 'id': 'turkeysandwich', 'src': '/static/foodstim60/turkeysandwich.jpg', 'key': 'u', 'origWidth': 409, 'origHeight': 409, 'width': 409, 'height': 409, 'widthPercent': 0.45, 'rescaleHeight': False, 'trialN': 59, 'loaded': True, 'loadedTime': 3661.0999999046326, 'positionName': 'LEFT', 'positionCoords': [397.4, 320.5], 'bid': 8.950000000000001}, {'imgObject': {}, 'id': 'pear', 'src': '/static/foodstim60/pear.jpg', 'key': 'i', 'origWidth': 411, 'origHeight': 410, 'width': 411, 'height': 410, 'widthPercent': 0.45, 'rescaleHeight': False, 'trialN': 59, 'loaded': True, 'loadedTime': 4057.6999999284744, 'positionName': 'RIGHT', 'positionCoords': [873.6, 320], 'bid': 6.890000000000001}]",130325.09999990463,1669830516800,turkeysandwich,pear,8.950000000000001,6.890000000000001,-2.0600000000000005,turkeysandwich,1332.3000000715256,1333,1332.5,True,u,132164.29999995232,1839.2000000476837,1669830518639,1839,HRV,HRV_0065,2022-11-30 17:53:07
60,"[{'imgObject': {}, 'id': 'sweetpotato', 'src': '/static/foodstim60/sweetpotato.jpg', 'key': 'u', 'origWidth': 410, 'origHeight': 410, 'width': 410, 'height': 410, 'widthPercent': 0.45, 'rescaleHeight': False, 'trialN': 60, 'loaded': True, 'loadedTime': 4060.0999999046326, 'positionName': 'LEFT', 'positionCoords': [396.4, 320], 'bid': 2.53}, {'imgObject': {}, 'id': 'raspberries', 'src': '/static/foodstim60/raspberries.jpg', 'key': 'i', 'origWidth': 411, 'origHeight': 411, 'width': 411, 'height': 411, 'widthPercent': 0.45, 'rescaleHeight': False, 'trialN': 60, 'loaded': True, 'loadedTime': 3948.6999999284744, 'positionName': 'RIGHT', 'positionCoords': [873.6, 319.5], 'bid': 5.73}]",132164.39999997616,1669830518639,sweetpotato,raspberries,2.53,5.73,3.2000000000000006,raspberries,1003.0,1004,1003.1999999284744,True,i,133668.69999992847,1504.2999999523163,1669830520144,1505,HRV,HRV_0065,2022-11-30 17:53:07
61,"[{'imgObject': {}, 'id': 'granola w milk', 'src': '/static/foodstim60/granola w milk.jpg', 'key': 'u', 'origWidth': 410, 'origHeight': 410, 'width': 410, 'height': 410, 'widthPercent': 0.45, 'rescaleHeight': False, 'trialN': 61, 'loaded': True, 'loadedTime': 3242.1999999284744, 'positionName': 'LEFT', 'positionCoords': [396.4, 320], 'bid': 5.61}, {'imgObject': {}, 'id': 'salad w chicken', 'src': '/static/foodstim60/salad w chicken.jpg', 'key': 'i', 'origWidth': 411, 'origHeight': 411, 'width': 411, 'height': 411, 'widthPercent': 0.45, 'rescaleHeight': False, 'trialN': 61, 'loaded': True, 'loadedTime': 3265.399999976158, 'positionName': 'RIGHT', 'positionCoords': [873.6, 319.5], 'bid': 9.08}]",133668.79999995232,1669830520144,granola w milk,salad w chicken,5.61,9.08,3.4699999999999998,salad w chicken,1888.7999999523163,1889,1889.0,True,i,136060.69999992847,2391.899999976158,1669830522536,2392,HRV,HRV_0065,2022-11-30 17:53:07
62,"[{'imgObject': {}, 'id': 'raspberries', 'src': '/static/foodstim60/raspberries.jpg', 'key': 'u', 'origWidth': 411, 'origHeight': 411, 'width': 411, 'height': 411, 'widthPercent': 0.45, 'rescaleHeight': False, 'trialN': 62, 'loaded': True, 'loadedTime': 3941.899999976158, 'positionName': 'LEFT', 'positionCoords': [395.4, 319.5], 'bid': 5.73}, {'imgObject': {}, 'id': 'tacos', 'src': '/static/foodstim60/tacos.jpg', 'key': 'i', 'origWidth': 411, 'origHeight': 411, 'width': 411, 'height': 411, 'widthPercent': 0.45, 'rescaleHeight': False, 'trialN': 62, 'loaded': True, 'loadedTime': 4053.7999999523163, 'positionName': 'RIGHT', 'positionCoords': [873.6, 319.5], 'bid': 9.59}]",136060.89999997616,1669830522536,raspberries,tacos,5.73,9.59,3.8599999999999994,tacos,955.5,956,955.6999999284744,True,i,137524.29999995232,1463.3999999761581,1669830523999,1463,HRV,HRV_0065,2022-11-30 17:53:07
63,"[{'imgObject': {}, 'id': 'grilled chicken strips', 'src': '/static/foodstim60/grilled chicken strips.jpg', 'key': 'u', 'origWidth': 410, 'origHeight': 411, 'width': 410, 'height': 411, 'widthPercent': 0.45, 'rescaleHeight': False, 'trialN': 63, 'loaded': True, 'loadedTime': 3862.5, 'positionName': 'LEFT', 'positionCoords': [396.4, 319.5], 'bid': 5.9}, {'imgObject': {}, 'id': 'salmon', 'src': '/static/foodstim60/salmon.jpg', 'key': 'i', 'origWidth': 410, 'origHeight': 409, 'width': 410, 'height': 409, 'widthPercent': 0.45, 'rescaleHeight': False, 'trialN': 63, 'loaded': True, 'loadedTime': 3999.5, 'positionName': 'RIGHT', 'positionCoords': [873.6, 320.5], 'bid': 6.140000000000001}]",137524.39999997616,1669830523999,grilled chicken strips,salmon,5.9,6.140000000000001,0.2400000000000002,grilled chicken strips,1615.8999999761581,1617,1616.2999999523163,True,u,139645.09999990463,2120.6999999284744,1669830526120,2121,HRV,HRV_0065,2022-11-30 17:53:07
64,"[{'imgObject': {}, 'id': 'mashed potato', 'src': '/static/foodstim60/mashed potato.jpg', 'key': 'u', 'origWidth': 409, 'origHeight': 409, 'width': 409, 'height': 409, 'widthPercent': 0.45, 'rescaleHeight': False, 'trialN': 64, 'loaded': True, 'loadedTime': 3709.5, 'positionName': 'LEFT', 'positionCoords': [397.4, 320.5], 'bid': 2.89}, {'imgObject': {}, 'id': 'cantaloupe', 'src': '/static/foodstim60/cantaloupe.jpg', 'key': 'i', 'origWidth': 409, 'origHeight': 409, 'width': 409, 'height': 409, 'widthPercent': 0.45, 'rescaleHeight': False, 'trialN': 64, 'loaded': True, 'loadedTime': 3574.1999999284744, 'positionName': 'RIGHT', 'positionCoords': [873.6, 320.5], 'bid': 0.34}]",139645.29999995232,1669830526120,mashed potato,cantaloupe,2.89,0.34,-2.5500000000000003,mashed potato,1282.3999999761581,1283,1282.6000000238419,True,u,141428.89999997616,1783.6000000238419,1669830527904,1784,HRV,HRV_0065,2022-11-30 17:53:07
65,"[{'imgObject': {}, 'id': 'orange slices', 'src': '/static/foodstim60/orange slices.jpg', 'key': 'u', 'origWidth': 409, 'origHeight': 410, 'width': 409, 'height': 410, 'widthPercent': 0.45, 'rescaleHeight': False, 'trialN': 65, 'loaded': True, 'loadedTime': 3992.1999999284744, 'positionName': 'LEFT', 'positionCoords': [397.4, 320], 'bid': 7.58}, {'imgObject': {}, 'id': 'salad w chicken', 'src': '/static/foodstim60/salad w chicken.jpg', 'key': 'i', 'origWidth': 411, 'origHeight': 411, 'width': 411, 'height': 411, 'widthPercent': 0.45, 'rescaleHeight': False, 'trialN': 65, 'loaded': True, 'loadedTime': 3260.6999999284744, 'positionName': 'RIGHT', 'positionCoords': [873.6, 319.5], 'bid': 9.08}]",141429.0,1669830527904,orange slices,salad w chicken,7.58,9.08,1.5,salad w chicken,1736.2999999523163,1737,1736.6999999284744,True,i,143668.69999992847,2239.6999999284744,1669830530144,2240,HRV,HRV_0065,2022-11-30 17:53:07
66,"[{'imgObject': {}, 'id': 'rigatoni and sauce', 'src': '/static/foodstim60/rigatoni and sauce.jpg', 'key': 'u', 'origWidth': 410, 'origHeight': 411, 'width': 410, 'height': 411, 'widthPercent': 0.45, 'rescaleHeight': False, 'trialN': 66, 'loaded': True, 'loadedTime': 3358.1999999284744, 'positionName': 'LEFT', 'positionCoords': [396.4, 319.5], 'bid': 4.94}, {'imgObject': {}, 'id': 'burrito', 'src': '/static/foodstim60/burrito.jpg', 'key': 'i', 'origWidth': 410, 'origHeight': 410, 'width': 410, 'height': 410, 'widthPercent': 0.45, 'rescaleHeight': False, 'trialN': 66, 'loaded': True, 'loadedTime': 3614.2999999523163, 'positionName': 'RIGHT', 'positionCoords': [873.6, 320], 'bid': 4.47}]",143668.69999992847,1669830530144,rigatoni and sauce,burrito,4.94,4.47,-0.47000000000000064,rigatoni and sauce,1455.7000000476837,1456,1455.8999999761581,True,u,145628.79999995232,1960.1000000238419,1669830532104,1960,HRV,HRV_0065,2022-11-30 17:53:07
67,"[{'imgObject': {}, 'id': 'pear', 'src': '/static/foodstim60/pear.jpg', 'key': 'u', 'origWidth': 411, 'origHeight': 410, 'width': 411, 'height': 410, 'widthPercent': 0.45, 'rescaleHeight': False, 'trialN': 67, 'loaded': True, 'loadedTime': 4056.399999976158, 'positionName': 'LEFT', 'positionCoords': [395.4, 320], 'bid': 6.890000000000001}, {'imgObject': {}, 'id': 'steak', 'src': '/static/foodstim60/steak.jpg', 'key': 'i', 'origWidth': 410, 'origHeight': 410, 'width': 410, 'height': 410, 'widthPercent': 0.45, 'rescaleHeight': False, 'trialN': 67, 'loaded': True, 'loadedTime': 3458, 'positionName': 'RIGHT', 'positionCoords': [873.6, 320], 'bid': 7.3}]",145628.89999997616,1669830532104,pear,steak,6.890000000000001,7.3,0.40999999999999925,steak,1899.0,1899,1899.2999999523163,True,i,148028.69999992847,2399.7999999523163,1669830534504,2400,HRV,HRV_0065,2022-11-30 17:53:07
68,"[{'imgObject': {}, 'id': 'cantaloupe', 'src': '/static/foodstim60/cantaloupe.jpg', 'key': 'u', 'origWidth': 409, 'origHeight': 409, 'width': 409, 'height': 409, 'widthPercent': 0.45, 'rescaleHeight': False, 'trialN': 68, 'loaded': True, 'loadedTime': 3578.399999976158, 'positionName': 'LEFT', 'positionCoords': [397.4, 320.5], 'bid': 0.34}, {'imgObject': {}, 'id': 'avocado', 'src': '/static/foodstim60/avocado.jpg', 'key': 'i', 'origWidth': 409, 'origHeight': 409, 'width': 409, 'height': 409, 'widthPercent': 0.45, 'rescaleHeight': False, 'trialN': 68, 'loaded': True, 'loadedTime': 3364.6999999284744, 'positionName': 'RIGHT', 'positionCoords': [873.6, 320.5], 'bid': 1.29}]",148028.79999995232,1669830534504,cantaloupe,avocado,0.34,1.29,0.95,avocado,1128.5,1129,1128.7000000476837,True,i,149660.69999992847,1631.8999999761581,1669830536136,1632,HRV,HRV_0065,2022-11-30 17:53:07
69,"[{'imgObject': {}, 'id': 'sushi w_condiments', 'src': '/static/foodstim60/sushi w_condiments.jpg', 'key': 'u', 'origWidth': 410, 'origHeight': 410, 'width': 410, 'height': 410, 'widthPercent': 0.45, 'rescaleHeight': False, 'trialN': 69, 'loaded': True, 'loadedTime': 4003.7999999523163, 'positionName': 'LEFT', 'positionCoords': [396.4, 320], 'bid': 9.85}, {'imgObject': {}, 'id': 'apple slices', 'src': '/static/foodstim60/apple slices.jpg', 'key': 'i', 'origWidth': 409, 'origHeight': 410, 'width': 409, 'height': 410, 'widthPercent': 0.45, 'rescaleHeight': False, 'trialN': 69, 'loaded': True, 'loadedTime': 3739.899999976158, 'positionName': 'RIGHT', 'positionCoords': [873.6, 320], 'bid': 7.47}]",149660.79999995232,1669830536136,sushi w_condiments,apple slices,9.85,7.47,-2.38,sushi w_condiments,1264.6000000238419,1265,1264.7999999523163,True,u,151428.79999995232,1768.0,1669830537904,1768,HRV,HRV_0065,2022-11-30 17:53:07
70,"[{'imgObject': {}, 'id': 'roastedpotatoes', 'src': '/static/foodstim60/roastedpotatoes.jpg', 'key': 'u', 'origWidth': 409, 'origHeight': 410, 'width': 409, 'height': 410, 'widthPercent': 0.45, 'rescaleHeight': False, 'trialN': 70, 'loaded': True, 'loadedTime': 3440.6999999284744, 'positionName': 'LEFT', 'positionCoords': [397.4, 320], 'bid': 7.28}, {'imgObject': {}, 'id': 'turkeysandwich', 'src': '/static/foodstim60/turkeysandwich.jpg', 'key': 'i', 'origWidth': 409, 'origHeight': 409, 'width': 409, 'height': 409, 'widthPercent': 0.45, 'rescaleHeight': False, 'trialN': 70, 'loaded': True, 'loadedTime': 3660.7999999523163, 'positionName': 'RIGHT', 'positionCoords': [873.6, 320.5], 'bid': 8.950000000000001}]",151428.79999995232,1669830537904,roastedpotatoes,turkeysandwich,7.28,8.950000000000001,1.6700000000000008,turkeysandwich,1550.5,1551,1550.7000000476837,True,i,153484.39999997616,2055.600000023842,1669830539959,2055,HRV,HRV_0065,2022-11-30 17:53:07
71,"[{'imgObject': {}, 'id': 'mango', 'src': '/static/foodstim60/mango.jpg', 'key': 'u', 'origWidth': 411, 'origHeight': 411, 'width': 411, 'height': 411, 'widthPercent': 0.45, 'rescaleHeight': False, 'trialN': 71, 'loaded': True, 'loadedTime': 3647.6999999284744, 'positionName': 'LEFT', 'positionCoords': [395.4, 319.5], 'bid': 7.1000000000000005}, {'imgObject': {}, 'id': 'banana', 'src': '/static/foodstim60/banana.jpg', 'key': 'i', 'origWidth': 410, 'origHeight': 410, 'width': 410, 'height': 410, 'widthPercent': 0.45, 'rescaleHeight': False, 'trialN': 71, 'loaded': True, 'loadedTime': 3483.0999999046326, 'positionName': 'RIGHT', 'positionCoords': [873.6, 320], 'bid': 7.46}]",153484.5,1669830539959,mango,banana,7.1000000000000005,7.46,0.35999999999999943,banana,1225.7999999523163,1227,1226.2999999523163,True,i,155213.19999992847,1728.6999999284744,1669830541688,1729,HRV,HRV_0065,2022-11-30 17:53:07
72,"[{'imgObject': {}, 'id': 'Tribe humus pita', 'src': '/static/foodstim60/Tribe humus pita.jpg', 'key': 'u', 'origWidth': 411, 'origHeight': 411, 'width': 411, 'height': 411, 'widthPercent': 0.45, 'rescaleHeight': False, 'trialN': 72, 'loaded': True, 'loadedTime': 3981.899999976158, 'positionName': 'LEFT', 'positionCoords': [395.4, 319.5], 'bid': 0.86}, {'imgObject': {}, 'id': 'eggs', 'src': '/static/foodstim60/eggs.jpg', 'key': 'i', 'origWidth': 409, 'origHeight': 409, 'width': 409, 'height': 409, 'widthPercent': 0.45, 'rescaleHeight': False, 'trialN': 72, 'loaded': True, 'loadedTime': 3800, 'positionName': 'RIGHT', 'positionCoords': [873.6, 320.5], 'bid': 4.26}]",155213.19999992847,1669830541688,Tribe humus pita,eggs,0.86,4.26,3.4,eggs,2686.399999976158,2687,2686.7000000476837,True,i,158404.19999992847,3191.0,1669830544879,3191,HRV,HRV_0065,2022-11-30 17:53:07
73,"[{'imgObject': {}, 'id': 'mango', 'src': '/static/foodstim60/mango.jpg', 'key': 'u', 'origWidth': 411, 'origHeight': 411, 'width': 411, 'height': 411, 'widthPercent': 0.45, 'rescaleHeight': False, 'trialN': 73, 'loaded': True, 'loadedTime': 3629.6999999284744, 'positionName': 'LEFT', 'positionCoords': [395.4, 319.5], 'bid': 7.1000000000000005}, {'imgObject': {}, 'id': 'bagel plain', 'src': '/static/foodstim60/bagel plain.jpg', 'key': 'i', 'origWidth': 410, 'origHeight': 410, 'width': 410, 'height': 410, 'widthPercent': 0.45, 'rescaleHeight': False, 'trialN': 73, 'loaded': True, 'loadedTime': 3759.899999976158, 'positionName': 'RIGHT', 'positionCoords': [873.6, 320], 'bid': 1.94}]",158404.29999995232,1669830544879,mango,bagel plain,7.1000000000000005,1.94,-5.16,mango,1383.8999999761581,1385,1384.2000000476837,True,u,160292.09999990463,1887.7999999523163,1669830546767,1888,HRV,HRV_0065,2022-11-30 17:53:07
74,"[{'imgObject': {}, 'id': 'raisin bran w milk', 'src': '/static/foodstim60/raisin bran w milk.jpg', 'key': 'u', 'origWidth': 411, 'origHeight': 411, 'width': 411, 'height': 411, 'widthPercent': 0.45, 'rescaleHeight': False, 'trialN': 74, 'loaded': True, 'loadedTime': 3911.5999999046326, 'positionName': 'LEFT', 'positionCoords': [395.4, 319.5], 'bid': 6.47}, {'imgObject': {}, 'id': 'strawberries', 'src': '/static/foodstim60/strawberries.jpg', 'key': 'i', 'origWidth': 410, 'origHeight': 410, 'width': 410, 'height': 410, 'widthPercent': 0.45, 'rescaleHeight': False, 'trialN': 74, 'loaded': True, 'loadedTime': 3422.1999999284744, 'positionName': 'RIGHT', 'positionCoords': [873.6, 320], 'bid': 7.19}]",160292.19999992847,1669830546767,raisin bran w milk,strawberries,6.47,7.19,0.7200000000000006,raisin bran w milk,2755.2000000476837,2756,2755.5,True,u,163556.19999992847,3264.0,1669830550031,3264,HRV,HRV_0065,2022-11-30 17:53:07
75,"[{'imgObject': {}, 'id': 'Grapes', 'src': '/static/foodstim60/Grapes.jpg', 'key': 'u', 'origWidth': 411, 'origHeight': 411, 'width': 411, 'height': 411, 'widthPercent': 0.45, 'rescaleHeight': False, 'trialN': 75, 'loaded': True, 'loadedTime': 4016.1999999284744, 'positionName': 'LEFT', 'positionCoords': [395.4, 319.5], 'bid': 7.16}, {'imgObject': {}, 'id': 'tacos', 'src': '/static/foodstim60/tacos.jpg', 'key': 'i', 'origWidth': 411, 'origHeight': 411, 'width': 411, 'height': 411, 'widthPercent': 0.45, 'rescaleHeight': False, 'trialN': 75, 'loaded': True, 'loadedTime': 4056.1999999284744, 'positionName': 'RIGHT', 'positionCoords': [873.6, 319.5], 'bid': 9.59}]",163556.19999992847,1669830550031,Grapes,tacos,7.16,9.59,2.4299999999999997,tacos,1684.1000000238419,1685,1684.5,True,i,165748.39999997616,2192.2000000476837,1669830552223,2192,HRV,HRV_0065,2022-11-30 17:53:07
76,"[{'imgObject': {}, 'id': 'avocado', 'src': '/static/foodstim60/avocado.jpg', 'key': 'u', 'origWidth': 409, 'origHeight': 409, 'width': 409, 'height': 409, 'widthPercent': 0.45, 'rescaleHeight': False, 'trialN': 76, 'loaded': True, 'loadedTime': 3368.5, 'positionName': 'LEFT', 'positionCoords': [397.4, 320.5], 'bid': 1.29}, {'imgObject': {}, 'id': 'burger', 'src': '/static/foodstim60/burger.jpg', 'key': 'i', 'origWidth': 409, 'origHeight': 409, 'width': 409, 'height': 409, 'widthPercent': 0.45, 'rescaleHeight': False, 'trialN': 76, 'loaded': True, 'loadedTime': 3776.5, 'positionName': 'RIGHT', 'positionCoords': [873.6, 320.5], 'bid': 3.26}]",165748.5,1669830552224,avocado,burger,1.29,3.26,1.9699999999999998,burger,1685.8999999761581,1686,1686.0999999046326,True,i,167940.5,2192.0,1669830554415,2191,HRV,HRV_0065,2022-11-30 17:53:07
77,"[{'imgObject': {}, 'id': 'blackbeanswithrice', 'src': '/static/foodstim60/blackbeanswithrice.jpg', 'key': 'u', 'origWidth': 410, 'origHeight': 410, 'width': 410, 'height': 410, 'widthPercent': 0.45, 'rescaleHeight': False, 'trialN': 77, 'loaded': True, 'loadedTime': 3409.5, 'positionName': 'LEFT', 'positionCoords': [396.4, 320], 'bid': 1.34}, {'imgObject': {}, 'id': 'avocado', 'src': '/static/foodstim60/avocado.jpg', 'key': 'i', 'origWidth': 409, 'origHeight': 409, 'width': 409, 'height': 409, 'widthPercent': 0.45, 'rescaleHeight': False, 'trialN': 77, 'loaded': True, 'loadedTime': 3371.7999999523163, 'positionName': 'RIGHT', 'positionCoords': [873.6, 320.5], 'bid': 1.29}]",167940.5,1669830554416,blackbeanswithrice,avocado,1.34,1.29,-0.050000000000000044,avocado,1790.0999999046326,1790,1790.1999999284744,True,i,170236.09999990463,2295.5999999046326,1669830556711,2295,HRV,HRV_0065,2022-11-30 17:53:07
78,"[{'imgObject': {}, 'id': 'eggs', 'src': '/static/foodstim60/eggs.jpg', 'key': 'u', 'origWidth': 409, 'origHeight': 409, 'width': 409, 'height': 409, 'widthPercent': 0.45, 'rescaleHeight': False, 'trialN': 78, 'loaded': True, 'loadedTime': 3810.2999999523163, 'positionName': 'LEFT', 'positionCoords': [397.4, 320.5], 'bid': 4.26}, {'imgObject': {}, 'id': 'sweetpotato', 'src': '/static/foodstim60/sweetpotato.jpg', 'key': 'i', 'origWidth': 410, 'origHeight': 410, 'width': 410, 'height': 410, 'widthPercent': 0.45, 'rescaleHeight': False, 'trialN': 78, 'loaded': True, 'loadedTime': 4062.6999999284744, 'positionName': 'RIGHT', 'positionCoords': [873.6, 320], 'bid': 2.53}]",170236.19999992847,1669830556711,eggs,sweetpotato,4.26,2.53,-1.73,eggs,2701.100000023842,2702,2701.399999976158,True,u,173445.09999990463,3208.899999976158,1669830559920,3209,HRV,HRV_0065,2022-11-30 17:53:07
79,"[{'imgObject': {}, 'id': 'rigatoni', 'src': '/static/foodstim60/rigatoni.jpg', 'key': 'u', 'origWidth': 411, 'origHeight': 411, 'width': 411, 'height': 411, 'widthPercent': 0.45, 'rescaleHeight': False, 'trialN': 79, 'loaded': True, 'loadedTime': 3923.6999999284744, 'positionName': 'LEFT', 'positionCoords': [395.4, 319.5], 'bid': 0.85}, {'imgObject': {}, 'id': 'hashbrowns', 'src': '/static/foodstim60/hashbrowns.jpg', 'key': 'i', 'origWidth': 411, 'origHeight': 410, 'width': 411, 'height': 410, 'widthPercent': 0.45, 'rescaleHeight': False, 'trialN': 79, 'loaded': True, 'loadedTime': 3768.0999999046326, 'positionName': 'RIGHT', 'positionCoords': [873.6, 320], 'bid': 0.6}]",173445.09999990463,1669830559920,rigatoni,hashbrowns,0.85,0.6,-0.25,hashbrowns,1591.2000000476837,1592,1591.5,True,i,175540.69999992847,2095.600000023842,1669830562016,2096,HRV,HRV_0065,2022-11-30 17:53:07
80,"[{'imgObject': {}, 'id': 'raspberries', 'src': '/static/foodstim60/raspberries.jpg', 'key': 'u', 'origWidth': 411, 'origHeight': 411, 'width': 411, 'height': 411, 'widthPercent': 0.45, 'rescaleHeight': False, 'trialN': 80, 'loaded': True, 'loadedTime': 3954.1999999284744, 'positionName': 'LEFT', 'positionCoords': [395.4, 319.5], 'bid': 5.73}, {'imgObject': {}, 'id': 'cherry tomato', 'src': '/static/foodstim60/cherry tomato.jpg', 'key': 'i', 'origWidth': 410, 'origHeight': 410, 'width': 410, 'height': 410, 'widthPercent': 0.45, 'rescaleHeight': False, 'trialN': 80, 'loaded': True, 'loadedTime': 4063, 'positionName': 'RIGHT', 'positionCoords': [873.6, 320], 'bid': 5.7700000000000005}]",175540.69999992847,1669830562016,raspberries,cherry tomato,5.73,5.7700000000000005,0.040000000000000036,cherry tomato,1904.8000000715256,1905,1905.0,True,i,178484.29999995232,2943.600000023842,1669830564959,2943,HRV,HRV_0065,2022-11-30 17:53:07
81,"[{'imgObject': {}, 'id': 'shreddedwheatwithmilk', 'src': '/static/foodstim60/shreddedwheatwithmilk.jpg', 'key': 'u', 'origWidth': 410, 'origHeight': 410, 'width': 410, 'height': 410, 'widthPercent': 0.45, 'rescaleHeight': False, 'trialN': 81, 'loaded': True, 'loadedTime': 3236.7999999523163, 'positionName': 'LEFT', 'positionCoords': [396.4, 320], 'bid': 6.2700000000000005}, {'imgObject': {}, 'id': 'avocado', 'src': '/static/foodstim60/avocado.jpg', 'key': 'i', 'origWidth': 409, 'origHeight': 409, 'width': 409, 'height': 409, 'widthPercent': 0.45, 'rescaleHeight': False, 'trialN': 81, 'loaded': True, 'loadedTime': 3375.2999999523163, 'positionName': 'RIGHT', 'positionCoords': [873.6, 320.5], 'bid': 1.29}]",178484.39999997616,1669830564959,shreddedwheatwithmilk,avocado,6.2700000000000005,1.29,-4.98,shreddedwheatwithmilk,1674.1000000238419,1675,1674.3999999761581,True,u,180660.5,2176.100000023842,1669830567135,2176,HRV,HRV_0065,2022-11-30 17:53:07
82,"[{'imgObject': {}, 'id': 'blackbeanswithrice', 'src': '/static/foodstim60/blackbeanswithrice.jpg', 'key': 'u', 'origWidth': 410, 'origHeight': 410, 'width': 410, 'height': 410, 'widthPercent': 0.45, 'rescaleHeight': False, 'trialN': 82, 'loaded': True, 'loadedTime': 3409.7999999523163, 'positionName': 'LEFT', 'positionCoords': [396.4, 320], 'bid': 1.34}, {'imgObject': {}, 'id': 'popsicles', 'src': '/static/foodstim60/popsicles.jpg', 'key': 'i', 'origWidth': 410, 'origHeight': 410, 'width': 410, 'height': 410, 'widthPercent': 0.45, 'rescaleHeight': False, 'trialN': 82, 'loaded': True, 'loadedTime': 3621.399999976158, 'positionName': 'RIGHT', 'positionCoords': [873.6, 320], 'bid': 5.01}]",180660.5,1669830567136,blackbeanswithrice,popsicles,1.34,5.01,3.67,popsicles,975.6999999284744,975,975.8999999761581,True,i,182140.19999992847,1479.6999999284744,1669830568615,1479,HRV,HRV_0065,2022-11-30 17:53:07
83,"[{'imgObject': {}, 'id': 'sushi w_condiments', 'src': '/static/foodstim60/sushi w_condiments.jpg', 'key': 'u', 'origWidth': 410, 'origHeight': 410, 'width': 410, 'height': 410, 'widthPercent': 0.45, 'rescaleHeight': False, 'trialN': 83, 'loaded': True, 'loadedTime': 3999.5999999046326, 'positionName': 'LEFT', 'positionCoords': [396.4, 320], 'bid': 9.85}, {'imgObject': {}, 'id': 'tacos', 'src': '/static/foodstim60/tacos.jpg', 'key': 'i', 'origWidth': 411, 'origHeight': 411, 'width': 411, 'height': 411, 'widthPercent': 0.45, 'rescaleHeight': False, 'trialN': 83, 'loaded': True, 'loadedTime': 4056.0999999046326, 'positionName': 'RIGHT', 'positionCoords': [873.6, 319.5], 'bid': 9.59}]",182140.29999995232,1669830568615,sushi w_condiments,tacos,9.85,9.59,-0.2599999999999998,tacos,2742.0,2742,2742.2999999523163,True,i,185484.19999992847,3343.899999976158,1669830571959,3344,HRV,HRV_0065,2022-11-30 17:53:07
84,"[{'imgObject': {}, 'id': 'blueberries', 'src': '/static/foodstim60/blueberries.jpg', 'key': 'u', 'origWidth': 411, 'origHeight': 411, 'width': 411, 'height': 411, 'widthPercent': 0.45, 'rescaleHeight': False, 'trialN': 84, 'loaded': True, 'loadedTime': 3542.5999999046326, 'positionName': 'LEFT', 'positionCoords': [395.4, 319.5], 'bid': 5.04}, {'imgObject': {}, 'id': 'cheerios', 'src': '/static/foodstim60/cheerios.jpg', 'key': 'i', 'origWidth': 409, 'origHeight': 410, 'width': 409, 'height': 410, 'widthPercent': 0.45, 'rescaleHeight': False, 'trialN': 84, 'loaded': True, 'loadedTime': 4024.7999999523163, 'positionName': 'RIGHT', 'positionCoords': [873.6, 320], 'bid': 5.03}]",185484.29999995232,1669830571959,blueberries,cheerios,5.04,5.03,-0.009999999999999787,cheerios,2834.0,2834,2834.2999999523163,True,i,188820.69999992847,3336.399999976158,1669830575296,3337,HRV,HRV_0065,2022-11-30 17:53:07
85,"[{'imgObject': {}, 'id': 'hashbrowns', 'src': '/static/foodstim60/hashbrowns.jpg', 'key': 'u', 'origWidth': 411, 'origHeight': 410, 'width': 411, 'height': 410, 'widthPercent': 0.45, 'rescaleHeight': False, 'trialN': 85, 'loaded': True, 'loadedTime': 3767.7999999523163, 'positionName': 'LEFT', 'positionCoords': [395.4, 320], 'bid': 0.6}, {'imgObject': {}, 'id': 'blackbeanswithrice', 'src': '/static/foodstim60/blackbeanswithrice.jpg', 'key': 'i', 'origWidth': 410, 'origHeight': 410, 'width': 410, 'height': 410, 'widthPercent': 0.45, 'rescaleHeight': False, 'trialN': 85, 'loaded': True, 'loadedTime': 3413.7999999523163, 'positionName': 'RIGHT', 'positionCoords': [873.6, 320], 'bid': 1.34}]",188820.69999992847,1669830575296,hashbrowns,blackbeanswithrice,0.6,1.34,0.7400000000000001,blackbeanswithrice,2441.899999976158,2442,2442.3000000715256,True,i,191764.59999990463,2943.899999976158,1669830578239,2943,HRV,HRV_0065,2022-11-30 17:53:07
86,"[{'imgObject': {}, 'id': 'sweetpotato', 'src': '/static/foodstim60/sweetpotato.jpg', 'key': 'u', 'origWidth': 410, 'origHeight': 410, 'width': 410, 'height': 410, 'widthPercent': 0.45, 'rescaleHeight': False, 'trialN': 86, 'loaded': True, 'loadedTime': 4058.6999999284744, 'positionName': 'LEFT', 'positionCoords': [396.4, 320], 'bid': 2.53}, {'imgObject': {}, 'id': 'rigatoni', 'src': '/static/foodstim60/rigatoni.jpg', 'key': 'i', 'origWidth': 411, 'origHeight': 411, 'width': 411, 'height': 411, 'widthPercent': 0.45, 'rescaleHeight': False, 'trialN': 86, 'loaded': True, 'loadedTime': 3920.5999999046326, 'positionName': 'RIGHT', 'positionCoords': [873.6, 319.5], 'bid': 0.85}]",191764.69999992847,1669830578240,sweetpotato,rigatoni,2.53,0.85,-1.6799999999999997,rigatoni,2507.600000023842,2507,2507.8000000715256,True,i,194773.09999990463,3008.399999976158,1669830581248,3008,HRV,HRV_0065,2022-11-30 17:53:07
87,"[{'imgObject': {}, 'id': 'hotdog w must', 'src': '/static/foodstim60/hotdog w must.jpg', 'key': 'u', 'origWidth': 409, 'origHeight': 409, 'width': 409, 'height': 409, 'widthPercent': 0.45, 'rescaleHeight': False, 'trialN': 87, 'loaded': True, 'loadedTime': 4043, 'positionName': 'LEFT', 'positionCoords': [397.4, 320.5], 'bid': 2.42}, {'imgObject': {}, 'id': 'sweetpotato', 'src': '/static/foodstim60/sweetpotato.jpg', 'key': 'i', 'origWidth': 410, 'origHeight': 410, 'width': 410, 'height': 410, 'widthPercent': 0.45, 'rescaleHeight': False, 'trialN': 87, 'loaded': True, 'loadedTime': 4062.399999976158, 'positionName': 'RIGHT', 'positionCoords': [873.6, 320], 'bid': 2.53}]",194773.19999992847,1669830581248,hotdog w must,sweetpotato,2.42,2.53,0.10999999999999988,hotdog w must,1756.1000000238419,1756,1756.3999999761581,True,u,197036.29999995232,2263.100000023842,1669830583511,2263,HRV,HRV_0065,2022-11-30 17:53:07
88,"[{'imgObject': {}, 'id': 'yogurt no spoon', 'src': '/static/foodstim60/yogurt no spoon.jpg', 'key': 'u', 'origWidth': 411, 'origHeight': 410, 'width': 411, 'height': 410, 'widthPercent': 0.45, 'rescaleHeight': False, 'trialN': 88, 'loaded': True, 'loadedTime': 3791.7999999523163, 'positionName': 'LEFT', 'positionCoords': [395.4, 320], 'bid': 7.15}, {'imgObject': {}, 'id': 'Grapes', 'src': '/static/foodstim60/Grapes.jpg', 'key': 'i', 'origWidth': 411, 'origHeight': 411, 'width': 411, 'height': 411, 'widthPercent': 0.45, 'rescaleHeight': False, 'trialN': 88, 'loaded': True, 'loadedTime': 4023.399999976158, 'positionName': 'RIGHT', 'positionCoords': [873.6, 319.5], 'bid': 7.16}]",197036.39999997616,1669830583511,yogurt no spoon,Grapes,7.15,7.16,0.009999999999999787,yogurt no spoon,1730.7999999523163,1731,1731.1000000238419,True,u,199269.09999990463,2232.6999999284744,1669830585744,2233,HRV,HRV_0065,2022-11-30 17:53:07
89,"[{'imgObject': {}, 'id': 'orange slices', 'src': '/static/foodstim60/orange slices.jpg', 'key': 'u', 'origWidth': 409, 'origHeight': 410, 'width': 409, 'height': 410, 'widthPercent': 0.45, 'rescaleHeight': False, 'trialN': 89, 'loaded': True, 'loadedTime': 3983.6999999284744, 'positionName': 'LEFT', 'positionCoords': [397.4, 320], 'bid': 7.58}, {'imgObject': {}, 'id': 'chickenfingers', 'src': '/static/foodstim60/chickenfingers.jpg', 'key': 'i', 'origWidth': 410, 'origHeight': 410, 'width': 410, 'height': 410, 'widthPercent': 0.45, 'rescaleHeight': False, 'trialN': 89, 'loaded': True, 'loadedTime': 3388, 'positionName': 'RIGHT', 'positionCoords': [873.6, 320], 'bid': 7.83}]",199269.19999992847,1669830585744,orange slices,chickenfingers,7.58,7.83,0.25,chickenfingers,1584.0,1584,1584.3000000715256,True,i,201356.09999990463,2086.899999976158,1669830587831,2087,HRV,HRV_0065,2022-11-30 17:53:07
90,"[{'imgObject': {}, 'id': 'cherry tomato', 'src': '/static/foodstim60/cherry tomato.jpg', 'key': 'u', 'origWidth': 410, 'origHeight': 410, 'width': 410, 'height': 410, 'widthPercent': 0.45, 'rescaleHeight': False, 'trialN': 90, 'loaded': True, 'loadedTime': 4065.0999999046326, 'positionName': 'LEFT', 'positionCoords': [396.4, 320], 'bid': 5.7700000000000005}, {'imgObject': {}, 'id': 'cantaloupe', 'src': '/static/foodstim60/cantaloupe.jpg', 'key': 'i', 'origWidth': 409, 'origHeight': 409, 'width': 409, 'height': 409, 'widthPercent': 0.45, 'rescaleHeight': False, 'trialN': 90, 'loaded': True, 'loadedTime': 3570, 'positionName': 'RIGHT', 'positionCoords': [873.6, 320.5], 'bid': 0.34}]",206653.19999992847,1669830593128,cherry tomato,cantaloupe,5.7700000000000005,0.34,-5.430000000000001,cherry tomato,1599.0,1599,1599.2000000476837,True,u,208756.59999990463,2103.399999976158,1669830595232,2104,HRV,HRV_0065,2022-11-30 17:53:07
91,"[{'imgObject': {}, 'id': 'luckycharms', 'src': '/static/foodstim60/luckycharms.jpg', 'key': 'u', 'origWidth': 410, 'origHeight': 409, 'width': 410, 'height': 409, 'widthPercent': 0.45, 'rescaleHeight': False, 'trialN': 91, 'loaded': True, 'loadedTime': 3560.5, 'positionName': 'LEFT', 'positionCoords': [396.4, 320.5], 'bid': 5.89}, {'imgObject': {}, 'id': 'popsicles', 'src': '/static/foodstim60/popsicles.jpg', 'key': 'i', 'origWidth': 410, 'origHeight': 410, 'width': 410, 'height': 410, 'widthPercent': 0.45, 'rescaleHeight': False, 'trialN': 91, 'loaded': True, 'loadedTime': 3625.5, 'positionName': 'RIGHT', 'positionCoords': [873.6, 320], 'bid': 5.01}]",208756.69999992847,1669830595232,luckycharms,popsicles,5.89,5.01,-0.8799999999999999,popsicles,1581.3999999761581,1581,1581.6000000238419,True,i,210844.29999995232,2087.600000023842,1669830597319,2087,HRV,HRV_0065,2022-11-30 17:53:07
92,"[{'imgObject': {}, 'id': 'seaweed', 'src': '/static/foodstim60/seaweed.jpg', 'key': 'u', 'origWidth': 410, 'origHeight': 410, 'width': 410, 'height': 410, 'widthPercent': 0.45, 'rescaleHeight': False, 'trialN': 92, 'loaded': True, 'loadedTime': 4052.7999999523163, 'positionName': 'LEFT', 'positionCoords': [396.4, 320], 'bid': 5.0200000000000005}, {'imgObject': {}, 'id': 'rigatoni and sauce', 'src': '/static/foodstim60/rigatoni and sauce.jpg', 'key': 'i', 'origWidth': 410, 'origHeight': 411, 'width': 410, 'height': 411, 'widthPercent': 0.45, 'rescaleHeight': False, 'trialN': 92, 'loaded': True, 'loadedTime': 3341.399999976158, 'positionName': 'RIGHT', 'positionCoords': [873.6, 319.5], 'bid': 4.94}]",210844.39999997616,1669830597319,seaweed,rigatoni and sauce,5.0200000000000005,4.94,-0.08000000000000007,rigatoni and sauce,1718.8999999761581,1720,1719.2999999523163,True,i,213068.19999992847,2223.7999999523163,1669830599543,2224,HRV,HRV_0065,2022-11-30 17:53:07
93,"[{'imgObject': {}, 'id': 'fruitsalad', 'src': '/static/foodstim60/fruitsalad.jpg', 'key': 'u', 'origWidth': 410, 'origHeight': 410, 'width': 410, 'height': 410, 'widthPercent': 0.45, 'rescaleHeight': False, 'trialN': 93, 'loaded': True, 'loadedTime': 3674.2999999523163, 'positionName': 'LEFT', 'positionCoords': [396.4, 320], 'bid': 8.61}, {'imgObject': {}, 'id': 'kiwi', 'src': '/static/foodstim60/kiwi.jpg', 'key': 'i', 'origWidth': 410, 'origHeight': 410, 'width': 410, 'height': 410, 'widthPercent': 0.45, 'rescaleHeight': False, 'trialN': 93, 'loaded': True, 'loadedTime': 3966.899999976158, 'positionName': 'RIGHT', 'positionCoords': [873.6, 320], 'bid': 8.01}]",213068.29999995232,1669830599543,fruitsalad,kiwi,8.61,8.01,-0.5999999999999996,fruitsalad,2944.0,2944,2944.2000000476837,True,u,216516.39999997616,3448.100000023842,1669830602991,3448,HRV,HRV_0065,2022-11-30 17:53:07
94,"[{'imgObject': {}, 'id': 'Grapes', 'src': '/static/foodstim60/Grapes.jpg', 'key': 'u', 'origWidth': 411, 'origHeight': 411, 'width': 411, 'height': 411, 'widthPercent': 0.45, 'rescaleHeight': False, 'trialN': 94, 'loaded': True, 'loadedTime': 4023.5999999046326, 'positionName': 'LEFT', 'positionCoords': [395.4, 319.5], 'bid': 7.16}, {'imgObject': {}, 'id': 'mango', 'src': '/static/foodstim60/mango.jpg', 'key': 'i', 'origWidth': 411, 'origHeight': 411, 'width': 411, 'height': 411, 'widthPercent': 0.45, 'rescaleHeight': False, 'trialN': 94, 'loaded': True, 'loadedTime': 3635.2999999523163, 'positionName': 'RIGHT', 'positionCoords': [873.6, 319.5], 'bid': 7.1000000000000005}]",216516.5,1669830602991,Grapes,mango,7.16,7.1000000000000005,-0.05999999999999961,Grapes,2070.0,2071,2070.1999999284744,True,u,219092.59999990463,2576.0999999046326,1669830605568,2577,HRV,HRV_0065,2022-11-30 17:53:07
95,"[{'imgObject': {}, 'id': 'lox', 'src': '/static/foodstim60/lox.jpg', 'key': 'u', 'origWidth': 410, 'origHeight': 411, 'width': 410, 'height': 411, 'widthPercent': 0.45, 'rescaleHeight': False, 'trialN': 95, 'loaded': True, 'loadedTime': 4033.7999999523163, 'positionName': 'LEFT', 'positionCoords': [396.4, 319.5], 'bid': 1.46}, {'imgObject': {}, 'id': 'bagel plain', 'src': '/static/foodstim60/bagel plain.jpg', 'key': 'i', 'origWidth': 410, 'origHeight': 410, 'width': 410, 'height': 410, 'widthPercent': 0.45, 'rescaleHeight': False, 'trialN': 95, 'loaded': True, 'loadedTime': 3751.5999999046326, 'positionName': 'RIGHT', 'positionCoords': [873.6, 320], 'bid': 1.94}]",219092.69999992847,1669830605568,lox,bagel plain,1.46,1.94,0.48,bagel plain,1706.7000000476837,1707,1707.0,True,i,221300.79999995232,2208.100000023842,1669830607776,2208,HRV,HRV_0065,2022-11-30 17:53:07
96,"[{'imgObject': {}, 'id': 'cherries', 'src': '/static/foodstim60/cherries.jpg', 'key': 'u', 'origWidth': 410, 'origHeight': 411, 'width': 410, 'height': 411, 'widthPercent': 0.45, 'rescaleHeight': False, 'trialN': 96, 'loaded': True, 'loadedTime': 3855.399999976158, 'positionName': 'LEFT', 'positionCoords': [396.4, 319.5], 'bid': 7.47}, {'imgObject': {}, 'id': 'apple slices', 'src': '/static/foodstim60/apple slices.jpg', 'key': 'i', 'origWidth': 409, 'origHeight': 410, 'width': 409, 'height': 410, 'widthPercent': 0.45, 'rescaleHeight': False, 'trialN': 96, 'loaded': True, 'loadedTime': 3736.0999999046326, 'positionName': 'RIGHT', 'positionCoords': [873.6, 320], 'bid': 7.47}]",221300.79999995232,1669830607776,cherries,apple slices,7.47,7.47,0.0,apple slices,1356.3999999761581,1356,1356.6000000238419,True,i,223164.19999992847,1863.3999999761581,1669830609639,1863,HRV,HRV_0065,2022-11-30 17:53:07
97,"[{'imgObject': {}, 'id': 'kiwi', 'src': '/static/foodstim60/kiwi.jpg', 'key': 'u', 'origWidth': 410, 'origHeight': 410, 'width': 410, 'height': 410, 'widthPercent': 0.45, 'rescaleHeight': False, 'trialN': 97, 'loaded': True, 'loadedTime': 3966.5, 'positionName': 'LEFT', 'positionCoords': [396.4, 320], 'bid': 8.01}, {'imgObject': {}, 'id': 'popsicles', 'src': '/static/foodstim60/popsicles.jpg', 'key': 'i', 'origWidth': 410, 'origHeight': 410, 'width': 410, 'height': 410, 'widthPercent': 0.45, 'rescaleHeight': False, 'trialN': 97, 'loaded': True, 'loadedTime': 3621.7999999523163, 'positionName': 'RIGHT', 'positionCoords': [873.6, 320], 'bid': 5.01}]",223164.29999995232,1669830609639,kiwi,popsicles,8.01,5.01,-3.0,kiwi,2522.7999999523163,2523,2523.2000000476837,True,u,226188.19999992847,3023.899999976158,1669830612663,3024,HRV,HRV_0065,2022-11-30 17:53:07
98,"[{'imgObject': {}, 'id': 'eggs', 'src': '/static/foodstim60/eggs.jpg', 'key': 'u', 'origWidth': 409, 'origHeight': 409, 'width': 409, 'height': 409, 'widthPercent': 0.45, 'rescaleHeight': False, 'trialN': 98, 'loaded': True, 'loadedTime': 3806.899999976158, 'positionName': 'LEFT', 'positionCoords': [397.4, 320.5], 'bid': 4.26}, {'imgObject': {}, 'id': 'lox', 'src': '/static/foodstim60/lox.jpg', 'key': 'i', 'origWidth': 410, 'origHeight': 411, 'width': 410, 'height': 411, 'widthPercent': 0.45, 'rescaleHeight': False, 'trialN': 98, 'loaded': True, 'loadedTime': 4032.1999999284744, 'positionName': 'RIGHT', 'positionCoords': [873.6, 319.5], 'bid': 1.46}]",226188.29999995232,1669830612663,eggs,lox,4.26,1.46,-2.8,eggs,944.8999999761581,945,945.0,True,u,227636.5,1448.2000000476837,1669830614111,1448,HRV,HRV_0065,2022-11-30 17:53:07
99,"[{'imgObject': {}, 'id': 'Tribe humus pita', 'src': '/static/foodstim60/Tribe humus pita.jpg', 'key': 'u', 'origWidth': 411, 'origHeight': 411, 'width': 411, 'height': 411, 'widthPercent': 0.45, 'rescaleHeight': False, 'trialN': 99, 'loaded': True, 'loadedTime': 3982.0999999046326, 'positionName': 'LEFT', 'positionCoords': [395.4, 319.5], 'bid': 0.86}, {'imgObject': {}, 'id': 'froot loops w milk', 'src': '/static/foodstim60/froot loops w milk.jpg', 'key': 'i', 'origWidth': 410, 'origHeight': 410, 'width': 410, 'height': 410, 'widthPercent': 0.45, 'rescaleHeight': False, 'trialN': 99, 'loaded': True, 'loadedTime': 3502.5, 'positionName': 'RIGHT', 'positionCoords': [873.6, 320], 'bid': 2.6}]",227636.5,1669830614111,Tribe humus pita,froot loops w milk,0.86,2.6,1.7400000000000002,froot loops w milk,1595.0999999046326,1596,1595.3999999761581,True,i,229732.09999990463,2095.5999999046326,1669830616207,2096,HRV,HRV_0065,2022-11-30 17:53:07
100,"[{'imgObject': {}, 'id': 'grilled chicken strips', 'src': '/static/foodstim60/grilled chicken strips.jpg', 'key': 'u', 'origWidth': 410, 'origHeight': 411, 'width': 410, 'height': 411, 'widthPercent': 0.45, 'rescaleHeight': False, 'trialN': 100, 'loaded': True, 'loadedTime': 3872.0999999046326, 'positionName': 'LEFT', 'positionCoords': [396.4, 319.5], 'bid': 5.9}, {'imgObject': {}, 'id': 'seaweed', 'src': '/static/foodstim60/seaweed.jpg', 'key': 'i', 'origWidth': 410, 'origHeight': 410, 'width': 410, 'height': 410, 'widthPercent': 0.45, 'rescaleHeight': False, 'trialN': 100, 'loaded': True, 'loadedTime': 4053, 'positionName': 'RIGHT', 'positionCoords': [873.6, 320], 'bid': 5.0200000000000005}]",229732.19999992847,1669830616207,grilled chicken strips,seaweed,5.9,5.0200000000000005,-0.8799999999999999,grilled chicken strips,1178.8999999761581,1179,1179.2000000476837,True,u,231412.69999992847,1680.5,1669830617888,1681,HRV,HRV_0065,2022-11-30 17:53:07
101,"[{'imgObject': {}, 'id': 'veggieswithdip', 'src': '/static/foodstim60/veggieswithdip.jpg', 'key': 'u', 'origWidth': 409, 'origHeight': 409, 'width': 409, 'height': 409, 'widthPercent': 0.45, 'rescaleHeight': False, 'trialN': 101, 'loaded': True, 'loadedTime': 3818.6999999284744, 'positionName': 'LEFT', 'positionCoords': [397.4, 320.5], 'bid': 6.08}, {'imgObject': {}, 'id': 'Tribe humus pita', 'src': '/static/foodstim60/Tribe humus pita.jpg', 'key': 'i', 'origWidth': 411, 'origHeight': 411, 'width': 411, 'height': 411, 'widthPercent': 0.45, 'rescaleHeight': False, 'trialN': 101, 'loaded': True, 'loadedTime': 3981.399999976158, 'positionName': 'RIGHT', 'positionCoords': [873.6, 319.5], 'bid': 0.86}]",231412.79999995232,1669830617888,veggieswithdip,Tribe humus pita,6.08,0.86,-5.22,veggieswithdip,2871.2999999523163,2871,2871.600000023842,True,u,234788.19999992847,3375.399999976158,1669830621263,3375,HRV,HRV_0065,2022-11-30 17:53:07
102,"[{'imgObject': {}, 'id': 'mac & cheese', 'src': '/static/foodstim60/mac & cheese.jpg', 'key': 'u', 'origWidth': 410, 'origHeight': 410, 'width': 410, 'height': 410, 'widthPercent': 0.45, 'rescaleHeight': False, 'trialN': 102, 'loaded': True, 'loadedTime': 3595.899999976158, 'positionName': 'LEFT', 'positionCoords': [396.4, 320], 'bid': 5.82}, {'imgObject': {}, 'id': 'cherry tomato', 'src': '/static/foodstim60/cherry tomato.jpg', 'key': 'i', 'origWidth': 410, 'origHeight': 410, 'width': 410, 'height': 410, 'widthPercent': 0.45, 'rescaleHeight': False, 'trialN': 102, 'loaded': True, 'loadedTime': 4064.6999999284744, 'positionName': 'RIGHT', 'positionCoords': [873.6, 320], 'bid': 5.7700000000000005}]",234788.29999995232,1669830621263,mac & cheese,cherry tomato,5.82,5.7700000000000005,-0.04999999999999982,mac & cheese,1664.7999999523163,1665,1665.1000000238419,True,u,236957.09999990463,2168.7999999523163,1669830623432,2169,HRV,HRV_0065,2022-11-30 17:53:07
103,"[{'imgObject': {}, 'id': 'orange slices', 'src': '/static/foodstim60/orange slices.jpg', 'key': 'u', 'origWidth': 409, 'origHeight': 410, 'width': 409, 'height': 410, 'widthPercent': 0.45, 'rescaleHeight': False, 'trialN': 103, 'loaded': True, 'loadedTime': 3982.399999976158, 'positionName': 'LEFT', 'positionCoords': [397.4, 320], 'bid': 7.58}, {'imgObject': {}, 'id': 'cherries', 'src': '/static/foodstim60/cherries.jpg', 'key': 'i', 'origWidth': 410, 'origHeight': 411, 'width': 410, 'height': 411, 'widthPercent': 0.45, 'rescaleHeight': False, 'trialN': 103, 'loaded': True, 'loadedTime': 3842.899999976158, 'positionName': 'RIGHT', 'positionCoords': [873.6, 319.5], 'bid': 7.47}]",236957.19999992847,1669830623432,orange slices,cherries,7.58,7.47,-0.11000000000000032,orange slices,2406.2000000476837,2407,2406.399999976158,True,u,239868.69999992847,2911.5,1669830626344,2912,HRV,HRV_0065,2022-11-30 17:53:07
104,"[{'imgObject': {}, 'id': 'olives', 'src': '/static/foodstim60/olives.jpg', 'key': 'u', 'origWidth': 410, 'origHeight': 410, 'width': 410, 'height': 410, 'widthPercent': 0.45, 'rescaleHeight': False, 'trialN': 104, 'loaded': True, 'loadedTime': 4012.7999999523163, 'positionName': 'LEFT', 'positionCoords': [396.4, 320], 'bid': 1.45}, {'imgObject': {}, 'id': 'raisin bran w milk', 'src': '/static/foodstim60/raisin bran w milk.jpg', 'key': 'i', 'origWidth': 411, 'origHeight': 411, 'width': 411, 'height': 411, 'widthPercent': 0.45, 'rescaleHeight': False, 'trialN': 104, 'loaded': True, 'loadedTime': 3905.0999999046326, 'positionName': 'RIGHT', 'positionCoords': [873.6, 319.5], 'bid': 6.47}]",239868.79999995232,1669830626344,olives,raisin bran w milk,1.45,6.47,5.02,raisin bran w milk,1042.5,1043,1042.7999999523163,True,i,241412.29999995232,1543.5,1669830627887,1543,HRV,HRV_0065,2022-11-30 17:53:07
105,"[{'imgObject': {}, 'id': 'ice cream sundae 002', 'src': '/static/foodstim60/ice cream sundae 002.jpg', 'key': 'u', 'origWidth': 409, 'origHeight': 409, 'width': 409, 'height': 409, 'widthPercent': 0.45, 'rescaleHeight': False, 'trialN': 105, 'loaded': True, 'loadedTime': 3312.0999999046326, 'positionName': 'LEFT', 'positionCoords': [397.4, 320.5], 'bid': 3.4}, {'imgObject': {}, 'id': 'banana', 'src': '/static/foodstim60/banana.jpg', 'key': 'i', 'origWidth': 410, 'origHeight': 410, 'width': 410, 'height': 410, 'widthPercent': 0.45, 'rescaleHeight': False, 'trialN': 105, 'loaded': True, 'loadedTime': 3479.6999999284744, 'positionName': 'RIGHT', 'positionCoords': [873.6, 320], 'bid': 7.46}]",241412.29999995232,1669830627887,ice cream sundae 002,banana,3.4,7.46,4.0600000000000005,banana,1400.7999999523163,1401,1401.1000000238419,True,i,243317.0,1904.7000000476837,1669830629792,1905,HRV,HRV_0065,2022-11-30 17:53:07
106,"[{'imgObject': {}, 'id': 'corn cob', 'src': '/static/foodstim60/corn cob.jpg', 'key': 'u', 'origWidth': 411, 'origHeight': 411, 'width': 411, 'height': 411, 'widthPercent': 0.45, 'rescaleHeight': False, 'trialN': 106, 'loaded': True, 'loadedTime': 3515.0999999046326, 'positionName': 'LEFT', 'positionCoords': [395.4, 319.5], 'bid': 1.71}, {'imgObject': {}, 'id': 'bagel plain', 'src': '/static/foodstim60/bagel plain.jpg', 'key': 'i', 'origWidth': 410, 'origHeight': 410, 'width': 410, 'height': 410, 'widthPercent': 0.45, 'rescaleHeight': False, 'trialN': 106, 'loaded': True, 'loadedTime': 3760.1999999284744, 'positionName': 'RIGHT', 'positionCoords': [873.6, 320], 'bid': 1.94}]",243317.0,1669830629792,corn cob,bagel plain,1.71,1.94,0.22999999999999998,bagel plain,1773.0,1773,1773.2999999523163,True,i,245596.29999995232,2279.2999999523163,1669830632071,2279,HRV,HRV_0065,2022-11-30 17:53:07
107,"[{'imgObject': {}, 'id': 'burrito', 'src': '/static/foodstim60/burrito.jpg', 'key': 'u', 'origWidth': 410, 'origHeight': 410, 'width': 410, 'height': 410, 'widthPercent': 0.45, 'rescaleHeight': False, 'trialN': 107, 'loaded': True, 'loadedTime': 3607, 'positionName': 'LEFT', 'positionCoords': [396.4, 320], 'bid': 4.47}, {'imgObject': {}, 'id': 'omelette', 'src': '/static/foodstim60/omelette.jpg', 'key': 'i', 'origWidth': 410, 'origHeight': 409, 'width': 410, 'height': 409, 'widthPercent': 0.45, 'rescaleHeight': False, 'trialN': 107, 'loaded': True, 'loadedTime': 3720.0999999046326, 'positionName': 'RIGHT', 'positionCoords': [873.6, 320.5], 'bid': 1.17}]",245596.39999997616,1669830632071,burrito,omelette,4.47,1.17,-3.3,burrito,2366.6999999284744,2367,2367.100000023842,True,u,248468.39999997616,2872.0,1669830634943,2872,HRV,HRV_0065,2022-11-30 17:53:07
