success,trial_type,trial_index,time_elapsed,internal_node_id,Block,TrialNumber,TrialTime,trialTimeDiff,FPS_avg,FPS_med,FPS_mode,TrialDur,winResizeTime,rt,block,button_pressed,MotCoh,MotDir,ColCoh,Color,ChoiceKey,Choice,Accuracy,RT,nFrames,FPS,PPD,missTrial,missTrialMsg,onsetDelay,fullScreenExitTime,canvCenter,TrialType,Score,BlockTrial,stimulus,button_labels,exp,subjectId,date
True,fullscreen,0,2756,0.0-0.0,0.0,1.0,,,,,,,,,,,,,,,,,,,,,,,,,,,,,,,,HRV,HRV_0065,2022-11-30 18:04:36
,wl-check-fps,1,7756,0.0-1.0,0.0,2.0,"[3069.2, 3070.3, 3086.6, 3103.2, 3119.5, 3136, 3153.6, 3169.7, 3186, 3202.6, 3220.2, 3236.7, 3253.2, 3269.7, 3286.3, 3302.8, 3321.2, 3336.9, 3353.5, 3370.1, 3386.3, 3402.9, 3421.4, 3437, 3453.7, 3470, 3486.5, 3503.1, 3521.6, 3536.9, 3554, 3570.6, 3587.2, 3603.8, 3620.4, 3637, 3654.2, 3670.7, 3687.4, 3704.1, 3720.7, 3736.9, 3755.1, 3770.7, 3787.3, 3805.3, 3821, 3837.7, 3854.3, 3870.7, 3887.3, 3904.8, 3922.3, 3937.6, 3955.1, 3970.8, 3987.4, 4005, 4022.6, 4038.3, 4054.8, 4071.4, 4088, 4104.6, 4121.2, 4137.8, 4155, 4171.6, 4188.1, 4204.8, 4221.4, 4237.9, 4255.1, 4271.8, 4288.4, 4306.4, 4322.1, 4338.6, 4355.4, 4371.4, 4389.6, 4405.3, 4421.9, 4438.4, 4456.4, 4472.1, 4488.7, 4505.3, 4521.9, 4539, 4555.7, 4572.3, 4588.9, 4607, 4622.7, 4639.3, 4656, 4672.9, 4690, 4705.6, 4722.1, 4738.9, 4755.5, 4773.1, 4789.2, 4806.8, 4823.1, 4839.8, 4856.4, 4872.9, 4889.8, 4906.3, 4922.9, 4939.6, 4957.6, 4973.3, 4989.9, 5006.5, 5023.2, 5039.7, 5056.3, 5072.9, 5090, 5106.7, 5123.3, 5139.8, 5156.5, 5174, 5189.6, 5208.2, 5223.8, 5240, 5256.7, 5273.2, 5289.9, 5307.7, 5323.3, 5340.9, 5357.5, 5374.1, 5390.8, 5407.3, 5424, 5440.6, 5458.1, 5473.7, 5490.4, 5508, 5524.1, 5540.7, 5558.4, 5575, 5591, 5607.6, 5624.2, 5640.8, 5657.4, 5675, 5691.5, 5708.1, 5724.1, 5741.3, 5757.9, 5775.4, 5791.1, 5807.6, 5824.3, 5841.9, 5858.5, 5874.7, 5891.3, 5907.9, 5924.5, 5941.8, 5958.4, 5975, 5991.6, 6009.8, 6025, 6042.5, 6059.2, 6074.8, 6092.3, 6108.9, 6125.5, 6142.1, 6158.7, 6175.3, 6192, 6208.6, 6226.6, 6242.3, 6258.9, 6275.5, 6293.6, 6309.1, 6325.8, 6342.3, 6359, 6375.6, 6392.2, 6408.7, 6425.9, 6442.5, 6459.1, 6475.7, 6492.3, 6509.9, 6526.5, 6543.1, 6559.7, 6576.3, 6593.1, 6609.7, 6626.4, 6643.7, 6659.4, 6676, 6693.6, 6709.7, 6727.8, 6743.4, 6760.1, 6776.8, 6793.5, 6810, 6827.6, 6843.4, 6859.6, 6877.2, 6893.7, 6910.4, 6927, 6944, 6960.7, 6977.3, 6993.8, 7010, 7026.8, 7043.3, 7060.8, 7078.4, 7094.9, 7110.7, 7128.2, 7144.4, 7160.5, 7177.2, 7193.8, 7210.9, 7227.5, 7244.2, 7260.6, 7278, 7294.5, 7311.1, 7327.6, 7345.7, 7361.1, 7379, 7394.6, 7411.2, 7427.8, 7445.3, 7461, 7477.8, 7495.3, 7511.9, 7527.5, 7545.1, 7561.4, 7578.6, 7595.2, 7611.7, 7628.4, 7644.8, 7662.2, 7677.9, 7694.4, 7712.1, 7728.2, 7744.8, 7761.5, 7778, 7796.2, 7811.9, 7828.4, 7845.1, 7861.6, 7878.3, 7895.8, 7912.4, 7929, 7945.2, 7963.2, 7979.6, 7995.4, 8013, 8029.2, 8045.8]","[3.4, 1.1, 16.3, 16.6, 16.3, 16.5, 17.6, 16.1, 16.3, 16.6, 17.6, 16.5, 16.5, 16.5, 16.6, 16.5, 18.4, 15.7, 16.6, 16.6, 16.2, 16.6, 18.5, 15.6, 16.7, 16.3, 16.5, 16.6, 18.5, 15.3, 17.1, 16.6, 16.6, 16.6, 16.6, 16.6, 17.2, 16.5, 16.7, 16.7, 16.6, 16.2, 18.2, 15.6, 16.6, 18, 15.7, 16.7, 16.6, 16.4, 16.6, 17.5, 17.5, 15.3, 17.5, 15.7, 16.6, 17.6, 17.6, 15.7, 16.5, 16.6, 16.6, 16.6, 16.6, 16.6, 17.2, 16.6, 16.5, 16.7, 16.6, 16.5, 17.2, 16.7, 16.6, 18, 15.7, 16.5, 16.8, 16, 18.2, 15.7, 16.6, 16.5, 18, 15.7, 16.6, 16.6, 16.6, 17.1, 16.7, 16.6, 16.6, 18.1, 15.7, 16.6, 16.7, 16.9, 17.1, 15.6, 16.5, 16.8, 16.6, 17.6, 16.1, 17.6, 16.3, 16.7, 16.6, 16.5, 16.9, 16.5, 16.6, 16.7, 18, 15.7, 16.6, 16.6, 16.7, 16.5, 16.6, 16.6, 17.1, 16.7, 16.6, 16.5, 16.7, 17.5, 15.6, 18.6, 15.6, 16.2, 16.7, 16.5, 16.7, 17.8, 15.6, 17.6, 16.6, 16.6, 16.7, 16.5, 16.7, 16.6, 17.5, 15.6, 16.7, 17.6, 16.1, 16.6, 17.7, 16.6, 16, 16.6, 16.6, 16.6, 16.6, 17.6, 16.5, 16.6, 16, 17.2, 16.6, 17.5, 15.7, 16.5, 16.7, 17.6, 16.6, 16.2, 16.6, 16.6, 16.6, 17.3, 16.6, 16.6, 16.6, 18.2, 15.2, 17.5, 16.7, 15.6, 17.5, 16.6, 16.6, 16.6, 16.6, 16.6, 16.7, 16.6, 18, 15.7, 16.6, 16.6, 18.1, 15.5, 16.7, 16.5, 16.7, 16.6, 16.6, 16.5, 17.2, 16.6, 16.6, 16.6, 16.6, 17.6, 16.6, 16.6, 16.6, 16.6, 16.8, 16.6, 16.7, 17.3, 15.7, 16.6, 17.6, 16.1, 18.1, 15.6, 16.7, 16.7, 16.7, 16.5, 17.6, 15.8, 16.2, 17.6, 16.5, 16.7, 16.6, 17, 16.7, 16.6, 16.5, 16.2, 16.8, 16.5, 17.5, 17.6, 16.5, 15.8, 17.5, 16.2, 16.1, 16.7, 16.6, 17.1, 16.6, 16.7, 16.4, 17.4, 16.5, 16.6, 16.5, 18.1, 15.4, 17.9, 15.6, 16.6, 16.6, 17.5, 15.7, 16.8, 17.5, 16.6, 15.6, 17.6, 16.3, 17.2, 16.6, 16.5, 16.7, 16.4, 17.4, 15.7, 16.5, 17.7, 16.1, 16.6, 16.7, 16.5, 18.2, 15.7, 16.5, 16.7, 16.5, 16.7, 17.5, 16.6, 16.6, 16.2, 18, 16.4, 15.8, 17.6, 16.2, 16.6]",60.0,58.0,60.0,4997.8,[],,,,,,,,,,,,,,,,,,,,,,,,,HRV,HRV_0065,2022-11-30 18:04:36
,wl-html-keyboard-response,2,31899,0.0-2.0-0.0,0.0,3.0,,,,,,,,22139.600000023842,0.0,0,,,,,,,,,,,,,,,,,,,,,,HRV,HRV_0065,2022-11-30 18:04:36
,wl-rdm,3,38913,0.0-3.0-0.0,0.0,4.0,,,,,,,[],,,,0.0,0.0,87.9,0.0,u,0.0,True,1450.1000001430511,87.0,60.0,40.0,False,,3000.0,[],"[840, 525]",ColorTask_Demo,,,,,HRV,HRV_0065,2022-11-30 18:04:36
,wl-rdm,4,43623,0.0-3.0-1.0,0.0,5.0,,,,,,,[],,,,0.0,0.0,87.9,1.0,i,1.0,True,643.1999999284744,39.0,60.0,40.0,False,,2000.0,[],"[840, 525]",ColorTask_Demo,,,,,HRV,HRV_0065,2022-11-30 18:04:36
,wl-html-keyboard-response,5,48131,0.0-3.0-2.0,0.0,6.0,,,,,,,,1862.1000000238419,0.0,1,,,,,,,,,,,,,,,,,,,,,,HRV,HRV_0065,2022-11-30 18:04:36
,wl-html-keyboard-response,6,55851,0.0-4.0-0.0,0.0,7.0,,,,,,,,5716.200000047684,0.0,0,,,,,,,,,,,,,,,,,,,,,,HRV,HRV_0065,2022-11-30 18:04:36
,wl-html-keyboard-response,7,76947,0.0-5.0-0.0,0.0,8.0,,,,,,,,19093.899999976158,0.0,0,,,,,,,,,,,,,,,,,,,,,,HRV,HRV_0065,2022-11-30 18:04:36
,wl-rdm,8,79174,0.0-6.0-0.0,0.0,9.0,,,,,,,[],,,,,,87.9,1.0,i,1.0,True,793.7999999523163,48.0,60.0,40.0,False,,367.1790498027748,[],"[840, 525]",ColorTask,1.0,1.0,,,HRV,HRV_0065,2022-11-30 18:04:36
,wl-rdm,9,81731,0.0-6.1-0.1,0.0,10.0,,,,,,,[],,,,,,56.4,0.0,u,0.0,True,1283.3999999761581,77.0,60.0,40.0,False,,215.8045696631901,[],"[840, 525]",ColorTask,2.0,2.0,,,HRV,HRV_0065,2022-11-30 18:04:36
,wl-rdm,10,84385,0.0-6.2-0.2,0.0,11.0,,,,,,,[],,,,,,50.0,0.0,i,1.0,False,1373.7999999523163,83.0,60.0,40.0,False,,200.0134460214787,[],"[840, 525]",ColorTask,1.0,3.0,,,HRV,HRV_0065,2022-11-30 18:04:36
,wl-rdm,11,86656,0.0-6.3-0.3,0.0,12.0,,,,,,,[],,,,,,62.5,0.0,u,0.0,True,906.5,55.0,60.0,40.0,False,,285.6911790461549,[],"[840, 525]",ColorTask,2.0,4.0,,,HRV,HRV_0065,2022-11-30 18:04:36
,wl-rdm,12,89511,0.0-6.4-0.4,0.0,13.0,,,,,,,[],,,,,,62.5,1.0,i,1.0,True,1457.6000000238419,88.0,60.0,40.0,False,,300.0823800603219,[],"[840, 525]",ColorTask,3.0,5.0,,,HRV,HRV_0065,2022-11-30 18:04:36
,wl-rdm,13,92284,0.0-6.5-0.5,0.0,14.0,,,,,,,[],,,,,,53.2,0.0,i,1.0,False,1375.5,83.0,60.0,40.0,False,,322.09089420057194,[],"[840, 525]",ColorTask,2.0,6.0,,,HRV,HRV_0065,2022-11-30 18:04:36
,wl-rdm,14,94671,0.0-6.6-0.6,0.0,15.0,,,,,,,[],,,,,,73.6,0.0,u,0.0,True,1049.3999999761581,63.0,60.0,40.0,False,,283.8821994014615,[],"[840, 525]",ColorTask,3.0,7.0,,,HRV,HRV_0065,2022-11-30 18:04:36
,wl-rdm,15,96776,0.0-6.7-0.7,0.0,16.0,,,,,,,[],,,,,,87.9,0.0,u,0.0,True,809.5,49.0,60.0,40.0,False,,217.63442162125466,[],"[840, 525]",ColorTask,4.0,8.0,,,HRV,HRV_0065,2022-11-30 18:04:36
,wl-rdm,16,100232,0.0-6.8-0.8,0.0,17.0,,,,,,,[],,,,,,50.0,1.0,i,1.0,True,2100.899999976158,126.0,60.0,40.0,False,,289.99580491722827,[],"[840, 525]",ColorTask,5.0,9.0,,,HRV,HRV_0065,2022-11-30 18:04:36
,wl-rdm,17,103154,0.0-6.9-0.9,0.0,18.0,,,,,,,[],,,,,,73.6,1.0,i,1.0,True,1627.6999999284744,98.0,60.0,40.0,False,,228.15117471878526,[],"[840, 525]",ColorTask,6.0,10.0,,,HRV,HRV_0065,2022-11-30 18:04:36
,wl-rdm,18,106210,0.0-6.10-0.10,0.0,19.0,,,,,,,[],,,,,,53.2,0.0,i,1.0,False,1735.3000000715256,104.0,60.0,40.0,False,,259.88555188195716,[],"[840, 525]",ColorTask,5.0,11.0,,,HRV,HRV_0065,2022-11-30 18:04:36
,wl-rdm,19,109416,0.0-6.11-0.11,0.0,20.0,,,,,,,[],,,,,,62.5,0.0,u,0.0,True,1808.0,109.0,60.0,40.0,False,,319.6739381397065,[],"[840, 525]",ColorTask,6.0,12.0,,,HRV,HRV_0065,2022-11-30 18:04:36
,wl-rdm,20,111571,0.0-6.12-0.12,0.0,21.0,,,,,,,[],,,,,,87.9,1.0,i,1.0,True,771.3999998569489,47.0,60.0,40.0,False,,315.6270420820567,[],"[840, 525]",ColorTask,7.0,13.0,,,HRV,HRV_0065,2022-11-30 18:04:36
,wl-rdm,21,114110,0.0-6.13-0.13,0.0,22.0,,,,,,,[],,,,,,73.6,0.0,u,0.0,True,1250.9000000953674,75.0,60.0,40.0,False,,227.84527418104318,[],"[840, 525]",ColorTask,8.0,14.0,,,HRV,HRV_0065,2022-11-30 18:04:36
,wl-rdm,22,116698,0.0-6.14-0.14,0.0,23.0,,,,,,,[],,,,,,73.6,1.0,i,1.0,True,1275.9000000953674,77.0,60.0,40.0,False,,241.65142108049076,[],"[840, 525]",ColorTask,9.0,15.0,,,HRV,HRV_0065,2022-11-30 18:04:36
,wl-rdm,23,119235,0.0-6.15-0.15,0.0,24.0,,,,,,,[],,,,,,56.4,1.0,i,1.0,True,1191.2000000476837,72.0,60.0,40.0,False,,275.4969482196145,[],"[840, 525]",ColorTask,10.0,16.0,,,HRV,HRV_0065,2022-11-30 18:04:36
,wl-rdm,24,123076,0.0-6.16-0.16,0.0,25.0,,,,,,,[],,,,,,53.2,0.0,u,0.0,True,2512.5999999046326,151.0,60.0,40.0,False,,265.7754033775075,[],"[840, 525]",ColorTask,11.0,17.0,,,HRV,HRV_0065,2022-11-30 18:04:36
,wl-rdm,25,126750,0.0-6.17-0.17,0.0,26.0,,,,,,,[],,,,,,50.0,1.0,u,0.0,False,2332.0,140.0,60.0,40.0,False,,269.62229726977705,[],"[840, 525]",ColorTask,10.0,18.0,,,HRV,HRV_0065,2022-11-30 18:04:36
,wl-rdm,26,131108,0.0-6.18-0.18,0.0,26.0,,,,,,,[],,,,,,56.4,0.0,u,,,3270.2000000476837,179.0,60.0,40.0,True,RT_timeout ,263.07414460204177,[],"[840, 525]",ColorTask,9.0,19.0,,,HRV,HRV_0065,2022-11-30 18:04:36
,wl-rdm,27,133981,0.0-6.19-0.19,0.0,27.0,,,,,,,[],,,,,,56.4,1.0,i,1.0,True,1606.8000000715256,97.0,60.0,40.0,False,,213.27046656627016,[],"[840, 525]",ColorTask,10.0,20.0,,,HRV,HRV_0065,2022-11-30 18:04:36
,wl-rdm,28,136568,0.0-6.20-0.20,0.0,28.0,,,,,,,[],,,,,,73.6,0.0,u,0.0,True,1255.6000000238419,76.0,60.0,40.0,False,,238.960897911139,[],"[840, 525]",ColorTask,11.0,21.0,,,HRV,HRV_0065,2022-11-30 18:04:36
,wl-rdm,29,138956,0.0-6.21-0.21,0.0,29.0,,,,,,,[],,,,,,56.4,1.0,i,1.0,True,1050.0999999046326,63.0,60.0,40.0,False,,286.22653618191805,[],"[840, 525]",ColorTask,12.0,22.0,,,HRV,HRV_0065,2022-11-30 18:04:36
,wl-rdm,30,141780,0.0-6.22-0.22,0.0,30.0,,,,,,,[],,,,,,62.5,1.0,i,1.0,True,1526.6000000238419,92.0,60.0,40.0,False,,227.07590963765935,[],"[840, 525]",ColorTask,13.0,23.0,,,HRV,HRV_0065,2022-11-30 18:04:36
,wl-rdm,31,145185,0.0-6.23-0.23,0.0,31.0,,,,,,,[],,,,,,53.2,1.0,i,1.0,True,2077.100000023842,125.0,60.0,40.0,False,,265.97988671971655,[],"[840, 525]",ColorTask,14.0,24.0,,,HRV,HRV_0065,2022-11-30 18:04:36
,wl-rdm,32,147557,0.0-6.24-0.24,0.0,32.0,,,,,,,[],,,,,,53.2,1.0,i,1.0,True,997.1999999284744,60.0,60.0,40.0,False,,305.329012921757,[],"[840, 525]",ColorTask,15.0,25.0,,,HRV,HRV_0065,2022-11-30 18:04:36
,wl-rdm,33,149912,0.0-6.25-0.25,0.0,33.0,,,,,,,[],,,,,,62.5,1.0,i,1.0,True,1034.7999999523163,62.0,60.0,40.0,False,,251.61907699647844,[],"[840, 525]",ColorTask,16.0,26.0,,,HRV,HRV_0065,2022-11-30 18:04:36
,wl-rdm,34,152350,0.0-6.26-0.26,0.0,34.0,,,,,,,[],,,,,,73.6,1.0,i,1.0,True,1042.1000000238419,63.0,60.0,40.0,False,,322.8050519600429,[],"[840, 525]",ColorTask,17.0,27.0,,,HRV,HRV_0065,2022-11-30 18:04:36
,wl-rdm,35,155088,0.0-6.27-0.27,0.0,35.0,,,,,,,[],,,,,,62.5,1.0,i,1.0,True,1456.0,88.0,60.0,40.0,False,,215.92295168468053,[],"[840, 525]",ColorTask,18.0,28.0,,,HRV,HRV_0065,2022-11-30 18:04:36
,wl-rdm,36,157928,0.0-6.28-0.28,0.0,36.0,,,,,,,[],,,,,,53.2,0.0,i,1.0,False,1544.8999999761581,93.0,60.0,40.0,False,,221.5499321116401,[],"[840, 525]",ColorTask,17.0,29.0,,,HRV,HRV_0065,2022-11-30 18:04:36
,wl-rdm,37,160331,0.0-6.29-0.29,0.0,37.0,,,,,,,[],,,,,,53.2,0.0,u,0.0,True,1122.2000000476837,68.0,60.0,40.0,False,,212.3598457647181,[],"[840, 525]",ColorTask,18.0,30.0,,,HRV,HRV_0065,2022-11-30 18:04:36
,wl-rdm,38,162936,0.0-6.30-0.30,0.0,38.0,,,,,,,[],,,,,,53.2,1.0,i,1.0,True,1322.7999999523163,80.0,60.0,40.0,False,,210.99246684646482,[],"[840, 525]",ColorTask,19.0,31.0,,,HRV,HRV_0065,2022-11-30 18:04:36
,wl-rdm,39,164991,0.0-6.31-0.31,0.0,39.0,,,,,,,[],,,,,,73.6,0.0,u,0.0,True,713.6000000238419,43.0,60.0,40.0,False,,277.56755281663345,[],"[840, 525]",ColorTask,20.0,32.0,,,HRV,HRV_0065,2022-11-30 18:04:36
,wl-rdm,40,167563,0.0-6.32-0.32,0.0,40.0,,,,,,,[],,,,,,62.5,1.0,i,1.0,True,1185.2999999523163,71.0,60.0,40.0,False,,321.58117455401543,[],"[840, 525]",ColorTask,21.0,33.0,,,HRV,HRV_0065,2022-11-30 18:04:36
,wl-rdm,41,170068,0.0-6.33-0.33,0.0,41.0,,,,,,,[],,,,,,62.5,1.0,i,1.0,True,1204.8999999761581,73.0,60.0,40.0,False,,225.2267866616364,[],"[840, 525]",ColorTask,22.0,34.0,,,HRV,HRV_0065,2022-11-30 18:04:36
,wl-rdm,42,172738,0.0-6.34-0.34,0.0,42.0,,,,,,,[],,,,,,62.5,1.0,i,1.0,True,1394.0,84.0,60.0,40.0,False,,208.04101744523652,[],"[840, 525]",ColorTask,23.0,35.0,,,HRV,HRV_0065,2022-11-30 18:04:36
,wl-rdm,43,175277,0.0-6.35-0.35,0.0,43.0,,,,,,,[],,,,,,53.2,1.0,u,0.0,False,1241.5,75.0,60.0,40.0,False,,218.00944381945098,[],"[840, 525]",ColorTask,22.0,36.0,,,HRV,HRV_0065,2022-11-30 18:04:36
,wl-rdm,44,178082,0.0-6.36-0.36,0.0,44.0,,,,,,,[],,,,,,56.4,1.0,i,1.0,True,1440.0,87.0,60.0,40.0,False,,284.72495702615896,[],"[840, 525]",ColorTask,23.0,37.0,,,HRV,HRV_0065,2022-11-30 18:04:36
,wl-rdm,45,180254,0.0-6.37-0.37,0.0,45.0,,,,,,,[],,,,,,87.9,1.0,i,1.0,True,713.5,43.0,60.0,40.0,False,,399.26053572873116,[],"[840, 525]",ColorTask,24.0,38.0,,,HRV,HRV_0065,2022-11-30 18:04:36
,wl-rdm,46,182474,0.0-6.38-0.38,0.0,46.0,,,,,,,[],,,,,,73.6,0.0,u,0.0,True,901.3000000715256,54.0,60.0,40.0,False,,254.0854692034887,[],"[840, 525]",ColorTask,25.0,39.0,,,HRV,HRV_0065,2022-11-30 18:04:36
,wl-rdm,47,186499,0.0-6.39-0.39,0.0,47.0,,,,,,,[],,,,,,50.0,1.0,u,0.0,False,2560.1999999284744,154.0,60.0,40.0,False,,387.1918592750968,[],"[840, 525]",ColorTask,24.0,40.0,,,HRV,HRV_0065,2022-11-30 18:04:36
,wl-rdm,48,189137,0.0-6.40-0.40,0.0,48.0,,,,,,,[],,,,,,50.0,1.0,i,1.0,True,1369.2000000476837,82.0,60.0,40.0,False,,208.1425652562425,[],"[840, 525]",ColorTask,25.0,41.0,,,HRV,HRV_0065,2022-11-30 18:04:36
,wl-rdm,49,191391,0.0-6.41-0.41,0.0,49.0,,,,,,,[],,,,,,73.6,0.0,u,0.0,True,909.7999999523163,55.0,60.0,40.0,False,,277.61176995468725,[],"[840, 525]",ColorTask,26.0,42.0,,,HRV,HRV_0065,2022-11-30 18:04:36
,wl-rdm,50,195299,0.0-6.42-0.42,0.0,50.0,,,,,,,[],,,,,,50.0,1.0,i,1.0,True,2599.2000000476837,156.0,60.0,40.0,False,,235.81733163721768,[],"[840, 525]",ColorTask,27.0,43.0,,,HRV,HRV_0065,2022-11-30 18:04:36
,wl-rdm,51,197403,0.0-6.43-0.43,0.0,51.0,,,,,,,[],,,,,,62.5,0.0,u,0.0,True,775.0,47.0,60.0,40.0,False,,250.79566116496184,[],"[840, 525]",ColorTask,28.0,44.0,,,HRV,HRV_0065,2022-11-30 18:04:36
,wl-rdm,52,200977,0.0-6.44-0.44,0.0,52.0,,,,,,,[],,,,,,53.2,0.0,u,0.0,True,2247.600000023842,135.0,60.0,40.0,False,,273.9398972325112,[],"[840, 525]",ColorTask,29.0,45.0,,,HRV,HRV_0065,2022-11-30 18:04:36
,wl-rdm,53,203081,0.0-6.45-0.45,0.0,53.0,,,,,,,[],,,,,,50.0,0.0,u,0.0,True,789.0,48.0,60.0,40.0,False,,225.32907921814842,[],"[840, 525]",ColorTask,30.0,46.0,,,HRV,HRV_0065,2022-11-30 18:04:36
,wl-rdm,54,205201,0.0-6.46-0.46,0.0,54.0,,,,,,,[],,,,,,62.5,1.0,i,1.0,True,741.7000000476837,45.0,60.0,40.0,False,,308.20215342527246,[],"[840, 525]",ColorTask,31.0,47.0,,,HRV,HRV_0065,2022-11-30 18:04:36
,wl-rdm,55,207294,0.0-6.47-0.47,0.0,55.0,,,,,,,[],,,,,,87.9,1.0,i,1.0,True,791.1999999284744,48.0,60.0,40.0,False,,223.68007139725938,[],"[840, 525]",ColorTask,32.0,48.0,,,HRV,HRV_0065,2022-11-30 18:04:36
,wl-rdm,56,209894,0.0-6.48-0.48,0.0,56.0,,,,,,,[],,,,,,62.5,0.0,u,0.0,True,1282.8999999761581,77.0,60.0,40.0,False,,251.7785281244921,[],"[840, 525]",ColorTask,33.0,49.0,,,HRV,HRV_0065,2022-11-30 18:04:36
,wl-rdm,57,212115,0.0-6.49-0.49,0.0,57.0,,,,,,,[],,,,,,73.6,0.0,u,0.0,True,873.3000000715256,53.0,60.0,40.0,False,,278.8806866711751,[],"[840, 525]",ColorTask,34.0,50.0,,,HRV,HRV_0065,2022-11-30 18:04:36
,wl-rdm,58,214220,0.0-6.50-0.50,0.0,58.0,,,,,,,[],,,,,,87.9,1.0,i,1.0,True,709.3000000715256,43.0,60.0,40.0,False,,322.7890070241093,[],"[840, 525]",ColorTask,35.0,51.0,,,HRV,HRV_0065,2022-11-30 18:04:36
,wl-rdm,59,216439,0.0-6.51-0.51,0.0,59.0,,,,,,,[],,,,,,73.6,1.0,i,1.0,True,881.0,53.0,60.0,40.0,False,,279.3462299415054,[],"[840, 525]",ColorTask,36.0,52.0,,,HRV,HRV_0065,2022-11-30 18:04:36
,wl-rdm,60,219612,0.0-6.52-0.52,0.0,60.0,,,,,,,[],,,,,,50.0,1.0,u,0.0,False,1807.0,109.0,60.0,40.0,False,,295.335546870207,[],"[840, 525]",ColorTask,35.0,53.0,,,HRV,HRV_0065,2022-11-30 18:04:36
,wl-rdm,61,222084,0.0-6.53-0.53,0.0,61.0,,,,,,,[],,,,,,50.0,0.0,u,0.0,True,1096.1000000238419,66.0,60.0,40.0,False,,314.61555439947057,[],"[840, 525]",ColorTask,36.0,54.0,,,HRV,HRV_0065,2022-11-30 18:04:36
,wl-rdm,62,224539,0.0-6.54-0.54,0.0,62.0,,,,,,,[],,,,,,53.2,0.0,u,0.0,True,1035.8000000715256,62.0,60.0,40.0,False,,365.2241747692468,[],"[840, 525]",ColorTask,37.0,55.0,,,HRV,HRV_0065,2022-11-30 18:04:36
,wl-rdm,63,227394,0.0-6.55-0.55,0.0,63.0,,,,,,,[],,,,,,50.0,0.0,u,0.0,True,1483.3999999761581,89.0,60.0,40.0,False,,331.71028051251767,[],"[840, 525]",ColorTask,38.0,56.0,,,HRV,HRV_0065,2022-11-30 18:04:36
,wl-rdm,64,229516,0.0-6.56-0.56,0.0,64.0,,,,,,,[],,,,,,87.9,0.0,u,0.0,True,822.2000000476837,50.0,60.0,40.0,False,,219.1999847847617,[],"[840, 525]",ColorTask,39.0,57.0,,,HRV,HRV_0065,2022-11-30 18:04:36
,wl-rdm,65,232204,0.0-6.57-0.57,0.0,65.0,,,,,,,[],,,,,,56.4,0.0,u,0.0,True,1268.8999999761581,76.0,60.0,40.0,False,,361.0377420725597,[],"[840, 525]",ColorTask,40.0,58.0,,,HRV,HRV_0065,2022-11-30 18:04:36
,wl-rdm,66,234291,0.0-6.58-0.58,0.0,66.0,,,,,,,[],,,,,,87.9,1.0,i,1.0,True,777.5,47.0,60.0,40.0,False,,238.08339853088486,[],"[840, 525]",ColorTask,41.0,59.0,,,HRV,HRV_0065,2022-11-30 18:04:36
,wl-rdm,67,236428,0.0-6.59-0.59,0.0,67.0,,,,,,,[],,,,,,87.9,0.0,u,0.0,True,838.3999999761581,51.0,60.0,40.0,False,,227.77128218285839,[],"[840, 525]",ColorTask,42.0,60.0,,,HRV,HRV_0065,2022-11-30 18:04:36
,wl-rdm,68,238967,0.0-6.60-0.60,0.0,68.0,,,,,,,[],,,,,,53.2,1.0,i,1.0,True,1231.2000000476837,74.0,60.0,40.0,False,,241.47929514583578,[],"[840, 525]",ColorTask,43.0,61.0,,,HRV,HRV_0065,2022-11-30 18:04:36
,wl-rdm,69,242106,0.0-6.61-0.61,0.0,69.0,,,,,,,[],,,,,,56.4,0.0,u,0.0,True,1757.7999999523163,106.0,60.0,40.0,False,,302.4996861170395,[],"[840, 525]",ColorTask,44.0,62.0,,,HRV,HRV_0065,2022-11-30 18:04:36
,wl-rdm,70,244544,0.0-6.62-0.62,0.0,70.0,,,,,,,[],,,,,,53.2,1.0,i,1.0,True,1140.1999999284744,69.0,60.0,40.0,False,,228.78754737534683,[],"[840, 525]",ColorTask,45.0,63.0,,,HRV,HRV_0065,2022-11-30 18:04:36
,wl-rdm,71,247400,0.0-6.63-0.63,0.0,71.0,,,,,,,[],,,,,,56.4,0.0,u,0.0,True,1541.7999999523163,93.0,60.0,40.0,False,,240.81478422988545,[],"[840, 525]",ColorTask,46.0,64.0,,,HRV,HRV_0065,2022-11-30 18:04:36
,wl-rdm,72,249687,0.0-6.64-0.64,0.0,72.0,,,,,,,[],,,,,,56.4,1.0,i,1.0,True,938.6000000238419,57.0,60.0,40.0,False,,268.54002463856256,[],"[840, 525]",ColorTask,47.0,65.0,,,HRV,HRV_0065,2022-11-30 18:04:36
,wl-rdm,73,251808,0.0-6.65-0.65,0.0,73.0,,,,,,,[],,,,,,50.0,1.0,u,0.0,False,824.7000000476837,50.0,60.0,40.0,False,,214.4167050636444,[],"[840, 525]",ColorTask,46.0,66.0,,,HRV,HRV_0065,2022-11-30 18:04:36
,wl-rdm,74,253945,0.0-6.66-0.66,0.0,74.0,,,,,,,[],,,,,,73.6,1.0,i,1.0,True,822.5,50.0,60.0,40.0,False,,235.5957174498355,[],"[840, 525]",ColorTask,47.0,67.0,,,HRV,HRV_0065,2022-11-30 18:04:36
,wl-rdm,75,256100,0.0-6.67-0.67,0.0,75.0,,,,,,,[],,,,,,62.5,0.0,u,0.0,True,755.8999999761581,46.0,60.0,40.0,False,,329.4105495922416,[],"[840, 525]",ColorTask,48.0,68.0,,,HRV,HRV_0065,2022-11-30 18:04:36
,wl-rdm,76,258354,0.0-6.68-0.68,0.0,76.0,,,,,,,[],,,,,,73.6,1.0,i,1.0,True,959.0,58.0,60.0,40.0,False,,228.3344733374291,[],"[840, 525]",ColorTask,49.0,69.0,,,HRV,HRV_0065,2022-11-30 18:04:36
,wl-rdm,77,260858,0.0-6.69-0.69,0.0,77.0,,,,,,,[],,,,,,73.6,1.0,i,1.0,True,1182.6000000238419,71.0,60.0,40.0,False,,254.91542996494562,[],"[840, 525]",ColorTask,50.0,70.0,,,HRV,HRV_0065,2022-11-30 18:04:36
,wl-rdm,78,262829,0.0-6.70-0.70,0.0,78.0,,,,,,,[],,,,,,87.9,1.0,i,1.0,True,622.2000000476837,38.0,60.0,40.0,False,,276.21652165237685,[],"[840, 525]",ColorTask,51.0,71.0,,,HRV,HRV_0065,2022-11-30 18:04:36
,wl-rdm,79,264949,0.0-6.71-0.71,0.0,79.0,,,,,,,[],,,,,,50.0,1.0,i,1.0,True,841.7999999523163,51.0,60.0,40.0,False,,212.96989174346746,[],"[840, 525]",ColorTask,52.0,72.0,,,HRV,HRV_0065,2022-11-30 18:04:36
,wl-rdm,80,266970,0.0-6.72-0.72,0.0,80.0,,,,,,,[],,,,,,87.9,0.0,u,0.0,True,676.6999999284744,41.0,60.0,40.0,False,,279.39009087261286,[],"[840, 525]",ColorTask,53.0,73.0,,,HRV,HRV_0065,2022-11-30 18:04:36
,wl-rdm,81,269575,0.0-6.73-0.73,0.0,81.0,,,,,,,[],,,,,,53.2,1.0,u,0.0,False,1212.0999999046326,73.0,60.0,40.0,False,,348.16922803812383,[],"[840, 525]",ColorTask,52.0,74.0,,,HRV,HRV_0065,2022-11-30 18:04:36
,wl-rdm,82,273533,0.0-6.74-0.74,0.0,82.0,,,,,,,[],,,,,,53.2,1.0,i,1.0,True,2625.7999999523163,158.0,60.0,40.0,False,,251.73736632897152,[],"[840, 525]",ColorTask,53.0,75.0,,,HRV,HRV_0065,2022-11-30 18:04:36
,wl-rdm,83,275804,0.0-6.75-0.75,0.0,83.0,,,,,,,[],,,,,,87.9,0.0,u,0.0,True,883.5,53.0,60.0,40.0,False,,320.7779763006658,[],"[840, 525]",ColorTask,54.0,76.0,,,HRV,HRV_0065,2022-11-30 18:04:36
,wl-rdm,84,277959,0.0-6.76-0.76,0.0,84.0,,,,,,,[],,,,,,62.5,0.0,u,0.0,True,779.1999999284744,47.0,60.0,40.0,False,,313.2067826568748,[],"[840, 525]",ColorTask,55.0,77.0,,,HRV,HRV_0065,2022-11-30 18:04:36
,wl-rdm,85,279995,0.0-6.77-0.77,0.0,85.0,,,,,,,[],,,,,,87.9,1.0,i,1.0,True,649.5999999046326,39.0,60.0,40.0,False,,321.64702092264895,[],"[840, 525]",ColorTask,56.0,78.0,,,HRV,HRV_0065,2022-11-30 18:04:36
,wl-rdm,86,281999,0.0-6.78-0.78,0.0,86.0,,,,,,,[],,,,,,87.9,0.0,u,0.0,True,571.5,35.0,60.0,40.0,False,,379.68872332583703,[],"[840, 525]",ColorTask,57.0,79.0,,,HRV,HRV_0065,2022-11-30 18:04:36
,wl-rdm,87,285539,0.0-6.79-0.79,0.0,87.0,,,,,,,[],,,,,,56.4,1.0,i,1.0,True,2150.7000000476837,129.0,60.0,40.0,False,,322.98301501987356,[],"[840, 525]",ColorTask,58.0,80.0,,,HRV,HRV_0065,2022-11-30 18:04:36
,wl-rdm,88,287543,0.0-6.80-0.80,0.0,88.0,,,,,,,[],,,,,,62.5,1.0,i,1.0,True,722.1000000238419,44.0,60.0,40.0,False,,203.5208874362615,[],"[840, 525]",ColorTask,59.0,81.0,,,HRV,HRV_0065,2022-11-30 18:04:36
,wl-rdm,89,289964,0.0-6.81-0.81,0.0,89.0,,,,,,,[],,,,,,62.5,0.0,u,0.0,True,999.5,60.0,60.0,40.0,False,,355.63884949527056,[],"[840, 525]",ColorTask,60.0,82.0,,,HRV,HRV_0065,2022-11-30 18:04:36
,wl-rdm,90,292168,0.0-6.82-0.82,0.0,90.0,,,,,,,[],,,,,,73.6,0.0,u,0.0,True,917.2000000476837,55.0,60.0,40.0,False,,230.34625452424294,[],"[840, 525]",ColorTask,61.0,83.0,,,HRV,HRV_0065,2022-11-30 18:04:36
,wl-rdm,91,294273,0.0-6.83-0.83,0.0,91.0,,,,,,,[],,,,,,56.4,1.0,i,1.0,True,850.2000000476837,51.0,60.0,40.0,False,,202.7094477499228,[],"[840, 525]",ColorTask,62.0,84.0,,,HRV,HRV_0065,2022-11-30 18:04:36
,wl-rdm,92,296694,0.0-6.84-0.84,0.0,92.0,,,,,,,[],,,,,,73.6,1.0,i,1.0,True,1046.5999999046326,63.0,60.0,40.0,False,,311.7888561165227,[],"[840, 525]",ColorTask,63.0,85.0,,,HRV,HRV_0065,2022-11-30 18:04:36
,wl-rdm,93,299148,0.0-6.85-0.85,0.0,93.0,,,,,,,[],,,,,,56.4,0.0,u,0.0,True,1072.6000000238419,65.0,60.0,40.0,False,,301.59035316402384,[],"[840, 525]",ColorTask,64.0,86.0,,,HRV,HRV_0065,2022-11-30 18:04:36
,wl-rdm,94,301722,0.0-6.86-0.86,0.0,94.0,,,,,,,[],,,,,,73.6,1.0,i,1.0,True,1231.6999999284744,74.0,60.0,40.0,False,,296.60012176699297,[],"[840, 525]",ColorTask,65.0,87.0,,,HRV,HRV_0065,2022-11-30 18:04:36
,wl-rdm,95,303641,0.0-6.87-0.87,0.0,95.0,,,,,,,[],,,,,,87.9,0.0,u,0.0,True,574.5,35.0,60.0,40.0,False,,277.0497835573419,[],"[840, 525]",ColorTask,66.0,88.0,,,HRV,HRV_0065,2022-11-30 18:04:36
,wl-rdm,96,307783,0.0-6.88-0.88,0.0,96.0,,,,,,,[],,,,,,50.0,0.0,u,0.0,True,2843.5,171.0,60.0,40.0,False,,216.27425402800776,[],"[840, 525]",ColorTask,67.0,89.0,,,HRV,HRV_0065,2022-11-30 18:04:36
,wl-rdm,97,310337,0.0-6.89-0.89,0.0,97.0,,,,,,,[],,,,,,56.4,0.0,u,0.0,True,1126.2000000476837,68.0,60.0,40.0,False,,358.3786325917547,[],"[840, 525]",ColorTask,68.0,90.0,,,HRV,HRV_0065,2022-11-30 18:04:36
,wl-rdm,98,312509,0.0-6.90-0.90,0.0,98.0,,,,,,,[],,,,,,87.9,0.0,u,0.0,True,733.5,44.0,60.0,40.0,False,,359.99607409228184,[],"[840, 525]",ColorTask,69.0,91.0,,,HRV,HRV_0065,2022-11-30 18:04:36
,wl-rdm,99,314879,0.0-6.91-0.91,0.0,99.0,,,,,,,[],,,,,,62.5,0.0,u,0.0,True,975.0999999046326,59.0,60.0,40.0,False,,322.10624950553296,[],"[840, 525]",ColorTask,70.0,92.0,,,HRV,HRV_0065,2022-11-30 18:04:36
,wl-rdm,100,317252,0.0-6.92-0.92,0.0,100.0,,,,,,,[],,,,,,53.2,1.0,u,0.0,False,990.0,60.0,60.0,40.0,False,,303.9469883678802,[],"[840, 525]",ColorTask,69.0,93.0,,,HRV,HRV_0065,2022-11-30 18:04:36
,wl-rdm,101,320742,0.0-6.93-0.93,0.0,101.0,,,,,,,[],,,,,,56.4,1.0,i,1.0,True,2074.899999976158,125.0,60.0,40.0,False,,344.4728898444634,[],"[840, 525]",ColorTask,70.0,94.0,,,HRV,HRV_0065,2022-11-30 18:04:36
,wl-rdm,102,322662,0.0-6.94-0.94,0.0,102.0,,,,,,,[],,,,,,73.6,0.0,u,0.0,True,650.3999999761581,39.0,60.0,40.0,False,,207.38195546177514,[],"[840, 525]",ColorTask,71.0,95.0,,,HRV,HRV_0065,2022-11-30 18:04:36
,wl-rdm,103,324782,0.0-6.95-0.95,0.0,103.0,,,,,,,[],,,,,,87.9,1.0,i,1.0,True,764.8999999761581,46.0,60.0,40.0,False,,292.7113534027617,[],"[840, 525]",ColorTask,72.0,96.0,,,HRV,HRV_0065,2022-11-30 18:04:36
,wl-rdm,104,327321,0.0-6.96-0.96,0.0,104.0,,,,,,,[],,,,,,56.4,0.0,u,0.0,True,1097.0,66.0,60.0,40.0,False,,372.9836637696218,[],"[840, 525]",ColorTask,73.0,97.0,,,HRV,HRV_0065,2022-11-30 18:04:36
,wl-rdm,105,330159,0.0-6.97-0.97,0.0,105.0,,,,,,,[],,,,,,53.2,0.0,u,0.0,True,1440.5,87.0,60.0,40.0,False,,327.92443463417715,[],"[840, 525]",ColorTask,74.0,98.0,,,HRV,HRV_0065,2022-11-30 18:04:36
,wl-rdm,106,334134,0.0-6.98-0.98,0.0,106.0,,,,,,,[],,,,,,56.4,1.0,i,1.0,True,2625.0,158.0,60.0,40.0,False,,270.3788698196434,[],"[840, 525]",ColorTask,75.0,99.0,,,HRV,HRV_0065,2022-11-30 18:04:36
,wl-rdm,107,338225,0.0-6.99-0.99,0.0,107.0,,,,,,,[],,,,,,50.0,0.0,i,1.0,False,2635.8000000715256,158.0,60.0,40.0,False,,384.84773381840216,[],"[840, 525]",ColorTask,74.0,100.0,,,HRV,HRV_0065,2022-11-30 18:04:36
,wl-rdm,108,340764,0.0-6.100-0.100,0.0,108.0,,,,,,,[],,,,,,53.2,0.0,u,0.0,True,1107.0,67.0,60.0,40.0,False,,353.8084777152991,[],"[840, 525]",ColorTask,75.0,101.0,,,HRV,HRV_0065,2022-11-30 18:04:36
,wl-rdm,109,344286,0.0-6.101-0.101,0.0,109.0,,,,,,,[],,,,,,56.4,0.0,u,0.0,True,2118.5,127.0,60.0,40.0,False,,351.94073131555524,[],"[840, 525]",ColorTask,76.0,102.0,,,HRV,HRV_0065,2022-11-30 18:04:36
,wl-rdm,110,346692,0.0-6.102-0.102,0.0,110.0,,,,,,,[],,,,,,50.0,0.0,i,1.0,False,940.7000000476837,57.0,60.0,40.0,False,,395.36661099412277,[],"[840, 525]",ColorTask,75.0,103.0,,,HRV,HRV_0065,2022-11-30 18:04:36
,wl-rdm,111,349162,0.0-6.103-0.103,0.0,111.0,,,,,,,[],,,,,,56.4,0.0,u,0.0,True,1160.2999999523163,70.0,60.0,40.0,False,,240.26534487389947,[],"[840, 525]",ColorTask,76.0,104.0,,,HRV,HRV_0065,2022-11-30 18:04:36
,wl-rdm,112,353539,0.0-6.104-0.104,0.0,111.0,,,,,,,[],,,,,,50.0,0.0,,,,,179.0,60.0,40.0,True,RT_timeout ,297.8404356252352,[],"[840, 525]",ColorTask,75.0,105.0,,,HRV,HRV_0065,2022-11-30 18:04:36
,wl-rdm,113,356995,0.0-6.105-0.105,0.0,112.0,,,,,,,[],,,,,,50.0,1.0,i,1.0,True,2078.899999976158,125.0,60.0,40.0,False,,310.8499393425866,[],"[840, 525]",ColorTask,76.0,106.0,,,HRV,HRV_0065,2022-11-30 18:04:36
,wl-rdm,114,359132,0.0-6.106-0.106,0.0,113.0,,,,,,,[],,,,,,62.5,0.0,u,0.0,True,832.3999999761581,50.0,60.0,40.0,False,,236.80858462234698,[],"[840, 525]",ColorTask,77.0,107.0,,,HRV,HRV_0065,2022-11-30 18:04:36
,wl-rdm,115,362522,0.0-6.107-0.107,0.0,114.0,,,,,,,[],,,,,,50.0,0.0,i,1.0,False,2103.7999999523163,126.0,60.0,40.0,False,,222.77883020251863,[],"[840, 525]",ColorTask,76.0,108.0,,,HRV,HRV_0065,2022-11-30 18:04:36
,wl-rdm,116,364809,0.0-6.108-0.108,0.0,115.0,,,,,,,[],,,,,,87.9,0.0,u,0.0,True,923.7000000476837,56.0,60.0,40.0,False,,284.7061968545448,[],"[840, 525]",ColorTask,77.0,109.0,,,HRV,HRV_0065,2022-11-30 18:04:36
,wl-rdm,117,367915,0.0-6.109-0.109,0.0,116.0,,,,,,,[],,,,,,50.0,0.0,i,1.0,False,1726.8999999761581,104.0,60.0,40.0,False,,300.3085793474561,[],"[840, 525]",ColorTask,76.0,110.0,,,HRV,HRV_0065,2022-11-30 18:04:36
,wl-html-keyboard-response,118,393076,0.0-7.0-0.0,1.0,117.0,,,,,,,,23155.099999904633,1.0,0,,,,,,,,,,,,,,,,,,,,,,HRV,HRV_0065,2022-11-30 18:04:36
,wl-rdm,119,395803,0.0-8.0-0.0,1.0,118.0,,,,,,,[],,,,,,56.4,1.0,i,1.0,True,1317.1000000238419,79.0,60.0,40.0,False,,358.57204807705455,[],"[840, 525]",ColorTask,77.0,1.0,,,HRV,HRV_0065,2022-11-30 18:04:36
,wl-rdm,120,398258,0.0-8.1-0.1,1.0,119.0,,,,,,,[],,,,,,56.4,1.0,i,1.0,True,1089.6999999284744,66.0,60.0,40.0,False,,299.0841372597049,[],"[840, 525]",ColorTask,78.0,2.0,,,HRV,HRV_0065,2022-11-30 18:04:36
,wl-rdm,121,400579,0.0-8.2-0.2,1.0,120.0,,,,,,,[],,,,,,73.6,0.0,u,0.0,True,871.5,53.0,60.0,40.0,False,,383.8343720611124,[],"[840, 525]",ColorTask,79.0,3.0,,,HRV,HRV_0065,2022-11-30 18:04:36
,wl-rdm,122,402900,0.0-8.3-0.3,1.0,121.0,,,,,,,[],,,,,,53.2,0.0,i,1.0,False,992.2999999523163,60.0,60.0,40.0,False,,254.17452383967426,[],"[840, 525]",ColorTask,78.0,4.0,,,HRV,HRV_0065,2022-11-30 18:04:36
,wl-rdm,123,404904,0.0-8.4-0.4,1.0,122.0,,,,,,,[],,,,,,73.6,0.0,u,0.0,True,714.2999999523163,43.0,60.0,40.0,False,,229.37843778509912,[],"[840, 525]",ColorTask,79.0,5.0,,,HRV,HRV_0065,2022-11-30 18:04:36
,wl-rdm,124,408111,0.0-8.5-0.5,1.0,123.0,,,,,,,[],,,,,,56.4,1.0,i,1.0,True,1839.5,111.0,60.0,40.0,False,,299.4580412388874,[],"[840, 525]",ColorTask,80.0,6.0,,,HRV,HRV_0065,2022-11-30 18:04:36
,wl-rdm,125,410114,0.0-8.6-0.6,1.0,124.0,,,,,,,[],,,,,,87.9,1.0,i,1.0,True,548.7000000476837,33.0,60.0,40.0,False,,390.4895559650563,[],"[840, 525]",ColorTask,81.0,7.0,,,HRV,HRV_0065,2022-11-30 18:04:36
,wl-rdm,126,412401,0.0-8.7-0.7,1.0,125.0,,,,,,,[],,,,,,50.0,0.0,u,0.0,True,1012.7000000476837,61.0,60.0,40.0,False,,200.77531033068394,[],"[840, 525]",ColorTask,82.0,8.0,,,HRV,HRV_0065,2022-11-30 18:04:36
,wl-rdm,127,415675,0.0-8.8-0.8,1.0,126.0,,,,,,,[],,,,,,53.2,1.0,i,1.0,True,1846.2999999523163,111.0,60.0,40.0,False,,361.3785064192368,[],"[840, 525]",ColorTask,83.0,9.0,,,HRV,HRV_0065,2022-11-30 18:04:36
,wl-rdm,128,417896,0.0-8.9-0.9,1.0,127.0,,,,,,,[],,,,,,56.4,1.0,i,1.0,True,857.1999999284744,52.0,60.0,40.0,False,,298.9836930776539,[],"[840, 525]",ColorTask,84.0,10.0,,,HRV,HRV_0065,2022-11-30 18:04:36
,wl-rdm,129,419849,0.0-8.10-0.10,1.0,128.0,,,,,,,[],,,,,,87.9,1.0,i,1.0,True,682.5,41.0,60.0,40.0,False,,222.46149078507776,[],"[840, 525]",ColorTask,85.0,11.0,,,HRV,HRV_0065,2022-11-30 18:04:36
,wl-rdm,130,422639,0.0-8.11-0.11,1.0,129.0,,,,,,,[],,,,,,53.2,0.0,u,0.0,True,1507.0,91.0,60.0,40.0,False,,214.55084912394196,[],"[840, 525]",ColorTask,86.0,12.0,,,HRV,HRV_0065,2022-11-30 18:04:36
,wl-rdm,131,424575,0.0-8.12-0.12,1.0,130.0,,,,,,,[],,,,,,87.9,0.0,u,0.0,True,638.8999999761581,39.0,60.0,40.0,False,,210.25566202832934,[],"[840, 525]",ColorTask,87.0,13.0,,,HRV,HRV_0065,2022-11-30 18:04:36
,wl-rdm,132,427331,0.0-8.13-0.13,1.0,131.0,,,,,,,[],,,,,,56.4,1.0,i,1.0,True,1394.0000001192093,84.0,60.0,40.0,False,,283.99145595737775,[],"[840, 525]",ColorTask,88.0,14.0,,,HRV,HRV_0065,2022-11-30 18:04:36
,wl-rdm,133,429368,0.0-8.14-0.14,1.0,132.0,,,,,,,[],,,,,,62.5,0.0,u,0.0,True,704.7000000476837,43.0,60.0,40.0,False,,264.30951284151723,[],"[840, 525]",ColorTask,89.0,15.0,,,HRV,HRV_0065,2022-11-30 18:04:36
,wl-rdm,134,431455,0.0-8.15-0.15,1.0,133.0,,,,,,,[],,,,,,87.9,1.0,i,1.0,True,707.3999999761581,43.0,60.0,40.0,False,,303.16753277723984,[],"[840, 525]",ColorTask,90.0,16.0,,,HRV,HRV_0065,2022-11-30 18:04:36
,wl-rdm,135,435028,0.0-8.16-0.16,1.0,134.0,,,,,,,[],,,,,,56.4,0.0,i,1.0,False,2181.0,131.0,60.0,40.0,False,,324.7166609524549,[],"[840, 525]",ColorTask,89.0,17.0,,,HRV,HRV_0065,2022-11-30 18:04:36
,wl-rdm,136,438068,0.0-8.17-0.17,1.0,135.0,,,,,,,[],,,,,,50.0,1.0,u,0.0,False,1623.7000000476837,98.0,60.0,40.0,False,,354.10213351323864,[],"[840, 525]",ColorTask,88.0,18.0,,,HRV,HRV_0065,2022-11-30 18:04:36
,wl-rdm,137,440289,0.0-8.18-0.18,1.0,136.0,,,,,,,[],,,,,,62.5,1.0,i,1.0,True,947.3999999761581,57.0,60.0,40.0,False,,208.61192641081618,[],"[840, 525]",ColorTask,89.0,19.0,,,HRV,HRV_0065,2022-11-30 18:04:36
,wl-rdm,138,442343,0.0-8.19-0.19,1.0,137.0,,,,,,,[],,,,,,87.9,1.0,i,1.0,True,780.2000000476837,47.0,60.0,40.0,False,,216.35255885223853,[],"[840, 525]",ColorTask,90.0,20.0,,,HRV,HRV_0065,2022-11-30 18:04:36
,wl-rdm,139,444580,0.0-8.20-0.20,1.0,138.0,,,,,,,[],,,,,,56.4,1.0,i,1.0,True,949.0,57.0,60.0,40.0,False,,226.90320861619549,[],"[840, 525]",ColorTask,91.0,21.0,,,HRV,HRV_0065,2022-11-30 18:04:36
,wl-rdm,140,447001,0.0-8.21-0.21,1.0,139.0,,,,,,,[],,,,,,50.0,0.0,i,1.0,False,1089.0,66.0,60.0,40.0,False,,257.7402041685801,[],"[840, 525]",ColorTask,90.0,22.0,,,HRV,HRV_0065,2022-11-30 18:04:36
,wl-rdm,141,449273,0.0-8.22-0.22,1.0,140.0,,,,,,,[],,,,,,50.0,1.0,i,1.0,True,974.0,59.0,60.0,40.0,False,,224.53458912158948,[],"[840, 525]",ColorTask,91.0,23.0,,,HRV,HRV_0065,2022-11-30 18:04:36
,wl-rdm,142,452145,0.0-8.23-0.23,1.0,141.0,,,,,,,[],,,,,,73.6,0.0,u,0.0,True,1417.0,85.0,60.0,40.0,False,,398.451852217375,[],"[840, 525]",ColorTask,92.0,24.0,,,HRV,HRV_0065,2022-11-30 18:04:36
,wl-rdm,143,455284,0.0-8.24-0.24,1.0,142.0,,,,,,,[],,,,,,50.0,0.0,i,1.0,False,1866.7999999523163,112.0,60.0,40.0,False,,201.27673162182253,[],"[840, 525]",ColorTask,91.0,25.0,,,HRV,HRV_0065,2022-11-30 18:04:36
,wl-rdm,144,457506,0.0-8.25-0.25,1.0,143.0,,,,,,,[],,,,,,73.6,0.0,u,0.0,True,890.7000000476837,54.0,60.0,40.0,False,,234.75070304765586,[],"[840, 525]",ColorTask,92.0,26.0,,,HRV,HRV_0065,2022-11-30 18:04:36
,wl-rdm,145,459860,0.0-8.26-0.26,1.0,144.0,,,,,,,[],,,,,,73.6,0.0,u,0.0,True,904.3999999761581,55.0,60.0,40.0,False,,377.31303327928555,[],"[840, 525]",ColorTask,93.0,27.0,,,HRV,HRV_0065,2022-11-30 18:04:36
,wl-rdm,146,463550,0.0-8.27-0.27,1.0,145.0,,,,,,,[],,,,,,53.2,1.0,u,0.0,False,2418.7999999523163,145.0,60.0,40.0,False,,203.8554259325436,[],"[840, 525]",ColorTask,92.0,28.0,,,HRV,HRV_0065,2022-11-30 18:04:36
,wl-rdm,147,466089,0.0-8.28-0.28,1.0,146.0,,,,,,,[],,,,,,87.9,1.0,i,1.0,True,1125.2999999523163,68.0,60.0,40.0,False,,344.81741659939195,[],"[840, 525]",ColorTask,93.0,29.0,,,HRV,HRV_0065,2022-11-30 18:04:36
,wl-rdm,148,468326,0.0-8.29-0.29,1.0,147.0,,,,,,,[],,,,,,73.6,1.0,i,1.0,True,781.1999999284744,47.0,60.0,40.0,False,,392.3432057045943,[],"[840, 525]",ColorTask,94.0,30.0,,,HRV,HRV_0065,2022-11-30 18:04:36
,wl-rdm,149,470531,0.0-8.30-0.30,1.0,148.0,,,,,,,[],,,,,,87.9,0.0,u,0.0,True,761.2999999523163,46.0,60.0,40.0,False,,382.07844855429937,[],"[840, 525]",ColorTask,95.0,31.0,,,HRV,HRV_0065,2022-11-30 18:04:36
,wl-rdm,150,473971,0.0-8.31-0.31,1.0,149.0,,,,,,,[],,,,,,56.4,0.0,i,1.0,False,2142.600000023842,129.0,60.0,40.0,False,,207.81643945883894,[],"[840, 525]",ColorTask,94.0,32.0,,,HRV,HRV_0065,2022-11-30 18:04:36
,wl-rdm,151,477027,0.0-8.32-0.32,1.0,150.0,,,,,,,[],,,,,,50.0,0.0,u,0.0,True,1709.1000000238419,103.0,60.0,40.0,False,,279.5159891910868,[],"[840, 525]",ColorTask,95.0,33.0,,,HRV,HRV_0065,2022-11-30 18:04:36
,wl-rdm,152,480149,0.0-8.33-0.33,1.0,151.0,,,,,,,[],,,,,,50.0,1.0,i,1.0,True,1773.7000000476837,107.0,60.0,40.0,False,,275.9616753800631,[],"[840, 525]",ColorTask,96.0,34.0,,,HRV,HRV_0065,2022-11-30 18:04:36
,wl-rdm,153,483689,0.0-8.34-0.34,1.0,152.0,,,,,,,[],,,,,,50.0,1.0,u,0.0,False,2161.7000000476837,130.0,60.0,40.0,False,,307.8634737615067,[],"[840, 525]",ColorTask,95.0,35.0,,,HRV,HRV_0065,2022-11-30 18:04:36
,wl-rdm,154,486294,0.0-8.35-0.35,1.0,153.0,,,,,,,[],,,,,,62.5,1.0,i,1.0,True,1227.6999999284744,74.0,60.0,40.0,False,,309.9737527471907,[],"[840, 525]",ColorTask,96.0,36.0,,,HRV,HRV_0065,2022-11-30 18:04:36
,wl-rdm,155,488799,0.0-8.36-0.36,1.0,154.0,,,,,,,[],,,,,,62.5,0.0,u,0.0,True,1224.2999999523163,74.0,60.0,40.0,False,,216.03094982013914,[],"[840, 525]",ColorTask,97.0,37.0,,,HRV,HRV_0065,2022-11-30 18:04:36
,wl-rdm,156,491489,0.0-8.37-0.37,1.0,155.0,,,,,,,[],,,,,,50.0,1.0,u,0.0,False,1417.5,85.0,60.0,40.0,False,,206.29462599930156,[],"[840, 525]",ColorTask,96.0,38.0,,,HRV,HRV_0065,2022-11-30 18:04:36
,wl-rdm,157,494627,0.0-8.38-0.38,1.0,156.0,,,,,,,[],,,,,,62.5,1.0,i,1.0,True,1823.5,110.0,60.0,40.0,False,,250.47303105382198,[],"[840, 525]",ColorTask,97.0,39.0,,,HRV,HRV_0065,2022-11-30 18:04:36
,wl-rdm,158,497066,0.0-8.39-0.39,1.0,157.0,,,,,,,[],,,,,,62.5,0.0,u,0.0,True,1118.3999998569489,67.0,60.0,40.0,False,,266.5965797923747,[],"[840, 525]",ColorTask,98.0,40.0,,,HRV,HRV_0065,2022-11-30 18:04:36
,wl-rdm,159,499253,0.0-8.40-0.40,1.0,158.0,,,,,,,[],,,,,,62.5,1.0,i,1.0,True,828.8999999761581,50.0,60.0,40.0,False,,289.4099744525449,[],"[840, 525]",ColorTask,99.0,41.0,,,HRV,HRV_0065,2022-11-30 18:04:36
,wl-rdm,160,503594,0.0-8.41-0.41,1.0,158.0,,,,,,,[],,,,,,50.0,0.0,i,,,3264.6999999284744,179.0,60.0,40.0,True,RT_timeout ,265.8278125969034,[],"[840, 525]",ColorTask,98.0,42.0,,,HRV,HRV_0065,2022-11-30 18:04:36
,wl-rdm,161,506166,0.0-8.42-0.42,1.0,159.0,,,,,,,[],,,,,,73.6,1.0,i,1.0,True,1283.2000000476837,77.0,60.0,40.0,False,,222.5087811158301,[],"[840, 525]",ColorTask,99.0,43.0,,,HRV,HRV_0065,2022-11-30 18:04:36
,wl-rdm,162,509907,0.0-8.43-0.43,1.0,160.0,,,,,,,[],,,,,,53.2,1.0,u,0.0,False,2393.399999976158,144.0,60.0,40.0,False,,269.9026551176981,[],"[840, 525]",ColorTask,98.0,44.0,,,HRV,HRV_0065,2022-11-30 18:04:36
,wl-rdm,163,512294,0.0-8.44-0.44,1.0,161.0,,,,,,,[],,,,,,87.9,1.0,i,1.0,True,1012.7999999523163,61.0,60.0,40.0,False,,303.87042061943794,[],"[840, 525]",ColorTask,99.0,45.0,,,HRV,HRV_0065,2022-11-30 18:04:36
,wl-rdm,164,514850,0.0-8.45-0.45,1.0,162.0,,,,,,,[],,,,,,62.5,1.0,i,1.0,True,1208.0,73.0,60.0,40.0,False,,274.513178910384,[],"[840, 525]",ColorTask,100.0,46.0,,,HRV,HRV_0065,2022-11-30 18:04:36
,wl-rdm,165,518306,0.0-8.46-0.46,1.0,163.0,,,,,,,[],,,,,,50.0,0.0,i,1.0,False,2170.5999999046326,130.0,60.0,40.0,False,,227.4651930446104,[],"[840, 525]",ColorTask,99.0,47.0,,,HRV,HRV_0065,2022-11-30 18:04:36
,wl-rdm,166,520460,0.0-8.47-0.47,1.0,164.0,,,,,,,[],,,,,,73.6,1.0,i,1.0,True,829.0999999046326,50.0,60.0,40.0,False,,262.1870268866941,[],"[840, 525]",ColorTask,100.0,48.0,,,HRV,HRV_0065,2022-11-30 18:04:36
,wl-rdm,167,523967,0.0-8.48-0.48,1.0,165.0,,,,,,,[],,,,,,56.4,0.0,u,0.0,True,2059.0999999046326,124.0,60.0,40.0,False,,373.65378061619583,[],"[840, 525]",ColorTask,101.0,49.0,,,HRV,HRV_0065,2022-11-30 18:04:36
,wl-rdm,168,527476,0.0-8.49-0.49,1.0,166.0,,,,,,,[],,,,,,53.2,0.0,i,1.0,False,2165.0,130.0,60.0,40.0,False,,279.0716447536397,[],"[840, 525]",ColorTask,100.0,50.0,,,HRV,HRV_0065,2022-11-30 18:04:36
,wl-rdm,169,530947,0.0-8.50-0.50,1.0,167.0,,,,,,,[],,,,,,53.2,1.0,i,1.0,True,2127.3000000715256,128.0,60.0,40.0,False,,276.3876662415606,[],"[840, 525]",ColorTask,101.0,51.0,,,HRV,HRV_0065,2022-11-30 18:04:36
,wl-rdm,170,533401,0.0-8.51-0.51,1.0,168.0,,,,,,,[],,,,,,73.6,1.0,i,1.0,True,1046.2000000476837,63.0,60.0,40.0,False,,349.40300435320387,[],"[840, 525]",ColorTask,102.0,52.0,,,HRV,HRV_0065,2022-11-30 18:04:36
,wl-rdm,171,536057,0.0-8.52-0.52,1.0,169.0,,,,,,,[],,,,,,53.2,1.0,u,0.0,False,1326.7000000476837,80.0,60.0,40.0,False,,263.0005447577312,[],"[840, 525]",ColorTask,101.0,53.0,,,HRV,HRV_0065,2022-11-30 18:04:36
,wl-rdm,172,539613,0.0-8.53-0.53,1.0,170.0,,,,,,,[],,,,,,56.4,0.0,u,0.0,True,2211.600000023842,133.0,60.0,40.0,False,,281.0886705366925,[],"[840, 525]",ColorTask,102.0,54.0,,,HRV,HRV_0065,2022-11-30 18:04:36
,wl-rdm,173,543037,0.0-8.54-0.54,1.0,171.0,,,,,,,[],,,,,,53.2,0.0,u,0.0,True,2080.0,125.0,60.0,40.0,False,,278.78177768028434,[],"[840, 525]",ColorTask,103.0,55.0,,,HRV,HRV_0065,2022-11-30 18:04:36
,wl-rdm,174,546060,0.0-8.55-0.55,1.0,172.0,,,,,,,[],,,,,,53.2,0.0,u,0.0,True,1692.7999999523163,102.0,60.0,40.0,False,,250.71125620532018,[],"[840, 525]",ColorTask,104.0,56.0,,,HRV,HRV_0065,2022-11-30 18:04:36
,wl-rdm,175,548464,0.0-8.56-0.56,1.0,173.0,,,,,,,[],,,,,,73.6,1.0,i,1.0,True,1073.1000000238419,65.0,60.0,40.0,False,,265.91775695757667,[],"[840, 525]",ColorTask,105.0,57.0,,,HRV,HRV_0065,2022-11-30 18:04:36
,wl-rdm,176,550919,0.0-8.57-0.57,1.0,174.0,,,,,,,[],,,,,,50.0,1.0,i,1.0,True,1161.0,70.0,60.0,40.0,False,,219.36905854304464,[],"[840, 525]",ColorTask,106.0,58.0,,,HRV,HRV_0065,2022-11-30 18:04:36
,wl-rdm,177,553156,0.0-8.58-0.58,1.0,175.0,,,,,,,[],,,,,,73.6,0.0,u,0.0,True,806.6000000238419,49.0,60.0,40.0,False,,355.5533269568856,[],"[840, 525]",ColorTask,107.0,59.0,,,HRV,HRV_0065,2022-11-30 18:04:36
,wl-rdm,178,555895,0.0-8.59-0.59,1.0,176.0,,,,,,,[],,,,,,62.5,0.0,u,0.0,True,1356.3999998569489,82.0,60.0,40.0,False,,312.8073147878116,[],"[840, 525]",ColorTask,108.0,60.0,,,HRV,HRV_0065,2022-11-30 18:04:36
,wl-rdm,179,558182,0.0-8.60-0.60,1.0,177.0,,,,,,,[],,,,,,53.2,0.0,u,0.0,True,873.7000000476837,53.0,60.0,40.0,False,,346.88763842869815,[],"[840, 525]",ColorTask,109.0,61.0,,,HRV,HRV_0065,2022-11-30 18:04:36
,wl-rdm,180,560855,0.0-8.61-0.61,1.0,178.0,,,,,,,[],,,,,,53.2,1.0,i,1.0,True,1311.6000000238419,79.0,60.0,40.0,False,,287.48080208711724,[],"[840, 525]",ColorTask,110.0,62.0,,,HRV,HRV_0065,2022-11-30 18:04:36
,wl-rdm,181,562859,0.0-8.62-0.62,1.0,179.0,,,,,,,[],,,,,,87.9,1.0,i,1.0,True,615.4000000953674,37.0,60.0,40.0,False,,333.2060696607597,[],"[840, 525]",ColorTask,111.0,63.0,,,HRV,HRV_0065,2022-11-30 18:04:36
,wl-rdm,182,564862,0.0-8.63-0.63,1.0,180.0,,,,,,,[],,,,,,73.6,0.0,u,0.0,True,694.0,42.0,60.0,40.0,False,,239.19827960216614,[],"[840, 525]",ColorTask,112.0,64.0,,,HRV,HRV_0065,2022-11-30 18:04:36
,wl-rdm,183,566782,0.0-8.64-0.64,1.0,181.0,,,,,,,[],,,,,,87.9,0.0,u,0.0,True,528.7000000476837,32.0,60.0,40.0,False,,326.5522791251426,[],"[840, 525]",ColorTask,113.0,65.0,,,HRV,HRV_0065,2022-11-30 18:04:36
,wl-rdm,184,568903,0.0-8.65-0.65,1.0,182.0,,,,,,,[],,,,,,73.6,1.0,i,1.0,True,805.2000000476837,49.0,60.0,40.0,False,,246.4867363695588,[],"[840, 525]",ColorTask,114.0,66.0,,,HRV,HRV_0065,2022-11-30 18:04:36
,wl-rdm,185,571708,0.0-8.66-0.66,1.0,183.0,,,,,,,[],,,,,,50.0,1.0,i,1.0,True,1413.3000000715256,85.0,60.0,40.0,False,,317.5558085569668,[],"[840, 525]",ColorTask,115.0,67.0,,,HRV,HRV_0065,2022-11-30 18:04:36
,wl-rdm,186,573628,0.0-8.67-0.67,1.0,184.0,,,,,,,[],,,,,,62.5,0.0,u,0.0,True,623.2999999523163,38.0,60.0,40.0,False,,218.38885764402067,[],"[840, 525]",ColorTask,116.0,68.0,,,HRV,HRV_0065,2022-11-30 18:04:36
,wl-rdm,187,575850,0.0-8.68-0.68,1.0,185.0,,,,,,,[],,,,,,62.5,1.0,i,1.0,True,897.1000000238419,54.0,60.0,40.0,False,,262.8634923441319,[],"[840, 525]",ColorTask,117.0,69.0,,,HRV,HRV_0065,2022-11-30 18:04:36
,wl-rdm,188,578355,0.0-8.69-0.69,1.0,186.0,,,,,,,[],,,,,,56.4,1.0,u,0.0,False,1139.1000000238419,69.0,60.0,40.0,False,,271.9337854128896,[],"[840, 525]",ColorTask,116.0,70.0,,,HRV,HRV_0065,2022-11-30 18:04:36
,wl-rdm,189,580626,0.0-8.70-0.70,1.0,187.0,,,,,,,[],,,,,,53.2,0.0,u,0.0,True,967.7999999523163,58.0,60.0,40.0,False,,241.32601132333633,[],"[840, 525]",ColorTask,117.0,71.0,,,HRV,HRV_0065,2022-11-30 18:04:36
,wl-rdm,190,582713,0.0-8.71-0.71,1.0,188.0,,,,,,,[],,,,,,62.5,0.0,u,0.0,True,750.2999999523163,45.0,60.0,40.0,False,,267.8953760848815,[],"[840, 525]",ColorTask,118.0,72.0,,,HRV,HRV_0065,2022-11-30 18:04:36
,wl-rdm,191,584967,0.0-8.72-0.72,1.0,189.0,,,,,,,[],,,,,,73.6,1.0,i,1.0,True,942.3999999761581,57.0,60.0,40.0,False,,241.81576049521396,[],"[840, 525]",ColorTask,119.0,73.0,,,HRV,HRV_0065,2022-11-30 18:04:36
,wl-rdm,192,587038,0.0-8.73-0.73,1.0,190.0,,,,,,,[],,,,,,62.5,1.0,i,1.0,True,739.2000000476837,45.0,60.0,40.0,False,,263.8035229571609,[],"[840, 525]",ColorTask,120.0,74.0,,,HRV,HRV_0065,2022-11-30 18:04:36
,wl-rdm,193,589526,0.0-8.74-0.74,1.0,191.0,,,,,,,[],,,,,,53.2,1.0,i,1.0,True,1032.1000000238419,62.0,60.0,40.0,False,,392.28693459131966,[],"[840, 525]",ColorTask,121.0,75.0,,,HRV,HRV_0065,2022-11-30 18:04:36
,wl-rdm,194,592148,0.0-8.75-0.75,1.0,192.0,,,,,,,[],,,,,,56.4,0.0,u,0.0,True,1324.1000000238419,80.0,60.0,40.0,False,,219.13402286748075,[],"[840, 525]",ColorTask,122.0,76.0,,,HRV,HRV_0065,2022-11-30 18:04:36
,wl-rdm,195,594836,0.0-8.76-0.76,1.0,193.0,,,,,,,[],,,,,,53.2,0.0,i,1.0,False,1262.7000000476837,76.0,60.0,40.0,False,,368.48843976786225,[],"[840, 525]",ColorTask,121.0,77.0,,,HRV,HRV_0065,2022-11-30 18:04:36
,wl-rdm,196,597758,0.0-8.77-0.77,1.0,194.0,,,,,,,[],,,,,,50.0,0.0,u,0.0,True,1542.5,93.0,60.0,40.0,False,,310.077115857414,[],"[840, 525]",ColorTask,122.0,78.0,,,HRV,HRV_0065,2022-11-30 18:04:36
,wl-rdm,197,600163,0.0-8.78-0.78,1.0,195.0,,,,,,,[],,,,,,53.2,1.0,u,0.0,False,996.5,60.0,60.0,40.0,False,,347.69653142944986,[],"[840, 525]",ColorTask,121.0,79.0,,,HRV,HRV_0065,2022-11-30 18:04:36
,wl-rdm,198,603103,0.0-8.79-0.79,1.0,196.0,,,,,,,[],,,,,,53.2,1.0,i,1.0,True,1518.2000000476837,91.0,60.0,40.0,False,,362.17546915205156,[],"[840, 525]",ColorTask,122.0,80.0,,,HRV,HRV_0065,2022-11-30 18:04:36
,wl-rdm,199,605240,0.0-8.80-0.80,1.0,197.0,,,,,,,[],,,,,,87.9,0.0,u,0.0,True,806.2999999523163,49.0,60.0,40.0,False,,265.20526548907,[],"[840, 525]",ColorTask,123.0,81.0,,,HRV,HRV_0065,2022-11-30 18:04:36
,wl-rdm,200,608179,0.0-8.81-0.81,1.0,198.0,,,,,,,[],,,,,,50.0,1.0,i,1.0,True,1531.7000000476837,92.0,60.0,40.0,False,,341.622775743953,[],"[840, 525]",ColorTask,124.0,82.0,,,HRV,HRV_0065,2022-11-30 18:04:36
,wl-rdm,201,610500,0.0-8.82-0.82,1.0,199.0,,,,,,,[],,,,,,87.9,0.0,u,0.0,True,906.2000000476837,55.0,60.0,40.0,False,,354.80873914367794,[],"[840, 525]",ColorTask,125.0,83.0,,,HRV,HRV_0065,2022-11-30 18:04:36
,wl-rdm,202,613022,0.0-8.83-0.83,1.0,200.0,,,,,,,[],,,,,,62.5,0.0,u,0.0,True,1202.6000000238419,72.0,60.0,40.0,False,,236.97143097949518,[],"[840, 525]",ColorTask,126.0,84.0,,,HRV,HRV_0065,2022-11-30 18:04:36
,wl-rdm,203,615109,0.0-8.84-0.84,1.0,201.0,,,,,,,[],,,,,,50.0,0.0,i,1.0,False,714.2000000476837,43.0,60.0,40.0,False,,311.57618752568567,[],"[840, 525]",ColorTask,125.0,85.0,,,HRV,HRV_0065,2022-11-30 18:04:36
,wl-rdm,204,617464,0.0-8.85-0.85,1.0,202.0,,,,,,,[],,,,,,62.5,0.0,i,1.0,False,1040.7000000476837,63.0,60.0,40.0,False,,247.77566195597186,[],"[840, 525]",ColorTask,124.0,86.0,,,HRV,HRV_0065,2022-11-30 18:04:36
,wl-rdm,205,619852,0.0-8.86-0.86,1.0,203.0,,,,,,,[],,,,,,87.9,0.0,u,0.0,True,976.1000000238419,59.0,60.0,40.0,False,,345.02698938424396,[],"[840, 525]",ColorTask,125.0,87.0,,,HRV,HRV_0065,2022-11-30 18:04:36
,wl-rdm,206,622958,0.0-8.87-0.87,1.0,204.0,,,,,,,[],,,,,,56.4,0.0,u,0.0,True,1824.8999999761581,110.0,60.0,40.0,False,,202.29689106786174,[],"[840, 525]",ColorTask,126.0,88.0,,,HRV,HRV_0065,2022-11-30 18:04:36
,wl-rdm,207,625229,0.0-8.88-0.88,1.0,205.0,,,,,,,[],,,,,,53.2,0.0,u,0.0,True,1000.4000000953674,60.0,60.0,40.0,False,,207.2300157806895,[],"[840, 525]",ColorTask,127.0,89.0,,,HRV,HRV_0065,2022-11-30 18:04:36
,wl-rdm,208,627817,0.0-8.89-0.89,1.0,206.0,,,,,,,[],,,,,,56.4,1.0,i,1.0,True,1206.5999999046326,73.0,60.0,40.0,False,,307.6803654995234,[],"[840, 525]",ColorTask,128.0,90.0,,,HRV,HRV_0065,2022-11-30 18:04:36
,wl-rdm,209,629955,0.0-8.90-0.90,1.0,207.0,,,,,,,[],,,,,,87.9,1.0,i,1.0,True,782.2000000476837,47.0,60.0,40.0,False,,282.93824029371905,[],"[840, 525]",ColorTask,129.0,91.0,,,HRV,HRV_0065,2022-11-30 18:04:36
,wl-rdm,210,632426,0.0-8.91-0.91,1.0,208.0,,,,,,,[],,,,,,73.6,0.0,u,0.0,True,1207.5,73.0,60.0,40.0,False,,202.7288870645552,[],"[840, 525]",ColorTask,130.0,92.0,,,HRV,HRV_0065,2022-11-30 18:04:36
,wl-rdm,211,636350,0.0-8.92-0.92,1.0,209.0,,,,,,,[],,,,,,56.4,0.0,u,0.0,True,2475.399999976158,149.0,60.0,40.0,False,,374.90879495444216,[],"[840, 525]",ColorTask,131.0,93.0,,,HRV,HRV_0065,2022-11-30 18:04:36
,wl-rdm,212,638505,0.0-8.93-0.93,1.0,210.0,,,,,,,[],,,,,,73.6,1.0,i,1.0,True,756.1999999284744,46.0,60.0,40.0,False,,330.7616131254954,[],"[840, 525]",ColorTask,132.0,94.0,,,HRV,HRV_0065,2022-11-30 18:04:36
,wl-rdm,213,640626,0.0-8.94-0.94,1.0,211.0,,,,,,,[],,,,,,87.9,0.0,u,0.0,True,800.7000000476837,48.0,60.0,40.0,False,,261.20696921813385,[],"[840, 525]",ColorTask,133.0,95.0,,,HRV,HRV_0065,2022-11-30 18:04:36
,wl-rdm,214,644618,0.0-8.95-0.95,1.0,212.0,,,,,,,[],,,,,,56.4,0.0,u,0.0,True,2676.0,161.0,60.0,40.0,False,,237.82773672310947,[],"[840, 525]",ColorTask,134.0,96.0,,,HRV,HRV_0065,2022-11-30 18:04:36
,wl-rdm,215,647822,0.0-8.96-0.96,1.0,213.0,,,,,,,[],,,,,,50.0,1.0,i,1.0,True,1794.8000000715256,108.0,60.0,40.0,False,,348.0974209920627,[],"[840, 525]",ColorTask,135.0,97.0,,,HRV,HRV_0065,2022-11-30 18:04:36
,wl-rdm,216,649744,0.0-8.97-0.97,1.0,214.0,,,,,,,[],,,,,,73.6,1.0,i,1.0,True,605.5,37.0,60.0,40.0,False,,249.2140297395758,[],"[840, 525]",ColorTask,136.0,98.0,,,HRV,HRV_0065,2022-11-30 18:04:36
,wl-rdm,217,653149,0.0-8.98-0.98,1.0,215.0,,,,,,,[],,,,,,50.0,0.0,i,1.0,False,1973.9999998807907,119.0,60.0,40.0,False,,360.41430190516394,[],"[840, 525]",ColorTask,135.0,99.0,,,HRV,HRV_0065,2022-11-30 18:04:36
,wl-rdm,218,655136,0.0-8.99-0.99,1.0,216.0,,,,,,,[],,,,,,87.9,1.0,i,1.0,True,623.6000000238419,38.0,60.0,40.0,False,,292.27651253303964,[],"[840, 525]",ColorTask,136.0,100.0,,,HRV,HRV_0065,2022-11-30 18:04:36
,wl-rdm,219,658359,0.0-8.100-0.100,1.0,217.0,,,,,,,[],,,,,,56.4,1.0,i,1.0,True,1853.5,111.0,60.0,40.0,False,,308.32587940158373,[],"[840, 525]",ColorTask,137.0,101.0,,,HRV,HRV_0065,2022-11-30 18:04:36
,wl-rdm,220,661499,0.0-8.101-0.101,1.0,218.0,,,,,,,[],,,,,,73.6,0.0,u,0.0,True,1803.3999999761581,108.0,60.0,40.0,False,,273.96560051851935,[],"[840, 525]",ColorTask,138.0,102.0,,,HRV,HRV_0065,2022-11-30 18:04:36
,wl-rdm,221,663603,0.0-8.102-0.102,1.0,219.0,,,,,,,[],,,,,,87.9,0.0,u,0.0,True,687.2999999523163,42.0,60.0,40.0,False,,350.90113555486664,[],"[840, 525]",ColorTask,139.0,103.0,,,HRV,HRV_0065,2022-11-30 18:04:36
,wl-rdm,222,665724,0.0-8.103-0.103,1.0,220.0,,,,,,,[],,,,,,62.5,1.0,i,1.0,True,851.1000000238419,51.0,60.0,40.0,False,,200.77173894448723,[],"[840, 525]",ColorTask,140.0,104.0,,,HRV,HRV_0065,2022-11-30 18:04:36
,wl-rdm,223,669348,0.0-8.104-0.104,1.0,221.0,,,,,,,[],,,,,,56.4,0.0,u,0.0,True,2278.5,137.0,60.0,40.0,False,,269.749267165855,[],"[840, 525]",ColorTask,141.0,105.0,,,HRV,HRV_0065,2022-11-30 18:04:36
,wl-rdm,224,672186,0.0-8.105-0.105,1.0,222.0,,,,,,,[],,,,,,62.5,0.0,u,0.0,True,1494.5,90.0,60.0,40.0,False,,274.42788816234554,[],"[840, 525]",ColorTask,142.0,106.0,,,HRV,HRV_0065,2022-11-30 18:04:36
,wl-rdm,225,674107,0.0-8.106-0.106,1.0,223.0,,,,,,,[],,,,,,62.5,1.0,i,1.0,True,627.7999999523163,38.0,60.0,40.0,False,,222.44048986246156,[],"[840, 525]",ColorTask,143.0,107.0,,,HRV,HRV_0065,2022-11-30 18:04:36
,wl-rdm,226,676211,0.0-8.107-0.107,1.0,224.0,,,,,,,[],,,,,,87.9,0.0,u,0.0,True,795.0999999046326,48.0,60.0,40.0,False,,239.37698257868132,[],"[840, 525]",ColorTask,144.0,108.0,,,HRV,HRV_0065,2022-11-30 18:04:36
,wl-rdm,227,679400,0.0-8.108-0.108,1.0,225.0,,,,,,,[],,,,,,50.0,0.0,i,1.0,False,1841.9999998807907,111.0,60.0,40.0,False,,273.8028233462267,[],"[840, 525]",ColorTask,143.0,109.0,,,HRV,HRV_0065,2022-11-30 18:04:36
,wl-html-button-response,228,683156,0.0-9.0-0.0,,,,,,,,,,3753.0,,0,,,,,,,,,,,,,,,,,,,,<h3>End of this session. Thank you!</h3><br>,['Close window'],HRV,HRV_0065,2022-11-30 18:04:36
