success,trial_type,trial_index,time_elapsed,internal_node_id,Block,TrialNumber,TrialTime,trialTimeDiff,FPS_avg,FPS_med,FPS_mode,TrialDur,winResizeTime,rt,block,button_pressed,missTrial,missTrialMsg,MotCoh,MotDir,ColCoh,Color,ChoiceKey,Choice,Accuracy,RT,nFrames,FPS,PPD,onsetDelay,fullScreenExitTime,canvCenter,TrialType,Score,BlockTrial,stimulus,button_labels,exp,subjectId,date
True,fullscreen,0,1364,0.0-0.0,0.0,1.0,,,,,,,,,,,,,,,,,,,,,,,,,,,,,,,,HRV,HRV_0323,2022-12-01 01:17:09
,wl-check-fps,1,10878,0.0-1.0,0.0,2.0,"[6370.2, 6377.2, 6393.9, 6410.6, 6427.3, 6444, 6460.7, 6477.3, 6494.4, 6510.7, 6527.4, 6544, 6560.7, 6577.5, 6594.3, 6610.9, 6627.6, 6644.2, 6661, 6677.5, 6694.1, 6710.8, 6727.5, 6744.2, 6760.9, 6777.7, 6794.3, 6811, 6827.6, 6844.2, 6860.9, 6877.9, 6894.3, 6911.2, 6927.9, 6944.6, 6961, 6977.7, 6994.5, 7011, 7027.7, 7044.8, 7061.1, 7077.8, 7094.5, 7111.1, 7127.8, 7144.5, 7161.2, 7177.9, 7194.8, 7211.5, 7228.1, 7244.8, 7261.4, 7278, 7294.7, 7311.3, 7328.1, 7344.7, 7361.4, 7378.1, 7394.8, 7411.5, 7428.2, 7444.9, 7461.5, 7478.3, 7495.5, 7511.6, 7528.2, 7544.9, 7561.6, 7578.3, 7595, 7611.7, 7628.3, 7645, 7661.7, 7678.4, 7695, 7711.7, 7728.4, 7745.1, 7761.8, 7778.5, 7795.2, 7811.8, 7828.5, 7845.2, 7861.9, 7878.5, 7895.2, 7911.9, 7928.5, 7945.2, 7961.8, 7978.5, 7995.2, 8011.9, 8028.6, 8045.2, 8061.9, 8078.6, 8095.3, 8112, 8128.7, 8145.3, 8162.2, 8178.8, 8195.6, 8212.2, 8228.7, 8245.4, 8262, 8278.7, 8295.5, 8312.1, 8328.8, 8345.5, 8362.4, 8379, 8395.8, 8412.4, 8430.8, 8445.7, 8462.3, 8479, 8496.2, 8512.4, 8529.1, 8545.7, 8562.4, 8579.2, 8595.8, 8612.4, 8629.1, 8645.8, 8662.5, 8679.2, 8695.8, 8712.5, 8729.2, 8745.8, 8762.5, 8779.2, 8796.1, 8812.7, 8829.3, 8845.9, 8862.7, 8879.3, 8896, 8912.7, 8929.4, 8946, 8962.6, 8979.4, 8996.1, 9012.7, 9029.4, 9046.1, 9062.7, 9079.5, 9096.1, 9112.8, 9129.4, 9146.1, 9162.8, 9179.5, 9196.2, 9212.8, 9229.8, 9246.2, 9263.1, 9279.9, 9296.5, 9313.1, 9329.6, 9346.3, 9363, 9379.9, 9396.5, 9413.2, 9429.7, 9446.4, 9463.1, 9479.9, 9496.4, 9513.1, 9530, 9546.7, 9563.3, 9580, 9596.5, 9613.3, 9629.9, 9646.6, 9663.3, 9680, 9696.6, 9713.3, 9730.2, 9746.8, 9763.3, 9780.1, 9796.7, 9813.3, 9830, 9846.8, 9863.4, 9880.1, 9896.7, 9913.4, 9930.1, 9946.8, 9963.5, 9980.5, 9997.4, 10013.6, 10030.5, 10047, 10063.7, 10080.3, 10097, 10113.6, 10130.3, 10147, 10163.7, 10180.6, 10197, 10213.7, 10230.4, 10247.1, 10263.7, 10280.4, 10297.1, 10313.9, 10330.5, 10347.2, 10363.9, 10380.6, 10397.3, 10413.9, 10430.7, 10447.4, 10464, 10480.7, 10497.6, 10514.1, 10530.7, 10547.4, 10564.1, 10580.7, 10598, 10614.4, 10630.9, 10647.6, 10664.1, 10680.8, 10697.5, 10714.2, 10730.9, 10747.5, 10764.2, 10781, 10797.7, 10814.3, 10831, 10847.7, 10864.3, 10881, 10897.7, 10914.3, 10931, 10947.7, 10964.3, 10981, 10997.8, 11014.5, 11031.1, 11047.8, 11064.5, 11081.1, 11097.9, 11114.5, 11131.1, 11147.8, 11164.6, 11181.3, 11197.9, 11215.1, 11231.7, 11248.3, 11264.7, 11281.3, 11298, 11314.8, 11331.4, 11348]","[0.6, 7, 16.7, 16.7, 16.7, 16.7, 16.7, 16.6, 17.1, 16.3, 16.7, 16.6, 16.7, 16.8, 16.8, 16.6, 16.7, 16.6, 16.8, 16.5, 16.6, 16.7, 16.7, 16.7, 16.7, 16.8, 16.6, 16.7, 16.6, 16.6, 16.7, 17, 16.4, 16.9, 16.7, 16.7, 16.4, 16.7, 16.8, 16.5, 16.7, 17.1, 16.3, 16.7, 16.7, 16.6, 16.7, 16.7, 16.7, 16.7, 16.9, 16.7, 16.6, 16.7, 16.6, 16.6, 16.7, 16.6, 16.8, 16.6, 16.7, 16.7, 16.7, 16.7, 16.7, 16.7, 16.6, 16.8, 17.2, 16.1, 16.6, 16.7, 16.7, 16.7, 16.7, 16.7, 16.6, 16.7, 16.7, 16.7, 16.6, 16.7, 16.7, 16.7, 16.7, 16.7, 16.7, 16.6, 16.7, 16.7, 16.7, 16.6, 16.7, 16.7, 16.6, 16.7, 16.6, 16.7, 16.7, 16.7, 16.7, 16.6, 16.7, 16.7, 16.7, 16.7, 16.7, 16.6, 16.9, 16.6, 16.8, 16.6, 16.5, 16.7, 16.6, 16.7, 16.8, 16.6, 16.7, 16.7, 16.9, 16.6, 16.8, 16.6, 18.4, 14.9, 16.6, 16.7, 17.2, 16.2, 16.7, 16.6, 16.7, 16.8, 16.6, 16.6, 16.7, 16.7, 16.7, 16.7, 16.6, 16.7, 16.7, 16.6, 16.7, 16.7, 16.9, 16.6, 16.6, 16.6, 16.8, 16.6, 16.7, 16.7, 16.7, 16.6, 16.6, 16.8, 16.7, 16.6, 16.7, 16.7, 16.6, 16.8, 16.6, 16.7, 16.6, 16.7, 16.7, 16.7, 16.7, 16.6, 17, 16.4, 16.9, 16.8, 16.6, 16.6, 16.5, 16.7, 16.7, 16.9, 16.6, 16.7, 16.5, 16.7, 16.7, 16.8, 16.5, 16.7, 16.9, 16.7, 16.6, 16.7, 16.5, 16.8, 16.6, 16.7, 16.7, 16.7, 16.6, 16.7, 16.9, 16.6, 16.5, 16.8, 16.6, 16.6, 16.7, 16.8, 16.6, 16.7, 16.6, 16.7, 16.7, 16.7, 16.7, 17, 16.9, 16.2, 16.9, 16.5, 16.7, 16.6, 16.7, 16.6, 16.7, 16.7, 16.7, 16.9, 16.4, 16.7, 16.7, 16.7, 16.6, 16.7, 16.7, 16.8, 16.6, 16.7, 16.7, 16.7, 16.7, 16.6, 16.8, 16.7, 16.6, 16.7, 16.9, 16.5, 16.6, 16.7, 16.7, 16.6, 17.3, 16.4, 16.5, 16.7, 16.5, 16.7, 16.7, 16.7, 16.7, 16.6, 16.7, 16.8, 16.7, 16.6, 16.7, 16.7, 16.6, 16.7, 16.7, 16.6, 16.7, 16.7, 16.6, 16.7, 16.8, 16.7, 16.6, 16.7, 16.7, 16.6, 16.8, 16.6, 16.6, 16.7, 16.8, 16.7, 16.6, 17.2, 16.6, 16.6, 16.4, 16.6, 16.7, 16.8, 16.6, 16.6]",60.0,60.0,60.0,4995.1,[],,,,,,,,,,,,,,,,,,,,,,,,,HRV,HRV_0323,2022-12-01 01:17:09
,wl-html-keyboard-response,2,24013,0.0-2.0-0.0,0.0,2.0,,,,,,,,11128.5,0.0,0,True,undefinedblurEvent ,,,,,,,,,,,,,,,,,,,,HRV,HRV_0323,2022-12-01 01:17:09
,wl-rdm,3,34097,0.0-3.0-0.0,0.0,3.0,,,,,,,[],,,,False,too_early ,0.0,0.0,87.9,0.0,u,0.0,True,1265.8999998569489,76.0,60.0,40.0,3000.0,[],"[1024, 576]",ColorTask_Demo,,,,,HRV,HRV_0323,2022-12-01 01:17:09
,wl-rdm,4,38834,0.0-3.0-1.0,0.0,4.0,,,,,,,[],,,,False,,0.0,0.0,87.9,1.0,i,1.0,True,674.6000001430511,41.0,60.0,40.0,2000.0,[],"[1024, 576]",ColorTask_Demo,,,,,HRV,HRV_0323,2022-12-01 01:17:09
,wl-html-keyboard-response,5,42856,0.0-3.0-2.0,0.0,5.0,,,,,,,,2016.5999999046326,0.0,1,,,,,,,,,,,,,,,,,,,,,,HRV,HRV_0323,2022-12-01 01:17:09
,wl-html-keyboard-response,6,50033,0.0-4.0-0.0,0.0,6.0,,,,,,,,6114.900000095367,0.0,0,,,,,,,,,,,,,,,,,,,,,,HRV,HRV_0323,2022-12-01 01:17:09
,wl-html-keyboard-response,7,59392,0.0-5.0-0.0,0.0,7.0,,,,,,,,7357.199999809265,0.0,0,,,,,,,,,,,,,,,,,,,,,,HRV,HRV_0323,2022-12-01 01:17:09
,wl-rdm,8,61503,0.0-6.0-0.0,0.0,8.0,,,,,,,[],,,,False,,,,87.9,1.0,i,1.0,True,819.2999997138977,50.0,60.0,40.0,225.0658881427733,[],"[1024, 576]",ColorTask,1.0,1.0,,,HRV,HRV_0323,2022-12-01 01:17:09
,wl-rdm,9,63971,0.0-6.1-0.1,0.0,9.0,,,,,,,[],,,,False,,,,56.4,0.0,i,1.0,False,1137.3000001907349,69.0,60.0,40.0,253.6473967875932,[],"[1024, 576]",ColorTask,0.0,2.0,,,HRV,HRV_0323,2022-12-01 01:17:09
,wl-rdm,10,65990,0.0-6.2-0.2,0.0,10.0,,,,,,,[],,,,False,,,,53.2,1.0,u,0.0,False,696.7000000476837,42.0,60.0,40.0,256.91150256180237,[],"[1024, 576]",ColorTask,-1.0,3.0,,,HRV,HRV_0323,2022-12-01 01:17:09
,wl-rdm,11,67824,0.0-6.3-0.3,0.0,11.0,,,,,,,[],,,,False,,,,62.5,0.0,u,0.0,True,566.2999999523163,34.0,60.0,40.0,210.57409389719152,[],"[1024, 576]",ColorTask,0.0,4.0,,,HRV,HRV_0323,2022-12-01 01:17:09
,wl-rdm,12,69809,0.0-6.4-0.4,0.0,12.0,,,,,,,[],,,,False,,,,87.9,0.0,u,0.0,True,592.8999998569489,36.0,60.0,40.0,321.56998133273413,[],"[1024, 576]",ColorTask,1.0,5.0,,,HRV,HRV_0323,2022-12-01 01:17:09
,wl-rdm,13,71794,0.0-6.5-0.5,0.0,13.0,,,,,,,[],,,,False,,,,56.4,0.0,i,1.0,False,679.5,41.0,60.0,40.0,245.49564377338848,[],"[1024, 576]",ColorTask,0.0,6.0,,,HRV,HRV_0323,2022-12-01 01:17:09
,wl-rdm,14,73946,0.0-6.6-0.6,0.0,14.0,,,,,,,[],,,,False,,,,87.9,1.0,i,1.0,True,851.0999999046326,52.0,60.0,40.0,229.4093643046491,[],"[1024, 576]",ColorTask,1.0,7.0,,,HRV,HRV_0323,2022-12-01 01:17:09
,wl-rdm,15,75614,0.0-6.7-0.7,0.0,15.0,,,,,,,[],,,,False,,,,87.9,1.0,i,1.0,True,400.0,24.0,60.0,40.0,213.0834955972185,[],"[1024, 576]",ColorTask,2.0,8.0,,,HRV,HRV_0323,2022-12-01 01:17:09
,wl-rdm,16,77582,0.0-6.8-0.8,0.0,16.0,,,,,,,[],,,,False,,,,56.4,1.0,u,0.0,False,637.8999998569489,39.0,60.0,40.0,260.3236651869281,[],"[1024, 576]",ColorTask,1.0,9.0,,,HRV,HRV_0323,2022-12-01 01:17:09
,wl-rdm,17,79450,0.0-6.9-0.9,0.0,17.0,,,,,,,[],,,,False,,,,62.5,0.0,i,1.0,False,499.5,30.0,60.0,40.0,300.75775862589194,[],"[1024, 576]",ColorTask,0.0,10.0,,,HRV,HRV_0323,2022-12-01 01:17:09
,wl-rdm,18,81319,0.0-6.10-0.10,0.0,18.0,,,,,,,[],,,,False,,,,73.6,0.0,i,1.0,False,539.4000000953674,33.0,60.0,40.0,251.60081179476927,[],"[1024, 576]",ColorTask,-1.0,11.0,,,HRV,HRV_0323,2022-12-01 01:17:09
,wl-rdm,19,83437,0.0-6.11-0.11,0.0,19.0,,,,,,,[],,,,False,,,,56.4,1.0,u,0.0,False,811.8999998569489,49.0,60.0,40.0,245.86515604419367,[],"[1024, 576]",ColorTask,-2.0,12.0,,,HRV,HRV_0323,2022-12-01 01:17:09
,wl-rdm,20,85589,0.0-6.12-0.12,0.0,20.0,,,,,,,[],,,,False,,,,56.4,0.0,u,0.0,True,732.7000000476837,44.0,60.0,40.0,362.0030762177015,[],"[1024, 576]",ColorTask,-1.0,13.0,,,HRV,HRV_0323,2022-12-01 01:17:09
,wl-rdm,21,87574,0.0-6.13-0.13,0.0,21.0,,,,,,,[],,,,False,,,,56.4,0.0,i,1.0,False,579.5999999046326,35.0,60.0,40.0,336.89202546731957,[],"[1024, 576]",ColorTask,-2.0,14.0,,,HRV,HRV_0323,2022-12-01 01:17:09
,wl-rdm,22,89692,0.0-6.14-0.14,0.0,22.0,,,,,,,[],,,,False,,,,73.6,1.0,i,1.0,True,750.3999998569489,45.0,60.0,40.0,311.2967556695128,[],"[1024, 576]",ColorTask,-1.0,15.0,,,HRV,HRV_0323,2022-12-01 01:17:09
,wl-rdm,23,91694,0.0-6.15-0.15,0.0,23.0,,,,,,,[],,,,False,,,,56.4,1.0,i,1.0,True,615.2999999523163,37.0,60.0,40.0,325.0024505286236,[],"[1024, 576]",ColorTask,0.0,16.0,,,HRV,HRV_0323,2022-12-01 01:17:09
,wl-rdm,24,93879,0.0-6.16-0.16,0.0,24.0,,,,,,,[],,,,False,,,,53.2,1.0,i,1.0,True,781.0,47.0,60.0,40.0,341.73995870895646,[],"[1024, 576]",ColorTask,1.0,17.0,,,HRV,HRV_0323,2022-12-01 01:17:09
,wl-rdm,25,95781,0.0-6.17-0.17,0.0,25.0,,,,,,,[],,,,False,,,,87.9,0.0,u,0.0,True,604.2999999523163,37.0,60.0,40.0,221.2389089832445,[],"[1024, 576]",ColorTask,2.0,18.0,,,HRV,HRV_0323,2022-12-01 01:17:09
,wl-rdm,26,97732,0.0-6.18-0.18,0.0,26.0,,,,,,,[],,,,False,,,,53.2,1.0,i,1.0,True,596.0999999046326,36.0,60.0,40.0,283.96069678724587,[],"[1024, 576]",ColorTask,3.0,19.0,,,HRV,HRV_0323,2022-12-01 01:17:09
,wl-rdm,27,99717,0.0-6.19-0.19,0.0,27.0,,,,,,,[],,,,False,,,,53.2,1.0,i,1.0,True,582.4000000953674,35.0,60.0,40.0,345.41662595825005,[],"[1024, 576]",ColorTask,4.0,20.0,,,HRV,HRV_0323,2022-12-01 01:17:09
,wl-rdm,28,101735,0.0-6.20-0.20,0.0,28.0,,,,,,,[],,,,False,,,,53.2,1.0,i,1.0,True,678.1999998092651,41.0,60.0,40.0,272.92661719609055,[],"[1024, 576]",ColorTask,5.0,21.0,,,HRV,HRV_0323,2022-12-01 01:17:09
,wl-rdm,29,103670,0.0-6.21-0.21,0.0,29.0,,,,,,,[],,,,False,,,,53.2,1.0,i,1.0,True,604.5,37.0,60.0,40.0,258.09139921917404,[],"[1024, 576]",ColorTask,6.0,22.0,,,HRV,HRV_0323,2022-12-01 01:17:09
,wl-rdm,30,105555,0.0-6.22-0.22,0.0,30.0,,,,,,,[],,,,False,,,,62.5,1.0,i,1.0,True,576.2999999523163,35.0,60.0,40.0,244.02213125809283,[],"[1024, 576]",ColorTask,7.0,23.0,,,HRV,HRV_0323,2022-12-01 01:17:09
,wl-rdm,31,107457,0.0-6.23-0.23,0.0,31.0,,,,,,,[],,,,False,,,,87.9,1.0,i,1.0,True,447.2999999523163,27.0,60.0,40.0,388.6417946527421,[],"[1024, 576]",ColorTask,8.0,24.0,,,HRV,HRV_0323,2022-12-01 01:17:09
,wl-rdm,32,109392,0.0-6.24-0.24,0.0,32.0,,,,,,,[],,,,False,,,,56.4,1.0,i,1.0,True,584.5999999046326,36.0,60.0,40.0,274.77852373737187,[],"[1024, 576]",ColorTask,9.0,25.0,,,HRV,HRV_0323,2022-12-01 01:17:09
,wl-rdm,33,111627,0.0-6.25-0.25,0.0,33.0,,,,,,,[],,,,False,,,,53.2,0.0,u,0.0,True,852.0,52.0,60.0,40.0,314.2740543833853,[],"[1024, 576]",ColorTask,10.0,26.0,,,HRV,HRV_0323,2022-12-01 01:17:09
,wl-rdm,34,113395,0.0-6.26-0.26,0.0,34.0,,,,,,,[],,,,False,,,,87.9,0.0,u,0.0,True,480.5,29.0,60.0,40.0,221.92467397092554,[],"[1024, 576]",ColorTask,11.0,27.0,,,HRV,HRV_0323,2022-12-01 01:17:09
,wl-rdm,35,115280,0.0-6.27-0.27,0.0,35.0,,,,,,,[],,,,False,,,,53.2,1.0,i,1.0,True,559.0,34.0,60.0,40.0,257.78355142238024,[],"[1024, 576]",ColorTask,12.0,28.0,,,HRV,HRV_0323,2022-12-01 01:17:09
,wl-rdm,36,117365,0.0-6.28-0.28,0.0,36.0,,,,,,,[],,,,False,,,,53.2,0.0,u,0.0,True,622.9000000953674,38.0,60.0,40.0,390.8713676790876,[],"[1024, 576]",ColorTask,13.0,29.0,,,HRV,HRV_0323,2022-12-01 01:17:09
,wl-rdm,37,119650,0.0-6.29-0.29,0.0,37.0,,,,,,,[],,,,False,,,,50.0,0.0,u,0.0,True,867.2000000476837,52.0,60.0,40.0,361.8541669477005,[],"[1024, 576]",ColorTask,14.0,30.0,,,HRV,HRV_0323,2022-12-01 01:17:09
,wl-rdm,38,121802,0.0-6.30-0.30,0.0,38.0,,,,,,,[],,,,False,,,,50.0,0.0,u,0.0,True,783.7999999523163,47.0,60.0,40.0,305.7003292269733,[],"[1024, 576]",ColorTask,15.0,31.0,,,HRV,HRV_0323,2022-12-01 01:17:09
,wl-rdm,39,124070,0.0-6.31-0.31,0.0,39.0,,,,,,,[],,,,False,,,,56.4,0.0,u,0.0,True,921.5999999046326,56.0,60.0,40.0,269.9470475038564,[],"[1024, 576]",ColorTask,16.0,32.0,,,HRV,HRV_0323,2022-12-01 01:17:09
,wl-rdm,40,126089,0.0-6.32-0.32,0.0,40.0,,,,,,,[],,,,False,,,,50.0,1.0,u,0.0,False,561.9000000953674,34.0,60.0,40.0,398.2210345029355,[],"[1024, 576]",ColorTask,15.0,33.0,,,HRV,HRV_0323,2022-12-01 01:17:09
,wl-rdm,41,128140,0.0-6.33-0.33,0.0,41.0,,,,,,,[],,,,False,,,,53.2,0.0,i,1.0,False,771.5,47.0,60.0,40.0,206.96542034518174,[],"[1024, 576]",ColorTask,14.0,34.0,,,HRV,HRV_0323,2022-12-01 01:17:09
,wl-rdm,42,130175,0.0-6.34-0.34,0.0,42.0,,,,,,,[],,,,False,,,,56.4,1.0,i,1.0,True,758.0,46.0,60.0,40.0,208.5720147527268,[],"[1024, 576]",ColorTask,15.0,35.0,,,HRV,HRV_0323,2022-12-01 01:17:09
,wl-rdm,43,132093,0.0-6.35-0.35,0.0,43.0,,,,,,,[],,,,False,,,,87.9,0.0,u,0.0,True,501.39999985694885,31.0,60.0,40.0,337.4509708720428,[],"[1024, 576]",ColorTask,16.0,36.0,,,HRV,HRV_0323,2022-12-01 01:17:09
,wl-rdm,44,134495,0.0-6.36-0.36,0.0,44.0,,,,,,,[],,,,False,,,,53.2,0.0,i,1.0,False,1045.2000000476837,63.0,60.0,40.0,298.49935263872754,[],"[1024, 576]",ColorTask,15.0,37.0,,,HRV,HRV_0323,2022-12-01 01:17:09
,wl-rdm,45,136397,0.0-6.37-0.37,0.0,45.0,,,,,,,[],,,,False,,,,73.6,1.0,i,1.0,True,513.7999999523163,31.0,60.0,40.0,320.0485604779689,[],"[1024, 576]",ColorTask,16.0,38.0,,,HRV,HRV_0323,2022-12-01 01:17:09
,wl-rdm,46,138432,0.0-6.38-0.38,0.0,46.0,,,,,,,[],,,,False,,,,62.5,1.0,i,1.0,True,594.2999999523163,36.0,60.0,40.0,383.40217768421644,[],"[1024, 576]",ColorTask,17.0,39.0,,,HRV,HRV_0323,2022-12-01 01:17:09
,wl-rdm,47,140217,0.0-6.39-0.39,0.0,47.0,,,,,,,[],,,,False,,,,87.9,1.0,i,1.0,True,462.0,28.0,60.0,40.0,255.74107731188997,[],"[1024, 576]",ColorTask,18.0,40.0,,,HRV,HRV_0323,2022-12-01 01:17:09
,wl-rdm,48,142018,0.0-6.40-0.40,0.0,48.0,,,,,,,[],,,,False,,,,56.4,1.0,i,1.0,True,433.09999990463257,26.0,60.0,40.0,309.377031612732,[],"[1024, 576]",ColorTask,19.0,41.0,,,HRV,HRV_0323,2022-12-01 01:17:09
,wl-rdm,49,143970,0.0-6.41-0.41,0.0,49.0,,,,,,,[],,,,False,,,,62.5,0.0,u,0.0,True,544.2999999523163,33.0,60.0,40.0,343.3015045193496,[],"[1024, 576]",ColorTask,20.0,42.0,,,HRV,HRV_0323,2022-12-01 01:17:09
,wl-rdm,50,146271,0.0-6.42-0.42,0.0,50.0,,,,,,,[],,,,False,,,,53.2,0.0,u,0.0,True,1015.7000000476837,61.0,60.0,40.0,226.56128578961767,[],"[1024, 576]",ColorTask,21.0,43.0,,,HRV,HRV_0323,2022-12-01 01:17:09
,wl-rdm,51,148690,0.0-6.43-0.43,0.0,51.0,,,,,,,[],,,,False,,,,62.5,1.0,i,1.0,True,1146.2999999523163,69.0,60.0,40.0,207.16209243529482,[],"[1024, 576]",ColorTask,22.0,44.0,,,HRV,HRV_0323,2022-12-01 01:17:09
,wl-rdm,52,150675,0.0-6.44-0.44,0.0,52.0,,,,,,,[],,,,False,,,,87.9,0.0,i,1.0,False,584.7999999523163,36.0,60.0,40.0,317.26198591120965,[],"[1024, 576]",ColorTask,21.0,45.0,,,HRV,HRV_0323,2022-12-01 01:17:09
,wl-rdm,53,153077,0.0-6.45-0.45,0.0,53.0,,,,,,,[],,,,False,,,,53.2,1.0,u,0.0,False,1003.9000000953674,61.0,60.0,40.0,323.70848933809276,[],"[1024, 576]",ColorTask,20.0,46.0,,,HRV,HRV_0323,2022-12-01 01:17:09
,wl-rdm,54,155462,0.0-6.46-0.46,0.0,54.0,,,,,,,[],,,,False,,,,62.5,1.0,i,1.0,True,1096.0,66.0,60.0,40.0,233.1074747492795,[],"[1024, 576]",ColorTask,21.0,47.0,,,HRV,HRV_0323,2022-12-01 01:17:09
,wl-rdm,55,157347,0.0-6.47-0.47,0.0,55.0,,,,,,,[],,,,False,,,,87.9,1.0,i,1.0,True,611.5,37.0,60.0,40.0,209.44300198130136,[],"[1024, 576]",ColorTask,22.0,48.0,,,HRV,HRV_0323,2022-12-01 01:17:09
,wl-rdm,56,159515,0.0-6.48-0.48,0.0,56.0,,,,,,,[],,,,False,,,,53.2,0.0,u,0.0,True,801.4000000953674,49.0,60.0,40.0,285.3652915713893,[],"[1024, 576]",ColorTask,23.0,49.0,,,HRV,HRV_0323,2022-12-01 01:17:09
,wl-rdm,57,161450,0.0-6.49-0.49,0.0,57.0,,,,,,,[],,,,False,,,,73.6,0.0,u,0.0,True,639.5,39.0,60.0,40.0,224.1166468189454,[],"[1024, 576]",ColorTask,24.0,50.0,,,HRV,HRV_0323,2022-12-01 01:17:09
,wl-rdm,58,163419,0.0-6.50-0.50,0.0,58.0,,,,,,,[],,,,False,,,,73.6,0.0,u,0.0,True,604.0000002384186,37.0,60.0,40.0,297.5990627633151,[],"[1024, 576]",ColorTask,25.0,51.0,,,HRV,HRV_0323,2022-12-01 01:17:09
,wl-rdm,59,165253,0.0-6.51-0.51,0.0,59.0,,,,,,,[],,,,False,,,,73.6,1.0,i,1.0,True,501.30000019073486,31.0,60.0,40.0,250.5843052947205,[],"[1024, 576]",ColorTask,26.0,52.0,,,HRV,HRV_0323,2022-12-01 01:17:09
,wl-rdm,60,167505,0.0-6.52-0.52,0.0,60.0,,,,,,,[],,,,False,,,,50.0,0.0,i,1.0,False,894.7000000476837,54.0,60.0,40.0,293.1450603033133,[],"[1024, 576]",ColorTask,25.0,53.0,,,HRV,HRV_0323,2022-12-01 01:17:09
,wl-rdm,61,169657,0.0-6.53-0.53,0.0,61.0,,,,,,,[],,,,False,,,,50.0,0.0,i,1.0,False,685.2999999523163,42.0,60.0,40.0,399.9384338251915,[],"[1024, 576]",ColorTask,24.0,54.0,,,HRV,HRV_0323,2022-12-01 01:17:09
,wl-rdm,62,171759,0.0-6.54-0.54,0.0,62.0,,,,,,,[],,,,False,,,,50.0,0.0,u,0.0,True,808.0,49.0,60.0,40.0,218.31965651024495,[],"[1024, 576]",ColorTask,25.0,55.0,,,HRV,HRV_0323,2022-12-01 01:17:09
,wl-rdm,63,173594,0.0-6.55-0.55,0.0,63.0,,,,,,,[],,,,False,,,,50.0,1.0,u,0.0,False,462.89999985694885,28.0,60.0,40.0,305.8813415405874,[],"[1024, 576]",ColorTask,24.0,56.0,,,HRV,HRV_0323,2022-12-01 01:17:09
,wl-rdm,64,175512,0.0-6.56-0.56,0.0,64.0,,,,,,,[],,,,False,,,,73.6,1.0,i,1.0,True,550.7999999523163,34.0,60.0,40.0,291.00768344587095,[],"[1024, 576]",ColorTask,25.0,57.0,,,HRV,HRV_0323,2022-12-01 01:17:09
,wl-rdm,65,177563,0.0-6.57-0.57,0.0,65.0,,,,,,,[],,,,False,,,,50.0,1.0,i,1.0,True,673.7000000476837,41.0,60.0,40.0,310.7562385677002,[],"[1024, 576]",ColorTask,26.0,58.0,,,HRV,HRV_0323,2022-12-01 01:17:09
,wl-rdm,66,179749,0.0-6.58-0.58,0.0,66.0,,,,,,,[],,,,False,,,,50.0,1.0,u,0.0,False,772.8999998569489,47.0,60.0,40.0,349.7160962616689,[],"[1024, 576]",ColorTask,25.0,59.0,,,HRV,HRV_0323,2022-12-01 01:17:09
,wl-rdm,67,181650,0.0-6.59-0.59,0.0,67.0,,,,,,,[],,,,False,,,,87.9,0.0,u,0.0,True,552.2999999523163,34.0,60.0,40.0,280.4202879569461,[],"[1024, 576]",ColorTask,26.0,60.0,,,HRV,HRV_0323,2022-12-01 01:17:09
,wl-rdm,68,184152,0.0-6.60-0.60,0.0,68.0,,,,,,,[],,,,False,,,,56.4,0.0,u,0.0,True,1152.7000000476837,70.0,60.0,40.0,267.29293928296096,[],"[1024, 576]",ColorTask,27.0,61.0,,,HRV,HRV_0323,2022-12-01 01:17:09
,wl-rdm,69,186154,0.0-6.61-0.61,0.0,69.0,,,,,,,[],,,,False,,,,50.0,1.0,i,1.0,True,636.0999999046326,39.0,60.0,40.0,298.210730493594,[],"[1024, 576]",ColorTask,28.0,62.0,,,HRV,HRV_0323,2022-12-01 01:17:09
,wl-rdm,70,188155,0.0-6.62-0.62,0.0,70.0,,,,,,,[],,,,False,,,,87.9,0.0,u,0.0,True,631.5,38.0,60.0,40.0,300.71718695290997,[],"[1024, 576]",ColorTask,29.0,63.0,,,HRV,HRV_0323,2022-12-01 01:17:09
,wl-rdm,71,190174,0.0-6.63-0.63,0.0,71.0,,,,,,,[],,,,False,,,,62.5,0.0,i,1.0,False,738.1999998092651,45.0,60.0,40.0,206.4682623051905,[],"[1024, 576]",ColorTask,28.0,64.0,,,HRV,HRV_0323,2022-12-01 01:17:09
,wl-rdm,72,191992,0.0-6.64-0.64,0.0,72.0,,,,,,,[],,,,False,,,,53.2,1.0,u,0.0,False,512.5,31.0,60.0,40.0,236.19026375146143,[],"[1024, 576]",ColorTask,27.0,65.0,,,HRV,HRV_0323,2022-12-01 01:17:09
,wl-rdm,73,194244,0.0-6.65-0.65,0.0,73.0,,,,,,,[],,,,False,,,,50.0,0.0,u,0.0,True,837.6000001430511,51.0,60.0,40.0,347.99653243896273,[],"[1024, 576]",ColorTask,28.0,66.0,,,HRV,HRV_0323,2022-12-01 01:17:09
,wl-rdm,74,196462,0.0-6.66-0.66,0.0,74.0,,,,,,,[],,,,False,,,,87.9,1.0,i,1.0,True,894.0,54.0,60.0,40.0,259.7929475976707,[],"[1024, 576]",ColorTask,29.0,67.0,,,HRV,HRV_0323,2022-12-01 01:17:09
,wl-rdm,75,198514,0.0-6.67-0.67,0.0,75.0,,,,,,,[],,,,False,,,,50.0,1.0,i,1.0,True,667.5,41.0,60.0,40.0,314.0119629953147,[],"[1024, 576]",ColorTask,30.0,68.0,,,HRV,HRV_0323,2022-12-01 01:17:09
,wl-rdm,76,200482,0.0-6.68-0.68,0.0,76.0,,,,,,,[],,,,False,,,,73.6,0.0,u,0.0,True,508.5000002384186,31.0,60.0,40.0,391.23876893113646,[],"[1024, 576]",ColorTask,31.0,69.0,,,HRV,HRV_0323,2022-12-01 01:17:09
,wl-rdm,77,202417,0.0-6.69-0.69,0.0,77.0,,,,,,,[],,,,False,,,,73.6,1.0,i,1.0,True,655.5,40.0,60.0,40.0,210.93830183376443,[],"[1024, 576]",ColorTask,32.0,70.0,,,HRV,HRV_0323,2022-12-01 01:17:09
,wl-rdm,78,204535,0.0-6.70-0.70,0.0,78.0,,,,,,,[],,,,False,,,,62.5,1.0,i,1.0,True,700.4000000953674,42.0,60.0,40.0,355.5669871204775,[],"[1024, 576]",ColorTask,33.0,71.0,,,HRV,HRV_0323,2022-12-01 01:17:09
,wl-rdm,79,206437,0.0-6.71-0.71,0.0,79.0,,,,,,,[],,,,False,,,,62.5,1.0,i,1.0,True,528.1999998092651,32.0,60.0,40.0,313.2977118647327,[],"[1024, 576]",ColorTask,34.0,72.0,,,HRV,HRV_0323,2022-12-01 01:17:09
,wl-rdm,80,208655,0.0-6.72-0.72,0.0,80.0,,,,,,,[],,,,False,,,,50.0,0.0,i,1.0,False,894.5999999046326,54.0,60.0,40.0,257.4707287301669,[],"[1024, 576]",ColorTask,33.0,73.0,,,HRV,HRV_0323,2022-12-01 01:17:09
,wl-rdm,81,210874,0.0-6.73-0.73,0.0,81.0,,,,,,,[],,,,False,,,,62.5,0.0,u,0.0,True,948.4000000953674,57.0,60.0,40.0,201.96593285369215,[],"[1024, 576]",ColorTask,34.0,74.0,,,HRV,HRV_0323,2022-12-01 01:17:09
,wl-rdm,82,212942,0.0-6.74-0.74,0.0,82.0,,,,,,,[],,,,False,,,,50.0,1.0,u,0.0,False,658.2000000476837,40.0,60.0,40.0,337.16691831317803,[],"[1024, 576]",ColorTask,33.0,75.0,,,HRV,HRV_0323,2022-12-01 01:17:09
,wl-rdm,83,215011,0.0-6.75-0.75,0.0,83.0,,,,,,,[],,,,False,,,,56.4,0.0,u,0.0,True,740.0,45.0,60.0,40.0,238.7238592935578,[],"[1024, 576]",ColorTask,34.0,76.0,,,HRV,HRV_0323,2022-12-01 01:17:09
,wl-rdm,84,217279,0.0-6.76-0.76,0.0,84.0,,,,,,,[],,,,False,,,,56.4,0.0,u,0.0,True,938.9000000953674,57.0,60.0,40.0,256.67746043008833,[],"[1024, 576]",ColorTask,35.0,77.0,,,HRV,HRV_0323,2022-12-01 01:17:09
,wl-rdm,85,219197,0.0-6.77-0.77,0.0,85.0,,,,,,,[],,,,False,,,,62.5,0.0,i,1.0,False,573.6999998092651,35.0,60.0,40.0,273.915471789557,[],"[1024, 576]",ColorTask,34.0,78.0,,,HRV,HRV_0323,2022-12-01 01:17:09
,wl-rdm,86,221366,0.0-6.78-0.78,0.0,86.0,,,,,,,[],,,,False,,,,62.5,0.0,u,0.0,True,753.1000001430511,46.0,60.0,40.0,336.43764541229973,[],"[1024, 576]",ColorTask,35.0,79.0,,,HRV,HRV_0323,2022-12-01 01:17:09
,wl-rdm,87,223534,0.0-6.79-0.79,0.0,87.0,,,,,,,[],,,,False,,,,56.4,1.0,i,1.0,True,806.5999999046326,49.0,60.0,40.0,299.6742795202661,[],"[1024, 576]",ColorTask,36.0,80.0,,,HRV,HRV_0323,2022-12-01 01:17:09
,wl-rdm,88,225386,0.0-6.80-0.80,0.0,88.0,,,,,,,[],,,,False,,,,73.6,1.0,i,1.0,True,581.3999998569489,35.0,60.0,40.0,203.78278333499028,[],"[1024, 576]",ColorTask,37.0,81.0,,,HRV,HRV_0323,2022-12-01 01:17:09
,wl-rdm,89,227237,0.0-6.81-0.81,0.0,89.0,,,,,,,[],,,,False,,,,73.6,0.0,u,0.0,True,551.2999999523163,34.0,60.0,40.0,218.1596971703137,[],"[1024, 576]",ColorTask,38.0,82.0,,,HRV,HRV_0323,2022-12-01 01:17:09
,wl-rdm,90,229456,0.0-6.82-0.82,0.0,90.0,,,,,,,[],,,,False,,,,56.4,1.0,u,0.0,False,848.2999999523163,51.0,60.0,40.0,303.4846495089616,[],"[1024, 576]",ColorTask,37.0,83.0,,,HRV,HRV_0323,2022-12-01 01:17:09
,wl-rdm,91,231341,0.0-6.83-0.83,0.0,91.0,,,,,,,[],,,,False,,,,62.5,0.0,u,0.0,True,574.5,35.0,60.0,40.0,240.976504909131,[],"[1024, 576]",ColorTask,38.0,84.0,,,HRV,HRV_0323,2022-12-01 01:17:09
,wl-rdm,92,233225,0.0-6.84-0.84,0.0,92.0,,,,,,,[],,,,False,,,,73.6,0.0,u,0.0,True,609.1000001430511,37.0,60.0,40.0,204.6950797548852,[],"[1024, 576]",ColorTask,39.0,85.0,,,HRV,HRV_0323,2022-12-01 01:17:09
,wl-rdm,93,235060,0.0-6.85-0.85,0.0,93.0,,,,,,,[],,,,False,,,,73.6,1.0,i,1.0,True,520.7999999523163,32.0,60.0,40.0,247.61351832296396,[],"[1024, 576]",ColorTask,40.0,86.0,,,HRV,HRV_0323,2022-12-01 01:17:09
,wl-rdm,94,237262,0.0-6.86-0.86,0.0,94.0,,,,,,,[],,,,False,,,,62.5,1.0,i,1.0,True,821.1999998092651,50.0,60.0,40.0,312.5663366017214,[],"[1024, 576]",ColorTask,41.0,87.0,,,HRV,HRV_0323,2022-12-01 01:17:09
,wl-rdm,95,239547,0.0-6.87-0.87,0.0,95.0,,,,,,,[],,,,False,,,,50.0,1.0,i,1.0,True,986.9000000953674,60.0,60.0,40.0,222.7407431521897,[],"[1024, 576]",ColorTask,42.0,88.0,,,HRV,HRV_0323,2022-12-01 01:17:09
,wl-rdm,96,241449,0.0-6.88-0.88,0.0,96.0,,,,,,,[],,,,False,,,,62.5,1.0,i,1.0,True,540.8999998569489,33.0,60.0,40.0,289.61945895142924,[],"[1024, 576]",ColorTask,43.0,89.0,,,HRV,HRV_0323,2022-12-01 01:17:09
,wl-rdm,97,244018,0.0-6.89-0.89,0.0,97.0,,,,,,,[],,,,False,,,,62.5,1.0,u,0.0,False,1120.1000001430511,68.0,60.0,40.0,382.68144090736973,[],"[1024, 576]",ColorTask,42.0,90.0,,,HRV,HRV_0323,2022-12-01 01:17:09
,wl-rdm,98,246103,0.0-6.90-0.90,0.0,98.0,,,,,,,[],,,,False,,,,53.2,0.0,u,0.0,True,802.0,49.0,60.0,40.0,206.23257829426257,[],"[1024, 576]",ColorTask,43.0,91.0,,,HRV,HRV_0323,2022-12-01 01:17:09
,wl-rdm,99,248154,0.0-6.91-0.91,0.0,99.0,,,,,,,[],,,,False,,,,56.4,0.0,i,1.0,False,704.2999999523163,43.0,60.0,40.0,269.89747009980965,[],"[1024, 576]",ColorTask,42.0,92.0,,,HRV,HRV_0323,2022-12-01 01:17:09
,wl-rdm,100,250056,0.0-6.92-0.92,0.0,100.0,,,,,,,[],,,,False,,,,73.6,1.0,i,1.0,True,495.89999985694885,30.0,60.0,40.0,349.7765913922298,[],"[1024, 576]",ColorTask,43.0,93.0,,,HRV,HRV_0323,2022-12-01 01:17:09
,wl-rdm,101,252107,0.0-6.93-0.93,0.0,101.0,,,,,,,[],,,,False,,,,62.5,0.0,i,1.0,False,584.2999999523163,36.0,60.0,40.0,384.85112567496077,[],"[1024, 576]",ColorTask,42.0,94.0,,,HRV,HRV_0323,2022-12-01 01:17:09
,wl-rdm,102,253926,0.0-6.94-0.94,0.0,102.0,,,,,,,[],,,,False,,,,87.9,1.0,i,1.0,True,491.7999999523163,30.0,60.0,40.0,256.6444862806588,[],"[1024, 576]",ColorTask,43.0,95.0,,,HRV,HRV_0323,2022-12-01 01:17:09
,wl-rdm,103,255994,0.0-6.95-0.95,0.0,103.0,,,,,,,[],,,,False,,,,50.0,1.0,u,0.0,False,606.5,37.0,60.0,40.0,388.79187818168975,[],"[1024, 576]",ColorTask,42.0,96.0,,,HRV,HRV_0323,2022-12-01 01:17:09
,wl-rdm,104,257996,0.0-6.96-0.96,0.0,104.0,,,,,,,[],,,,False,,,,53.2,0.0,i,1.0,False,619.6000001430511,38.0,60.0,40.0,301.6570627606663,[],"[1024, 576]",ColorTask,41.0,97.0,,,HRV,HRV_0323,2022-12-01 01:17:09
,wl-rdm,105,260014,0.0-6.97-0.97,0.0,105.0,,,,,,,[],,,,False,,,,73.6,0.0,u,0.0,True,562.5999999046326,34.0,60.0,40.0,385.9620567393596,[],"[1024, 576]",ColorTask,42.0,98.0,,,HRV,HRV_0323,2022-12-01 01:17:09
,wl-rdm,106,261899,0.0-6.98-0.98,0.0,106.0,,,,,,,[],,,,False,,,,87.9,1.0,i,1.0,True,518.3000001907349,32.0,60.0,40.0,284.2003175836569,[],"[1024, 576]",ColorTask,43.0,99.0,,,HRV,HRV_0323,2022-12-01 01:17:09
,wl-rdm,107,263750,0.0-6.99-0.99,0.0,107.0,,,,,,,[],,,,False,,,,73.6,1.0,i,1.0,True,562.0,34.0,60.0,40.0,228.16504009159104,[],"[1024, 576]",ColorTask,44.0,100.0,,,HRV,HRV_0323,2022-12-01 01:17:09
,wl-rdm,108,265919,0.0-6.100-0.100,0.0,108.0,,,,,,,[],,,,False,,,,87.9,0.0,u,0.0,True,772.6000001430511,47.0,60.0,40.0,332.58324375677347,[],"[1024, 576]",ColorTask,45.0,101.0,,,HRV,HRV_0323,2022-12-01 01:17:09
,wl-rdm,109,267737,0.0-6.101-0.101,0.0,109.0,,,,,,,[],,,,False,,,,73.6,0.0,u,0.0,True,529.7999999523163,32.0,60.0,40.0,223.66194483962926,[],"[1024, 576]",ColorTask,46.0,102.0,,,HRV,HRV_0323,2022-12-01 01:17:09
,wl-rdm,110,269706,0.0-6.102-0.102,0.0,110.0,,,,,,,[],,,,False,,,,73.6,0.0,u,0.0,True,538.3000001907349,33.0,60.0,40.0,357.50603103798363,[],"[1024, 576]",ColorTask,47.0,103.0,,,HRV,HRV_0323,2022-12-01 01:17:09
,wl-rdm,111,271607,0.0-6.103-0.103,0.0,111.0,,,,,,,[],,,,False,,,,53.2,0.0,i,1.0,False,628.0999999046326,38.0,60.0,40.0,204.6893654258346,[],"[1024, 576]",ColorTask,46.0,104.0,,,HRV,HRV_0323,2022-12-01 01:17:09
,wl-rdm,112,273092,0.0-6.104-0.104,0.0,112.0,,,,,,,[],,,,False,,,,50.0,0.0,i,1.0,False,129.5,8.0,60.0,40.0,293.7501049338605,[],"[1024, 576]",ColorTask,45.0,105.0,,,HRV,HRV_0323,2022-12-01 01:17:09
,wl-rdm,113,275110,0.0-6.105-0.105,0.0,113.0,,,,,,,[],,,,False,,,,87.9,0.0,u,0.0,True,684.2999999523163,42.0,60.0,40.0,251.69278399188238,[],"[1024, 576]",ColorTask,46.0,106.0,,,HRV,HRV_0323,2022-12-01 01:17:09
,wl-rdm,114,277228,0.0-6.106-0.106,0.0,114.0,,,,,,,[],,,,False,,,,56.4,1.0,u,0.0,False,694.2000000476837,42.0,60.0,40.0,353.0938052815467,[],"[1024, 576]",ColorTask,45.0,107.0,,,HRV,HRV_0323,2022-12-01 01:17:09
,wl-rdm,115,279280,0.0-6.107-0.107,0.0,115.0,,,,,,,[],,,,False,,,,50.0,0.0,i,1.0,False,738.2999999523163,45.0,60.0,40.0,240.43006613811215,[],"[1024, 576]",ColorTask,44.0,108.0,,,HRV,HRV_0323,2022-12-01 01:17:09
,wl-html-keyboard-response,116,286896,0.0-7.0-0.0,1.0,116.0,,,,,,,,6122.700000047684,1.0,0,,,,,,,,,,,,,,,,,,,,,,HRV,HRV_0323,2022-12-01 01:17:09
,wl-rdm,117,289205,0.0-8.0-0.0,1.0,117.0,,,,,,,[],,,,False,,,,62.5,1.0,i,1.0,True,995.7999999523163,60.0,60.0,40.0,257.1374113894653,[],"[1024, 576]",ColorTask,45.0,1.0,,,HRV,HRV_0323,2022-12-01 01:17:09
,wl-rdm,118,291156,0.0-8.1-0.1,1.0,118.0,,,,,,,[],,,,False,,,,50.0,0.0,i,1.0,False,622.6999998092651,38.0,60.0,40.0,253.74865416537423,[],"[1024, 576]",ColorTask,44.0,2.0,,,HRV,HRV_0323,2022-12-01 01:17:09
,wl-rdm,119,293175,0.0-8.2-0.2,1.0,119.0,,,,,,,[],,,,False,,,,53.2,1.0,u,0.0,False,672.7000000476837,41.0,60.0,40.0,271.7518296313286,[],"[1024, 576]",ColorTask,43.0,3.0,,,HRV,HRV_0323,2022-12-01 01:17:09
,wl-rdm,120,295126,0.0-8.3-0.3,1.0,120.0,,,,,,,[],,,,False,,,,73.6,0.0,i,1.0,False,529.2999999523163,32.0,60.0,40.0,359.2871672475868,[],"[1024, 576]",ColorTask,42.0,4.0,,,HRV,HRV_0323,2022-12-01 01:17:09
,wl-rdm,121,297011,0.0-8.4-0.4,1.0,121.0,,,,,,,[],,,,False,,,,73.6,0.0,u,0.0,True,538.7000000476837,33.0,60.0,40.0,268.5515708758577,[],"[1024, 576]",ColorTask,43.0,5.0,,,HRV,HRV_0323,2022-12-01 01:17:09
,wl-rdm,122,299030,0.0-8.5-0.5,1.0,122.0,,,,,,,[],,,,False,,,,56.4,0.0,u,0.0,True,707.7000000476837,43.0,60.0,40.0,237.95691131027695,[],"[1024, 576]",ColorTask,44.0,6.0,,,HRV,HRV_0323,2022-12-01 01:17:09
,wl-rdm,123,301231,0.0-8.6-0.6,1.0,123.0,,,,,,,[],,,,False,,,,73.6,0.0,u,0.0,True,922.7000000476837,56.0,60.0,40.0,212.59893008211372,[],"[1024, 576]",ColorTask,45.0,7.0,,,HRV,HRV_0323,2022-12-01 01:17:09
,wl-rdm,124,303433,0.0-8.7-0.7,1.0,124.0,,,,,,,[],,,,False,,,,87.9,1.0,i,1.0,True,912.0,55.0,60.0,40.0,217.30621858681644,[],"[1024, 576]",ColorTask,46.0,8.0,,,HRV,HRV_0323,2022-12-01 01:17:09
,wl-rdm,125,306152,0.0-8.8-0.8,1.0,125.0,,,,,,,[],,,,False,,,,73.6,0.0,u,0.0,True,1317.3999998569489,79.0,60.0,40.0,335.83121120165583,[],"[1024, 576]",ColorTask,47.0,9.0,,,HRV,HRV_0323,2022-12-01 01:17:09
,wl-rdm,126,308988,0.0-8.9-0.9,1.0,126.0,,,,,,,[],,,,False,,,,53.2,0.0,u,0.0,True,1415.7999999523163,85.0,60.0,40.0,357.72394804876967,[],"[1024, 576]",ColorTask,48.0,10.0,,,HRV,HRV_0323,2022-12-01 01:17:09
,wl-rdm,127,311356,0.0-8.10-0.10,1.0,127.0,,,,,,,[],,,,False,,,,53.2,1.0,i,1.0,True,903.0999999046326,55.0,60.0,40.0,394.7661762807812,[],"[1024, 576]",ColorTask,49.0,11.0,,,HRV,HRV_0323,2022-12-01 01:17:09
,wl-rdm,128,313324,0.0-8.11-0.11,1.0,128.0,,,,,,,[],,,,False,,,,73.6,1.0,i,1.0,True,683.1000001430511,41.0,60.0,40.0,223.8080441002046,[],"[1024, 576]",ColorTask,50.0,12.0,,,HRV,HRV_0323,2022-12-01 01:17:09
,wl-rdm,129,315259,0.0-8.12-0.12,1.0,129.0,,,,,,,[],,,,False,,,,56.4,1.0,i,1.0,True,648.5,39.0,60.0,40.0,220.1786710482336,[],"[1024, 576]",ColorTask,51.0,13.0,,,HRV,HRV_0323,2022-12-01 01:17:09
,wl-rdm,130,317628,0.0-8.13-0.13,1.0,130.0,,,,,,,[],,,,False,,,,56.4,0.0,u,0.0,True,917.2000000476837,55.0,60.0,40.0,399.9880991912437,[],"[1024, 576]",ColorTask,52.0,14.0,,,HRV,HRV_0323,2022-12-01 01:17:09
,wl-rdm,131,319479,0.0-8.14-0.14,1.0,131.0,,,,,,,[],,,,False,,,,87.9,1.0,i,1.0,True,482.09999990463257,29.0,60.0,40.0,305.28488398914396,[],"[1024, 576]",ColorTask,53.0,15.0,,,HRV,HRV_0323,2022-12-01 01:17:09
,wl-rdm,132,321548,0.0-8.15-0.15,1.0,132.0,,,,,,,[],,,,False,,,,62.5,1.0,i,1.0,True,615.2999999523163,37.0,60.0,40.0,396.46630565732687,[],"[1024, 576]",ColorTask,54.0,16.0,,,HRV,HRV_0323,2022-12-01 01:17:09
,wl-rdm,133,323433,0.0-8.16-0.16,1.0,133.0,,,,,,,[],,,,False,,,,56.4,1.0,i,1.0,True,616.1999998092651,37.0,60.0,40.0,200.54112048385866,[],"[1024, 576]",ColorTask,55.0,17.0,,,HRV,HRV_0323,2022-12-01 01:17:09
,wl-rdm,134,325334,0.0-8.17-0.17,1.0,134.0,,,,,,,[],,,,False,,,,62.5,1.0,i,1.0,True,531.1999998092651,32.0,60.0,40.0,304.2977033519826,[],"[1024, 576]",ColorTask,56.0,18.0,,,HRV,HRV_0323,2022-12-01 01:17:09
,wl-rdm,135,327336,0.0-8.18-0.18,1.0,135.0,,,,,,,[],,,,False,,,,56.4,1.0,i,1.0,True,725.5999999046326,44.0,60.0,40.0,204.14868927566138,[],"[1024, 576]",ColorTask,57.0,19.0,,,HRV,HRV_0323,2022-12-01 01:17:09
,wl-rdm,136,329371,0.0-8.19-0.19,1.0,136.0,,,,,,,[],,,,False,,,,87.9,0.0,u,0.0,True,597.4000000953674,36.0,60.0,40.0,379.2622486256911,[],"[1024, 576]",ColorTask,58.0,20.0,,,HRV,HRV_0323,2022-12-01 01:17:09
,wl-rdm,137,331439,0.0-8.20-0.20,1.0,137.0,,,,,,,[],,,,False,,,,56.4,0.0,u,0.0,True,695.3000001907349,42.0,60.0,40.0,314.89895291963956,[],"[1024, 576]",ColorTask,59.0,21.0,,,HRV,HRV_0323,2022-12-01 01:17:09
,wl-rdm,138,333591,0.0-8.21-0.21,1.0,138.0,,,,,,,[],,,,False,,,,62.5,1.0,i,1.0,True,862.1000001430511,52.0,60.0,40.0,222.27743194243436,[],"[1024, 576]",ColorTask,60.0,22.0,,,HRV,HRV_0323,2022-12-01 01:17:09
,wl-rdm,139,335576,0.0-8.22-0.22,1.0,139.0,,,,,,,[],,,,False,,,,87.9,0.0,u,0.0,True,660.8999998569489,40.0,60.0,40.0,263.710786304133,[],"[1024, 576]",ColorTask,61.0,23.0,,,HRV,HRV_0323,2022-12-01 01:17:09
,wl-rdm,140,337461,0.0-8.23-0.23,1.0,140.0,,,,,,,[],,,,False,,,,73.6,1.0,i,1.0,True,493.19999980926514,30.0,60.0,40.0,328.7349111768924,[],"[1024, 576]",ColorTask,62.0,24.0,,,HRV,HRV_0323,2022-12-01 01:17:09
,wl-rdm,141,339863,0.0-8.24-0.24,1.0,141.0,,,,,,,[],,,,False,,,,56.4,0.0,i,1.0,False,1010.7000000476837,61.0,60.0,40.0,328.06341760912824,[],"[1024, 576]",ColorTask,61.0,25.0,,,HRV,HRV_0323,2022-12-01 01:17:09
,wl-rdm,142,342548,0.0-8.25-0.25,1.0,142.0,,,,,,,[],,,,False,,,,50.0,1.0,i,1.0,True,1355.0999999046326,82.0,60.0,40.0,252.38238289120486,[],"[1024, 576]",ColorTask,62.0,26.0,,,HRV,HRV_0323,2022-12-01 01:17:09
,wl-rdm,143,344383,0.0-8.26-0.26,1.0,143.0,,,,,,,[],,,,False,,,,50.0,0.0,u,0.0,True,557.7000000476837,34.0,60.0,40.0,200.52322225653512,[],"[1024, 576]",ColorTask,63.0,27.0,,,HRV,HRV_0323,2022-12-01 01:17:09
,wl-rdm,144,346401,0.0-8.27-0.27,1.0,144.0,,,,,,,[],,,,False,,,,56.4,0.0,i,1.0,False,568.0999999046326,35.0,60.0,40.0,378.5687538212255,[],"[1024, 576]",ColorTask,62.0,28.0,,,HRV,HRV_0323,2022-12-01 01:17:09
,wl-rdm,145,349004,0.0-8.28-0.28,1.0,145.0,,,,,,,[],,,,False,,,,50.0,0.0,i,1.0,False,1184.7999999523163,72.0,60.0,40.0,340.44461122107714,[],"[1024, 576]",ColorTask,61.0,29.0,,,HRV,HRV_0323,2022-12-01 01:17:09
,wl-rdm,146,351072,0.0-8.29-0.29,1.0,146.0,,,,,,,[],,,,False,,,,73.6,1.0,i,1.0,True,717.0,43.0,60.0,40.0,283.7200940911874,[],"[1024, 576]",ColorTask,62.0,30.0,,,HRV,HRV_0323,2022-12-01 01:17:09
,wl-rdm,147,353424,0.0-8.30-0.30,1.0,147.0,,,,,,,[],,,,False,,,,50.0,0.0,u,0.0,True,1030.0,62.0,60.0,40.0,263.51478300839966,[],"[1024, 576]",ColorTask,63.0,31.0,,,HRV,HRV_0323,2022-12-01 01:17:09
,wl-rdm,148,355492,0.0-8.31-0.31,1.0,148.0,,,,,,,[],,,,False,,,,62.5,1.0,i,1.0,True,779.5,47.0,60.0,40.0,223.20118860419677,[],"[1024, 576]",ColorTask,64.0,32.0,,,HRV,HRV_0323,2022-12-01 01:17:09
,wl-rdm,149,357761,0.0-8.32-0.32,1.0,149.0,,,,,,,[],,,,False,,,,53.2,1.0,i,1.0,True,854.2999999523163,52.0,60.0,40.0,339.2475230000425,[],"[1024, 576]",ColorTask,65.0,33.0,,,HRV,HRV_0323,2022-12-01 01:17:09
,wl-rdm,150,359729,0.0-8.33-0.33,1.0,150.0,,,,,,,[],,,,False,,,,53.2,0.0,u,0.0,True,697.5999999046326,42.0,60.0,40.0,211.90189602407133,[],"[1024, 576]",ColorTask,66.0,34.0,,,HRV,HRV_0323,2022-12-01 01:17:09
,wl-rdm,151,361947,0.0-8.34-0.34,1.0,151.0,,,,,,,[],,,,False,,,,56.4,0.0,u,0.0,True,945.0,57.0,60.0,40.0,210.47344378602776,[],"[1024, 576]",ColorTask,67.0,35.0,,,HRV,HRV_0323,2022-12-01 01:17:09
,wl-rdm,152,364083,0.0-8.35-0.35,1.0,152.0,,,,,,,[],,,,False,,,,62.5,1.0,i,1.0,True,821.0,50.0,60.0,40.0,241.61923539428247,[],"[1024, 576]",ColorTask,68.0,36.0,,,HRV,HRV_0323,2022-12-01 01:17:09
,wl-rdm,153,366118,0.0-8.36-0.36,1.0,153.0,,,,,,,[],,,,False,,,,73.6,1.0,i,1.0,True,601.4000000953674,37.0,60.0,40.0,363.6318508702975,[],"[1024, 576]",ColorTask,69.0,37.0,,,HRV,HRV_0323,2022-12-01 01:17:09
,wl-rdm,154,368153,0.0-8.37-0.37,1.0,154.0,,,,,,,[],,,,False,,,,56.4,0.0,u,0.0,True,745.7999999523163,45.0,60.0,40.0,227.5542090698635,[],"[1024, 576]",ColorTask,70.0,38.0,,,HRV,HRV_0323,2022-12-01 01:17:09
,wl-rdm,155,370188,0.0-8.38-0.38,1.0,155.0,,,,,,,[],,,,False,,,,73.6,1.0,i,1.0,True,588.5999999046326,36.0,60.0,40.0,368.67305868117137,[],"[1024, 576]",ColorTask,71.0,39.0,,,HRV,HRV_0323,2022-12-01 01:17:09
,wl-rdm,156,372306,0.0-8.39-0.39,1.0,156.0,,,,,,,[],,,,False,,,,56.4,0.0,u,0.0,True,727.8999998569489,44.0,60.0,40.0,325.25754511976027,[],"[1024, 576]",ColorTask,72.0,40.0,,,HRV,HRV_0323,2022-12-01 01:17:09
,wl-rdm,157,374258,0.0-8.40-0.40,1.0,157.0,,,,,,,[],,,,False,,,,73.6,1.0,i,1.0,True,676.1000001430511,41.0,60.0,40.0,216.05698011849677,[],"[1024, 576]",ColorTask,73.0,41.0,,,HRV,HRV_0323,2022-12-01 01:17:09
,wl-rdm,158,376092,0.0-8.41-0.41,1.0,158.0,,,,,,,[],,,,False,,,,87.9,0.0,u,0.0,True,508.5,31.0,60.0,40.0,263.97221600987655,[],"[1024, 576]",ColorTask,74.0,42.0,,,HRV,HRV_0323,2022-12-01 01:17:09
,wl-rdm,159,378227,0.0-8.42-0.42,1.0,159.0,,,,,,,[],,,,False,,,,50.0,1.0,u,0.0,False,694.9000000953674,42.0,60.0,40.0,380.7938985900621,[],"[1024, 576]",ColorTask,73.0,43.0,,,HRV,HRV_0323,2022-12-01 01:17:09
,wl-rdm,160,381030,0.0-8.43-0.43,1.0,160.0,,,,,,,[],,,,False,,,,53.2,0.0,u,0.0,True,1463.8999998569489,88.0,60.0,40.0,268.45159354206754,[],"[1024, 576]",ColorTask,74.0,44.0,,,HRV,HRV_0323,2022-12-01 01:17:09
,wl-rdm,161,383131,0.0-8.44-0.44,1.0,161.0,,,,,,,[],,,,False,,,,50.0,0.0,i,1.0,False,772.1999998092651,47.0,60.0,40.0,264.293438896489,[],"[1024, 576]",ColorTask,73.0,45.0,,,HRV,HRV_0323,2022-12-01 01:17:09
,wl-rdm,162,385650,0.0-8.45-0.45,1.0,162.0,,,,,,,[],,,,False,,,,56.4,1.0,i,1.0,True,1155.2999999523163,70.0,60.0,40.0,290.6150831622499,[],"[1024, 576]",ColorTask,74.0,46.0,,,HRV,HRV_0323,2022-12-01 01:17:09
,wl-rdm,163,387935,0.0-8.46-0.46,1.0,163.0,,,,,,,[],,,,False,,,,62.5,0.0,u,0.0,True,997.2999997138977,60.0,60.0,40.0,222.33303803652842,[],"[1024, 576]",ColorTask,75.0,47.0,,,HRV,HRV_0323,2022-12-01 01:17:09
,wl-rdm,164,389853,0.0-8.47-0.47,1.0,164.0,,,,,,,[],,,,False,,,,62.5,1.0,i,1.0,True,607.4000000953674,37.0,60.0,40.0,237.96045949453566,[],"[1024, 576]",ColorTask,76.0,48.0,,,HRV,HRV_0323,2022-12-01 01:17:09
,wl-rdm,165,391688,0.0-8.48-0.48,1.0,165.0,,,,,,,[],,,,False,,,,87.9,1.0,i,1.0,True,499.7000000476837,30.0,60.0,40.0,279.4030092264464,[],"[1024, 576]",ColorTask,77.0,49.0,,,HRV,HRV_0323,2022-12-01 01:17:09
,wl-rdm,166,393707,0.0-8.49-0.49,1.0,166.0,,,,,,,[],,,,False,,,,53.2,1.0,i,1.0,True,672.7999999523163,41.0,60.0,40.0,270.1417621693554,[],"[1024, 576]",ColorTask,78.0,50.0,,,HRV,HRV_0323,2022-12-01 01:17:09
,wl-rdm,167,395958,0.0-8.50-0.50,1.0,167.0,,,,,,,[],,,,False,,,,50.0,0.0,u,0.0,True,889.7000000476837,54.0,60.0,40.0,287.808843814823,[],"[1024, 576]",ColorTask,79.0,51.0,,,HRV,HRV_0323,2022-12-01 01:17:09
,wl-rdm,168,397960,0.0-8.51-0.51,1.0,168.0,,,,,,,[],,,,False,,,,62.5,1.0,i,1.0,True,586.1000001430511,36.0,60.0,40.0,339.82207611300487,[],"[1024, 576]",ColorTask,80.0,52.0,,,HRV,HRV_0323,2022-12-01 01:17:09
,wl-rdm,169,399795,0.0-8.52-0.52,1.0,169.0,,,,,,,[],,,,False,,,,50.0,1.0,i,1.0,True,543.2999999523163,33.0,60.0,40.0,225.98092014950288,[],"[1024, 576]",ColorTask,81.0,53.0,,,HRV,HRV_0323,2022-12-01 01:17:09
,wl-rdm,170,401830,0.0-8.53-0.53,1.0,170.0,,,,,,,[],,,,False,,,,73.6,0.0,u,0.0,True,625.7000000476837,38.0,60.0,40.0,339.3435672258813,[],"[1024, 576]",ColorTask,82.0,54.0,,,HRV,HRV_0323,2022-12-01 01:17:09
,wl-rdm,171,403948,0.0-8.54-0.54,1.0,171.0,,,,,,,[],,,,False,,,,73.6,1.0,i,1.0,True,664.6000001430511,40.0,60.0,40.0,394.66795089529944,[],"[1024, 576]",ColorTask,83.0,55.0,,,HRV,HRV_0323,2022-12-01 01:17:09
,wl-rdm,172,405983,0.0-8.55-0.55,1.0,172.0,,,,,,,[],,,,False,,,,87.9,0.0,u,0.0,True,765.5,46.0,60.0,40.0,201.36103822464977,[],"[1024, 576]",ColorTask,84.0,56.0,,,HRV,HRV_0323,2022-12-01 01:17:09
,wl-rdm,173,408118,0.0-8.56-0.56,1.0,173.0,,,,,,,[],,,,False,,,,87.9,0.0,u,0.0,True,706.5,43.0,60.0,40.0,358.3235857877864,[],"[1024, 576]",ColorTask,85.0,57.0,,,HRV,HRV_0323,2022-12-01 01:17:09
,wl-rdm,174,410137,0.0-8.57-0.57,1.0,174.0,,,,,,,[],,,,False,,,,56.4,0.0,i,1.0,False,710.2999999523163,43.0,60.0,40.0,237.64459041657562,[],"[1024, 576]",ColorTask,84.0,58.0,,,HRV,HRV_0323,2022-12-01 01:17:09
,wl-rdm,175,412305,0.0-8.58-0.58,1.0,175.0,,,,,,,[],,,,False,,,,53.2,1.0,i,1.0,True,745.5,45.0,60.0,40.0,365.146156605604,[],"[1024, 576]",ColorTask,85.0,59.0,,,HRV,HRV_0323,2022-12-01 01:17:09
,wl-rdm,176,414190,0.0-8.59-0.59,1.0,176.0,,,,,,,[],,,,False,,,,73.6,0.0,u,0.0,True,540.1999998092651,33.0,60.0,40.0,269.66510560479753,[],"[1024, 576]",ColorTask,86.0,60.0,,,HRV,HRV_0323,2022-12-01 01:17:09
,wl-rdm,177,416525,0.0-8.60-0.60,1.0,177.0,,,,,,,[],,,,False,,,,53.2,1.0,u,0.0,False,877.0,53.0,60.0,40.0,392.58445018618994,[],"[1024, 576]",ColorTask,85.0,61.0,,,HRV,HRV_0323,2022-12-01 01:17:09
,wl-rdm,178,418860,0.0-8.61-0.61,1.0,178.0,,,,,,,[],,,,False,,,,56.4,1.0,i,1.0,True,898.0,54.0,60.0,40.0,380.3768130562946,[],"[1024, 576]",ColorTask,86.0,62.0,,,HRV,HRV_0323,2022-12-01 01:17:09
,wl-rdm,179,421112,0.0-8.62-0.62,1.0,179.0,,,,,,,[],,,,False,,,,53.2,0.0,u,0.0,True,966.8999998569489,58.0,60.0,40.0,229.52136519438136,[],"[1024, 576]",ColorTask,87.0,63.0,,,HRV,HRV_0323,2022-12-01 01:17:09
,wl-rdm,180,423331,0.0-8.63-0.63,1.0,180.0,,,,,,,[],,,,False,,,,62.5,0.0,u,0.0,True,889.7000000476837,54.0,60.0,40.0,264.0359531863518,[],"[1024, 576]",ColorTask,88.0,64.0,,,HRV,HRV_0323,2022-12-01 01:17:09
,wl-rdm,181,425332,0.0-8.64-0.64,1.0,181.0,,,,,,,[],,,,False,,,,53.2,1.0,u,0.0,False,704.4000000953674,43.0,60.0,40.0,231.60600936962547,[],"[1024, 576]",ColorTask,87.0,65.0,,,HRV,HRV_0323,2022-12-01 01:17:09
,wl-rdm,182,427417,0.0-8.65-0.65,1.0,182.0,,,,,,,[],,,,False,,,,50.0,0.0,u,0.0,True,746.7999999523163,45.0,60.0,40.0,278.3748752521908,[],"[1024, 576]",ColorTask,88.0,66.0,,,HRV,HRV_0323,2022-12-01 01:17:09
,wl-rdm,183,429652,0.0-8.66-0.66,1.0,183.0,,,,,,,[],,,,False,,,,73.6,1.0,i,1.0,True,862.4000000953674,52.0,60.0,40.0,303.5086964810799,[],"[1024, 576]",ColorTask,89.0,67.0,,,HRV,HRV_0323,2022-12-01 01:17:09
,wl-rdm,184,432271,0.0-8.67-0.67,1.0,184.0,,,,,,,[],,,,False,,,,56.4,1.0,u,0.0,False,1318.6999998092651,80.0,60.0,40.0,232.14536248195301,[],"[1024, 576]",ColorTask,88.0,68.0,,,HRV,HRV_0323,2022-12-01 01:17:09
,wl-rdm,185,434573,0.0-8.68-0.68,1.0,185.0,,,,,,,[],,,,False,,,,73.6,0.0,u,0.0,True,880.3999998569489,53.0,60.0,40.0,365.65059213028127,[],"[1024, 576]",ColorTask,89.0,69.0,,,HRV,HRV_0323,2022-12-01 01:17:09
,wl-rdm,186,436625,0.0-8.69-0.69,1.0,186.0,,,,,,,[],,,,False,,,,53.2,1.0,i,1.0,True,628.7000000476837,38.0,60.0,40.0,361.6524874142592,[],"[1024, 576]",ColorTask,90.0,70.0,,,HRV,HRV_0323,2022-12-01 01:17:09
,wl-rdm,187,438660,0.0-8.70-0.70,1.0,187.0,,,,,,,[],,,,False,,,,50.0,1.0,u,0.0,False,627.7000000476837,38.0,60.0,40.0,341.1212400273249,[],"[1024, 576]",ColorTask,89.0,71.0,,,HRV,HRV_0323,2022-12-01 01:17:09
,wl-rdm,188,440878,0.0-8.71-0.71,1.0,188.0,,,,,,,[],,,,False,,,,50.0,1.0,u,0.0,False,791.7999999523163,48.0,60.0,40.0,354.9175440278724,[],"[1024, 576]",ColorTask,88.0,72.0,,,HRV,HRV_0323,2022-12-01 01:17:09
,wl-rdm,189,443163,0.0-8.72-0.72,1.0,189.0,,,,,,,[],,,,False,,,,62.5,0.0,u,0.0,True,834.1000001430511,50.0,60.0,40.0,386.25366476695916,[],"[1024, 576]",ColorTask,89.0,73.0,,,HRV,HRV_0323,2022-12-01 01:17:09
,wl-rdm,190,445265,0.0-8.73-0.73,1.0,190.0,,,,,,,[],,,,False,,,,50.0,0.0,u,0.0,True,711.7999999523163,43.0,60.0,40.0,324.9468345847464,[],"[1024, 576]",ColorTask,90.0,74.0,,,HRV,HRV_0323,2022-12-01 01:17:09
,wl-rdm,191,447333,0.0-8.74-0.74,1.0,191.0,,,,,,,[],,,,False,,,,87.9,0.0,u,0.0,True,725.9000000953674,44.0,60.0,40.0,267.8139289557705,[],"[1024, 576]",ColorTask,91.0,75.0,,,HRV,HRV_0323,2022-12-01 01:17:09
,wl-rdm,192,449352,0.0-8.75-0.75,1.0,192.0,,,,,,,[],,,,False,,,,73.6,1.0,i,1.0,True,707.0,43.0,60.0,40.0,238.23507040622758,[],"[1024, 576]",ColorTask,92.0,76.0,,,HRV,HRV_0323,2022-12-01 01:17:09
,wl-rdm,193,451136,0.0-8.76-0.76,1.0,193.0,,,,,,,[],,,,False,,,,87.9,0.0,u,0.0,True,513.9000000953674,31.0,60.0,40.0,210.43825907787843,[],"[1024, 576]",ColorTask,93.0,77.0,,,HRV,HRV_0323,2022-12-01 01:17:09
,wl-rdm,194,453372,0.0-8.77-0.77,1.0,194.0,,,,,,,[],,,,False,,,,62.5,0.0,u,0.0,True,878.5,53.0,60.0,40.0,291.63123305857835,[],"[1024, 576]",ColorTask,94.0,78.0,,,HRV,HRV_0323,2022-12-01 01:17:09
,wl-rdm,195,455740,0.0-8.78-0.78,1.0,195.0,,,,,,,[],,,,False,,,,53.2,0.0,i,1.0,False,1083.3999998569489,65.0,60.0,40.0,226.45281568247043,[],"[1024, 576]",ColorTask,93.0,79.0,,,HRV,HRV_0323,2022-12-01 01:17:09
,wl-rdm,196,457742,0.0-8.79-0.79,1.0,196.0,,,,,,,[],,,,False,,,,87.9,0.0,u,0.0,True,588.0,36.0,60.0,40.0,336.6508638428281,[],"[1024, 576]",ColorTask,94.0,80.0,,,HRV,HRV_0323,2022-12-01 01:17:09
,wl-rdm,197,459793,0.0-8.80-0.80,1.0,197.0,,,,,,,[],,,,False,,,,73.6,0.0,u,0.0,True,661.1999998092651,40.0,60.0,40.0,320.3714605480031,[],"[1024, 576]",ColorTask,95.0,81.0,,,HRV,HRV_0323,2022-12-01 01:17:09
,wl-rdm,198,461645,0.0-8.81-0.81,1.0,198.0,,,,,,,[],,,,False,,,,87.9,1.0,i,1.0,True,582.1999998092651,35.0,60.0,40.0,205.12343496510826,[],"[1024, 576]",ColorTask,96.0,82.0,,,HRV,HRV_0323,2022-12-01 01:17:09
,wl-rdm,199,463847,0.0-8.82-0.82,1.0,199.0,,,,,,,[],,,,False,,,,56.4,1.0,i,1.0,True,841.1999998092651,51.0,60.0,40.0,296.74399047241565,[],"[1024, 576]",ColorTask,97.0,83.0,,,HRV,HRV_0323,2022-12-01 01:17:09
,wl-rdm,200,466416,0.0-8.83-0.83,1.0,200.0,,,,,,,[],,,,False,,,,62.5,0.0,u,0.0,True,1132.3000001907349,68.0,60.0,40.0,370.3605625929159,[],"[1024, 576]",ColorTask,98.0,84.0,,,HRV,HRV_0323,2022-12-01 01:17:09
,wl-rdm,201,468217,0.0-8.84-0.84,1.0,201.0,,,,,,,[],,,,False,,,,87.9,1.0,i,1.0,True,532.0,32.0,60.0,40.0,202.90912186408647,[],"[1024, 576]",ColorTask,99.0,85.0,,,HRV,HRV_0323,2022-12-01 01:17:09
,wl-rdm,202,470285,0.0-8.85-0.85,1.0,202.0,,,,,,,[],,,,False,,,,62.5,0.0,i,1.0,False,686.5,42.0,60.0,40.0,312.211687255535,[],"[1024, 576]",ColorTask,98.0,86.0,,,HRV,HRV_0323,2022-12-01 01:17:09
,wl-rdm,203,472270,0.0-8.86-0.86,1.0,203.0,,,,,,,[],,,,False,,,,73.6,0.0,u,0.0,True,691.5999999046326,42.0,60.0,40.0,233.34081123268075,[],"[1024, 576]",ColorTask,99.0,87.0,,,HRV,HRV_0323,2022-12-01 01:17:09
,wl-rdm,204,474139,0.0-8.87-0.87,1.0,204.0,,,,,,,[],,,,False,,,,56.4,1.0,i,1.0,True,558.0,34.0,60.0,40.0,240.87690802977835,[],"[1024, 576]",ColorTask,100.0,88.0,,,HRV,HRV_0323,2022-12-01 01:17:09
,wl-rdm,205,476090,0.0-8.88-0.88,1.0,205.0,,,,,,,[],,,,False,,,,56.4,1.0,u,0.0,False,631.0999999046326,38.0,60.0,40.0,260.7083638100345,[],"[1024, 576]",ColorTask,99.0,89.0,,,HRV,HRV_0323,2022-12-01 01:17:09
,wl-rdm,206,478776,0.0-8.89-0.89,1.0,206.0,,,,,,,[],,,,False,,,,53.2,1.0,i,1.0,True,1238.6000001430511,75.0,60.0,40.0,379.4076779171377,[],"[1024, 576]",ColorTask,100.0,90.0,,,HRV,HRV_0323,2022-12-01 01:17:09
,wl-rdm,207,481128,0.0-8.90-0.90,1.0,207.0,,,,,,,[],,,,False,,,,62.5,0.0,u,0.0,True,994.5,60.0,60.0,40.0,295.7705078107213,[],"[1024, 576]",ColorTask,101.0,91.0,,,HRV,HRV_0323,2022-12-01 01:17:09
,wl-rdm,208,483363,0.0-8.91-0.91,1.0,208.0,,,,,,,[],,,,False,,,,53.2,0.0,u,0.0,True,960.8000001907349,58.0,60.0,40.0,200.74742073432603,[],"[1024, 576]",ColorTask,102.0,92.0,,,HRV,HRV_0323,2022-12-01 01:17:09
,wl-rdm,209,485698,0.0-8.92-0.92,1.0,209.0,,,,,,,[],,,,False,,,,50.0,1.0,i,1.0,True,1008.8999998569489,61.0,60.0,40.0,257.41582115035726,[],"[1024, 576]",ColorTask,103.0,93.0,,,HRV,HRV_0323,2022-12-01 01:17:09
,wl-rdm,210,487750,0.0-8.93-0.93,1.0,210.0,,,,,,,[],,,,False,,,,53.2,0.0,u,0.0,True,777.6999998092651,47.0,60.0,40.0,201.42068951957242,[],"[1024, 576]",ColorTask,104.0,94.0,,,HRV,HRV_0323,2022-12-01 01:17:09
,wl-rdm,211,489801,0.0-8.94-0.94,1.0,211.0,,,,,,,[],,,,False,,,,87.9,1.0,i,1.0,True,688.5999999046326,42.0,60.0,40.0,299.4706038266664,[],"[1024, 576]",ColorTask,105.0,95.0,,,HRV,HRV_0323,2022-12-01 01:17:09
,wl-rdm,212,491786,0.0-8.95-0.95,1.0,212.0,,,,,,,[],,,,False,,,,87.9,1.0,i,1.0,True,637.6999998092651,39.0,60.0,40.0,277.39305518367746,[],"[1024, 576]",ColorTask,106.0,96.0,,,HRV,HRV_0323,2022-12-01 01:17:09
,wl-rdm,213,493921,0.0-8.96-0.96,1.0,213.0,,,,,,,[],,,,False,,,,62.5,0.0,u,0.0,True,786.6999998092651,48.0,60.0,40.0,282.7529760539028,[],"[1024, 576]",ColorTask,107.0,97.0,,,HRV,HRV_0323,2022-12-01 01:17:09
,wl-rdm,214,496106,0.0-8.97-0.97,1.0,214.0,,,,,,,[],,,,False,,,,53.2,0.0,u,0.0,True,906.3999998569489,55.0,60.0,40.0,207.35626705285136,[],"[1024, 576]",ColorTask,108.0,98.0,,,HRV,HRV_0323,2022-12-01 01:17:09
,wl-rdm,215,498542,0.0-8.98-0.98,1.0,215.0,,,,,,,[],,,,False,,,,53.2,0.0,u,0.0,True,996.3999998569489,60.0,60.0,40.0,379.7373852817268,[],"[1024, 576]",ColorTask,109.0,99.0,,,HRV,HRV_0323,2022-12-01 01:17:09
,wl-rdm,216,500477,0.0-8.99-0.99,1.0,216.0,,,,,,,[],,,,False,,,,50.0,1.0,u,0.0,False,628.7000000476837,38.0,60.0,40.0,243.29475629489815,[],"[1024, 576]",ColorTask,108.0,100.0,,,HRV,HRV_0323,2022-12-01 01:17:09
,wl-rdm,217,502512,0.0-8.100-0.100,1.0,217.0,,,,,,,[],,,,False,,,,87.9,1.0,i,1.0,True,729.5999999046326,44.0,60.0,40.0,248.65770313442056,[],"[1024, 576]",ColorTask,109.0,101.0,,,HRV,HRV_0323,2022-12-01 01:17:09
,wl-rdm,218,504313,0.0-8.101-0.101,1.0,218.0,,,,,,,[],,,,False,,,,87.9,1.0,i,1.0,True,503.19999980926514,31.0,60.0,40.0,227.6941023596175,[],"[1024, 576]",ColorTask,110.0,102.0,,,HRV,HRV_0323,2022-12-01 01:17:09
,wl-rdm,219,506131,0.0-8.102-0.102,1.0,219.0,,,,,,,[],,,,False,,,,50.0,1.0,i,1.0,True,525.9000000953674,32.0,60.0,40.0,218.57390439744609,[],"[1024, 576]",ColorTask,111.0,103.0,,,HRV,HRV_0323,2022-12-01 01:17:09
,wl-rdm,220,508033,0.0-8.103-0.103,1.0,220.0,,,,,,,[],,,,False,,,,62.5,1.0,i,1.0,True,599.0999999046326,36.0,60.0,40.0,233.50325993296406,[],"[1024, 576]",ColorTask,112.0,104.0,,,HRV,HRV_0323,2022-12-01 01:17:09
,wl-rdm,221,510085,0.0-8.104-0.104,1.0,221.0,,,,,,,[],,,,False,,,,62.5,0.0,u,0.0,True,668.6999998092651,41.0,60.0,40.0,301.84142019066053,[],"[1024, 576]",ColorTask,113.0,105.0,,,HRV,HRV_0323,2022-12-01 01:17:09
,wl-rdm,222,512453,0.0-8.105-0.105,1.0,222.0,,,,,,,[],,,,False,,,,50.0,1.0,u,0.0,False,972.4999997615814,59.0,60.0,40.0,328.6919460695143,[],"[1024, 576]",ColorTask,112.0,106.0,,,HRV,HRV_0323,2022-12-01 01:17:09
,wl-rdm,223,514305,0.0-8.106-0.106,1.0,223.0,,,,,,,[],,,,False,,,,87.9,0.0,u,0.0,True,539.1999998092651,33.0,60.0,40.0,248.88669173609657,[],"[1024, 576]",ColorTask,113.0,107.0,,,HRV,HRV_0323,2022-12-01 01:17:09
,wl-rdm,224,516507,0.0-8.107-0.107,1.0,224.0,,,,,,,[],,,,False,,,,50.0,0.0,u,0.0,True,877.0,53.0,60.0,40.0,255.7380568409274,[],"[1024, 576]",ColorTask,114.0,108.0,,,HRV,HRV_0323,2022-12-01 01:17:09
,wl-html-button-response,225,518105,0.0-9.0-0.0,,,,,,,,,,1596.4000000953674,,0,,,,,,,,,,,,,,,,,,,,<h3>End of this session. Thank you!</h3><br>,['Close window'],HRV,HRV_0323,2022-12-01 01:17:09
