trialN,stimuli,trialStartTime,trialStartTime_UNIX,stimulus1,stimulus2,stimulus1Bid,stimulus2Bid,delta,selected,rt,rt_UNIX,rt_perfnow,receivedResponse,rsp,trialEndTime,trialDuration,trialEndTime_UNIX,trialDuration_UNIX,trialEvents,exp,subjectId,date
0,"[{'imgObject': {}, 'id': 'bagel plain', 'src': '/static/foodstim60/bagel plain.jpg', 'key': 'u', 'origWidth': 410, 'origHeight': 410, 'width': 410, 'height': 410, 'widthPercent': 0.45, 'rescaleHeight': False, 'trialN': 0, 'loaded': True, 'loadedTime': 1917.5999999046326, 'positionName': 'LEFT', 'positionCoords': [573.04, 300], 'bid': 9.26}, {'imgObject': {}, 'id': 'strawberries', 'src': '/static/foodstim60/strawberries.jpg', 'key': 'i', 'origWidth': 410, 'origHeight': 410, 'width': 410, 'height': 410, 'widthPercent': 0.45, 'rescaleHeight': False, 'trialN': 0, 'loaded': True, 'loadedTime': 1975.0999999046326, 'positionName': 'RIGHT', 'positionCoords': [1064.96, 300], 'bid': 9.02}]",2439.5999999046326,1669856697943,bagel plain,strawberries,9.26,9.02,-0.2400000000000002,strawberries,666.4000000953674,667,667.0,True,i,3614.5,1174.9000000953674,1669856699118,1175,,HRV,HRV_0323,2022-12-01 01:08:28
1,"[{'imgObject': {}, 'id': 'hotdog w must', 'src': '/static/foodstim60/hotdog w must.jpg', 'key': 'u', 'origWidth': 409, 'origHeight': 409, 'width': 409, 'height': 409, 'widthPercent': 0.45, 'rescaleHeight': False, 'trialN': 1, 'loaded': True, 'loadedTime': 2002.7999999523163, 'positionName': 'LEFT', 'positionCoords': [574.04, 300.5], 'bid': 1.38}, {'imgObject': {}, 'id': 'popsicles', 'src': '/static/foodstim60/popsicles.jpg', 'key': 'i', 'origWidth': 410, 'origHeight': 410, 'width': 410, 'height': 410, 'widthPercent': 0.45, 'rescaleHeight': False, 'trialN': 1, 'loaded': True, 'loadedTime': 2005.5999999046326, 'positionName': 'RIGHT', 'positionCoords': [1064.96, 300], 'bid': 1.67}]",3614.699999809265,1669856699118,hotdog w must,popsicles,1.38,1.67,0.29000000000000004,popsicles,537.3000001907349,537,537.5,True,i,4657.799999952316,1043.1000001430511,1669856700161,1043,,HRV,HRV_0323,2022-12-01 01:08:28
2,"[{'imgObject': {}, 'id': 'ice cream sundae 002', 'src': '/static/foodstim60/ice cream sundae 002.jpg', 'key': 'u', 'origWidth': 409, 'origHeight': 409, 'width': 409, 'height': 409, 'widthPercent': 0.45, 'rescaleHeight': False, 'trialN': 2, 'loaded': True, 'loadedTime': 2008.1999998092651, 'positionName': 'LEFT', 'positionCoords': [574.04, 300.5], 'bid': 7.76}, {'imgObject': {}, 'id': 'eggs', 'src': '/static/foodstim60/eggs.jpg', 'key': 'i', 'origWidth': 409, 'origHeight': 409, 'width': 409, 'height': 409, 'widthPercent': 0.45, 'rescaleHeight': False, 'trialN': 2, 'loaded': True, 'loadedTime': 2010.3999998569489, 'positionName': 'RIGHT', 'positionCoords': [1064.96, 300.5], 'bid': 9.09}]",4658.0,1669856700161,ice cream sundae 002,eggs,7.76,9.09,1.33,ice cream sundae 002,716.0,716,716.1999998092651,True,u,5889.699999809265,1231.6999998092651,1669856701393,1232,,HRV,HRV_0323,2022-12-01 01:08:28
3,"[{'imgObject': {}, 'id': 'turkey sandwich', 'src': '/static/foodstim60/turkey sandwich.jpg', 'key': 'u', 'origWidth': 409, 'origHeight': 409, 'width': 409, 'height': 409, 'widthPercent': 0.45, 'rescaleHeight': False, 'trialN': 3, 'loaded': True, 'loadedTime': 1998.6999998092651, 'positionName': 'LEFT', 'positionCoords': [574.04, 300.5], 'bid': 9.68}, {'imgObject': {}, 'id': 'veggieswithdip', 'src': '/static/foodstim60/veggieswithdip.jpg', 'key': 'i', 'origWidth': 409, 'origHeight': 409, 'width': 409, 'height': 409, 'widthPercent': 0.45, 'rescaleHeight': False, 'trialN': 3, 'loaded': True, 'loadedTime': 2009.0999999046326, 'positionName': 'RIGHT', 'positionCoords': [1064.96, 300.5], 'bid': 9.44}]",5889.799999952316,1669856701393,turkey sandwich,veggieswithdip,9.68,9.44,-0.2400000000000002,turkey sandwich,514.3999998569489,515,514.5,True,u,6916.5,1026.7000000476837,1669856702420,1027,,HRV,HRV_0323,2022-12-01 01:08:28
4,"[{'imgObject': {}, 'id': 'apple slices', 'src': '/static/foodstim60/apple slices.jpg', 'key': 'u', 'origWidth': 409, 'origHeight': 410, 'width': 409, 'height': 410, 'widthPercent': 0.45, 'rescaleHeight': False, 'trialN': 4, 'loaded': True, 'loadedTime': 2011.5, 'positionName': 'LEFT', 'positionCoords': [574.04, 300], 'bid': 9.27}, {'imgObject': {}, 'id': 'orange slices', 'src': '/static/foodstim60/orange slices.jpg', 'key': 'i', 'origWidth': 409, 'origHeight': 410, 'width': 409, 'height': 410, 'widthPercent': 0.45, 'rescaleHeight': False, 'trialN': 4, 'loaded': True, 'loadedTime': 2013.1999998092651, 'positionName': 'RIGHT', 'positionCoords': [1064.96, 300], 'bid': 9.12}]",6916.599999904633,1669856702420,apple slices,orange slices,9.27,9.12,-0.15000000000000036,orange slices,633.4000000953674,634,633.7999999523163,True,i,8064.399999856949,1147.7999999523163,1669856703568,1148,,HRV,HRV_0323,2022-12-01 01:08:28
5,"[{'imgObject': {}, 'id': 'grilled chicken strips', 'src': '/static/foodstim60/grilled chicken strips.jpg', 'key': 'u', 'origWidth': 410, 'origHeight': 411, 'width': 410, 'height': 411, 'widthPercent': 0.45, 'rescaleHeight': False, 'trialN': 5, 'loaded': True, 'loadedTime': 2013.5, 'positionName': 'LEFT', 'positionCoords': [573.04, 299.5], 'bid': 8.49}, {'imgObject': {}, 'id': 'salmon', 'src': '/static/foodstim60/salmon.jpg', 'key': 'i', 'origWidth': 410, 'origHeight': 409, 'width': 410, 'height': 409, 'widthPercent': 0.45, 'rescaleHeight': False, 'trialN': 5, 'loaded': True, 'loadedTime': 2014.7999999523163, 'positionName': 'RIGHT', 'positionCoords': [1064.96, 300.5], 'bid': 7.56}]",8064.599999904633,1669856703568,grilled chicken strips,salmon,8.49,7.56,-0.9300000000000006,salmon,625.4000000953674,626,625.7999999523163,True,i,9196.199999809265,1131.5999999046326,1669856704699,1131,,HRV,HRV_0323,2022-12-01 01:08:28
6,"[{'imgObject': {}, 'id': 'apple slices', 'src': '/static/foodstim60/apple slices.jpg', 'key': 'u', 'origWidth': 409, 'origHeight': 410, 'width': 409, 'height': 410, 'widthPercent': 0.45, 'rescaleHeight': False, 'trialN': 6, 'loaded': True, 'loadedTime': 2011.8999998569489, 'positionName': 'LEFT', 'positionCoords': [574.04, 300], 'bid': 9.27}, {'imgObject': {}, 'id': 'mashed potato', 'src': '/static/foodstim60/mashed potato.jpg', 'key': 'i', 'origWidth': 409, 'origHeight': 409, 'width': 409, 'height': 409, 'widthPercent': 0.45, 'rescaleHeight': False, 'trialN': 6, 'loaded': True, 'loadedTime': 2016.8999998569489, 'positionName': 'RIGHT', 'positionCoords': [1064.96, 300.5], 'bid': 8.85}]",9196.399999856949,1669856704700,apple slices,mashed potato,9.27,8.85,-0.41999999999999993,mashed potato,691.5,691,691.9000000953674,True,i,10404.299999952316,1207.9000000953674,1669856705907,1207,,HRV,HRV_0323,2022-12-01 01:08:28
7,"[{'imgObject': {}, 'id': 'mac & cheese', 'src': '/static/foodstim60/mac & cheese.jpg', 'key': 'u', 'origWidth': 410, 'origHeight': 410, 'width': 410, 'height': 410, 'widthPercent': 0.45, 'rescaleHeight': False, 'trialN': 7, 'loaded': True, 'loadedTime': 2017.7999999523163, 'positionName': 'LEFT', 'positionCoords': [573.04, 300], 'bid': 9}, {'imgObject': {}, 'id': 'turkeysandwich', 'src': '/static/foodstim60/turkeysandwich.jpg', 'key': 'i', 'origWidth': 409, 'origHeight': 409, 'width': 409, 'height': 409, 'widthPercent': 0.45, 'rescaleHeight': False, 'trialN': 7, 'loaded': True, 'loadedTime': 2018.3999998569489, 'positionName': 'RIGHT', 'positionCoords': [1064.96, 300.5], 'bid': 9.6}]",10404.399999856949,1669856705908,mac & cheese,turkeysandwich,9.0,9.6,0.5999999999999996,turkeysandwich,547.7999999523163,548,548.1000001430511,True,i,11461.0,1056.6000001430511,1669856706964,1056,,HRV,HRV_0323,2022-12-01 01:08:28
8,"[{'imgObject': {}, 'id': 'mango', 'src': '/static/foodstim60/mango.jpg', 'key': 'u', 'origWidth': 411, 'origHeight': 411, 'width': 411, 'height': 411, 'widthPercent': 0.45, 'rescaleHeight': False, 'trialN': 8, 'loaded': True, 'loadedTime': 2021.0999999046326, 'positionName': 'LEFT', 'positionCoords': [572.04, 299.5], 'bid': 8.97}, {'imgObject': {}, 'id': 'sushi w_condiments', 'src': '/static/foodstim60/sushi w_condiments.jpg', 'key': 'i', 'origWidth': 410, 'origHeight': 410, 'width': 410, 'height': 410, 'widthPercent': 0.45, 'rescaleHeight': False, 'trialN': 8, 'loaded': True, 'loadedTime': 2021.7999999523163, 'positionName': 'RIGHT', 'positionCoords': [1064.96, 300], 'bid': 9.57}]",11461.199999809265,1669856706964,mango,sushi w_condiments,8.97,9.57,0.5999999999999996,sushi w_condiments,742.8000001907349,743,743.0,True,i,12714.699999809265,1253.5,1669856708218,1254,,HRV,HRV_0323,2022-12-01 01:08:28
9,"[{'imgObject': {}, 'id': 'yogurt no spoon', 'src': '/static/foodstim60/yogurt no spoon.jpg', 'key': 'u', 'origWidth': 411, 'origHeight': 410, 'width': 411, 'height': 410, 'widthPercent': 0.45, 'rescaleHeight': False, 'trialN': 9, 'loaded': True, 'loadedTime': 2022.7999999523163, 'positionName': 'LEFT', 'positionCoords': [572.04, 300], 'bid': 8.89}, {'imgObject': {}, 'id': 'veggieswithdip', 'src': '/static/foodstim60/veggieswithdip.jpg', 'key': 'i', 'origWidth': 409, 'origHeight': 409, 'width': 409, 'height': 409, 'widthPercent': 0.45, 'rescaleHeight': False, 'trialN': 9, 'loaded': True, 'loadedTime': 2009.0999999046326, 'positionName': 'RIGHT', 'positionCoords': [1064.96, 300.5], 'bid': 9.44}]",12714.899999856949,1669856708218,yogurt no spoon,veggieswithdip,8.89,9.44,0.5499999999999989,veggieswithdip,613.1000001430511,613,613.2000000476837,True,i,13832.199999809265,1117.2999999523163,1669856709335,1117,,HRV,HRV_0323,2022-12-01 01:08:28
10,"[{'imgObject': {}, 'id': 'mashed potato', 'src': '/static/foodstim60/mashed potato.jpg', 'key': 'u', 'origWidth': 409, 'origHeight': 409, 'width': 409, 'height': 409, 'widthPercent': 0.45, 'rescaleHeight': False, 'trialN': 10, 'loaded': True, 'loadedTime': 2016.5999999046326, 'positionName': 'LEFT', 'positionCoords': [574.04, 300.5], 'bid': 8.85}, {'imgObject': {}, 'id': 'seaweed', 'src': '/static/foodstim60/seaweed.jpg', 'key': 'i', 'origWidth': 410, 'origHeight': 410, 'width': 410, 'height': 410, 'widthPercent': 0.45, 'rescaleHeight': False, 'trialN': 10, 'loaded': True, 'loadedTime': 2023.1999998092651, 'positionName': 'RIGHT', 'positionCoords': [1064.96, 300], 'bid': 8.83}]",13832.399999856949,1669856709336,mashed potato,seaweed,8.85,8.83,-0.019999999999999574,seaweed,531.7000000476837,531,531.9000000953674,True,i,14872.0,1039.6000001430511,1669856710375,1039,,HRV,HRV_0323,2022-12-01 01:08:28
11,"[{'imgObject': {}, 'id': 'Tribe humus pita', 'src': '/static/foodstim60/Tribe humus pita.jpg', 'key': 'u', 'origWidth': 411, 'origHeight': 411, 'width': 411, 'height': 411, 'widthPercent': 0.45, 'rescaleHeight': False, 'trialN': 11, 'loaded': True, 'loadedTime': 2025.1999998092651, 'positionName': 'LEFT', 'positionCoords': [572.04, 299.5], 'bid': 7.8}, {'imgObject': {}, 'id': 'cantaloupe', 'src': '/static/foodstim60/cantaloupe.jpg', 'key': 'i', 'origWidth': 409, 'origHeight': 409, 'width': 409, 'height': 409, 'widthPercent': 0.45, 'rescaleHeight': False, 'trialN': 11, 'loaded': True, 'loadedTime': 2033.5, 'positionName': 'RIGHT', 'positionCoords': [1064.96, 300.5], 'bid': 9.09}]",14872.099999904633,1669856710375,Tribe humus pita,cantaloupe,7.8,9.09,1.29,Tribe humus pita,539.9000000953674,540,540.2000000476837,True,u,15918.099999904633,1046.0,1669856711421,1046,,HRV,HRV_0323,2022-12-01 01:08:28
12,"[{'imgObject': {}, 'id': 'eggsalad', 'src': '/static/foodstim60/eggsalad.jpg', 'key': 'u', 'origWidth': 410, 'origHeight': 409, 'width': 410, 'height': 409, 'widthPercent': 0.45, 'rescaleHeight': False, 'trialN': 12, 'loaded': True, 'loadedTime': 2078.5999999046326, 'positionName': 'LEFT', 'positionCoords': [573.04, 300.5], 'bid': 9.76}, {'imgObject': {}, 'id': 'lox', 'src': '/static/foodstim60/lox.jpg', 'key': 'i', 'origWidth': 410, 'origHeight': 411, 'width': 410, 'height': 411, 'widthPercent': 0.45, 'rescaleHeight': False, 'trialN': 12, 'loaded': True, 'loadedTime': 2106.7999999523163, 'positionName': 'RIGHT', 'positionCoords': [1064.96, 299.5], 'bid': 9.59}]",15918.199999809265,1669856711421,eggsalad,lox,9.76,9.59,-0.16999999999999993,lox,549.7000000476837,550,549.9000000953674,True,i,16974.099999904633,1055.9000000953674,1669856712477,1056,,HRV,HRV_0323,2022-12-01 01:08:28
13,"[{'imgObject': {}, 'id': 'mashed potato', 'src': '/static/foodstim60/mashed potato.jpg', 'key': 'u', 'origWidth': 409, 'origHeight': 409, 'width': 409, 'height': 409, 'widthPercent': 0.45, 'rescaleHeight': False, 'trialN': 13, 'loaded': True, 'loadedTime': 2016.8999998569489, 'positionName': 'LEFT', 'positionCoords': [574.04, 300.5], 'bid': 8.85}, {'imgObject': {}, 'id': 'grilled chicken strips', 'src': '/static/foodstim60/grilled chicken strips.jpg', 'key': 'i', 'origWidth': 410, 'origHeight': 411, 'width': 410, 'height': 411, 'widthPercent': 0.45, 'rescaleHeight': False, 'trialN': 13, 'loaded': True, 'loadedTime': 2014.2999999523163, 'positionName': 'RIGHT', 'positionCoords': [1064.96, 299.5], 'bid': 8.49}]",16974.299999952316,1669856712477,mashed potato,grilled chicken strips,8.85,8.49,-0.35999999999999943,mashed potato,757.7000000476837,759,758.0999999046326,True,u,18242.699999809265,1268.3999998569489,1669856713746,1269,,HRV,HRV_0323,2022-12-01 01:08:28
14,"[{'imgObject': {}, 'id': 'blueberries', 'src': '/static/foodstim60/blueberries.jpg', 'key': 'u', 'origWidth': 411, 'origHeight': 411, 'width': 411, 'height': 411, 'widthPercent': 0.45, 'rescaleHeight': False, 'trialN': 14, 'loaded': True, 'loadedTime': 2108, 'positionName': 'LEFT', 'positionCoords': [572.04, 299.5], 'bid': 7.73}, {'imgObject': {}, 'id': 'ice cream sundae 002', 'src': '/static/foodstim60/ice cream sundae 002.jpg', 'key': 'i', 'origWidth': 409, 'origHeight': 409, 'width': 409, 'height': 409, 'widthPercent': 0.45, 'rescaleHeight': False, 'trialN': 14, 'loaded': True, 'loadedTime': 2007.5, 'positionName': 'RIGHT', 'positionCoords': [1064.96, 300.5], 'bid': 7.76}]",18242.799999952316,1669856713746,blueberries,ice cream sundae 002,7.73,7.76,0.02999999999999936,ice cream sundae 002,419.2999999523163,419,419.5,True,i,19176.199999809265,933.3999998569489,1669856714679,933,,HRV,HRV_0323,2022-12-01 01:08:28
15,"[{'imgObject': {}, 'id': 'corn cob', 'src': '/static/foodstim60/corn cob.jpg', 'key': 'u', 'origWidth': 411, 'origHeight': 411, 'width': 411, 'height': 411, 'widthPercent': 0.45, 'rescaleHeight': False, 'trialN': 15, 'loaded': True, 'loadedTime': 2111, 'positionName': 'LEFT', 'positionCoords': [572.04, 299.5], 'bid': 7.66}, {'imgObject': {}, 'id': 'mac & cheese', 'src': '/static/foodstim60/mac & cheese.jpg', 'key': 'i', 'origWidth': 410, 'origHeight': 410, 'width': 410, 'height': 410, 'widthPercent': 0.45, 'rescaleHeight': False, 'trialN': 15, 'loaded': True, 'loadedTime': 2018.0999999046326, 'positionName': 'RIGHT', 'positionCoords': [1064.96, 300], 'bid': 9}]",19176.299999952316,1669856714679,corn cob,mac & cheese,7.66,9.0,1.3399999999999999,mac & cheese,549.5999999046326,551,550.0999999046326,True,i,20231.699999809265,1055.3999998569489,1669856715735,1056,,HRV,HRV_0323,2022-12-01 01:08:28
16,"[{'imgObject': {}, 'id': 'salad w chicken', 'src': '/static/foodstim60/salad w chicken.jpg', 'key': 'u', 'origWidth': 411, 'origHeight': 411, 'width': 411, 'height': 411, 'widthPercent': 0.45, 'rescaleHeight': False, 'trialN': 16, 'loaded': True, 'loadedTime': 2112.5999999046326, 'positionName': 'LEFT', 'positionCoords': [572.04, 299.5], 'bid': 9}, {'imgObject': {}, 'id': 'hashbrowns', 'src': '/static/foodstim60/hashbrowns.jpg', 'key': 'i', 'origWidth': 411, 'origHeight': 410, 'width': 411, 'height': 410, 'widthPercent': 0.45, 'rescaleHeight': False, 'trialN': 16, 'loaded': True, 'loadedTime': 2114, 'positionName': 'RIGHT', 'positionCoords': [1064.96, 300], 'bid': 8.82}]",20231.799999952316,1669856715735,salad w chicken,hashbrowns,9.0,8.82,-0.17999999999999972,salad w chicken,452.2000000476837,452,452.39999985694885,True,u,21199.39999985695,967.5999999046326,1669856716703,968,,HRV,HRV_0323,2022-12-01 01:08:28
17,"[{'imgObject': {}, 'id': 'olives', 'src': '/static/foodstim60/olives.jpg', 'key': 'u', 'origWidth': 410, 'origHeight': 410, 'width': 410, 'height': 410, 'widthPercent': 0.45, 'rescaleHeight': False, 'trialN': 17, 'loaded': True, 'loadedTime': 2123.699999809265, 'positionName': 'LEFT', 'positionCoords': [573.04, 300], 'bid': 7.7}, {'imgObject': {}, 'id': 'roastedpotatoes', 'src': '/static/foodstim60/roastedpotatoes.jpg', 'key': 'i', 'origWidth': 409, 'origHeight': 410, 'width': 409, 'height': 410, 'widthPercent': 0.45, 'rescaleHeight': False, 'trialN': 17, 'loaded': True, 'loadedTime': 2124.5, 'positionName': 'RIGHT', 'positionCoords': [1064.96, 300], 'bid': 8.68}]",21199.5,1669856716703,olives,roastedpotatoes,7.7,8.68,0.9799999999999995,roastedpotatoes,764.5999999046326,765,765.0,True,i,22484.199999809265,1284.6999998092651,1669856717987,1284,,HRV,HRV_0323,2022-12-01 01:08:28
18,"[{'imgObject': {}, 'id': 'roastedpotatoes', 'src': '/static/foodstim60/roastedpotatoes.jpg', 'key': 'u', 'origWidth': 409, 'origHeight': 410, 'width': 409, 'height': 410, 'widthPercent': 0.45, 'rescaleHeight': False, 'trialN': 18, 'loaded': True, 'loadedTime': 2123.899999856949, 'positionName': 'LEFT', 'positionCoords': [574.04, 300], 'bid': 8.68}, {'imgObject': {}, 'id': 'sweetpotato', 'src': '/static/foodstim60/sweetpotato.jpg', 'key': 'i', 'origWidth': 410, 'origHeight': 410, 'width': 410, 'height': 410, 'widthPercent': 0.45, 'rescaleHeight': False, 'trialN': 18, 'loaded': True, 'loadedTime': 2145.399999856949, 'positionName': 'RIGHT', 'positionCoords': [1064.96, 300], 'bid': 8.700000000000001}]",22484.39999985695,1669856717988,roastedpotatoes,sweetpotato,8.68,8.700000000000001,0.02000000000000135,roastedpotatoes,479.60000014305115,480,479.90000009536743,True,u,23478.599999904633,994.2000000476837,1669856718982,994,,HRV,HRV_0323,2022-12-01 01:08:28
19,"[{'imgObject': {}, 'id': 'cocktailshrimp', 'src': '/static/foodstim60/cocktailshrimp.jpg', 'key': 'u', 'origWidth': 410, 'origHeight': 410, 'width': 410, 'height': 410, 'widthPercent': 0.45, 'rescaleHeight': False, 'trialN': 19, 'loaded': True, 'loadedTime': 2167.2999999523163, 'positionName': 'LEFT', 'positionCoords': [573.04, 300], 'bid': 9.42}, {'imgObject': {}, 'id': 'baked potato', 'src': '/static/foodstim60/baked potato.jpg', 'key': 'i', 'origWidth': 409, 'origHeight': 410, 'width': 409, 'height': 410, 'widthPercent': 0.45, 'rescaleHeight': False, 'trialN': 19, 'loaded': True, 'loadedTime': 2190.699999809265, 'positionName': 'RIGHT', 'positionCoords': [1064.96, 300], 'bid': 8.06}]",23478.599999904633,1669856718982,cocktailshrimp,baked potato,9.42,8.06,-1.3599999999999994,cocktailshrimp,575.4000000953674,575,575.5999999046326,True,u,24566.699999809265,1088.0999999046326,1669856720070,1088,,HRV,HRV_0323,2022-12-01 01:08:28
20,"[{'imgObject': {}, 'id': 'seaweed', 'src': '/static/foodstim60/seaweed.jpg', 'key': 'u', 'origWidth': 410, 'origHeight': 410, 'width': 410, 'height': 410, 'widthPercent': 0.45, 'rescaleHeight': False, 'trialN': 20, 'loaded': True, 'loadedTime': 2024, 'positionName': 'LEFT', 'positionCoords': [573.04, 300], 'bid': 8.83}, {'imgObject': {}, 'id': 'tacos', 'src': '/static/foodstim60/tacos.jpg', 'key': 'i', 'origWidth': 411, 'origHeight': 411, 'width': 411, 'height': 411, 'widthPercent': 0.45, 'rescaleHeight': False, 'trialN': 20, 'loaded': True, 'loadedTime': 2213.699999809265, 'positionName': 'RIGHT', 'positionCoords': [1064.96, 299.5], 'bid': 8.82}]",24566.699999809265,1669856720070,seaweed,tacos,8.83,8.82,-0.009999999999999787,tacos,467.30000019073486,467,467.5,True,i,25546.0,979.3000001907349,1669856721049,979,,HRV,HRV_0323,2022-12-01 01:08:28
21,"[{'imgObject': {}, 'id': 'pear', 'src': '/static/foodstim60/pear.jpg', 'key': 'u', 'origWidth': 411, 'origHeight': 410, 'width': 411, 'height': 410, 'widthPercent': 0.45, 'rescaleHeight': False, 'trialN': 21, 'loaded': True, 'loadedTime': 2253.5999999046326, 'positionName': 'LEFT', 'positionCoords': [572.04, 300], 'bid': 7.8}, {'imgObject': {}, 'id': 'chicken nuggets2', 'src': '/static/foodstim60/chicken nuggets2.jpg', 'key': 'i', 'origWidth': 410, 'origHeight': 409, 'width': 410, 'height': 409, 'widthPercent': 0.45, 'rescaleHeight': False, 'trialN': 21, 'loaded': True, 'loadedTime': 2253.899999856949, 'positionName': 'RIGHT', 'positionCoords': [1064.96, 300.5], 'bid': 2.15}]",25546.199999809265,1669856721049,pear,chicken nuggets2,7.8,2.15,-5.65,chicken nuggets2,439.80000019073486,441,440.2000000476837,True,i,26494.39999985695,948.2000000476837,1669856721998,949,,HRV,HRV_0323,2022-12-01 01:08:28
22,"[{'imgObject': {}, 'id': 'sushi w_condiments', 'src': '/static/foodstim60/sushi w_condiments.jpg', 'key': 'u', 'origWidth': 410, 'origHeight': 410, 'width': 410, 'height': 410, 'widthPercent': 0.45, 'rescaleHeight': False, 'trialN': 22, 'loaded': True, 'loadedTime': 2021.1999998092651, 'positionName': 'LEFT', 'positionCoords': [573.04, 300], 'bid': 9.57}, {'imgObject': {}, 'id': 'kiwi', 'src': '/static/foodstim60/kiwi.jpg', 'key': 'i', 'origWidth': 410, 'origHeight': 410, 'width': 410, 'height': 410, 'widthPercent': 0.45, 'rescaleHeight': False, 'trialN': 22, 'loaded': True, 'loadedTime': 2275.0999999046326, 'positionName': 'RIGHT', 'positionCoords': [1064.96, 300], 'bid': 9.69}]",26494.5,1669856721998,sushi w_condiments,kiwi,9.57,9.69,0.11999999999999922,sushi w_condiments,1027.5,1027,1027.6999998092651,True,u,28025.199999809265,1530.6999998092651,1669856723528,1530,,HRV,HRV_0323,2022-12-01 01:08:28
23,"[{'imgObject': {}, 'id': 'burger', 'src': '/static/foodstim60/burger.jpg', 'key': 'u', 'origWidth': 409, 'origHeight': 409, 'width': 409, 'height': 409, 'widthPercent': 0.45, 'rescaleHeight': False, 'trialN': 23, 'loaded': True, 'loadedTime': 2296.5, 'positionName': 'LEFT', 'positionCoords': [574.04, 300.5], 'bid': 9.61}, {'imgObject': {}, 'id': 'lox', 'src': '/static/foodstim60/lox.jpg', 'key': 'i', 'origWidth': 410, 'origHeight': 411, 'width': 410, 'height': 411, 'widthPercent': 0.45, 'rescaleHeight': False, 'trialN': 23, 'loaded': True, 'loadedTime': 2106.5, 'positionName': 'RIGHT', 'positionCoords': [1064.96, 299.5], 'bid': 9.59}]",28025.39999985695,1669856723529,burger,lox,9.61,9.59,-0.019999999999999574,lox,556.6000001430511,556,556.7999999523163,True,i,29094.199999809265,1068.7999999523163,1669856724597,1068,,HRV,HRV_0323,2022-12-01 01:08:28
24,"[{'imgObject': {}, 'id': 'fruitsalad', 'src': '/static/foodstim60/fruitsalad.jpg', 'key': 'u', 'origWidth': 410, 'origHeight': 410, 'width': 410, 'height': 410, 'widthPercent': 0.45, 'rescaleHeight': False, 'trialN': 24, 'loaded': True, 'loadedTime': 2297.199999809265, 'positionName': 'LEFT', 'positionCoords': [573.04, 300], 'bid': 9.68}, {'imgObject': {}, 'id': 'eggsalad', 'src': '/static/foodstim60/eggsalad.jpg', 'key': 'i', 'origWidth': 410, 'origHeight': 409, 'width': 410, 'height': 409, 'widthPercent': 0.45, 'rescaleHeight': False, 'trialN': 24, 'loaded': True, 'loadedTime': 2057.7999999523163, 'positionName': 'RIGHT', 'positionCoords': [1064.96, 300.5], 'bid': 9.76}]",29094.299999952316,1669856724597,fruitsalad,eggsalad,9.68,9.76,0.08000000000000007,fruitsalad,443.5,444,443.7999999523163,True,u,30045.199999809265,950.8999998569489,1669856725548,951,,HRV,HRV_0323,2022-12-01 01:08:28
25,"[{'imgObject': {}, 'id': 'ice cream sundae 002', 'src': '/static/foodstim60/ice cream sundae 002.jpg', 'key': 'u', 'origWidth': 409, 'origHeight': 409, 'width': 409, 'height': 409, 'widthPercent': 0.45, 'rescaleHeight': False, 'trialN': 25, 'loaded': True, 'loadedTime': 2007.7999999523163, 'positionName': 'LEFT', 'positionCoords': [574.04, 300.5], 'bid': 7.76}, {'imgObject': {}, 'id': 'olives', 'src': '/static/foodstim60/olives.jpg', 'key': 'i', 'origWidth': 410, 'origHeight': 410, 'width': 410, 'height': 410, 'widthPercent': 0.45, 'rescaleHeight': False, 'trialN': 25, 'loaded': True, 'loadedTime': 2116.399999856949, 'positionName': 'RIGHT', 'positionCoords': [1064.96, 300], 'bid': 7.7}]",30045.299999952316,1669856725548,ice cream sundae 002,olives,7.76,7.7,-0.05999999999999961,olives,516.7000000476837,518,517.0999999046326,True,i,31070.5,1025.2000000476837,1669856726574,1026,,HRV,HRV_0323,2022-12-01 01:08:28
26,"[{'imgObject': {}, 'id': 'sweetpotato', 'src': '/static/foodstim60/sweetpotato.jpg', 'key': 'u', 'origWidth': 410, 'origHeight': 410, 'width': 410, 'height': 410, 'widthPercent': 0.45, 'rescaleHeight': False, 'trialN': 26, 'loaded': True, 'loadedTime': 2166.0999999046326, 'positionName': 'LEFT', 'positionCoords': [573.04, 300], 'bid': 8.700000000000001}, {'imgObject': {}, 'id': 'blueberries', 'src': '/static/foodstim60/blueberries.jpg', 'key': 'i', 'origWidth': 411, 'origHeight': 411, 'width': 411, 'height': 411, 'widthPercent': 0.45, 'rescaleHeight': False, 'trialN': 26, 'loaded': True, 'loadedTime': 2108.199999809265, 'positionName': 'RIGHT', 'positionCoords': [1064.96, 299.5], 'bid': 7.73}]",31070.599999904633,1669856726574,sweetpotato,blueberries,8.700000000000001,7.73,-0.9700000000000006,sweetpotato,743.4000000953674,743,743.7999999523163,True,u,32323.699999809265,1253.0999999046326,1669856727827,1253,,HRV,HRV_0323,2022-12-01 01:08:28
27,"[{'imgObject': {}, 'id': 'eggsalad', 'src': '/static/foodstim60/eggsalad.jpg', 'key': 'u', 'origWidth': 410, 'origHeight': 409, 'width': 410, 'height': 409, 'widthPercent': 0.45, 'rescaleHeight': False, 'trialN': 27, 'loaded': True, 'loadedTime': 2057.899999856949, 'positionName': 'LEFT', 'positionCoords': [573.04, 300.5], 'bid': 9.76}, {'imgObject': {}, 'id': 'cherries', 'src': '/static/foodstim60/cherries.jpg', 'key': 'i', 'origWidth': 410, 'origHeight': 411, 'width': 410, 'height': 411, 'widthPercent': 0.45, 'rescaleHeight': False, 'trialN': 27, 'loaded': True, 'loadedTime': 2298.199999809265, 'positionName': 'RIGHT', 'positionCoords': [1064.96, 299.5], 'bid': 9.12}]",32323.799999952316,1669856727827,eggsalad,cherries,9.76,9.12,-0.6400000000000006,cherries,558.2000000476837,559,558.5999999046326,True,i,33393.299999952316,1069.5,1669856728896,1069,,HRV,HRV_0323,2022-12-01 01:08:28
28,"[{'imgObject': {}, 'id': 'cantaloupe', 'src': '/static/foodstim60/cantaloupe.jpg', 'key': 'u', 'origWidth': 409, 'origHeight': 409, 'width': 409, 'height': 409, 'widthPercent': 0.45, 'rescaleHeight': False, 'trialN': 28, 'loaded': True, 'loadedTime': 2033.5999999046326, 'positionName': 'LEFT', 'positionCoords': [574.04, 300.5], 'bid': 9.09}, {'imgObject': {}, 'id': 'shreddedwheatwithmilk', 'src': '/static/foodstim60/shreddedwheatwithmilk.jpg', 'key': 'i', 'origWidth': 410, 'origHeight': 410, 'width': 410, 'height': 410, 'widthPercent': 0.45, 'rescaleHeight': False, 'trialN': 28, 'loaded': True, 'loadedTime': 2298.399999856949, 'positionName': 'RIGHT', 'positionCoords': [1064.96, 300], 'bid': 9.07}]",33393.299999952316,1669856728896,cantaloupe,shreddedwheatwithmilk,9.09,9.07,-0.019999999999999574,shreddedwheatwithmilk,726.7000000476837,727,727.0,True,i,34634.299999952316,1241.0,1669856730137,1241,,HRV,HRV_0323,2022-12-01 01:08:28
29,"[{'imgObject': {}, 'id': 'burger', 'src': '/static/foodstim60/burger.jpg', 'key': 'u', 'origWidth': 409, 'origHeight': 409, 'width': 409, 'height': 409, 'widthPercent': 0.45, 'rescaleHeight': False, 'trialN': 29, 'loaded': True, 'loadedTime': 2296.2999999523163, 'positionName': 'LEFT', 'positionCoords': [574.04, 300.5], 'bid': 9.61}, {'imgObject': {}, 'id': 'turkey sandwich', 'src': '/static/foodstim60/turkey sandwich.jpg', 'key': 'i', 'origWidth': 409, 'origHeight': 409, 'width': 409, 'height': 409, 'widthPercent': 0.45, 'rescaleHeight': False, 'trialN': 29, 'loaded': True, 'loadedTime': 2000.1999998092651, 'positionName': 'RIGHT', 'positionCoords': [1064.96, 300.5], 'bid': 9.68}]",34634.39999985695,1669856730138,burger,turkey sandwich,9.61,9.68,0.07000000000000028,burger,555.6000001430511,555,555.9000000953674,True,u,35696.299999952316,1061.9000000953674,1669856731199,1061,,HRV,HRV_0323,2022-12-01 01:08:28
30,"[{'imgObject': {}, 'id': 'cherry tomato', 'src': '/static/foodstim60/cherry tomato.jpg', 'key': 'u', 'origWidth': 410, 'origHeight': 410, 'width': 410, 'height': 410, 'widthPercent': 0.45, 'rescaleHeight': False, 'trialN': 30, 'loaded': True, 'loadedTime': 2318, 'positionName': 'LEFT', 'positionCoords': [573.04, 300], 'bid': 8.32}, {'imgObject': {}, 'id': 'olives', 'src': '/static/foodstim60/olives.jpg', 'key': 'i', 'origWidth': 410, 'origHeight': 410, 'width': 410, 'height': 410, 'widthPercent': 0.45, 'rescaleHeight': False, 'trialN': 30, 'loaded': True, 'loadedTime': 2117.2999999523163, 'positionName': 'RIGHT', 'positionCoords': [1064.96, 300], 'bid': 7.7}]",35696.5,1669856731200,cherry tomato,olives,8.32,7.7,-0.6200000000000001,olives,463.5,463,463.7999999523163,True,i,36662.199999809265,965.6999998092651,1669856732165,965,,HRV,HRV_0323,2022-12-01 01:08:28
31,"[{'imgObject': {}, 'id': 'steak', 'src': '/static/foodstim60/steak.jpg', 'key': 'u', 'origWidth': 410, 'origHeight': 410, 'width': 410, 'height': 410, 'widthPercent': 0.45, 'rescaleHeight': False, 'trialN': 31, 'loaded': True, 'loadedTime': 2318.899999856949, 'positionName': 'LEFT', 'positionCoords': [573.04, 300], 'bid': 3.18}, {'imgObject': {}, 'id': 'bagel and cc', 'src': '/static/foodstim60/bagel and cc.jpg', 'key': 'i', 'origWidth': 410, 'origHeight': 410, 'width': 410, 'height': 410, 'widthPercent': 0.45, 'rescaleHeight': False, 'trialN': 31, 'loaded': True, 'loadedTime': 2338.7999999523163, 'positionName': 'RIGHT', 'positionCoords': [1064.96, 300], 'bid': 7.83}]",36662.299999952316,1669856732165,steak,bagel and cc,3.18,7.83,4.65,steak,797.7000000476837,798,797.8999998569489,True,u,37977.39999985695,1315.0999999046326,1669856733481,1316,,HRV,HRV_0323,2022-12-01 01:08:28
32,"[{'imgObject': {}, 'id': 'veggieswithdip', 'src': '/static/foodstim60/veggieswithdip.jpg', 'key': 'u', 'origWidth': 409, 'origHeight': 409, 'width': 409, 'height': 409, 'widthPercent': 0.45, 'rescaleHeight': False, 'trialN': 32, 'loaded': True, 'loadedTime': 2009.3999998569489, 'positionName': 'LEFT', 'positionCoords': [574.04, 300.5], 'bid': 9.44}, {'imgObject': {}, 'id': 'cocktailshrimp', 'src': '/static/foodstim60/cocktailshrimp.jpg', 'key': 'i', 'origWidth': 410, 'origHeight': 410, 'width': 410, 'height': 410, 'widthPercent': 0.45, 'rescaleHeight': False, 'trialN': 32, 'loaded': True, 'loadedTime': 2167.2999999523163, 'positionName': 'RIGHT', 'positionCoords': [1064.96, 300], 'bid': 9.42}]",37977.5,1669856733481,veggieswithdip,cocktailshrimp,9.44,9.42,-0.019999999999999574,veggieswithdip,436.39999985694885,436,436.89999985694885,True,u,38925.699999809265,948.1999998092651,1669856734429,948,,HRV,HRV_0323,2022-12-01 01:08:28
33,"[{'imgObject': {}, 'id': 'rigatoni', 'src': '/static/foodstim60/rigatoni.jpg', 'key': 'u', 'origWidth': 411, 'origHeight': 411, 'width': 411, 'height': 411, 'widthPercent': 0.45, 'rescaleHeight': False, 'trialN': 33, 'loaded': True, 'loadedTime': 2360.0999999046326, 'positionName': 'LEFT', 'positionCoords': [572.04, 299.5], 'bid': 8.78}, {'imgObject': {}, 'id': 'ice cream sundae 002', 'src': '/static/foodstim60/ice cream sundae 002.jpg', 'key': 'i', 'origWidth': 409, 'origHeight': 409, 'width': 409, 'height': 409, 'widthPercent': 0.45, 'rescaleHeight': False, 'trialN': 33, 'loaded': True, 'loadedTime': 2007.1999998092651, 'positionName': 'RIGHT', 'positionCoords': [1064.96, 300.5], 'bid': 7.76}]",38925.89999985695,1669856734429,rigatoni,ice cream sundae 002,8.78,7.76,-1.0199999999999996,ice cream sundae 002,542.1000001430511,542,542.2999999523163,True,i,39979.89999985695,1054.0,1669856735483,1054,,HRV,HRV_0323,2022-12-01 01:08:28
34,"[{'imgObject': {}, 'id': 'chickenfingers', 'src': '/static/foodstim60/chickenfingers.jpg', 'key': 'u', 'origWidth': 410, 'origHeight': 410, 'width': 410, 'height': 410, 'widthPercent': 0.45, 'rescaleHeight': False, 'trialN': 34, 'loaded': True, 'loadedTime': 2380.0999999046326, 'positionName': 'LEFT', 'positionCoords': [573.04, 300], 'bid': 1.8}, {'imgObject': {}, 'id': 'chicken nuggets2', 'src': '/static/foodstim60/chicken nuggets2.jpg', 'key': 'i', 'origWidth': 410, 'origHeight': 409, 'width': 410, 'height': 409, 'widthPercent': 0.45, 'rescaleHeight': False, 'trialN': 34, 'loaded': True, 'loadedTime': 2254.699999809265, 'positionName': 'RIGHT', 'positionCoords': [1064.96, 300.5], 'bid': 2.15}]",39980.199999809265,1669856735483,chickenfingers,chicken nuggets2,1.8,2.15,0.34999999999999987,chicken nuggets2,1559.8000001907349,1561,1560.2000000476837,True,i,42047.199999809265,2067.0,1669856737550,2067,,HRV,HRV_0323,2022-12-01 01:08:28
35,"[{'imgObject': {}, 'id': 'veggieswithdip', 'src': '/static/foodstim60/veggieswithdip.jpg', 'key': 'u', 'origWidth': 409, 'origHeight': 409, 'width': 409, 'height': 409, 'widthPercent': 0.45, 'rescaleHeight': False, 'trialN': 35, 'loaded': True, 'loadedTime': 2009.5, 'positionName': 'LEFT', 'positionCoords': [574.04, 300.5], 'bid': 9.44}, {'imgObject': {}, 'id': 'cherry tomato', 'src': '/static/foodstim60/cherry tomato.jpg', 'key': 'i', 'origWidth': 410, 'origHeight': 410, 'width': 410, 'height': 410, 'widthPercent': 0.45, 'rescaleHeight': False, 'trialN': 35, 'loaded': True, 'loadedTime': 2317.899999856949, 'positionName': 'RIGHT', 'positionCoords': [1064.96, 300], 'bid': 8.32}]",42047.39999985695,1669856737550,veggieswithdip,cherry tomato,9.44,8.32,-1.1199999999999992,veggieswithdip,446.7000000476837,447,446.90000009536743,True,u,43011.0,963.6000001430511,1669856738514,964,,HRV,HRV_0323,2022-12-01 01:08:28
36,"[{'imgObject': {}, 'id': 'edamame', 'src': '/static/foodstim60/edamame.jpg', 'key': 'u', 'origWidth': 409, 'origHeight': 410, 'width': 409, 'height': 410, 'widthPercent': 0.45, 'rescaleHeight': False, 'trialN': 36, 'loaded': True, 'loadedTime': 2407.699999809265, 'positionName': 'LEFT', 'positionCoords': [574.04, 300], 'bid': 8.43}, {'imgObject': {}, 'id': 'grilled chicken strips', 'src': '/static/foodstim60/grilled chicken strips.jpg', 'key': 'i', 'origWidth': 410, 'origHeight': 411, 'width': 410, 'height': 411, 'widthPercent': 0.45, 'rescaleHeight': False, 'trialN': 36, 'loaded': True, 'loadedTime': 2014.3999998569489, 'positionName': 'RIGHT', 'positionCoords': [1064.96, 299.5], 'bid': 8.49}]",43011.199999809265,1669856738514,edamame,grilled chicken strips,8.43,8.49,0.0600000000000005,edamame,736.8000001907349,737,737.0,True,u,44253.09999990463,1241.9000000953674,1669856739756,1242,,HRV,HRV_0323,2022-12-01 01:08:28
37,"[{'imgObject': {}, 'id': 'cheerios', 'src': '/static/foodstim60/cheerios.jpg', 'key': 'u', 'origWidth': 409, 'origHeight': 410, 'width': 409, 'height': 410, 'widthPercent': 0.45, 'rescaleHeight': False, 'trialN': 37, 'loaded': True, 'loadedTime': 2407.7999999523163, 'positionName': 'LEFT', 'positionCoords': [574.04, 300], 'bid': 7.99}, {'imgObject': {}, 'id': 'cherry tomato', 'src': '/static/foodstim60/cherry tomato.jpg', 'key': 'i', 'origWidth': 410, 'origHeight': 410, 'width': 410, 'height': 410, 'widthPercent': 0.45, 'rescaleHeight': False, 'trialN': 37, 'loaded': True, 'loadedTime': 2318.0999999046326, 'positionName': 'RIGHT', 'positionCoords': [1064.96, 300], 'bid': 8.32}]",44253.199999809265,1669856739756,cheerios,cherry tomato,7.99,8.32,0.33000000000000007,cherry tomato,600.8000001907349,602,601.2000000476837,True,i,45368.59999990463,1115.4000000953674,1669856740872,1116,,HRV,HRV_0323,2022-12-01 01:08:28
38,"[{'imgObject': {}, 'id': 'orange slices', 'src': '/static/foodstim60/orange slices.jpg', 'key': 'u', 'origWidth': 409, 'origHeight': 410, 'width': 409, 'height': 410, 'widthPercent': 0.45, 'rescaleHeight': False, 'trialN': 38, 'loaded': True, 'loadedTime': 2013, 'positionName': 'LEFT', 'positionCoords': [574.04, 300], 'bid': 9.12}, {'imgObject': {}, 'id': 'blackbeanswithrice', 'src': '/static/foodstim60/blackbeanswithrice.jpg', 'key': 'i', 'origWidth': 410, 'origHeight': 410, 'width': 410, 'height': 410, 'widthPercent': 0.45, 'rescaleHeight': False, 'trialN': 38, 'loaded': True, 'loadedTime': 2410.899999856949, 'positionName': 'RIGHT', 'positionCoords': [1064.96, 300], 'bid': 9.79}]",45368.699999809265,1669856740872,orange slices,blackbeanswithrice,9.12,9.79,0.6699999999999999,orange slices,629.3000001907349,629,629.5,True,u,46498.89999985695,1130.2000000476837,1669856742002,1130,,HRV,HRV_0323,2022-12-01 01:08:28
39,"[{'imgObject': {}, 'id': 'cocktailshrimp', 'src': '/static/foodstim60/cocktailshrimp.jpg', 'key': 'u', 'origWidth': 410, 'origHeight': 410, 'width': 410, 'height': 410, 'widthPercent': 0.45, 'rescaleHeight': False, 'trialN': 39, 'loaded': True, 'loadedTime': 2189.399999856949, 'positionName': 'LEFT', 'positionCoords': [573.04, 300], 'bid': 9.42}, {'imgObject': {}, 'id': 'omelette', 'src': '/static/foodstim60/omelette.jpg', 'key': 'i', 'origWidth': 410, 'origHeight': 409, 'width': 410, 'height': 409, 'widthPercent': 0.45, 'rescaleHeight': False, 'trialN': 39, 'loaded': True, 'loadedTime': 2412.199999809265, 'positionName': 'RIGHT', 'positionCoords': [1064.96, 300.5], 'bid': 9.47}]",46499.0,1669856742002,cocktailshrimp,omelette,9.42,9.47,0.05000000000000071,cocktailshrimp,455.09999990463257,456,455.2999999523163,True,u,47464.59999990463,965.5999999046326,1669856742968,966,,HRV,HRV_0323,2022-12-01 01:08:28
40,"[{'imgObject': {}, 'id': 'burger', 'src': '/static/foodstim60/burger.jpg', 'key': 'u', 'origWidth': 409, 'origHeight': 409, 'width': 409, 'height': 409, 'widthPercent': 0.45, 'rescaleHeight': False, 'trialN': 40, 'loaded': True, 'loadedTime': 2295.5, 'positionName': 'LEFT', 'positionCoords': [574.04, 300.5], 'bid': 9.61}, {'imgObject': {}, 'id': 'orange slices', 'src': '/static/foodstim60/orange slices.jpg', 'key': 'i', 'origWidth': 409, 'origHeight': 410, 'width': 409, 'height': 410, 'widthPercent': 0.45, 'rescaleHeight': False, 'trialN': 40, 'loaded': True, 'loadedTime': 2013.1999998092651, 'positionName': 'RIGHT', 'positionCoords': [1064.96, 300], 'bid': 9.12}]",47464.799999952316,1669856742968,burger,orange slices,9.61,9.12,-0.4900000000000002,burger,825.2000000476837,825,825.3999998569489,True,u,48797.39999985695,1332.5999999046326,1669856744300,1332,,HRV,HRV_0323,2022-12-01 01:08:28
41,"[{'imgObject': {}, 'id': 'popsicles', 'src': '/static/foodstim60/popsicles.jpg', 'key': 'u', 'origWidth': 410, 'origHeight': 410, 'width': 410, 'height': 410, 'widthPercent': 0.45, 'rescaleHeight': False, 'trialN': 41, 'loaded': True, 'loadedTime': 2005.6999998092651, 'positionName': 'LEFT', 'positionCoords': [573.04, 300], 'bid': 1.67}, {'imgObject': {}, 'id': 'rigatoni and sauce', 'src': '/static/foodstim60/rigatoni and sauce.jpg', 'key': 'i', 'origWidth': 410, 'origHeight': 411, 'width': 410, 'height': 411, 'widthPercent': 0.45, 'rescaleHeight': False, 'trialN': 41, 'loaded': True, 'loadedTime': 2412.399999856949, 'positionName': 'RIGHT', 'positionCoords': [1064.96, 299.5], 'bid': 7.61}]",48797.39999985695,1669856744301,popsicles,rigatoni and sauce,1.67,7.61,5.94,rigatoni and sauce,1054.5,1054,1054.6000001430511,True,i,50371.699999809265,1574.2999999523163,1669856745875,1574,,HRV,HRV_0323,2022-12-01 01:08:28
42,"[{'imgObject': {}, 'id': 'burrito', 'src': '/static/foodstim60/burrito.jpg', 'key': 'u', 'origWidth': 410, 'origHeight': 410, 'width': 410, 'height': 410, 'widthPercent': 0.45, 'rescaleHeight': False, 'trialN': 42, 'loaded': True, 'loadedTime': 2414.399999856949, 'positionName': 'LEFT', 'positionCoords': [573.04, 300], 'bid': 3.95}, {'imgObject': {}, 'id': 'rigatoni and sauce', 'src': '/static/foodstim60/rigatoni and sauce.jpg', 'key': 'i', 'origWidth': 410, 'origHeight': 411, 'width': 410, 'height': 411, 'widthPercent': 0.45, 'rescaleHeight': False, 'trialN': 42, 'loaded': True, 'loadedTime': 2413.899999856949, 'positionName': 'RIGHT', 'positionCoords': [1064.96, 299.5], 'bid': 7.61}]",50371.799999952316,1669856745875,burrito,rigatoni and sauce,3.95,7.61,3.66,rigatoni and sauce,846.2000000476837,846,846.3999998569489,True,i,51733.09999990463,1361.2999999523163,1669856747236,1361,,HRV,HRV_0323,2022-12-01 01:08:28
43,"[{'imgObject': {}, 'id': 'salmon', 'src': '/static/foodstim60/salmon.jpg', 'key': 'u', 'origWidth': 410, 'origHeight': 409, 'width': 410, 'height': 409, 'widthPercent': 0.45, 'rescaleHeight': False, 'trialN': 43, 'loaded': True, 'loadedTime': 2015.2999999523163, 'positionName': 'LEFT', 'positionCoords': [573.04, 300.5], 'bid': 7.56}, {'imgObject': {}, 'id': 'steak', 'src': '/static/foodstim60/steak.jpg', 'key': 'i', 'origWidth': 410, 'origHeight': 410, 'width': 410, 'height': 410, 'widthPercent': 0.45, 'rescaleHeight': False, 'trialN': 43, 'loaded': True, 'loadedTime': 2318.199999809265, 'positionName': 'RIGHT', 'positionCoords': [1064.96, 300], 'bid': 3.18}]",51733.299999952316,1669856747236,salmon,steak,7.56,3.18,-4.379999999999999,steak,572.7000000476837,573,572.8999998569489,True,i,52807.799999952316,1074.5,1669856748311,1075,,HRV,HRV_0323,2022-12-01 01:08:28
44,"[{'imgObject': {}, 'id': 'cheerios', 'src': '/static/foodstim60/cheerios.jpg', 'key': 'u', 'origWidth': 409, 'origHeight': 410, 'width': 409, 'height': 410, 'widthPercent': 0.45, 'rescaleHeight': False, 'trialN': 44, 'loaded': True, 'loadedTime': 2409.199999809265, 'positionName': 'LEFT', 'positionCoords': [574.04, 300], 'bid': 7.99}, {'imgObject': {}, 'id': 'banana', 'src': '/static/foodstim60/banana.jpg', 'key': 'i', 'origWidth': 410, 'origHeight': 410, 'width': 410, 'height': 410, 'widthPercent': 0.45, 'rescaleHeight': False, 'trialN': 44, 'loaded': True, 'loadedTime': 2415.899999856949, 'positionName': 'RIGHT', 'positionCoords': [1064.96, 300], 'bid': 9.39}]",52807.89999985695,1669856748311,cheerios,banana,7.99,9.39,1.4000000000000004,cheerios,494.10000014305115,494,494.2999999523163,True,u,53802.59999990463,994.7000000476837,1669856749306,995,,HRV,HRV_0323,2022-12-01 01:08:28
45,"[{'imgObject': {}, 'id': 'chicken nuggets2', 'src': '/static/foodstim60/chicken nuggets2.jpg', 'key': 'u', 'origWidth': 410, 'origHeight': 409, 'width': 410, 'height': 409, 'widthPercent': 0.45, 'rescaleHeight': False, 'trialN': 45, 'loaded': True, 'loadedTime': 2254.5, 'positionName': 'LEFT', 'positionCoords': [573.04, 300.5], 'bid': 2.15}, {'imgObject': {}, 'id': 'raspberries', 'src': '/static/foodstim60/raspberries.jpg', 'key': 'i', 'origWidth': 411, 'origHeight': 411, 'width': 411, 'height': 411, 'widthPercent': 0.45, 'rescaleHeight': False, 'trialN': 45, 'loaded': True, 'loadedTime': 2417.0999999046326, 'positionName': 'RIGHT', 'positionCoords': [1064.96, 299.5], 'bid': 8.89}]",53802.699999809265,1669856749306,chicken nuggets2,raspberries,2.15,8.89,6.74,raspberries,647.3000001907349,647,647.6000001430511,True,i,54951.699999809265,1149.0,1669856750455,1149,,HRV,HRV_0323,2022-12-01 01:08:28
46,"[{'imgObject': {}, 'id': 'avocado', 'src': '/static/foodstim60/avocado.jpg', 'key': 'u', 'origWidth': 409, 'origHeight': 409, 'width': 409, 'height': 409, 'widthPercent': 0.45, 'rescaleHeight': False, 'trialN': 46, 'loaded': True, 'loadedTime': 2418.899999856949, 'positionName': 'LEFT', 'positionCoords': [574.04, 300.5], 'bid': 8.58}, {'imgObject': {}, 'id': 'turkeysandwich', 'src': '/static/foodstim60/turkeysandwich.jpg', 'key': 'i', 'origWidth': 409, 'origHeight': 409, 'width': 409, 'height': 409, 'widthPercent': 0.45, 'rescaleHeight': False, 'trialN': 46, 'loaded': True, 'loadedTime': 2019.0999999046326, 'positionName': 'RIGHT', 'positionCoords': [1064.96, 300.5], 'bid': 9.6}]",54951.799999952316,1669856750455,avocado,turkeysandwich,8.58,9.6,1.0199999999999996,turkeysandwich,658.5999999046326,659,658.7999999523163,True,i,56117.0,1165.2000000476837,1669856751620,1165,,HRV,HRV_0323,2022-12-01 01:08:28
47,"[{'imgObject': {}, 'id': 'blueberries', 'src': '/static/foodstim60/blueberries.jpg', 'key': 'u', 'origWidth': 411, 'origHeight': 411, 'width': 411, 'height': 411, 'widthPercent': 0.45, 'rescaleHeight': False, 'trialN': 47, 'loaded': True, 'loadedTime': 2109.0999999046326, 'positionName': 'LEFT', 'positionCoords': [572.04, 299.5], 'bid': 7.73}, {'imgObject': {}, 'id': 'hotdog w must', 'src': '/static/foodstim60/hotdog w must.jpg', 'key': 'i', 'origWidth': 409, 'origHeight': 409, 'width': 409, 'height': 409, 'widthPercent': 0.45, 'rescaleHeight': False, 'trialN': 47, 'loaded': True, 'loadedTime': 2001.6999998092651, 'positionName': 'RIGHT', 'positionCoords': [1064.96, 300.5], 'bid': 1.38}]",56117.09999990463,1669856751620,blueberries,hotdog w must,7.73,1.38,-6.3500000000000005,blueberries,722.7999999523163,723,723.2999999523163,True,u,57340.799999952316,1223.7000000476837,1669856752844,1224,,HRV,HRV_0323,2022-12-01 01:08:28
48,"[{'imgObject': {}, 'id': 'baked potato', 'src': '/static/foodstim60/baked potato.jpg', 'key': 'u', 'origWidth': 409, 'origHeight': 410, 'width': 409, 'height': 410, 'widthPercent': 0.45, 'rescaleHeight': False, 'trialN': 48, 'loaded': True, 'loadedTime': 2189.7999999523163, 'positionName': 'LEFT', 'positionCoords': [574.04, 300], 'bid': 8.06}, {'imgObject': {}, 'id': 'cherry tomato', 'src': '/static/foodstim60/cherry tomato.jpg', 'key': 'i', 'origWidth': 410, 'origHeight': 410, 'width': 410, 'height': 410, 'widthPercent': 0.45, 'rescaleHeight': False, 'trialN': 48, 'loaded': True, 'loadedTime': 2317, 'positionName': 'RIGHT', 'positionCoords': [1064.96, 300], 'bid': 8.32}]",57340.89999985695,1669856752844,baked potato,cherry tomato,8.06,8.32,0.2599999999999998,baked potato,623.4000000953674,624,623.7000000476837,True,u,58473.199999809265,1132.2999999523163,1669856753976,1132,,HRV,HRV_0323,2022-12-01 01:08:28
49,"[{'imgObject': {}, 'id': 'chicken nuggets2', 'src': '/static/foodstim60/chicken nuggets2.jpg', 'key': 'u', 'origWidth': 410, 'origHeight': 409, 'width': 410, 'height': 409, 'widthPercent': 0.45, 'rescaleHeight': False, 'trialN': 49, 'loaded': True, 'loadedTime': 2274.0999999046326, 'positionName': 'LEFT', 'positionCoords': [573.04, 300.5], 'bid': 2.15}, {'imgObject': {}, 'id': 'popsicles', 'src': '/static/foodstim60/popsicles.jpg', 'key': 'i', 'origWidth': 410, 'origHeight': 410, 'width': 410, 'height': 410, 'widthPercent': 0.45, 'rescaleHeight': False, 'trialN': 49, 'loaded': True, 'loadedTime': 2004.5, 'positionName': 'RIGHT', 'positionCoords': [1064.96, 300], 'bid': 1.67}]",58473.299999952316,1669856753976,chicken nuggets2,popsicles,2.15,1.67,-0.48,popsicles,530.7999999523163,532,531.0999999046326,True,i,59514.39999985695,1041.0999999046326,1669856755017,1041,,HRV,HRV_0323,2022-12-01 01:08:28
50,"[{'imgObject': {}, 'id': 'mac & cheese', 'src': '/static/foodstim60/mac & cheese.jpg', 'key': 'u', 'origWidth': 410, 'origHeight': 410, 'width': 410, 'height': 410, 'widthPercent': 0.45, 'rescaleHeight': False, 'trialN': 50, 'loaded': True, 'loadedTime': 2018.0999999046326, 'positionName': 'LEFT', 'positionCoords': [573.04, 300], 'bid': 9}, {'imgObject': {}, 'id': 'strawberries', 'src': '/static/foodstim60/strawberries.jpg', 'key': 'i', 'origWidth': 410, 'origHeight': 410, 'width': 410, 'height': 410, 'widthPercent': 0.45, 'rescaleHeight': False, 'trialN': 50, 'loaded': True, 'loadedTime': 1990.6999998092651, 'positionName': 'RIGHT', 'positionCoords': [1064.96, 300], 'bid': 9.02}]",59514.5,1669856755018,mac & cheese,strawberries,9.0,9.02,0.019999999999999574,mac & cheese,621.5,621,621.6999998092651,True,u,60645.59999990463,1131.0999999046326,1669856756149,1131,,HRV,HRV_0323,2022-12-01 01:08:28
51,"[{'imgObject': {}, 'id': 'ice cream sundae 002', 'src': '/static/foodstim60/ice cream sundae 002.jpg', 'key': 'u', 'origWidth': 409, 'origHeight': 409, 'width': 409, 'height': 409, 'widthPercent': 0.45, 'rescaleHeight': False, 'trialN': 51, 'loaded': True, 'loadedTime': 2006.1999998092651, 'positionName': 'LEFT', 'positionCoords': [574.04, 300.5], 'bid': 7.76}, {'imgObject': {}, 'id': 'burrito', 'src': '/static/foodstim60/burrito.jpg', 'key': 'i', 'origWidth': 410, 'origHeight': 410, 'width': 410, 'height': 410, 'widthPercent': 0.45, 'rescaleHeight': False, 'trialN': 51, 'loaded': True, 'loadedTime': 2415.7999999523163, 'positionName': 'RIGHT', 'positionCoords': [1064.96, 300], 'bid': 3.95}]",60645.699999809265,1669856756149,ice cream sundae 002,burrito,7.76,3.95,-3.8099999999999996,ice cream sundae 002,928.3000001907349,928,928.5,True,u,62082.799999952316,1437.1000001430511,1669856757586,1437,,HRV,HRV_0323,2022-12-01 01:08:28
52,"[{'imgObject': {}, 'id': 'kiwi', 'src': '/static/foodstim60/kiwi.jpg', 'key': 'u', 'origWidth': 410, 'origHeight': 410, 'width': 410, 'height': 410, 'widthPercent': 0.45, 'rescaleHeight': False, 'trialN': 52, 'loaded': True, 'loadedTime': 2275.399999856949, 'positionName': 'LEFT', 'positionCoords': [573.04, 300], 'bid': 9.69}, {'imgObject': {}, 'id': 'hashbrowns', 'src': '/static/foodstim60/hashbrowns.jpg', 'key': 'i', 'origWidth': 411, 'origHeight': 410, 'width': 411, 'height': 410, 'widthPercent': 0.45, 'rescaleHeight': False, 'trialN': 52, 'loaded': True, 'loadedTime': 2114.5999999046326, 'positionName': 'RIGHT', 'positionCoords': [1064.96, 300], 'bid': 8.82}]",62082.89999985695,1669856757586,kiwi,hashbrowns,9.69,8.82,-0.8699999999999992,kiwi,745.2000000476837,746,745.6000001430511,True,u,63334.199999809265,1251.2999999523163,1669856758837,1251,,HRV,HRV_0323,2022-12-01 01:08:28
53,"[{'imgObject': {}, 'id': 'eggs', 'src': '/static/foodstim60/eggs.jpg', 'key': 'u', 'origWidth': 409, 'origHeight': 409, 'width': 409, 'height': 409, 'widthPercent': 0.45, 'rescaleHeight': False, 'trialN': 53, 'loaded': True, 'loadedTime': 2010.1999998092651, 'positionName': 'LEFT', 'positionCoords': [574.04, 300.5], 'bid': 9.09}, {'imgObject': {}, 'id': 'banana', 'src': '/static/foodstim60/banana.jpg', 'key': 'i', 'origWidth': 410, 'origHeight': 410, 'width': 410, 'height': 410, 'widthPercent': 0.45, 'rescaleHeight': False, 'trialN': 53, 'loaded': True, 'loadedTime': 2416.699999809265, 'positionName': 'RIGHT', 'positionCoords': [1064.96, 300], 'bid': 9.39}]",63334.299999952316,1669856758837,eggs,banana,9.09,9.39,0.3000000000000007,eggs,447.7000000476837,448,448.0,True,u,64288.39999985695,954.0999999046326,1669856759791,954,,HRV,HRV_0323,2022-12-01 01:08:28
54,"[{'imgObject': {}, 'id': 'omelette', 'src': '/static/foodstim60/omelette.jpg', 'key': 'u', 'origWidth': 410, 'origHeight': 409, 'width': 410, 'height': 409, 'widthPercent': 0.45, 'rescaleHeight': False, 'trialN': 54, 'loaded': True, 'loadedTime': 2412.0999999046326, 'positionName': 'LEFT', 'positionCoords': [573.04, 300.5], 'bid': 9.47}, {'imgObject': {}, 'id': 'sushi w_condiments', 'src': '/static/foodstim60/sushi w_condiments.jpg', 'key': 'i', 'origWidth': 410, 'origHeight': 410, 'width': 410, 'height': 410, 'widthPercent': 0.45, 'rescaleHeight': False, 'trialN': 54, 'loaded': True, 'loadedTime': 2021.8999998569489, 'positionName': 'RIGHT', 'positionCoords': [1064.96, 300], 'bid': 9.57}]",64288.5,1669856759792,omelette,sushi w_condiments,9.47,9.57,0.09999999999999964,omelette,647.5,647,647.8999998569489,True,u,65442.299999952316,1153.7999999523163,1669856760945,1153,,HRV,HRV_0323,2022-12-01 01:08:28
55,"[{'imgObject': {}, 'id': 'cherries', 'src': '/static/foodstim60/cherries.jpg', 'key': 'u', 'origWidth': 410, 'origHeight': 411, 'width': 410, 'height': 411, 'widthPercent': 0.45, 'rescaleHeight': False, 'trialN': 55, 'loaded': True, 'loadedTime': 2297.5999999046326, 'positionName': 'LEFT', 'positionCoords': [573.04, 299.5], 'bid': 9.12}, {'imgObject': {}, 'id': 'turkeysandwich', 'src': '/static/foodstim60/turkeysandwich.jpg', 'key': 'i', 'origWidth': 409, 'origHeight': 409, 'width': 409, 'height': 409, 'widthPercent': 0.45, 'rescaleHeight': False, 'trialN': 55, 'loaded': True, 'loadedTime': 2019.0999999046326, 'positionName': 'RIGHT', 'positionCoords': [1064.96, 300.5], 'bid': 9.6}]",65442.5,1669856760946,cherries,turkeysandwich,9.12,9.6,0.4800000000000004,turkeysandwich,751.5999999046326,751,751.7999999523163,True,i,66714.09999990463,1271.5999999046326,1669856762217,1271,,HRV,HRV_0323,2022-12-01 01:08:28
56,"[{'imgObject': {}, 'id': 'mashed potato', 'src': '/static/foodstim60/mashed potato.jpg', 'key': 'u', 'origWidth': 409, 'origHeight': 409, 'width': 409, 'height': 409, 'widthPercent': 0.45, 'rescaleHeight': False, 'trialN': 56, 'loaded': True, 'loadedTime': 2016.0999999046326, 'positionName': 'LEFT', 'positionCoords': [574.04, 300.5], 'bid': 8.85}, {'imgObject': {}, 'id': 'sweetpotato', 'src': '/static/foodstim60/sweetpotato.jpg', 'key': 'i', 'origWidth': 410, 'origHeight': 410, 'width': 410, 'height': 410, 'widthPercent': 0.45, 'rescaleHeight': False, 'trialN': 56, 'loaded': True, 'loadedTime': 2146, 'positionName': 'RIGHT', 'positionCoords': [1064.96, 300], 'bid': 8.700000000000001}]",66714.19999980927,1669856762217,mashed potato,sweetpotato,8.85,8.700000000000001,-0.14999999999999858,sweetpotato,759.8000001907349,760,760.0,True,i,67981.79999995232,1267.6000001430511,1669856763485,1268,,HRV,HRV_0323,2022-12-01 01:08:28
57,"[{'imgObject': {}, 'id': 'sweetpotato', 'src': '/static/foodstim60/sweetpotato.jpg', 'key': 'u', 'origWidth': 410, 'origHeight': 410, 'width': 410, 'height': 410, 'widthPercent': 0.45, 'rescaleHeight': False, 'trialN': 57, 'loaded': True, 'loadedTime': 2145.899999856949, 'positionName': 'LEFT', 'positionCoords': [573.04, 300], 'bid': 8.700000000000001}, {'imgObject': {}, 'id': 'turkey sandwich', 'src': '/static/foodstim60/turkey sandwich.jpg', 'key': 'i', 'origWidth': 409, 'origHeight': 409, 'width': 409, 'height': 409, 'widthPercent': 0.45, 'rescaleHeight': False, 'trialN': 57, 'loaded': True, 'loadedTime': 1999.0999999046326, 'positionName': 'RIGHT', 'positionCoords': [1064.96, 300.5], 'bid': 9.68}]",67981.89999985695,1669856763485,sweetpotato,turkey sandwich,8.700000000000001,9.68,0.9799999999999986,turkey sandwich,536.1000001430511,536,536.2999999523163,True,i,69035.69999980927,1053.7999999523163,1669856764539,1054,,HRV,HRV_0323,2022-12-01 01:08:28
58,"[{'imgObject': {}, 'id': 'burrito', 'src': '/static/foodstim60/burrito.jpg', 'key': 'u', 'origWidth': 410, 'origHeight': 410, 'width': 410, 'height': 410, 'widthPercent': 0.45, 'rescaleHeight': False, 'trialN': 58, 'loaded': True, 'loadedTime': 2415.2999999523163, 'positionName': 'LEFT', 'positionCoords': [573.04, 300], 'bid': 3.95}, {'imgObject': {}, 'id': 'granola w milk', 'src': '/static/foodstim60/granola w milk.jpg', 'key': 'i', 'origWidth': 410, 'origHeight': 410, 'width': 410, 'height': 410, 'widthPercent': 0.45, 'rescaleHeight': False, 'trialN': 58, 'loaded': True, 'loadedTime': 2420.199999809265, 'positionName': 'RIGHT', 'positionCoords': [1064.96, 300], 'bid': 8.950000000000001}]",69035.79999995232,1669856764539,burrito,granola w milk,3.95,8.950000000000001,5.000000000000001,granola w milk,748.2999999523163,748,748.5,True,i,70289.0,1253.2000000476837,1669856765792,1253,,HRV,HRV_0323,2022-12-01 01:08:28
59,"[{'imgObject': {}, 'id': 'banana', 'src': '/static/foodstim60/banana.jpg', 'key': 'u', 'origWidth': 410, 'origHeight': 410, 'width': 410, 'height': 410, 'widthPercent': 0.45, 'rescaleHeight': False, 'trialN': 59, 'loaded': True, 'loadedTime': 2416.399999856949, 'positionName': 'LEFT', 'positionCoords': [573.04, 300], 'bid': 9.39}, {'imgObject': {}, 'id': 'bagel plain', 'src': '/static/foodstim60/bagel plain.jpg', 'key': 'i', 'origWidth': 410, 'origHeight': 410, 'width': 410, 'height': 410, 'widthPercent': 0.45, 'rescaleHeight': False, 'trialN': 59, 'loaded': True, 'loadedTime': 1937, 'positionName': 'RIGHT', 'positionCoords': [1064.96, 300], 'bid': 9.26}]",70289.09999990463,1669856765792,banana,bagel plain,9.39,9.26,-0.13000000000000078,banana,780.9000000953674,781,781.0999999046326,True,u,71576.19999980927,1287.0999999046326,1669856767079,1287,,HRV,HRV_0323,2022-12-01 01:08:28
60,"[{'imgObject': {}, 'id': 'shreddedwheatwithmilk', 'src': '/static/foodstim60/shreddedwheatwithmilk.jpg', 'key': 'u', 'origWidth': 410, 'origHeight': 410, 'width': 410, 'height': 410, 'widthPercent': 0.45, 'rescaleHeight': False, 'trialN': 60, 'loaded': True, 'loadedTime': 2299.2999999523163, 'positionName': 'LEFT', 'positionCoords': [573.04, 300], 'bid': 9.07}, {'imgObject': {}, 'id': 'eggs', 'src': '/static/foodstim60/eggs.jpg', 'key': 'i', 'origWidth': 409, 'origHeight': 409, 'width': 409, 'height': 409, 'widthPercent': 0.45, 'rescaleHeight': False, 'trialN': 60, 'loaded': True, 'loadedTime': 2010.5999999046326, 'positionName': 'RIGHT', 'positionCoords': [1064.96, 300.5], 'bid': 9.09}]",71576.29999995232,1669856767079,shreddedwheatwithmilk,eggs,9.07,9.09,0.019999999999999574,eggs,605.7000000476837,606,606.0,True,i,72693.69999980927,1117.3999998569489,1669856768197,1118,,HRV,HRV_0323,2022-12-01 01:08:28
61,"[{'imgObject': {}, 'id': 'cheerios', 'src': '/static/foodstim60/cheerios.jpg', 'key': 'u', 'origWidth': 409, 'origHeight': 410, 'width': 409, 'height': 410, 'widthPercent': 0.45, 'rescaleHeight': False, 'trialN': 61, 'loaded': True, 'loadedTime': 2409.699999809265, 'positionName': 'LEFT', 'positionCoords': [574.04, 300], 'bid': 7.99}, {'imgObject': {}, 'id': 'avocado', 'src': '/static/foodstim60/avocado.jpg', 'key': 'i', 'origWidth': 409, 'origHeight': 409, 'width': 409, 'height': 409, 'widthPercent': 0.45, 'rescaleHeight': False, 'trialN': 61, 'loaded': True, 'loadedTime': 2419.5999999046326, 'positionName': 'RIGHT', 'positionCoords': [1064.96, 300.5], 'bid': 8.58}]",72693.79999995232,1669856768197,cheerios,avocado,7.99,8.58,0.5899999999999999,cheerios,610.2999999523163,611,610.5999999046326,True,u,73811.19999980927,1117.3999998569489,1669856769314,1117,,HRV,HRV_0323,2022-12-01 01:08:28
62,"[{'imgObject': {}, 'id': 'sweetpotato', 'src': '/static/foodstim60/sweetpotato.jpg', 'key': 'u', 'origWidth': 410, 'origHeight': 410, 'width': 410, 'height': 410, 'widthPercent': 0.45, 'rescaleHeight': False, 'trialN': 62, 'loaded': True, 'loadedTime': 2146.0999999046326, 'positionName': 'LEFT', 'positionCoords': [573.04, 300], 'bid': 8.700000000000001}, {'imgObject': {}, 'id': 'hashbrowns', 'src': '/static/foodstim60/hashbrowns.jpg', 'key': 'i', 'origWidth': 411, 'origHeight': 410, 'width': 411, 'height': 410, 'widthPercent': 0.45, 'rescaleHeight': False, 'trialN': 62, 'loaded': True, 'loadedTime': 2115.7999999523163, 'positionName': 'RIGHT', 'positionCoords': [1064.96, 300], 'bid': 8.82}]",73811.39999985695,1669856769314,sweetpotato,hashbrowns,8.700000000000001,8.82,0.11999999999999922,sweetpotato,610.6000001430511,611,610.7999999523163,True,u,74928.69999980927,1117.2999999523163,1669856770432,1118,,HRV,HRV_0323,2022-12-01 01:08:28
63,"[{'imgObject': {}, 'id': 'luckycharms', 'src': '/static/foodstim60/luckycharms.jpg', 'key': 'u', 'origWidth': 410, 'origHeight': 409, 'width': 410, 'height': 409, 'widthPercent': 0.45, 'rescaleHeight': False, 'trialN': 63, 'loaded': True, 'loadedTime': 2421.899999856949, 'positionName': 'LEFT', 'positionCoords': [573.04, 300.5], 'bid': 7.97}, {'imgObject': {}, 'id': 'salmon', 'src': '/static/foodstim60/salmon.jpg', 'key': 'i', 'origWidth': 410, 'origHeight': 409, 'width': 410, 'height': 409, 'widthPercent': 0.45, 'rescaleHeight': False, 'trialN': 63, 'loaded': True, 'loadedTime': 2015.3999998569489, 'positionName': 'RIGHT', 'positionCoords': [1064.96, 300.5], 'bid': 7.56}]",74928.89999985695,1669856770432,luckycharms,salmon,7.97,7.56,-0.41000000000000014,salmon,599.2000000476837,599,599.4000000953674,True,i,76029.39999985695,1100.5,1669856771533,1101,,HRV,HRV_0323,2022-12-01 01:08:28
64,"[{'imgObject': {}, 'id': 'mango', 'src': '/static/foodstim60/mango.jpg', 'key': 'u', 'origWidth': 411, 'origHeight': 411, 'width': 411, 'height': 411, 'widthPercent': 0.45, 'rescaleHeight': False, 'trialN': 64, 'loaded': True, 'loadedTime': 2020.5, 'positionName': 'LEFT', 'positionCoords': [572.04, 299.5], 'bid': 8.97}, {'imgObject': {}, 'id': 'cantaloupe', 'src': '/static/foodstim60/cantaloupe.jpg', 'key': 'i', 'origWidth': 409, 'origHeight': 409, 'width': 409, 'height': 409, 'widthPercent': 0.45, 'rescaleHeight': False, 'trialN': 64, 'loaded': True, 'loadedTime': 2033.2999999523163, 'positionName': 'RIGHT', 'positionCoords': [1064.96, 300.5], 'bid': 9.09}]",76029.5,1669856771533,mango,cantaloupe,8.97,9.09,0.11999999999999922,mango,638.5999999046326,639,638.8999998569489,True,u,77177.5,1148.0,1669856772681,1148,,HRV,HRV_0323,2022-12-01 01:08:28
65,"[{'imgObject': {}, 'id': 'mashed potato', 'src': '/static/foodstim60/mashed potato.jpg', 'key': 'u', 'origWidth': 409, 'origHeight': 409, 'width': 409, 'height': 409, 'widthPercent': 0.45, 'rescaleHeight': False, 'trialN': 65, 'loaded': True, 'loadedTime': 2017, 'positionName': 'LEFT', 'positionCoords': [574.04, 300.5], 'bid': 8.85}, {'imgObject': {}, 'id': 'fried eggs', 'src': '/static/foodstim60/fried eggs.jpg', 'key': 'i', 'origWidth': 410, 'origHeight': 410, 'width': 410, 'height': 410, 'widthPercent': 0.45, 'rescaleHeight': False, 'trialN': 65, 'loaded': True, 'loadedTime': 2422.7999999523163, 'positionName': 'RIGHT', 'positionCoords': [1064.96, 300], 'bid': 8.84}]",77177.69999980927,1669856772681,mashed potato,fried eggs,8.85,8.84,-0.009999999999999787,fried eggs,790.4000000953674,790,790.7000000476837,True,i,78478.0,1300.3000001907349,1669856773981,1300,,HRV,HRV_0323,2022-12-01 01:08:28
66,"[{'imgObject': {}, 'id': 'orange slices', 'src': '/static/foodstim60/orange slices.jpg', 'key': 'u', 'origWidth': 409, 'origHeight': 410, 'width': 409, 'height': 410, 'widthPercent': 0.45, 'rescaleHeight': False, 'trialN': 66, 'loaded': True, 'loadedTime': 2012.2999999523163, 'positionName': 'LEFT', 'positionCoords': [574.04, 300], 'bid': 9.12}, {'imgObject': {}, 'id': 'bagel and cc', 'src': '/static/foodstim60/bagel and cc.jpg', 'key': 'i', 'origWidth': 410, 'origHeight': 410, 'width': 410, 'height': 410, 'widthPercent': 0.45, 'rescaleHeight': False, 'trialN': 66, 'loaded': True, 'loadedTime': 2339.399999856949, 'positionName': 'RIGHT', 'positionCoords': [1064.96, 300], 'bid': 7.83}]",78478.19999980927,1669856773981,orange slices,bagel and cc,9.12,7.83,-1.2899999999999991,orange slices,625.7000000476837,626,626.1000001430511,True,u,79609.29999995232,1131.1000001430511,1669856775112,1131,,HRV,HRV_0323,2022-12-01 01:08:28
67,"[{'imgObject': {}, 'id': 'mac & cheese', 'src': '/static/foodstim60/mac & cheese.jpg', 'key': 'u', 'origWidth': 410, 'origHeight': 410, 'width': 410, 'height': 410, 'widthPercent': 0.45, 'rescaleHeight': False, 'trialN': 67, 'loaded': True, 'loadedTime': 2017.6999998092651, 'positionName': 'LEFT', 'positionCoords': [573.04, 300], 'bid': 9}, {'imgObject': {}, 'id': 'orange slices', 'src': '/static/foodstim60/orange slices.jpg', 'key': 'i', 'origWidth': 409, 'origHeight': 410, 'width': 409, 'height': 410, 'widthPercent': 0.45, 'rescaleHeight': False, 'trialN': 67, 'loaded': True, 'loadedTime': 2013.2999999523163, 'positionName': 'RIGHT', 'positionCoords': [1064.96, 300], 'bid': 9.12}]",79609.39999985695,1669856775112,mac & cheese,orange slices,9.0,9.12,0.11999999999999922,mac & cheese,650.6000001430511,651,650.7999999523163,True,u,80772.5,1163.1000001430511,1669856776276,1164,,HRV,HRV_0323,2022-12-01 01:08:28
68,"[{'imgObject': {}, 'id': 'turkeysandwich', 'src': '/static/foodstim60/turkeysandwich.jpg', 'key': 'u', 'origWidth': 409, 'origHeight': 409, 'width': 409, 'height': 409, 'widthPercent': 0.45, 'rescaleHeight': False, 'trialN': 68, 'loaded': True, 'loadedTime': 2019.5, 'positionName': 'LEFT', 'positionCoords': [574.04, 300.5], 'bid': 9.6}, {'imgObject': {}, 'id': 'lox', 'src': '/static/foodstim60/lox.jpg', 'key': 'i', 'origWidth': 410, 'origHeight': 411, 'width': 410, 'height': 411, 'widthPercent': 0.45, 'rescaleHeight': False, 'trialN': 68, 'loaded': True, 'loadedTime': 2106.899999856949, 'positionName': 'RIGHT', 'positionCoords': [1064.96, 299.5], 'bid': 9.59}]",80772.69999980927,1669856776276,turkeysandwich,lox,9.6,9.59,-0.009999999999999787,turkeysandwich,571.3000001907349,571,571.5,True,u,81860.0,1087.3000001907349,1669856777363,1087,,HRV,HRV_0323,2022-12-01 01:08:28
69,"[{'imgObject': {}, 'id': 'fried eggs', 'src': '/static/foodstim60/fried eggs.jpg', 'key': 'u', 'origWidth': 410, 'origHeight': 410, 'width': 410, 'height': 410, 'widthPercent': 0.45, 'rescaleHeight': False, 'trialN': 69, 'loaded': True, 'loadedTime': 2422.899999856949, 'positionName': 'LEFT', 'positionCoords': [573.04, 300], 'bid': 8.84}, {'imgObject': {}, 'id': 'edamame', 'src': '/static/foodstim60/edamame.jpg', 'key': 'i', 'origWidth': 409, 'origHeight': 410, 'width': 409, 'height': 410, 'widthPercent': 0.45, 'rescaleHeight': False, 'trialN': 69, 'loaded': True, 'loadedTime': 2380.199999809265, 'positionName': 'RIGHT', 'positionCoords': [1064.96, 300], 'bid': 8.43}]",81860.19999980927,1669856777363,fried eggs,edamame,8.84,8.43,-0.41000000000000014,fried eggs,920.1000001430511,921,920.3000001907349,True,u,83298.19999980927,1438.0,1669856778801,1438,,HRV,HRV_0323,2022-12-01 01:08:28
70,"[{'imgObject': {}, 'id': 'Tribe humus pita', 'src': '/static/foodstim60/Tribe humus pita.jpg', 'key': 'u', 'origWidth': 411, 'origHeight': 411, 'width': 411, 'height': 411, 'widthPercent': 0.45, 'rescaleHeight': False, 'trialN': 70, 'loaded': True, 'loadedTime': 2025.3999998569489, 'positionName': 'LEFT', 'positionCoords': [572.04, 299.5], 'bid': 7.8}, {'imgObject': {}, 'id': 'bagel and cc', 'src': '/static/foodstim60/bagel and cc.jpg', 'key': 'i', 'origWidth': 410, 'origHeight': 410, 'width': 410, 'height': 410, 'widthPercent': 0.45, 'rescaleHeight': False, 'trialN': 70, 'loaded': True, 'loadedTime': 2339.399999856949, 'positionName': 'RIGHT', 'positionCoords': [1064.96, 300], 'bid': 7.83}]",83298.39999985695,1669856778801,Tribe humus pita,bagel and cc,7.8,7.83,0.03000000000000025,bagel and cc,645.7000000476837,646,645.9000000953674,True,i,84445.59999990463,1147.2000000476837,1669856779949,1148,,HRV,HRV_0323,2022-12-01 01:08:28
71,"[{'imgObject': {}, 'id': 'banana', 'src': '/static/foodstim60/banana.jpg', 'key': 'u', 'origWidth': 410, 'origHeight': 410, 'width': 410, 'height': 410, 'widthPercent': 0.45, 'rescaleHeight': False, 'trialN': 71, 'loaded': True, 'loadedTime': 2416.5999999046326, 'positionName': 'LEFT', 'positionCoords': [573.04, 300], 'bid': 9.39}, {'imgObject': {}, 'id': 'kiwi', 'src': '/static/foodstim60/kiwi.jpg', 'key': 'i', 'origWidth': 410, 'origHeight': 410, 'width': 410, 'height': 410, 'widthPercent': 0.45, 'rescaleHeight': False, 'trialN': 71, 'loaded': True, 'loadedTime': 2274.5, 'positionName': 'RIGHT', 'positionCoords': [1064.96, 300], 'bid': 9.69}]",84445.69999980927,1669856779949,banana,kiwi,9.39,9.69,0.29999999999999893,kiwi,746.3000001907349,746,746.7000000476837,True,i,85700.5,1254.8000001907349,1669856781204,1255,,HRV,HRV_0323,2022-12-01 01:08:28
72,"[{'imgObject': {}, 'id': 'burger', 'src': '/static/foodstim60/burger.jpg', 'key': 'u', 'origWidth': 409, 'origHeight': 409, 'width': 409, 'height': 409, 'widthPercent': 0.45, 'rescaleHeight': False, 'trialN': 72, 'loaded': True, 'loadedTime': 2296.5, 'positionName': 'LEFT', 'positionCoords': [574.04, 300.5], 'bid': 9.61}, {'imgObject': {}, 'id': 'cocktailshrimp', 'src': '/static/foodstim60/cocktailshrimp.jpg', 'key': 'i', 'origWidth': 410, 'origHeight': 410, 'width': 410, 'height': 410, 'widthPercent': 0.45, 'rescaleHeight': False, 'trialN': 72, 'loaded': True, 'loadedTime': 2167.699999809265, 'positionName': 'RIGHT', 'positionCoords': [1064.96, 300], 'bid': 9.42}]",85700.69999980927,1669856781204,burger,cocktailshrimp,9.61,9.42,-0.1899999999999995,burger,653.2000000476837,653,653.5,True,u,86864.79999995232,1164.1000001430511,1669856782368,1164,,HRV,HRV_0323,2022-12-01 01:08:28
73,"[{'imgObject': {}, 'id': 'cherry tomato', 'src': '/static/foodstim60/cherry tomato.jpg', 'key': 'u', 'origWidth': 410, 'origHeight': 410, 'width': 410, 'height': 410, 'widthPercent': 0.45, 'rescaleHeight': False, 'trialN': 73, 'loaded': True, 'loadedTime': 2317.7999999523163, 'positionName': 'LEFT', 'positionCoords': [573.04, 300], 'bid': 8.32}, {'imgObject': {}, 'id': 'steak', 'src': '/static/foodstim60/steak.jpg', 'key': 'i', 'origWidth': 410, 'origHeight': 410, 'width': 410, 'height': 410, 'widthPercent': 0.45, 'rescaleHeight': False, 'trialN': 73, 'loaded': True, 'loadedTime': 2338.2999999523163, 'positionName': 'RIGHT', 'positionCoords': [1064.96, 300], 'bid': 3.18}]",86864.89999985695,1669856782368,cherry tomato,steak,8.32,3.18,-5.140000000000001,cherry tomato,681.1000001430511,681,681.2999999523163,True,u,88056.5,1191.6000001430511,1669856783560,1192,,HRV,HRV_0323,2022-12-01 01:08:28
74,"[{'imgObject': {}, 'id': 'burger', 'src': '/static/foodstim60/burger.jpg', 'key': 'u', 'origWidth': 409, 'origHeight': 409, 'width': 409, 'height': 409, 'widthPercent': 0.45, 'rescaleHeight': False, 'trialN': 74, 'loaded': True, 'loadedTime': 2296.2999999523163, 'positionName': 'LEFT', 'positionCoords': [574.04, 300.5], 'bid': 9.61}, {'imgObject': {}, 'id': 'strawberries', 'src': '/static/foodstim60/strawberries.jpg', 'key': 'i', 'origWidth': 410, 'origHeight': 410, 'width': 410, 'height': 410, 'widthPercent': 0.45, 'rescaleHeight': False, 'trialN': 74, 'loaded': True, 'loadedTime': 1975.1999998092651, 'positionName': 'RIGHT', 'positionCoords': [1064.96, 300], 'bid': 9.02}]",88056.69999980927,1669856783560,burger,strawberries,9.61,9.02,-0.5899999999999999,burger,559.3000001907349,559,559.6000001430511,True,u,89131.0,1074.3000001907349,1669856784634,1074,,HRV,HRV_0323,2022-12-01 01:08:28
75,"[{'imgObject': {}, 'id': 'grilled chicken strips', 'src': '/static/foodstim60/grilled chicken strips.jpg', 'key': 'u', 'origWidth': 410, 'origHeight': 411, 'width': 410, 'height': 411, 'widthPercent': 0.45, 'rescaleHeight': False, 'trialN': 75, 'loaded': True, 'loadedTime': 2014.5999999046326, 'positionName': 'LEFT', 'positionCoords': [573.04, 299.5], 'bid': 8.49}, {'imgObject': {}, 'id': 'froot loops w milk', 'src': '/static/foodstim60/froot loops w milk.jpg', 'key': 'i', 'origWidth': 410, 'origHeight': 410, 'width': 410, 'height': 410, 'widthPercent': 0.45, 'rescaleHeight': False, 'trialN': 75, 'loaded': True, 'loadedTime': 2423.7999999523163, 'positionName': 'RIGHT', 'positionCoords': [1064.96, 300], 'bid': 7.85}]",89131.09999990463,1669856784634,grilled chicken strips,froot loops w milk,8.49,7.85,-0.6400000000000006,froot loops w milk,556.9000000953674,557,557.0999999046326,True,i,90189.09999990463,1058.0,1669856785692,1058,,HRV,HRV_0323,2022-12-01 01:08:28
76,"[{'imgObject': {}, 'id': 'salmon', 'src': '/static/foodstim60/salmon.jpg', 'key': 'u', 'origWidth': 410, 'origHeight': 409, 'width': 410, 'height': 409, 'widthPercent': 0.45, 'rescaleHeight': False, 'trialN': 76, 'loaded': True, 'loadedTime': 2015.7999999523163, 'positionName': 'LEFT', 'positionCoords': [573.04, 300.5], 'bid': 7.56}, {'imgObject': {}, 'id': 'hotdog w must', 'src': '/static/foodstim60/hotdog w must.jpg', 'key': 'i', 'origWidth': 409, 'origHeight': 409, 'width': 409, 'height': 409, 'widthPercent': 0.45, 'rescaleHeight': False, 'trialN': 76, 'loaded': True, 'loadedTime': 2002.5, 'positionName': 'RIGHT', 'positionCoords': [1064.96, 300.5], 'bid': 1.38}]",90189.19999980927,1669856785692,salmon,hotdog w must,7.56,1.38,-6.18,salmon,738.8000001907349,739,739.0,True,u,91443.79999995232,1254.6000001430511,1669856786947,1255,,HRV,HRV_0323,2022-12-01 01:08:28
77,"[{'imgObject': {}, 'id': 'eggs', 'src': '/static/foodstim60/eggs.jpg', 'key': 'u', 'origWidth': 409, 'origHeight': 409, 'width': 409, 'height': 409, 'widthPercent': 0.45, 'rescaleHeight': False, 'trialN': 77, 'loaded': True, 'loadedTime': 2009.6999998092651, 'positionName': 'LEFT', 'positionCoords': [574.04, 300.5], 'bid': 9.09}, {'imgObject': {}, 'id': 'cherries', 'src': '/static/foodstim60/cherries.jpg', 'key': 'i', 'origWidth': 410, 'origHeight': 411, 'width': 410, 'height': 411, 'widthPercent': 0.45, 'rescaleHeight': False, 'trialN': 77, 'loaded': True, 'loadedTime': 2298.2999999523163, 'positionName': 'RIGHT', 'positionCoords': [1064.96, 299.5], 'bid': 9.12}]",91443.79999995232,1669856786947,eggs,cherries,9.09,9.12,0.02999999999999936,eggs,570.2000000476837,571,570.5999999046326,True,u,92529.39999985695,1085.5999999046326,1669856788032,1085,,HRV,HRV_0323,2022-12-01 01:08:28
78,"[{'imgObject': {}, 'id': 'raspberries', 'src': '/static/foodstim60/raspberries.jpg', 'key': 'u', 'origWidth': 411, 'origHeight': 411, 'width': 411, 'height': 411, 'widthPercent': 0.45, 'rescaleHeight': False, 'trialN': 78, 'loaded': True, 'loadedTime': 2418.199999809265, 'positionName': 'LEFT', 'positionCoords': [572.04, 299.5], 'bid': 8.89}, {'imgObject': {}, 'id': 'Grapes', 'src': '/static/foodstim60/Grapes.jpg', 'key': 'i', 'origWidth': 411, 'origHeight': 411, 'width': 411, 'height': 411, 'widthPercent': 0.45, 'rescaleHeight': False, 'trialN': 78, 'loaded': True, 'loadedTime': 2424.899999856949, 'positionName': 'RIGHT', 'positionCoords': [1064.96, 299.5], 'bid': 8.88}]",92529.5,1669856788033,raspberries,Grapes,8.89,8.88,-0.009999999999999787,Grapes,578.5,579,578.8999998569489,True,i,93615.5,1086.0,1669856789119,1086,,HRV,HRV_0323,2022-12-01 01:08:28
79,"[{'imgObject': {}, 'id': 'froot loops w milk', 'src': '/static/foodstim60/froot loops w milk.jpg', 'key': 'u', 'origWidth': 410, 'origHeight': 410, 'width': 410, 'height': 410, 'widthPercent': 0.45, 'rescaleHeight': False, 'trialN': 79, 'loaded': True, 'loadedTime': 2423.899999856949, 'positionName': 'LEFT', 'positionCoords': [573.04, 300], 'bid': 7.85}, {'imgObject': {}, 'id': 'hotdog w must', 'src': '/static/foodstim60/hotdog w must.jpg', 'key': 'i', 'origWidth': 409, 'origHeight': 409, 'width': 409, 'height': 409, 'widthPercent': 0.45, 'rescaleHeight': False, 'trialN': 79, 'loaded': True, 'loadedTime': 2000.6999998092651, 'positionName': 'RIGHT', 'positionCoords': [1064.96, 300.5], 'bid': 1.38}]",93615.79999995232,1669856789119,froot loops w milk,hotdog w must,7.85,1.38,-6.47,hotdog w must,528.2999999523163,529,528.7000000476837,True,i,94656.89999985695,1041.0999999046326,1669856790160,1041,,HRV,HRV_0323,2022-12-01 01:08:28
80,"[{'imgObject': {}, 'id': 'apple slices', 'src': '/static/foodstim60/apple slices.jpg', 'key': 'u', 'origWidth': 409, 'origHeight': 410, 'width': 409, 'height': 410, 'widthPercent': 0.45, 'rescaleHeight': False, 'trialN': 80, 'loaded': True, 'loadedTime': 2011.5999999046326, 'positionName': 'LEFT', 'positionCoords': [574.04, 300], 'bid': 9.27}, {'imgObject': {}, 'id': 'luckycharms', 'src': '/static/foodstim60/luckycharms.jpg', 'key': 'i', 'origWidth': 410, 'origHeight': 409, 'width': 410, 'height': 409, 'widthPercent': 0.45, 'rescaleHeight': False, 'trialN': 80, 'loaded': True, 'loadedTime': 2422, 'positionName': 'RIGHT', 'positionCoords': [1064.96, 300.5], 'bid': 7.97}]",94657.09999990463,1669856790160,apple slices,luckycharms,9.27,7.97,-1.2999999999999998,apple slices,1153.0,1153,1153.2000000476837,True,u,96316.19999980927,1659.0999999046326,1669856791819,1659,,HRV,HRV_0323,2022-12-01 01:08:28
81,"[{'imgObject': {}, 'id': 'baked potato', 'src': '/static/foodstim60/baked potato.jpg', 'key': 'u', 'origWidth': 409, 'origHeight': 410, 'width': 409, 'height': 410, 'widthPercent': 0.45, 'rescaleHeight': False, 'trialN': 81, 'loaded': True, 'loadedTime': 2190.5, 'positionName': 'LEFT', 'positionCoords': [574.04, 300], 'bid': 8.06}, {'imgObject': {}, 'id': 'Tribe humus pita', 'src': '/static/foodstim60/Tribe humus pita.jpg', 'key': 'i', 'origWidth': 411, 'origHeight': 411, 'width': 411, 'height': 411, 'widthPercent': 0.45, 'rescaleHeight': False, 'trialN': 81, 'loaded': True, 'loadedTime': 2025, 'positionName': 'RIGHT', 'positionCoords': [1064.96, 299.5], 'bid': 7.8}]",96316.29999995232,1669856791819,baked potato,Tribe humus pita,8.06,7.8,-0.2600000000000007,Tribe humus pita,653.7000000476837,654,653.8999998569489,True,i,97479.59999990463,1163.2999999523163,1669856792983,1164,,HRV,HRV_0323,2022-12-01 01:08:28
82,"[{'imgObject': {}, 'id': 'shreddedwheatwithmilk', 'src': '/static/foodstim60/shreddedwheatwithmilk.jpg', 'key': 'u', 'origWidth': 410, 'origHeight': 410, 'width': 410, 'height': 410, 'widthPercent': 0.45, 'rescaleHeight': False, 'trialN': 82, 'loaded': True, 'loadedTime': 2299.0999999046326, 'positionName': 'LEFT', 'positionCoords': [573.04, 300], 'bid': 9.07}, {'imgObject': {}, 'id': 'turkey sandwich', 'src': '/static/foodstim60/turkey sandwich.jpg', 'key': 'i', 'origWidth': 409, 'origHeight': 409, 'width': 409, 'height': 409, 'widthPercent': 0.45, 'rescaleHeight': False, 'trialN': 82, 'loaded': True, 'loadedTime': 1999.3999998569489, 'positionName': 'RIGHT', 'positionCoords': [1064.96, 300.5], 'bid': 9.68}]",97479.69999980927,1669856792983,shreddedwheatwithmilk,turkey sandwich,9.07,9.68,0.6099999999999994,turkey sandwich,848.3000001907349,849,848.8000001907349,True,i,98841.69999980927,1362.0,1669856794345,1362,,HRV,HRV_0323,2022-12-01 01:08:28
83,"[{'imgObject': {}, 'id': 'seaweed', 'src': '/static/foodstim60/seaweed.jpg', 'key': 'u', 'origWidth': 410, 'origHeight': 410, 'width': 410, 'height': 410, 'widthPercent': 0.45, 'rescaleHeight': False, 'trialN': 83, 'loaded': True, 'loadedTime': 2024.2999999523163, 'positionName': 'LEFT', 'positionCoords': [573.04, 300], 'bid': 8.83}, {'imgObject': {}, 'id': 'granola w milk', 'src': '/static/foodstim60/granola w milk.jpg', 'key': 'i', 'origWidth': 410, 'origHeight': 410, 'width': 410, 'height': 410, 'widthPercent': 0.45, 'rescaleHeight': False, 'trialN': 83, 'loaded': True, 'loadedTime': 2420.7999999523163, 'positionName': 'RIGHT', 'positionCoords': [1064.96, 300], 'bid': 8.950000000000001}]",98841.79999995232,1669856794345,seaweed,granola w milk,8.83,8.950000000000001,0.120000000000001,seaweed,564.2000000476837,565,564.7000000476837,True,u,99911.69999980927,1069.8999998569489,1669856795415,1070,,HRV,HRV_0323,2022-12-01 01:08:28
84,"[{'imgObject': {}, 'id': 'salad w chicken', 'src': '/static/foodstim60/salad w chicken.jpg', 'key': 'u', 'origWidth': 411, 'origHeight': 411, 'width': 411, 'height': 411, 'widthPercent': 0.45, 'rescaleHeight': False, 'trialN': 84, 'loaded': True, 'loadedTime': 2113.0999999046326, 'positionName': 'LEFT', 'positionCoords': [572.04, 299.5], 'bid': 9}, {'imgObject': {}, 'id': 'rigatoni and sauce', 'src': '/static/foodstim60/rigatoni and sauce.jpg', 'key': 'i', 'origWidth': 410, 'origHeight': 411, 'width': 410, 'height': 411, 'widthPercent': 0.45, 'rescaleHeight': False, 'trialN': 84, 'loaded': True, 'loadedTime': 2413.899999856949, 'positionName': 'RIGHT', 'positionCoords': [1064.96, 299.5], 'bid': 7.61}]",99911.79999995232,1669856795415,salad w chicken,rigatoni and sauce,9.0,7.61,-1.3899999999999997,salad w chicken,466.09999990463257,466,466.5,True,u,100892.19999980927,980.3999998569489,1669856796395,980,,HRV,HRV_0323,2022-12-01 01:08:28
85,"[{'imgObject': {}, 'id': 'turkeysandwich', 'src': '/static/foodstim60/turkeysandwich.jpg', 'key': 'u', 'origWidth': 409, 'origHeight': 409, 'width': 409, 'height': 409, 'widthPercent': 0.45, 'rescaleHeight': False, 'trialN': 85, 'loaded': True, 'loadedTime': 2019.2999999523163, 'positionName': 'LEFT', 'positionCoords': [574.04, 300.5], 'bid': 9.6}, {'imgObject': {}, 'id': 'blackbeanswithrice', 'src': '/static/foodstim60/blackbeanswithrice.jpg', 'key': 'i', 'origWidth': 410, 'origHeight': 410, 'width': 410, 'height': 410, 'widthPercent': 0.45, 'rescaleHeight': False, 'trialN': 85, 'loaded': True, 'loadedTime': 2411.0999999046326, 'positionName': 'RIGHT', 'positionCoords': [1064.96, 300], 'bid': 9.79}]",100892.29999995232,1669856796395,turkeysandwich,blackbeanswithrice,9.6,9.79,0.1899999999999995,turkeysandwich,492.0,493,492.2000000476837,True,u,101887.5,995.2000000476837,1669856797391,996,,HRV,HRV_0323,2022-12-01 01:08:28
86,"[{'imgObject': {}, 'id': 'luckycharms', 'src': '/static/foodstim60/luckycharms.jpg', 'key': 'u', 'origWidth': 410, 'origHeight': 409, 'width': 410, 'height': 409, 'widthPercent': 0.45, 'rescaleHeight': False, 'trialN': 86, 'loaded': True, 'loadedTime': 2421.199999809265, 'positionName': 'LEFT', 'positionCoords': [573.04, 300.5], 'bid': 7.97}, {'imgObject': {}, 'id': 'popsicles', 'src': '/static/foodstim60/popsicles.jpg', 'key': 'i', 'origWidth': 410, 'origHeight': 410, 'width': 410, 'height': 410, 'widthPercent': 0.45, 'rescaleHeight': False, 'trialN': 86, 'loaded': True, 'loadedTime': 2003.5999999046326, 'positionName': 'RIGHT', 'positionCoords': [1064.96, 300], 'bid': 1.67}]",101887.69999980927,1669856797391,luckycharms,popsicles,7.97,1.67,-6.3,popsicles,558.3000001907349,558,558.6000001430511,True,i,102958.59999990463,1070.9000000953674,1669856798462,1071,,HRV,HRV_0323,2022-12-01 01:08:28
87,"[{'imgObject': {}, 'id': 'hashbrowns', 'src': '/static/foodstim60/hashbrowns.jpg', 'key': 'u', 'origWidth': 411, 'origHeight': 410, 'width': 411, 'height': 410, 'widthPercent': 0.45, 'rescaleHeight': False, 'trialN': 87, 'loaded': True, 'loadedTime': 2114.899999856949, 'positionName': 'LEFT', 'positionCoords': [572.04, 300], 'bid': 8.82}, {'imgObject': {}, 'id': 'rigatoni', 'src': '/static/foodstim60/rigatoni.jpg', 'key': 'i', 'origWidth': 411, 'origHeight': 411, 'width': 411, 'height': 411, 'widthPercent': 0.45, 'rescaleHeight': False, 'trialN': 87, 'loaded': True, 'loadedTime': 2360.199999809265, 'positionName': 'RIGHT', 'positionCoords': [1064.96, 299.5], 'bid': 8.78}]",102958.69999980927,1669856798462,hashbrowns,rigatoni,8.82,8.78,-0.040000000000000924,rigatoni,783.3000001907349,783,783.5,True,i,104245.29999995232,1286.6000001430511,1669856799748,1286,,HRV,HRV_0323,2022-12-01 01:08:28
88,"[{'imgObject': {}, 'id': 'seaweed', 'src': '/static/foodstim60/seaweed.jpg', 'key': 'u', 'origWidth': 410, 'origHeight': 410, 'width': 410, 'height': 410, 'widthPercent': 0.45, 'rescaleHeight': False, 'trialN': 88, 'loaded': True, 'loadedTime': 2024.0999999046326, 'positionName': 'LEFT', 'positionCoords': [573.04, 300], 'bid': 8.83}, {'imgObject': {}, 'id': 'bagel and cc', 'src': '/static/foodstim60/bagel and cc.jpg', 'key': 'i', 'origWidth': 410, 'origHeight': 410, 'width': 410, 'height': 410, 'widthPercent': 0.45, 'rescaleHeight': False, 'trialN': 88, 'loaded': True, 'loadedTime': 2339.2999999523163, 'positionName': 'RIGHT', 'positionCoords': [1064.96, 300], 'bid': 7.83}]",104245.39999985695,1669856799748,seaweed,bagel and cc,8.83,7.83,-1.0,seaweed,494.7999999523163,495,494.90000009536743,True,u,105253.69999980927,1008.2999999523163,1669856800757,1009,,HRV,HRV_0323,2022-12-01 01:08:28
89,"[{'imgObject': {}, 'id': 'hashbrowns', 'src': '/static/foodstim60/hashbrowns.jpg', 'key': 'u', 'origWidth': 411, 'origHeight': 410, 'width': 411, 'height': 410, 'widthPercent': 0.45, 'rescaleHeight': False, 'trialN': 89, 'loaded': True, 'loadedTime': 2115.2999999523163, 'positionName': 'LEFT', 'positionCoords': [572.04, 300], 'bid': 8.82}, {'imgObject': {}, 'id': 'raspberries', 'src': '/static/foodstim60/raspberries.jpg', 'key': 'i', 'origWidth': 411, 'origHeight': 411, 'width': 411, 'height': 411, 'widthPercent': 0.45, 'rescaleHeight': False, 'trialN': 89, 'loaded': True, 'loadedTime': 2417.7999999523163, 'positionName': 'RIGHT', 'positionCoords': [1064.96, 299.5], 'bid': 8.89}]",105253.89999985695,1669856800757,hashbrowns,raspberries,8.82,8.89,0.07000000000000028,hashbrowns,810.2999999523163,810,810.4000000953674,True,u,106569.5,1315.6000001430511,1669856802073,1316,,HRV,HRV_0323,2022-12-01 01:08:28
90,"[{'imgObject': {}, 'id': 'pear', 'src': '/static/foodstim60/pear.jpg', 'key': 'u', 'origWidth': 411, 'origHeight': 410, 'width': 411, 'height': 410, 'widthPercent': 0.45, 'rescaleHeight': False, 'trialN': 90, 'loaded': True, 'loadedTime': 108160.69999980927, 'positionName': 'LEFT', 'positionCoords': [572.04, 371], 'bid': 7.8}, {'imgObject': {}, 'id': 'tacos', 'src': '/static/foodstim60/tacos.jpg', 'key': 'i', 'origWidth': 411, 'origHeight': 411, 'width': 411, 'height': 411, 'widthPercent': 0.45, 'rescaleHeight': False, 'trialN': 90, 'loaded': True, 'loadedTime': 108160.79999995232, 'positionName': 'RIGHT', 'positionCoords': [1064.96, 370.5], 'bid': 8.82}]",108159.5,1669856803663,pear,tacos,7.8,8.82,1.0200000000000005,pear,2624.5,2624,2624.7999999523163,True,u,111285.5,3126.0,1669856806789,3126,"[{'event': 'fullscreenchange', 'details': 'fullscreenenter', 'performance time': 108160.29999995232, 'date time': 1669856803663}]",HRV,HRV_0323,2022-12-01 01:08:28
91,"[{'imgObject': {}, 'id': 'rigatoni and sauce', 'src': '/static/foodstim60/rigatoni and sauce.jpg', 'key': 'u', 'origWidth': 410, 'origHeight': 411, 'width': 410, 'height': 411, 'widthPercent': 0.45, 'rescaleHeight': False, 'trialN': 91, 'loaded': True, 'loadedTime': 111286.59999990463, 'positionName': 'LEFT', 'positionCoords': [573.04, 370.5], 'bid': 7.61}, {'imgObject': {}, 'id': 'salmon', 'src': '/static/foodstim60/salmon.jpg', 'key': 'i', 'origWidth': 410, 'origHeight': 409, 'width': 410, 'height': 409, 'widthPercent': 0.45, 'rescaleHeight': False, 'trialN': 91, 'loaded': True, 'loadedTime': 111286.69999980927, 'positionName': 'RIGHT', 'positionCoords': [1064.96, 371.5], 'bid': 7.56}]",111285.79999995232,1669856806789,rigatoni and sauce,salmon,7.61,7.56,-0.05000000000000071,rigatoni and sauce,1192.2999999523163,1192,1192.5,True,u,112982.39999985695,1696.5999999046326,1669856808485,1696,"[{'event': 'fullscreenchange', 'details': 'fullscreenexit', 'performance time': 111617.69999980927, 'date time': 1669856807121}]",HRV,HRV_0323,2022-12-01 01:08:28
92,"[{'imgObject': {}, 'id': 'strawberries', 'src': '/static/foodstim60/strawberries.jpg', 'key': 'u', 'origWidth': 410, 'origHeight': 410, 'width': 410, 'height': 410, 'widthPercent': 0.45, 'rescaleHeight': False, 'trialN': 92, 'loaded': True, 'loadedTime': 1975.2999999523163, 'positionName': 'LEFT', 'positionCoords': [573.04, 300], 'bid': 9.02}, {'imgObject': {}, 'id': 'olives', 'src': '/static/foodstim60/olives.jpg', 'key': 'i', 'origWidth': 410, 'origHeight': 410, 'width': 410, 'height': 410, 'widthPercent': 0.45, 'rescaleHeight': False, 'trialN': 92, 'loaded': True, 'loadedTime': 2123.7999999523163, 'positionName': 'RIGHT', 'positionCoords': [1064.96, 300], 'bid': 7.7}]",112982.5,1669856808486,strawberries,olives,9.02,7.7,-1.3199999999999994,strawberries,501.5,501,501.69999980926514,True,u,113992.19999980927,1009.6999998092651,1669856809495,1009,,HRV,HRV_0323,2022-12-01 01:08:28
93,"[{'imgObject': {}, 'id': 'lox', 'src': '/static/foodstim60/lox.jpg', 'key': 'u', 'origWidth': 410, 'origHeight': 411, 'width': 410, 'height': 411, 'widthPercent': 0.45, 'rescaleHeight': False, 'trialN': 93, 'loaded': True, 'loadedTime': 2099.699999809265, 'positionName': 'LEFT', 'positionCoords': [573.04, 299.5], 'bid': 9.59}, {'imgObject': {}, 'id': 'raisin bran w milk', 'src': '/static/foodstim60/raisin bran w milk.jpg', 'key': 'i', 'origWidth': 411, 'origHeight': 411, 'width': 411, 'height': 411, 'widthPercent': 0.45, 'rescaleHeight': False, 'trialN': 93, 'loaded': True, 'loadedTime': 2425.7999999523163, 'positionName': 'RIGHT', 'positionCoords': [1064.96, 299.5], 'bid': 8.49}]",113992.29999995232,1669856809495,lox,raisin bran w milk,9.59,8.49,-1.0999999999999996,lox,481.7999999523163,483,482.2000000476837,True,u,114987.09999990463,994.7999999523163,1669856810490,995,,HRV,HRV_0323,2022-12-01 01:08:28
94,"[{'imgObject': {}, 'id': 'shreddedwheatwithmilk', 'src': '/static/foodstim60/shreddedwheatwithmilk.jpg', 'key': 'u', 'origWidth': 410, 'origHeight': 410, 'width': 410, 'height': 410, 'widthPercent': 0.45, 'rescaleHeight': False, 'trialN': 94, 'loaded': True, 'loadedTime': 2299.2999999523163, 'positionName': 'LEFT', 'positionCoords': [573.04, 300], 'bid': 9.07}, {'imgObject': {}, 'id': 'apple slices', 'src': '/static/foodstim60/apple slices.jpg', 'key': 'i', 'origWidth': 409, 'origHeight': 410, 'width': 409, 'height': 410, 'widthPercent': 0.45, 'rescaleHeight': False, 'trialN': 94, 'loaded': True, 'loadedTime': 2010.7999999523163, 'positionName': 'RIGHT', 'positionCoords': [1064.96, 300], 'bid': 9.27}]",114987.19999980927,1669856810490,shreddedwheatwithmilk,apple slices,9.07,9.27,0.1999999999999993,apple slices,464.80000019073486,465,465.0,True,i,115966.59999990463,979.4000000953674,1669856811470,980,,HRV,HRV_0323,2022-12-01 01:08:28
95,"[{'imgObject': {}, 'id': 'Tribe humus pita', 'src': '/static/foodstim60/Tribe humus pita.jpg', 'key': 'u', 'origWidth': 411, 'origHeight': 411, 'width': 411, 'height': 411, 'widthPercent': 0.45, 'rescaleHeight': False, 'trialN': 95, 'loaded': True, 'loadedTime': 2024.5999999046326, 'positionName': 'LEFT', 'positionCoords': [572.04, 299.5], 'bid': 7.8}, {'imgObject': {}, 'id': 'chickenfingers', 'src': '/static/foodstim60/chickenfingers.jpg', 'key': 'i', 'origWidth': 410, 'origHeight': 410, 'width': 410, 'height': 410, 'widthPercent': 0.45, 'rescaleHeight': False, 'trialN': 95, 'loaded': True, 'loadedTime': 2360.899999856949, 'positionName': 'RIGHT', 'positionCoords': [1064.96, 300], 'bid': 1.8}]",115966.79999995232,1669856811470,Tribe humus pita,chickenfingers,7.8,1.8,-6.0,Tribe humus pita,447.09999990463257,447,447.39999985694885,True,u,116915.19999980927,948.3999998569489,1669856812418,948,,HRV,HRV_0323,2022-12-01 01:08:28
96,"[{'imgObject': {}, 'id': 'granola w milk', 'src': '/static/foodstim60/granola w milk.jpg', 'key': 'u', 'origWidth': 410, 'origHeight': 410, 'width': 410, 'height': 410, 'widthPercent': 0.45, 'rescaleHeight': False, 'trialN': 96, 'loaded': True, 'loadedTime': 2421, 'positionName': 'LEFT', 'positionCoords': [573.04, 300], 'bid': 8.950000000000001}, {'imgObject': {}, 'id': 'omelette', 'src': '/static/foodstim60/omelette.jpg', 'key': 'i', 'origWidth': 410, 'origHeight': 409, 'width': 410, 'height': 409, 'widthPercent': 0.45, 'rescaleHeight': False, 'trialN': 96, 'loaded': True, 'loadedTime': 2411.199999809265, 'positionName': 'RIGHT', 'positionCoords': [1064.96, 300.5], 'bid': 9.47}]",116915.29999995232,1669856812418,granola w milk,omelette,8.950000000000001,9.47,0.5199999999999996,omelette,602.5999999046326,603,603.0,True,i,118032.19999980927,1116.8999998569489,1669856813535,1117,,HRV,HRV_0323,2022-12-01 01:08:28
97,"[{'imgObject': {}, 'id': 'roastedpotatoes', 'src': '/static/foodstim60/roastedpotatoes.jpg', 'key': 'u', 'origWidth': 409, 'origHeight': 410, 'width': 409, 'height': 410, 'widthPercent': 0.45, 'rescaleHeight': False, 'trialN': 97, 'loaded': True, 'loadedTime': 2145.2999999523163, 'positionName': 'LEFT', 'positionCoords': [574.04, 300], 'bid': 8.68}, {'imgObject': {}, 'id': 'burger', 'src': '/static/foodstim60/burger.jpg', 'key': 'i', 'origWidth': 409, 'origHeight': 409, 'width': 409, 'height': 409, 'widthPercent': 0.45, 'rescaleHeight': False, 'trialN': 97, 'loaded': True, 'loadedTime': 2296.399999856949, 'positionName': 'RIGHT', 'positionCoords': [1064.96, 300.5], 'bid': 9.61}]",118032.29999995232,1669856813535,roastedpotatoes,burger,8.68,9.61,0.9299999999999997,roastedpotatoes,681.7000000476837,682,681.8999998569489,True,u,119221.59999990463,1189.2999999523163,1669856814725,1190,,HRV,HRV_0323,2022-12-01 01:08:28
98,"[{'imgObject': {}, 'id': 'cherries', 'src': '/static/foodstim60/cherries.jpg', 'key': 'u', 'origWidth': 410, 'origHeight': 411, 'width': 410, 'height': 411, 'widthPercent': 0.45, 'rescaleHeight': False, 'trialN': 98, 'loaded': True, 'loadedTime': 2298.399999856949, 'positionName': 'LEFT', 'positionCoords': [573.04, 299.5], 'bid': 9.12}, {'imgObject': {}, 'id': 'cantaloupe', 'src': '/static/foodstim60/cantaloupe.jpg', 'key': 'i', 'origWidth': 409, 'origHeight': 409, 'width': 409, 'height': 409, 'widthPercent': 0.45, 'rescaleHeight': False, 'trialN': 98, 'loaded': True, 'loadedTime': 2033.6999998092651, 'positionName': 'RIGHT', 'positionCoords': [1064.96, 300.5], 'bid': 9.09}]",119221.69999980927,1669856814725,cherries,cantaloupe,9.12,9.09,-0.02999999999999936,cherries,533.7000000476837,534,533.8000001907349,True,u,120267.09999990463,1045.4000000953674,1669856815770,1045,,HRV,HRV_0323,2022-12-01 01:08:28
99,"[{'imgObject': {}, 'id': 'lox', 'src': '/static/foodstim60/lox.jpg', 'key': 'u', 'origWidth': 410, 'origHeight': 411, 'width': 410, 'height': 411, 'widthPercent': 0.45, 'rescaleHeight': False, 'trialN': 99, 'loaded': True, 'loadedTime': 2106.0999999046326, 'positionName': 'LEFT', 'positionCoords': [573.04, 299.5], 'bid': 9.59}, {'imgObject': {}, 'id': 'salad w chicken', 'src': '/static/foodstim60/salad w chicken.jpg', 'key': 'i', 'origWidth': 411, 'origHeight': 411, 'width': 411, 'height': 411, 'widthPercent': 0.45, 'rescaleHeight': False, 'trialN': 99, 'loaded': True, 'loadedTime': 2113.5, 'positionName': 'RIGHT', 'positionCoords': [1064.96, 299.5], 'bid': 9}]",120267.19999980927,1669856815770,lox,salad w chicken,9.59,9.0,-0.5899999999999999,lox,490.80000019073486,491,491.0,True,u,121274.89999985695,1007.7000000476837,1669856816778,1008,,HRV,HRV_0323,2022-12-01 01:08:28
100,"[{'imgObject': {}, 'id': 'avocado', 'src': '/static/foodstim60/avocado.jpg', 'key': 'u', 'origWidth': 409, 'origHeight': 409, 'width': 409, 'height': 409, 'widthPercent': 0.45, 'rescaleHeight': False, 'trialN': 100, 'loaded': True, 'loadedTime': 2419.5, 'positionName': 'LEFT', 'positionCoords': [574.04, 300.5], 'bid': 8.58}, {'imgObject': {}, 'id': 'grilled chicken strips', 'src': '/static/foodstim60/grilled chicken strips.jpg', 'key': 'i', 'origWidth': 410, 'origHeight': 411, 'width': 410, 'height': 411, 'widthPercent': 0.45, 'rescaleHeight': False, 'trialN': 100, 'loaded': True, 'loadedTime': 2014.0999999046326, 'positionName': 'RIGHT', 'positionCoords': [1064.96, 299.5], 'bid': 8.49}]",121275.0,1669856816778,avocado,grilled chicken strips,8.58,8.49,-0.08999999999999986,grilled chicken strips,451.0,451,451.2999999523163,True,i,122239.89999985695,964.8999998569489,1669856817743,965,,HRV,HRV_0323,2022-12-01 01:08:28
101,"[{'imgObject': {}, 'id': 'pear', 'src': '/static/foodstim60/pear.jpg', 'key': 'u', 'origWidth': 411, 'origHeight': 410, 'width': 411, 'height': 410, 'widthPercent': 0.45, 'rescaleHeight': False, 'trialN': 101, 'loaded': True, 'loadedTime': 2233.7999999523163, 'positionName': 'LEFT', 'positionCoords': [572.04, 300], 'bid': 7.8}, {'imgObject': {}, 'id': 'cherries', 'src': '/static/foodstim60/cherries.jpg', 'key': 'i', 'origWidth': 410, 'origHeight': 411, 'width': 410, 'height': 411, 'widthPercent': 0.45, 'rescaleHeight': False, 'trialN': 101, 'loaded': True, 'loadedTime': 2298.199999809265, 'positionName': 'RIGHT', 'positionCoords': [1064.96, 299.5], 'bid': 9.12}]",122240.0,1669856817743,pear,cherries,7.8,9.12,1.3199999999999994,cherries,478.0,478,478.2999999523163,True,i,123218.5,978.5,1669856818721,978,,HRV,HRV_0323,2022-12-01 01:08:28
102,"[{'imgObject': {}, 'id': 'luckycharms', 'src': '/static/foodstim60/luckycharms.jpg', 'key': 'u', 'origWidth': 410, 'origHeight': 409, 'width': 410, 'height': 409, 'widthPercent': 0.45, 'rescaleHeight': False, 'trialN': 102, 'loaded': True, 'loadedTime': 2421.699999809265, 'positionName': 'LEFT', 'positionCoords': [573.04, 300.5], 'bid': 7.97}, {'imgObject': {}, 'id': 'raisin bran w milk', 'src': '/static/foodstim60/raisin bran w milk.jpg', 'key': 'i', 'origWidth': 411, 'origHeight': 411, 'width': 411, 'height': 411, 'widthPercent': 0.45, 'rescaleHeight': False, 'trialN': 102, 'loaded': True, 'loadedTime': 2425.5999999046326, 'positionName': 'RIGHT', 'positionCoords': [1064.96, 299.5], 'bid': 8.49}]",123218.59999990463,1669856818722,luckycharms,raisin bran w milk,7.97,8.49,0.5200000000000005,raisin bran w milk,559.5,559,559.7000000476837,True,i,124285.19999980927,1066.5999999046326,1669856819788,1066,,HRV,HRV_0323,2022-12-01 01:08:28
103,"[{'imgObject': {}, 'id': 'kiwi', 'src': '/static/foodstim60/kiwi.jpg', 'key': 'u', 'origWidth': 410, 'origHeight': 410, 'width': 410, 'height': 410, 'widthPercent': 0.45, 'rescaleHeight': False, 'trialN': 103, 'loaded': True, 'loadedTime': 2275.5, 'positionName': 'LEFT', 'positionCoords': [573.04, 300], 'bid': 9.69}, {'imgObject': {}, 'id': 'blackbeanswithrice', 'src': '/static/foodstim60/blackbeanswithrice.jpg', 'key': 'i', 'origWidth': 410, 'origHeight': 410, 'width': 410, 'height': 410, 'widthPercent': 0.45, 'rescaleHeight': False, 'trialN': 103, 'loaded': True, 'loadedTime': 2410.0999999046326, 'positionName': 'RIGHT', 'positionCoords': [1064.96, 300], 'bid': 9.79}]",124285.29999995232,1669856819788,kiwi,blackbeanswithrice,9.69,9.79,0.09999999999999964,kiwi,467.0,467,467.2999999523163,True,u,125261.59999990463,976.2999999523163,1669856820764,976,,HRV,HRV_0323,2022-12-01 01:08:28
104,"[{'imgObject': {}, 'id': 'veggieswithdip', 'src': '/static/foodstim60/veggieswithdip.jpg', 'key': 'u', 'origWidth': 409, 'origHeight': 409, 'width': 409, 'height': 409, 'widthPercent': 0.45, 'rescaleHeight': False, 'trialN': 104, 'loaded': True, 'loadedTime': 2008.3999998569489, 'positionName': 'LEFT', 'positionCoords': [574.04, 300.5], 'bid': 9.44}, {'imgObject': {}, 'id': 'blackbeanswithrice', 'src': '/static/foodstim60/blackbeanswithrice.jpg', 'key': 'i', 'origWidth': 410, 'origHeight': 410, 'width': 410, 'height': 410, 'widthPercent': 0.45, 'rescaleHeight': False, 'trialN': 104, 'loaded': True, 'loadedTime': 2410.899999856949, 'positionName': 'RIGHT', 'positionCoords': [1064.96, 300], 'bid': 9.79}]",125261.69999980927,1669856820765,veggieswithdip,blackbeanswithrice,9.44,9.79,0.34999999999999964,veggieswithdip,396.30000019073486,396,396.60000014305115,True,u,126166.69999980927,905.0,1669856821670,905,,HRV,HRV_0323,2022-12-01 01:08:28
105,"[{'imgObject': {}, 'id': 'steak', 'src': '/static/foodstim60/steak.jpg', 'key': 'u', 'origWidth': 410, 'origHeight': 410, 'width': 410, 'height': 410, 'widthPercent': 0.45, 'rescaleHeight': False, 'trialN': 105, 'loaded': True, 'loadedTime': 2318.7999999523163, 'positionName': 'LEFT', 'positionCoords': [573.04, 300], 'bid': 3.18}, {'imgObject': {}, 'id': 'blueberries', 'src': '/static/foodstim60/blueberries.jpg', 'key': 'i', 'origWidth': 411, 'origHeight': 411, 'width': 411, 'height': 411, 'widthPercent': 0.45, 'rescaleHeight': False, 'trialN': 105, 'loaded': True, 'loadedTime': 2107, 'positionName': 'RIGHT', 'positionCoords': [1064.96, 299.5], 'bid': 7.73}]",126166.89999985695,1669856821670,steak,blueberries,3.18,7.73,4.550000000000001,steak,511.10000014305115,511,511.2999999523163,True,u,127191.89999985695,1025.0,1669856822695,1025,,HRV,HRV_0323,2022-12-01 01:08:28
106,"[{'imgObject': {}, 'id': 'olives', 'src': '/static/foodstim60/olives.jpg', 'key': 'u', 'origWidth': 410, 'origHeight': 410, 'width': 410, 'height': 410, 'widthPercent': 0.45, 'rescaleHeight': False, 'trialN': 106, 'loaded': True, 'loadedTime': 2117, 'positionName': 'LEFT', 'positionCoords': [573.04, 300], 'bid': 7.7}, {'imgObject': {}, 'id': 'chicken nuggets2', 'src': '/static/foodstim60/chicken nuggets2.jpg', 'key': 'i', 'origWidth': 410, 'origHeight': 409, 'width': 410, 'height': 409, 'widthPercent': 0.45, 'rescaleHeight': False, 'trialN': 106, 'loaded': True, 'loadedTime': 2274.2999999523163, 'positionName': 'RIGHT', 'positionCoords': [1064.96, 300.5], 'bid': 2.15}]",127192.09999990463,1669856822695,olives,chicken nuggets2,7.7,2.15,-5.550000000000001,chicken nuggets2,449.90000009536743,450,450.0,True,i,128156.0,963.9000000953674,1669856823659,964,,HRV,HRV_0323,2022-12-01 01:08:28
107,"[{'imgObject': {}, 'id': 'eggsalad', 'src': '/static/foodstim60/eggsalad.jpg', 'key': 'u', 'origWidth': 410, 'origHeight': 409, 'width': 410, 'height': 409, 'widthPercent': 0.45, 'rescaleHeight': False, 'trialN': 107, 'loaded': True, 'loadedTime': 2057, 'positionName': 'LEFT', 'positionCoords': [573.04, 300.5], 'bid': 9.76}, {'imgObject': {}, 'id': 'tacos', 'src': '/static/foodstim60/tacos.jpg', 'key': 'i', 'origWidth': 411, 'origHeight': 411, 'width': 411, 'height': 411, 'widthPercent': 0.45, 'rescaleHeight': False, 'trialN': 107, 'loaded': True, 'loadedTime': 2213.5999999046326, 'positionName': 'RIGHT', 'positionCoords': [1064.96, 299.5], 'bid': 8.82}]",128156.09999990463,1669856823659,eggsalad,tacos,9.76,8.82,-0.9399999999999995,tacos,568.2000000476837,568,568.2999999523163,True,i,129229.09999990463,1073.0,1669856824732,1073,,HRV,HRV_0323,2022-12-01 01:08:28
