trialN,stimuli,question,trialStartTime,trialStartTime_UNIX,stimulus1,trialEvents,rt,receivedResponse,rating,trialEndTime,trialDuration,stimulus1Loaded,exp,subjectId,date
0,"[{'imgObject': {}, 'id': 'eggs', 'src': '/static/foodstim60/eggs.jpg', 'key': 'NaN', 'origWidth': 409, 'origHeight': 409, 'width': 409, 'height': 409, 'widthPercent': 0.8, 'rescaleHeight': True, 'trialN': 0, 'loaded': True, 'loadedTime': 2207.7999999523163, 'positionName': 'CENTER', 'positionCoords': [726.5, 319]}]",Rate how much you want to eat this food from 0 (least) to 10 (most).,2360.5,1669856618587,eggs,"[{'event': 'fullscreenchange', 'details': 'fullscreenexit', 'performance time': 2378.2999999523163, 'date time': 1669856618605}]",2142.2999999523163,True,9.09,4502.799999952316,2142.2999999523163,True,HRV,HRV_0323,2022-12-01 01:04:29
1,"[{'imgObject': {}, 'id': 'fried eggs', 'src': '/static/foodstim60/fried eggs.jpg', 'key': 'NaN', 'origWidth': 410, 'origHeight': 410, 'width': 410, 'height': 410, 'widthPercent': 0.8, 'rescaleHeight': True, 'trialN': 1, 'loaded': True, 'loadedTime': 4509.599999904633, 'positionName': 'CENTER', 'positionCoords': [726, 254]}]",Rate how much you want to eat this food from 0 (least) to 10 (most).,4505.0,1669856620732,fried eggs,,1518.7999999523163,True,8.84,6023.799999952316,1518.7999999523163,True,HRV,HRV_0323,2022-12-01 01:04:29
2,"[{'imgObject': {}, 'id': 'tacos', 'src': '/static/foodstim60/tacos.jpg', 'key': 'NaN', 'origWidth': 411, 'origHeight': 411, 'width': 411, 'height': 411, 'widthPercent': 0.8, 'rescaleHeight': True, 'trialN': 2, 'loaded': True, 'loadedTime': 6029.400000095367, 'positionName': 'CENTER', 'positionCoords': [725.5, 253.5]}]",Rate how much you want to eat this food from 0 (least) to 10 (most).,6024.799999952316,1669856622251,tacos,,781.1000001430511,True,8.82,6805.900000095367,781.1000001430511,True,HRV,HRV_0323,2022-12-01 01:04:29
3,"[{'imgObject': {}, 'id': 'salad w chicken', 'src': '/static/foodstim60/salad w chicken.jpg', 'key': 'NaN', 'origWidth': 411, 'origHeight': 411, 'width': 411, 'height': 411, 'widthPercent': 0.8, 'rescaleHeight': True, 'trialN': 3, 'loaded': True, 'loadedTime': 6811.200000047684, 'positionName': 'CENTER', 'positionCoords': [725.5, 253.5]}]",Rate how much you want to eat this food from 0 (least) to 10 (most).,6806.599999904633,1669856623033,salad w chicken,,674.4000000953674,True,9.0,7481.0,674.4000000953674,True,HRV,HRV_0323,2022-12-01 01:04:29
4,"[{'imgObject': {}, 'id': 'shreddedwheatwithmilk', 'src': '/static/foodstim60/shreddedwheatwithmilk.jpg', 'key': 'NaN', 'origWidth': 410, 'origHeight': 410, 'width': 410, 'height': 410, 'widthPercent': 0.8, 'rescaleHeight': True, 'trialN': 4, 'loaded': True, 'loadedTime': 7486.400000095367, 'positionName': 'CENTER', 'positionCoords': [726, 254]}]",Rate how much you want to eat this food from 0 (least) to 10 (most).,7481.900000095367,1669856623708,shreddedwheatwithmilk,,600.2999999523163,True,9.07,8082.200000047684,600.2999999523163,True,HRV,HRV_0323,2022-12-01 01:04:29
5,"[{'imgObject': {}, 'id': 'yogurt no spoon', 'src': '/static/foodstim60/yogurt no spoon.jpg', 'key': 'NaN', 'origWidth': 411, 'origHeight': 410, 'width': 411, 'height': 410, 'widthPercent': 0.8, 'rescaleHeight': True, 'trialN': 5, 'loaded': True, 'loadedTime': 8087.5, 'positionName': 'CENTER', 'positionCoords': [725.5, 254]}]",Rate how much you want to eat this food from 0 (least) to 10 (most).,8082.900000095367,1669856624309,yogurt no spoon,,573.2999999523163,True,8.89,8656.200000047684,573.2999999523163,True,HRV,HRV_0323,2022-12-01 01:04:29
6,"[{'imgObject': {}, 'id': 'strawberries', 'src': '/static/foodstim60/strawberries.jpg', 'key': 'NaN', 'origWidth': 410, 'origHeight': 410, 'width': 410, 'height': 410, 'widthPercent': 0.8, 'rescaleHeight': True, 'trialN': 6, 'loaded': True, 'loadedTime': 8664, 'positionName': 'CENTER', 'positionCoords': [726, 254]}]",Rate how much you want to eat this food from 0 (least) to 10 (most).,8657.299999952316,1669856624884,strawberries,,526.9000000953674,True,9.02,9184.200000047684,526.9000000953674,True,HRV,HRV_0323,2022-12-01 01:04:29
7,"[{'imgObject': {}, 'id': 'raspberries', 'src': '/static/foodstim60/raspberries.jpg', 'key': 'NaN', 'origWidth': 411, 'origHeight': 411, 'width': 411, 'height': 411, 'widthPercent': 0.8, 'rescaleHeight': True, 'trialN': 7, 'loaded': True, 'loadedTime': 9190.5, 'positionName': 'CENTER', 'positionCoords': [725.5, 253.5]}]",Rate how much you want to eat this food from 0 (least) to 10 (most).,9184.900000095367,1669856625412,raspberries,,563.2999999523163,True,8.89,9748.200000047684,563.2999999523163,True,HRV,HRV_0323,2022-12-01 01:04:29
8,"[{'imgObject': {}, 'id': 'mac & cheese', 'src': '/static/foodstim60/mac & cheese.jpg', 'key': 'NaN', 'origWidth': 410, 'origHeight': 410, 'width': 410, 'height': 410, 'widthPercent': 0.8, 'rescaleHeight': True, 'trialN': 8, 'loaded': True, 'loadedTime': 9753.700000047684, 'positionName': 'CENTER', 'positionCoords': [726, 254]}]",Rate how much you want to eat this food from 0 (least) to 10 (most).,9749.0,1669856625976,mac & cheese,,652.4000000953674,True,9.0,10401.400000095367,652.4000000953674,True,HRV,HRV_0323,2022-12-01 01:04:29
9,"[{'imgObject': {}, 'id': 'seaweed', 'src': '/static/foodstim60/seaweed.jpg', 'key': 'NaN', 'origWidth': 410, 'origHeight': 410, 'width': 410, 'height': 410, 'widthPercent': 0.8, 'rescaleHeight': True, 'trialN': 9, 'loaded': True, 'loadedTime': 10406.5, 'positionName': 'CENTER', 'positionCoords': [726, 254]}]",Rate how much you want to eat this food from 0 (least) to 10 (most).,10402.099999904633,1669856626629,seaweed,,663.3000001907349,True,8.83,11065.400000095367,663.3000001907349,True,HRV,HRV_0323,2022-12-01 01:04:29
10,"[{'imgObject': {}, 'id': 'eggsalad', 'src': '/static/foodstim60/eggsalad.jpg', 'key': 'NaN', 'origWidth': 410, 'origHeight': 409, 'width': 410, 'height': 409, 'widthPercent': 0.8, 'rescaleHeight': True, 'trialN': 10, 'loaded': True, 'loadedTime': 11070.5, 'positionName': 'CENTER', 'positionCoords': [726, 254.5]}]",Rate how much you want to eat this food from 0 (least) to 10 (most).,11066.200000047684,1669856627293,eggsalad,,1099.3999998569489,True,9.76,12165.599999904633,1099.3999998569489,True,HRV,HRV_0323,2022-12-01 01:04:29
11,"[{'imgObject': {}, 'id': 'burger', 'src': '/static/foodstim60/burger.jpg', 'key': 'NaN', 'origWidth': 409, 'origHeight': 409, 'width': 409, 'height': 409, 'widthPercent': 0.8, 'rescaleHeight': True, 'trialN': 11, 'loaded': True, 'loadedTime': 12171, 'positionName': 'CENTER', 'positionCoords': [726.5, 254.5]}]",Rate how much you want to eat this food from 0 (least) to 10 (most).,12166.299999952316,1669856628393,burger,,929.4000000953674,True,9.61,13095.700000047684,929.4000000953674,True,HRV,HRV_0323,2022-12-01 01:04:29
12,"[{'imgObject': {}, 'id': 'kiwi', 'src': '/static/foodstim60/kiwi.jpg', 'key': 'NaN', 'origWidth': 410, 'origHeight': 410, 'width': 410, 'height': 410, 'widthPercent': 0.8, 'rescaleHeight': True, 'trialN': 12, 'loaded': True, 'loadedTime': 13102.099999904633, 'positionName': 'CENTER', 'positionCoords': [726, 254]}]",Rate how much you want to eat this food from 0 (least) to 10 (most).,13096.799999952316,1669856629323,kiwi,,600.0,True,9.69,13696.799999952316,600.0,True,HRV,HRV_0323,2022-12-01 01:04:29
13,"[{'imgObject': {}, 'id': 'omelette', 'src': '/static/foodstim60/omelette.jpg', 'key': 'NaN', 'origWidth': 410, 'origHeight': 409, 'width': 410, 'height': 409, 'widthPercent': 0.8, 'rescaleHeight': True, 'trialN': 13, 'loaded': True, 'loadedTime': 13702.200000047684, 'positionName': 'CENTER', 'positionCoords': [726, 254.5]}]",Rate how much you want to eat this food from 0 (least) to 10 (most).,13697.700000047684,1669856629924,omelette,,648.0999999046326,True,9.47,14345.799999952316,648.0999999046326,True,HRV,HRV_0323,2022-12-01 01:04:29
14,"[{'imgObject': {}, 'id': 'mango', 'src': '/static/foodstim60/mango.jpg', 'key': 'NaN', 'origWidth': 411, 'origHeight': 411, 'width': 411, 'height': 411, 'widthPercent': 0.8, 'rescaleHeight': True, 'trialN': 14, 'loaded': True, 'loadedTime': 14351.400000095367, 'positionName': 'CENTER', 'positionCoords': [725.5, 253.5]}]",Rate how much you want to eat this food from 0 (least) to 10 (most).,14346.799999952316,1669856630573,mango,,823.2000000476837,True,8.97,15170.0,823.2000000476837,True,HRV,HRV_0323,2022-12-01 01:04:29
15,"[{'imgObject': {}, 'id': 'veggieswithdip', 'src': '/static/foodstim60/veggieswithdip.jpg', 'key': 'NaN', 'origWidth': 409, 'origHeight': 409, 'width': 409, 'height': 409, 'widthPercent': 0.8, 'rescaleHeight': True, 'trialN': 15, 'loaded': True, 'loadedTime': 15175.200000047684, 'positionName': 'CENTER', 'positionCoords': [726.5, 254.5]}]",Rate how much you want to eat this food from 0 (least) to 10 (most).,15170.700000047684,1669856631397,veggieswithdip,,564.3999998569489,True,9.44,15735.099999904633,564.3999998569489,True,HRV,HRV_0323,2022-12-01 01:04:29
16,"[{'imgObject': {}, 'id': 'pear', 'src': '/static/foodstim60/pear.jpg', 'key': 'NaN', 'origWidth': 411, 'origHeight': 410, 'width': 411, 'height': 410, 'widthPercent': 0.8, 'rescaleHeight': True, 'trialN': 16, 'loaded': True, 'loadedTime': 15740.299999952316, 'positionName': 'CENTER', 'positionCoords': [725.5, 254]}]",Rate how much you want to eat this food from 0 (least) to 10 (most).,15735.799999952316,1669856631962,pear,,663.4000000953674,True,7.8,16399.200000047684,663.4000000953674,True,HRV,HRV_0323,2022-12-01 01:04:29
17,"[{'imgObject': {}, 'id': 'granola w milk', 'src': '/static/foodstim60/granola w milk.jpg', 'key': 'NaN', 'origWidth': 410, 'origHeight': 410, 'width': 410, 'height': 410, 'widthPercent': 0.8, 'rescaleHeight': True, 'trialN': 17, 'loaded': True, 'loadedTime': 16404.599999904633, 'positionName': 'CENTER', 'positionCoords': [726, 254]}]",Rate how much you want to eat this food from 0 (least) to 10 (most).,16400.0,1669856632627,granola w milk,,640.4000000953674,True,8.950000000000001,17040.400000095367,640.4000000953674,True,HRV,HRV_0323,2022-12-01 01:04:29
18,"[{'imgObject': {}, 'id': 'turkeysandwich', 'src': '/static/foodstim60/turkeysandwich.jpg', 'key': 'NaN', 'origWidth': 409, 'origHeight': 409, 'width': 409, 'height': 409, 'widthPercent': 0.8, 'rescaleHeight': True, 'trialN': 18, 'loaded': True, 'loadedTime': 17046.700000047684, 'positionName': 'CENTER', 'positionCoords': [726.5, 254.5]}]",Rate how much you want to eat this food from 0 (least) to 10 (most).,17041.299999952316,1669856633268,turkeysandwich,,875.1000001430511,True,9.6,17916.400000095367,875.1000001430511,True,HRV,HRV_0323,2022-12-01 01:04:29
19,"[{'imgObject': {}, 'id': 'salmon', 'src': '/static/foodstim60/salmon.jpg', 'key': 'NaN', 'origWidth': 410, 'origHeight': 409, 'width': 410, 'height': 409, 'widthPercent': 0.8, 'rescaleHeight': True, 'trialN': 19, 'loaded': True, 'loadedTime': 17921.5, 'positionName': 'CENTER', 'positionCoords': [726, 254.5]}]",Rate how much you want to eat this food from 0 (least) to 10 (most).,17917.099999904633,1669856634144,salmon,,781.4000000953674,True,7.5600000000000005,18698.5,781.4000000953674,True,HRV,HRV_0323,2022-12-01 01:04:29
20,"[{'imgObject': {}, 'id': 'chickenfingers', 'src': '/static/foodstim60/chickenfingers.jpg', 'key': 'NaN', 'origWidth': 410, 'origHeight': 410, 'width': 410, 'height': 410, 'widthPercent': 0.8, 'rescaleHeight': True, 'trialN': 20, 'loaded': True, 'loadedTime': 18704.200000047684, 'positionName': 'CENTER', 'positionCoords': [726, 254]}]",Rate how much you want to eat this food from 0 (least) to 10 (most).,18699.400000095367,1669856634926,chickenfingers,,998.1999998092651,True,1.8,19697.599999904633,998.1999998092651,True,HRV,HRV_0323,2022-12-01 01:04:29
21,"[{'imgObject': {}, 'id': 'sushi w_condiments', 'src': '/static/foodstim60/sushi w_condiments.jpg', 'key': 'NaN', 'origWidth': 410, 'origHeight': 410, 'width': 410, 'height': 410, 'widthPercent': 0.8, 'rescaleHeight': True, 'trialN': 21, 'loaded': True, 'loadedTime': 19703.099999904633, 'positionName': 'CENTER', 'positionCoords': [726, 254]}]",Rate how much you want to eat this food from 0 (least) to 10 (most).,19698.5,1669856635925,sushi w_condiments,,1177.2000000476837,True,9.57,20875.700000047684,1177.2000000476837,True,HRV,HRV_0323,2022-12-01 01:04:29
22,"[{'imgObject': {}, 'id': 'burrito', 'src': '/static/foodstim60/burrito.jpg', 'key': 'NaN', 'origWidth': 410, 'origHeight': 410, 'width': 410, 'height': 410, 'widthPercent': 0.8, 'rescaleHeight': True, 'trialN': 22, 'loaded': True, 'loadedTime': 20881.5, 'positionName': 'CENTER', 'positionCoords': [726, 254]}]",Rate how much you want to eat this food from 0 (least) to 10 (most).,20876.599999904633,1669856637103,burrito,,1061.3000001907349,True,3.95,21937.900000095367,1061.3000001907349,True,HRV,HRV_0323,2022-12-01 01:04:29
23,"[{'imgObject': {}, 'id': 'baked potato', 'src': '/static/foodstim60/baked potato.jpg', 'key': 'NaN', 'origWidth': 409, 'origHeight': 410, 'width': 409, 'height': 410, 'widthPercent': 0.8, 'rescaleHeight': True, 'trialN': 23, 'loaded': True, 'loadedTime': 21943.700000047684, 'positionName': 'CENTER', 'positionCoords': [726.5, 254]}]",Rate how much you want to eat this food from 0 (least) to 10 (most).,21938.700000047684,1669856638165,baked potato,,1023.2999999523163,True,8.06,22962.0,1023.2999999523163,True,HRV,HRV_0323,2022-12-01 01:04:29
24,"[{'imgObject': {}, 'id': 'cantaloupe', 'src': '/static/foodstim60/cantaloupe.jpg', 'key': 'NaN', 'origWidth': 409, 'origHeight': 409, 'width': 409, 'height': 409, 'widthPercent': 0.8, 'rescaleHeight': True, 'trialN': 24, 'loaded': True, 'loadedTime': 22967.299999952316, 'positionName': 'CENTER', 'positionCoords': [726.5, 254.5]}]",Rate how much you want to eat this food from 0 (least) to 10 (most).,22962.799999952316,1669856639190,cantaloupe,,702.2000000476837,True,9.09,23665.0,702.2000000476837,True,HRV,HRV_0323,2022-12-01 01:04:29
25,"[{'imgObject': {}, 'id': 'hotdog w must', 'src': '/static/foodstim60/hotdog w must.jpg', 'key': 'NaN', 'origWidth': 409, 'origHeight': 409, 'width': 409, 'height': 409, 'widthPercent': 0.8, 'rescaleHeight': True, 'trialN': 25, 'loaded': True, 'loadedTime': 23670.599999904633, 'positionName': 'CENTER', 'positionCoords': [726.5, 254.5]}]",Rate how much you want to eat this food from 0 (least) to 10 (most).,23665.900000095367,1669856639893,hotdog w must,,1232.2999999523163,True,1.3800000000000001,24898.200000047684,1232.2999999523163,True,HRV,HRV_0323,2022-12-01 01:04:29
26,"[{'imgObject': {}, 'id': 'grilled chicken strips', 'src': '/static/foodstim60/grilled chicken strips.jpg', 'key': 'NaN', 'origWidth': 410, 'origHeight': 411, 'width': 410, 'height': 411, 'widthPercent': 0.8, 'rescaleHeight': True, 'trialN': 26, 'loaded': True, 'loadedTime': 24903.599999904633, 'positionName': 'CENTER', 'positionCoords': [726, 253.5]}]",Rate how much you want to eat this food from 0 (least) to 10 (most).,24899.0,1669856641126,grilled chicken strips,,778.2999999523163,True,8.49,25677.299999952316,778.2999999523163,True,HRV,HRV_0323,2022-12-01 01:04:29
27,"[{'imgObject': {}, 'id': 'froot loops w milk', 'src': '/static/foodstim60/froot loops w milk.jpg', 'key': 'NaN', 'origWidth': 410, 'origHeight': 410, 'width': 410, 'height': 410, 'widthPercent': 0.8, 'rescaleHeight': True, 'trialN': 27, 'loaded': True, 'loadedTime': 25683, 'positionName': 'CENTER', 'positionCoords': [726, 254]}]",Rate how much you want to eat this food from 0 (least) to 10 (most).,25678.200000047684,1669856641905,froot loops w milk,,959.2000000476837,True,7.8500000000000005,26637.400000095367,959.2000000476837,True,HRV,HRV_0323,2022-12-01 01:04:29
28,"[{'imgObject': {}, 'id': 'steak', 'src': '/static/foodstim60/steak.jpg', 'key': 'NaN', 'origWidth': 410, 'origHeight': 410, 'width': 410, 'height': 410, 'widthPercent': 0.8, 'rescaleHeight': True, 'trialN': 28, 'loaded': True, 'loadedTime': 26642.599999904633, 'positionName': 'CENTER', 'positionCoords': [726, 254]}]",Rate how much you want to eat this food from 0 (least) to 10 (most).,26638.099999904633,1669856642865,steak,,986.6000001430511,True,3.18,27624.700000047684,986.6000001430511,True,HRV,HRV_0323,2022-12-01 01:04:29
29,"[{'imgObject': {}, 'id': 'rigatoni and sauce', 'src': '/static/foodstim60/rigatoni and sauce.jpg', 'key': 'NaN', 'origWidth': 410, 'origHeight': 411, 'width': 410, 'height': 411, 'widthPercent': 0.8, 'rescaleHeight': True, 'trialN': 29, 'loaded': True, 'loadedTime': 27629.799999952316, 'positionName': 'CENTER', 'positionCoords': [726, 253.5]}]",Rate how much you want to eat this food from 0 (least) to 10 (most).,27625.400000095367,1669856643852,rigatoni and sauce,,662.2999999523163,True,7.61,28287.700000047684,662.2999999523163,True,HRV,HRV_0323,2022-12-01 01:04:29
30,"[{'imgObject': {}, 'id': 'Grapes', 'src': '/static/foodstim60/Grapes.jpg', 'key': 'NaN', 'origWidth': 411, 'origHeight': 411, 'width': 411, 'height': 411, 'widthPercent': 0.8, 'rescaleHeight': True, 'trialN': 30, 'loaded': True, 'loadedTime': 28293.200000047684, 'positionName': 'CENTER', 'positionCoords': [725.5, 253.5]}]",Rate how much you want to eat this food from 0 (least) to 10 (most).,28288.5,1669856644515,Grapes,,542.2000000476837,True,8.88,28830.700000047684,542.2000000476837,True,HRV,HRV_0323,2022-12-01 01:04:29
31,"[{'imgObject': {}, 'id': 'blackbeanswithrice', 'src': '/static/foodstim60/blackbeanswithrice.jpg', 'key': 'NaN', 'origWidth': 410, 'origHeight': 410, 'width': 410, 'height': 410, 'widthPercent': 0.8, 'rescaleHeight': True, 'trialN': 31, 'loaded': True, 'loadedTime': 28836, 'positionName': 'CENTER', 'positionCoords': [726, 254]}]",Rate how much you want to eat this food from 0 (least) to 10 (most).,28831.5,1669856645058,blackbeanswithrice,,802.2999999523163,True,9.790000000000001,29633.799999952316,802.2999999523163,True,HRV,HRV_0323,2022-12-01 01:04:29
32,"[{'imgObject': {}, 'id': 'corn cob', 'src': '/static/foodstim60/corn cob.jpg', 'key': 'NaN', 'origWidth': 411, 'origHeight': 411, 'width': 411, 'height': 411, 'widthPercent': 0.8, 'rescaleHeight': True, 'trialN': 32, 'loaded': True, 'loadedTime': 29639.299999952316, 'positionName': 'CENTER', 'positionCoords': [725.5, 253.5]}]",Rate how much you want to eat this food from 0 (least) to 10 (most).,29634.700000047684,1669856645861,corn cob,,548.2000000476837,True,7.66,30182.900000095367,548.2000000476837,True,HRV,HRV_0323,2022-12-01 01:04:29
33,"[{'imgObject': {}, 'id': 'bagel plain', 'src': '/static/foodstim60/bagel plain.jpg', 'key': 'NaN', 'origWidth': 410, 'origHeight': 410, 'width': 410, 'height': 410, 'widthPercent': 0.8, 'rescaleHeight': True, 'trialN': 33, 'loaded': True, 'loadedTime': 30188.099999904633, 'positionName': 'CENTER', 'positionCoords': [726, 254]}]",Rate how much you want to eat this food from 0 (least) to 10 (most).,30183.700000047684,1669856646410,bagel plain,,892.2999999523163,True,9.26,31076.0,892.2999999523163,True,HRV,HRV_0323,2022-12-01 01:04:29
34,"[{'imgObject': {}, 'id': 'popsicles', 'src': '/static/foodstim60/popsicles.jpg', 'key': 'NaN', 'origWidth': 410, 'origHeight': 410, 'width': 410, 'height': 410, 'widthPercent': 0.8, 'rescaleHeight': True, 'trialN': 34, 'loaded': True, 'loadedTime': 31081.700000047684, 'positionName': 'CENTER', 'positionCoords': [726, 254]}]",Rate how much you want to eat this food from 0 (least) to 10 (most).,31076.900000095367,1669856647304,popsicles,,968.2999999523163,True,1.67,32045.200000047684,968.2999999523163,True,HRV,HRV_0323,2022-12-01 01:04:29
35,"[{'imgObject': {}, 'id': 'bagel and cc', 'src': '/static/foodstim60/bagel and cc.jpg', 'key': 'NaN', 'origWidth': 410, 'origHeight': 410, 'width': 410, 'height': 410, 'widthPercent': 0.8, 'rescaleHeight': True, 'trialN': 35, 'loaded': True, 'loadedTime': 32051, 'positionName': 'CENTER', 'positionCoords': [726, 254]}]",Rate how much you want to eat this food from 0 (least) to 10 (most).,32046.099999904633,1669856648273,bagel and cc,,748.2000000476837,True,7.83,32794.299999952316,748.2000000476837,True,HRV,HRV_0323,2022-12-01 01:04:29
36,"[{'imgObject': {}, 'id': 'Tribe humus pita', 'src': '/static/foodstim60/Tribe humus pita.jpg', 'key': 'NaN', 'origWidth': 411, 'origHeight': 411, 'width': 411, 'height': 411, 'widthPercent': 0.8, 'rescaleHeight': True, 'trialN': 36, 'loaded': True, 'loadedTime': 32799.40000009537, 'positionName': 'CENTER', 'positionCoords': [725.5, 253.5]}]",Rate how much you want to eat this food from 0 (least) to 10 (most).,32794.90000009537,1669856649022,Tribe humus pita,,672.5999999046326,True,7.8,33467.5,672.5999999046326,True,HRV,HRV_0323,2022-12-01 01:04:29
37,"[{'imgObject': {}, 'id': 'mashed potato', 'src': '/static/foodstim60/mashed potato.jpg', 'key': 'NaN', 'origWidth': 409, 'origHeight': 409, 'width': 409, 'height': 409, 'widthPercent': 0.8, 'rescaleHeight': True, 'trialN': 37, 'loaded': True, 'loadedTime': 33472.59999990463, 'positionName': 'CENTER', 'positionCoords': [726.5, 254.5]}]",Rate how much you want to eat this food from 0 (least) to 10 (most).,33468.200000047684,1669856649695,mashed potato,,744.5,True,8.85,34212.700000047684,744.5,True,HRV,HRV_0323,2022-12-01 01:04:29
38,"[{'imgObject': {}, 'id': 'luckycharms', 'src': '/static/foodstim60/luckycharms.jpg', 'key': 'NaN', 'origWidth': 410, 'origHeight': 409, 'width': 410, 'height': 409, 'widthPercent': 0.8, 'rescaleHeight': True, 'trialN': 38, 'loaded': True, 'loadedTime': 34218.09999990463, 'positionName': 'CENTER', 'positionCoords': [726, 254.5]}]",Rate how much you want to eat this food from 0 (least) to 10 (most).,34213.299999952316,1669856650440,luckycharms,,862.2999999523163,True,7.97,35075.59999990463,862.2999999523163,True,HRV,HRV_0323,2022-12-01 01:04:29
39,"[{'imgObject': {}, 'id': 'rigatoni', 'src': '/static/foodstim60/rigatoni.jpg', 'key': 'NaN', 'origWidth': 411, 'origHeight': 411, 'width': 411, 'height': 411, 'widthPercent': 0.8, 'rescaleHeight': True, 'trialN': 39, 'loaded': True, 'loadedTime': 35081.09999990463, 'positionName': 'CENTER', 'positionCoords': [725.5, 253.5]}]",Rate how much you want to eat this food from 0 (least) to 10 (most).,35076.200000047684,1669856651303,rigatoni,,656.5,True,8.78,35732.700000047684,656.5,True,HRV,HRV_0323,2022-12-01 01:04:29
40,"[{'imgObject': {}, 'id': 'cocktailshrimp', 'src': '/static/foodstim60/cocktailshrimp.jpg', 'key': 'NaN', 'origWidth': 410, 'origHeight': 410, 'width': 410, 'height': 410, 'widthPercent': 0.8, 'rescaleHeight': True, 'trialN': 40, 'loaded': True, 'loadedTime': 35737.90000009537, 'positionName': 'CENTER', 'positionCoords': [726, 254]}]",Rate how much you want to eat this food from 0 (least) to 10 (most).,35733.299999952316,1669856651960,cocktailshrimp,,864.4000000953674,True,9.42,36597.700000047684,864.4000000953674,True,HRV,HRV_0323,2022-12-01 01:04:29
41,"[{'imgObject': {}, 'id': 'edamame', 'src': '/static/foodstim60/edamame.jpg', 'key': 'NaN', 'origWidth': 409, 'origHeight': 410, 'width': 409, 'height': 410, 'widthPercent': 0.8, 'rescaleHeight': True, 'trialN': 41, 'loaded': True, 'loadedTime': 36602.799999952316, 'positionName': 'CENTER', 'positionCoords': [726.5, 254]}]",Rate how much you want to eat this food from 0 (least) to 10 (most).,36598.5,1669856652825,edamame,,893.4000000953674,True,8.43,37491.90000009537,893.4000000953674,True,HRV,HRV_0323,2022-12-01 01:04:29
42,"[{'imgObject': {}, 'id': 'turkey sandwich', 'src': '/static/foodstim60/turkey sandwich.jpg', 'key': 'NaN', 'origWidth': 409, 'origHeight': 409, 'width': 409, 'height': 409, 'widthPercent': 0.8, 'rescaleHeight': True, 'trialN': 42, 'loaded': True, 'loadedTime': 37497.09999990463, 'positionName': 'CENTER', 'positionCoords': [726.5, 254.5]}]",Rate how much you want to eat this food from 0 (least) to 10 (most).,37492.59999990463,1669856653719,turkey sandwich,,828.4000000953674,True,9.68,38321.0,828.4000000953674,True,HRV,HRV_0323,2022-12-01 01:04:29
43,"[{'imgObject': {}, 'id': 'cherry tomato', 'src': '/static/foodstim60/cherry tomato.jpg', 'key': 'NaN', 'origWidth': 410, 'origHeight': 410, 'width': 410, 'height': 410, 'widthPercent': 0.8, 'rescaleHeight': True, 'trialN': 43, 'loaded': True, 'loadedTime': 38325.59999990463, 'positionName': 'CENTER', 'positionCoords': [726, 254]}]",Rate how much you want to eat this food from 0 (least) to 10 (most).,38321.59999990463,1669856654548,cherry tomato,,764.5,True,8.32,39086.09999990463,764.5,True,HRV,HRV_0323,2022-12-01 01:04:29
44,"[{'imgObject': {}, 'id': 'olives', 'src': '/static/foodstim60/olives.jpg', 'key': 'NaN', 'origWidth': 410, 'origHeight': 410, 'width': 410, 'height': 410, 'widthPercent': 0.8, 'rescaleHeight': True, 'trialN': 44, 'loaded': True, 'loadedTime': 39091.5, 'positionName': 'CENTER', 'positionCoords': [726, 254]}]",Rate how much you want to eat this food from 0 (least) to 10 (most).,39087.0,1669856655314,olives,,920.2999999523163,True,7.7,40007.299999952316,920.2999999523163,True,HRV,HRV_0323,2022-12-01 01:04:29
45,"[{'imgObject': {}, 'id': 'hashbrowns', 'src': '/static/foodstim60/hashbrowns.jpg', 'key': 'NaN', 'origWidth': 411, 'origHeight': 410, 'width': 411, 'height': 410, 'widthPercent': 0.8, 'rescaleHeight': True, 'trialN': 45, 'loaded': True, 'loadedTime': 40012.700000047684, 'positionName': 'CENTER', 'positionCoords': [725.5, 254]}]",Rate how much you want to eat this food from 0 (least) to 10 (most).,40007.90000009537,1669856656235,hashbrowns,,764.3999998569489,True,8.82,40772.299999952316,764.3999998569489,True,HRV,HRV_0323,2022-12-01 01:04:29
46,"[{'imgObject': {}, 'id': 'cheerios', 'src': '/static/foodstim60/cheerios.jpg', 'key': 'NaN', 'origWidth': 409, 'origHeight': 410, 'width': 409, 'height': 410, 'widthPercent': 0.8, 'rescaleHeight': True, 'trialN': 46, 'loaded': True, 'loadedTime': 40777.59999990463, 'positionName': 'CENTER', 'positionCoords': [726.5, 254]}]",Rate how much you want to eat this food from 0 (least) to 10 (most).,40773.09999990463,1669856657000,cheerios,,584.6000001430511,True,7.99,41357.700000047684,584.6000001430511,True,HRV,HRV_0323,2022-12-01 01:04:29
47,"[{'imgObject': {}, 'id': 'roastedpotatoes', 'src': '/static/foodstim60/roastedpotatoes.jpg', 'key': 'NaN', 'origWidth': 409, 'origHeight': 410, 'width': 409, 'height': 410, 'widthPercent': 0.8, 'rescaleHeight': True, 'trialN': 47, 'loaded': True, 'loadedTime': 41362.799999952316, 'positionName': 'CENTER', 'positionCoords': [726.5, 254]}]",Rate how much you want to eat this food from 0 (least) to 10 (most).,41358.40000009537,1669856657585,roastedpotatoes,,926.1999998092651,True,8.68,42284.59999990463,926.1999998092651,True,HRV,HRV_0323,2022-12-01 01:04:29
48,"[{'imgObject': {}, 'id': 'blueberries', 'src': '/static/foodstim60/blueberries.jpg', 'key': 'NaN', 'origWidth': 411, 'origHeight': 411, 'width': 411, 'height': 411, 'widthPercent': 0.8, 'rescaleHeight': True, 'trialN': 48, 'loaded': True, 'loadedTime': 42290, 'positionName': 'CENTER', 'positionCoords': [725.5, 253.5]}]",Rate how much you want to eat this food from 0 (least) to 10 (most).,42285.40000009537,1669856658512,blueberries,,633.1999998092651,True,7.73,42918.59999990463,633.1999998092651,True,HRV,HRV_0323,2022-12-01 01:04:29
49,"[{'imgObject': {}, 'id': 'raisin bran w milk', 'src': '/static/foodstim60/raisin bran w milk.jpg', 'key': 'NaN', 'origWidth': 411, 'origHeight': 411, 'width': 411, 'height': 411, 'widthPercent': 0.8, 'rescaleHeight': True, 'trialN': 49, 'loaded': True, 'loadedTime': 42924.40000009537, 'positionName': 'CENTER', 'positionCoords': [725.5, 253.5]}]",Rate how much you want to eat this food from 0 (least) to 10 (most).,42919.59999990463,1669856659146,raisin bran w milk,,902.1000001430511,True,8.49,43821.700000047684,902.1000001430511,True,HRV,HRV_0323,2022-12-01 01:04:29
50,"[{'imgObject': {}, 'id': 'avocado', 'src': '/static/foodstim60/avocado.jpg', 'key': 'NaN', 'origWidth': 409, 'origHeight': 409, 'width': 409, 'height': 409, 'widthPercent': 0.8, 'rescaleHeight': True, 'trialN': 50, 'loaded': True, 'loadedTime': 43827.200000047684, 'positionName': 'CENTER', 'positionCoords': [726.5, 254.5]}]",Rate how much you want to eat this food from 0 (least) to 10 (most).,43822.5,1669856660049,avocado,,1913.5999999046326,True,8.58,45736.09999990463,1913.5999999046326,True,HRV,HRV_0323,2022-12-01 01:04:29
51,"[{'imgObject': {}, 'id': 'sweetpotato', 'src': '/static/foodstim60/sweetpotato.jpg', 'key': 'NaN', 'origWidth': 410, 'origHeight': 410, 'width': 410, 'height': 410, 'widthPercent': 0.8, 'rescaleHeight': True, 'trialN': 51, 'loaded': True, 'loadedTime': 45741.59999990463, 'positionName': 'CENTER', 'positionCoords': [726, 254]}]",Rate how much you want to eat this food from 0 (least) to 10 (most).,45736.90000009537,1669856661964,sweetpotato,,682.0999999046326,True,8.700000000000001,46419.0,682.0999999046326,True,HRV,HRV_0323,2022-12-01 01:04:29
52,"[{'imgObject': {}, 'id': 'apple slices', 'src': '/static/foodstim60/apple slices.jpg', 'key': 'NaN', 'origWidth': 409, 'origHeight': 410, 'width': 409, 'height': 410, 'widthPercent': 0.8, 'rescaleHeight': True, 'trialN': 52, 'loaded': True, 'loadedTime': 46424.700000047684, 'positionName': 'CENTER', 'positionCoords': [726.5, 254]}]",Rate how much you want to eat this food from 0 (least) to 10 (most).,46420.0,1669856662647,apple slices,,591.0999999046326,True,9.27,47011.09999990463,591.0999999046326,True,HRV,HRV_0323,2022-12-01 01:04:29
53,"[{'imgObject': {}, 'id': 'banana', 'src': '/static/foodstim60/banana.jpg', 'key': 'NaN', 'origWidth': 410, 'origHeight': 410, 'width': 410, 'height': 410, 'widthPercent': 0.8, 'rescaleHeight': True, 'trialN': 53, 'loaded': True, 'loadedTime': 47016.5, 'positionName': 'CENTER', 'positionCoords': [726, 254]}]",Rate how much you want to eat this food from 0 (least) to 10 (most).,47011.90000009537,1669856663239,banana,,706.2999999523163,True,9.39,47718.200000047684,706.2999999523163,True,HRV,HRV_0323,2022-12-01 01:04:29
54,"[{'imgObject': {}, 'id': 'fruitsalad', 'src': '/static/foodstim60/fruitsalad.jpg', 'key': 'NaN', 'origWidth': 410, 'origHeight': 410, 'width': 410, 'height': 410, 'widthPercent': 0.8, 'rescaleHeight': True, 'trialN': 54, 'loaded': True, 'loadedTime': 47723.299999952316, 'positionName': 'CENTER', 'positionCoords': [726, 254]}]",Rate how much you want to eat this food from 0 (least) to 10 (most).,47718.90000009537,1669856663946,fruitsalad,,954.5,True,9.68,48673.40000009537,954.5,True,HRV,HRV_0323,2022-12-01 01:04:29
55,"[{'imgObject': {}, 'id': 'orange slices', 'src': '/static/foodstim60/orange slices.jpg', 'key': 'NaN', 'origWidth': 409, 'origHeight': 410, 'width': 409, 'height': 410, 'widthPercent': 0.8, 'rescaleHeight': True, 'trialN': 55, 'loaded': True, 'loadedTime': 48678.40000009537, 'positionName': 'CENTER', 'positionCoords': [726.5, 254]}]",Rate how much you want to eat this food from 0 (least) to 10 (most).,48674.0,1669856664901,orange slices,,1234.5,True,9.120000000000001,49908.5,1234.5,True,HRV,HRV_0323,2022-12-01 01:04:29
56,"[{'imgObject': {}, 'id': 'cherries', 'src': '/static/foodstim60/cherries.jpg', 'key': 'NaN', 'origWidth': 410, 'origHeight': 411, 'width': 410, 'height': 411, 'widthPercent': 0.8, 'rescaleHeight': True, 'trialN': 56, 'loaded': True, 'loadedTime': 49913.90000009537, 'positionName': 'CENTER', 'positionCoords': [726, 253.5]}]",Rate how much you want to eat this food from 0 (least) to 10 (most).,49909.299999952316,1669856666136,cherries,,543.2999999523163,True,9.120000000000001,50452.59999990463,543.2999999523163,True,HRV,HRV_0323,2022-12-01 01:04:29
57,"[{'imgObject': {}, 'id': 'lox', 'src': '/static/foodstim60/lox.jpg', 'key': 'NaN', 'origWidth': 410, 'origHeight': 411, 'width': 410, 'height': 411, 'widthPercent': 0.8, 'rescaleHeight': True, 'trialN': 57, 'loaded': True, 'loadedTime': 50457.700000047684, 'positionName': 'CENTER', 'positionCoords': [726, 253.5]}]",Rate how much you want to eat this food from 0 (least) to 10 (most).,50453.299999952316,1669856666680,lox,,722.4000000953674,True,9.59,51175.700000047684,722.4000000953674,True,HRV,HRV_0323,2022-12-01 01:04:29
58,"[{'imgObject': {}, 'id': 'chicken nuggets2', 'src': '/static/foodstim60/chicken nuggets2.jpg', 'key': 'NaN', 'origWidth': 410, 'origHeight': 409, 'width': 410, 'height': 409, 'widthPercent': 0.8, 'rescaleHeight': True, 'trialN': 58, 'loaded': True, 'loadedTime': 51180.700000047684, 'positionName': 'CENTER', 'positionCoords': [726, 254.5]}]",Rate how much you want to eat this food from 0 (least) to 10 (most).,51176.40000009537,1669856667403,chicken nuggets2,,1247.5,True,2.15,52423.90000009537,1247.5,True,HRV,HRV_0323,2022-12-01 01:04:29
59,"[{'imgObject': {}, 'id': 'ice cream sundae 002', 'src': '/static/foodstim60/ice cream sundae 002.jpg', 'key': 'NaN', 'origWidth': 409, 'origHeight': 409, 'width': 409, 'height': 409, 'widthPercent': 0.8, 'rescaleHeight': True, 'trialN': 59, 'loaded': True, 'loadedTime': 52429, 'positionName': 'CENTER', 'positionCoords': [726.5, 254.5]}]",Rate how much you want to eat this food from 0 (least) to 10 (most).,52424.5,1669856668651,ice cream sundae 002,,794.5,True,7.76,53219.0,794.5,True,HRV,HRV_0323,2022-12-01 01:04:29
