trialN,stimuli,trialStartTime,trialStartTime_UNIX,stimulus1,stimulus2,stimulus1Bid,stimulus2Bid,delta,selected,rsp,rt,rt_UNIX,receivedResponse,trialEndTime,trialDuration,trialEndTime_UNIX,trialDuration_UNIX,rt_perfnow,exp,subjectId,date
0,"[{'imgObject': {}, 'id': 'avocado', 'src': '/static/foodstim60/avocado.jpg', 'key': 'u', 'origWidth': 409, 'origHeight': 409, 'width': 409, 'height': 409, 'widthPercent': 0.45, 'rescaleHeight': False, 'trialN': 0, 'loaded': True, 'loadedTime': 5169.900000095367, 'positionName': 'LEFT', 'positionCoords': [246.68, 179.5], 'bid': 0.31}, {'imgObject': {}, 'id': 'Tribe humus pita', 'src': '/static/foodstim60/Tribe humus pita.jpg', 'key': 'i', 'origWidth': 411, 'origHeight': 411, 'width': 411, 'height': 411, 'widthPercent': 0.45, 'rescaleHeight': False, 'trialN': 0, 'loaded': True, 'loadedTime': 5341.299999952316, 'positionName': 'RIGHT', 'positionCoords': [710.32, 178.5], 'bid': 2.49}]",10832.0,1669831240857,avocado,Tribe humus pita,0.31,2.49,2.18,NaN,NaN,NaN,NaN,False,24700.799999952316,13868.799999952316,1669831254725,13868,,HRV,HRV_0045,2022-11-30 18:06:01
1,"[{'imgObject': {}, 'id': 'chicken nuggets2', 'src': '/static/foodstim60/chicken nuggets2.jpg', 'key': 'u', 'origWidth': 410, 'origHeight': 409, 'width': 410, 'height': 409, 'widthPercent': 0.45, 'rescaleHeight': False, 'trialN': 1, 'loaded': True, 'loadedTime': 5504.799999952316, 'positionName': 'LEFT', 'positionCoords': [245.68, 179.5], 'bid': 5.46}, {'imgObject': {}, 'id': 'seaweed', 'src': '/static/foodstim60/seaweed.jpg', 'key': 'i', 'origWidth': 410, 'origHeight': 410, 'width': 410, 'height': 410, 'widthPercent': 0.45, 'rescaleHeight': False, 'trialN': 1, 'loaded': True, 'loadedTime': 5521.100000143051, 'positionName': 'RIGHT', 'positionCoords': [710.32, 179], 'bid': 4.75}]",24701.60000014305,1669831254726,chicken nuggets2,seaweed,5.46,4.75,-0.71,chicken nuggets2,u,707.6999998092651,708,True,25922.700000047684,1221.0999999046326,1669831255947,1221,708.0,HRV,HRV_0045,2022-11-30 18:06:01
2,"[{'imgObject': {}, 'id': 'roastedpotatoes', 'src': '/static/foodstim60/roastedpotatoes.jpg', 'key': 'u', 'origWidth': 409, 'origHeight': 410, 'width': 409, 'height': 410, 'widthPercent': 0.45, 'rescaleHeight': False, 'trialN': 2, 'loaded': True, 'loadedTime': 5578.200000047684, 'positionName': 'LEFT', 'positionCoords': [246.68, 179], 'bid': 7.63}, {'imgObject': {}, 'id': 'cheerios', 'src': '/static/foodstim60/cheerios.jpg', 'key': 'i', 'origWidth': 409, 'origHeight': 410, 'width': 409, 'height': 410, 'widthPercent': 0.45, 'rescaleHeight': False, 'trialN': 2, 'loaded': True, 'loadedTime': 5592.900000095367, 'positionName': 'RIGHT', 'positionCoords': [710.32, 179], 'bid': 5.92}]",25923.10000014305,1669831255948,roastedpotatoes,cheerios,7.63,5.92,-1.71,roastedpotatoes,u,711,712,True,27141.400000095367,1218.2999999523163,1669831257166,1218,712.0999999046326,HRV,HRV_0045,2022-11-30 18:06:01
3,"[{'imgObject': {}, 'id': 'strawberries', 'src': '/static/foodstim60/strawberries.jpg', 'key': 'u', 'origWidth': 410, 'origHeight': 410, 'width': 410, 'height': 410, 'widthPercent': 0.45, 'rescaleHeight': False, 'trialN': 3, 'loaded': True, 'loadedTime': 5624.600000143051, 'positionName': 'LEFT', 'positionCoords': [245.68, 179], 'bid': 7.24}, {'imgObject': {}, 'id': 'eggsalad', 'src': '/static/foodstim60/eggsalad.jpg', 'key': 'i', 'origWidth': 410, 'origHeight': 409, 'width': 410, 'height': 409, 'widthPercent': 0.45, 'rescaleHeight': False, 'trialN': 3, 'loaded': True, 'loadedTime': 5684.600000143051, 'positionName': 'RIGHT', 'positionCoords': [710.32, 179.5], 'bid': 2.8000000000000003}]",27141.700000047684,1669831257166,strawberries,eggsalad,7.24,2.8000000000000003,-4.4399999999999995,strawberries,u,770.2000000476837,771,True,28413.5,1271.7999999523163,1669831258438,1272,770.5,HRV,HRV_0045,2022-11-30 18:06:01
4,"[{'imgObject': {}, 'id': 'cherries', 'src': '/static/foodstim60/cherries.jpg', 'key': 'u', 'origWidth': 410, 'origHeight': 411, 'width': 410, 'height': 411, 'widthPercent': 0.45, 'rescaleHeight': False, 'trialN': 4, 'loaded': True, 'loadedTime': 5817.400000095367, 'positionName': 'LEFT', 'positionCoords': [245.68, 178.5], 'bid': 7.81}, {'imgObject': {}, 'id': 'banana', 'src': '/static/foodstim60/banana.jpg', 'key': 'i', 'origWidth': 410, 'origHeight': 410, 'width': 410, 'height': 410, 'widthPercent': 0.45, 'rescaleHeight': False, 'trialN': 4, 'loaded': True, 'loadedTime': 5973.799999952316, 'positionName': 'RIGHT', 'positionCoords': [710.32, 179], 'bid': 6.66}]",28413.900000095367,1669831258438,cherries,banana,7.81,6.66,-1.1499999999999995,cherries,u,1380,1381,True,30305.400000095367,1891.5,1669831260330,1892,1380.7000000476837,HRV,HRV_0045,2022-11-30 18:06:01
5,"[{'imgObject': {}, 'id': 'turkey sandwich', 'src': '/static/foodstim60/turkey sandwich.jpg', 'key': 'u', 'origWidth': 409, 'origHeight': 409, 'width': 409, 'height': 409, 'widthPercent': 0.45, 'rescaleHeight': False, 'trialN': 5, 'loaded': True, 'loadedTime': 6171.5, 'positionName': 'LEFT', 'positionCoords': [246.68, 179.5], 'bid': 5.3}, {'imgObject': {}, 'id': 'hashbrowns', 'src': '/static/foodstim60/hashbrowns.jpg', 'key': 'i', 'origWidth': 411, 'origHeight': 410, 'width': 411, 'height': 410, 'widthPercent': 0.45, 'rescaleHeight': False, 'trialN': 5, 'loaded': True, 'loadedTime': 6178, 'positionName': 'RIGHT', 'positionCoords': [710.32, 179], 'bid': 0.18}]",30305.799999952316,1669831260330,turkey sandwich,hashbrowns,5.3,0.18,-5.12,turkey sandwich,u,1219.8000001907349,1221,True,32029.0,1723.2000000476837,1669831262054,1724,1220.7000000476837,HRV,HRV_0045,2022-11-30 18:06:01
6,"[{'imgObject': {}, 'id': 'ice cream sundae 002', 'src': '/static/foodstim60/ice cream sundae 002.jpg', 'key': 'u', 'origWidth': 409, 'origHeight': 409, 'width': 409, 'height': 409, 'widthPercent': 0.45, 'rescaleHeight': False, 'trialN': 6, 'loaded': True, 'loadedTime': 6251.600000143051, 'positionName': 'LEFT', 'positionCoords': [246.68, 179.5], 'bid': 9.05}, {'imgObject': {}, 'id': 'yogurt no spoon', 'src': '/static/foodstim60/yogurt no spoon.jpg', 'key': 'i', 'origWidth': 411, 'origHeight': 410, 'width': 411, 'height': 410, 'widthPercent': 0.45, 'rescaleHeight': False, 'trialN': 6, 'loaded': True, 'loadedTime': 6446.700000047684, 'positionName': 'RIGHT', 'positionCoords': [710.32, 179], 'bid': 6.63}]",32029.299999952316,1669831262054,ice cream sundae 002,yogurt no spoon,9.05,6.63,-2.420000000000001,yogurt no spoon,i,1210.6000001430511,1211,True,33756.60000014305,1727.3000001907349,1669831263781,1727,1211.2000000476837,HRV,HRV_0045,2022-11-30 18:06:01
7,"[{'imgObject': {}, 'id': 'salmon', 'src': '/static/foodstim60/salmon.jpg', 'key': 'u', 'origWidth': 410, 'origHeight': 409, 'width': 410, 'height': 409, 'widthPercent': 0.45, 'rescaleHeight': False, 'trialN': 7, 'loaded': True, 'loadedTime': 6595, 'positionName': 'LEFT', 'positionCoords': [245.68, 179.5], 'bid': 8.39}, {'imgObject': {}, 'id': 'baked potato', 'src': '/static/foodstim60/baked potato.jpg', 'key': 'i', 'origWidth': 409, 'origHeight': 410, 'width': 409, 'height': 410, 'widthPercent': 0.45, 'rescaleHeight': False, 'trialN': 7, 'loaded': True, 'loadedTime': 6597.400000095367, 'positionName': 'RIGHT', 'positionCoords': [710.32, 179], 'bid': 6.5}]",33756.799999952316,1669831263781,salmon,baked potato,8.39,6.5,-1.8900000000000006,salmon,u,31.100000143051147,32,True,34306.0,549.2000000476837,1669831264331,550,31.700000047683716,HRV,HRV_0045,2022-11-30 18:06:01
8,"[{'imgObject': {}, 'id': 'cherries', 'src': '/static/foodstim60/cherries.jpg', 'key': 'u', 'origWidth': 410, 'origHeight': 411, 'width': 410, 'height': 411, 'widthPercent': 0.45, 'rescaleHeight': False, 'trialN': 8, 'loaded': True, 'loadedTime': 6613.600000143051, 'positionName': 'LEFT', 'positionCoords': [245.68, 178.5], 'bid': 7.81}, {'imgObject': {}, 'id': 'burger', 'src': '/static/foodstim60/burger.jpg', 'key': 'i', 'origWidth': 409, 'origHeight': 409, 'width': 409, 'height': 409, 'widthPercent': 0.45, 'rescaleHeight': False, 'trialN': 8, 'loaded': True, 'loadedTime': 6614.100000143051, 'positionName': 'RIGHT', 'positionCoords': [710.32, 179.5], 'bid': 6.22}]",34306.5,1669831264331,cherries,burger,7.81,6.22,-1.5899999999999999,cherries,u,895.2000000476837,897,True,35718.10000014305,1411.6000001430511,1669831265743,1412,897.1000001430511,HRV,HRV_0045,2022-11-30 18:06:01
9,"[{'imgObject': {}, 'id': 'hotdog w must', 'src': '/static/foodstim60/hotdog w must.jpg', 'key': 'u', 'origWidth': 409, 'origHeight': 409, 'width': 409, 'height': 409, 'widthPercent': 0.45, 'rescaleHeight': False, 'trialN': 9, 'loaded': True, 'loadedTime': 6669, 'positionName': 'LEFT', 'positionCoords': [246.68, 179.5], 'bid': 0.6900000000000001}, {'imgObject': {}, 'id': 'omelette', 'src': '/static/foodstim60/omelette.jpg', 'key': 'i', 'origWidth': 410, 'origHeight': 409, 'width': 410, 'height': 409, 'widthPercent': 0.45, 'rescaleHeight': False, 'trialN': 9, 'loaded': True, 'loadedTime': 6672.600000143051, 'positionName': 'RIGHT', 'positionCoords': [710.32, 179.5], 'bid': 2.4}]",35718.60000014305,1669831265743,hotdog w must,omelette,0.6900000000000001,2.4,1.71,omelette,i,1202.2999999523163,1203,True,37442.299999952316,1723.6999998092651,1669831267467,1724,1203.2999999523163,HRV,HRV_0045,2022-11-30 18:06:01
10,"[{'imgObject': {}, 'id': 'cantaloupe', 'src': '/static/foodstim60/cantaloupe.jpg', 'key': 'u', 'origWidth': 409, 'origHeight': 409, 'width': 409, 'height': 409, 'widthPercent': 0.45, 'rescaleHeight': False, 'trialN': 10, 'loaded': True, 'loadedTime': 6997.200000047684, 'positionName': 'LEFT', 'positionCoords': [246.68, 179.5], 'bid': 0.13}, {'imgObject': {}, 'id': 'raspberries', 'src': '/static/foodstim60/raspberries.jpg', 'key': 'i', 'origWidth': 411, 'origHeight': 411, 'width': 411, 'height': 411, 'widthPercent': 0.45, 'rescaleHeight': False, 'trialN': 10, 'loaded': True, 'loadedTime': 7000.100000143051, 'positionName': 'RIGHT', 'positionCoords': [710.32, 178.5], 'bid': 0.68}]",37442.799999952316,1669831267467,cantaloupe,raspberries,0.13,0.68,0.55,raspberries,i,1994.9000000953674,1996,True,39956.200000047684,2513.4000000953674,1669831269981,2514,1995.4000000953674,HRV,HRV_0045,2022-11-30 18:06:01
11,"[{'imgObject': {}, 'id': 'cheerios', 'src': '/static/foodstim60/cheerios.jpg', 'key': 'u', 'origWidth': 409, 'origHeight': 410, 'width': 409, 'height': 410, 'widthPercent': 0.45, 'rescaleHeight': False, 'trialN': 11, 'loaded': True, 'loadedTime': 7102.299999952316, 'positionName': 'LEFT', 'positionCoords': [246.68, 179], 'bid': 5.92}, {'imgObject': {}, 'id': 'veggieswithdip', 'src': '/static/foodstim60/veggieswithdip.jpg', 'key': 'i', 'origWidth': 409, 'origHeight': 409, 'width': 409, 'height': 409, 'widthPercent': 0.45, 'rescaleHeight': False, 'trialN': 11, 'loaded': True, 'loadedTime': 7102.799999952316, 'positionName': 'RIGHT', 'positionCoords': [710.32, 179.5], 'bid': 5.83}]",39956.60000014305,1669831269981,cheerios,veggieswithdip,5.92,5.83,-0.08999999999999986,veggieswithdip,i,2198.0999999046326,2199,True,42670.5,2713.899999856949,1669831272695,2714,2198.5,HRV,HRV_0045,2022-11-30 18:06:01
12,"[{'imgObject': {}, 'id': 'roastedpotatoes', 'src': '/static/foodstim60/roastedpotatoes.jpg', 'key': 'u', 'origWidth': 409, 'origHeight': 410, 'width': 409, 'height': 410, 'widthPercent': 0.45, 'rescaleHeight': False, 'trialN': 12, 'loaded': True, 'loadedTime': 7111.100000143051, 'positionName': 'LEFT', 'positionCoords': [246.68, 179], 'bid': 7.63}, {'imgObject': {}, 'id': 'steak', 'src': '/static/foodstim60/steak.jpg', 'key': 'i', 'origWidth': 410, 'origHeight': 410, 'width': 410, 'height': 410, 'widthPercent': 0.45, 'rescaleHeight': False, 'trialN': 12, 'loaded': True, 'loadedTime': 7756, 'positionName': 'RIGHT', 'positionCoords': [710.32, 179], 'bid': 9.9}]",42670.799999952316,1669831272695,roastedpotatoes,steak,7.63,9.9,2.2700000000000005,NaN,NaN,NaN,NaN,False,46693.90000009537,4023.100000143051,1669831276718,4023,,HRV,HRV_0045,2022-11-30 18:06:01
13,"[{'imgObject': {}, 'id': 'cherries', 'src': '/static/foodstim60/cherries.jpg', 'key': 'u', 'origWidth': 410, 'origHeight': 411, 'width': 410, 'height': 411, 'widthPercent': 0.45, 'rescaleHeight': False, 'trialN': 13, 'loaded': True, 'loadedTime': 7952.900000095367, 'positionName': 'LEFT', 'positionCoords': [245.68, 178.5], 'bid': 7.81}, {'imgObject': {}, 'id': 'eggs', 'src': '/static/foodstim60/eggs.jpg', 'key': 'i', 'origWidth': 409, 'origHeight': 409, 'width': 409, 'height': 409, 'widthPercent': 0.45, 'rescaleHeight': False, 'trialN': 13, 'loaded': True, 'loadedTime': 7954.5, 'positionName': 'RIGHT', 'positionCoords': [710.32, 179.5], 'bid': 4.16}]",46694.299999952316,1669831276719,cherries,eggs,7.81,4.16,-3.6499999999999995,cherries,u,2867.300000190735,2868,True,50069.60000014305,3375.300000190735,1669831280094,3375,2867.9000000953674,HRV,HRV_0045,2022-11-30 18:06:01
14,"[{'imgObject': {}, 'id': 'yogurt no spoon', 'src': '/static/foodstim60/yogurt no spoon.jpg', 'key': 'u', 'origWidth': 411, 'origHeight': 410, 'width': 411, 'height': 410, 'widthPercent': 0.45, 'rescaleHeight': False, 'trialN': 14, 'loaded': True, 'loadedTime': 8193.5, 'positionName': 'LEFT', 'positionCoords': [244.68, 179], 'bid': 6.63}, {'imgObject': {}, 'id': 'rigatoni and sauce', 'src': '/static/foodstim60/rigatoni and sauce.jpg', 'key': 'i', 'origWidth': 410, 'origHeight': 411, 'width': 410, 'height': 411, 'widthPercent': 0.45, 'rescaleHeight': False, 'trialN': 14, 'loaded': True, 'loadedTime': 8194, 'positionName': 'RIGHT', 'positionCoords': [710.32, 178.5], 'bid': 2.13}]",50069.90000009537,1669831280094,yogurt no spoon,rigatoni and sauce,6.63,2.13,-4.5,yogurt no spoon,u,1913.5,1914,True,52496.700000047684,2426.7999999523163,1669831282521,2427,1914.0,HRV,HRV_0045,2022-11-30 18:06:01
15,"[{'imgObject': {}, 'id': 'salmon', 'src': '/static/foodstim60/salmon.jpg', 'key': 'u', 'origWidth': 410, 'origHeight': 409, 'width': 410, 'height': 409, 'widthPercent': 0.45, 'rescaleHeight': False, 'trialN': 15, 'loaded': True, 'loadedTime': 8262.100000143051, 'positionName': 'LEFT', 'positionCoords': [245.68, 179.5], 'bid': 8.39}, {'imgObject': {}, 'id': 'corn cob', 'src': '/static/foodstim60/corn cob.jpg', 'key': 'i', 'origWidth': 411, 'origHeight': 411, 'width': 411, 'height': 411, 'widthPercent': 0.45, 'rescaleHeight': False, 'trialN': 15, 'loaded': True, 'loadedTime': 8262.400000095367, 'positionName': 'RIGHT', 'positionCoords': [710.32, 178.5], 'bid': 4.3100000000000005}]",52497.10000014305,1669831282522,salmon,corn cob,8.39,4.3100000000000005,-4.08,salmon,u,2097.5999999046326,2098,True,55102.0,2604.899999856949,1669831285126,2604,2098.0,HRV,HRV_0045,2022-11-30 18:06:01
16,"[{'imgObject': {}, 'id': 'avocado', 'src': '/static/foodstim60/avocado.jpg', 'key': 'u', 'origWidth': 409, 'origHeight': 409, 'width': 409, 'height': 409, 'widthPercent': 0.45, 'rescaleHeight': False, 'trialN': 16, 'loaded': True, 'loadedTime': 8469.299999952316, 'positionName': 'LEFT', 'positionCoords': [246.68, 179.5], 'bid': 0.31}, {'imgObject': {}, 'id': 'chicken nuggets2', 'src': '/static/foodstim60/chicken nuggets2.jpg', 'key': 'i', 'origWidth': 410, 'origHeight': 409, 'width': 410, 'height': 409, 'widthPercent': 0.45, 'rescaleHeight': False, 'trialN': 16, 'loaded': True, 'loadedTime': 8469.600000143051, 'positionName': 'RIGHT', 'positionCoords': [710.32, 179.5], 'bid': 5.46}]",55102.10000014305,1669831285127,avocado,chicken nuggets2,0.31,5.46,5.15,chicken nuggets2,i,2239.0999999046326,2239,True,57860.299999952316,2758.199999809265,1669831287885,2758,2239.399999856949,HRV,HRV_0045,2022-11-30 18:06:01
17,"[{'imgObject': {}, 'id': 'turkey sandwich', 'src': '/static/foodstim60/turkey sandwich.jpg', 'key': 'u', 'origWidth': 409, 'origHeight': 409, 'width': 409, 'height': 409, 'widthPercent': 0.45, 'rescaleHeight': False, 'trialN': 17, 'loaded': True, 'loadedTime': 8470.299999952316, 'positionName': 'LEFT', 'positionCoords': [246.68, 179.5], 'bid': 5.3}, {'imgObject': {}, 'id': 'chicken nuggets2', 'src': '/static/foodstim60/chicken nuggets2.jpg', 'key': 'i', 'origWidth': 410, 'origHeight': 409, 'width': 410, 'height': 409, 'widthPercent': 0.45, 'rescaleHeight': False, 'trialN': 17, 'loaded': True, 'loadedTime': 8470.5, 'positionName': 'RIGHT', 'positionCoords': [710.32, 179.5], 'bid': 5.46}]",57861.10000014305,1669831287886,turkey sandwich,chicken nuggets2,5.3,5.46,0.16000000000000014,chicken nuggets2,i,2886.5,2889,True,61267.299999952316,3406.199999809265,1669831291293,3407,2887.5,HRV,HRV_0045,2022-11-30 18:06:01
18,"[{'imgObject': {}, 'id': 'eggs', 'src': '/static/foodstim60/eggs.jpg', 'key': 'u', 'origWidth': 409, 'origHeight': 409, 'width': 409, 'height': 409, 'widthPercent': 0.45, 'rescaleHeight': False, 'trialN': 18, 'loaded': True, 'loadedTime': 8470.600000143051, 'positionName': 'LEFT', 'positionCoords': [246.68, 179.5], 'bid': 4.16}, {'imgObject': {}, 'id': 'corn cob', 'src': '/static/foodstim60/corn cob.jpg', 'key': 'i', 'origWidth': 411, 'origHeight': 411, 'width': 411, 'height': 411, 'widthPercent': 0.45, 'rescaleHeight': False, 'trialN': 18, 'loaded': True, 'loadedTime': 8521.600000143051, 'positionName': 'RIGHT', 'positionCoords': [710.32, 178.5], 'bid': 4.3100000000000005}]",61267.700000047684,1669831291294,eggs,corn cob,4.16,4.3100000000000005,0.15000000000000036,corn cob,i,3367.7999999523163,3368,True,65150.200000047684,3882.5,1669831295176,3882,3368.2999999523163,HRV,HRV_0045,2022-11-30 18:06:01
19,"[{'imgObject': {}, 'id': 'rigatoni and sauce', 'src': '/static/foodstim60/rigatoni and sauce.jpg', 'key': 'u', 'origWidth': 410, 'origHeight': 411, 'width': 410, 'height': 411, 'widthPercent': 0.45, 'rescaleHeight': False, 'trialN': 19, 'loaded': True, 'loadedTime': 8522, 'positionName': 'LEFT', 'positionCoords': [245.68, 178.5], 'bid': 2.13}, {'imgObject': {}, 'id': 'turkeysandwich', 'src': '/static/foodstim60/turkeysandwich.jpg', 'key': 'i', 'origWidth': 409, 'origHeight': 409, 'width': 409, 'height': 409, 'widthPercent': 0.45, 'rescaleHeight': False, 'trialN': 19, 'loaded': True, 'loadedTime': 8522.400000095367, 'positionName': 'RIGHT', 'positionCoords': [710.32, 179.5], 'bid': 3.72}]",65150.5,1669831295176,rigatoni and sauce,turkeysandwich,2.13,3.72,1.5900000000000003,turkeysandwich,i,736.5,737,True,66398.40000009537,1247.9000000953674,1669831296424,1248,737.1000001430511,HRV,HRV_0045,2022-11-30 18:06:01
20,"[{'imgObject': {}, 'id': 'mashed potato', 'src': '/static/foodstim60/mashed potato.jpg', 'key': 'u', 'origWidth': 409, 'origHeight': 409, 'width': 409, 'height': 409, 'widthPercent': 0.45, 'rescaleHeight': False, 'trialN': 20, 'loaded': True, 'loadedTime': 8524, 'positionName': 'LEFT', 'positionCoords': [246.68, 179.5], 'bid': 1.2}, {'imgObject': {}, 'id': 'hashbrowns', 'src': '/static/foodstim60/hashbrowns.jpg', 'key': 'i', 'origWidth': 411, 'origHeight': 410, 'width': 411, 'height': 410, 'widthPercent': 0.45, 'rescaleHeight': False, 'trialN': 20, 'loaded': True, 'loadedTime': 8540.799999952316, 'positionName': 'RIGHT', 'positionCoords': [710.32, 179], 'bid': 0.18}]",66398.60000014305,1669831296425,mashed potato,hashbrowns,1.2,0.18,-1.02,mashed potato,u,1006.1999998092651,1006,True,67922.79999995232,1524.1999998092651,1669831297949,1524,1006.5,HRV,HRV_0045,2022-11-30 18:06:01
21,"[{'imgObject': {}, 'id': 'omelette', 'src': '/static/foodstim60/omelette.jpg', 'key': 'u', 'origWidth': 410, 'origHeight': 409, 'width': 410, 'height': 409, 'widthPercent': 0.45, 'rescaleHeight': False, 'trialN': 21, 'loaded': True, 'loadedTime': 8540.900000095367, 'positionName': 'LEFT', 'positionCoords': [245.68, 179.5], 'bid': 2.4}, {'imgObject': {}, 'id': 'mashed potato', 'src': '/static/foodstim60/mashed potato.jpg', 'key': 'i', 'origWidth': 409, 'origHeight': 409, 'width': 409, 'height': 409, 'widthPercent': 0.45, 'rescaleHeight': False, 'trialN': 21, 'loaded': True, 'loadedTime': 8541.200000047684, 'positionName': 'RIGHT', 'positionCoords': [710.32, 179.5], 'bid': 1.2}]",67923.0,1669831297949,omelette,mashed potato,2.4,1.2,-1.2,mashed potato,i,1459.7000000476837,1460,True,69895.60000014305,1972.6000001430511,1669831299921,1972,1460.4000000953674,HRV,HRV_0045,2022-11-30 18:06:01
22,"[{'imgObject': {}, 'id': 'salmon', 'src': '/static/foodstim60/salmon.jpg', 'key': 'u', 'origWidth': 410, 'origHeight': 409, 'width': 410, 'height': 409, 'widthPercent': 0.45, 'rescaleHeight': False, 'trialN': 22, 'loaded': True, 'loadedTime': 8541.299999952316, 'positionName': 'LEFT', 'positionCoords': [245.68, 179.5], 'bid': 8.39}, {'imgObject': {}, 'id': 'roastedpotatoes', 'src': '/static/foodstim60/roastedpotatoes.jpg', 'key': 'i', 'origWidth': 409, 'origHeight': 410, 'width': 409, 'height': 410, 'widthPercent': 0.45, 'rescaleHeight': False, 'trialN': 22, 'loaded': True, 'loadedTime': 8541.400000095367, 'positionName': 'RIGHT', 'positionCoords': [710.32, 179], 'bid': 7.63}]",69895.70000004768,1669831299922,salmon,roastedpotatoes,8.39,7.63,-0.7600000000000007,salmon,u,722,722,True,71133.70000004768,1238.0,1669831301160,1238,722.7000000476837,HRV,HRV_0045,2022-11-30 18:06:01
23,"[{'imgObject': {}, 'id': 'mashed potato', 'src': '/static/foodstim60/mashed potato.jpg', 'key': 'u', 'origWidth': 409, 'origHeight': 409, 'width': 409, 'height': 409, 'widthPercent': 0.45, 'rescaleHeight': False, 'trialN': 23, 'loaded': True, 'loadedTime': 8541.5, 'positionName': 'LEFT', 'positionCoords': [246.68, 179.5], 'bid': 1.2}, {'imgObject': {}, 'id': 'blackbeanswithrice', 'src': '/static/foodstim60/blackbeanswithrice.jpg', 'key': 'i', 'origWidth': 410, 'origHeight': 410, 'width': 410, 'height': 410, 'widthPercent': 0.45, 'rescaleHeight': False, 'trialN': 23, 'loaded': True, 'loadedTime': 8541.700000047684, 'positionName': 'RIGHT', 'positionCoords': [710.32, 179], 'bid': 1.26}]",71133.90000009537,1669831301160,mashed potato,blackbeanswithrice,1.2,1.26,0.06000000000000005,mashed potato,u,1245.5999999046326,1246,True,72897.90000009537,1764.0,1669831302924,1764,1245.8999998569489,HRV,HRV_0045,2022-11-30 18:06:01
24,"[{'imgObject': {}, 'id': 'mango', 'src': '/static/foodstim60/mango.jpg', 'key': 'u', 'origWidth': 411, 'origHeight': 411, 'width': 411, 'height': 411, 'widthPercent': 0.45, 'rescaleHeight': False, 'trialN': 24, 'loaded': True, 'loadedTime': 8542.799999952316, 'positionName': 'LEFT', 'positionCoords': [244.68, 178.5], 'bid': 9.07}, {'imgObject': {}, 'id': 'seaweed', 'src': '/static/foodstim60/seaweed.jpg', 'key': 'i', 'origWidth': 410, 'origHeight': 410, 'width': 410, 'height': 410, 'widthPercent': 0.45, 'rescaleHeight': False, 'trialN': 24, 'loaded': True, 'loadedTime': 8586, 'positionName': 'RIGHT', 'positionCoords': [710.32, 179], 'bid': 4.75}]",72898.10000014305,1669831302924,mango,seaweed,9.07,4.75,-4.32,mango,u,1063.7999999523163,1064,True,74469.79999995232,1571.6999998092651,1669831304496,1572,1064.1999998092651,HRV,HRV_0045,2022-11-30 18:06:01
25,"[{'imgObject': {}, 'id': 'turkeysandwich', 'src': '/static/foodstim60/turkeysandwich.jpg', 'key': 'u', 'origWidth': 409, 'origHeight': 409, 'width': 409, 'height': 409, 'widthPercent': 0.45, 'rescaleHeight': False, 'trialN': 25, 'loaded': True, 'loadedTime': 8586.400000095367, 'positionName': 'LEFT', 'positionCoords': [246.68, 179.5], 'bid': 3.72}, {'imgObject': {}, 'id': 'pear', 'src': '/static/foodstim60/pear.jpg', 'key': 'i', 'origWidth': 411, 'origHeight': 410, 'width': 411, 'height': 410, 'widthPercent': 0.45, 'rescaleHeight': False, 'trialN': 25, 'loaded': True, 'loadedTime': 8586.700000047684, 'positionName': 'RIGHT', 'positionCoords': [710.32, 179], 'bid': 5.3}]",74470.10000014305,1669831304496,turkeysandwich,pear,3.72,5.3,1.5799999999999996,pear,i,1661.5999999046326,1662,True,76637.70000004768,2167.5999999046326,1669831306664,2168,1662.0999999046326,HRV,HRV_0045,2022-11-30 18:06:01
26,"[{'imgObject': {}, 'id': 'edamame', 'src': '/static/foodstim60/edamame.jpg', 'key': 'u', 'origWidth': 409, 'origHeight': 410, 'width': 409, 'height': 410, 'widthPercent': 0.45, 'rescaleHeight': False, 'trialN': 26, 'loaded': True, 'loadedTime': 8588.400000095367, 'positionName': 'LEFT', 'positionCoords': [246.68, 179], 'bid': 0.5}, {'imgObject': {}, 'id': 'raspberries', 'src': '/static/foodstim60/raspberries.jpg', 'key': 'i', 'origWidth': 411, 'origHeight': 411, 'width': 411, 'height': 411, 'widthPercent': 0.45, 'rescaleHeight': False, 'trialN': 26, 'loaded': True, 'loadedTime': 8679.299999952316, 'positionName': 'RIGHT', 'positionCoords': [710.32, 178.5], 'bid': 0.68}]",76638.0,1669831306664,edamame,raspberries,0.5,0.68,0.18000000000000005,edamame,u,1469.1000001430511,1470,True,78618.29999995232,1980.2999999523163,1669831308644,1980,1469.7000000476837,HRV,HRV_0045,2022-11-30 18:06:01
27,"[{'imgObject': {}, 'id': 'rigatoni', 'src': '/static/foodstim60/rigatoni.jpg', 'key': 'u', 'origWidth': 411, 'origHeight': 411, 'width': 411, 'height': 411, 'widthPercent': 0.45, 'rescaleHeight': False, 'trialN': 27, 'loaded': True, 'loadedTime': 8679.5, 'positionName': 'LEFT', 'positionCoords': [244.68, 178.5], 'bid': 0.6}, {'imgObject': {}, 'id': 'avocado', 'src': '/static/foodstim60/avocado.jpg', 'key': 'i', 'origWidth': 409, 'origHeight': 409, 'width': 409, 'height': 409, 'widthPercent': 0.45, 'rescaleHeight': False, 'trialN': 27, 'loaded': True, 'loadedTime': 8680.900000095367, 'positionName': 'RIGHT', 'positionCoords': [710.32, 179.5], 'bid': 0.31}]",78618.60000014305,1669831308645,rigatoni,avocado,0.6,0.31,-0.29,rigatoni,u,1761.8999998569489,1762,True,80885.79999995232,2267.199999809265,1669831310912,2267,1762.5999999046326,HRV,HRV_0045,2022-11-30 18:06:01
28,"[{'imgObject': {}, 'id': 'cherries', 'src': '/static/foodstim60/cherries.jpg', 'key': 'u', 'origWidth': 410, 'origHeight': 411, 'width': 410, 'height': 411, 'widthPercent': 0.45, 'rescaleHeight': False, 'trialN': 28, 'loaded': True, 'loadedTime': 8681, 'positionName': 'LEFT', 'positionCoords': [245.68, 178.5], 'bid': 7.81}, {'imgObject': {}, 'id': 'popsicles', 'src': '/static/foodstim60/popsicles.jpg', 'key': 'i', 'origWidth': 410, 'origHeight': 410, 'width': 410, 'height': 410, 'widthPercent': 0.45, 'rescaleHeight': False, 'trialN': 28, 'loaded': True, 'loadedTime': 8681.100000143051, 'positionName': 'RIGHT', 'positionCoords': [710.32, 179], 'bid': 7.25}]",80885.90000009537,1669831310912,cherries,popsicles,7.81,7.25,-0.5599999999999996,cherries,u,1221,1222,True,82613.60000014305,1727.7000000476837,1669831312640,1728,1221.7000000476837,HRV,HRV_0045,2022-11-30 18:06:01
29,"[{'imgObject': {}, 'id': 'fried eggs', 'src': '/static/foodstim60/fried eggs.jpg', 'key': 'u', 'origWidth': 410, 'origHeight': 410, 'width': 410, 'height': 410, 'widthPercent': 0.45, 'rescaleHeight': False, 'trialN': 29, 'loaded': True, 'loadedTime': 8738.5, 'positionName': 'LEFT', 'positionCoords': [245.68, 179], 'bid': 5.6000000000000005}, {'imgObject': {}, 'id': 'corn cob', 'src': '/static/foodstim60/corn cob.jpg', 'key': 'i', 'origWidth': 411, 'origHeight': 411, 'width': 411, 'height': 411, 'widthPercent': 0.45, 'rescaleHeight': False, 'trialN': 29, 'loaded': True, 'loadedTime': 8739.799999952316, 'positionName': 'RIGHT', 'positionCoords': [710.32, 178.5], 'bid': 4.3100000000000005}]",82613.90000009537,1669831312640,fried eggs,corn cob,5.6000000000000005,4.3100000000000005,-1.29,corn cob,i,1566.7000000476837,1567,True,84688.90000009537,2075.0,1669831314715,2075,1567.2000000476837,HRV,HRV_0045,2022-11-30 18:06:01
30,"[{'imgObject': {}, 'id': 'blackbeanswithrice', 'src': '/static/foodstim60/blackbeanswithrice.jpg', 'key': 'u', 'origWidth': 410, 'origHeight': 410, 'width': 410, 'height': 410, 'widthPercent': 0.45, 'rescaleHeight': False, 'trialN': 30, 'loaded': True, 'loadedTime': 8740, 'positionName': 'LEFT', 'positionCoords': [245.68, 179], 'bid': 1.26}, {'imgObject': {}, 'id': 'luckycharms', 'src': '/static/foodstim60/luckycharms.jpg', 'key': 'i', 'origWidth': 410, 'origHeight': 409, 'width': 410, 'height': 409, 'widthPercent': 0.45, 'rescaleHeight': False, 'trialN': 30, 'loaded': True, 'loadedTime': 8774.900000095367, 'positionName': 'RIGHT', 'positionCoords': [710.32, 179.5], 'bid': 4.82}]",84689.20000004768,1669831314715,blackbeanswithrice,luckycharms,1.26,4.82,3.5600000000000005,luckycharms,i,1062.5999999046326,1069,True,86261.5,1572.2999999523163,1669831316287,1572,1068.4000000953674,HRV,HRV_0045,2022-11-30 18:06:01
31,"[{'imgObject': {}, 'id': 'fried eggs', 'src': '/static/foodstim60/fried eggs.jpg', 'key': 'u', 'origWidth': 410, 'origHeight': 410, 'width': 410, 'height': 410, 'widthPercent': 0.45, 'rescaleHeight': False, 'trialN': 31, 'loaded': True, 'loadedTime': 8777.100000143051, 'positionName': 'LEFT', 'positionCoords': [245.68, 179], 'bid': 5.6000000000000005}, {'imgObject': {}, 'id': 'luckycharms', 'src': '/static/foodstim60/luckycharms.jpg', 'key': 'i', 'origWidth': 410, 'origHeight': 409, 'width': 410, 'height': 409, 'widthPercent': 0.45, 'rescaleHeight': False, 'trialN': 31, 'loaded': True, 'loadedTime': 8777.5, 'positionName': 'RIGHT', 'positionCoords': [710.32, 179.5], 'bid': 4.82}]",86261.70000004768,1669831316288,fried eggs,luckycharms,5.6000000000000005,4.82,-0.7800000000000002,fried eggs,u,1544.4000000953674,1550,True,88319.0,2057.2999999523163,1669831318345,2057,1550.2000000476837,HRV,HRV_0045,2022-11-30 18:06:01
32,"[{'imgObject': {}, 'id': 'rigatoni', 'src': '/static/foodstim60/rigatoni.jpg', 'key': 'u', 'origWidth': 411, 'origHeight': 411, 'width': 411, 'height': 411, 'widthPercent': 0.45, 'rescaleHeight': False, 'trialN': 32, 'loaded': True, 'loadedTime': 8777.900000095367, 'positionName': 'LEFT', 'positionCoords': [244.68, 178.5], 'bid': 0.6}, {'imgObject': {}, 'id': 'olives', 'src': '/static/foodstim60/olives.jpg', 'key': 'i', 'origWidth': 410, 'origHeight': 410, 'width': 410, 'height': 410, 'widthPercent': 0.45, 'rescaleHeight': False, 'trialN': 32, 'loaded': True, 'loadedTime': 8778.200000047684, 'positionName': 'RIGHT', 'positionCoords': [710.32, 179], 'bid': 0.03}]",88319.40000009537,1669831318345,rigatoni,olives,0.6,0.03,-0.57,rigatoni,u,1104.3999998569489,1105,True,89925.40000009537,1606.0,1669831319951,1606,1104.8999998569489,HRV,HRV_0045,2022-11-30 18:06:01
33,"[{'imgObject': {}, 'id': 'hotdog w must', 'src': '/static/foodstim60/hotdog w must.jpg', 'key': 'u', 'origWidth': 409, 'origHeight': 409, 'width': 409, 'height': 409, 'widthPercent': 0.45, 'rescaleHeight': False, 'trialN': 33, 'loaded': True, 'loadedTime': 8779.700000047684, 'positionName': 'LEFT', 'positionCoords': [246.68, 179.5], 'bid': 0.6900000000000001}, {'imgObject': {}, 'id': 'kiwi', 'src': '/static/foodstim60/kiwi.jpg', 'key': 'i', 'origWidth': 410, 'origHeight': 410, 'width': 410, 'height': 410, 'widthPercent': 0.45, 'rescaleHeight': False, 'trialN': 33, 'loaded': True, 'loadedTime': 8780.100000143051, 'positionName': 'RIGHT', 'positionCoords': [710.32, 179], 'bid': 0.71}]",89925.60000014305,1669831319952,hotdog w must,kiwi,0.6900000000000001,0.71,0.019999999999999907,hotdog w must,u,1292.0999999046326,1292,True,91725.60000014305,1800.0,1669831321752,1800,1292.5,HRV,HRV_0045,2022-11-30 18:06:01
34,"[{'imgObject': {}, 'id': 'Grapes', 'src': '/static/foodstim60/Grapes.jpg', 'key': 'u', 'origWidth': 411, 'origHeight': 411, 'width': 411, 'height': 411, 'widthPercent': 0.45, 'rescaleHeight': False, 'trialN': 34, 'loaded': True, 'loadedTime': 9003.299999952316, 'positionName': 'LEFT', 'positionCoords': [244.68, 178.5], 'bid': 7}, {'imgObject': {}, 'id': 'tacos', 'src': '/static/foodstim60/tacos.jpg', 'key': 'i', 'origWidth': 411, 'origHeight': 411, 'width': 411, 'height': 411, 'widthPercent': 0.45, 'rescaleHeight': False, 'trialN': 34, 'loaded': True, 'loadedTime': 9006.100000143051, 'positionName': 'RIGHT', 'positionCoords': [710.32, 178.5], 'bid': 5.99}]",91725.90000009537,1669831321752,Grapes,tacos,7.0,5.99,-1.0099999999999998,Grapes,u,1130.7000000476837,1131,True,93357.79999995232,1631.8999998569489,1669831323384,1632,1131.5,HRV,HRV_0045,2022-11-30 18:06:01
35,"[{'imgObject': {}, 'id': 'mango', 'src': '/static/foodstim60/mango.jpg', 'key': 'u', 'origWidth': 411, 'origHeight': 411, 'width': 411, 'height': 411, 'widthPercent': 0.45, 'rescaleHeight': False, 'trialN': 35, 'loaded': True, 'loadedTime': 9180.900000095367, 'positionName': 'LEFT', 'positionCoords': [244.68, 178.5], 'bid': 9.07}, {'imgObject': {}, 'id': 'steak', 'src': '/static/foodstim60/steak.jpg', 'key': 'i', 'origWidth': 410, 'origHeight': 410, 'width': 410, 'height': 410, 'widthPercent': 0.45, 'rescaleHeight': False, 'trialN': 35, 'loaded': True, 'loadedTime': 9181.600000143051, 'positionName': 'RIGHT', 'positionCoords': [710.32, 179], 'bid': 9.9}]",93358.10000014305,1669831323384,mango,steak,9.07,9.9,0.8300000000000001,steak,i,641.2999999523163,642,True,94501.70000004768,1143.5999999046326,1669831324528,1144,641.6999998092651,HRV,HRV_0045,2022-11-30 18:06:01
36,"[{'imgObject': {}, 'id': 'seaweed', 'src': '/static/foodstim60/seaweed.jpg', 'key': 'u', 'origWidth': 410, 'origHeight': 410, 'width': 410, 'height': 410, 'widthPercent': 0.45, 'rescaleHeight': False, 'trialN': 36, 'loaded': True, 'loadedTime': 9181.799999952316, 'positionName': 'LEFT', 'positionCoords': [245.68, 179], 'bid': 4.75}, {'imgObject': {}, 'id': 'cheerios', 'src': '/static/foodstim60/cheerios.jpg', 'key': 'i', 'origWidth': 409, 'origHeight': 410, 'width': 409, 'height': 410, 'widthPercent': 0.45, 'rescaleHeight': False, 'trialN': 36, 'loaded': True, 'loadedTime': 9230.200000047684, 'positionName': 'RIGHT', 'positionCoords': [710.32, 179], 'bid': 5.92}]",94501.90000009537,1669831324528,seaweed,cheerios,4.75,5.92,1.17,cheerios,i,1318.5,1359,True,96365.70000004768,1863.7999999523163,1669831326392,1864,1358.7999999523163,HRV,HRV_0045,2022-11-30 18:06:01
37,"[{'imgObject': {}, 'id': 'froot loops w milk', 'src': '/static/foodstim60/froot loops w milk.jpg', 'key': 'u', 'origWidth': 410, 'origHeight': 410, 'width': 410, 'height': 410, 'widthPercent': 0.45, 'rescaleHeight': False, 'trialN': 37, 'loaded': True, 'loadedTime': 9230.5, 'positionName': 'LEFT', 'positionCoords': [245.68, 179], 'bid': 4.94}, {'imgObject': {}, 'id': 'mac & cheese', 'src': '/static/foodstim60/mac & cheese.jpg', 'key': 'i', 'origWidth': 410, 'origHeight': 410, 'width': 410, 'height': 410, 'widthPercent': 0.45, 'rescaleHeight': False, 'trialN': 37, 'loaded': True, 'loadedTime': 9295.200000047684, 'positionName': 'RIGHT', 'positionCoords': [710.32, 179], 'bid': 5.08}]",96365.90000009537,1669831326392,froot loops w milk,mac & cheese,4.94,5.08,0.13999999999999968,froot loops w milk,u,1875.7999999523163,1876,True,98749.90000009537,2384.0,1669831328776,2384,1876.3999998569489,HRV,HRV_0045,2022-11-30 18:06:01
38,"[{'imgObject': {}, 'id': 'Grapes', 'src': '/static/foodstim60/Grapes.jpg', 'key': 'u', 'origWidth': 411, 'origHeight': 411, 'width': 411, 'height': 411, 'widthPercent': 0.45, 'rescaleHeight': False, 'trialN': 38, 'loaded': True, 'loadedTime': 9347.200000047684, 'positionName': 'LEFT', 'positionCoords': [244.68, 178.5], 'bid': 7}, {'imgObject': {}, 'id': 'grilled chicken strips', 'src': '/static/foodstim60/grilled chicken strips.jpg', 'key': 'i', 'origWidth': 410, 'origHeight': 411, 'width': 410, 'height': 411, 'widthPercent': 0.45, 'rescaleHeight': False, 'trialN': 38, 'loaded': True, 'loadedTime': 9347.700000047684, 'positionName': 'RIGHT', 'positionCoords': [710.32, 178.5], 'bid': 8.66}]",98750.29999995232,1669831328776,Grapes,grilled chicken strips,7.0,8.66,1.6600000000000001,grilled chicken strips,i,2737.100000143051,2738,True,101990.29999995232,3240.0,1669831332016,3240,2737.7000000476837,HRV,HRV_0045,2022-11-30 18:06:01
39,"[{'imgObject': {}, 'id': 'hotdog w must', 'src': '/static/foodstim60/hotdog w must.jpg', 'key': 'u', 'origWidth': 409, 'origHeight': 409, 'width': 409, 'height': 409, 'widthPercent': 0.45, 'rescaleHeight': False, 'trialN': 39, 'loaded': True, 'loadedTime': 9375.100000143051, 'positionName': 'LEFT', 'positionCoords': [246.68, 179.5], 'bid': 0.6900000000000001}, {'imgObject': {}, 'id': 'hashbrowns', 'src': '/static/foodstim60/hashbrowns.jpg', 'key': 'i', 'origWidth': 411, 'origHeight': 410, 'width': 411, 'height': 410, 'widthPercent': 0.45, 'rescaleHeight': False, 'trialN': 39, 'loaded': True, 'loadedTime': 9375.700000047684, 'positionName': 'RIGHT', 'positionCoords': [710.32, 179], 'bid': 0.18}]",101990.60000014305,1669831332017,hotdog w must,hashbrowns,0.6900000000000001,0.18,-0.51,hotdog w must,u,793.5999999046326,795,True,103288.20000004768,1297.5999999046326,1669831333314,1297,795.0999999046326,HRV,HRV_0045,2022-11-30 18:06:01
40,"[{'imgObject': {}, 'id': 'burger', 'src': '/static/foodstim60/burger.jpg', 'key': 'u', 'origWidth': 409, 'origHeight': 409, 'width': 409, 'height': 409, 'widthPercent': 0.45, 'rescaleHeight': False, 'trialN': 40, 'loaded': True, 'loadedTime': 9376.100000143051, 'positionName': 'LEFT', 'positionCoords': [246.68, 179.5], 'bid': 6.22}, {'imgObject': {}, 'id': 'baked potato', 'src': '/static/foodstim60/baked potato.jpg', 'key': 'i', 'origWidth': 409, 'origHeight': 410, 'width': 409, 'height': 410, 'widthPercent': 0.45, 'rescaleHeight': False, 'trialN': 40, 'loaded': True, 'loadedTime': 9376.600000143051, 'positionName': 'RIGHT', 'positionCoords': [710.32, 179], 'bid': 6.5}]",103288.70000004768,1669831333315,burger,baked potato,6.22,6.5,0.28000000000000025,baked potato,i,895.7000000476837,896,True,104695.0,1406.2999999523163,1669831334721,1406,896.0,HRV,HRV_0045,2022-11-30 18:06:01
41,"[{'imgObject': {}, 'id': 'mashed potato', 'src': '/static/foodstim60/mashed potato.jpg', 'key': 'u', 'origWidth': 409, 'origHeight': 409, 'width': 409, 'height': 409, 'widthPercent': 0.45, 'rescaleHeight': False, 'trialN': 41, 'loaded': True, 'loadedTime': 9376.900000095367, 'positionName': 'LEFT', 'positionCoords': [246.68, 179.5], 'bid': 1.2}, {'imgObject': {}, 'id': 'apple slices', 'src': '/static/foodstim60/apple slices.jpg', 'key': 'i', 'origWidth': 409, 'origHeight': 410, 'width': 409, 'height': 410, 'widthPercent': 0.45, 'rescaleHeight': False, 'trialN': 41, 'loaded': True, 'loadedTime': 9377.400000095367, 'positionName': 'RIGHT', 'positionCoords': [710.32, 179], 'bid': 4.75}]",104695.10000014305,1669831334721,mashed potato,apple slices,1.2,4.75,3.55,mashed potato,u,1348.8999998569489,1350,True,106549.79999995232,1854.6999998092651,1669831336576,1855,1350.1999998092651,HRV,HRV_0045,2022-11-30 18:06:01
42,"[{'imgObject': {}, 'id': 'fruitsalad', 'src': '/static/foodstim60/fruitsalad.jpg', 'key': 'u', 'origWidth': 410, 'origHeight': 410, 'width': 410, 'height': 410, 'widthPercent': 0.45, 'rescaleHeight': False, 'trialN': 42, 'loaded': True, 'loadedTime': 9379.799999952316, 'positionName': 'LEFT', 'positionCoords': [245.68, 179], 'bid': 6.5600000000000005}, {'imgObject': {}, 'id': 'mac & cheese', 'src': '/static/foodstim60/mac & cheese.jpg', 'key': 'i', 'origWidth': 410, 'origHeight': 410, 'width': 410, 'height': 410, 'widthPercent': 0.45, 'rescaleHeight': False, 'trialN': 42, 'loaded': True, 'loadedTime': 9419, 'positionName': 'RIGHT', 'positionCoords': [710.32, 179], 'bid': 5.08}]",106550.10000014305,1669831336576,fruitsalad,mac & cheese,6.5600000000000005,5.08,-1.4800000000000004,fruitsalad,u,1013.5,1016,True,108070.20000004768,1520.0999999046326,1669831338096,1520,1015.7999999523163,HRV,HRV_0045,2022-11-30 18:06:01
43,"[{'imgObject': {}, 'id': 'salad w chicken', 'src': '/static/foodstim60/salad w chicken.jpg', 'key': 'u', 'origWidth': 411, 'origHeight': 411, 'width': 411, 'height': 411, 'widthPercent': 0.45, 'rescaleHeight': False, 'trialN': 43, 'loaded': True, 'loadedTime': 9419.400000095367, 'positionName': 'LEFT', 'positionCoords': [244.68, 178.5], 'bid': 6.99}, {'imgObject': {}, 'id': 'salmon', 'src': '/static/foodstim60/salmon.jpg', 'key': 'i', 'origWidth': 410, 'origHeight': 409, 'width': 410, 'height': 409, 'widthPercent': 0.45, 'rescaleHeight': False, 'trialN': 43, 'loaded': True, 'loadedTime': 9436.799999952316, 'positionName': 'RIGHT', 'positionCoords': [710.32, 179.5], 'bid': 8.39}]",108070.60000014305,1669831338096,salad w chicken,salmon,6.99,8.39,1.4000000000000004,salmon,i,1295.1999998092651,1296,True,109869.90000009537,1799.2999999523163,1669831339896,1800,1295.8999998569489,HRV,HRV_0045,2022-11-30 18:06:01
44,"[{'imgObject': {}, 'id': 'salmon', 'src': '/static/foodstim60/salmon.jpg', 'key': 'u', 'origWidth': 410, 'origHeight': 409, 'width': 410, 'height': 409, 'widthPercent': 0.45, 'rescaleHeight': False, 'trialN': 44, 'loaded': True, 'loadedTime': 9436.900000095367, 'positionName': 'LEFT', 'positionCoords': [245.68, 179.5], 'bid': 8.39}, {'imgObject': {}, 'id': 'tacos', 'src': '/static/foodstim60/tacos.jpg', 'key': 'i', 'origWidth': 411, 'origHeight': 411, 'width': 411, 'height': 411, 'widthPercent': 0.45, 'rescaleHeight': False, 'trialN': 44, 'loaded': True, 'loadedTime': 9437.100000143051, 'positionName': 'RIGHT', 'positionCoords': [710.32, 178.5], 'bid': 5.99}]",109870.10000014305,1669831339896,salmon,tacos,8.39,5.99,-2.4000000000000004,salmon,u,583.0999999046326,584,True,110957.79999995232,1087.6999998092651,1669831340984,1088,583.3999998569489,HRV,HRV_0045,2022-11-30 18:06:01
45,"[{'imgObject': {}, 'id': 'olives', 'src': '/static/foodstim60/olives.jpg', 'key': 'u', 'origWidth': 410, 'origHeight': 410, 'width': 410, 'height': 410, 'widthPercent': 0.45, 'rescaleHeight': False, 'trialN': 45, 'loaded': True, 'loadedTime': 9437.299999952316, 'positionName': 'LEFT', 'positionCoords': [245.68, 179], 'bid': 0.03}, {'imgObject': {}, 'id': 'froot loops w milk', 'src': '/static/foodstim60/froot loops w milk.jpg', 'key': 'i', 'origWidth': 410, 'origHeight': 410, 'width': 410, 'height': 410, 'widthPercent': 0.45, 'rescaleHeight': False, 'trialN': 45, 'loaded': True, 'loadedTime': 9437.400000095367, 'positionName': 'RIGHT', 'positionCoords': [710.32, 179], 'bid': 4.94}]",110958.29999995232,1669831340984,olives,froot loops w milk,0.03,4.94,4.91,froot loops w milk,i,797.5,799,True,112261.79999995232,1303.5,1669831342288,1304,798.3000001907349,HRV,HRV_0045,2022-11-30 18:06:01
46,"[{'imgObject': {}, 'id': 'salad w chicken', 'src': '/static/foodstim60/salad w chicken.jpg', 'key': 'u', 'origWidth': 411, 'origHeight': 411, 'width': 411, 'height': 411, 'widthPercent': 0.45, 'rescaleHeight': False, 'trialN': 46, 'loaded': True, 'loadedTime': 9437.5, 'positionName': 'LEFT', 'positionCoords': [244.68, 178.5], 'bid': 6.99}, {'imgObject': {}, 'id': 'chicken nuggets2', 'src': '/static/foodstim60/chicken nuggets2.jpg', 'key': 'i', 'origWidth': 410, 'origHeight': 409, 'width': 410, 'height': 409, 'widthPercent': 0.45, 'rescaleHeight': False, 'trialN': 46, 'loaded': True, 'loadedTime': 9437.600000143051, 'positionName': 'RIGHT', 'positionCoords': [710.32, 179.5], 'bid': 5.46}]",112262.0,1669831342288,salad w chicken,chicken nuggets2,6.99,5.46,-1.5300000000000002,salad w chicken,u,695.2000000476837,695,True,113461.70000004768,1199.7000000476837,1669831343488,1200,695.4000000953674,HRV,HRV_0045,2022-11-30 18:06:01
47,"[{'imgObject': {}, 'id': 'cocktailshrimp', 'src': '/static/foodstim60/cocktailshrimp.jpg', 'key': 'u', 'origWidth': 410, 'origHeight': 410, 'width': 410, 'height': 410, 'widthPercent': 0.45, 'rescaleHeight': False, 'trialN': 47, 'loaded': True, 'loadedTime': 9437.700000047684, 'positionName': 'LEFT', 'positionCoords': [245.68, 179], 'bid': 0.78}, {'imgObject': {}, 'id': 'tacos', 'src': '/static/foodstim60/tacos.jpg', 'key': 'i', 'origWidth': 411, 'origHeight': 411, 'width': 411, 'height': 411, 'widthPercent': 0.45, 'rescaleHeight': False, 'trialN': 47, 'loaded': True, 'loadedTime': 9438.900000095367, 'positionName': 'RIGHT', 'positionCoords': [710.32, 178.5], 'bid': 5.99}]",113462.0,1669831343488,cocktailshrimp,tacos,0.78,5.99,5.21,tacos,i,806.7000000476837,807,True,114783.10000014305,1321.1000001430511,1669831344809,1321,807.5,HRV,HRV_0045,2022-11-30 18:06:01
48,"[{'imgObject': {}, 'id': 'pear', 'src': '/static/foodstim60/pear.jpg', 'key': 'u', 'origWidth': 411, 'origHeight': 410, 'width': 411, 'height': 410, 'widthPercent': 0.45, 'rescaleHeight': False, 'trialN': 48, 'loaded': True, 'loadedTime': 9439, 'positionName': 'LEFT', 'positionCoords': [244.68, 179], 'bid': 5.3}, {'imgObject': {}, 'id': 'turkey sandwich', 'src': '/static/foodstim60/turkey sandwich.jpg', 'key': 'i', 'origWidth': 409, 'origHeight': 409, 'width': 409, 'height': 409, 'widthPercent': 0.45, 'rescaleHeight': False, 'trialN': 48, 'loaded': True, 'loadedTime': 9478.400000095367, 'positionName': 'RIGHT', 'positionCoords': [710.32, 179.5], 'bid': 5.3}]",114783.40000009537,1669831344809,pear,turkey sandwich,5.3,5.3,0.0,turkey sandwich,i,1430.0999999046326,1431,True,116723.0,1939.5999999046326,1669831346749,1940,1430.5999999046326,HRV,HRV_0045,2022-11-30 18:06:01
49,"[{'imgObject': {}, 'id': 'fruitsalad', 'src': '/static/foodstim60/fruitsalad.jpg', 'key': 'u', 'origWidth': 410, 'origHeight': 410, 'width': 410, 'height': 410, 'widthPercent': 0.45, 'rescaleHeight': False, 'trialN': 49, 'loaded': True, 'loadedTime': 9478.700000047684, 'positionName': 'LEFT', 'positionCoords': [245.68, 179], 'bid': 6.5600000000000005}, {'imgObject': {}, 'id': 'grilled chicken strips', 'src': '/static/foodstim60/grilled chicken strips.jpg', 'key': 'i', 'origWidth': 410, 'origHeight': 411, 'width': 410, 'height': 411, 'widthPercent': 0.45, 'rescaleHeight': False, 'trialN': 49, 'loaded': True, 'loadedTime': 9479, 'positionName': 'RIGHT', 'positionCoords': [710.32, 178.5], 'bid': 8.66}]",116723.5,1669831346749,fruitsalad,grilled chicken strips,6.5600000000000005,8.66,2.0999999999999996,grilled chicken strips,i,749.4000000953674,751,True,117981.70000004768,1258.2000000476837,1669831348008,1259,750.1000001430511,HRV,HRV_0045,2022-11-30 18:06:01
50,"[{'imgObject': {}, 'id': 'edamame', 'src': '/static/foodstim60/edamame.jpg', 'key': 'u', 'origWidth': 409, 'origHeight': 410, 'width': 409, 'height': 410, 'widthPercent': 0.45, 'rescaleHeight': False, 'trialN': 50, 'loaded': True, 'loadedTime': 9479.200000047684, 'positionName': 'LEFT', 'positionCoords': [246.68, 179], 'bid': 0.5}, {'imgObject': {}, 'id': 'lox', 'src': '/static/foodstim60/lox.jpg', 'key': 'i', 'origWidth': 410, 'origHeight': 411, 'width': 410, 'height': 411, 'widthPercent': 0.45, 'rescaleHeight': False, 'trialN': 50, 'loaded': True, 'loadedTime': 9479.5, 'positionName': 'RIGHT', 'positionCoords': [710.32, 178.5], 'bid': 1.96}]",117981.90000009537,1669831348008,edamame,lox,0.5,1.96,1.46,lox,i,2662.7000000476837,2663,True,121149.40000009537,3167.5,1669831351173,3165,2663.399999856949,HRV,HRV_0045,2022-11-30 18:06:01
51,"[{'imgObject': {}, 'id': 'hashbrowns', 'src': '/static/foodstim60/hashbrowns.jpg', 'key': 'u', 'origWidth': 411, 'origHeight': 410, 'width': 411, 'height': 410, 'widthPercent': 0.45, 'rescaleHeight': False, 'trialN': 51, 'loaded': True, 'loadedTime': 9575.400000095367, 'positionName': 'LEFT', 'positionCoords': [244.68, 179], 'bid': 0.18}, {'imgObject': {}, 'id': 'burrito', 'src': '/static/foodstim60/burrito.jpg', 'key': 'i', 'origWidth': 410, 'origHeight': 410, 'width': 410, 'height': 410, 'widthPercent': 0.45, 'rescaleHeight': False, 'trialN': 51, 'loaded': True, 'loadedTime': 9575.700000047684, 'positionName': 'RIGHT', 'positionCoords': [710.32, 179], 'bid': 0.25}]",121149.79999995232,1669831351174,hashbrowns,burrito,0.18,0.25,0.07,burrito,i,1630.5,1631,True,123285.20000004768,2135.4000000953674,1669831353309,2135,1631.0,HRV,HRV_0045,2022-11-30 18:06:01
52,"[{'imgObject': {}, 'id': 'blueberries', 'src': '/static/foodstim60/blueberries.jpg', 'key': 'u', 'origWidth': 411, 'origHeight': 411, 'width': 411, 'height': 411, 'widthPercent': 0.45, 'rescaleHeight': False, 'trialN': 52, 'loaded': True, 'loadedTime': 9577, 'positionName': 'LEFT', 'positionCoords': [244.68, 178.5], 'bid': 0.87}, {'imgObject': {}, 'id': 'edamame', 'src': '/static/foodstim60/edamame.jpg', 'key': 'i', 'origWidth': 409, 'origHeight': 410, 'width': 409, 'height': 410, 'widthPercent': 0.45, 'rescaleHeight': False, 'trialN': 52, 'loaded': True, 'loadedTime': 9603.5, 'positionName': 'RIGHT', 'positionCoords': [710.32, 179], 'bid': 0.5}]",123285.5,1669831353309,blueberries,edamame,0.87,0.5,-0.37,blueberries,u,2113.9000000953674,2115,True,125906.5,2621.0,1669831355930,2621,2114.5,HRV,HRV_0045,2022-11-30 18:06:01
53,"[{'imgObject': {}, 'id': 'eggsalad', 'src': '/static/foodstim60/eggsalad.jpg', 'key': 'u', 'origWidth': 410, 'origHeight': 409, 'width': 410, 'height': 409, 'widthPercent': 0.45, 'rescaleHeight': False, 'trialN': 53, 'loaded': True, 'loadedTime': 9603.799999952316, 'positionName': 'LEFT', 'positionCoords': [245.68, 179.5], 'bid': 2.8000000000000003}, {'imgObject': {}, 'id': 'turkeysandwich', 'src': '/static/foodstim60/turkeysandwich.jpg', 'key': 'i', 'origWidth': 409, 'origHeight': 409, 'width': 409, 'height': 409, 'widthPercent': 0.45, 'rescaleHeight': False, 'trialN': 53, 'loaded': True, 'loadedTime': 9604, 'positionName': 'RIGHT', 'positionCoords': [710.32, 179.5], 'bid': 3.72}]",125906.79999995232,1669831355931,eggsalad,turkeysandwich,2.8000000000000003,3.72,0.9199999999999999,eggsalad,u,1145,1145,True,127563.10000014305,1656.3000001907349,1669831357587,1656,1145.6000001430511,HRV,HRV_0045,2022-11-30 18:06:01
54,"[{'imgObject': {}, 'id': 'burrito', 'src': '/static/foodstim60/burrito.jpg', 'key': 'u', 'origWidth': 410, 'origHeight': 410, 'width': 410, 'height': 410, 'widthPercent': 0.45, 'rescaleHeight': False, 'trialN': 54, 'loaded': True, 'loadedTime': 9604.100000143051, 'positionName': 'LEFT', 'positionCoords': [245.68, 179], 'bid': 0.25}, {'imgObject': {}, 'id': 'omelette', 'src': '/static/foodstim60/omelette.jpg', 'key': 'i', 'origWidth': 410, 'origHeight': 409, 'width': 410, 'height': 409, 'widthPercent': 0.45, 'rescaleHeight': False, 'trialN': 54, 'loaded': True, 'loadedTime': 9647.700000047684, 'positionName': 'RIGHT', 'positionCoords': [710.32, 179.5], 'bid': 2.4}]",127563.60000014305,1669831357588,burrito,omelette,0.25,2.4,2.15,omelette,i,1238.0999999046326,1240,True,129308.90000009537,1745.2999999523163,1669831359333,1745,1240.0,HRV,HRV_0045,2022-11-30 18:06:01
55,"[{'imgObject': {}, 'id': 'mango', 'src': '/static/foodstim60/mango.jpg', 'key': 'u', 'origWidth': 411, 'origHeight': 411, 'width': 411, 'height': 411, 'widthPercent': 0.45, 'rescaleHeight': False, 'trialN': 55, 'loaded': True, 'loadedTime': 9648.100000143051, 'positionName': 'LEFT', 'positionCoords': [244.68, 178.5], 'bid': 9.07}, {'imgObject': {}, 'id': 'banana', 'src': '/static/foodstim60/banana.jpg', 'key': 'i', 'origWidth': 410, 'origHeight': 410, 'width': 410, 'height': 410, 'widthPercent': 0.45, 'rescaleHeight': False, 'trialN': 55, 'loaded': True, 'loadedTime': 9648.5, 'positionName': 'RIGHT', 'positionCoords': [710.32, 179], 'bid': 6.66}]",129309.10000014305,1669831359333,mango,banana,9.07,6.66,-2.41,mango,u,976.0999999046326,977,True,130803.60000014305,1494.5,1669831360828,1495,976.5999999046326,HRV,HRV_0045,2022-11-30 18:06:01
56,"[{'imgObject': {}, 'id': 'salmon', 'src': '/static/foodstim60/salmon.jpg', 'key': 'u', 'origWidth': 410, 'origHeight': 409, 'width': 410, 'height': 409, 'widthPercent': 0.45, 'rescaleHeight': False, 'trialN': 56, 'loaded': True, 'loadedTime': 9648.600000143051, 'positionName': 'LEFT', 'positionCoords': [245.68, 179.5], 'bid': 8.39}, {'imgObject': {}, 'id': 'cherries', 'src': '/static/foodstim60/cherries.jpg', 'key': 'i', 'origWidth': 410, 'origHeight': 411, 'width': 410, 'height': 411, 'widthPercent': 0.45, 'rescaleHeight': False, 'trialN': 56, 'loaded': True, 'loadedTime': 9648.799999952316, 'positionName': 'RIGHT', 'positionCoords': [710.32, 178.5], 'bid': 7.81}]",130804.0,1669831360828,salmon,cherries,8.39,7.81,-0.580000000000001,salmon,u,643.7999999523163,644,True,131955.29999995232,1151.2999999523163,1669831361979,1151,644.2000000476837,HRV,HRV_0045,2022-11-30 18:06:01
57,"[{'imgObject': {}, 'id': 'raisin bran w milk', 'src': '/static/foodstim60/raisin bran w milk.jpg', 'key': 'u', 'origWidth': 411, 'origHeight': 411, 'width': 411, 'height': 411, 'widthPercent': 0.45, 'rescaleHeight': False, 'trialN': 57, 'loaded': True, 'loadedTime': 9648.900000095367, 'positionName': 'LEFT', 'positionCoords': [244.68, 178.5], 'bid': 6.12}, {'imgObject': {}, 'id': 'popsicles', 'src': '/static/foodstim60/popsicles.jpg', 'key': 'i', 'origWidth': 410, 'origHeight': 410, 'width': 410, 'height': 410, 'widthPercent': 0.45, 'rescaleHeight': False, 'trialN': 57, 'loaded': True, 'loadedTime': 9776.299999952316, 'positionName': 'RIGHT', 'positionCoords': [710.32, 179], 'bid': 7.25}]",131955.5,1669831361979,raisin bran w milk,popsicles,6.12,7.25,1.13,raisin bran w milk,u,851.2000000476837,852,True,133315.79999995232,1360.2999999523163,1669831363340,1361,851.7999999523163,HRV,HRV_0045,2022-11-30 18:06:01
58,"[{'imgObject': {}, 'id': 'ice cream sundae 002', 'src': '/static/foodstim60/ice cream sundae 002.jpg', 'key': 'u', 'origWidth': 409, 'origHeight': 409, 'width': 409, 'height': 409, 'widthPercent': 0.45, 'rescaleHeight': False, 'trialN': 58, 'loaded': True, 'loadedTime': 9776.700000047684, 'positionName': 'LEFT', 'positionCoords': [246.68, 179.5], 'bid': 9.05}, {'imgObject': {}, 'id': 'strawberries', 'src': '/static/foodstim60/strawberries.jpg', 'key': 'i', 'origWidth': 410, 'origHeight': 410, 'width': 410, 'height': 410, 'widthPercent': 0.45, 'rescaleHeight': False, 'trialN': 58, 'loaded': True, 'loadedTime': 9777.100000143051, 'positionName': 'RIGHT', 'positionCoords': [710.32, 179], 'bid': 7.24}]",133316.0,1669831363340,ice cream sundae 002,strawberries,9.05,7.24,-1.8100000000000005,ice cream sundae 002,u,1001.6000001430511,1002,True,134830.60000014305,1514.6000001430511,1669831364855,1515,1001.9000000953674,HRV,HRV_0045,2022-11-30 18:06:01
59,"[{'imgObject': {}, 'id': 'Grapes', 'src': '/static/foodstim60/Grapes.jpg', 'key': 'u', 'origWidth': 411, 'origHeight': 411, 'width': 411, 'height': 411, 'widthPercent': 0.45, 'rescaleHeight': False, 'trialN': 59, 'loaded': True, 'loadedTime': 9777.400000095367, 'positionName': 'LEFT', 'positionCoords': [244.68, 178.5], 'bid': 7}, {'imgObject': {}, 'id': 'bagel and cc', 'src': '/static/foodstim60/bagel and cc.jpg', 'key': 'i', 'origWidth': 410, 'origHeight': 410, 'width': 410, 'height': 410, 'widthPercent': 0.45, 'rescaleHeight': False, 'trialN': 59, 'loaded': True, 'loadedTime': 9777.799999952316, 'positionName': 'RIGHT', 'positionCoords': [710.32, 179], 'bid': 2.58}]",134831.0,1669831364855,Grapes,bagel and cc,7.0,2.58,-4.42,Grapes,u,823,823,True,136169.90000009537,1338.9000000953674,1669831366194,1339,823.5,HRV,HRV_0045,2022-11-30 18:06:01
60,"[{'imgObject': {}, 'id': 'burrito', 'src': '/static/foodstim60/burrito.jpg', 'key': 'u', 'origWidth': 410, 'origHeight': 410, 'width': 410, 'height': 410, 'widthPercent': 0.45, 'rescaleHeight': False, 'trialN': 60, 'loaded': True, 'loadedTime': 9780.200000047684, 'positionName': 'LEFT', 'positionCoords': [245.68, 179], 'bid': 0.25}, {'imgObject': {}, 'id': 'pear', 'src': '/static/foodstim60/pear.jpg', 'key': 'i', 'origWidth': 411, 'origHeight': 410, 'width': 411, 'height': 410, 'widthPercent': 0.45, 'rescaleHeight': False, 'trialN': 60, 'loaded': True, 'loadedTime': 9839.100000143051, 'positionName': 'RIGHT', 'positionCoords': [710.32, 179], 'bid': 5.3}]",136170.40000009537,1669831366194,burrito,pear,0.25,5.3,5.05,pear,i,860.2999999523163,862,True,137547.20000004768,1376.7999999523163,1669831367571,1377,861.2000000476837,HRV,HRV_0045,2022-11-30 18:06:01
61,"[{'imgObject': {}, 'id': 'mac & cheese', 'src': '/static/foodstim60/mac & cheese.jpg', 'key': 'u', 'origWidth': 410, 'origHeight': 410, 'width': 410, 'height': 410, 'widthPercent': 0.45, 'rescaleHeight': False, 'trialN': 61, 'loaded': True, 'loadedTime': 9839.5, 'positionName': 'LEFT', 'positionCoords': [245.68, 179], 'bid': 5.08}, {'imgObject': {}, 'id': 'eggsalad', 'src': '/static/foodstim60/eggsalad.jpg', 'key': 'i', 'origWidth': 410, 'origHeight': 409, 'width': 410, 'height': 409, 'widthPercent': 0.45, 'rescaleHeight': False, 'trialN': 61, 'loaded': True, 'loadedTime': 9839.900000095367, 'positionName': 'RIGHT', 'positionCoords': [710.32, 179.5], 'bid': 2.8000000000000003}]",137547.5,1669831367572,mac & cheese,eggsalad,5.08,2.8000000000000003,-2.28,eggsalad,i,952.7000000476837,953,True,139019.40000009537,1471.9000000953674,1669831369043,1471,953.2000000476837,HRV,HRV_0045,2022-11-30 18:06:01
62,"[{'imgObject': {}, 'id': 'avocado', 'src': '/static/foodstim60/avocado.jpg', 'key': 'u', 'origWidth': 409, 'origHeight': 409, 'width': 409, 'height': 409, 'widthPercent': 0.45, 'rescaleHeight': False, 'trialN': 62, 'loaded': True, 'loadedTime': 9840.200000047684, 'positionName': 'LEFT', 'positionCoords': [246.68, 179.5], 'bid': 0.31}, {'imgObject': {}, 'id': 'blackbeanswithrice', 'src': '/static/foodstim60/blackbeanswithrice.jpg', 'key': 'i', 'origWidth': 410, 'origHeight': 410, 'width': 410, 'height': 410, 'widthPercent': 0.45, 'rescaleHeight': False, 'trialN': 62, 'loaded': True, 'loadedTime': 9840.299999952316, 'positionName': 'RIGHT', 'positionCoords': [710.32, 179], 'bid': 1.26}]",139019.60000014305,1669831369044,avocado,blackbeanswithrice,0.31,1.26,0.95,blackbeanswithrice,i,1493.5,1493,True,141035.90000009537,2016.2999999523163,1669831371060,2016,1493.8999998569489,HRV,HRV_0045,2022-11-30 18:06:01
63,"[{'imgObject': {}, 'id': 'cherry tomato', 'src': '/static/foodstim60/cherry tomato.jpg', 'key': 'u', 'origWidth': 410, 'origHeight': 410, 'width': 410, 'height': 410, 'widthPercent': 0.45, 'rescaleHeight': False, 'trialN': 63, 'loaded': True, 'loadedTime': 9840.5, 'positionName': 'LEFT', 'positionCoords': [245.68, 179], 'bid': 1.26}, {'imgObject': {}, 'id': 'Tribe humus pita', 'src': '/static/foodstim60/Tribe humus pita.jpg', 'key': 'i', 'origWidth': 411, 'origHeight': 411, 'width': 411, 'height': 411, 'widthPercent': 0.45, 'rescaleHeight': False, 'trialN': 63, 'loaded': True, 'loadedTime': 9841.900000095367, 'positionName': 'RIGHT', 'positionCoords': [710.32, 178.5], 'bid': 2.49}]",141036.10000014305,1669831371060,cherry tomato,Tribe humus pita,1.26,2.49,1.2300000000000002,Tribe humus pita,i,1195.0999999046326,1196,True,142738.40000009537,1702.2999999523163,1669831372762,1702,1195.5999999046326,HRV,HRV_0045,2022-11-30 18:06:01
64,"[{'imgObject': {}, 'id': 'granola w milk', 'src': '/static/foodstim60/granola w milk.jpg', 'key': 'u', 'origWidth': 410, 'origHeight': 410, 'width': 410, 'height': 410, 'widthPercent': 0.45, 'rescaleHeight': False, 'trialN': 64, 'loaded': True, 'loadedTime': 9842.100000143051, 'positionName': 'LEFT', 'positionCoords': [245.68, 179], 'bid': 5.96}, {'imgObject': {}, 'id': 'luckycharms', 'src': '/static/foodstim60/luckycharms.jpg', 'key': 'i', 'origWidth': 410, 'origHeight': 409, 'width': 410, 'height': 409, 'widthPercent': 0.45, 'rescaleHeight': False, 'trialN': 64, 'loaded': True, 'loadedTime': 9843.299999952316, 'positionName': 'RIGHT', 'positionCoords': [710.32, 179.5], 'bid': 4.82}]",142738.79999995232,1669831372763,granola w milk,luckycharms,5.96,4.82,-1.1399999999999997,granola w milk,u,1843.2000000476837,1844,True,145086.10000014305,2347.300000190735,1669831375110,2347,1844.2000000476837,HRV,HRV_0045,2022-11-30 18:06:01
65,"[{'imgObject': {}, 'id': 'cantaloupe', 'src': '/static/foodstim60/cantaloupe.jpg', 'key': 'u', 'origWidth': 409, 'origHeight': 409, 'width': 409, 'height': 409, 'widthPercent': 0.45, 'rescaleHeight': False, 'trialN': 65, 'loaded': True, 'loadedTime': 9843.400000095367, 'positionName': 'LEFT', 'positionCoords': [246.68, 179.5], 'bid': 0.13}, {'imgObject': {}, 'id': 'olives', 'src': '/static/foodstim60/olives.jpg', 'key': 'i', 'origWidth': 410, 'origHeight': 410, 'width': 410, 'height': 410, 'widthPercent': 0.45, 'rescaleHeight': False, 'trialN': 65, 'loaded': True, 'loadedTime': 9843.700000047684, 'positionName': 'RIGHT', 'positionCoords': [710.32, 179], 'bid': 0.03}]",145086.40000009537,1669831375110,cantaloupe,olives,0.13,0.03,-0.1,cantaloupe,u,1181.2999999523163,1184,True,146780.60000014305,1694.2000000476837,1669831376805,1695,1183.3999998569489,HRV,HRV_0045,2022-11-30 18:06:01
66,"[{'imgObject': {}, 'id': 'froot loops w milk', 'src': '/static/foodstim60/froot loops w milk.jpg', 'key': 'u', 'origWidth': 410, 'origHeight': 410, 'width': 410, 'height': 410, 'widthPercent': 0.45, 'rescaleHeight': False, 'trialN': 66, 'loaded': True, 'loadedTime': 9843.799999952316, 'positionName': 'LEFT', 'positionCoords': [245.68, 179], 'bid': 4.94}, {'imgObject': {}, 'id': 'bagel and cc', 'src': '/static/foodstim60/bagel and cc.jpg', 'key': 'i', 'origWidth': 410, 'origHeight': 410, 'width': 410, 'height': 410, 'widthPercent': 0.45, 'rescaleHeight': False, 'trialN': 66, 'loaded': True, 'loadedTime': 9874.5, 'positionName': 'RIGHT', 'positionCoords': [710.32, 179], 'bid': 2.58}]",146780.70000004768,1669831376805,froot loops w milk,bagel and cc,4.94,2.58,-2.3600000000000003,bagel and cc,i,925.4000000953674,926,True,148218.79999995232,1438.0999999046326,1669831378243,1438,925.7999999523163,HRV,HRV_0045,2022-11-30 18:06:01
67,"[{'imgObject': {}, 'id': 'edamame', 'src': '/static/foodstim60/edamame.jpg', 'key': 'u', 'origWidth': 409, 'origHeight': 410, 'width': 409, 'height': 410, 'widthPercent': 0.45, 'rescaleHeight': False, 'trialN': 67, 'loaded': True, 'loadedTime': 9875, 'positionName': 'LEFT', 'positionCoords': [246.68, 179], 'bid': 0.5}, {'imgObject': {}, 'id': 'bagel and cc', 'src': '/static/foodstim60/bagel and cc.jpg', 'key': 'i', 'origWidth': 410, 'origHeight': 410, 'width': 410, 'height': 410, 'widthPercent': 0.45, 'rescaleHeight': False, 'trialN': 67, 'loaded': True, 'loadedTime': 9876.200000047684, 'positionName': 'RIGHT', 'positionCoords': [710.32, 179], 'bid': 2.58}]",148219.10000014305,1669831378243,edamame,bagel and cc,0.5,2.58,2.08,bagel and cc,i,612.0999999046326,613,True,149338.0,1118.8999998569489,1669831379362,1119,612.7999999523163,HRV,HRV_0045,2022-11-30 18:06:01
68,"[{'imgObject': {}, 'id': 'mango', 'src': '/static/foodstim60/mango.jpg', 'key': 'u', 'origWidth': 411, 'origHeight': 411, 'width': 411, 'height': 411, 'widthPercent': 0.45, 'rescaleHeight': False, 'trialN': 68, 'loaded': True, 'loadedTime': 9876.400000095367, 'positionName': 'LEFT', 'positionCoords': [244.68, 178.5], 'bid': 9.07}, {'imgObject': {}, 'id': 'grilled chicken strips', 'src': '/static/foodstim60/grilled chicken strips.jpg', 'key': 'i', 'origWidth': 410, 'origHeight': 411, 'width': 410, 'height': 411, 'widthPercent': 0.45, 'rescaleHeight': False, 'trialN': 68, 'loaded': True, 'loadedTime': 9876.799999952316, 'positionName': 'RIGHT', 'positionCoords': [710.32, 178.5], 'bid': 8.66}]",149338.29999995232,1669831379362,mango,grilled chicken strips,9.07,8.66,-0.41000000000000014,grilled chicken strips,i,1201.4000000953674,1202,True,151046.79999995232,1708.5,1669831381071,1709,1201.7000000476837,HRV,HRV_0045,2022-11-30 18:06:01
69,"[{'imgObject': {}, 'id': 'baked potato', 'src': '/static/foodstim60/baked potato.jpg', 'key': 'u', 'origWidth': 409, 'origHeight': 410, 'width': 409, 'height': 410, 'widthPercent': 0.45, 'rescaleHeight': False, 'trialN': 69, 'loaded': True, 'loadedTime': 9877, 'positionName': 'LEFT', 'positionCoords': [246.68, 179], 'bid': 6.5}, {'imgObject': {}, 'id': 'granola w milk', 'src': '/static/foodstim60/granola w milk.jpg', 'key': 'i', 'origWidth': 410, 'origHeight': 410, 'width': 410, 'height': 410, 'widthPercent': 0.45, 'rescaleHeight': False, 'trialN': 69, 'loaded': True, 'loadedTime': 9877.400000095367, 'positionName': 'RIGHT', 'positionCoords': [710.32, 179], 'bid': 5.96}]",151047.20000004768,1669831381071,baked potato,granola w milk,6.5,5.96,-0.54,baked potato,u,859.5999999046326,860,True,152414.79999995232,1367.5999999046326,1669831382439,1368,859.9000000953674,HRV,HRV_0045,2022-11-30 18:06:01
70,"[{'imgObject': {}, 'id': 'hashbrowns', 'src': '/static/foodstim60/hashbrowns.jpg', 'key': 'u', 'origWidth': 411, 'origHeight': 410, 'width': 411, 'height': 410, 'widthPercent': 0.45, 'rescaleHeight': False, 'trialN': 70, 'loaded': True, 'loadedTime': 9877.700000047684, 'positionName': 'LEFT', 'positionCoords': [244.68, 179], 'bid': 0.18}, {'imgObject': {}, 'id': 'olives', 'src': '/static/foodstim60/olives.jpg', 'key': 'i', 'origWidth': 410, 'origHeight': 410, 'width': 410, 'height': 410, 'widthPercent': 0.45, 'rescaleHeight': False, 'trialN': 70, 'loaded': True, 'loadedTime': 9878.100000143051, 'positionName': 'RIGHT', 'positionCoords': [710.32, 179], 'bid': 0.03}]",152415.40000009537,1669831382439,hashbrowns,olives,0.18,0.03,-0.15,hashbrowns,u,1328.5,1329,True,154251.60000014305,1836.2000000476837,1669831384276,1837,1329.0,HRV,HRV_0045,2022-11-30 18:06:01
71,"[{'imgObject': {}, 'id': 'mac & cheese', 'src': '/static/foodstim60/mac & cheese.jpg', 'key': 'u', 'origWidth': 410, 'origHeight': 410, 'width': 410, 'height': 410, 'widthPercent': 0.45, 'rescaleHeight': False, 'trialN': 71, 'loaded': True, 'loadedTime': 9878.200000047684, 'positionName': 'LEFT', 'positionCoords': [245.68, 179], 'bid': 5.08}, {'imgObject': {}, 'id': 'corn cob', 'src': '/static/foodstim60/corn cob.jpg', 'key': 'i', 'origWidth': 411, 'origHeight': 411, 'width': 411, 'height': 411, 'widthPercent': 0.45, 'rescaleHeight': False, 'trialN': 71, 'loaded': True, 'loadedTime': 9878.600000143051, 'positionName': 'RIGHT', 'positionCoords': [710.32, 178.5], 'bid': 4.3100000000000005}]",154251.90000009537,1669831384276,mac & cheese,corn cob,5.08,4.3100000000000005,-0.7699999999999996,mac & cheese,u,1226.0999999046326,1227,True,155984.20000004768,1732.2999999523163,1669831386008,1732,1226.5999999046326,HRV,HRV_0045,2022-11-30 18:06:01
72,"[{'imgObject': {}, 'id': 'mashed potato', 'src': '/static/foodstim60/mashed potato.jpg', 'key': 'u', 'origWidth': 409, 'origHeight': 409, 'width': 409, 'height': 409, 'widthPercent': 0.45, 'rescaleHeight': False, 'trialN': 72, 'loaded': True, 'loadedTime': 9878.700000047684, 'positionName': 'LEFT', 'positionCoords': [246.68, 179.5], 'bid': 1.2}, {'imgObject': {}, 'id': 'cherry tomato', 'src': '/static/foodstim60/cherry tomato.jpg', 'key': 'i', 'origWidth': 410, 'origHeight': 410, 'width': 410, 'height': 410, 'widthPercent': 0.45, 'rescaleHeight': False, 'trialN': 72, 'loaded': True, 'loadedTime': 9915.799999952316, 'positionName': 'RIGHT', 'positionCoords': [710.32, 179], 'bid': 1.26}]",155984.60000014305,1669831386009,mashed potato,cherry tomato,1.2,1.26,0.06000000000000005,mashed potato,u,1284.8999998569489,1285,True,157776.29999995232,1791.6999998092651,1669831387800,1791,1285.1999998092651,HRV,HRV_0045,2022-11-30 18:06:01
73,"[{'imgObject': {}, 'id': 'sushi w_condiments', 'src': '/static/foodstim60/sushi w_condiments.jpg', 'key': 'u', 'origWidth': 410, 'origHeight': 410, 'width': 410, 'height': 410, 'widthPercent': 0.45, 'rescaleHeight': False, 'trialN': 73, 'loaded': True, 'loadedTime': 9916.200000047684, 'positionName': 'LEFT', 'positionCoords': [245.68, 179], 'bid': 4.64}, {'imgObject': {}, 'id': 'grilled chicken strips', 'src': '/static/foodstim60/grilled chicken strips.jpg', 'key': 'i', 'origWidth': 410, 'origHeight': 411, 'width': 410, 'height': 411, 'widthPercent': 0.45, 'rescaleHeight': False, 'trialN': 73, 'loaded': True, 'loadedTime': 9984.200000047684, 'positionName': 'RIGHT', 'positionCoords': [710.32, 178.5], 'bid': 8.66}]",157776.70000004768,1669831387801,sushi w_condiments,grilled chicken strips,4.64,8.66,4.0200000000000005,grilled chicken strips,i,1198.9000000953674,1199,True,159488.20000004768,1711.5,1669831389512,1711,1199.5,HRV,HRV_0045,2022-11-30 18:06:01
74,"[{'imgObject': {}, 'id': 'cheerios', 'src': '/static/foodstim60/cheerios.jpg', 'key': 'u', 'origWidth': 409, 'origHeight': 410, 'width': 409, 'height': 410, 'widthPercent': 0.45, 'rescaleHeight': False, 'trialN': 74, 'loaded': True, 'loadedTime': 9984.5, 'positionName': 'LEFT', 'positionCoords': [246.68, 179], 'bid': 5.92}, {'imgObject': {}, 'id': 'hotdog w must', 'src': '/static/foodstim60/hotdog w must.jpg', 'key': 'i', 'origWidth': 409, 'origHeight': 409, 'width': 409, 'height': 409, 'widthPercent': 0.45, 'rescaleHeight': False, 'trialN': 74, 'loaded': True, 'loadedTime': 9984.799999952316, 'positionName': 'RIGHT', 'positionCoords': [710.32, 179.5], 'bid': 0.6900000000000001}]",159488.40000009537,1669831389512,cheerios,hotdog w must,5.92,0.6900000000000001,-5.2299999999999995,cheerios,u,1381.3999998569489,1382,True,161384.20000004768,1895.7999999523163,1669831391408,1896,1381.8999998569489,HRV,HRV_0045,2022-11-30 18:06:01
75,"[{'imgObject': {}, 'id': 'mango', 'src': '/static/foodstim60/mango.jpg', 'key': 'u', 'origWidth': 411, 'origHeight': 411, 'width': 411, 'height': 411, 'widthPercent': 0.45, 'rescaleHeight': False, 'trialN': 75, 'loaded': True, 'loadedTime': 9984.900000095367, 'positionName': 'LEFT', 'positionCoords': [244.68, 178.5], 'bid': 9.07}, {'imgObject': {}, 'id': 'shreddedwheatwithmilk', 'src': '/static/foodstim60/shreddedwheatwithmilk.jpg', 'key': 'i', 'origWidth': 410, 'origHeight': 410, 'width': 410, 'height': 410, 'widthPercent': 0.45, 'rescaleHeight': False, 'trialN': 75, 'loaded': True, 'loadedTime': 9985.200000047684, 'positionName': 'RIGHT', 'positionCoords': [710.32, 179], 'bid': 6.2}]",161384.70000004768,1669831391409,mango,shreddedwheatwithmilk,9.07,6.2,-2.87,mango,u,1363.5999999046326,1364,True,163265.79999995232,1881.0999999046326,1669831393290,1881,1363.9000000953674,HRV,HRV_0045,2022-11-30 18:06:01
76,"[{'imgObject': {}, 'id': 'omelette', 'src': '/static/foodstim60/omelette.jpg', 'key': 'u', 'origWidth': 410, 'origHeight': 409, 'width': 410, 'height': 409, 'widthPercent': 0.45, 'rescaleHeight': False, 'trialN': 76, 'loaded': True, 'loadedTime': 10008.600000143051, 'positionName': 'LEFT', 'positionCoords': [245.68, 179.5], 'bid': 2.4}, {'imgObject': {}, 'id': 'banana', 'src': '/static/foodstim60/banana.jpg', 'key': 'i', 'origWidth': 410, 'origHeight': 410, 'width': 410, 'height': 410, 'widthPercent': 0.45, 'rescaleHeight': False, 'trialN': 76, 'loaded': True, 'loadedTime': 10008.799999952316, 'positionName': 'RIGHT', 'positionCoords': [710.32, 179], 'bid': 6.66}]",163266.10000014305,1669831393290,omelette,banana,2.4,6.66,4.26,banana,i,1022.1999998092651,1023,True,164800.20000004768,1534.0999999046326,1669831394824,1534,1023.0,HRV,HRV_0045,2022-11-30 18:06:01
77,"[{'imgObject': {}, 'id': 'cherry tomato', 'src': '/static/foodstim60/cherry tomato.jpg', 'key': 'u', 'origWidth': 410, 'origHeight': 410, 'width': 410, 'height': 410, 'widthPercent': 0.45, 'rescaleHeight': False, 'trialN': 77, 'loaded': True, 'loadedTime': 10009.100000143051, 'positionName': 'LEFT', 'positionCoords': [245.68, 179], 'bid': 1.26}, {'imgObject': {}, 'id': 'shreddedwheatwithmilk', 'src': '/static/foodstim60/shreddedwheatwithmilk.jpg', 'key': 'i', 'origWidth': 410, 'origHeight': 410, 'width': 410, 'height': 410, 'widthPercent': 0.45, 'rescaleHeight': False, 'trialN': 77, 'loaded': True, 'loadedTime': 10009.200000047684, 'positionName': 'RIGHT', 'positionCoords': [710.32, 179], 'bid': 6.2}]",164800.5,1669831394824,cherry tomato,shreddedwheatwithmilk,1.26,6.2,4.94,shreddedwheatwithmilk,i,951.4000000953674,952,True,166264.20000004768,1463.7000000476837,1669831396288,1464,952.0,HRV,HRV_0045,2022-11-30 18:06:01
78,"[{'imgObject': {}, 'id': 'cheerios', 'src': '/static/foodstim60/cheerios.jpg', 'key': 'u', 'origWidth': 409, 'origHeight': 410, 'width': 409, 'height': 410, 'widthPercent': 0.45, 'rescaleHeight': False, 'trialN': 78, 'loaded': True, 'loadedTime': 10009.400000095367, 'positionName': 'LEFT', 'positionCoords': [246.68, 179], 'bid': 5.92}, {'imgObject': {}, 'id': 'granola w milk', 'src': '/static/foodstim60/granola w milk.jpg', 'key': 'i', 'origWidth': 410, 'origHeight': 410, 'width': 410, 'height': 410, 'widthPercent': 0.45, 'rescaleHeight': False, 'trialN': 78, 'loaded': True, 'loadedTime': 10047.900000095367, 'positionName': 'RIGHT', 'positionCoords': [710.32, 179], 'bid': 5.96}]",166264.60000014305,1669831396289,cheerios,granola w milk,5.92,5.96,0.040000000000000036,granola w milk,i,749.1999998092651,749,True,167526.79999995232,1262.1999998092651,1669831397551,1262,749.7999999523163,HRV,HRV_0045,2022-11-30 18:06:01
79,"[{'imgObject': {}, 'id': 'eggs', 'src': '/static/foodstim60/eggs.jpg', 'key': 'u', 'origWidth': 409, 'origHeight': 409, 'width': 409, 'height': 409, 'widthPercent': 0.45, 'rescaleHeight': False, 'trialN': 79, 'loaded': True, 'loadedTime': 10048.400000095367, 'positionName': 'LEFT', 'positionCoords': [246.68, 179.5], 'bid': 4.16}, {'imgObject': {}, 'id': 'sushi w_condiments', 'src': '/static/foodstim60/sushi w_condiments.jpg', 'key': 'i', 'origWidth': 410, 'origHeight': 410, 'width': 410, 'height': 410, 'widthPercent': 0.45, 'rescaleHeight': False, 'trialN': 79, 'loaded': True, 'loadedTime': 10048.799999952316, 'positionName': 'RIGHT', 'positionCoords': [710.32, 179], 'bid': 4.64}]",167527.10000014305,1669831397551,eggs,sushi w_condiments,4.16,4.64,0.47999999999999954,sushi w_condiments,i,868.1999998092651,868,True,168904.0,1376.8999998569489,1669831398928,1377,868.3999998569489,HRV,HRV_0045,2022-11-30 18:06:01
80,"[{'imgObject': {}, 'id': 'blueberries', 'src': '/static/foodstim60/blueberries.jpg', 'key': 'u', 'origWidth': 411, 'origHeight': 411, 'width': 411, 'height': 411, 'widthPercent': 0.45, 'rescaleHeight': False, 'trialN': 80, 'loaded': True, 'loadedTime': 10048.900000095367, 'positionName': 'LEFT', 'positionCoords': [244.68, 178.5], 'bid': 0.87}, {'imgObject': {}, 'id': 'cantaloupe', 'src': '/static/foodstim60/cantaloupe.jpg', 'key': 'i', 'origWidth': 409, 'origHeight': 409, 'width': 409, 'height': 409, 'widthPercent': 0.45, 'rescaleHeight': False, 'trialN': 80, 'loaded': True, 'loadedTime': 10049.299999952316, 'positionName': 'RIGHT', 'positionCoords': [710.32, 179.5], 'bid': 0.13}]",168904.40000009537,1669831398928,blueberries,cantaloupe,0.87,0.13,-0.74,blueberries,u,1160.5999999046326,1161,True,170573.60000014305,1669.2000000476837,1669831400598,1670,1161.0,HRV,HRV_0045,2022-11-30 18:06:01
81,"[{'imgObject': {}, 'id': 'raspberries', 'src': '/static/foodstim60/raspberries.jpg', 'key': 'u', 'origWidth': 411, 'origHeight': 411, 'width': 411, 'height': 411, 'widthPercent': 0.45, 'rescaleHeight': False, 'trialN': 81, 'loaded': True, 'loadedTime': 10049.400000095367, 'positionName': 'LEFT', 'positionCoords': [244.68, 178.5], 'bid': 0.68}, {'imgObject': {}, 'id': 'orange slices', 'src': '/static/foodstim60/orange slices.jpg', 'key': 'i', 'origWidth': 409, 'origHeight': 410, 'width': 409, 'height': 410, 'widthPercent': 0.45, 'rescaleHeight': False, 'trialN': 81, 'loaded': True, 'loadedTime': 10049.700000047684, 'positionName': 'RIGHT', 'positionCoords': [710.32, 179], 'bid': 5.83}]",170573.79999995232,1669831400598,raspberries,orange slices,0.68,5.83,5.15,orange slices,i,1027.8000001907349,1028,True,172109.29999995232,1535.5,1669831402133,1535,1028.3000001907349,HRV,HRV_0045,2022-11-30 18:06:01
82,"[{'imgObject': {}, 'id': 'cocktailshrimp', 'src': '/static/foodstim60/cocktailshrimp.jpg', 'key': 'u', 'origWidth': 410, 'origHeight': 410, 'width': 410, 'height': 410, 'widthPercent': 0.45, 'rescaleHeight': False, 'trialN': 82, 'loaded': True, 'loadedTime': 10051.799999952316, 'positionName': 'LEFT', 'positionCoords': [245.68, 179], 'bid': 0.78}, {'imgObject': {}, 'id': 'avocado', 'src': '/static/foodstim60/avocado.jpg', 'key': 'i', 'origWidth': 409, 'origHeight': 409, 'width': 409, 'height': 409, 'widthPercent': 0.45, 'rescaleHeight': False, 'trialN': 82, 'loaded': True, 'loadedTime': 10052.200000047684, 'positionName': 'RIGHT', 'positionCoords': [710.32, 179.5], 'bid': 0.31}]",172109.5,1669831402133,cocktailshrimp,avocado,0.78,0.31,-0.47000000000000003,avocado,i,2788.4000000953674,2789,True,175414.29999995232,3304.7999999523163,1669831405438,3305,2788.9000000953674,HRV,HRV_0045,2022-11-30 18:06:01
83,"[{'imgObject': {}, 'id': 'bagel plain', 'src': '/static/foodstim60/bagel plain.jpg', 'key': 'u', 'origWidth': 410, 'origHeight': 410, 'width': 410, 'height': 410, 'widthPercent': 0.45, 'rescaleHeight': False, 'trialN': 83, 'loaded': True, 'loadedTime': 10052.400000095367, 'positionName': 'LEFT', 'positionCoords': [245.68, 179], 'bid': 2.08}, {'imgObject': {}, 'id': 'rigatoni', 'src': '/static/foodstim60/rigatoni.jpg', 'key': 'i', 'origWidth': 411, 'origHeight': 411, 'width': 411, 'height': 411, 'widthPercent': 0.45, 'rescaleHeight': False, 'trialN': 83, 'loaded': True, 'loadedTime': 10054.200000047684, 'positionName': 'RIGHT', 'positionCoords': [710.32, 178.5], 'bid': 0.6}]",175414.70000004768,1669831405439,bagel plain,rigatoni,2.08,0.6,-1.48,bagel plain,u,1193.4000000953674,1194,True,177109.70000004768,1695.0,1669831407134,1695,1193.9000000953674,HRV,HRV_0045,2022-11-30 18:06:01
84,"[{'imgObject': {}, 'id': 'cherry tomato', 'src': '/static/foodstim60/cherry tomato.jpg', 'key': 'u', 'origWidth': 410, 'origHeight': 410, 'width': 410, 'height': 410, 'widthPercent': 0.45, 'rescaleHeight': False, 'trialN': 84, 'loaded': True, 'loadedTime': 10054.400000095367, 'positionName': 'LEFT', 'positionCoords': [245.68, 179], 'bid': 1.26}, {'imgObject': {}, 'id': 'lox', 'src': '/static/foodstim60/lox.jpg', 'key': 'i', 'origWidth': 410, 'origHeight': 411, 'width': 410, 'height': 411, 'widthPercent': 0.45, 'rescaleHeight': False, 'trialN': 84, 'loaded': True, 'loadedTime': 10099.700000047684, 'positionName': 'RIGHT', 'positionCoords': [710.32, 178.5], 'bid': 1.96}]",177110.10000014305,1669831407134,cherry tomato,lox,1.26,1.96,0.7,cherry tomato,u,1016.3999998569489,1017,True,178636.79999995232,1526.6999998092651,1669831408661,1527,1017.0,HRV,HRV_0045,2022-11-30 18:06:01
85,"[{'imgObject': {}, 'id': 'popsicles', 'src': '/static/foodstim60/popsicles.jpg', 'key': 'u', 'origWidth': 410, 'origHeight': 410, 'width': 410, 'height': 410, 'widthPercent': 0.45, 'rescaleHeight': False, 'trialN': 85, 'loaded': True, 'loadedTime': 10100, 'positionName': 'LEFT', 'positionCoords': [245.68, 179], 'bid': 7.25}, {'imgObject': {}, 'id': 'mango', 'src': '/static/foodstim60/mango.jpg', 'key': 'i', 'origWidth': 411, 'origHeight': 411, 'width': 411, 'height': 411, 'widthPercent': 0.45, 'rescaleHeight': False, 'trialN': 85, 'loaded': True, 'loadedTime': 10100.400000095367, 'positionName': 'RIGHT', 'positionCoords': [710.32, 178.5], 'bid': 9.07}]",178637.20000004768,1669831408661,popsicles,mango,7.25,9.07,1.8200000000000003,mango,i,1029.5,1030,True,180179.29999995232,1542.0999999046326,1669831410203,1542,1030.0,HRV,HRV_0045,2022-11-30 18:06:01
86,"[{'imgObject': {}, 'id': 'kiwi', 'src': '/static/foodstim60/kiwi.jpg', 'key': 'u', 'origWidth': 410, 'origHeight': 410, 'width': 410, 'height': 410, 'widthPercent': 0.45, 'rescaleHeight': False, 'trialN': 86, 'loaded': True, 'loadedTime': 10100.600000143051, 'positionName': 'LEFT', 'positionCoords': [245.68, 179], 'bid': 0.71}, {'imgObject': {}, 'id': 'eggs', 'src': '/static/foodstim60/eggs.jpg', 'key': 'i', 'origWidth': 409, 'origHeight': 409, 'width': 409, 'height': 409, 'widthPercent': 0.45, 'rescaleHeight': False, 'trialN': 86, 'loaded': True, 'loadedTime': 10100.799999952316, 'positionName': 'RIGHT', 'positionCoords': [710.32, 179.5], 'bid': 4.16}]",180179.70000004768,1669831410204,kiwi,eggs,0.71,4.16,3.45,eggs,i,1506.5999999046326,1501,True,182189.20000004768,2009.5,1669831412208,2004,1507.0999999046326,HRV,HRV_0045,2022-11-30 18:06:01
87,"[{'imgObject': {}, 'id': 'apple slices', 'src': '/static/foodstim60/apple slices.jpg', 'key': 'u', 'origWidth': 409, 'origHeight': 410, 'width': 409, 'height': 410, 'widthPercent': 0.45, 'rescaleHeight': False, 'trialN': 87, 'loaded': True, 'loadedTime': 10100.900000095367, 'positionName': 'LEFT', 'positionCoords': [246.68, 179], 'bid': 4.75}, {'imgObject': {}, 'id': 'pear', 'src': '/static/foodstim60/pear.jpg', 'key': 'i', 'origWidth': 411, 'origHeight': 410, 'width': 411, 'height': 410, 'widthPercent': 0.45, 'rescaleHeight': False, 'trialN': 87, 'loaded': True, 'loadedTime': 10101.200000047684, 'positionName': 'RIGHT', 'positionCoords': [710.32, 179], 'bid': 5.3}]",182189.60000014305,1669831412208,apple slices,pear,4.75,5.3,0.5499999999999998,pear,i,858.2999999523163,859,True,183556.29999995232,1366.6999998092651,1669831413575,1367,859.0999999046326,HRV,HRV_0045,2022-11-30 18:06:01
88,"[{'imgObject': {}, 'id': 'rigatoni and sauce', 'src': '/static/foodstim60/rigatoni and sauce.jpg', 'key': 'u', 'origWidth': 410, 'origHeight': 411, 'width': 410, 'height': 411, 'widthPercent': 0.45, 'rescaleHeight': False, 'trialN': 88, 'loaded': True, 'loadedTime': 10101.299999952316, 'positionName': 'LEFT', 'positionCoords': [245.68, 178.5], 'bid': 2.13}, {'imgObject': {}, 'id': 'Tribe humus pita', 'src': '/static/foodstim60/Tribe humus pita.jpg', 'key': 'i', 'origWidth': 411, 'origHeight': 411, 'width': 411, 'height': 411, 'widthPercent': 0.45, 'rescaleHeight': False, 'trialN': 88, 'loaded': True, 'loadedTime': 10101.600000143051, 'positionName': 'RIGHT', 'positionCoords': [710.32, 178.5], 'bid': 2.49}]",183556.70000004768,1669831413575,rigatoni and sauce,Tribe humus pita,2.13,2.49,0.3600000000000003,Tribe humus pita,i,1302.5999999046326,1303,True,185363.10000014305,1806.4000000953674,1669831415382,1807,1303.0999999046326,HRV,HRV_0045,2022-11-30 18:06:01
89,"[{'imgObject': {}, 'id': 'lox', 'src': '/static/foodstim60/lox.jpg', 'key': 'u', 'origWidth': 410, 'origHeight': 411, 'width': 410, 'height': 411, 'widthPercent': 0.45, 'rescaleHeight': False, 'trialN': 89, 'loaded': True, 'loadedTime': 10101.799999952316, 'positionName': 'LEFT', 'positionCoords': [245.68, 178.5], 'bid': 1.96}, {'imgObject': {}, 'id': 'baked potato', 'src': '/static/foodstim60/baked potato.jpg', 'key': 'i', 'origWidth': 409, 'origHeight': 410, 'width': 409, 'height': 410, 'widthPercent': 0.45, 'rescaleHeight': False, 'trialN': 89, 'loaded': True, 'loadedTime': 10102.100000143051, 'positionName': 'RIGHT', 'positionCoords': [710.32, 179], 'bid': 6.5}]",185363.40000009537,1669831415382,lox,baked potato,1.96,6.5,4.54,baked potato,i,787.8999998569489,788,True,186656.0,1292.5999999046326,1669831416674,1292,788.3999998569489,HRV,HRV_0045,2022-11-30 18:06:01
90,"[{'imgObject': {}, 'id': 'raspberries', 'src': '/static/foodstim60/raspberries.jpg', 'key': 'u', 'origWidth': 411, 'origHeight': 411, 'width': 411, 'height': 411, 'widthPercent': 0.45, 'rescaleHeight': False, 'trialN': 90, 'loaded': True, 'loadedTime': 10102.200000047684, 'positionName': 'LEFT', 'positionCoords': [244.68, 178.5], 'bid': 0.68}, {'imgObject': {}, 'id': 'sweetpotato', 'src': '/static/foodstim60/sweetpotato.jpg', 'key': 'i', 'origWidth': 410, 'origHeight': 410, 'width': 410, 'height': 410, 'widthPercent': 0.45, 'rescaleHeight': False, 'trialN': 90, 'loaded': True, 'loadedTime': 10156.5, 'positionName': 'RIGHT', 'positionCoords': [710.32, 179], 'bid': 3.16}]",190556.10000014305,1669831420574,raspberries,sweetpotato,0.68,3.16,2.48,sweetpotato,i,1443.0999999046326,1444,True,192504.70000004768,1948.5999999046326,1669831422523,1949,1443.5999999046326,HRV,HRV_0045,2022-11-30 18:06:01
91,"[{'imgObject': {}, 'id': 'Grapes', 'src': '/static/foodstim60/Grapes.jpg', 'key': 'u', 'origWidth': 411, 'origHeight': 411, 'width': 411, 'height': 411, 'widthPercent': 0.45, 'rescaleHeight': False, 'trialN': 91, 'loaded': True, 'loadedTime': 10158.299999952316, 'positionName': 'LEFT', 'positionCoords': [244.68, 178.5], 'bid': 7}, {'imgObject': {}, 'id': 'fried eggs', 'src': '/static/foodstim60/fried eggs.jpg', 'key': 'i', 'origWidth': 410, 'origHeight': 410, 'width': 410, 'height': 410, 'widthPercent': 0.45, 'rescaleHeight': False, 'trialN': 91, 'loaded': True, 'loadedTime': 10158.600000143051, 'positionName': 'RIGHT', 'positionCoords': [710.32, 179], 'bid': 5.6000000000000005}]",192505.20000004768,1669831422524,Grapes,fried eggs,7.0,5.6000000000000005,-1.3999999999999995,Grapes,u,769.4000000953674,770,True,193797.10000014305,1291.9000000953674,1669831423815,1291,770.2000000476837,HRV,HRV_0045,2022-11-30 18:06:01
92,"[{'imgObject': {}, 'id': 'chickenfingers', 'src': '/static/foodstim60/chickenfingers.jpg', 'key': 'u', 'origWidth': 410, 'origHeight': 410, 'width': 410, 'height': 410, 'widthPercent': 0.45, 'rescaleHeight': False, 'trialN': 92, 'loaded': True, 'loadedTime': 10158.799999952316, 'positionName': 'LEFT', 'positionCoords': [245.68, 179], 'bid': 6.05}, {'imgObject': {}, 'id': 'shreddedwheatwithmilk', 'src': '/static/foodstim60/shreddedwheatwithmilk.jpg', 'key': 'i', 'origWidth': 410, 'origHeight': 410, 'width': 410, 'height': 410, 'widthPercent': 0.45, 'rescaleHeight': False, 'trialN': 92, 'loaded': True, 'loadedTime': 10233.5, 'positionName': 'RIGHT', 'positionCoords': [710.32, 179], 'bid': 6.2}]",193797.40000009537,1669831423816,chickenfingers,shreddedwheatwithmilk,6.05,6.2,0.15000000000000036,chickenfingers,u,810.7999999523163,811,True,195114.60000014305,1317.2000000476837,1669831425133,1317,811.2999999523163,HRV,HRV_0045,2022-11-30 18:06:01
93,"[{'imgObject': {}, 'id': 'steak', 'src': '/static/foodstim60/steak.jpg', 'key': 'u', 'origWidth': 410, 'origHeight': 410, 'width': 410, 'height': 410, 'widthPercent': 0.45, 'rescaleHeight': False, 'trialN': 93, 'loaded': True, 'loadedTime': 10233.799999952316, 'positionName': 'LEFT', 'positionCoords': [245.68, 179], 'bid': 9.9}, {'imgObject': {}, 'id': 'salad w chicken', 'src': '/static/foodstim60/salad w chicken.jpg', 'key': 'i', 'origWidth': 411, 'origHeight': 411, 'width': 411, 'height': 411, 'widthPercent': 0.45, 'rescaleHeight': False, 'trialN': 93, 'loaded': True, 'loadedTime': 10234, 'positionName': 'RIGHT', 'positionCoords': [710.32, 178.5], 'bid': 6.99}]",195114.79999995232,1669831425133,steak,salad w chicken,9.9,6.99,-2.91,steak,u,594.9000000953674,596,True,196218.70000004768,1103.9000000953674,1669831426237,1104,595.5,HRV,HRV_0045,2022-11-30 18:06:01
94,"[{'imgObject': {}, 'id': 'veggieswithdip', 'src': '/static/foodstim60/veggieswithdip.jpg', 'key': 'u', 'origWidth': 409, 'origHeight': 409, 'width': 409, 'height': 409, 'widthPercent': 0.45, 'rescaleHeight': False, 'trialN': 94, 'loaded': True, 'loadedTime': 10234.100000143051, 'positionName': 'LEFT', 'positionCoords': [246.68, 179.5], 'bid': 5.83}, {'imgObject': {}, 'id': 'orange slices', 'src': '/static/foodstim60/orange slices.jpg', 'key': 'i', 'origWidth': 409, 'origHeight': 410, 'width': 409, 'height': 410, 'widthPercent': 0.45, 'rescaleHeight': False, 'trialN': 94, 'loaded': True, 'loadedTime': 10234.200000047684, 'positionName': 'RIGHT', 'positionCoords': [710.32, 179], 'bid': 5.83}]",196219.0,1669831426237,veggieswithdip,orange slices,5.83,5.83,0.0,veggieswithdip,u,679.7999999523163,681,True,197412.29999995232,1193.2999999523163,1669831427431,1194,680.2000000476837,HRV,HRV_0045,2022-11-30 18:06:01
95,"[{'imgObject': {}, 'id': 'raisin bran w milk', 'src': '/static/foodstim60/raisin bran w milk.jpg', 'key': 'u', 'origWidth': 411, 'origHeight': 411, 'width': 411, 'height': 411, 'widthPercent': 0.45, 'rescaleHeight': False, 'trialN': 95, 'loaded': True, 'loadedTime': 10234.299999952316, 'positionName': 'LEFT', 'positionCoords': [244.68, 178.5], 'bid': 6.12}, {'imgObject': {}, 'id': 'ice cream sundae 002', 'src': '/static/foodstim60/ice cream sundae 002.jpg', 'key': 'i', 'origWidth': 409, 'origHeight': 409, 'width': 409, 'height': 409, 'widthPercent': 0.45, 'rescaleHeight': False, 'trialN': 95, 'loaded': True, 'loadedTime': 10234.400000095367, 'positionName': 'RIGHT', 'positionCoords': [710.32, 179.5], 'bid': 9.05}]",197412.70000004768,1669831427431,raisin bran w milk,ice cream sundae 002,6.12,9.05,2.9300000000000006,ice cream sundae 002,i,886.0999999046326,886,True,198807.70000004768,1395.0,1669831428826,1395,886.2999999523163,HRV,HRV_0045,2022-11-30 18:06:01
96,"[{'imgObject': {}, 'id': 'kiwi', 'src': '/static/foodstim60/kiwi.jpg', 'key': 'u', 'origWidth': 410, 'origHeight': 410, 'width': 410, 'height': 410, 'widthPercent': 0.45, 'rescaleHeight': False, 'trialN': 96, 'loaded': True, 'loadedTime': 10234.5, 'positionName': 'LEFT', 'positionCoords': [245.68, 179], 'bid': 0.71}, {'imgObject': {}, 'id': 'granola w milk', 'src': '/static/foodstim60/granola w milk.jpg', 'key': 'i', 'origWidth': 410, 'origHeight': 410, 'width': 410, 'height': 410, 'widthPercent': 0.45, 'rescaleHeight': False, 'trialN': 96, 'loaded': True, 'loadedTime': 10285.400000095367, 'positionName': 'RIGHT', 'positionCoords': [710.32, 179], 'bid': 5.96}]",198808.20000004768,1669831428827,kiwi,granola w milk,0.71,5.96,5.25,granola w milk,i,832.0999999046326,832,True,200142.20000004768,1334.0,1669831430161,1334,832.7999999523163,HRV,HRV_0045,2022-11-30 18:06:01
97,"[{'imgObject': {}, 'id': 'strawberries', 'src': '/static/foodstim60/strawberries.jpg', 'key': 'u', 'origWidth': 410, 'origHeight': 410, 'width': 410, 'height': 410, 'widthPercent': 0.45, 'rescaleHeight': False, 'trialN': 97, 'loaded': True, 'loadedTime': 10285.700000047684, 'positionName': 'LEFT', 'positionCoords': [245.68, 179], 'bid': 7.24}, {'imgObject': {}, 'id': 'Grapes', 'src': '/static/foodstim60/Grapes.jpg', 'key': 'i', 'origWidth': 411, 'origHeight': 411, 'width': 411, 'height': 411, 'widthPercent': 0.45, 'rescaleHeight': False, 'trialN': 97, 'loaded': True, 'loadedTime': 10285.900000095367, 'positionName': 'RIGHT', 'positionCoords': [710.32, 178.5], 'bid': 7}]",200142.5,1669831430161,strawberries,Grapes,7.24,7.0,-0.2400000000000002,strawberries,u,609.1000001430511,609,True,201260.70000004768,1118.2000000476837,1669831431279,1118,609.6000001430511,HRV,HRV_0045,2022-11-30 18:06:01
98,"[{'imgObject': {}, 'id': 'ice cream sundae 002', 'src': '/static/foodstim60/ice cream sundae 002.jpg', 'key': 'u', 'origWidth': 409, 'origHeight': 409, 'width': 409, 'height': 409, 'widthPercent': 0.45, 'rescaleHeight': False, 'trialN': 98, 'loaded': True, 'loadedTime': 10286, 'positionName': 'LEFT', 'positionCoords': [246.68, 179.5], 'bid': 9.05}, {'imgObject': {}, 'id': 'steak', 'src': '/static/foodstim60/steak.jpg', 'key': 'i', 'origWidth': 410, 'origHeight': 410, 'width': 410, 'height': 410, 'widthPercent': 0.45, 'rescaleHeight': False, 'trialN': 98, 'loaded': True, 'loadedTime': 10286.200000047684, 'positionName': 'RIGHT', 'positionCoords': [710.32, 179], 'bid': 9.9}]",201261.20000004768,1669831431280,ice cream sundae 002,steak,9.05,9.9,0.8499999999999996,steak,i,534.2999999523163,534,True,202301.90000009537,1040.7000000476837,1669831432320,1040,534.5999999046326,HRV,HRV_0045,2022-11-30 18:06:01
99,"[{'imgObject': {}, 'id': 'seaweed', 'src': '/static/foodstim60/seaweed.jpg', 'key': 'u', 'origWidth': 410, 'origHeight': 410, 'width': 410, 'height': 410, 'widthPercent': 0.45, 'rescaleHeight': False, 'trialN': 99, 'loaded': True, 'loadedTime': 10286.299999952316, 'positionName': 'LEFT', 'positionCoords': [245.68, 179], 'bid': 4.75}, {'imgObject': {}, 'id': 'luckycharms', 'src': '/static/foodstim60/luckycharms.jpg', 'key': 'i', 'origWidth': 410, 'origHeight': 409, 'width': 410, 'height': 409, 'widthPercent': 0.45, 'rescaleHeight': False, 'trialN': 99, 'loaded': True, 'loadedTime': 10286.400000095367, 'positionName': 'RIGHT', 'positionCoords': [710.32, 179.5], 'bid': 4.82}]",202302.20000004768,1669831432321,seaweed,luckycharms,4.75,4.82,0.07000000000000028,luckycharms,i,650,650,True,203458.60000014305,1156.4000000953674,1669831433477,1156,650.5999999046326,HRV,HRV_0045,2022-11-30 18:06:01
100,"[{'imgObject': {}, 'id': 'baked potato', 'src': '/static/foodstim60/baked potato.jpg', 'key': 'u', 'origWidth': 409, 'origHeight': 410, 'width': 409, 'height': 410, 'widthPercent': 0.45, 'rescaleHeight': False, 'trialN': 100, 'loaded': True, 'loadedTime': 10286.5, 'positionName': 'LEFT', 'positionCoords': [246.68, 179], 'bid': 6.5}, {'imgObject': {}, 'id': 'yogurt no spoon', 'src': '/static/foodstim60/yogurt no spoon.jpg', 'key': 'i', 'origWidth': 411, 'origHeight': 410, 'width': 411, 'height': 410, 'widthPercent': 0.45, 'rescaleHeight': False, 'trialN': 100, 'loaded': True, 'loadedTime': 10286.600000143051, 'positionName': 'RIGHT', 'positionCoords': [710.32, 179], 'bid': 6.63}]",203458.90000009537,1669831433477,baked potato,yogurt no spoon,6.5,6.63,0.1299999999999999,baked potato,u,943.7000000476837,944,True,204914.60000014305,1455.7000000476837,1669831434933,1456,944.2000000476837,HRV,HRV_0045,2022-11-30 18:06:01
101,"[{'imgObject': {}, 'id': 'sweetpotato', 'src': '/static/foodstim60/sweetpotato.jpg', 'key': 'u', 'origWidth': 410, 'origHeight': 410, 'width': 410, 'height': 410, 'widthPercent': 0.45, 'rescaleHeight': False, 'trialN': 101, 'loaded': True, 'loadedTime': 10286.700000047684, 'positionName': 'LEFT', 'positionCoords': [245.68, 179], 'bid': 3.16}, {'imgObject': {}, 'id': 'turkey sandwich', 'src': '/static/foodstim60/turkey sandwich.jpg', 'key': 'i', 'origWidth': 409, 'origHeight': 409, 'width': 409, 'height': 409, 'widthPercent': 0.45, 'rescaleHeight': False, 'trialN': 101, 'loaded': True, 'loadedTime': 10286.900000095367, 'positionName': 'RIGHT', 'positionCoords': [710.32, 179.5], 'bid': 5.3}]",204914.90000009537,1669831434933,sweetpotato,turkey sandwich,3.16,5.3,2.1399999999999997,turkey sandwich,i,1093.0999999046326,1094,True,206513.5,1598.5999999046326,1669831436532,1599,1093.7000000476837,HRV,HRV_0045,2022-11-30 18:06:01
102,"[{'imgObject': {}, 'id': 'seaweed', 'src': '/static/foodstim60/seaweed.jpg', 'key': 'u', 'origWidth': 410, 'origHeight': 410, 'width': 410, 'height': 410, 'widthPercent': 0.45, 'rescaleHeight': False, 'trialN': 102, 'loaded': True, 'loadedTime': 10287, 'positionName': 'LEFT', 'positionCoords': [245.68, 179], 'bid': 4.75}, {'imgObject': {}, 'id': 'froot loops w milk', 'src': '/static/foodstim60/froot loops w milk.jpg', 'key': 'i', 'origWidth': 410, 'origHeight': 410, 'width': 410, 'height': 410, 'widthPercent': 0.45, 'rescaleHeight': False, 'trialN': 102, 'loaded': True, 'loadedTime': 10331.100000143051, 'positionName': 'RIGHT', 'positionCoords': [710.32, 179], 'bid': 4.94}]",206513.79999995232,1669831436532,seaweed,froot loops w milk,4.75,4.94,0.1900000000000004,froot loops w milk,i,703.5,704,True,207734.60000014305,1220.8000001907349,1669831437753,1221,703.9000000953674,HRV,HRV_0045,2022-11-30 18:06:01
103,"[{'imgObject': {}, 'id': 'burrito', 'src': '/static/foodstim60/burrito.jpg', 'key': 'u', 'origWidth': 410, 'origHeight': 410, 'width': 410, 'height': 410, 'widthPercent': 0.45, 'rescaleHeight': False, 'trialN': 103, 'loaded': True, 'loadedTime': 10331.5, 'positionName': 'LEFT', 'positionCoords': [245.68, 179], 'bid': 0.25}, {'imgObject': {}, 'id': 'kiwi', 'src': '/static/foodstim60/kiwi.jpg', 'key': 'i', 'origWidth': 410, 'origHeight': 410, 'width': 410, 'height': 410, 'widthPercent': 0.45, 'rescaleHeight': False, 'trialN': 103, 'loaded': True, 'loadedTime': 10331.700000047684, 'positionName': 'RIGHT', 'positionCoords': [710.32, 179], 'bid': 0.71}]",207735.0,1669831437753,burrito,kiwi,0.25,0.71,0.45999999999999996,kiwi,i,642.2000000476837,648,True,208886.60000014305,1151.6000001430511,1669831438905,1152,647.2999999523163,HRV,HRV_0045,2022-11-30 18:06:01
104,"[{'imgObject': {}, 'id': 'burrito', 'src': '/static/foodstim60/burrito.jpg', 'key': 'u', 'origWidth': 410, 'origHeight': 410, 'width': 410, 'height': 410, 'widthPercent': 0.45, 'rescaleHeight': False, 'trialN': 104, 'loaded': True, 'loadedTime': 10331.900000095367, 'positionName': 'LEFT', 'positionCoords': [245.68, 179], 'bid': 0.25}, {'imgObject': {}, 'id': 'cherry tomato', 'src': '/static/foodstim60/cherry tomato.jpg', 'key': 'i', 'origWidth': 410, 'origHeight': 410, 'width': 410, 'height': 410, 'widthPercent': 0.45, 'rescaleHeight': False, 'trialN': 104, 'loaded': True, 'loadedTime': 10332.100000143051, 'positionName': 'RIGHT', 'positionCoords': [710.32, 179], 'bid': 1.26}]",208887.0,1669831438905,burrito,cherry tomato,0.25,1.26,1.01,cherry tomato,i,1256.1000001430511,1257,True,210660.70000004768,1773.7000000476837,1669831440679,1774,1256.7000000476837,HRV,HRV_0045,2022-11-30 18:06:01
105,"[{'imgObject': {}, 'id': 'corn cob', 'src': '/static/foodstim60/corn cob.jpg', 'key': 'u', 'origWidth': 411, 'origHeight': 411, 'width': 411, 'height': 411, 'widthPercent': 0.45, 'rescaleHeight': False, 'trialN': 105, 'loaded': True, 'loadedTime': 10332.200000047684, 'positionName': 'LEFT', 'positionCoords': [244.68, 178.5], 'bid': 4.3100000000000005}, {'imgObject': {}, 'id': 'cocktailshrimp', 'src': '/static/foodstim60/cocktailshrimp.jpg', 'key': 'i', 'origWidth': 410, 'origHeight': 410, 'width': 410, 'height': 410, 'widthPercent': 0.45, 'rescaleHeight': False, 'trialN': 105, 'loaded': True, 'loadedTime': 10332.400000095367, 'positionName': 'RIGHT', 'positionCoords': [710.32, 179], 'bid': 0.78}]",210661.10000014305,1669831440679,corn cob,cocktailshrimp,4.3100000000000005,0.78,-3.5300000000000002,corn cob,u,834.2999999523163,835,True,212007.5,1346.3999998569489,1669831442026,1347,834.5,HRV,HRV_0045,2022-11-30 18:06:01
106,"[{'imgObject': {}, 'id': 'fruitsalad', 'src': '/static/foodstim60/fruitsalad.jpg', 'key': 'u', 'origWidth': 410, 'origHeight': 410, 'width': 410, 'height': 410, 'widthPercent': 0.45, 'rescaleHeight': False, 'trialN': 106, 'loaded': True, 'loadedTime': 10332.600000143051, 'positionName': 'LEFT', 'positionCoords': [245.68, 179], 'bid': 6.5600000000000005}, {'imgObject': {}, 'id': 'burger', 'src': '/static/foodstim60/burger.jpg', 'key': 'i', 'origWidth': 409, 'origHeight': 409, 'width': 409, 'height': 409, 'widthPercent': 0.45, 'rescaleHeight': False, 'trialN': 106, 'loaded': True, 'loadedTime': 10332.799999952316, 'positionName': 'RIGHT', 'positionCoords': [710.32, 179.5], 'bid': 6.22}]",212008.0,1669831442026,fruitsalad,burger,6.5600000000000005,6.22,-0.34000000000000075,fruitsalad,u,980.2999999523163,981,True,213494.10000014305,1486.1000001430511,1669831443512,1486,980.6000001430511,HRV,HRV_0045,2022-11-30 18:06:01
107,"[{'imgObject': {}, 'id': 'salad w chicken', 'src': '/static/foodstim60/salad w chicken.jpg', 'key': 'u', 'origWidth': 411, 'origHeight': 411, 'width': 411, 'height': 411, 'widthPercent': 0.45, 'rescaleHeight': False, 'trialN': 107, 'loaded': True, 'loadedTime': 10332.900000095367, 'positionName': 'LEFT', 'positionCoords': [244.68, 178.5], 'bid': 6.99}, {'imgObject': {}, 'id': 'strawberries', 'src': '/static/foodstim60/strawberries.jpg', 'key': 'i', 'origWidth': 410, 'origHeight': 410, 'width': 410, 'height': 410, 'widthPercent': 0.45, 'rescaleHeight': False, 'trialN': 107, 'loaded': True, 'loadedTime': 10333.100000143051, 'positionName': 'RIGHT', 'positionCoords': [710.32, 179], 'bid': 7.24}]",213494.5,1669831443513,salad w chicken,strawberries,6.99,7.24,0.25,salad w chicken,u,2623.7999999523163,2624,True,216633.29999995232,3138.7999999523163,1669831446652,3139,2624.2999999523163,HRV,HRV_0045,2022-11-30 18:06:01
108,"[{'imgObject': {}, 'id': 'sweetpotato', 'src': '/static/foodstim60/sweetpotato.jpg', 'key': 'u', 'origWidth': 410, 'origHeight': 410, 'width': 410, 'height': 410, 'widthPercent': 0.45, 'rescaleHeight': False, 'trialN': 108, 'loaded': True, 'loadedTime': 10333.200000047684, 'positionName': 'LEFT', 'positionCoords': [245.68, 179], 'bid': 3.16}, {'imgObject': {}, 'id': 'popsicles', 'src': '/static/foodstim60/popsicles.jpg', 'key': 'i', 'origWidth': 410, 'origHeight': 410, 'width': 410, 'height': 410, 'widthPercent': 0.45, 'rescaleHeight': False, 'trialN': 108, 'loaded': True, 'loadedTime': 10380.400000095367, 'positionName': 'RIGHT', 'positionCoords': [710.32, 179], 'bid': 7.25}]",216633.79999995232,1669831446652,sweetpotato,popsicles,3.16,7.25,4.09,popsicles,i,1015.1000001430511,1016,True,218171.90000009537,1538.1000001430511,1669831448190,1538,1015.9000000953674,HRV,HRV_0045,2022-11-30 18:06:01
