success,trial_type,trial_index,time_elapsed,internal_node_id,Block,TrialNumber,TrialTime,trialTimeDiff,FPS_avg,FPS_med,FPS_mode,TrialDur,winResizeTime,rt,block,button_pressed,MotCoh,MotDir,ColCoh,Color,ChoiceKey,Choice,Accuracy,RT,nFrames,FPS,PPD,missTrial,missTrialMsg,onsetDelay,fullScreenExitTime,canvCenter,TrialType,Score,BlockTrial,stimulus,button_labels,exp,subjectId,date
True,fullscreen,0,16157,0.0-0.0,0.0,1.0,,,,,,,,,,,,,,,,,,,,,,,,,,,,,,,,HRV,HRV_0045,2022-11-30 18:20:28
,wl-check-fps,1,22137,0.0-1.0,0.0,2.0,"[32621.7, 32623.5, 32635.7, 33374.3, 33404.6, 33421.6, 33437.4, 33571.5, 33576.3, 33584.8, 33606.7, 33623.6, 33641, 33653.3, 33668.6, 33686.4, 33703.2, 33718.5, 33738, 33753.9, 33775.3, 33787, 33803.9, 33869, 33877, 33929.8, 33935.9, 33953.4, 33968.6, 33986.5, 34003.8, 34018.6, 34036.4, 34053.3, 34068.6, 34086.5, 34106.3, 34122.4, 34136.9, 34153.2, 34169.9, 34186.2, 34203.9, 34221.9, 34236.5, 34253.8, 34269, 34286.5, 34305.3, 34322.7, 34335.6, 34353.9, 34368.6, 34386.5, 34403.6, 34418.6, 34436.5, 34454.6, 34468.7, 34486.5, 34503.9, 34519.6, 34536.2, 34553, 34569.1, 34586.5, 34603.8, 34619, 34636.5, 34656.7, 34669.1, 34686.3, 34701.8, 34719, 34736.4, 34753.8, 34788.6, 34804.3, 34819.5, 34836.6, 34854.5, 34869.5, 34887.1, 34904.1, 34918.9, 34936.2, 34954.9, 34969.2, 34986.6, 35003.7, 35019.2, 35036.5, 35055.2, 35069.3, 35086.4, 35103.8, 35119.4, 35135.9, 35152.2, 35169.3, 35186.4, 35208.4, 35220.1, 35236.7, 35255.5, 35268.9, 35286.4, 35303.2, 35318.8, 35336.5, 35352.1, 35369.1, 35386.5, 35401.9, 35418.9, 35436.6, 35453.4, 35469, 35486.6, 35504.1, 35519.8, 35536.1, 35552.1, 35569.2, 35586.4, 35602.2, 35619.8, 35636.4, 35652.1, 35669.7, 35686.4, 35701.7, 35719.8, 35736.4, 35751.7, 35769.6, 35786.4, 35803.5, 35819.5, 35836.6, 35853.7, 35870.5, 35886.4, 35901.7, 35921, 35936.1, 35951.6, 35969.6, 35986.3, 36001.7, 36019.6, 36036.3, 36051.7, 36069.5, 36086.3, 36101.7, 36119.6, 36136.4, 36154.6, 36173.9, 36191.3, 36202.5, 36219.4, 36236.4, 36252.1, 36269.5, 36286.4, 36302.6, 36319.3, 36336.6, 36352.2, 36369.8, 36385.5, 36402.5, 36419.3, 36436.1, 36452.3, 36469.4, 36486.2, 36509, 36525, 36536.3, 36552.3, 36570, 36586.3, 36604.7, 36619.7, 36636.2, 36652, 36669.3, 36686.9, 36731.7, 36737.5, 36752.5, 36769.5, 36789.1, 36803, 36819.8, 36836.6, 36854.3, 36869.9, 36885, 36903.9, 36920, 36938.5, 36953.1, 36969.6, 36985.5, 37002.5, 37019.6, 37034.8, 37052.8, 37069.6, 37085.1, 37103.5, 37120.2, 37143.1, 37152.9, 37169.5, 37186.3, 37209, 37219.6, 37235.6, 37254.6, 37270.5, 37285.2, 37302.9, 37319.3, 37335.8, 37354.3, 37369.8, 37385.8, 37405.6, 37419, 37435.8, 37452.4, 37469.1, 37485, 37502.5, 37519.2, 37535.5, 37552.9, 37569.2, 37585.9, 37602.5, 37619.1, 37634.6, 37652.4, 37669.4, 37684.5, 37703.2, 37719.1, 37735.7, 37752.8, 37769.4, 37790.2, 37802.4, 37819.4, 37834.7, 37852.5, 37869, 37884.7, 37902.8, 37919.1, 37934.9, 37952.5, 37969, 37984.7, 38002.7, 38019.5, 38035.1, 38052.4, 38069.1, 38084.7, 38102.3, 38119.2, 38135.7, 38153.3, 38169.1, 38188.7, 38202.6, 38217.7, 38235.6, 38252.4, 38271.1, 38285.8, 38302.5, 38319, 38335, 38352.2, 38369, 38385, 38402.2, 38452.8, 38469.3, 38486.1, 38503.3, 38517.9, 38535.6, 38553.1]","[26.2, 1.8, 12.2, 738.6, 30.3, 17, 15.8, 134.1, 4.8, 8.5, 21.9, 16.9, 17.4, 12.3, 15.3, 17.8, 16.8, 15.3, 19.5, 15.9, 21.4, 11.7, 16.9, 65.1, 8, 52.8, 6.1, 17.5, 15.2, 17.9, 17.3, 14.8, 17.8, 16.9, 15.3, 17.9, 19.8, 16.1, 14.5, 16.3, 16.7, 16.3, 17.7, 18, 14.6, 17.3, 15.2, 17.5, 18.8, 17.4, 12.9, 18.3, 14.7, 17.9, 17.1, 15, 17.9, 18.1, 14.1, 17.8, 17.4, 15.7, 16.6, 16.8, 16.1, 17.4, 17.3, 15.2, 17.5, 20.2, 12.4, 17.2, 15.5, 17.2, 17.4, 17.4, 34.8, 15.7, 15.2, 17.1, 17.9, 15, 17.6, 17, 14.8, 17.3, 18.7, 14.3, 17.4, 17.1, 15.5, 17.3, 18.7, 14.1, 17.1, 17.4, 15.6, 16.5, 16.3, 17.1, 17.1, 22, 11.7, 16.6, 18.8, 13.4, 17.5, 16.8, 15.6, 17.7, 15.6, 17, 17.4, 15.4, 17, 17.7, 16.8, 15.6, 17.6, 17.5, 15.7, 16.3, 16, 17.1, 17.2, 15.8, 17.6, 16.6, 15.7, 17.6, 16.7, 15.3, 18.1, 16.6, 15.3, 17.9, 16.8, 17.1, 16, 17.1, 17.1, 16.8, 15.9, 15.3, 19.3, 15.1, 15.5, 18, 16.7, 15.4, 17.9, 16.7, 15.4, 17.8, 16.8, 15.4, 17.9, 16.8, 18.2, 19.3, 17.4, 11.2, 16.9, 17, 15.7, 17.4, 16.9, 16.2, 16.7, 17.3, 15.6, 17.6, 15.7, 17, 16.8, 16.8, 16.2, 17.1, 16.8, 22.8, 16, 11.3, 16, 17.7, 16.3, 18.4, 15, 16.5, 15.8, 17.3, 17.6, 44.8, 5.8, 15, 17, 19.6, 13.9, 16.8, 16.8, 17.7, 15.6, 15.1, 18.9, 16.1, 18.5, 14.6, 16.5, 15.9, 17, 17.1, 15.2, 18, 16.8, 15.5, 18.4, 16.7, 22.9, 9.8, 16.6, 16.8, 22.7, 10.6, 16, 19, 15.9, 14.7, 17.7, 16.4, 16.5, 18.5, 15.5, 16, 19.8, 13.4, 16.8, 16.6, 16.7, 15.9, 17.5, 16.7, 16.3, 17.4, 16.3, 16.7, 16.6, 16.6, 15.5, 17.8, 17, 15.1, 18.7, 15.9, 16.6, 17.1, 16.6, 20.8, 12.2, 17, 15.3, 17.8, 16.5, 15.7, 18.1, 16.3, 15.8, 17.6, 16.5, 15.7, 18, 16.8, 15.6, 17.3, 16.7, 15.6, 17.6, 16.9, 16.5, 17.6, 15.8, 19.6, 13.9, 15.1, 17.9, 16.8, 18.7, 14.7, 16.7, 16.5, 16, 17.2, 16.8, 16, 17.2, 50.6, 16.5, 16.8, 17.2, 14.6, 17.7, 17.5]",50.0,60.0,60.0,5972.4,[],,,,,,,,,,,,,,,,,,,,,,,,,HRV,HRV_0045,2022-11-30 18:20:28
,wl-html-keyboard-response,2,32124,0.0-2.0-0.0,0.0,3.0,,,,,,,,7975.400000095367,0.0,0,,,,,,,,,,,,,,,,,,,,,,HRV,HRV_0045,2022-11-30 18:20:28
,wl-rdm,3,47197,0.0-3.0-0.0,0.0,4.0,,,,,,,[],,,,0.0,0.0,87.9,0.0,u,0.0,True,1388.8999998569489,82.0,60.0,40.0,False,too_early ,3000.0,[],"[683, 384]",ColorTask_Demo,,,,,HRV,HRV_0045,2022-11-30 18:20:28
,wl-rdm,4,52129,0.0-3.0-1.0,0.0,5.0,,,,,,,[],,,,0.0,0.0,87.9,1.0,i,1.0,True,857.9000000953674,52.0,60.0,40.0,False,,2000.0,[],"[683, 384]",ColorTask_Demo,,,,,HRV,HRV_0045,2022-11-30 18:20:28
,wl-html-keyboard-response,5,56916,0.0-3.0-2.0,0.0,6.0,,,,,,,,2776.899999856949,0.0,1,,,,,,,,,,,,,,,,,,,,,,HRV,HRV_0045,2022-11-30 18:20:28
,wl-html-keyboard-response,6,68140,0.0-4.0-0.0,0.0,7.0,,,,,,,,9215.799999952316,0.0,0,,,,,,,,,,,,,,,,,,,,,,HRV,HRV_0045,2022-11-30 18:20:28
,wl-html-keyboard-response,7,76409,0.0-5.0-0.0,0.0,8.0,,,,,,,,6261.700000047684,0.0,0,,,,,,,,,,,,,,,,,,,,,,HRV,HRV_0045,2022-11-30 18:20:28
,wl-rdm,8,79005,0.0-6.0-0.0,0.0,9.0,,,,,,,[],,,,,,62.5,0.0,u,0.0,True,1221.5999999046326,74.0,60.0,40.0,False,,315.97735015782683,[],"[683, 384]",ColorTask,1.0,1.0,,,HRV,HRV_0045,2022-11-30 18:20:28
,wl-rdm,9,81038,0.0-6.1-0.1,0.0,10.0,,,,,,,[],,,,,,53.2,1.0,i,1.0,True,687.5999999046326,42.0,60.0,40.0,False,,262.51973153367993,[],"[683, 384]",ColorTask,2.0,2.0,,,HRV,HRV_0045,2022-11-30 18:20:28
,wl-rdm,10,83354,0.0-6.2-0.2,0.0,11.0,,,,,,,[],,,,,,62.5,0.0,u,0.0,True,891.5999999046326,54.0,60.0,40.0,False,,362.69152384291374,[],"[683, 384]",ColorTask,3.0,3.0,,,HRV,HRV_0045,2022-11-30 18:20:28
,wl-rdm,11,85972,0.0-6.3-0.3,0.0,12.0,,,,,,,[],,,,,,56.4,0.0,i,1.0,False,1262.5999999046326,77.0,60.0,40.0,False,,276.462522512058,[],"[683, 384]",ColorTask,2.0,4.0,,,HRV,HRV_0045,2022-11-30 18:20:28
,wl-rdm,12,88222,0.0-6.4-0.4,0.0,13.0,,,,,,,[],,,,,,56.4,1.0,i,1.0,True,845.1999998092651,51.0,60.0,40.0,False,,325.5518571284063,[],"[683, 384]",ColorTask,3.0,5.0,,,HRV,HRV_0045,2022-11-30 18:20:28
,wl-rdm,13,90236,0.0-6.5-0.5,0.0,14.0,,,,,,,[],,,,,,87.9,0.0,u,0.0,True,576.1999998092651,35.0,60.0,40.0,False,,348.7077689288091,[],"[683, 384]",ColorTask,4.0,6.0,,,HRV,HRV_0045,2022-11-30 18:20:28
,wl-rdm,14,92287,0.0-6.6-0.6,0.0,15.0,,,,,,,[],,,,,,50.0,0.0,i,1.0,False,688.2999999523163,42.0,60.0,40.0,False,,313.957100789473,[],"[683, 384]",ColorTask,3.0,7.0,,,HRV,HRV_0045,2022-11-30 18:20:28
,wl-rdm,15,94536,0.0-6.7-0.7,0.0,16.0,,,,,,,[],,,,,,53.2,0.0,u,0.0,True,788.0999999046326,48.0,60.0,40.0,False,,399.5349683954308,[],"[683, 384]",ColorTask,4.0,8.0,,,HRV,HRV_0045,2022-11-30 18:20:28
,wl-rdm,16,96586,0.0-6.8-0.8,0.0,17.0,,,,,,,[],,,,,,50.0,0.0,i,1.0,False,735.0,45.0,60.0,40.0,False,,224.99762350426866,[],"[683, 384]",ColorTask,3.0,9.0,,,HRV,HRV_0045,2022-11-30 18:20:28
,wl-rdm,17,98602,0.0-6.9-0.9,0.0,18.0,,,,,,,[],,,,,,87.9,1.0,i,1.0,True,673.2000000476837,41.0,60.0,40.0,False,,273.7361485175948,[],"[683, 384]",ColorTask,4.0,10.0,,,HRV,HRV_0045,2022-11-30 18:20:28
,wl-rdm,18,100618,0.0-6.10-0.10,0.0,19.0,,,,,,,[],,,,,,73.6,1.0,i,1.0,True,742.8999998569489,45.0,60.0,40.0,False,,213.37326074823872,[],"[683, 384]",ColorTask,5.0,11.0,,,HRV,HRV_0045,2022-11-30 18:20:28
,wl-rdm,19,103266,0.0-6.11-0.11,0.0,20.0,,,,,,,[],,,,,,56.4,0.0,u,0.0,True,1289.7999999523163,78.0,60.0,40.0,False,,284.40258044447745,[],"[683, 384]",ColorTask,6.0,12.0,,,HRV,HRV_0045,2022-11-30 18:20:28
,wl-rdm,20,105503,0.0-6.12-0.12,0.0,21.0,,,,,,,[],,,,,,53.2,1.0,u,0.0,False,802.8999998569489,49.0,60.0,40.0,False,,340.53628176705206,[],"[683, 384]",ColorTask,5.0,13.0,,,HRV,HRV_0045,2022-11-30 18:20:28
,wl-rdm,21,108451,0.0-6.13-0.13,0.0,22.0,,,,,,,[],,,,,,50.0,0.0,u,0.0,True,1561.5000002384186,94.0,60.0,40.0,False,,308.22943956626943,[],"[683, 384]",ColorTask,6.0,14.0,,,HRV,HRV_0045,2022-11-30 18:20:28
,wl-rdm,22,111033,0.0-6.14-0.14,0.0,23.0,,,,,,,[],,,,,,73.6,0.0,u,0.0,True,1260.5999999046326,76.0,60.0,40.0,False,,241.6554838686265,[],"[683, 384]",ColorTask,7.0,15.0,,,HRV,HRV_0045,2022-11-30 18:20:28
,wl-rdm,23,113350,0.0-6.15-0.15,0.0,24.0,,,,,,,[],,,,,,50.0,1.0,u,0.0,False,1020.0999999046326,62.0,60.0,40.0,False,,223.28378815927795,[],"[683, 384]",ColorTask,6.0,16.0,,,HRV,HRV_0045,2022-11-30 18:20:28
,wl-rdm,24,115749,0.0-6.16-0.16,0.0,25.0,,,,,,,[],,,,,,56.4,0.0,u,0.0,True,1051.2000000476837,63.0,60.0,40.0,False,,300.1329763719396,[],"[683, 384]",ColorTask,7.0,17.0,,,HRV,HRV_0045,2022-11-30 18:20:28
,wl-rdm,25,117765,0.0-6.17-0.17,0.0,26.0,,,,,,,[],,,,,,62.5,1.0,i,1.0,True,715.2999999523163,43.0,60.0,40.0,False,,225.39322301793322,[],"[683, 384]",ColorTask,8.0,18.0,,,HRV,HRV_0045,2022-11-30 18:20:28
,wl-rdm,26,120131,0.0-6.18-0.18,0.0,27.0,,,,,,,[],,,,,,53.2,1.0,u,0.0,False,1004.2999999523163,61.0,60.0,40.0,False,,289.573731089733,[],"[683, 384]",ColorTask,7.0,19.0,,,HRV,HRV_0045,2022-11-30 18:20:28
,wl-rdm,27,122164,0.0-6.19-0.19,0.0,28.0,,,,,,,[],,,,,,87.9,0.0,u,0.0,True,668.7000000476837,41.0,60.0,40.0,False,,267.58375575374293,[],"[683, 384]",ColorTask,8.0,20.0,,,HRV,HRV_0045,2022-11-30 18:20:28
,wl-rdm,28,124380,0.0-6.20-0.20,0.0,29.0,,,,,,,[],,,,,,73.6,0.0,u,0.0,True,825.2000000476837,50.0,60.0,40.0,False,,308.6216139117611,[],"[683, 384]",ColorTask,9.0,21.0,,,HRV,HRV_0045,2022-11-30 18:20:28
,wl-rdm,29,127080,0.0-6.21-0.21,0.0,30.0,,,,,,,[],,,,,,73.6,0.0,u,0.0,True,1254.0,76.0,60.0,40.0,False,,372.04162944530674,[],"[683, 384]",ColorTask,10.0,22.0,,,HRV,HRV_0045,2022-11-30 18:20:28
,wl-rdm,30,129116,0.0-6.22-0.22,0.0,31.0,,,,,,,[],,,,,,73.6,1.0,i,1.0,True,680.3000001907349,41.0,60.0,40.0,False,,279.51949155320057,[],"[683, 384]",ColorTask,11.0,23.0,,,HRV,HRV_0045,2022-11-30 18:20:28
,wl-rdm,31,131246,0.0-6.23-0.23,0.0,32.0,,,,,,,[],,,,,,56.4,0.0,u,0.0,True,769.4000000953674,47.0,60.0,40.0,False,,267.4128750091283,[],"[683, 384]",ColorTask,12.0,24.0,,,HRV,HRV_0045,2022-11-30 18:20:28
,wl-rdm,32,133261,0.0-6.24-0.24,0.0,33.0,,,,,,,[],,,,,,73.6,1.0,i,1.0,True,747.2999999523163,45.0,60.0,40.0,False,,201.10667088978946,[],"[683, 384]",ColorTask,13.0,25.0,,,HRV,HRV_0045,2022-11-30 18:20:28
,wl-rdm,33,135424,0.0-6.25-0.25,0.0,34.0,,,,,,,[],,,,,,50.0,0.0,u,0.0,True,755.5,46.0,60.0,40.0,False,,345.62972075857533,[],"[683, 384]",ColorTask,14.0,26.0,,,HRV,HRV_0045,2022-11-30 18:20:28
,wl-rdm,34,137457,0.0-6.26-0.26,0.0,35.0,,,,,,,[],,,,,,87.9,1.0,i,1.0,True,655.6000001430511,40.0,60.0,40.0,False,,303.73958106347845,[],"[683, 384]",ColorTask,15.0,27.0,,,HRV,HRV_0045,2022-11-30 18:20:28
,wl-rdm,35,140173,0.0-6.27-0.27,0.0,36.0,,,,,,,[],,,,,,53.2,1.0,i,1.0,True,1398.1000001430511,84.0,60.0,40.0,False,,251.49105895295529,[],"[683, 384]",ColorTask,16.0,28.0,,,HRV,HRV_0045,2022-11-30 18:20:28
,wl-rdm,36,142590,0.0-6.28-0.28,0.0,37.0,,,,,,,[],,,,,,53.2,0.0,u,0.0,True,1089.7000000476837,66.0,60.0,40.0,False,,257.18784207531854,[],"[683, 384]",ColorTask,17.0,29.0,,,HRV,HRV_0045,2022-11-30 18:20:28
,wl-rdm,37,144589,0.0-6.29-0.29,0.0,38.0,,,,,,,[],,,,,,73.6,1.0,i,1.0,True,557.3000001907349,34.0,60.0,40.0,False,,355.39639076213666,[],"[683, 384]",ColorTask,18.0,30.0,,,HRV,HRV_0045,2022-11-30 18:20:28
,wl-rdm,38,146521,0.0-6.30-0.30,0.0,39.0,,,,,,,[],,,,,,87.9,1.0,i,1.0,True,630.2000002861023,38.0,60.0,40.0,False,,220.8246897147746,[],"[683, 384]",ColorTask,19.0,31.0,,,HRV,HRV_0045,2022-11-30 18:20:28
,wl-rdm,39,148505,0.0-6.31-0.31,0.0,40.0,,,,,,,[],,,,,,62.5,1.0,i,1.0,True,592.5999999046326,36.0,60.0,40.0,False,,313.5342844768434,[],"[683, 384]",ColorTask,20.0,32.0,,,HRV,HRV_0045,2022-11-30 18:20:28
,wl-rdm,40,150571,0.0-6.32-0.32,0.0,41.0,,,,,,,[],,,,,,87.9,1.0,i,1.0,True,663.7999999523163,40.0,60.0,40.0,False,,309.8896799184727,[],"[683, 384]",ColorTask,21.0,33.0,,,HRV,HRV_0045,2022-11-30 18:20:28
,wl-rdm,41,153238,0.0-6.33-0.33,0.0,42.0,,,,,,,[],,,,,,56.4,1.0,i,1.0,True,1217.0,74.0,60.0,40.0,False,,370.16994887824796,[],"[683, 384]",ColorTask,22.0,34.0,,,HRV,HRV_0045,2022-11-30 18:20:28
,wl-rdm,42,155470,0.0-6.34-0.34,0.0,43.0,,,,,,,[],,,,,,62.5,1.0,i,1.0,True,934.7000000476837,57.0,60.0,40.0,False,,228.1588714938697,[],"[683, 384]",ColorTask,23.0,35.0,,,HRV,HRV_0045,2022-11-30 18:20:28
,wl-rdm,43,158135,0.0-6.35-0.35,0.0,44.0,,,,,,,[],,,,,,56.4,0.0,i,1.0,False,1337.1000001430511,81.0,60.0,40.0,False,,253.141233077942,[],"[683, 384]",ColorTask,22.0,36.0,,,HRV,HRV_0045,2022-11-30 18:20:28
,wl-rdm,44,160148,0.0-6.36-0.36,0.0,45.0,,,,,,,[],,,,,,62.5,1.0,i,1.0,True,673.0,41.0,60.0,40.0,False,,235.29996012709933,[],"[683, 384]",ColorTask,23.0,37.0,,,HRV,HRV_0045,2022-11-30 18:20:28
,wl-rdm,45,162552,0.0-6.37-0.37,0.0,46.0,,,,,,,[],,,,,,56.4,1.0,i,1.0,True,1037.6000001430511,63.0,60.0,40.0,False,,270.7660835524534,[],"[683, 384]",ColorTask,24.0,38.0,,,HRV,HRV_0045,2022-11-30 18:20:28
,wl-rdm,46,164438,0.0-6.38-0.38,0.0,47.0,,,,,,,[],,,,,,73.6,1.0,i,1.0,True,611.5000002384186,37.0,60.0,40.0,False,,212.80934274896714,[],"[683, 384]",ColorTask,25.0,39.0,,,HRV,HRV_0045,2022-11-30 18:20:28
,wl-rdm,47,166735,0.0-6.39-0.39,0.0,48.0,,,,,,,[],,,,,,56.4,0.0,u,0.0,True,987.2000000476837,60.0,60.0,40.0,False,,216.85240779875966,[],"[683, 384]",ColorTask,26.0,40.0,,,HRV,HRV_0045,2022-11-30 18:20:28
,wl-rdm,48,168953,0.0-6.40-0.40,0.0,49.0,,,,,,,[],,,,,,62.5,0.0,u,0.0,True,909.5999999046326,55.0,60.0,40.0,False,,225.85919909275486,[],"[683, 384]",ColorTask,27.0,41.0,,,HRV,HRV_0045,2022-11-30 18:20:28
,wl-rdm,49,170935,0.0-6.41-0.41,0.0,50.0,,,,,,,[],,,,,,87.9,0.0,u,0.0,True,596.5,36.0,60.0,40.0,False,,316.6545063614249,[],"[683, 384]",ColorTask,28.0,42.0,,,HRV,HRV_0045,2022-11-30 18:20:28
,wl-rdm,50,173351,0.0-6.42-0.42,0.0,51.0,,,,,,,[],,,,,,50.0,0.0,i,1.0,False,1004.0000002384186,61.0,60.0,40.0,False,,328.1082760731505,[],"[683, 384]",ColorTask,27.0,43.0,,,HRV,HRV_0045,2022-11-30 18:20:28
,wl-rdm,51,175301,0.0-6.43-0.43,0.0,52.0,,,,,,,[],,,,,,56.4,1.0,i,1.0,True,557.7999999523163,34.0,60.0,40.0,False,,313.5390842187677,[],"[683, 384]",ColorTask,28.0,44.0,,,HRV,HRV_0045,2022-11-30 18:20:28
,wl-rdm,52,177117,0.0-6.44-0.44,0.0,53.0,,,,,,,[],,,,,,87.9,1.0,i,1.0,True,450.59999990463257,27.0,60.0,40.0,False,,299.4004215193742,[],"[683, 384]",ColorTask,29.0,45.0,,,HRV,HRV_0045,2022-11-30 18:20:28
,wl-rdm,53,178917,0.0-6.45-0.45,0.0,54.0,,,,,,,[],,,,,,53.2,0.0,i,1.0,False,476.2000000476837,29.0,60.0,40.0,False,,241.70571736525426,[],"[683, 384]",ColorTask,28.0,46.0,,,HRV,HRV_0045,2022-11-30 18:20:28
,wl-rdm,54,180783,0.0-6.46-0.46,0.0,55.0,,,,,,,[],,,,,,56.4,1.0,i,1.0,True,526.7999999523163,32.0,60.0,40.0,False,,223.41966250244144,[],"[683, 384]",ColorTask,29.0,47.0,,,HRV,HRV_0045,2022-11-30 18:20:28
,wl-rdm,55,182752,0.0-6.47-0.47,0.0,56.0,,,,,,,[],,,,,,53.2,0.0,i,1.0,False,588.5,36.0,60.0,40.0,False,,292.9134574054793,[],"[683, 384]",ColorTask,28.0,48.0,,,HRV,HRV_0045,2022-11-30 18:20:28
,wl-rdm,56,184773,0.0-6.48-0.48,0.0,57.0,,,,,,,[],,,,,,56.4,1.0,i,1.0,True,552.0,34.0,60.0,40.0,False,,384.9532983228405,[],"[683, 384]",ColorTask,29.0,49.0,,,HRV,HRV_0045,2022-11-30 18:20:28
,wl-rdm,57,186698,0.0-6.49-0.49,0.0,58.0,,,,,,,[],,,,,,87.9,0.0,u,0.0,True,530.3999998569489,32.0,60.0,40.0,False,,288.85953126352183,[],"[683, 384]",ColorTask,30.0,50.0,,,HRV,HRV_0045,2022-11-30 18:20:28
,wl-rdm,58,188681,0.0-6.50-0.50,0.0,59.0,,,,,,,[],,,,,,53.2,0.0,i,1.0,False,674.9000000953674,40.0,60.0,40.0,False,,248.6845501882683,[],"[683, 384]",ColorTask,29.0,51.0,,,HRV,HRV_0045,2022-11-30 18:20:28
,wl-rdm,59,190786,0.0-6.51-0.51,0.0,60.0,,,,,,,[],,,,,,50.0,1.0,u,0.0,False,654.2999999523163,40.0,60.0,40.0,False,,368.47051509874166,[],"[683, 384]",ColorTask,28.0,52.0,,,HRV,HRV_0045,2022-11-30 18:20:28
,wl-rdm,60,192798,0.0-6.52-0.52,0.0,61.0,,,,,,,[],,,,,,53.2,1.0,i,1.0,True,725.1000001430511,44.0,60.0,40.0,False,,219.7883516701852,[],"[683, 384]",ColorTask,29.0,53.0,,,HRV,HRV_0045,2022-11-30 18:20:28
,wl-rdm,61,194825,0.0-6.53-0.53,0.0,62.0,,,,,,,[],,,,,,62.5,0.0,u,0.0,True,757.1999998092651,46.0,60.0,40.0,False,,205.58847562419075,[],"[683, 384]",ColorTask,30.0,54.0,,,HRV,HRV_0045,2022-11-30 18:20:28
,wl-rdm,62,196675,0.0-6.54-0.54,0.0,63.0,,,,,,,[],,,,,,87.9,0.0,u,0.0,True,537.0999999046326,33.0,60.0,40.0,False,,230.65863859023497,[],"[683, 384]",ColorTask,31.0,55.0,,,HRV,HRV_0045,2022-11-30 18:20:28
,wl-rdm,63,199041,0.0-6.55-0.55,0.0,64.0,,,,,,,[],,,,,,62.5,0.0,u,0.0,True,977.4000000953674,59.0,60.0,40.0,False,,326.21760233883197,[],"[683, 384]",ColorTask,32.0,56.0,,,HRV,HRV_0045,2022-11-30 18:20:28
,wl-rdm,64,201007,0.0-6.56-0.56,0.0,65.0,,,,,,,[],,,,,,62.5,1.0,i,1.0,True,538.1000001430511,33.0,60.0,40.0,False,,347.7868225003946,[],"[683, 384]",ColorTask,33.0,57.0,,,HRV,HRV_0045,2022-11-30 18:20:28
,wl-rdm,65,203157,0.0-6.57-0.57,0.0,66.0,,,,,,,[],,,,,,73.6,0.0,u,0.0,True,760.7000000476837,46.0,60.0,40.0,False,,307.27373479322034,[],"[683, 384]",ColorTask,34.0,58.0,,,HRV,HRV_0045,2022-11-30 18:20:28
,wl-rdm,66,205324,0.0-6.58-0.58,0.0,67.0,,,,,,,[],,,,,,53.2,1.0,u,0.0,False,890.2000000476837,54.0,60.0,40.0,False,,202.8898409362162,[],"[683, 384]",ColorTask,33.0,59.0,,,HRV,HRV_0045,2022-11-30 18:20:28
,wl-rdm,67,207260,0.0-6.59-0.59,0.0,68.0,,,,,,,[],,,,,,53.2,1.0,i,1.0,True,628.7999999523163,38.0,60.0,40.0,False,,228.31282457459332,[],"[683, 384]",ColorTask,34.0,60.0,,,HRV,HRV_0045,2022-11-30 18:20:28
,wl-rdm,68,209189,0.0-6.60-0.60,0.0,69.0,,,,,,,[],,,,,,53.2,0.0,i,1.0,False,474.80000019073486,29.0,60.0,40.0,False,,394.7919214250054,[],"[683, 384]",ColorTask,33.0,61.0,,,HRV,HRV_0045,2022-11-30 18:20:28
,wl-rdm,69,211006,0.0-6.61-0.61,0.0,70.0,,,,,,,[],,,,,,87.9,0.0,u,0.0,True,522.2999999523163,32.0,60.0,40.0,False,,209.3173065134522,[],"[683, 384]",ColorTask,34.0,62.0,,,HRV,HRV_0045,2022-11-30 18:20:28
,wl-rdm,70,212906,0.0-6.62-0.62,0.0,71.0,,,,,,,[],,,,,,73.6,1.0,i,1.0,True,620.3000001907349,37.0,60.0,40.0,False,,203.26073480415366,[],"[683, 384]",ColorTask,35.0,63.0,,,HRV,HRV_0045,2022-11-30 18:20:28
,wl-rdm,71,215605,0.0-6.63-0.63,0.0,72.0,,,,,,,[],,,,,,62.5,0.0,i,1.0,False,1222.5,74.0,60.0,40.0,False,,387.12398154532707,[],"[683, 384]",ColorTask,34.0,64.0,,,HRV,HRV_0045,2022-11-30 18:20:28
,wl-rdm,72,217604,0.0-6.64-0.64,0.0,73.0,,,,,,,[],,,,,,56.4,0.0,i,1.0,False,589.7999999523163,36.0,60.0,40.0,False,,327.76776227237724,[],"[683, 384]",ColorTask,33.0,65.0,,,HRV,HRV_0045,2022-11-30 18:20:28
,wl-rdm,73,220307,0.0-6.65-0.65,0.0,74.0,,,,,,,[],,,,,,50.0,1.0,i,1.0,True,1405.8999998569489,85.0,60.0,40.0,False,,203.80369203259812,[],"[683, 384]",ColorTask,34.0,66.0,,,HRV,HRV_0045,2022-11-30 18:20:28
,wl-rdm,74,222987,0.0-6.66-0.66,0.0,75.0,,,,,,,[],,,,,,53.2,1.0,i,1.0,True,1305.4999997615814,79.0,60.0,40.0,False,,289.30885944878617,[],"[683, 384]",ColorTask,35.0,67.0,,,HRV,HRV_0045,2022-11-30 18:20:28
,wl-rdm,75,225336,0.0-6.67-0.67,0.0,76.0,,,,,,,[],,,,,,62.5,0.0,u,0.0,True,1009.7999999523163,61.0,60.0,40.0,False,,272.175289069877,[],"[683, 384]",ColorTask,36.0,68.0,,,HRV,HRV_0045,2022-11-30 18:20:28
,wl-rdm,76,227319,0.0-6.68-0.68,0.0,77.0,,,,,,,[],,,,,,53.2,0.0,i,1.0,False,623.0,38.0,60.0,40.0,False,,282.518615636453,[],"[683, 384]",ColorTask,35.0,69.0,,,HRV,HRV_0045,2022-11-30 18:20:28
,wl-rdm,77,229919,0.0-6.69-0.69,0.0,78.0,,,,,,,[],,,,,,50.0,1.0,u,0.0,False,1271.8999998569489,77.0,60.0,40.0,False,,245.04452665820628,[],"[683, 384]",ColorTask,34.0,70.0,,,HRV,HRV_0045,2022-11-30 18:20:28
,wl-rdm,78,232552,0.0-6.70-0.70,0.0,79.0,,,,,,,[],,,,,,53.2,0.0,u,0.0,True,1155.7000000476837,70.0,60.0,40.0,False,,398.8168100284443,[],"[683, 384]",ColorTask,35.0,71.0,,,HRV,HRV_0045,2022-11-30 18:20:28
,wl-rdm,79,234868,0.0-6.71-0.71,0.0,80.0,,,,,,,[],,,,,,50.0,0.0,i,1.0,False,1004.0,61.0,60.0,40.0,False,,228.47346225026786,[],"[683, 384]",ColorTask,34.0,72.0,,,HRV,HRV_0045,2022-11-30 18:20:28
,wl-rdm,80,237100,0.0-6.72-0.72,0.0,81.0,,,,,,,[],,,,,,50.0,0.0,i,1.0,False,901.2000000476837,54.0,60.0,40.0,False,,237.8567711099172,[],"[683, 384]",ColorTask,33.0,73.0,,,HRV,HRV_0045,2022-11-30 18:20:28
,wl-rdm,81,239167,0.0-6.73-0.73,0.0,82.0,,,,,,,[],,,,,,56.4,1.0,i,1.0,True,597.5,36.0,60.0,40.0,False,,399.239885529397,[],"[683, 384]",ColorTask,34.0,74.0,,,HRV,HRV_0045,2022-11-30 18:20:28
,wl-rdm,82,241584,0.0-6.74-0.74,0.0,83.0,,,,,,,[],,,,,,50.0,0.0,i,1.0,False,1111.1999998092651,67.0,60.0,40.0,False,,218.3826098425233,[],"[683, 384]",ColorTask,33.0,75.0,,,HRV,HRV_0045,2022-11-30 18:20:28
,wl-rdm,83,244316,0.0-6.75-0.75,0.0,84.0,,,,,,,[],,,,,,50.0,1.0,i,1.0,True,1464.5,88.0,60.0,40.0,False,,201.59794899152752,[],"[683, 384]",ColorTask,34.0,76.0,,,HRV,HRV_0045,2022-11-30 18:20:28
,wl-rdm,84,247082,0.0-6.76-0.76,0.0,85.0,,,,,,,[],,,,,,50.0,1.0,i,1.0,True,1356.1000001430511,82.0,60.0,40.0,False,,315.7755469722673,[],"[683, 384]",ColorTask,35.0,77.0,,,HRV,HRV_0045,2022-11-30 18:20:28
,wl-rdm,85,249049,0.0-6.77-0.77,0.0,86.0,,,,,,,[],,,,,,87.9,1.0,i,1.0,True,524.3999998569489,32.0,60.0,40.0,False,,380.24438995059876,[],"[683, 384]",ColorTask,36.0,78.0,,,HRV,HRV_0045,2022-11-30 18:20:28
,wl-rdm,86,251482,0.0-6.78-0.78,0.0,87.0,,,,,,,[],,,,,,73.6,0.0,u,0.0,True,1138.3999998569489,69.0,60.0,40.0,False,,210.52239883336756,[],"[683, 384]",ColorTask,37.0,79.0,,,HRV,HRV_0045,2022-11-30 18:20:28
,wl-rdm,87,253298,0.0-6.79-0.79,0.0,88.0,,,,,,,[],,,,,,87.9,0.0,u,0.0,True,524.5,32.0,60.0,40.0,False,,215.926724571542,[],"[683, 384]",ColorTask,38.0,80.0,,,HRV,HRV_0045,2022-11-30 18:20:28
,wl-rdm,88,255329,0.0-6.80-0.80,0.0,89.0,,,,,,,[],,,,,,50.0,1.0,i,1.0,True,671.3000001907349,41.0,60.0,40.0,False,,291.0212026843905,[],"[683, 384]",ColorTask,39.0,81.0,,,HRV,HRV_0045,2022-11-30 18:20:28
,wl-rdm,89,257877,0.0-6.81-0.81,0.0,90.0,,,,,,,[],,,,,,53.2,1.0,i,1.0,True,1248.5999999046326,75.0,60.0,40.0,False,,240.03318842393932,[],"[683, 384]",ColorTask,40.0,82.0,,,HRV,HRV_0045,2022-11-30 18:20:28
,wl-rdm,90,260045,0.0-6.82-0.82,0.0,91.0,,,,,,,[],,,,,,73.6,0.0,u,0.0,True,737.6000001430511,45.0,60.0,40.0,False,,352.69983675869355,[],"[683, 384]",ColorTask,41.0,83.0,,,HRV,HRV_0045,2022-11-30 18:20:28
,wl-rdm,91,262111,0.0-6.83-0.83,0.0,92.0,,,,,,,[],,,,,,87.9,1.0,i,1.0,True,679.7999999523163,41.0,60.0,40.0,False,,315.4850905102461,[],"[683, 384]",ColorTask,42.0,84.0,,,HRV,HRV_0045,2022-11-30 18:20:28
,wl-rdm,92,264944,0.0-6.84-0.84,0.0,93.0,,,,,,,[],,,,,,50.0,0.0,i,1.0,False,1358.6999998092651,82.0,60.0,40.0,False,,390.0625674509543,[],"[683, 384]",ColorTask,41.0,85.0,,,HRV,HRV_0045,2022-11-30 18:20:28
,wl-rdm,93,267027,0.0-6.85-0.85,0.0,94.0,,,,,,,[],,,,,,73.6,1.0,i,1.0,True,642.1999998092651,39.0,60.0,40.0,False,,354.60939972147696,[],"[683, 384]",ColorTask,42.0,86.0,,,HRV,HRV_0045,2022-11-30 18:20:28
,wl-rdm,94,268876,0.0-6.86-0.86,0.0,95.0,,,,,,,[],,,,,,73.6,1.0,i,1.0,True,471.7000000476837,29.0,60.0,40.0,False,,303.32640024292596,[],"[683, 384]",ColorTask,43.0,87.0,,,HRV,HRV_0045,2022-11-30 18:20:28
,wl-rdm,95,270777,0.0-6.87-0.87,0.0,96.0,,,,,,,[],,,,,,87.9,0.0,u,0.0,True,538.4000000953674,33.0,60.0,40.0,False,,271.1928944199672,[],"[683, 384]",ColorTask,44.0,88.0,,,HRV,HRV_0045,2022-11-30 18:20:28
,wl-rdm,96,272726,0.0-6.88-0.88,0.0,97.0,,,,,,,[],,,,,,87.9,0.0,u,0.0,True,610.9000000953674,37.0,60.0,40.0,False,,281.74404874776474,[],"[683, 384]",ColorTask,45.0,89.0,,,HRV,HRV_0045,2022-11-30 18:20:28
,wl-rdm,97,275276,0.0-6.89-0.89,0.0,98.0,,,,,,,[],,,,,,50.0,1.0,u,0.0,False,1076.7999999523163,65.0,60.0,40.0,False,,393.0339223427352,[],"[683, 384]",ColorTask,44.0,90.0,,,HRV,HRV_0045,2022-11-30 18:20:28
,wl-rdm,98,277809,0.0-6.90-0.90,0.0,99.0,,,,,,,[],,,,,,73.6,0.0,u,0.0,True,1263.9000000953674,76.0,60.0,40.0,False,,209.84838583698246,[],"[683, 384]",ColorTask,45.0,91.0,,,HRV,HRV_0045,2022-11-30 18:20:28
,wl-rdm,99,280390,0.0-6.91-0.91,0.0,100.0,,,,,,,[],,,,,,62.5,0.0,u,0.0,True,1216.9000000953674,74.0,60.0,40.0,False,,279.54757812613764,[],"[683, 384]",ColorTask,46.0,92.0,,,HRV,HRV_0045,2022-11-30 18:20:28
,wl-rdm,100,282273,0.0-6.92-0.92,0.0,101.0,,,,,,,[],,,,,,62.5,1.0,i,1.0,True,515.1000001430511,31.0,60.0,40.0,False,,300.1721935222673,[],"[683, 384]",ColorTask,47.0,93.0,,,HRV,HRV_0045,2022-11-30 18:20:28
,wl-rdm,101,284191,0.0-6.93-0.93,0.0,102.0,,,,,,,[],,,,,,56.4,1.0,i,1.0,True,447.7999999523163,27.0,60.0,40.0,False,,394.78999244595894,[],"[683, 384]",ColorTask,48.0,94.0,,,HRV,HRV_0045,2022-11-30 18:20:28
,wl-rdm,102,285957,0.0-6.94-0.94,0.0,103.0,,,,,,,[],,,,,,87.9,1.0,i,1.0,True,486.40000009536743,30.0,60.0,40.0,False,,208.38928215889302,[],"[683, 384]",ColorTask,49.0,95.0,,,HRV,HRV_0045,2022-11-30 18:20:28
,wl-rdm,103,287890,0.0-6.95-0.95,0.0,104.0,,,,,,,[],,,,,,62.5,1.0,i,1.0,True,647.7999999523163,39.0,60.0,40.0,False,,200.88006002298678,[],"[683, 384]",ColorTask,50.0,96.0,,,HRV,HRV_0045,2022-11-30 18:20:28
,wl-rdm,104,289773,0.0-6.96-0.96,0.0,105.0,,,,,,,[],,,,,,87.9,1.0,i,1.0,True,489.60000014305115,30.0,60.0,40.0,False,,316.9649423479863,[],"[683, 384]",ColorTask,51.0,97.0,,,HRV,HRV_0045,2022-11-30 18:20:28
,wl-rdm,105,292556,0.0-6.97-0.97,0.0,106.0,,,,,,,[],,,,,,62.5,1.0,u,0.0,False,1309.7999997138977,79.0,60.0,40.0,False,,382.9996665770533,[],"[683, 384]",ColorTask,50.0,98.0,,,HRV,HRV_0045,2022-11-30 18:20:28
,wl-rdm,106,295139,0.0-6.98-0.98,0.0,107.0,,,,,,,[],,,,,,56.4,0.0,u,0.0,True,1180.5999999046326,71.0,60.0,40.0,False,,324.43338172884893,[],"[683, 384]",ColorTask,51.0,99.0,,,HRV,HRV_0045,2022-11-30 18:20:28
,wl-rdm,107,297122,0.0-6.99-0.99,0.0,108.0,,,,,,,[],,,,,,62.5,0.0,u,0.0,True,610.5,37.0,60.0,40.0,False,,313.5755841762391,[],"[683, 384]",ColorTask,52.0,100.0,,,HRV,HRV_0045,2022-11-30 18:20:28
,wl-rdm,108,299238,0.0-6.100-0.100,0.0,109.0,,,,,,,[],,,,,,73.6,0.0,u,0.0,True,732.5,44.0,60.0,40.0,False,,310.46352703507586,[],"[683, 384]",ColorTask,53.0,101.0,,,HRV,HRV_0045,2022-11-30 18:20:28
,wl-rdm,109,301404,0.0-6.101-0.101,0.0,110.0,,,,,,,[],,,,,,50.0,1.0,u,0.0,False,890.2999999523163,54.0,60.0,40.0,False,,208.41624260710785,[],"[683, 384]",ColorTask,52.0,102.0,,,HRV,HRV_0045,2022-11-30 18:20:28
,wl-rdm,110,303256,0.0-6.102-0.102,0.0,111.0,,,,,,,[],,,,,,62.5,1.0,i,1.0,True,573.5,35.0,60.0,40.0,False,,212.76174845094084,[],"[683, 384]",ColorTask,53.0,103.0,,,HRV,HRV_0045,2022-11-30 18:20:28
,wl-rdm,111,306003,0.0-6.103-0.103,0.0,112.0,,,,,,,[],,,,,,53.2,0.0,u,0.0,True,1377.2999999523163,83.0,60.0,40.0,False,,298.51027394493434,[],"[683, 384]",ColorTask,54.0,104.0,,,HRV,HRV_0045,2022-11-30 18:20:28
,wl-rdm,112,308102,0.0-6.104-0.104,0.0,113.0,,,,,,,[],,,,,,73.6,0.0,u,0.0,True,771.0,47.0,60.0,40.0,False,,248.64276625105975,[],"[683, 384]",ColorTask,55.0,105.0,,,HRV,HRV_0045,2022-11-30 18:20:28
,wl-rdm,113,310069,0.0-6.105-0.105,0.0,114.0,,,,,,,[],,,,,,73.6,1.0,i,1.0,True,659.4000000953674,40.0,60.0,40.0,False,,232.0176984397189,[],"[683, 384]",ColorTask,56.0,106.0,,,HRV,HRV_0045,2022-11-30 18:20:28
,wl-rdm,114,312053,0.0-6.106-0.106,0.0,115.0,,,,,,,[],,,,,,56.4,0.0,u,0.0,True,672.5,41.0,60.0,40.0,False,,248.74558063281125,[],"[683, 384]",ColorTask,57.0,107.0,,,HRV,HRV_0045,2022-11-30 18:20:28
,wl-rdm,115,314035,0.0-6.107-0.107,0.0,116.0,,,,,,,[],,,,,,56.4,1.0,i,1.0,True,627.900000333786,38.0,60.0,40.0,False,,256.1409077654648,[],"[683, 384]",ColorTask,58.0,108.0,,,HRV,HRV_0045,2022-11-30 18:20:28
,wl-html-keyboard-response,116,604679,0.0-7.0-0.0,1.0,116.0,,,,,,,,288648.0,1.0,0,,,,,,,,,,,,True,undefinedblurEvent ,,,,,,,,,HRV,HRV_0045,2022-11-30 18:20:28
,wl-rdm,117,606653,0.0-8.0-0.0,1.0,117.0,,,,,,,[],,,,,,87.9,1.0,i,1.0,True,604.2000000476837,37.0,60.0,40.0,False,,268.38091163490105,[],"[683, 384]",ColorTask,59.0,1.0,,,HRV,HRV_0045,2022-11-30 18:20:28
,wl-rdm,118,608469,0.0-8.1-0.1,1.0,118.0,,,,,,,[],,,,,,53.2,0.0,i,1.0,False,488.09999990463257,30.0,60.0,40.0,False,,239.9698322917984,[],"[683, 384]",ColorTask,58.0,2.0,,,HRV,HRV_0045,2022-11-30 18:20:28
,wl-rdm,119,610418,0.0-8.2-0.2,1.0,119.0,,,,,,,[],,,,,,87.9,0.0,u,0.0,True,517.0,31.0,60.0,40.0,False,,364.82303779322484,[],"[683, 384]",ColorTask,59.0,3.0,,,HRV,HRV_0045,2022-11-30 18:20:28
,wl-rdm,120,612352,0.0-8.3-0.3,1.0,120.0,,,,,,,[],,,,,,62.5,0.0,i,1.0,False,566.7999999523163,34.0,60.0,40.0,False,,299.863197711327,[],"[683, 384]",ColorTask,58.0,4.0,,,HRV,HRV_0045,2022-11-30 18:20:28
,wl-rdm,121,614302,0.0-8.4-0.4,1.0,121.0,,,,,,,[],,,,,,73.6,1.0,i,1.0,True,487.10000014305115,30.0,60.0,40.0,False,,373.75747604385776,[],"[683, 384]",ColorTask,59.0,5.0,,,HRV,HRV_0045,2022-11-30 18:20:28
,wl-rdm,122,616201,0.0-8.5-0.5,1.0,122.0,,,,,,,[],,,,,,87.9,0.0,u,0.0,True,528.6999998092651,32.0,60.0,40.0,False,,296.05609273237184,[],"[683, 384]",ColorTask,60.0,6.0,,,HRV,HRV_0045,2022-11-30 18:20:28
,wl-rdm,123,619111,0.0-8.6-0.6,1.0,123.0,,,,,,,[],,,,,,53.2,1.0,i,1.0,True,1648.3999998569489,99.0,60.0,40.0,False,,206.57503989442546,[],"[683, 384]",ColorTask,61.0,7.0,,,HRV,HRV_0045,2022-11-30 18:20:28
,wl-rdm,124,621027,0.0-8.7-0.7,1.0,124.0,,,,,,,[],,,,,,87.9,0.0,u,0.0,True,571.8999998569489,35.0,60.0,40.0,False,,252.17306288995823,[],"[683, 384]",ColorTask,62.0,8.0,,,HRV,HRV_0045,2022-11-30 18:20:28
,wl-rdm,125,623860,0.0-8.8-0.8,1.0,125.0,,,,,,,[],,,,,,56.4,0.0,i,1.0,False,1392.2000000476837,84.0,60.0,40.0,False,,367.25347184651775,[],"[683, 384]",ColorTask,61.0,9.0,,,HRV,HRV_0045,2022-11-30 18:20:28
,wl-rdm,126,626210,0.0-8.9-0.9,1.0,126.0,,,,,,,[],,,,,,56.4,0.0,i,1.0,False,955.6000001430511,58.0,60.0,40.0,False,,312.0001001113551,[],"[683, 384]",ColorTask,60.0,10.0,,,HRV,HRV_0045,2022-11-30 18:20:28
,wl-rdm,127,628110,0.0-8.10-0.10,1.0,127.0,,,,,,,[],,,,,,50.0,1.0,i,1.0,True,573.2000000476837,35.0,60.0,40.0,False,,237.14111262689784,[],"[683, 384]",ColorTask,61.0,11.0,,,HRV,HRV_0045,2022-11-30 18:20:28
,wl-rdm,128,630126,0.0-8.11-0.11,1.0,128.0,,,,,,,[],,,,,,87.9,0.0,u,0.0,True,593.5,36.0,60.0,40.0,False,,339.42290258351295,[],"[683, 384]",ColorTask,62.0,12.0,,,HRV,HRV_0045,2022-11-30 18:20:28
,wl-rdm,129,632509,0.0-8.12-0.12,1.0,129.0,,,,,,,[],,,,,,62.5,0.0,u,0.0,True,1000.4000000953674,60.0,60.0,40.0,False,,309.53079590072593,[],"[683, 384]",ColorTask,63.0,13.0,,,HRV,HRV_0045,2022-11-30 18:20:28
,wl-rdm,130,634750,0.0-8.13-0.13,1.0,130.0,,,,,,,[],,,,,,62.5,1.0,i,1.0,True,941.7999997138977,57.0,60.0,40.0,False,,214.99373919403166,[],"[683, 384]",ColorTask,64.0,14.0,,,HRV,HRV_0045,2022-11-30 18:20:28
,wl-rdm,131,636908,0.0-8.14-0.14,1.0,131.0,,,,,,,[],,,,,,62.5,0.0,u,0.0,True,871.0,53.0,60.0,40.0,False,,207.2464543682006,[],"[683, 384]",ColorTask,65.0,15.0,,,HRV,HRV_0045,2022-11-30 18:20:28
,wl-rdm,132,638974,0.0-8.15-0.15,1.0,132.0,,,,,,,[],,,,,,53.2,0.0,i,1.0,False,744.5999999046326,45.0,60.0,40.0,False,,246.06773883439385,[],"[683, 384]",ColorTask,64.0,16.0,,,HRV,HRV_0045,2022-11-30 18:20:28
,wl-rdm,133,641442,0.0-8.16-0.16,1.0,133.0,,,,,,,[],,,,,,73.6,0.0,u,0.0,True,1058.8999998569489,64.0,60.0,40.0,False,,338.47600461955545,[],"[683, 384]",ColorTask,65.0,17.0,,,HRV,HRV_0045,2022-11-30 18:20:28
,wl-rdm,134,643343,0.0-8.17-0.17,1.0,134.0,,,,,,,[],,,,,,62.5,1.0,i,1.0,True,555.8000001907349,34.0,60.0,40.0,False,,278.60115713280265,[],"[683, 384]",ColorTask,66.0,18.0,,,HRV,HRV_0045,2022-11-30 18:20:28
,wl-rdm,135,645390,0.0-8.18-0.18,1.0,135.0,,,,,,,[],,,,,,87.9,0.0,u,0.0,True,577.5,35.0,60.0,40.0,False,,386.31459648879724,[],"[683, 384]",ColorTask,67.0,19.0,,,HRV,HRV_0045,2022-11-30 18:20:28
,wl-rdm,136,647273,0.0-8.19-0.19,1.0,136.0,,,,,,,[],,,,,,87.9,1.0,i,1.0,True,589.3000001907349,36.0,60.0,40.0,False,,207.71919739212564,[],"[683, 384]",ColorTask,68.0,20.0,,,HRV,HRV_0045,2022-11-30 18:20:28
,wl-rdm,137,649773,0.0-8.20-0.20,1.0,137.0,,,,,,,[],,,,,,50.0,0.0,i,1.0,False,1058.8000001907349,64.0,60.0,40.0,False,,380.098441438043,[],"[683, 384]",ColorTask,67.0,21.0,,,HRV,HRV_0045,2022-11-30 18:20:28
,wl-rdm,138,651722,0.0-8.21-0.21,1.0,138.0,,,,,,,[],,,,,,73.6,1.0,i,1.0,True,606.8999998569489,37.0,60.0,40.0,False,,256.6632155525929,[],"[683, 384]",ColorTask,68.0,22.0,,,HRV,HRV_0045,2022-11-30 18:20:28
,wl-rdm,139,654238,0.0-8.22-0.22,1.0,139.0,,,,,,,[],,,,,,73.6,0.0,u,0.0,True,1066.8999998569489,64.0,60.0,40.0,False,,371.1367058880121,[],"[683, 384]",ColorTask,69.0,23.0,,,HRV,HRV_0045,2022-11-30 18:20:28
,wl-rdm,140,656723,0.0-8.23-0.23,1.0,140.0,,,,,,,[],,,,,,53.2,1.0,i,1.0,True,1154.7000002861023,70.0,60.0,40.0,False,,252.53569633512225,[],"[683, 384]",ColorTask,70.0,24.0,,,HRV,HRV_0045,2022-11-30 18:20:28
,wl-rdm,141,658955,0.0-8.24-0.24,1.0,141.0,,,,,,,[],,,,,,53.2,1.0,i,1.0,True,941.9000000953674,57.0,60.0,40.0,False,,210.9573388937395,[],"[683, 384]",ColorTask,71.0,25.0,,,HRV,HRV_0045,2022-11-30 18:20:28
,wl-rdm,142,661471,0.0-8.25-0.25,1.0,142.0,,,,,,,[],,,,,,50.0,0.0,i,1.0,False,1072.2000000476837,65.0,60.0,40.0,False,,352.7676880207636,[],"[683, 384]",ColorTask,70.0,26.0,,,HRV,HRV_0045,2022-11-30 18:20:28
,wl-rdm,143,663887,0.0-8.26-0.26,1.0,143.0,,,,,,,[],,,,,,87.9,0.0,u,0.0,True,1103.5999999046326,67.0,60.0,40.0,False,,239.10731121597368,[],"[683, 384]",ColorTask,71.0,27.0,,,HRV,HRV_0045,2022-11-30 18:20:28
,wl-rdm,144,666120,0.0-8.27-0.27,1.0,144.0,,,,,,,[],,,,,,62.5,0.0,i,1.0,False,946.9999997615814,57.0,60.0,40.0,False,,217.4640238902684,[],"[683, 384]",ColorTask,70.0,28.0,,,HRV,HRV_0045,2022-11-30 18:20:28
,wl-rdm,145,668053,0.0-8.28-0.28,1.0,145.0,,,,,,,[],,,,,,50.0,1.0,i,1.0,True,505.0000002384186,31.0,60.0,40.0,False,,347.2626335353394,[],"[683, 384]",ColorTask,71.0,29.0,,,HRV,HRV_0045,2022-11-30 18:20:28
,wl-rdm,146,670619,0.0-8.29-0.29,1.0,146.0,,,,,,,[],,,,,,53.2,1.0,i,1.0,True,1222.8000001907349,74.0,60.0,40.0,False,,258.7001655184038,[],"[683, 384]",ColorTask,72.0,30.0,,,HRV,HRV_0045,2022-11-30 18:20:28
,wl-rdm,147,672519,0.0-8.30-0.30,1.0,147.0,,,,,,,[],,,,,,73.6,1.0,i,1.0,True,475.7999999523163,29.0,60.0,40.0,False,,336.6350273613742,[],"[683, 384]",ColorTask,73.0,31.0,,,HRV,HRV_0045,2022-11-30 18:20:28
,wl-rdm,148,674318,0.0-8.31-0.31,1.0,148.0,,,,,,,[],,,,,,50.0,1.0,i,1.0,True,503.59999990463257,31.0,60.0,40.0,False,,207.58923591399733,[],"[683, 384]",ColorTask,74.0,32.0,,,HRV,HRV_0045,2022-11-30 18:20:28
,wl-rdm,149,676169,0.0-8.32-0.32,1.0,149.0,,,,,,,[],,,,,,50.0,0.0,i,1.0,False,506.10000014305115,31.0,60.0,40.0,False,,255.22004043857646,[],"[683, 384]",ColorTask,73.0,33.0,,,HRV,HRV_0045,2022-11-30 18:20:28
,wl-rdm,150,678068,0.0-8.33-0.33,1.0,150.0,,,,,,,[],,,,,,62.5,1.0,i,1.0,True,583.0,35.0,60.0,40.0,False,,245.58205564645937,[],"[683, 384]",ColorTask,74.0,34.0,,,HRV,HRV_0045,2022-11-30 18:20:28
,wl-rdm,151,680409,0.0-8.34-0.34,1.0,151.0,,,,,,,[],,,,,,53.2,0.0,u,0.0,True,945.0,57.0,60.0,40.0,False,,341.27989244617925,[],"[683, 384]",ColorTask,75.0,35.0,,,HRV,HRV_0045,2022-11-30 18:20:28
,wl-rdm,152,683158,0.0-8.35-0.35,1.0,152.0,,,,,,,[],,,,,,73.6,1.0,i,1.0,True,1375.0999999046326,83.0,60.0,40.0,False,,297.70397489938944,[],"[683, 384]",ColorTask,76.0,36.0,,,HRV,HRV_0045,2022-11-30 18:20:28
,wl-rdm,153,685358,0.0-8.36-0.36,1.0,153.0,,,,,,,[],,,,,,53.2,1.0,i,1.0,True,921.8999998569489,56.0,60.0,40.0,False,,217.36306768329484,[],"[683, 384]",ColorTask,77.0,37.0,,,HRV,HRV_0045,2022-11-30 18:20:28
,wl-rdm,154,687824,0.0-8.37-0.37,1.0,154.0,,,,,,,[],,,,,,50.0,0.0,i,1.0,False,1176.2999999523163,71.0,60.0,40.0,False,,210.88882949831412,[],"[683, 384]",ColorTask,76.0,38.0,,,HRV,HRV_0045,2022-11-30 18:20:28
,wl-rdm,155,690272,0.0-8.38-0.38,1.0,155.0,,,,,,,[],,,,,,53.2,1.0,i,1.0,True,1120.7999999523163,68.0,60.0,40.0,False,,255.2199310795124,[],"[683, 384]",ColorTask,77.0,39.0,,,HRV,HRV_0045,2022-11-30 18:20:28
,wl-rdm,156,692606,0.0-8.39-0.39,1.0,156.0,,,,,,,[],,,,,,50.0,0.0,i,1.0,False,870.900000333786,53.0,60.0,40.0,False,,370.0353499759491,[],"[683, 384]",ColorTask,76.0,40.0,,,HRV,HRV_0045,2022-11-30 18:20:28
,wl-rdm,157,694889,0.0-8.40-0.40,1.0,157.0,,,,,,,[],,,,,,53.2,0.0,u,0.0,True,898.5999999046326,54.0,60.0,40.0,False,,304.6274930596461,[],"[683, 384]",ColorTask,77.0,41.0,,,HRV,HRV_0045,2022-11-30 18:20:28
,wl-rdm,158,697405,0.0-8.41-0.41,1.0,158.0,,,,,,,[],,,,,,73.6,0.0,u,0.0,True,1067.4000000953674,65.0,60.0,40.0,False,,364.14526034246813,[],"[683, 384]",ColorTask,78.0,42.0,,,HRV,HRV_0045,2022-11-30 18:20:28
,wl-rdm,159,700041,0.0-8.42-0.42,1.0,159.0,,,,,,,[],,,,,,62.5,1.0,i,1.0,True,1309.0999999046326,79.0,60.0,40.0,False,,255.7795800263548,[],"[683, 384]",ColorTask,79.0,43.0,,,HRV,HRV_0045,2022-11-30 18:20:28
,wl-rdm,160,702439,0.0-8.43-0.43,1.0,160.0,,,,,,,[],,,,,,87.9,0.0,u,0.0,True,938.7999999523163,57.0,60.0,40.0,False,,379.7940032435773,[],"[683, 384]",ColorTask,80.0,44.0,,,HRV,HRV_0045,2022-11-30 18:20:28
,wl-rdm,161,704538,0.0-8.44-0.44,1.0,161.0,,,,,,,[],,,,,,87.9,1.0,i,1.0,True,741.0,45.0,60.0,40.0,False,,298.19726998066346,[],"[683, 384]",ColorTask,81.0,45.0,,,HRV,HRV_0045,2022-11-30 18:20:28
,wl-rdm,162,707521,0.0-8.45-0.45,1.0,162.0,,,,,,,[],,,,,,50.0,0.0,i,1.0,False,1586.8999998569489,96.0,60.0,40.0,False,,327.96576770781957,[],"[683, 384]",ColorTask,80.0,46.0,,,HRV,HRV_0045,2022-11-30 18:20:28
,wl-rdm,163,710271,0.0-8.46-0.46,1.0,163.0,,,,,,,[],,,,,,73.6,0.0,u,0.0,True,1420.0999999046326,86.0,60.0,40.0,False,,247.15978179857044,[],"[683, 384]",ColorTask,81.0,47.0,,,HRV,HRV_0045,2022-11-30 18:20:28
,wl-rdm,164,713219,0.0-8.47-0.47,1.0,164.0,,,,,,,[],,,,,,50.0,0.0,i,1.0,False,1538.1999998092651,93.0,60.0,40.0,False,,323.6117636685068,[],"[683, 384]",ColorTask,80.0,48.0,,,HRV,HRV_0045,2022-11-30 18:20:28
,wl-rdm,165,715738,0.0-8.48-0.48,1.0,165.0,,,,,,,[],,,,,,62.5,0.0,u,0.0,True,1168.0999999046326,71.0,60.0,40.0,False,,275.4856023691671,[],"[683, 384]",ColorTask,81.0,49.0,,,HRV,HRV_0045,2022-11-30 18:20:28
,wl-rdm,166,717770,0.0-8.49-0.49,1.0,166.0,,,,,,,[],,,,,,87.9,1.0,i,1.0,True,637.0000002384186,39.0,60.0,40.0,False,,327.521003787855,[],"[683, 384]",ColorTask,82.0,50.0,,,HRV,HRV_0045,2022-11-30 18:20:28
,wl-rdm,167,720452,0.0-8.50-0.50,1.0,167.0,,,,,,,[],,,,,,56.4,0.0,u,0.0,True,1245.4000000953674,75.0,60.0,40.0,False,,360.44234024303864,[],"[683, 384]",ColorTask,83.0,51.0,,,HRV,HRV_0045,2022-11-30 18:20:28
,wl-rdm,168,722569,0.0-8.51-0.51,1.0,168.0,,,,,,,[],,,,,,73.6,1.0,i,1.0,True,679.7000000476837,41.0,60.0,40.0,False,,353.95657145958626,[],"[683, 384]",ColorTask,84.0,52.0,,,HRV,HRV_0045,2022-11-30 18:20:28
,wl-rdm,169,724919,0.0-8.52-0.52,1.0,169.0,,,,,,,[],,,,,,62.5,0.0,u,0.0,True,1039.4000000953674,63.0,60.0,40.0,False,,223.315330663567,[],"[683, 384]",ColorTask,85.0,53.0,,,HRV,HRV_0045,2022-11-30 18:20:28
,wl-rdm,170,726884,0.0-8.53-0.53,1.0,170.0,,,,,,,[],,,,,,73.6,1.0,i,1.0,True,555.2000000476837,34.0,60.0,40.0,False,,318.964617032886,[],"[683, 384]",ColorTask,86.0,54.0,,,HRV,HRV_0045,2022-11-30 18:20:28
,wl-rdm,171,728741,0.0-8.54-0.54,1.0,171.0,,,,,,,[],,,,,,56.4,1.0,i,1.0,True,492.5,30.0,60.0,40.0,False,,269.3918104597874,[],"[683, 384]",ColorTask,87.0,55.0,,,HRV,HRV_0045,2022-11-30 18:20:28
,wl-rdm,172,730799,0.0-8.55-0.55,1.0,172.0,,,,,,,[],,,,,,50.0,1.0,u,0.0,False,696.5,42.0,60.0,40.0,False,,297.32411032161843,[],"[683, 384]",ColorTask,86.0,56.0,,,HRV,HRV_0045,2022-11-30 18:20:28
,wl-rdm,173,732934,0.0-8.56-0.56,1.0,173.0,,,,,,,[],,,,,,56.4,0.0,u,0.0,True,776.7000000476837,47.0,60.0,40.0,False,,294.1057486504608,[],"[683, 384]",ColorTask,87.0,57.0,,,HRV,HRV_0045,2022-11-30 18:20:28
,wl-rdm,174,734933,0.0-8.57-0.57,1.0,174.0,,,,,,,[],,,,,,73.6,0.0,u,0.0,True,591.5999999046326,36.0,60.0,40.0,False,,317.36192780545394,[],"[683, 384]",ColorTask,88.0,58.0,,,HRV,HRV_0045,2022-11-30 18:20:28
,wl-rdm,175,736799,0.0-8.58-0.58,1.0,175.0,,,,,,,[],,,,,,53.2,0.0,i,1.0,False,592.3999998569489,36.0,60.0,40.0,False,,214.2832110658808,[],"[683, 384]",ColorTask,87.0,59.0,,,HRV,HRV_0045,2022-11-30 18:20:28
,wl-rdm,176,738548,0.0-8.59-0.59,1.0,176.0,,,,,,,[],,,,,,87.9,1.0,i,1.0,True,455.400000333786,28.0,60.0,40.0,False,,214.00433781650528,[],"[683, 384]",ColorTask,88.0,60.0,,,HRV,HRV_0045,2022-11-30 18:20:28
,wl-rdm,177,740575,0.0-8.60-0.60,1.0,177.0,,,,,,,[],,,,,,73.6,0.0,u,0.0,True,724.3999998569489,44.0,60.0,40.0,False,,242.07179035354056,[],"[683, 384]",ColorTask,89.0,61.0,,,HRV,HRV_0045,2022-11-30 18:20:28
,wl-rdm,178,742608,0.0-8.61-0.61,1.0,178.0,,,,,,,[],,,,,,87.9,1.0,i,1.0,True,687.7999997138977,41.0,60.0,40.0,False,,273.69419230661856,[],"[683, 384]",ColorTask,90.0,62.0,,,HRV,HRV_0045,2022-11-30 18:20:28
,wl-rdm,179,744891,0.0-8.62-0.62,1.0,179.0,,,,,,,[],,,,,,56.4,1.0,i,1.0,True,815.6000001430511,49.0,60.0,40.0,False,,395.81016363775007,[],"[683, 384]",ColorTask,91.0,63.0,,,HRV,HRV_0045,2022-11-30 18:20:28
,wl-rdm,180,746857,0.0-8.63-0.63,1.0,180.0,,,,,,,[],,,,,,53.2,0.0,i,1.0,False,524.7000000476837,32.0,60.0,40.0,False,,362.642151408652,[],"[683, 384]",ColorTask,90.0,64.0,,,HRV,HRV_0045,2022-11-30 18:20:28
,wl-rdm,181,748873,0.0-8.64-0.64,1.0,181.0,,,,,,,[],,,,,,50.0,0.0,u,0.0,True,713.8999998569489,43.0,60.0,40.0,False,,227.3278366762215,[],"[683, 384]",ColorTask,91.0,65.0,,,HRV,HRV_0045,2022-11-30 18:20:28
,wl-rdm,182,750990,0.0-8.65-0.65,1.0,182.0,,,,,,,[],,,,,,56.4,0.0,u,0.0,True,773.7999999523163,47.0,60.0,40.0,False,,260.25908943258094,[],"[683, 384]",ColorTask,92.0,66.0,,,HRV,HRV_0045,2022-11-30 18:20:28
,wl-rdm,183,753023,0.0-8.66-0.66,1.0,183.0,,,,,,,[],,,,,,56.4,0.0,u,0.0,True,723.0,44.0,60.0,40.0,False,,244.7738403140565,[],"[683, 384]",ColorTask,93.0,67.0,,,HRV,HRV_0045,2022-11-30 18:20:28
,wl-rdm,184,754956,0.0-8.67-0.67,1.0,184.0,,,,,,,[],,,,,,56.4,1.0,i,1.0,True,563.8000001907349,34.0,60.0,40.0,False,,312.868139391565,[],"[683, 384]",ColorTask,94.0,68.0,,,HRV,HRV_0045,2022-11-30 18:20:28
,wl-rdm,185,757022,0.0-8.68-0.68,1.0,185.0,,,,,,,[],,,,,,73.6,1.0,i,1.0,True,677.7000002861023,41.0,60.0,40.0,False,,311.08080101925634,[],"[683, 384]",ColorTask,95.0,69.0,,,HRV,HRV_0045,2022-11-30 18:20:28
,wl-rdm,186,759054,0.0-8.69-0.69,1.0,186.0,,,,,,,[],,,,,,50.0,1.0,u,0.0,False,727.7999999523163,44.0,60.0,40.0,False,,234.23652937412388,[],"[683, 384]",ColorTask,94.0,70.0,,,HRV,HRV_0045,2022-11-30 18:20:28
,wl-rdm,187,760970,0.0-8.70-0.70,1.0,187.0,,,,,,,[],,,,,,62.5,0.0,u,0.0,True,604.7999997138977,37.0,60.0,40.0,False,,218.98489349522734,[],"[683, 384]",ColorTask,95.0,71.0,,,HRV,HRV_0045,2022-11-30 18:20:28
,wl-rdm,188,763637,0.0-8.71-0.71,1.0,188.0,,,,,,,[],,,,,,50.0,1.0,u,0.0,False,1207.5,73.0,60.0,40.0,False,,371.23203339445416,[],"[683, 384]",ColorTask,94.0,72.0,,,HRV,HRV_0045,2022-11-30 18:20:28
,wl-rdm,189,765887,0.0-8.72-0.72,1.0,189.0,,,,,,,[],,,,,,56.4,1.0,u,0.0,False,874.6999998092651,53.0,60.0,40.0,False,,295.57706848753276,[],"[683, 384]",ColorTask,93.0,73.0,,,HRV,HRV_0045,2022-11-30 18:20:28
,wl-rdm,190,767688,0.0-8.73-0.73,1.0,190.0,,,,,,,[],,,,,,56.4,1.0,i,1.0,True,530.5000002384186,32.0,60.0,40.0,False,,206.4659268972282,[],"[683, 384]",ColorTask,94.0,74.0,,,HRV,HRV_0045,2022-11-30 18:20:28
,wl-rdm,191,770103,0.0-8.74-0.74,1.0,191.0,,,,,,,[],,,,,,50.0,1.0,i,1.0,True,1003.6000001430511,61.0,60.0,40.0,False,,321.74239961202227,[],"[683, 384]",ColorTask,95.0,75.0,,,HRV,HRV_0045,2022-11-30 18:20:28
,wl-rdm,192,772469,0.0-8.75-0.75,1.0,192.0,,,,,,,[],,,,,,53.2,0.0,i,1.0,False,926.6000001430511,56.0,60.0,40.0,False,,365.84631382073553,[],"[683, 384]",ColorTask,94.0,76.0,,,HRV,HRV_0045,2022-11-30 18:20:28
,wl-rdm,193,774269,0.0-8.76-0.76,1.0,193.0,,,,,,,[],,,,,,50.0,0.0,i,1.0,False,506.10000014305115,31.0,60.0,40.0,False,,233.82270169721858,[],"[683, 384]",ColorTask,93.0,77.0,,,HRV,HRV_0045,2022-11-30 18:20:28
,wl-rdm,194,776168,0.0-8.77-0.77,1.0,194.0,,,,,,,[],,,,,,56.4,1.0,i,1.0,True,538.0000002384186,33.0,60.0,40.0,False,,291.02705841090733,[],"[683, 384]",ColorTask,94.0,78.0,,,HRV,HRV_0045,2022-11-30 18:20:28
,wl-rdm,195,778318,0.0-8.78-0.78,1.0,195.0,,,,,,,[],,,,,,62.5,0.0,u,0.0,True,785.4000000953674,48.0,60.0,40.0,False,,270.9330264595814,[],"[683, 384]",ColorTask,95.0,79.0,,,HRV,HRV_0045,2022-11-30 18:20:28
,wl-rdm,196,780485,0.0-8.79-0.79,1.0,196.0,,,,,,,[],,,,,,87.9,1.0,i,1.0,True,746.0,45.0,60.0,40.0,False,,355.7090581552443,[],"[683, 384]",ColorTask,96.0,80.0,,,HRV,HRV_0045,2022-11-30 18:20:28
,wl-rdm,197,782768,0.0-8.80-0.80,1.0,197.0,,,,,,,[],,,,,,62.5,1.0,i,1.0,True,1003.6000001430511,61.0,60.0,40.0,False,,213.77138807597828,[],"[683, 384]",ColorTask,97.0,81.0,,,HRV,HRV_0045,2022-11-30 18:20:28
,wl-rdm,198,785250,0.0-8.81-0.81,1.0,198.0,,,,,,,[],,,,,,56.4,0.0,u,0.0,True,1139.0,69.0,60.0,40.0,False,,258.63571866814254,[],"[683, 384]",ColorTask,98.0,82.0,,,HRV,HRV_0045,2022-11-30 18:20:28
,wl-rdm,199,787283,0.0-8.82-0.82,1.0,199.0,,,,,,,[],,,,,,73.6,1.0,i,1.0,True,674.3999998569489,40.0,60.0,40.0,False,,291.5545594030797,[],"[683, 384]",ColorTask,99.0,83.0,,,HRV,HRV_0045,2022-11-30 18:20:28
,wl-rdm,200,789683,0.0-8.83-0.83,1.0,200.0,,,,,,,[],,,,,,56.4,0.0,u,0.0,True,937.5999999046326,57.0,60.0,40.0,False,,380.1560677976551,[],"[683, 384]",ColorTask,100.0,84.0,,,HRV,HRV_0045,2022-11-30 18:20:28
,wl-rdm,201,791883,0.0-8.84-0.84,1.0,201.0,,,,,,,[],,,,,,62.5,1.0,i,1.0,True,764.6000001430511,46.0,60.0,40.0,False,,361.3611193965039,[],"[683, 384]",ColorTask,101.0,85.0,,,HRV,HRV_0045,2022-11-30 18:20:28
,wl-rdm,202,794414,0.0-8.85-0.85,1.0,202.0,,,,,,,[],,,,,,50.0,1.0,u,0.0,False,1237.2000000476837,75.0,60.0,40.0,False,,221.36302284527582,[],"[683, 384]",ColorTask,100.0,86.0,,,HRV,HRV_0045,2022-11-30 18:20:28
,wl-rdm,203,796865,0.0-8.86-0.86,1.0,203.0,,,,,,,[],,,,,,62.5,1.0,u,0.0,False,1097.9000000953674,66.0,60.0,40.0,False,,273.355394050364,[],"[683, 384]",ColorTask,99.0,87.0,,,HRV,HRV_0045,2022-11-30 18:20:28
,wl-rdm,204,799258,0.0-8.87-0.87,1.0,204.0,,,,,,,[],,,,,,56.4,0.0,u,0.0,True,925.9999997615814,56.0,60.0,40.0,False,,384.61608154645955,[],"[683, 384]",ColorTask,100.0,88.0,,,HRV,HRV_0045,2022-11-30 18:20:28
,wl-rdm,205,801275,0.0-8.88-0.88,1.0,205.0,,,,,,,[],,,,,,87.9,1.0,i,1.0,True,546.5999999046326,33.0,60.0,40.0,False,,386.6483069114171,[],"[683, 384]",ColorTask,101.0,89.0,,,HRV,HRV_0045,2022-11-30 18:20:28
,wl-rdm,206,803441,0.0-8.89-0.89,1.0,206.0,,,,,,,[],,,,,,53.2,1.0,i,1.0,True,847.7000000476837,51.0,60.0,40.0,False,,246.03225950670458,[],"[683, 384]",ColorTask,102.0,90.0,,,HRV,HRV_0045,2022-11-30 18:20:28
,wl-rdm,207,806124,0.0-8.90-0.90,1.0,207.0,,,,,,,[],,,,,,53.2,1.0,u,0.0,False,1254.5,76.0,60.0,40.0,False,,334.03838894588375,[],"[683, 384]",ColorTask,101.0,91.0,,,HRV,HRV_0045,2022-11-30 18:20:28
,wl-rdm,208,808274,0.0-8.91-0.91,1.0,208.0,,,,,,,[],,,,,,73.6,0.0,u,0.0,True,802.5000002384186,49.0,60.0,40.0,False,,263.225057759754,[],"[683, 384]",ColorTask,102.0,92.0,,,HRV,HRV_0045,2022-11-30 18:20:28
,wl-rdm,209,810306,0.0-8.92-0.92,1.0,209.0,,,,,,,[],,,,,,56.4,1.0,i,1.0,True,683.4000000953674,41.0,60.0,40.0,False,,279.45139137691933,[],"[683, 384]",ColorTask,103.0,93.0,,,HRV,HRV_0045,2022-11-30 18:20:28
,wl-rdm,210,812990,0.0-8.93-0.93,1.0,210.0,,,,,,,[],,,,,,73.6,0.0,u,0.0,True,1305.0,79.0,60.0,40.0,False,,285.2885519817265,[],"[683, 384]",ColorTask,104.0,94.0,,,HRV,HRV_0045,2022-11-30 18:20:28
,wl-rdm,211,815090,0.0-8.94-0.94,1.0,211.0,,,,,,,[],,,,,,62.5,0.0,u,0.0,True,791.2999999523163,48.0,60.0,40.0,False,,235.12356251614978,[],"[683, 384]",ColorTask,105.0,95.0,,,HRV,HRV_0045,2022-11-30 18:20:28
,wl-rdm,212,817156,0.0-8.95-0.95,1.0,212.0,,,,,,,[],,,,,,73.6,0.0,u,0.0,True,688.2000000476837,42.0,60.0,40.0,False,,281.9616141064459,[],"[683, 384]",ColorTask,106.0,96.0,,,HRV,HRV_0045,2022-11-30 18:20:28
,wl-rdm,213,819389,0.0-8.96-0.96,1.0,213.0,,,,,,,[],,,,,,53.2,1.0,u,0.0,False,939.0000002384186,57.0,60.0,40.0,False,,229.13736740604617,[],"[683, 384]",ColorTask,105.0,97.0,,,HRV,HRV_0045,2022-11-30 18:20:28
,wl-rdm,214,821522,0.0-8.97-0.97,1.0,214.0,,,,,,,[],,,,,,53.2,0.0,u,0.0,True,788.5,48.0,60.0,40.0,False,,272.78390316790444,[],"[683, 384]",ColorTask,106.0,98.0,,,HRV,HRV_0045,2022-11-30 18:20:28
,wl-rdm,215,823491,0.0-8.98-0.98,1.0,215.0,,,,,,,[],,,,,,73.6,1.0,i,1.0,True,586.7000000476837,36.0,60.0,40.0,False,,313.54272824880036,[],"[683, 384]",ColorTask,107.0,99.0,,,HRV,HRV_0045,2022-11-30 18:20:28
,wl-rdm,216,826356,0.0-8.99-0.99,1.0,216.0,,,,,,,[],,,,,,56.4,1.0,i,1.0,True,1487.2000000476837,90.0,60.0,40.0,False,,308.617575021679,[],"[683, 384]",ColorTask,108.0,100.0,,,HRV,HRV_0045,2022-11-30 18:20:28
,wl-rdm,217,828372,0.0-8.100-0.100,1.0,217.0,,,,,,,[],,,,,,53.2,0.0,i,1.0,False,720.4000000953674,44.0,60.0,40.0,False,,201.58290621981632,[],"[683, 384]",ColorTask,107.0,101.0,,,HRV,HRV_0045,2022-11-30 18:20:28
,wl-rdm,218,830304,0.0-8.101-0.101,1.0,218.0,,,,,,,[],,,,,,56.4,1.0,i,1.0,True,561.2000000476837,34.0,60.0,40.0,False,,288.20408616659427,[],"[683, 384]",ColorTask,108.0,102.0,,,HRV,HRV_0045,2022-11-30 18:20:28
,wl-rdm,219,832271,0.0-8.102-0.102,1.0,219.0,,,,,,,[],,,,,,62.5,1.0,i,1.0,True,521.2999997138977,32.0,60.0,40.0,False,,337.3382521905718,[],"[683, 384]",ColorTask,109.0,103.0,,,HRV,HRV_0045,2022-11-30 18:20:28
,wl-rdm,220,834221,0.0-8.103-0.103,1.0,220.0,,,,,,,[],,,,,,87.9,0.0,u,0.0,True,660.9000000953674,40.0,60.0,40.0,False,,220.7813267089918,[],"[683, 384]",ColorTask,110.0,104.0,,,HRV,HRV_0045,2022-11-30 18:20:28
,wl-rdm,221,837053,0.0-8.104-0.104,1.0,221.0,,,,,,,[],,,,,,62.5,1.0,i,1.0,True,1371.9000000953674,83.0,60.0,40.0,False,,391.2350781927668,[],"[683, 384]",ColorTask,111.0,105.0,,,HRV,HRV_0045,2022-11-30 18:20:28
,wl-rdm,222,839201,0.0-8.105-0.105,1.0,222.0,,,,,,,[],,,,,,50.0,1.0,u,0.0,False,747.1999998092651,45.0,60.0,40.0,False,,326.25447158660444,[],"[683, 384]",ColorTask,110.0,106.0,,,HRV,HRV_0045,2022-11-30 18:20:28
,wl-rdm,223,841101,0.0-8.106-0.106,1.0,223.0,,,,,,,[],,,,,,87.9,0.0,u,0.0,True,469.2000000476837,29.0,60.0,40.0,False,,340.9090043751908,[],"[683, 384]",ColorTask,111.0,107.0,,,HRV,HRV_0045,2022-11-30 18:20:28
,wl-rdm,224,843019,0.0-8.107-0.107,1.0,224.0,,,,,,,[],,,,,,87.9,1.0,i,1.0,True,594.7000000476837,36.0,60.0,40.0,False,,244.90365456853954,[],"[683, 384]",ColorTask,112.0,108.0,,,HRV,HRV_0045,2022-11-30 18:20:28
,wl-html-button-response,225,845464,0.0-9.0-0.0,,,,,,,,,,2435.5999999046326,,0,,,,,,,,,,,,,,,,,,,,<h3>End of this session. Thank you!</h3><br>,['Close window'],HRV,HRV_0045,2022-11-30 18:20:28
