trialN,stimuli,question,trialStartTime,trialStartTime_UNIX,stimulus1,trialEvents,rt,receivedResponse,rating,trialEndTime,trialDuration,stimulus1Loaded,exp,subjectId,date
0,"[{'imgObject': {}, 'id': 'granola w milk', 'src': '/static/foodstim60/granola w milk.jpg', 'key': 'NaN', 'origWidth': 410, 'origHeight': 410, 'width': 410, 'height': 410, 'widthPercent': 0.8, 'rescaleHeight': True, 'trialN': 0, 'loaded': True, 'loadedTime': 3959.5, 'positionName': 'CENTER', 'positionCoords': [478, 179]}]",Rate how much you want to eat this food from 0 (least) to 10 (most).,7041.299999952316,1669830311106,granola w milk,"[{'event': 'fullscreenchange', 'details': 'fullscreenexit', 'performance time': 17957.5, 'date time': 1669830322022}, {'event': 'onblur', 'details': 'out of focus', 'performance time': 20072.5, 'date time': 1669830324137}, {'event': 'visibilitychange', 'details': 'hidden', 'performance time': 20084.10000014305, 'date time': 1669830324148}, {'event': 'visibilitychange', 'details': 'visible', 'performance time': 29947.400000095367, 'date time': 1669830334012}, {'event': 'onfocus', 'details': 'in focus', 'performance time': 29947.900000095367, 'date time': 1669830334012}]",32520.0,True,5.45,39561.299999952316,32520.0,True,HRV,HRV_0045,2022-11-30 17:48:02
1,"[{'imgObject': {}, 'id': 'seaweed', 'src': '/static/foodstim60/seaweed.jpg', 'key': 'NaN', 'origWidth': 410, 'origHeight': 410, 'width': 406.25, 'height': 406.25, 'widthPercent': 0.8, 'rescaleHeight': True, 'trialN': 1, 'loaded': True, 'loadedTime': 39586.40000009537, 'positionName': 'CENTER', 'positionCoords': [480, 109.5]}]",Rate how much you want to eat this food from 0 (least) to 10 (most).,39569.700000047684,1669830343628,seaweed,,1997.5999999046326,True,4.13,41567.299999952316,1997.5999999046326,True,HRV,HRV_0045,2022-11-30 17:48:02
2,"[{'imgObject': {}, 'id': 'lox', 'src': '/static/foodstim60/lox.jpg', 'key': 'NaN', 'origWidth': 410, 'origHeight': 411, 'width': 405.26155717761554, 'height': 406.25, 'widthPercent': 0.8, 'rescaleHeight': True, 'trialN': 2, 'loaded': True, 'loadedTime': 41583.299999952316, 'positionName': 'CENTER', 'positionCoords': [480.5, 109.5]}]",Rate how much you want to eat this food from 0 (least) to 10 (most).,41569.5,1669830345628,lox,,2987.0,True,2.4,44556.5,2987.0,True,HRV,HRV_0045,2022-11-30 17:48:02
3,"[{'imgObject': {}, 'id': 'pear', 'src': '/static/foodstim60/pear.jpg', 'key': 'NaN', 'origWidth': 411, 'origHeight': 410, 'width': 407.2408536585365, 'height': 406.25, 'widthPercent': 0.8, 'rescaleHeight': True, 'trialN': 3, 'loaded': True, 'loadedTime': 44562.299999952316, 'positionName': 'CENTER', 'positionCoords': [479.5, 109.5]}]",Rate how much you want to eat this food from 0 (least) to 10 (most).,44558.700000047684,1669830348617,pear,,2052.2999999523163,True,4.61,46611.0,2052.2999999523163,True,HRV,HRV_0045,2022-11-30 17:48:02
4,"[{'imgObject': {}, 'id': 'mashed potato', 'src': '/static/foodstim60/mashed potato.jpg', 'key': 'NaN', 'origWidth': 409, 'origHeight': 409, 'width': 406.25, 'height': 406.25, 'widthPercent': 0.8, 'rescaleHeight': True, 'trialN': 4, 'loaded': True, 'loadedTime': 46627.10000014305, 'positionName': 'CENTER', 'positionCoords': [480, 109.5]}]",Rate how much you want to eat this food from 0 (least) to 10 (most).,46613.5,1669830350672,mashed potato,,2101.0,True,3.98,48714.5,2101.0,True,HRV,HRV_0045,2022-11-30 17:48:02
5,"[{'imgObject': {}, 'id': 'tacos', 'src': '/static/foodstim60/tacos.jpg', 'key': 'NaN', 'origWidth': 411, 'origHeight': 411, 'width': 406.25, 'height': 406.25, 'widthPercent': 0.8, 'rescaleHeight': True, 'trialN': 5, 'loaded': True, 'loadedTime': 48727.700000047684, 'positionName': 'CENTER', 'positionCoords': [480, 109.5]}]",Rate how much you want to eat this food from 0 (least) to 10 (most).,48717.200000047684,1669830352776,tacos,,1389.4000000953674,True,5.38,50106.60000014305,1389.4000000953674,True,HRV,HRV_0045,2022-11-30 17:48:02
6,"[{'imgObject': {}, 'id': 'shreddedwheatwithmilk', 'src': '/static/foodstim60/shreddedwheatwithmilk.jpg', 'key': 'NaN', 'origWidth': 410, 'origHeight': 410, 'width': 406.25, 'height': 406.25, 'widthPercent': 0.8, 'rescaleHeight': True, 'trialN': 6, 'loaded': True, 'loadedTime': 50116, 'positionName': 'CENTER', 'positionCoords': [480, 109.5]}]",Rate how much you want to eat this food from 0 (least) to 10 (most).,50108.799999952316,1669830354167,shreddedwheatwithmilk,,1381.0,True,5.58,51489.799999952316,1381.0,True,HRV,HRV_0045,2022-11-30 17:48:02
7,"[{'imgObject': {}, 'id': 'fried eggs', 'src': '/static/foodstim60/fried eggs.jpg', 'key': 'NaN', 'origWidth': 410, 'origHeight': 410, 'width': 406.25, 'height': 406.25, 'widthPercent': 0.8, 'rescaleHeight': True, 'trialN': 7, 'loaded': True, 'loadedTime': 51510.60000014305, 'positionName': 'CENTER', 'positionCoords': [480, 109.5]}]",Rate how much you want to eat this food from 0 (least) to 10 (most).,51492.40000009537,1669830355551,fried eggs,,1321.8999998569489,True,4.8500000000000005,52814.299999952316,1321.8999998569489,True,HRV,HRV_0045,2022-11-30 17:48:02
8,"[{'imgObject': {}, 'id': 'hotdog w must', 'src': '/static/foodstim60/hotdog w must.jpg', 'key': 'NaN', 'origWidth': 409, 'origHeight': 409, 'width': 406.25, 'height': 406.25, 'widthPercent': 0.8, 'rescaleHeight': True, 'trialN': 8, 'loaded': True, 'loadedTime': 52829.60000014305, 'positionName': 'CENTER', 'positionCoords': [480, 109.5]}]",Rate how much you want to eat this food from 0 (least) to 10 (most).,52816.90000009537,1669830356875,hotdog w must,,2052.2000000476837,True,2.07,54869.10000014305,2052.2000000476837,True,HRV,HRV_0045,2022-11-30 17:48:02
9,"[{'imgObject': {}, 'id': 'raspberries', 'src': '/static/foodstim60/raspberries.jpg', 'key': 'NaN', 'origWidth': 411, 'origHeight': 411, 'width': 406.25, 'height': 406.25, 'widthPercent': 0.8, 'rescaleHeight': True, 'trialN': 9, 'loaded': True, 'loadedTime': 54883, 'positionName': 'CENTER', 'positionCoords': [480, 109.5]}]",Rate how much you want to eat this food from 0 (least) to 10 (most).,54872.299999952316,1669830358931,raspberries,,2021.0,True,1.7,56893.299999952316,2021.0,True,HRV,HRV_0045,2022-11-30 17:48:02
10,"[{'imgObject': {}, 'id': 'hashbrowns', 'src': '/static/foodstim60/hashbrowns.jpg', 'key': 'NaN', 'origWidth': 411, 'origHeight': 410, 'width': 407.2408536585365, 'height': 406.25, 'widthPercent': 0.8, 'rescaleHeight': True, 'trialN': 10, 'loaded': True, 'loadedTime': 56926.90000009537, 'positionName': 'CENTER', 'positionCoords': [479.5, 109.5]}]",Rate how much you want to eat this food from 0 (least) to 10 (most).,56897.10000014305,1669830360956,hashbrowns,,1730.1999998092651,True,1.06,58627.299999952316,1730.1999998092651,True,HRV,HRV_0045,2022-11-30 17:48:02
11,"[{'imgObject': {}, 'id': 'eggsalad', 'src': '/static/foodstim60/eggsalad.jpg', 'key': 'NaN', 'origWidth': 410, 'origHeight': 409, 'width': 407.2432762836185, 'height': 406.25, 'widthPercent': 0.8, 'rescaleHeight': True, 'trialN': 11, 'loaded': True, 'loadedTime': 58643.40000009537, 'positionName': 'CENTER', 'positionCoords': [479.5, 109.5]}]",Rate how much you want to eat this food from 0 (least) to 10 (most).,58630.299999952316,1669830362689,eggsalad,,1389.3000001907349,True,1.9100000000000001,60019.60000014305,1389.3000001907349,True,HRV,HRV_0045,2022-11-30 17:48:02
12,"[{'imgObject': {}, 'id': 'cherry tomato', 'src': '/static/foodstim60/cherry tomato.jpg', 'key': 'NaN', 'origWidth': 410, 'origHeight': 410, 'width': 406.25, 'height': 406.25, 'widthPercent': 0.8, 'rescaleHeight': True, 'trialN': 12, 'loaded': True, 'loadedTime': 60033.90000009537, 'positionName': 'CENTER', 'positionCoords': [480, 109.5]}]",Rate how much you want to eat this food from 0 (least) to 10 (most).,60022.700000047684,1669830364081,cherry tomato,,1886.0999999046326,True,0.9500000000000001,61908.799999952316,1886.0999999046326,True,HRV,HRV_0045,2022-11-30 17:48:02
13,"[{'imgObject': {}, 'id': 'salmon', 'src': '/static/foodstim60/salmon.jpg', 'key': 'NaN', 'origWidth': 410, 'origHeight': 409, 'width': 407.2432762836185, 'height': 406.25, 'widthPercent': 0.8, 'rescaleHeight': True, 'trialN': 13, 'loaded': True, 'loadedTime': 61925.90000009537, 'positionName': 'CENTER', 'positionCoords': [479.5, 109.5]}]",Rate how much you want to eat this food from 0 (least) to 10 (most).,61912.200000047684,1669830365971,salmon,,1641.2000000476837,True,7.92,63553.40000009537,1641.2000000476837,True,HRV,HRV_0045,2022-11-30 17:48:02
14,"[{'imgObject': {}, 'id': 'steak', 'src': '/static/foodstim60/steak.jpg', 'key': 'NaN', 'origWidth': 410, 'origHeight': 410, 'width': 406.25, 'height': 406.25, 'widthPercent': 0.8, 'rescaleHeight': True, 'trialN': 14, 'loaded': True, 'loadedTime': 63561.700000047684, 'positionName': 'CENTER', 'positionCoords': [480, 109.5]}]",Rate how much you want to eat this food from 0 (least) to 10 (most).,63555.40000009537,1669830367614,steak,,2306.0999999046326,True,9.83,65861.5,2306.0999999046326,True,HRV,HRV_0045,2022-11-30 17:48:02
15,"[{'imgObject': {}, 'id': 'chickenfingers', 'src': '/static/foodstim60/chickenfingers.jpg', 'key': 'NaN', 'origWidth': 410, 'origHeight': 410, 'width': 406.25, 'height': 406.25, 'widthPercent': 0.8, 'rescaleHeight': True, 'trialN': 15, 'loaded': True, 'loadedTime': 65874, 'positionName': 'CENTER', 'positionCoords': [480, 109.5]}]",Rate how much you want to eat this food from 0 (least) to 10 (most).,65865.20000004768,1669830369924,chickenfingers,,2324.2000000476837,True,5.61,68189.40000009537,2324.2000000476837,True,HRV,HRV_0045,2022-11-30 17:48:02
16,"[{'imgObject': {}, 'id': 'bagel plain', 'src': '/static/foodstim60/bagel plain.jpg', 'key': 'NaN', 'origWidth': 410, 'origHeight': 410, 'width': 406.25, 'height': 406.25, 'widthPercent': 0.8, 'rescaleHeight': True, 'trialN': 16, 'loaded': True, 'loadedTime': 68206, 'positionName': 'CENTER', 'positionCoords': [480, 109.5]}]",Rate how much you want to eat this food from 0 (least) to 10 (most).,68193.10000014305,1669830372252,bagel plain,,1602.7999999523163,True,4.19,69795.90000009537,1602.7999999523163,True,HRV,HRV_0045,2022-11-30 17:48:02
17,"[{'imgObject': {}, 'id': 'omelette', 'src': '/static/foodstim60/omelette.jpg', 'key': 'NaN', 'origWidth': 410, 'origHeight': 409, 'width': 407.2432762836185, 'height': 406.25, 'widthPercent': 0.8, 'rescaleHeight': True, 'trialN': 17, 'loaded': True, 'loadedTime': 69805.90000009537, 'positionName': 'CENTER', 'positionCoords': [479.5, 109.5]}]",Rate how much you want to eat this food from 0 (least) to 10 (most).,69798.20000004768,1669830373857,omelette,,1486.7999999523163,True,2.49,71285.0,1486.7999999523163,True,HRV,HRV_0045,2022-11-30 17:48:02
18,"[{'imgObject': {}, 'id': 'froot loops w milk', 'src': '/static/foodstim60/froot loops w milk.jpg', 'key': 'NaN', 'origWidth': 410, 'origHeight': 410, 'width': 406.25, 'height': 406.25, 'widthPercent': 0.8, 'rescaleHeight': True, 'trialN': 18, 'loaded': True, 'loadedTime': 71308.40000009537, 'positionName': 'CENTER', 'positionCoords': [480, 109.5]}]",Rate how much you want to eat this food from 0 (least) to 10 (most).,71291.79999995232,1669830375350,froot loops w milk,,1590.0,True,4.0600000000000005,72881.79999995232,1590.0,True,HRV,HRV_0045,2022-11-30 17:48:02
19,"[{'imgObject': {}, 'id': 'bagel and cc', 'src': '/static/foodstim60/bagel and cc.jpg', 'key': 'NaN', 'origWidth': 410, 'origHeight': 410, 'width': 406.25, 'height': 406.25, 'widthPercent': 0.8, 'rescaleHeight': True, 'trialN': 19, 'loaded': True, 'loadedTime': 72890.40000009537, 'positionName': 'CENTER', 'positionCoords': [480, 109.5]}]",Rate how much you want to eat this food from 0 (least) to 10 (most).,72884.10000014305,1669830376943,bagel and cc,,1555.7999999523163,True,2.84,74439.90000009537,1555.7999999523163,True,HRV,HRV_0045,2022-11-30 17:48:02
20,"[{'imgObject': {}, 'id': 'baked potato', 'src': '/static/foodstim60/baked potato.jpg', 'key': 'NaN', 'origWidth': 409, 'origHeight': 410, 'width': 405.2591463414633, 'height': 406.25, 'widthPercent': 0.8, 'rescaleHeight': True, 'trialN': 20, 'loaded': True, 'loadedTime': 74446.40000009537, 'positionName': 'CENTER', 'positionCoords': [480.5, 109.5]}]",Rate how much you want to eat this food from 0 (least) to 10 (most).,74441.60000014305,1669830378500,baked potato,,2472.0,True,6.42,76913.60000014305,2472.0,True,HRV,HRV_0045,2022-11-30 17:48:02
21,"[{'imgObject': {}, 'id': 'rigatoni and sauce', 'src': '/static/foodstim60/rigatoni and sauce.jpg', 'key': 'NaN', 'origWidth': 410, 'origHeight': 411, 'width': 405.26155717761554, 'height': 406.25, 'widthPercent': 0.8, 'rescaleHeight': True, 'trialN': 21, 'loaded': True, 'loadedTime': 76933.60000014305, 'positionName': 'CENTER', 'positionCoords': [480.5, 109.5]}]",Rate how much you want to eat this food from 0 (least) to 10 (most).,76917.79999995232,1669830380976,rigatoni and sauce,,1718.9000000953674,True,1.09,78636.70000004768,1718.9000000953674,True,HRV,HRV_0045,2022-11-30 17:48:02
22,"[{'imgObject': {}, 'id': 'veggieswithdip', 'src': '/static/foodstim60/veggieswithdip.jpg', 'key': 'NaN', 'origWidth': 409, 'origHeight': 409, 'width': 406.25, 'height': 406.25, 'widthPercent': 0.8, 'rescaleHeight': True, 'trialN': 22, 'loaded': True, 'loadedTime': 78643.5, 'positionName': 'CENTER', 'positionCoords': [480, 109.5]}]",Rate how much you want to eat this food from 0 (least) to 10 (most).,78639.29999995232,1669830382698,veggieswithdip,,1584.8000001907349,True,5.93,80224.10000014305,1584.8000001907349,True,HRV,HRV_0045,2022-11-30 17:48:02
23,"[{'imgObject': {}, 'id': 'rigatoni', 'src': '/static/foodstim60/rigatoni.jpg', 'key': 'NaN', 'origWidth': 411, 'origHeight': 411, 'width': 406.25, 'height': 406.25, 'widthPercent': 0.8, 'rescaleHeight': True, 'trialN': 23, 'loaded': True, 'loadedTime': 80236, 'positionName': 'CENTER', 'positionCoords': [480, 109.5]}]",Rate how much you want to eat this food from 0 (least) to 10 (most).,80226.29999995232,1669830384285,rigatoni,,2072.0,True,0.13,82298.29999995232,2072.0,True,HRV,HRV_0045,2022-11-30 17:48:02
24,"[{'imgObject': {}, 'id': 'cocktailshrimp', 'src': '/static/foodstim60/cocktailshrimp.jpg', 'key': 'NaN', 'origWidth': 410, 'origHeight': 410, 'width': 406.25, 'height': 406.25, 'widthPercent': 0.8, 'rescaleHeight': True, 'trialN': 24, 'loaded': True, 'loadedTime': 82312.70000004768, 'positionName': 'CENTER', 'positionCoords': [480, 109.5]}]",Rate how much you want to eat this food from 0 (least) to 10 (most).,82301.29999995232,1669830386360,cocktailshrimp,,2138.300000190735,True,0.0,84439.60000014305,2138.300000190735,True,HRV,HRV_0045,2022-11-30 17:48:02
25,"[{'imgObject': {}, 'id': 'kiwi', 'src': '/static/foodstim60/kiwi.jpg', 'key': 'NaN', 'origWidth': 410, 'origHeight': 410, 'width': 406.25, 'height': 406.25, 'widthPercent': 0.8, 'rescaleHeight': True, 'trialN': 25, 'loaded': True, 'loadedTime': 84446.29999995232, 'positionName': 'CENTER', 'positionCoords': [480, 109.5]}]",Rate how much you want to eat this food from 0 (least) to 10 (most).,84441.20000004768,1669830388500,kiwi,,1916.9000000953674,True,0.4,86358.10000014305,1916.9000000953674,True,HRV,HRV_0045,2022-11-30 17:48:02
26,"[{'imgObject': {}, 'id': 'cantaloupe', 'src': '/static/foodstim60/cantaloupe.jpg', 'key': 'NaN', 'origWidth': 409, 'origHeight': 409, 'width': 406.25, 'height': 406.25, 'widthPercent': 0.8, 'rescaleHeight': True, 'trialN': 26, 'loaded': True, 'loadedTime': 86387.79999995232, 'positionName': 'CENTER', 'positionCoords': [480, 109.5]}]",Rate how much you want to eat this food from 0 (least) to 10 (most).,86368.60000014305,1669830390427,cantaloupe,,1791.0,True,0.06,88159.60000014305,1791.0,True,HRV,HRV_0045,2022-11-30 17:48:02
27,"[{'imgObject': {}, 'id': 'sweetpotato', 'src': '/static/foodstim60/sweetpotato.jpg', 'key': 'NaN', 'origWidth': 410, 'origHeight': 410, 'width': 406.25, 'height': 406.25, 'widthPercent': 0.8, 'rescaleHeight': True, 'trialN': 27, 'loaded': True, 'loadedTime': 88170.20000004768, 'positionName': 'CENTER', 'positionCoords': [480, 109.5]}]",Rate how much you want to eat this food from 0 (least) to 10 (most).,88162.70000004768,1669830392221,sweetpotato,,1788.0999999046326,True,1.54,89950.79999995232,1788.0999999046326,True,HRV,HRV_0045,2022-11-30 17:48:02
28,"[{'imgObject': {}, 'id': 'luckycharms', 'src': '/static/foodstim60/luckycharms.jpg', 'key': 'NaN', 'origWidth': 410, 'origHeight': 409, 'width': 407.2432762836185, 'height': 406.25, 'widthPercent': 0.8, 'rescaleHeight': True, 'trialN': 28, 'loaded': True, 'loadedTime': 89957.29999995232, 'positionName': 'CENTER', 'positionCoords': [479.5, 109.5]}]",Rate how much you want to eat this food from 0 (least) to 10 (most).,89952.0,1669830394010,luckycharms,,2618.5,True,2.93,92570.5,2618.5,True,HRV,HRV_0045,2022-11-30 17:48:02
29,"[{'imgObject': {}, 'id': 'olives', 'src': '/static/foodstim60/olives.jpg', 'key': 'NaN', 'origWidth': 410, 'origHeight': 410, 'width': 406.25, 'height': 406.25, 'widthPercent': 0.8, 'rescaleHeight': True, 'trialN': 29, 'loaded': True, 'loadedTime': 92586.79999995232, 'positionName': 'CENTER', 'positionCoords': [480, 109.5]}]",Rate how much you want to eat this food from 0 (least) to 10 (most).,92574.10000014305,1669830396633,olives,,2294.5,True,0.12,94868.60000014305,2294.5,True,HRV,HRV_0045,2022-11-30 17:48:02
30,"[{'imgObject': {}, 'id': 'roastedpotatoes', 'src': '/static/foodstim60/roastedpotatoes.jpg', 'key': 'NaN', 'origWidth': 409, 'origHeight': 410, 'width': 405.2591463414633, 'height': 406.25, 'widthPercent': 0.8, 'rescaleHeight': True, 'trialN': 30, 'loaded': True, 'loadedTime': 94882.60000014305, 'positionName': 'CENTER', 'positionCoords': [480.5, 109.5]}]",Rate how much you want to eat this food from 0 (least) to 10 (most).,94871.40000009537,1669830398930,roastedpotatoes,,2548.0999999046326,True,5.42,97419.5,2548.0999999046326,True,HRV,HRV_0045,2022-11-30 17:48:02
31,"[{'imgObject': {}, 'id': 'burger', 'src': '/static/foodstim60/burger.jpg', 'key': 'NaN', 'origWidth': 409, 'origHeight': 409, 'width': 406.25, 'height': 406.25, 'widthPercent': 0.8, 'rescaleHeight': True, 'trialN': 31, 'loaded': True, 'loadedTime': 97435.79999995232, 'positionName': 'CENTER', 'positionCoords': [480, 109.5]}]",Rate how much you want to eat this food from 0 (least) to 10 (most).,97422.60000014305,1669830401481,burger,,1350.2999999523163,True,5.54,98772.90000009537,1350.2999999523163,True,HRV,HRV_0045,2022-11-30 17:48:02
32,"[{'imgObject': {}, 'id': 'Grapes', 'src': '/static/foodstim60/Grapes.jpg', 'key': 'NaN', 'origWidth': 411, 'origHeight': 411, 'width': 406.25, 'height': 406.25, 'widthPercent': 0.8, 'rescaleHeight': True, 'trialN': 32, 'loaded': True, 'loadedTime': 98786.5, 'positionName': 'CENTER', 'positionCoords': [480, 109.5]}]",Rate how much you want to eat this food from 0 (least) to 10 (most).,98776.0,1669830402834,Grapes,,1476.6000001430511,True,6.24,100252.60000014305,1476.6000001430511,True,HRV,HRV_0045,2022-11-30 17:48:02
33,"[{'imgObject': {}, 'id': 'apple slices', 'src': '/static/foodstim60/apple slices.jpg', 'key': 'NaN', 'origWidth': 409, 'origHeight': 410, 'width': 405.2591463414633, 'height': 406.25, 'widthPercent': 0.8, 'rescaleHeight': True, 'trialN': 33, 'loaded': True, 'loadedTime': 100269.29999995232, 'positionName': 'CENTER', 'positionCoords': [480.5, 109.5]}]",Rate how much you want to eat this food from 0 (least) to 10 (most).,100255.70000004768,1669830404298,apple slices,,1360.0999999046326,True,4.6000000000000005,101615.79999995232,1360.0999999046326,True,HRV,HRV_0045,2022-11-30 17:48:02
34,"[{'imgObject': {}, 'id': 'turkeysandwich', 'src': '/static/foodstim60/turkeysandwich.jpg', 'key': 'NaN', 'origWidth': 409, 'origHeight': 409, 'width': 406.25, 'height': 406.25, 'widthPercent': 0.8, 'rescaleHeight': True, 'trialN': 34, 'loaded': True, 'loadedTime': 101656.90000009537, 'positionName': 'CENTER', 'positionCoords': [480, 109.5]}]",Rate how much you want to eat this food from 0 (least) to 10 (most).,101619.20000004768,1669830405662,turkeysandwich,,1339.4000000953674,True,3.5,102958.60000014305,1339.4000000953674,True,HRV,HRV_0045,2022-11-30 17:48:02
35,"[{'imgObject': {}, 'id': 'corn cob', 'src': '/static/foodstim60/corn cob.jpg', 'key': 'NaN', 'origWidth': 411, 'origHeight': 411, 'width': 406.25, 'height': 406.25, 'widthPercent': 0.8, 'rescaleHeight': True, 'trialN': 35, 'loaded': True, 'loadedTime': 102975.10000014305, 'positionName': 'CENTER', 'positionCoords': [480, 109.5]}]",Rate how much you want to eat this food from 0 (least) to 10 (most).,102963.20000004768,1669830407006,corn cob,,1846.2000000476837,True,4.6000000000000005,104809.40000009537,1846.2000000476837,True,HRV,HRV_0045,2022-11-30 17:48:02
36,"[{'imgObject': {}, 'id': 'Tribe humus pita', 'src': '/static/foodstim60/Tribe humus pita.jpg', 'key': 'NaN', 'origWidth': 411, 'origHeight': 411, 'width': 406.25, 'height': 406.25, 'widthPercent': 0.8, 'rescaleHeight': True, 'trialN': 36, 'loaded': True, 'loadedTime': 104824.10000014305, 'positionName': 'CENTER', 'positionCoords': [480, 109.5]}]",Rate how much you want to eat this food from 0 (least) to 10 (most).,104812.70000004768,1669830408855,Tribe humus pita,,1369.2999999523163,True,2.7,106182.0,1369.2999999523163,True,HRV,HRV_0045,2022-11-30 17:48:02
37,"[{'imgObject': {}, 'id': 'chicken nuggets2', 'src': '/static/foodstim60/chicken nuggets2.jpg', 'key': 'NaN', 'origWidth': 410, 'origHeight': 409, 'width': 407.2432762836185, 'height': 406.25, 'widthPercent': 0.8, 'rescaleHeight': True, 'trialN': 37, 'loaded': True, 'loadedTime': 106196.10000014305, 'positionName': 'CENTER', 'positionCoords': [479.5, 109.5]}]",Rate how much you want to eat this food from 0 (least) to 10 (most).,106185.70000004768,1669830410228,chicken nuggets2,,32540.700000047684,True,4.0600000000000005,138726.40000009537,32540.700000047684,True,HRV,HRV_0045,2022-11-30 17:48:02
38,"[{'imgObject': {}, 'id': 'avocado', 'src': '/static/foodstim60/avocado.jpg', 'key': 'NaN', 'origWidth': 409, 'origHeight': 409, 'width': 406.25, 'height': 406.25, 'widthPercent': 0.8, 'rescaleHeight': True, 'trialN': 38, 'loaded': True, 'loadedTime': 138744.10000014305, 'positionName': 'CENTER', 'positionCoords': [480, 109.5]}]",Rate how much you want to eat this food from 0 (least) to 10 (most).,138730.20000004768,1669830442773,avocado,,1594.0999999046326,True,0.88,140324.29999995232,1594.0999999046326,True,HRV,HRV_0045,2022-11-30 17:48:02
39,"[{'imgObject': {}, 'id': 'popsicles', 'src': '/static/foodstim60/popsicles.jpg', 'key': 'NaN', 'origWidth': 410, 'origHeight': 410, 'width': 406.25, 'height': 406.25, 'widthPercent': 0.8, 'rescaleHeight': True, 'trialN': 39, 'loaded': True, 'loadedTime': 140339.79999995232, 'positionName': 'CENTER', 'positionCoords': [480, 109.5]}]",Rate how much you want to eat this food from 0 (least) to 10 (most).,140328.10000014305,1669830444371,popsicles,,1476.7999999523163,True,6.61,141804.90000009537,1476.7999999523163,True,HRV,HRV_0045,2022-11-30 17:48:02
40,"[{'imgObject': {}, 'id': 'orange slices', 'src': '/static/foodstim60/orange slices.jpg', 'key': 'NaN', 'origWidth': 409, 'origHeight': 410, 'width': 405.2591463414633, 'height': 406.25, 'widthPercent': 0.8, 'rescaleHeight': True, 'trialN': 40, 'loaded': True, 'loadedTime': 141830.40000009537, 'positionName': 'CENTER', 'positionCoords': [480.5, 109.5]}]",Rate how much you want to eat this food from 0 (least) to 10 (most).,141809.79999995232,1669830445853,orange slices,,1211.9000000953674,True,6.05,143021.70000004768,1211.9000000953674,True,HRV,HRV_0045,2022-11-30 17:48:02
41,"[{'imgObject': {}, 'id': 'eggs', 'src': '/static/foodstim60/eggs.jpg', 'key': 'NaN', 'origWidth': 409, 'origHeight': 409, 'width': 406.25, 'height': 406.25, 'widthPercent': 0.8, 'rescaleHeight': True, 'trialN': 41, 'loaded': True, 'loadedTime': 143028.70000004768, 'positionName': 'CENTER', 'positionCoords': [480, 109.5]}]",Rate how much you want to eat this food from 0 (least) to 10 (most).,143023.40000009537,1669830447066,eggs,,1459.2000000476837,True,4.89,144482.60000014305,1459.2000000476837,True,HRV,HRV_0045,2022-11-30 17:48:02
42,"[{'imgObject': {}, 'id': 'edamame', 'src': '/static/foodstim60/edamame.jpg', 'key': 'NaN', 'origWidth': 409, 'origHeight': 410, 'width': 405.2591463414633, 'height': 406.25, 'widthPercent': 0.8, 'rescaleHeight': True, 'trialN': 42, 'loaded': True, 'loadedTime': 144497.60000014305, 'positionName': 'CENTER', 'positionCoords': [480.5, 109.5]}]",Rate how much you want to eat this food from 0 (least) to 10 (most).,144485.10000014305,1669830448528,edamame,,1594.5999999046326,True,3.43,146079.70000004768,1594.5999999046326,True,HRV,HRV_0045,2022-11-30 17:48:02
43,"[{'imgObject': {}, 'id': 'cherries', 'src': '/static/foodstim60/cherries.jpg', 'key': 'NaN', 'origWidth': 410, 'origHeight': 411, 'width': 405.26155717761554, 'height': 406.25, 'widthPercent': 0.8, 'rescaleHeight': True, 'trialN': 43, 'loaded': True, 'loadedTime': 146100.90000009537, 'positionName': 'CENTER', 'positionCoords': [480.5, 109.5]}]",Rate how much you want to eat this food from 0 (least) to 10 (most).,146083.79999995232,1669830450126,cherries,,2148.100000143051,True,8.74,148231.90000009537,2148.100000143051,True,HRV,HRV_0045,2022-11-30 17:48:02
44,"[{'imgObject': {}, 'id': 'blueberries', 'src': '/static/foodstim60/blueberries.jpg', 'key': 'NaN', 'origWidth': 411, 'origHeight': 411, 'width': 406.25, 'height': 406.25, 'widthPercent': 0.8, 'rescaleHeight': True, 'trialN': 44, 'loaded': True, 'loadedTime': 148238.60000014305, 'positionName': 'CENTER', 'positionCoords': [480, 109.5]}]",Rate how much you want to eat this food from 0 (least) to 10 (most).,148233.0,1669830452276,blueberries,"[{'event': 'onblur', 'details': 'out of focus', 'performance time': 149157.90000009537, 'date time': 1669830453201}, {'event': 'onfocus', 'details': 'in focus', 'performance time': 149493.90000009537, 'date time': 1669830453536}]",1352.6000001430511,True,1.6400000000000001,149585.60000014305,1352.6000001430511,True,HRV,HRV_0045,2022-11-30 17:48:02
45,"[{'imgObject': {}, 'id': 'mango', 'src': '/static/foodstim60/mango.jpg', 'key': 'NaN', 'origWidth': 411, 'origHeight': 411, 'width': 406.25, 'height': 406.25, 'widthPercent': 0.8, 'rescaleHeight': True, 'trialN': 45, 'loaded': True, 'loadedTime': 149592.40000009537, 'positionName': 'CENTER', 'positionCoords': [480, 109.5]}]",Rate how much you want to eat this food from 0 (least) to 10 (most).,149587.20000004768,1669830453630,mango,,2443.0999999046326,True,8.77,152030.29999995232,2443.0999999046326,True,HRV,HRV_0045,2022-11-30 17:48:02
46,"[{'imgObject': {}, 'id': 'fruitsalad', 'src': '/static/foodstim60/fruitsalad.jpg', 'key': 'NaN', 'origWidth': 410, 'origHeight': 410, 'width': 406.25, 'height': 406.25, 'widthPercent': 0.8, 'rescaleHeight': True, 'trialN': 46, 'loaded': True, 'loadedTime': 152043.70000004768, 'positionName': 'CENTER', 'positionCoords': [480, 109.5]}]",Rate how much you want to eat this food from 0 (least) to 10 (most).,152032.5,1669830456075,fruitsalad,,1293.0,True,8.13,153325.5,1293.0,True,HRV,HRV_0045,2022-11-30 17:48:02
47,"[{'imgObject': {}, 'id': 'yogurt no spoon', 'src': '/static/foodstim60/yogurt no spoon.jpg', 'key': 'NaN', 'origWidth': 411, 'origHeight': 410, 'width': 407.2408536585365, 'height': 406.25, 'widthPercent': 0.8, 'rescaleHeight': True, 'trialN': 47, 'loaded': True, 'loadedTime': 153340.20000004768, 'positionName': 'CENTER', 'positionCoords': [479.5, 109.5]}]",Rate how much you want to eat this food from 0 (least) to 10 (most).,153328.20000004768,1669830457371,yogurt no spoon,,1438.2999999523163,True,7.03,154766.5,1438.2999999523163,True,HRV,HRV_0045,2022-11-30 17:48:02
48,"[{'imgObject': {}, 'id': 'mac & cheese', 'src': '/static/foodstim60/mac & cheese.jpg', 'key': 'NaN', 'origWidth': 410, 'origHeight': 410, 'width': 406.25, 'height': 406.25, 'widthPercent': 0.8, 'rescaleHeight': True, 'trialN': 48, 'loaded': True, 'loadedTime': 154778.29999995232, 'positionName': 'CENTER', 'positionCoords': [480, 109.5]}]",Rate how much you want to eat this food from 0 (least) to 10 (most).,154768.29999995232,1669830458811,mac & cheese,,1575.7000000476837,True,5.96,156344.0,1575.7000000476837,True,HRV,HRV_0045,2022-11-30 17:48:02
49,"[{'imgObject': {}, 'id': 'ice cream sundae 002', 'src': '/static/foodstim60/ice cream sundae 002.jpg', 'key': 'NaN', 'origWidth': 409, 'origHeight': 409, 'width': 406.25, 'height': 406.25, 'widthPercent': 0.8, 'rescaleHeight': True, 'trialN': 49, 'loaded': True, 'loadedTime': 156361.70000004768, 'positionName': 'CENTER', 'positionCoords': [480, 109.5]}]",Rate how much you want to eat this food from 0 (least) to 10 (most).,156346.29999995232,1669830460389,ice cream sundae 002,,1419.3000001907349,True,9.08,157765.60000014305,1419.3000001907349,True,HRV,HRV_0045,2022-11-30 17:48:02
50,"[{'imgObject': {}, 'id': 'grilled chicken strips', 'src': '/static/foodstim60/grilled chicken strips.jpg', 'key': 'NaN', 'origWidth': 410, 'origHeight': 411, 'width': 405.26155717761554, 'height': 406.25, 'widthPercent': 0.8, 'rescaleHeight': True, 'trialN': 50, 'loaded': True, 'loadedTime': 157782.29999995232, 'positionName': 'CENTER', 'positionCoords': [480.5, 109.5]}]",Rate how much you want to eat this food from 0 (least) to 10 (most).,157768.10000014305,1669830461811,grilled chicken strips,,1468.1999998092651,True,8.55,159236.29999995232,1468.1999998092651,True,HRV,HRV_0045,2022-11-30 17:48:02
51,"[{'imgObject': {}, 'id': 'cheerios', 'src': '/static/foodstim60/cheerios.jpg', 'key': 'NaN', 'origWidth': 409, 'origHeight': 410, 'width': 405.2591463414633, 'height': 406.25, 'widthPercent': 0.8, 'rescaleHeight': True, 'trialN': 51, 'loaded': True, 'loadedTime': 159250.10000014305, 'positionName': 'CENTER', 'positionCoords': [480.5, 109.5]}]",Rate how much you want to eat this food from 0 (least) to 10 (most).,159238.5,1669830463295,cheerios,,1662.7999999523163,True,5.67,160901.29999995232,1662.7999999523163,True,HRV,HRV_0045,2022-11-30 17:48:02
52,"[{'imgObject': {}, 'id': 'salad w chicken', 'src': '/static/foodstim60/salad w chicken.jpg', 'key': 'NaN', 'origWidth': 411, 'origHeight': 411, 'width': 406.25, 'height': 406.25, 'widthPercent': 0.8, 'rescaleHeight': True, 'trialN': 52, 'loaded': True, 'loadedTime': 160907.90000009537, 'positionName': 'CENTER', 'positionCoords': [480, 109.5]}]",Rate how much you want to eat this food from 0 (least) to 10 (most).,160903.29999995232,1669830464960,salad w chicken,,1506.7000000476837,True,6.44,162410.0,1506.7000000476837,True,HRV,HRV_0045,2022-11-30 17:48:02
53,"[{'imgObject': {}, 'id': 'strawberries', 'src': '/static/foodstim60/strawberries.jpg', 'key': 'NaN', 'origWidth': 410, 'origHeight': 410, 'width': 406.25, 'height': 406.25, 'widthPercent': 0.8, 'rescaleHeight': True, 'trialN': 53, 'loaded': True, 'loadedTime': 162416.29999995232, 'positionName': 'CENTER', 'positionCoords': [480, 109.5]}]",Rate how much you want to eat this food from 0 (least) to 10 (most).,162411.29999995232,1669830466468,strawberries,,1314.0,True,6.96,163725.29999995232,1314.0,True,HRV,HRV_0045,2022-11-30 17:48:02
54,"[{'imgObject': {}, 'id': 'blackbeanswithrice', 'src': '/static/foodstim60/blackbeanswithrice.jpg', 'key': 'NaN', 'origWidth': 410, 'origHeight': 410, 'width': 406.25, 'height': 406.25, 'widthPercent': 0.8, 'rescaleHeight': True, 'trialN': 54, 'loaded': True, 'loadedTime': 163733.29999995232, 'positionName': 'CENTER', 'positionCoords': [480, 109.5]}]",Rate how much you want to eat this food from 0 (least) to 10 (most).,163726.90000009537,1669830467783,blackbeanswithrice,,1994.0999999046326,True,3.37,165721.0,1994.0999999046326,True,HRV,HRV_0045,2022-11-30 17:48:02
55,"[{'imgObject': {}, 'id': 'sushi w_condiments', 'src': '/static/foodstim60/sushi w_condiments.jpg', 'key': 'NaN', 'origWidth': 410, 'origHeight': 410, 'width': 406.25, 'height': 406.25, 'widthPercent': 0.8, 'rescaleHeight': True, 'trialN': 55, 'loaded': True, 'loadedTime': 165726.60000014305, 'positionName': 'CENTER', 'positionCoords': [480, 109.5]}]",Rate how much you want to eat this food from 0 (least) to 10 (most).,165722.20000004768,1669830469779,sushi w_condiments,,2130.7999999523163,True,5.08,167853.0,2130.7999999523163,True,HRV,HRV_0045,2022-11-30 17:48:02
56,"[{'imgObject': {}, 'id': 'banana', 'src': '/static/foodstim60/banana.jpg', 'key': 'NaN', 'origWidth': 410, 'origHeight': 410, 'width': 406.25, 'height': 406.25, 'widthPercent': 0.8, 'rescaleHeight': True, 'trialN': 56, 'loaded': True, 'loadedTime': 167860.5, 'positionName': 'CENTER', 'positionCoords': [480, 109.5]}]",Rate how much you want to eat this food from 0 (least) to 10 (most).,167854.90000009537,1669830471911,banana,,2063.0999999046326,True,7.16,169918.0,2063.0999999046326,True,HRV,HRV_0045,2022-11-30 17:48:02
57,"[{'imgObject': {}, 'id': 'turkey sandwich', 'src': '/static/foodstim60/turkey sandwich.jpg', 'key': 'NaN', 'origWidth': 409, 'origHeight': 409, 'width': 406.25, 'height': 406.25, 'widthPercent': 0.8, 'rescaleHeight': True, 'trialN': 57, 'loaded': True, 'loadedTime': 169931.60000014305, 'positionName': 'CENTER', 'positionCoords': [480, 109.5]}]",Rate how much you want to eat this food from 0 (least) to 10 (most).,169921.0,1669830473977,turkey sandwich,,2645.5,True,7.15,172566.5,2645.5,True,HRV,HRV_0045,2022-11-30 17:48:02
58,"[{'imgObject': {}, 'id': 'raisin bran w milk', 'src': '/static/foodstim60/raisin bran w milk.jpg', 'key': 'NaN', 'origWidth': 411, 'origHeight': 411, 'width': 406.25, 'height': 406.25, 'widthPercent': 0.8, 'rescaleHeight': True, 'trialN': 58, 'loaded': True, 'loadedTime': 172581.20000004768, 'positionName': 'CENTER', 'positionCoords': [480, 109.5]}]",Rate how much you want to eat this food from 0 (least) to 10 (most).,172569.60000014305,1669830476626,raisin bran w milk,,1408.3999998569489,True,8.040000000000001,173978.0,1408.3999998569489,True,HRV,HRV_0045,2022-11-30 17:48:02
59,"[{'imgObject': {}, 'id': 'burrito', 'src': '/static/foodstim60/burrito.jpg', 'key': 'NaN', 'origWidth': 410, 'origHeight': 410, 'width': 406.25, 'height': 406.25, 'widthPercent': 0.8, 'rescaleHeight': True, 'trialN': 59, 'loaded': True, 'loadedTime': 174001, 'positionName': 'CENTER', 'positionCoords': [480, 109.5]}]",Rate how much you want to eat this food from 0 (least) to 10 (most).,173982.20000004768,1669830478039,burrito,,1748.7000000476837,True,3.37,175730.90000009537,1748.7000000476837,True,HRV,HRV_0045,2022-11-30 17:48:02
