trialN,stimuli,trialStartTime,trialStartTime_UNIX,stimulus1,stimulus2,stimulus1Bid,stimulus2Bid,delta,selected,rt,rt_UNIX,rt_perfnow,receivedResponse,rsp,trialEndTime,trialDuration,trialEndTime_UNIX,trialDuration_UNIX,exp,subjectId,date
0,"[{'imgObject': {}, 'id': 'steak', 'src': '/static/foodstim60/steak.jpg', 'key': 'u', 'origWidth': 410, 'origHeight': 410, 'width': 410, 'height': 410, 'widthPercent': 0.45, 'rescaleHeight': False, 'trialN': 0, 'loaded': True, 'loadedTime': 5512.700000047684, 'positionName': 'LEFT', 'positionCoords': [204.4, 155], 'bid': 9.06}, {'imgObject': {}, 'id': 'hotdog w must', 'src': '/static/foodstim60/hotdog w must.jpg', 'key': 'i', 'origWidth': 409, 'origHeight': 409, 'width': 409, 'height': 409, 'widthPercent': 0.45, 'rescaleHeight': False, 'trialN': 0, 'loaded': True, 'loadedTime': 5597.400000095367, 'positionName': 'RIGHT', 'positionCoords': [665.6, 155.5], 'bid': 7.140000000000001}]",6417.300000071526,1669832863523,steak,hotdog w must,9.06,7.140000000000001,-1.92,steak,1194.3999999761581,1195,1195.1999999284744,True,u,8119.700000047684,1702.3999999761581,1669832865225,1702,HRV,HRV_0125,2022-11-30 18:32:40
1,"[{'imgObject': {}, 'id': 'ice cream sundae 002', 'src': '/static/foodstim60/ice cream sundae 002.jpg', 'key': 'u', 'origWidth': 409, 'origHeight': 409, 'width': 409, 'height': 409, 'widthPercent': 0.45, 'rescaleHeight': False, 'trialN': 1, 'loaded': True, 'loadedTime': 5600, 'positionName': 'LEFT', 'positionCoords': [205.4, 155.5], 'bid': 7.73}, {'imgObject': {}, 'id': 'avocado', 'src': '/static/foodstim60/avocado.jpg', 'key': 'i', 'origWidth': 409, 'origHeight': 409, 'width': 409, 'height': 409, 'widthPercent': 0.45, 'rescaleHeight': False, 'trialN': 1, 'loaded': True, 'loadedTime': 5633.200000047684, 'positionName': 'RIGHT', 'positionCoords': [665.6, 155.5], 'bid': 6.65}]",8120.100000023842,1669832865226,ice cream sundae 002,avocado,7.73,6.65,-1.08,avocado,994.2000000476837,994,994.7000000476837,True,i,9631.5,1511.3999999761581,1669832866737,1511,HRV,HRV_0125,2022-11-30 18:32:40
2,"[{'imgObject': {}, 'id': 'banana', 'src': '/static/foodstim60/banana.jpg', 'key': 'u', 'origWidth': 410, 'origHeight': 410, 'width': 410, 'height': 410, 'widthPercent': 0.45, 'rescaleHeight': False, 'trialN': 2, 'loaded': True, 'loadedTime': 5679.900000095367, 'positionName': 'LEFT', 'positionCoords': [204.4, 155], 'bid': 5.37}, {'imgObject': {}, 'id': 'raisin bran w milk', 'src': '/static/foodstim60/raisin bran w milk.jpg', 'key': 'i', 'origWidth': 411, 'origHeight': 411, 'width': 411, 'height': 411, 'widthPercent': 0.45, 'rescaleHeight': False, 'trialN': 2, 'loaded': True, 'loadedTime': 5697.100000023842, 'positionName': 'RIGHT', 'positionCoords': [665.6, 154.5], 'bid': 5.46}]",9631.700000047684,1669832866737,banana,raisin bran w milk,5.37,5.46,0.08999999999999986,banana,1105.2999999523163,1106,1105.8999999761581,True,u,11242.300000071526,1610.6000000238419,1669832868348,1611,HRV,HRV_0125,2022-11-30 18:32:40
3,"[{'imgObject': {}, 'id': 'burger', 'src': '/static/foodstim60/burger.jpg', 'key': 'u', 'origWidth': 409, 'origHeight': 409, 'width': 409, 'height': 409, 'widthPercent': 0.45, 'rescaleHeight': False, 'trialN': 3, 'loaded': True, 'loadedTime': 5712.200000047684, 'positionName': 'LEFT', 'positionCoords': [205.4, 155.5], 'bid': 7.28}, {'imgObject': {}, 'id': 'hotdog w must', 'src': '/static/foodstim60/hotdog w must.jpg', 'key': 'i', 'origWidth': 409, 'origHeight': 409, 'width': 409, 'height': 409, 'widthPercent': 0.45, 'rescaleHeight': False, 'trialN': 3, 'loaded': True, 'loadedTime': 5594.100000023842, 'positionName': 'RIGHT', 'positionCoords': [665.6, 155.5], 'bid': 7.140000000000001}]",11242.5,1669832868348,burger,hotdog w must,7.28,7.140000000000001,-0.13999999999999968,burger,1104.0,1104,1104.3000000715256,True,u,12849.5,1607.0,1669832869955,1607,HRV,HRV_0125,2022-11-30 18:32:40
4,"[{'imgObject': {}, 'id': 'chickenfingers', 'src': '/static/foodstim60/chickenfingers.jpg', 'key': 'u', 'origWidth': 410, 'origHeight': 410, 'width': 410, 'height': 410, 'widthPercent': 0.45, 'rescaleHeight': False, 'trialN': 4, 'loaded': True, 'loadedTime': 5714.100000023842, 'positionName': 'LEFT', 'positionCoords': [204.4, 155], 'bid': 6.75}, {'imgObject': {}, 'id': 'pear', 'src': '/static/foodstim60/pear.jpg', 'key': 'i', 'origWidth': 411, 'origHeight': 410, 'width': 411, 'height': 410, 'widthPercent': 0.45, 'rescaleHeight': False, 'trialN': 4, 'loaded': True, 'loadedTime': 5756.400000095367, 'positionName': 'RIGHT', 'positionCoords': [665.6, 155], 'bid': 7.07}]",12849.800000071526,1669832869955,chickenfingers,pear,6.75,7.07,0.3200000000000003,pear,1290.0,1291,1290.5,True,i,14643.100000023842,1793.2999999523163,1669832871749,1794,HRV,HRV_0125,2022-11-30 18:32:40
5,"[{'imgObject': {}, 'id': 'Grapes', 'src': '/static/foodstim60/Grapes.jpg', 'key': 'u', 'origWidth': 411, 'origHeight': 411, 'width': 411, 'height': 411, 'widthPercent': 0.45, 'rescaleHeight': False, 'trialN': 5, 'loaded': True, 'loadedTime': 5770.900000095367, 'positionName': 'LEFT', 'positionCoords': [203.4, 154.5], 'bid': 6.17}, {'imgObject': {}, 'id': 'salad w chicken', 'src': '/static/foodstim60/salad w chicken.jpg', 'key': 'i', 'origWidth': 411, 'origHeight': 411, 'width': 411, 'height': 411, 'widthPercent': 0.45, 'rescaleHeight': False, 'trialN': 5, 'loaded': True, 'loadedTime': 5812.900000095367, 'positionName': 'RIGHT', 'positionCoords': [665.6, 154.5], 'bid': 6.09}]",14643.200000047684,1669832871749,Grapes,salad w chicken,6.17,6.09,-0.08000000000000007,salad w chicken,1278.8999999761581,1279,1279.3999999761581,True,i,16437.600000023842,1794.3999999761581,1669832873543,1794,HRV,HRV_0125,2022-11-30 18:32:40
6,"[{'imgObject': {}, 'id': 'mac & cheese', 'src': '/static/foodstim60/mac & cheese.jpg', 'key': 'u', 'origWidth': 410, 'origHeight': 410, 'width': 410, 'height': 410, 'widthPercent': 0.45, 'rescaleHeight': False, 'trialN': 6, 'loaded': True, 'loadedTime': 5846.800000071526, 'positionName': 'LEFT', 'positionCoords': [204.4, 155], 'bid': 4.21}, {'imgObject': {}, 'id': 'avocado', 'src': '/static/foodstim60/avocado.jpg', 'key': 'i', 'origWidth': 409, 'origHeight': 409, 'width': 409, 'height': 409, 'widthPercent': 0.45, 'rescaleHeight': False, 'trialN': 6, 'loaded': True, 'loadedTime': 5633.5, 'positionName': 'RIGHT', 'positionCoords': [665.6, 155.5], 'bid': 6.65}]",16437.800000071526,1669832873543,mac & cheese,avocado,4.21,6.65,2.4400000000000004,avocado,838.1000000238419,839,838.6000000238419,True,i,17783.300000071526,1345.5,1669832874889,1346,HRV,HRV_0125,2022-11-30 18:32:40
7,"[{'imgObject': {}, 'id': 'bagel and cc', 'src': '/static/foodstim60/bagel and cc.jpg', 'key': 'u', 'origWidth': 410, 'origHeight': 410, 'width': 410, 'height': 410, 'widthPercent': 0.45, 'rescaleHeight': False, 'trialN': 7, 'loaded': True, 'loadedTime': 5867.200000047684, 'positionName': 'LEFT', 'positionCoords': [204.4, 155], 'bid': 5.5}, {'imgObject': {}, 'id': 'kiwi', 'src': '/static/foodstim60/kiwi.jpg', 'key': 'i', 'origWidth': 410, 'origHeight': 410, 'width': 410, 'height': 410, 'widthPercent': 0.45, 'rescaleHeight': False, 'trialN': 7, 'loaded': True, 'loadedTime': 5877.700000047684, 'positionName': 'RIGHT', 'positionCoords': [665.6, 155], 'bid': 4.48}]",17783.5,1669832874889,bagel and cc,kiwi,5.5,4.48,-1.0199999999999996,bagel and cc,1023.2000000476837,1024,1023.7000000476837,True,u,19313.800000071526,1530.3000000715256,1669832876419,1530,HRV,HRV_0125,2022-11-30 18:32:40
8,"[{'imgObject': {}, 'id': 'hotdog w must', 'src': '/static/foodstim60/hotdog w must.jpg', 'key': 'u', 'origWidth': 409, 'origHeight': 409, 'width': 409, 'height': 409, 'widthPercent': 0.45, 'rescaleHeight': False, 'trialN': 8, 'loaded': True, 'loadedTime': 5597.800000071526, 'positionName': 'LEFT', 'positionCoords': [205.4, 155.5], 'bid': 7.140000000000001}, {'imgObject': {}, 'id': 'raspberries', 'src': '/static/foodstim60/raspberries.jpg', 'key': 'i', 'origWidth': 411, 'origHeight': 411, 'width': 411, 'height': 411, 'widthPercent': 0.45, 'rescaleHeight': False, 'trialN': 8, 'loaded': True, 'loadedTime': 5888.400000095367, 'positionName': 'RIGHT', 'positionCoords': [665.6, 154.5], 'bid': 8.5}]",19314.0,1669832876420,hotdog w must,raspberries,7.140000000000001,8.5,1.3599999999999994,hotdog w must,869.9000000953674,870,870.7000000476837,True,u,20700.900000095367,1386.9000000953674,1669832877806,1386,HRV,HRV_0125,2022-11-30 18:32:40
9,"[{'imgObject': {}, 'id': 'omelette', 'src': '/static/foodstim60/omelette.jpg', 'key': 'u', 'origWidth': 410, 'origHeight': 409, 'width': 410, 'height': 409, 'widthPercent': 0.45, 'rescaleHeight': False, 'trialN': 9, 'loaded': True, 'loadedTime': 5921, 'positionName': 'LEFT', 'positionCoords': [204.4, 155.5], 'bid': 4.87}, {'imgObject': {}, 'id': 'cheerios', 'src': '/static/foodstim60/cheerios.jpg', 'key': 'i', 'origWidth': 409, 'origHeight': 410, 'width': 409, 'height': 410, 'widthPercent': 0.45, 'rescaleHeight': False, 'trialN': 9, 'loaded': True, 'loadedTime': 5942.5, 'positionName': 'RIGHT', 'positionCoords': [665.6, 155], 'bid': 3.96}]",20701.100000023842,1669832877807,omelette,cheerios,4.87,3.96,-0.9100000000000001,omelette,1246.2000000476837,1246,1246.5,True,u,22464.400000095367,1763.3000000715256,1669832879570,1763,HRV,HRV_0125,2022-11-30 18:32:40
10,"[{'imgObject': {}, 'id': 'turkeysandwich', 'src': '/static/foodstim60/turkeysandwich.jpg', 'key': 'u', 'origWidth': 409, 'origHeight': 409, 'width': 409, 'height': 409, 'widthPercent': 0.45, 'rescaleHeight': False, 'trialN': 10, 'loaded': True, 'loadedTime': 5948.900000095367, 'positionName': 'LEFT', 'positionCoords': [205.4, 155.5], 'bid': 5.48}, {'imgObject': {}, 'id': 'eggs', 'src': '/static/foodstim60/eggs.jpg', 'key': 'i', 'origWidth': 409, 'origHeight': 409, 'width': 409, 'height': 409, 'widthPercent': 0.45, 'rescaleHeight': False, 'trialN': 10, 'loaded': True, 'loadedTime': 5958.100000023842, 'positionName': 'RIGHT', 'positionCoords': [665.6, 155.5], 'bid': 5.92}]",22464.700000047684,1669832879570,turkeysandwich,eggs,5.48,5.92,0.4399999999999995,turkeysandwich,741.7000000476837,742,742.2000000476837,True,u,23736.700000047684,1272.0,1669832880842,1272,HRV,HRV_0125,2022-11-30 18:32:40
11,"[{'imgObject': {}, 'id': 'olives', 'src': '/static/foodstim60/olives.jpg', 'key': 'u', 'origWidth': 410, 'origHeight': 410, 'width': 410, 'height': 410, 'widthPercent': 0.45, 'rescaleHeight': False, 'trialN': 11, 'loaded': True, 'loadedTime': 5967.400000095367, 'positionName': 'LEFT', 'positionCoords': [204.4, 155], 'bid': 6}, {'imgObject': {}, 'id': 'Tribe humus pita', 'src': '/static/foodstim60/Tribe humus pita.jpg', 'key': 'i', 'origWidth': 411, 'origHeight': 411, 'width': 411, 'height': 411, 'widthPercent': 0.45, 'rescaleHeight': False, 'trialN': 11, 'loaded': True, 'loadedTime': 6010.100000023842, 'positionName': 'RIGHT', 'positionCoords': [665.6, 154.5], 'bid': 5.28}]",23736.900000095367,1669832880842,olives,Tribe humus pita,6.0,5.28,-0.7199999999999998,Tribe humus pita,1080.5,1081,1081.0,True,i,25322.300000071526,1585.3999999761581,1669832882428,1586,HRV,HRV_0125,2022-11-30 18:32:40
12,"[{'imgObject': {}, 'id': 'hotdog w must', 'src': '/static/foodstim60/hotdog w must.jpg', 'key': 'u', 'origWidth': 409, 'origHeight': 409, 'width': 409, 'height': 409, 'widthPercent': 0.45, 'rescaleHeight': False, 'trialN': 12, 'loaded': True, 'loadedTime': 5589.700000047684, 'positionName': 'LEFT', 'positionCoords': [205.4, 155.5], 'bid': 7.140000000000001}, {'imgObject': {}, 'id': 'baked potato', 'src': '/static/foodstim60/baked potato.jpg', 'key': 'i', 'origWidth': 409, 'origHeight': 410, 'width': 409, 'height': 410, 'widthPercent': 0.45, 'rescaleHeight': False, 'trialN': 12, 'loaded': True, 'loadedTime': 6020.600000023842, 'positionName': 'RIGHT', 'positionCoords': [665.6, 155], 'bid': 4.68}]",25322.600000023842,1669832882428,hotdog w must,baked potato,7.140000000000001,4.68,-2.460000000000001,baked potato,1030.6000000238419,1031,1031.0,True,i,26867.400000095367,1544.8000000715256,1669832883973,1545,HRV,HRV_0125,2022-11-30 18:32:40
13,"[{'imgObject': {}, 'id': 'apple slices', 'src': '/static/foodstim60/apple slices.jpg', 'key': 'u', 'origWidth': 409, 'origHeight': 410, 'width': 409, 'height': 410, 'widthPercent': 0.45, 'rescaleHeight': False, 'trialN': 13, 'loaded': True, 'loadedTime': 6045.200000047684, 'positionName': 'LEFT', 'positionCoords': [205.4, 155], 'bid': 5.18}, {'imgObject': {}, 'id': 'eggsalad', 'src': '/static/foodstim60/eggsalad.jpg', 'key': 'i', 'origWidth': 410, 'origHeight': 409, 'width': 410, 'height': 409, 'widthPercent': 0.45, 'rescaleHeight': False, 'trialN': 13, 'loaded': True, 'loadedTime': 6082.600000023842, 'positionName': 'RIGHT', 'positionCoords': [665.6, 155.5], 'bid': 3.96}]",26867.600000023842,1669832883973,apple slices,eggsalad,5.18,3.96,-1.2199999999999998,apple slices,877.5,878,878.1000000238419,True,u,28262.400000095367,1394.8000000715256,1669832885368,1395,HRV,HRV_0125,2022-11-30 18:32:40
14,"[{'imgObject': {}, 'id': 'strawberries', 'src': '/static/foodstim60/strawberries.jpg', 'key': 'u', 'origWidth': 410, 'origHeight': 410, 'width': 410, 'height': 410, 'widthPercent': 0.45, 'rescaleHeight': False, 'trialN': 14, 'loaded': True, 'loadedTime': 6100, 'positionName': 'LEFT', 'positionCoords': [204.4, 155], 'bid': 8.21}, {'imgObject': {}, 'id': 'yogurt no spoon', 'src': '/static/foodstim60/yogurt no spoon.jpg', 'key': 'i', 'origWidth': 411, 'origHeight': 410, 'width': 411, 'height': 410, 'widthPercent': 0.45, 'rescaleHeight': False, 'trialN': 14, 'loaded': True, 'loadedTime': 6113.900000095367, 'positionName': 'RIGHT', 'positionCoords': [665.6, 155], 'bid': 8.32}]",28262.800000071526,1669832885368,strawberries,yogurt no spoon,8.21,8.32,0.10999999999999943,strawberries,705.5,706,706.1000000238419,True,u,29488.600000023842,1225.7999999523163,1669832886594,1226,HRV,HRV_0125,2022-11-30 18:32:40
15,"[{'imgObject': {}, 'id': 'sushi w_condiments', 'src': '/static/foodstim60/sushi w_condiments.jpg', 'key': 'u', 'origWidth': 410, 'origHeight': 410, 'width': 410, 'height': 410, 'widthPercent': 0.45, 'rescaleHeight': False, 'trialN': 15, 'loaded': True, 'loadedTime': 6118.200000047684, 'positionName': 'LEFT', 'positionCoords': [204.4, 155], 'bid': 4.9}, {'imgObject': {}, 'id': 'froot loops w milk', 'src': '/static/foodstim60/froot loops w milk.jpg', 'key': 'i', 'origWidth': 410, 'origHeight': 410, 'width': 410, 'height': 410, 'widthPercent': 0.45, 'rescaleHeight': False, 'trialN': 15, 'loaded': True, 'loadedTime': 6158.700000047684, 'positionName': 'RIGHT', 'positionCoords': [665.6, 155], 'bid': 4.76}]",29488.700000047684,1669832886594,sushi w_condiments,froot loops w milk,4.9,4.76,-0.14000000000000057,sushi w_condiments,1217.5,1218,1218.0,True,u,31209.800000071526,1721.1000000238419,1669832888315,1721,HRV,HRV_0125,2022-11-30 18:32:40
16,"[{'imgObject': {}, 'id': 'shreddedwheatwithmilk', 'src': '/static/foodstim60/shreddedwheatwithmilk.jpg', 'key': 'u', 'origWidth': 410, 'origHeight': 410, 'width': 410, 'height': 410, 'widthPercent': 0.45, 'rescaleHeight': False, 'trialN': 16, 'loaded': True, 'loadedTime': 6165.700000047684, 'positionName': 'LEFT', 'positionCoords': [204.4, 155], 'bid': 3.34}, {'imgObject': {}, 'id': 'sweetpotato', 'src': '/static/foodstim60/sweetpotato.jpg', 'key': 'i', 'origWidth': 410, 'origHeight': 410, 'width': 410, 'height': 410, 'widthPercent': 0.45, 'rescaleHeight': False, 'trialN': 16, 'loaded': True, 'loadedTime': 6180.5, 'positionName': 'RIGHT', 'positionCoords': [665.6, 155], 'bid': 2.25}]",31210.0,1669832888316,shreddedwheatwithmilk,sweetpotato,3.34,2.25,-1.0899999999999999,shreddedwheatwithmilk,1162.9000000953674,1163,1163.5,True,u,32891.0,1681.0,1669832889997,1681,HRV,HRV_0125,2022-11-30 18:32:40
17,"[{'imgObject': {}, 'id': 'tacos', 'src': '/static/foodstim60/tacos.jpg', 'key': 'u', 'origWidth': 411, 'origHeight': 411, 'width': 411, 'height': 411, 'widthPercent': 0.45, 'rescaleHeight': False, 'trialN': 17, 'loaded': True, 'loadedTime': 6211.600000023842, 'positionName': 'LEFT', 'positionCoords': [203.4, 154.5], 'bid': 8.620000000000001}, {'imgObject': {}, 'id': 'yogurt no spoon', 'src': '/static/foodstim60/yogurt no spoon.jpg', 'key': 'i', 'origWidth': 411, 'origHeight': 410, 'width': 411, 'height': 410, 'widthPercent': 0.45, 'rescaleHeight': False, 'trialN': 17, 'loaded': True, 'loadedTime': 6110.800000071526, 'positionName': 'RIGHT', 'positionCoords': [665.6, 155], 'bid': 8.32}]",32891.10000002384,1669832889997,tacos,yogurt no spoon,8.620000000000001,8.32,-0.3000000000000007,tacos,790.1000000238419,790,790.5,True,u,34191.5,1300.3999999761581,1669832891297,1300,HRV,HRV_0125,2022-11-30 18:32:40
18,"[{'imgObject': {}, 'id': 'raspberries', 'src': '/static/foodstim60/raspberries.jpg', 'key': 'u', 'origWidth': 411, 'origHeight': 411, 'width': 411, 'height': 411, 'widthPercent': 0.45, 'rescaleHeight': False, 'trialN': 18, 'loaded': True, 'loadedTime': 5887.200000047684, 'positionName': 'LEFT', 'positionCoords': [203.4, 154.5], 'bid': 8.5}, {'imgObject': {}, 'id': 'banana', 'src': '/static/foodstim60/banana.jpg', 'key': 'i', 'origWidth': 410, 'origHeight': 410, 'width': 410, 'height': 410, 'widthPercent': 0.45, 'rescaleHeight': False, 'trialN': 18, 'loaded': True, 'loadedTime': 5671.300000071526, 'positionName': 'RIGHT', 'positionCoords': [665.6, 155], 'bid': 5.37}]",34191.800000071526,1669832891297,raspberries,banana,8.5,5.37,-3.13,raspberries,734.0,735,734.3999999761581,True,u,35432.800000071526,1241.0,1669832892538,1241,HRV,HRV_0125,2022-11-30 18:32:40
19,"[{'imgObject': {}, 'id': 'popsicles', 'src': '/static/foodstim60/popsicles.jpg', 'key': 'u', 'origWidth': 410, 'origHeight': 410, 'width': 410, 'height': 410, 'widthPercent': 0.45, 'rescaleHeight': False, 'trialN': 19, 'loaded': True, 'loadedTime': 6414.300000071526, 'positionName': 'LEFT', 'positionCoords': [204.4, 155], 'bid': 6.96}, {'imgObject': {}, 'id': 'granola w milk', 'src': '/static/foodstim60/granola w milk.jpg', 'key': 'i', 'origWidth': 410, 'origHeight': 410, 'width': 410, 'height': 410, 'widthPercent': 0.45, 'rescaleHeight': False, 'trialN': 19, 'loaded': True, 'loadedTime': 6216.400000095367, 'positionName': 'RIGHT', 'positionCoords': [665.6, 155], 'bid': 8.700000000000001}]",35433.0,1669832892539,popsicles,granola w milk,6.96,8.700000000000001,1.740000000000001,popsicles,852.1000000238419,853,853.1000000238419,True,u,36795.300000071526,1362.3000000715256,1669832893901,1362,HRV,HRV_0125,2022-11-30 18:32:40
20,"[{'imgObject': {}, 'id': 'bagel plain', 'src': '/static/foodstim60/bagel plain.jpg', 'key': 'u', 'origWidth': 410, 'origHeight': 410, 'width': 410, 'height': 410, 'widthPercent': 0.45, 'rescaleHeight': False, 'trialN': 20, 'loaded': True, 'loadedTime': 6223.800000071526, 'positionName': 'LEFT', 'positionCoords': [204.4, 155], 'bid': 5.03}, {'imgObject': {}, 'id': 'blueberries', 'src': '/static/foodstim60/blueberries.jpg', 'key': 'i', 'origWidth': 411, 'origHeight': 411, 'width': 411, 'height': 411, 'widthPercent': 0.45, 'rescaleHeight': False, 'trialN': 20, 'loaded': True, 'loadedTime': 6230.900000095367, 'positionName': 'RIGHT', 'positionCoords': [665.6, 154.5], 'bid': 7.71}]",36795.5,1669832893901,bagel plain,blueberries,5.03,7.71,2.6799999999999997,blueberries,820.3000000715256,821,820.8000000715256,True,i,38126.300000071526,1330.8000000715256,1669832895232,1331,HRV,HRV_0125,2022-11-30 18:32:40
21,"[{'imgObject': {}, 'id': 'shreddedwheatwithmilk', 'src': '/static/foodstim60/shreddedwheatwithmilk.jpg', 'key': 'u', 'origWidth': 410, 'origHeight': 410, 'width': 410, 'height': 410, 'widthPercent': 0.45, 'rescaleHeight': False, 'trialN': 21, 'loaded': True, 'loadedTime': 6169.600000023842, 'positionName': 'LEFT', 'positionCoords': [204.4, 155], 'bid': 3.34}, {'imgObject': {}, 'id': 'kiwi', 'src': '/static/foodstim60/kiwi.jpg', 'key': 'i', 'origWidth': 410, 'origHeight': 410, 'width': 410, 'height': 410, 'widthPercent': 0.45, 'rescaleHeight': False, 'trialN': 21, 'loaded': True, 'loadedTime': 5884.900000095367, 'positionName': 'RIGHT', 'positionCoords': [665.6, 155], 'bid': 4.48}]",38126.5,1669832895232,shreddedwheatwithmilk,kiwi,3.34,4.48,1.1400000000000006,shreddedwheatwithmilk,922.8000000715256,923,923.4000000953674,True,u,39559.0,1432.5,1669832896665,1433,HRV,HRV_0125,2022-11-30 18:32:40
22,"[{'imgObject': {}, 'id': 'seaweed', 'src': '/static/foodstim60/seaweed.jpg', 'key': 'u', 'origWidth': 410, 'origHeight': 410, 'width': 410, 'height': 410, 'widthPercent': 0.45, 'rescaleHeight': False, 'trialN': 22, 'loaded': True, 'loadedTime': 6233.5, 'positionName': 'LEFT', 'positionCoords': [204.4, 155], 'bid': 4.5600000000000005}, {'imgObject': {}, 'id': 'edamame', 'src': '/static/foodstim60/edamame.jpg', 'key': 'i', 'origWidth': 409, 'origHeight': 410, 'width': 409, 'height': 410, 'widthPercent': 0.45, 'rescaleHeight': False, 'trialN': 22, 'loaded': True, 'loadedTime': 6266.100000023842, 'positionName': 'RIGHT', 'positionCoords': [665.6, 155], 'bid': 3.4}]",39559.200000047684,1669832896665,seaweed,edamame,4.5600000000000005,3.4,-1.1600000000000006,seaweed,1207.6000000238419,1208,1208.2000000476837,True,u,41279.40000009537,1720.2000000476837,1669832898385,1720,HRV,HRV_0125,2022-11-30 18:32:40
23,"[{'imgObject': {}, 'id': 'corn cob', 'src': '/static/foodstim60/corn cob.jpg', 'key': 'u', 'origWidth': 411, 'origHeight': 411, 'width': 411, 'height': 411, 'widthPercent': 0.45, 'rescaleHeight': False, 'trialN': 23, 'loaded': True, 'loadedTime': 6266.600000023842, 'positionName': 'LEFT', 'positionCoords': [203.4, 154.5], 'bid': 4.75}, {'imgObject': {}, 'id': 'sweetpotato', 'src': '/static/foodstim60/sweetpotato.jpg', 'key': 'i', 'origWidth': 410, 'origHeight': 410, 'width': 410, 'height': 410, 'widthPercent': 0.45, 'rescaleHeight': False, 'trialN': 23, 'loaded': True, 'loadedTime': 6177.100000023842, 'positionName': 'RIGHT', 'positionCoords': [665.6, 155], 'bid': 2.25}]",41279.5,1669832898385,corn cob,sweetpotato,4.75,2.25,-2.5,corn cob,1543.6000000238419,1544,1544.1000000238419,True,u,43342.0,2062.5,1669832900447,2062,HRV,HRV_0125,2022-11-30 18:32:40
24,"[{'imgObject': {}, 'id': 'tacos', 'src': '/static/foodstim60/tacos.jpg', 'key': 'u', 'origWidth': 411, 'origHeight': 411, 'width': 411, 'height': 411, 'widthPercent': 0.45, 'rescaleHeight': False, 'trialN': 24, 'loaded': True, 'loadedTime': 6213.200000047684, 'positionName': 'LEFT', 'positionCoords': [203.4, 154.5], 'bid': 8.620000000000001}, {'imgObject': {}, 'id': 'avocado', 'src': '/static/foodstim60/avocado.jpg', 'key': 'i', 'origWidth': 409, 'origHeight': 409, 'width': 409, 'height': 409, 'widthPercent': 0.45, 'rescaleHeight': False, 'trialN': 24, 'loaded': True, 'loadedTime': 5635.700000047684, 'positionName': 'RIGHT', 'positionCoords': [665.6, 155.5], 'bid': 6.65}]",43342.10000002384,1669832900448,tacos,avocado,8.620000000000001,6.65,-1.9700000000000006,tacos,1031.7000000476837,1032,1032.0,True,u,44885.0,1542.8999999761581,1669832901991,1543,HRV,HRV_0125,2022-11-30 18:32:40
25,"[{'imgObject': {}, 'id': 'roastedpotatoes', 'src': '/static/foodstim60/roastedpotatoes.jpg', 'key': 'u', 'origWidth': 409, 'origHeight': 410, 'width': 409, 'height': 410, 'widthPercent': 0.45, 'rescaleHeight': False, 'trialN': 25, 'loaded': True, 'loadedTime': 6275.400000095367, 'positionName': 'LEFT', 'positionCoords': [205.4, 155], 'bid': 4.15}, {'imgObject': {}, 'id': 'chicken nuggets2', 'src': '/static/foodstim60/chicken nuggets2.jpg', 'key': 'i', 'origWidth': 410, 'origHeight': 409, 'width': 410, 'height': 409, 'widthPercent': 0.45, 'rescaleHeight': False, 'trialN': 25, 'loaded': True, 'loadedTime': 6291.700000047684, 'positionName': 'RIGHT', 'positionCoords': [665.6, 155.5], 'bid': 6.43}]",44885.10000002384,1669832901991,roastedpotatoes,chicken nuggets2,4.15,6.43,2.2799999999999994,roastedpotatoes,1234.3000000715256,1234,1234.7000000476837,True,u,46630.90000009537,1745.8000000715256,1669832903736,1745,HRV,HRV_0125,2022-11-30 18:32:40
26,"[{'imgObject': {}, 'id': 'Tribe humus pita', 'src': '/static/foodstim60/Tribe humus pita.jpg', 'key': 'u', 'origWidth': 411, 'origHeight': 411, 'width': 411, 'height': 411, 'widthPercent': 0.45, 'rescaleHeight': False, 'trialN': 26, 'loaded': True, 'loadedTime': 6007.700000047684, 'positionName': 'LEFT', 'positionCoords': [203.4, 154.5], 'bid': 5.28}, {'imgObject': {}, 'id': 'yogurt no spoon', 'src': '/static/foodstim60/yogurt no spoon.jpg', 'key': 'i', 'origWidth': 411, 'origHeight': 410, 'width': 411, 'height': 410, 'widthPercent': 0.45, 'rescaleHeight': False, 'trialN': 26, 'loaded': True, 'loadedTime': 6109.100000023842, 'positionName': 'RIGHT', 'positionCoords': [665.6, 155], 'bid': 8.32}]",46631.0,1669832903737,Tribe humus pita,yogurt no spoon,5.28,8.32,3.04,yogurt no spoon,1071.8000000715256,1072,1072.4000000953674,True,i,48209.700000047684,1578.7000000476837,1669832905315,1578,HRV,HRV_0125,2022-11-30 18:32:40
27,"[{'imgObject': {}, 'id': 'eggsalad', 'src': '/static/foodstim60/eggsalad.jpg', 'key': 'u', 'origWidth': 410, 'origHeight': 409, 'width': 410, 'height': 409, 'widthPercent': 0.45, 'rescaleHeight': False, 'trialN': 27, 'loaded': True, 'loadedTime': 6082.800000071526, 'positionName': 'LEFT', 'positionCoords': [204.4, 155.5], 'bid': 3.96}, {'imgObject': {}, 'id': 'cheerios', 'src': '/static/foodstim60/cheerios.jpg', 'key': 'i', 'origWidth': 409, 'origHeight': 410, 'width': 409, 'height': 410, 'widthPercent': 0.45, 'rescaleHeight': False, 'trialN': 27, 'loaded': True, 'loadedTime': 5942.900000095367, 'positionName': 'RIGHT', 'positionCoords': [665.6, 155], 'bid': 3.96}]",48209.90000009537,1669832905315,eggsalad,cheerios,3.96,3.96,0.0,eggsalad,1071.0999999046326,1072,1071.5,True,u,49798.40000009537,1588.5,1669832906904,1589,HRV,HRV_0125,2022-11-30 18:32:40
28,"[{'imgObject': {}, 'id': 'blueberries', 'src': '/static/foodstim60/blueberries.jpg', 'key': 'u', 'origWidth': 411, 'origHeight': 411, 'width': 411, 'height': 411, 'widthPercent': 0.45, 'rescaleHeight': False, 'trialN': 28, 'loaded': True, 'loadedTime': 6231.100000023842, 'positionName': 'LEFT', 'positionCoords': [203.4, 154.5], 'bid': 7.71}, {'imgObject': {}, 'id': 'mango', 'src': '/static/foodstim60/mango.jpg', 'key': 'i', 'origWidth': 411, 'origHeight': 411, 'width': 411, 'height': 411, 'widthPercent': 0.45, 'rescaleHeight': False, 'trialN': 28, 'loaded': True, 'loadedTime': 6295.900000095367, 'positionName': 'RIGHT', 'positionCoords': [665.6, 154.5], 'bid': 7.57}]",49798.700000047684,1669832906904,blueberries,mango,7.71,7.57,-0.13999999999999968,mango,1426.2000000476837,1427,1426.7000000476837,True,i,51736.5,1937.7999999523163,1669832908842,1938,HRV,HRV_0125,2022-11-30 18:32:40
29,"[{'imgObject': {}, 'id': 'chicken nuggets2', 'src': '/static/foodstim60/chicken nuggets2.jpg', 'key': 'u', 'origWidth': 410, 'origHeight': 409, 'width': 410, 'height': 409, 'widthPercent': 0.45, 'rescaleHeight': False, 'trialN': 29, 'loaded': True, 'loadedTime': 6291.100000023842, 'positionName': 'LEFT', 'positionCoords': [204.4, 155.5], 'bid': 6.43}, {'imgObject': {}, 'id': 'yogurt no spoon', 'src': '/static/foodstim60/yogurt no spoon.jpg', 'key': 'i', 'origWidth': 411, 'origHeight': 410, 'width': 411, 'height': 410, 'widthPercent': 0.45, 'rescaleHeight': False, 'trialN': 29, 'loaded': True, 'loadedTime': 6114.100000023842, 'positionName': 'RIGHT', 'positionCoords': [665.6, 155], 'bid': 8.32}]",51736.700000047684,1669832908842,chicken nuggets2,yogurt no spoon,6.43,8.32,1.8900000000000006,yogurt no spoon,1055.0,1056,1055.5,True,i,53304.5,1567.7999999523163,1669832910410,1568,HRV,HRV_0125,2022-11-30 18:32:40
30,"[{'imgObject': {}, 'id': 'Tribe humus pita', 'src': '/static/foodstim60/Tribe humus pita.jpg', 'key': 'u', 'origWidth': 411, 'origHeight': 411, 'width': 411, 'height': 411, 'widthPercent': 0.45, 'rescaleHeight': False, 'trialN': 30, 'loaded': True, 'loadedTime': 6000.800000071526, 'positionName': 'LEFT', 'positionCoords': [203.4, 154.5], 'bid': 5.28}, {'imgObject': {}, 'id': 'salmon', 'src': '/static/foodstim60/salmon.jpg', 'key': 'i', 'origWidth': 410, 'origHeight': 409, 'width': 410, 'height': 409, 'widthPercent': 0.45, 'rescaleHeight': False, 'trialN': 30, 'loaded': True, 'loadedTime': 6297, 'positionName': 'RIGHT', 'positionCoords': [665.6, 155.5], 'bid': 5.25}]",53304.60000002384,1669832910410,Tribe humus pita,salmon,5.28,5.25,-0.03000000000000025,Tribe humus pita,1317.8999999761581,1318,1318.3000000715256,True,u,55142.5,1837.8999999761581,1669832912248,1838,HRV,HRV_0125,2022-11-30 18:32:40
31,"[{'imgObject': {}, 'id': 'veggieswithdip', 'src': '/static/foodstim60/veggieswithdip.jpg', 'key': 'u', 'origWidth': 409, 'origHeight': 409, 'width': 409, 'height': 409, 'widthPercent': 0.45, 'rescaleHeight': False, 'trialN': 31, 'loaded': True, 'loadedTime': 6301.800000071526, 'positionName': 'LEFT', 'positionCoords': [205.4, 155.5], 'bid': 4.28}, {'imgObject': {}, 'id': 'fruitsalad', 'src': '/static/foodstim60/fruitsalad.jpg', 'key': 'i', 'origWidth': 410, 'origHeight': 410, 'width': 410, 'height': 410, 'widthPercent': 0.45, 'rescaleHeight': False, 'trialN': 31, 'loaded': True, 'loadedTime': 6306.400000095367, 'positionName': 'RIGHT', 'positionCoords': [665.6, 155], 'bid': 4.18}]",55142.60000002384,1669832912248,veggieswithdip,fruitsalad,4.28,4.18,-0.10000000000000053,veggieswithdip,1377.8000000715256,1378,1378.3000000715256,True,u,57034.0,1891.3999999761581,1669832914139,1891,HRV,HRV_0125,2022-11-30 18:32:40
32,"[{'imgObject': {}, 'id': 'blueberries', 'src': '/static/foodstim60/blueberries.jpg', 'key': 'u', 'origWidth': 411, 'origHeight': 411, 'width': 411, 'height': 411, 'widthPercent': 0.45, 'rescaleHeight': False, 'trialN': 32, 'loaded': True, 'loadedTime': 6230.100000023842, 'positionName': 'LEFT', 'positionCoords': [203.4, 154.5], 'bid': 7.71}, {'imgObject': {}, 'id': 'salad w chicken', 'src': '/static/foodstim60/salad w chicken.jpg', 'key': 'i', 'origWidth': 411, 'origHeight': 411, 'width': 411, 'height': 411, 'widthPercent': 0.45, 'rescaleHeight': False, 'trialN': 32, 'loaded': True, 'loadedTime': 5813.600000023842, 'positionName': 'RIGHT', 'positionCoords': [665.6, 154.5], 'bid': 6.09}]",57034.10000002384,1669832914140,blueberries,salad w chicken,7.71,6.09,-1.62,salad w chicken,1089.3000000715256,1089,1089.8000000715256,True,i,58636.200000047684,1602.1000000238419,1669832915742,1602,HRV,HRV_0125,2022-11-30 18:32:40
33,"[{'imgObject': {}, 'id': 'baked potato', 'src': '/static/foodstim60/baked potato.jpg', 'key': 'u', 'origWidth': 409, 'origHeight': 410, 'width': 409, 'height': 410, 'widthPercent': 0.45, 'rescaleHeight': False, 'trialN': 33, 'loaded': True, 'loadedTime': 6026.700000047684, 'positionName': 'LEFT', 'positionCoords': [205.4, 155], 'bid': 4.68}, {'imgObject': {}, 'id': 'kiwi', 'src': '/static/foodstim60/kiwi.jpg', 'key': 'i', 'origWidth': 410, 'origHeight': 410, 'width': 410, 'height': 410, 'widthPercent': 0.45, 'rescaleHeight': False, 'trialN': 33, 'loaded': True, 'loadedTime': 5882.5, 'positionName': 'RIGHT', 'positionCoords': [665.6, 155], 'bid': 4.48}]",58636.300000071526,1669832915742,baked potato,kiwi,4.68,4.48,-0.1999999999999993,baked potato,949.8999999761581,950,950.5,True,u,60088.700000047684,1452.3999999761581,1669832917194,1452,HRV,HRV_0125,2022-11-30 18:32:40
34,"[{'imgObject': {}, 'id': 'eggs', 'src': '/static/foodstim60/eggs.jpg', 'key': 'u', 'origWidth': 409, 'origHeight': 409, 'width': 409, 'height': 409, 'widthPercent': 0.45, 'rescaleHeight': False, 'trialN': 34, 'loaded': True, 'loadedTime': 5955.800000071526, 'positionName': 'LEFT', 'positionCoords': [205.4, 155.5], 'bid': 5.92}, {'imgObject': {}, 'id': 'shreddedwheatwithmilk', 'src': '/static/foodstim60/shreddedwheatwithmilk.jpg', 'key': 'i', 'origWidth': 410, 'origHeight': 410, 'width': 410, 'height': 410, 'widthPercent': 0.45, 'rescaleHeight': False, 'trialN': 34, 'loaded': True, 'loadedTime': 6169.900000095367, 'positionName': 'RIGHT', 'positionCoords': [665.6, 155], 'bid': 3.34}]",60088.90000009537,1669832917195,eggs,shreddedwheatwithmilk,5.92,3.34,-2.58,eggs,911.5999999046326,912,912.1999999284744,True,u,61507.5,1418.5999999046326,1669832918613,1418,HRV,HRV_0125,2022-11-30 18:32:40
35,"[{'imgObject': {}, 'id': 'raisin bran w milk', 'src': '/static/foodstim60/raisin bran w milk.jpg', 'key': 'u', 'origWidth': 411, 'origHeight': 411, 'width': 411, 'height': 411, 'widthPercent': 0.45, 'rescaleHeight': False, 'trialN': 35, 'loaded': True, 'loadedTime': 5699.900000095367, 'positionName': 'LEFT', 'positionCoords': [203.4, 154.5], 'bid': 5.46}, {'imgObject': {}, 'id': 'tacos', 'src': '/static/foodstim60/tacos.jpg', 'key': 'i', 'origWidth': 411, 'origHeight': 411, 'width': 411, 'height': 411, 'widthPercent': 0.45, 'rescaleHeight': False, 'trialN': 35, 'loaded': True, 'loadedTime': 6212.900000095367, 'positionName': 'RIGHT', 'positionCoords': [665.6, 154.5], 'bid': 8.620000000000001}]",61507.60000002384,1669832918613,raisin bran w milk,tacos,5.46,8.620000000000001,3.160000000000001,tacos,1137.1000000238419,1138,1137.8999999761581,True,i,63181.0,1673.3999999761581,1669832920287,1674,HRV,HRV_0125,2022-11-30 18:32:40
36,"[{'imgObject': {}, 'id': 'popsicles', 'src': '/static/foodstim60/popsicles.jpg', 'key': 'u', 'origWidth': 410, 'origHeight': 410, 'width': 410, 'height': 410, 'widthPercent': 0.45, 'rescaleHeight': False, 'trialN': 36, 'loaded': True, 'loadedTime': 6413.600000023842, 'positionName': 'LEFT', 'positionCoords': [204.4, 155], 'bid': 6.96}, {'imgObject': {}, 'id': 'pear', 'src': '/static/foodstim60/pear.jpg', 'key': 'i', 'origWidth': 411, 'origHeight': 410, 'width': 411, 'height': 410, 'widthPercent': 0.45, 'rescaleHeight': False, 'trialN': 36, 'loaded': True, 'loadedTime': 5726.900000095367, 'positionName': 'RIGHT', 'positionCoords': [665.6, 155], 'bid': 7.07}]",63181.200000047684,1669832920287,popsicles,pear,6.96,7.07,0.11000000000000032,pear,869.2000000476837,869,869.6000000238419,True,i,64553.0,1371.7999999523163,1669832921659,1372,HRV,HRV_0125,2022-11-30 18:32:40
37,"[{'imgObject': {}, 'id': 'cherries', 'src': '/static/foodstim60/cherries.jpg', 'key': 'u', 'origWidth': 410, 'origHeight': 411, 'width': 410, 'height': 411, 'widthPercent': 0.45, 'rescaleHeight': False, 'trialN': 37, 'loaded': True, 'loadedTime': 5533.600000023842, 'positionName': 'LEFT', 'positionCoords': [204.4, 154.5], 'bid': 7.28}, {'imgObject': {}, 'id': 'burrito', 'src': '/static/foodstim60/burrito.jpg', 'key': 'i', 'origWidth': 410, 'origHeight': 410, 'width': 410, 'height': 410, 'widthPercent': 0.45, 'rescaleHeight': False, 'trialN': 37, 'loaded': True, 'loadedTime': 5557.100000023842, 'positionName': 'RIGHT', 'positionCoords': [665.6, 155], 'bid': 5.79}]",64553.200000047684,1669832921659,cherries,burrito,7.28,5.79,-1.4900000000000002,cherries,1003.6000000238419,1004,1003.8999999761581,True,u,66067.90000009537,1514.7000000476837,1669832923174,1515,HRV,HRV_0125,2022-11-30 18:32:40
38,"[{'imgObject': {}, 'id': 'turkeysandwich', 'src': '/static/foodstim60/turkeysandwich.jpg', 'key': 'u', 'origWidth': 409, 'origHeight': 409, 'width': 409, 'height': 409, 'widthPercent': 0.45, 'rescaleHeight': False, 'trialN': 38, 'loaded': True, 'loadedTime': 5951.600000023842, 'positionName': 'LEFT', 'positionCoords': [205.4, 155.5], 'bid': 5.48}, {'imgObject': {}, 'id': 'veggieswithdip', 'src': '/static/foodstim60/veggieswithdip.jpg', 'key': 'i', 'origWidth': 409, 'origHeight': 409, 'width': 409, 'height': 409, 'widthPercent': 0.45, 'rescaleHeight': False, 'trialN': 38, 'loaded': True, 'loadedTime': 6299.900000095367, 'positionName': 'RIGHT', 'positionCoords': [665.6, 155.5], 'bid': 4.28}]",66068.10000002384,1669832923174,turkeysandwich,veggieswithdip,5.48,4.28,-1.2000000000000002,turkeysandwich,1209.8999999761581,1210,1210.5,True,u,67799.70000004768,1731.6000000238419,1669832924905,1731,HRV,HRV_0125,2022-11-30 18:32:40
39,"[{'imgObject': {}, 'id': 'chickenfingers', 'src': '/static/foodstim60/chickenfingers.jpg', 'key': 'u', 'origWidth': 410, 'origHeight': 410, 'width': 410, 'height': 410, 'widthPercent': 0.45, 'rescaleHeight': False, 'trialN': 39, 'loaded': True, 'loadedTime': 5712.800000071526, 'positionName': 'LEFT', 'positionCoords': [204.4, 155], 'bid': 6.75}, {'imgObject': {}, 'id': 'avocado', 'src': '/static/foodstim60/avocado.jpg', 'key': 'i', 'origWidth': 409, 'origHeight': 409, 'width': 409, 'height': 409, 'widthPercent': 0.45, 'rescaleHeight': False, 'trialN': 39, 'loaded': True, 'loadedTime': 5629.200000047684, 'positionName': 'RIGHT', 'positionCoords': [665.6, 155.5], 'bid': 6.65}]",67800.0,1669832924906,chickenfingers,avocado,6.75,6.65,-0.09999999999999964,chickenfingers,645.3000000715256,645,645.7000000476837,True,u,68964.0,1164.0,1669832926070,1164,HRV,HRV_0125,2022-11-30 18:32:40
40,"[{'imgObject': {}, 'id': 'omelette', 'src': '/static/foodstim60/omelette.jpg', 'key': 'u', 'origWidth': 410, 'origHeight': 409, 'width': 410, 'height': 409, 'widthPercent': 0.45, 'rescaleHeight': False, 'trialN': 40, 'loaded': True, 'loadedTime': 5929.700000047684, 'positionName': 'LEFT', 'positionCoords': [204.4, 155.5], 'bid': 4.87}, {'imgObject': {}, 'id': 'Tribe humus pita', 'src': '/static/foodstim60/Tribe humus pita.jpg', 'key': 'i', 'origWidth': 411, 'origHeight': 411, 'width': 411, 'height': 411, 'widthPercent': 0.45, 'rescaleHeight': False, 'trialN': 40, 'loaded': True, 'loadedTime': 6004.5, 'positionName': 'RIGHT', 'positionCoords': [665.6, 154.5], 'bid': 5.28}]",68964.20000004768,1669832926070,omelette,Tribe humus pita,4.87,5.28,0.41000000000000014,omelette,1070.7000000476837,1071,1071.2000000476837,True,u,70546.90000009537,1582.7000000476837,1669832927653,1583,HRV,HRV_0125,2022-11-30 18:32:40
41,"[{'imgObject': {}, 'id': 'turkey sandwich', 'src': '/static/foodstim60/turkey sandwich.jpg', 'key': 'u', 'origWidth': 409, 'origHeight': 409, 'width': 409, 'height': 409, 'widthPercent': 0.45, 'rescaleHeight': False, 'trialN': 41, 'loaded': True, 'loadedTime': 5623.700000047684, 'positionName': 'LEFT', 'positionCoords': [205.4, 155.5], 'bid': 7.48}, {'imgObject': {}, 'id': 'burger', 'src': '/static/foodstim60/burger.jpg', 'key': 'i', 'origWidth': 409, 'origHeight': 409, 'width': 409, 'height': 409, 'widthPercent': 0.45, 'rescaleHeight': False, 'trialN': 41, 'loaded': True, 'loadedTime': 5707.400000095367, 'positionName': 'RIGHT', 'positionCoords': [665.6, 155.5], 'bid': 7.28}]",70547.10000002384,1669832927653,turkey sandwich,burger,7.48,7.28,-0.20000000000000018,turkey sandwich,655.6000000238419,656,656.2000000476837,True,u,71716.0,1168.8999999761581,1669832928822,1169,HRV,HRV_0125,2022-11-30 18:32:40
42,"[{'imgObject': {}, 'id': 'mashed potato', 'src': '/static/foodstim60/mashed potato.jpg', 'key': 'u', 'origWidth': 409, 'origHeight': 409, 'width': 409, 'height': 409, 'widthPercent': 0.45, 'rescaleHeight': False, 'trialN': 42, 'loaded': True, 'loadedTime': 5789.100000023842, 'positionName': 'LEFT', 'positionCoords': [205.4, 155.5], 'bid': 3.43}, {'imgObject': {}, 'id': 'cherry tomato', 'src': '/static/foodstim60/cherry tomato.jpg', 'key': 'i', 'origWidth': 410, 'origHeight': 410, 'width': 410, 'height': 410, 'widthPercent': 0.45, 'rescaleHeight': False, 'trialN': 42, 'loaded': True, 'loadedTime': 5808.900000095367, 'positionName': 'RIGHT', 'positionCoords': [665.6, 155], 'bid': 3.5}]",71716.30000007153,1669832928822,mashed potato,cherry tomato,3.43,3.5,0.06999999999999984,mashed potato,834.6000000238419,835,835.1000000238419,True,u,73062.90000009537,1346.6000000238419,1669832930169,1347,HRV,HRV_0125,2022-11-30 18:32:40
43,"[{'imgObject': {}, 'id': 'yogurt no spoon', 'src': '/static/foodstim60/yogurt no spoon.jpg', 'key': 'u', 'origWidth': 411, 'origHeight': 410, 'width': 411, 'height': 410, 'widthPercent': 0.45, 'rescaleHeight': False, 'trialN': 43, 'loaded': True, 'loadedTime': 6110.5, 'positionName': 'LEFT', 'positionCoords': [203.4, 155], 'bid': 8.32}, {'imgObject': {}, 'id': 'steak', 'src': '/static/foodstim60/steak.jpg', 'key': 'i', 'origWidth': 410, 'origHeight': 410, 'width': 410, 'height': 410, 'widthPercent': 0.45, 'rescaleHeight': False, 'trialN': 43, 'loaded': True, 'loadedTime': 5509.5, 'positionName': 'RIGHT', 'positionCoords': [665.6, 155], 'bid': 9.06}]",73063.0,1669832930169,yogurt no spoon,steak,8.32,9.06,0.7400000000000002,yogurt no spoon,774.9000000953674,775,775.4000000953674,True,u,74352.60000002384,1289.6000000238419,1669832931458,1289,HRV,HRV_0125,2022-11-30 18:32:40
44,"[{'imgObject': {}, 'id': 'burger', 'src': '/static/foodstim60/burger.jpg', 'key': 'u', 'origWidth': 409, 'origHeight': 409, 'width': 409, 'height': 409, 'widthPercent': 0.45, 'rescaleHeight': False, 'trialN': 44, 'loaded': True, 'loadedTime': 5709.900000095367, 'positionName': 'LEFT', 'positionCoords': [205.4, 155.5], 'bid': 7.28}, {'imgObject': {}, 'id': 'grilled chicken strips', 'src': '/static/foodstim60/grilled chicken strips.jpg', 'key': 'i', 'origWidth': 410, 'origHeight': 411, 'width': 410, 'height': 411, 'widthPercent': 0.45, 'rescaleHeight': False, 'trialN': 44, 'loaded': True, 'loadedTime': 5858.100000023842, 'positionName': 'RIGHT', 'positionCoords': [665.6, 154.5], 'bid': 8.68}]",74352.90000009537,1669832931459,burger,grilled chicken strips,7.28,8.68,1.3999999999999995,grilled chicken strips,1108.2999999523163,1108,1108.8999999761581,True,i,75972.30000007153,1619.3999999761581,1669832933078,1619,HRV,HRV_0125,2022-11-30 18:32:40
45,"[{'imgObject': {}, 'id': 'orange slices', 'src': '/static/foodstim60/orange slices.jpg', 'key': 'u', 'origWidth': 409, 'origHeight': 410, 'width': 409, 'height': 410, 'widthPercent': 0.45, 'rescaleHeight': False, 'trialN': 45, 'loaded': True, 'loadedTime': 6017.900000095367, 'positionName': 'LEFT', 'positionCoords': [205.4, 155], 'bid': 5.87}, {'imgObject': {}, 'id': 'blackbeanswithrice', 'src': '/static/foodstim60/blackbeanswithrice.jpg', 'key': 'i', 'origWidth': 410, 'origHeight': 410, 'width': 410, 'height': 410, 'widthPercent': 0.45, 'rescaleHeight': False, 'trialN': 45, 'loaded': True, 'loadedTime': 6036, 'positionName': 'RIGHT', 'positionCoords': [665.6, 155], 'bid': 5.78}]",75972.30000007153,1669832933078,orange slices,blackbeanswithrice,5.87,5.78,-0.08999999999999986,blackbeanswithrice,1602.0,1602,1602.6000000238419,True,i,78092.80000007153,2120.5,1669832935198,2120,HRV,HRV_0125,2022-11-30 18:32:40
46,"[{'imgObject': {}, 'id': 'turkey sandwich', 'src': '/static/foodstim60/turkey sandwich.jpg', 'key': 'u', 'origWidth': 409, 'origHeight': 409, 'width': 409, 'height': 409, 'widthPercent': 0.45, 'rescaleHeight': False, 'trialN': 46, 'loaded': True, 'loadedTime': 5615.5, 'positionName': 'LEFT', 'positionCoords': [205.4, 155.5], 'bid': 7.48}, {'imgObject': {}, 'id': 'granola w milk', 'src': '/static/foodstim60/granola w milk.jpg', 'key': 'i', 'origWidth': 410, 'origHeight': 410, 'width': 410, 'height': 410, 'widthPercent': 0.45, 'rescaleHeight': False, 'trialN': 46, 'loaded': True, 'loadedTime': 6219.800000071526, 'positionName': 'RIGHT', 'positionCoords': [665.6, 155], 'bid': 8.700000000000001}]",78092.90000009537,1669832935199,turkey sandwich,granola w milk,7.48,8.700000000000001,1.2200000000000006,turkey sandwich,1497.0999999046326,1497,1497.5999999046326,True,u,80102.30000007153,2009.3999999761581,1669832937208,2009,HRV,HRV_0125,2022-11-30 18:32:40
47,"[{'imgObject': {}, 'id': 'hotdog w must', 'src': '/static/foodstim60/hotdog w must.jpg', 'key': 'u', 'origWidth': 409, 'origHeight': 409, 'width': 409, 'height': 409, 'widthPercent': 0.45, 'rescaleHeight': False, 'trialN': 47, 'loaded': True, 'loadedTime': 5593.700000047684, 'positionName': 'LEFT', 'positionCoords': [205.4, 155.5], 'bid': 7.140000000000001}, {'imgObject': {}, 'id': 'cherries', 'src': '/static/foodstim60/cherries.jpg', 'key': 'i', 'origWidth': 410, 'origHeight': 411, 'width': 410, 'height': 411, 'widthPercent': 0.45, 'rescaleHeight': False, 'trialN': 47, 'loaded': True, 'loadedTime': 5544.100000023842, 'positionName': 'RIGHT', 'positionCoords': [665.6, 154.5], 'bid': 7.28}]",80102.5,1669832937208,hotdog w must,cherries,7.140000000000001,7.28,0.13999999999999968,cherries,1186.7000000476837,1187,1187.3000000715256,True,i,81804.80000007153,1702.3000000715256,1669832938910,1702,HRV,HRV_0125,2022-11-30 18:32:40
48,"[{'imgObject': {}, 'id': 'popsicles', 'src': '/static/foodstim60/popsicles.jpg', 'key': 'u', 'origWidth': 410, 'origHeight': 410, 'width': 410, 'height': 410, 'widthPercent': 0.45, 'rescaleHeight': False, 'trialN': 48, 'loaded': True, 'loadedTime': 6412.300000071526, 'positionName': 'LEFT', 'positionCoords': [204.4, 155], 'bid': 6.96}, {'imgObject': {}, 'id': 'kiwi', 'src': '/static/foodstim60/kiwi.jpg', 'key': 'i', 'origWidth': 410, 'origHeight': 410, 'width': 410, 'height': 410, 'widthPercent': 0.45, 'rescaleHeight': False, 'trialN': 48, 'loaded': True, 'loadedTime': 5880.300000071526, 'positionName': 'RIGHT', 'positionCoords': [665.6, 155], 'bid': 4.48}]",81804.90000009537,1669832938911,popsicles,kiwi,6.96,4.48,-2.4799999999999995,popsicles,954.7999999523163,955,955.2999999523163,True,u,83276.30000007153,1471.3999999761581,1669832940382,1471,HRV,HRV_0125,2022-11-30 18:32:40
49,"[{'imgObject': {}, 'id': 'roastedpotatoes', 'src': '/static/foodstim60/roastedpotatoes.jpg', 'key': 'u', 'origWidth': 409, 'origHeight': 410, 'width': 409, 'height': 410, 'widthPercent': 0.45, 'rescaleHeight': False, 'trialN': 49, 'loaded': True, 'loadedTime': 6273.900000095367, 'positionName': 'LEFT', 'positionCoords': [205.4, 155], 'bid': 4.15}, {'imgObject': {}, 'id': 'Tribe humus pita', 'src': '/static/foodstim60/Tribe humus pita.jpg', 'key': 'i', 'origWidth': 411, 'origHeight': 411, 'width': 411, 'height': 411, 'widthPercent': 0.45, 'rescaleHeight': False, 'trialN': 49, 'loaded': True, 'loadedTime': 5995.900000095367, 'positionName': 'RIGHT', 'positionCoords': [665.6, 154.5], 'bid': 5.28}]",83276.5,1669832940382,roastedpotatoes,Tribe humus pita,4.15,5.28,1.13,Tribe humus pita,1083.4000000953674,1084,1083.7000000476837,True,i,84864.40000009537,1587.9000000953674,1669832941970,1588,HRV,HRV_0125,2022-11-30 18:32:40
50,"[{'imgObject': {}, 'id': 'sushi w_condiments', 'src': '/static/foodstim60/sushi w_condiments.jpg', 'key': 'u', 'origWidth': 410, 'origHeight': 410, 'width': 410, 'height': 410, 'widthPercent': 0.45, 'rescaleHeight': False, 'trialN': 50, 'loaded': True, 'loadedTime': 6122.800000071526, 'positionName': 'LEFT', 'positionCoords': [204.4, 155], 'bid': 4.9}, {'imgObject': {}, 'id': 'bagel plain', 'src': '/static/foodstim60/bagel plain.jpg', 'key': 'i', 'origWidth': 410, 'origHeight': 410, 'width': 410, 'height': 410, 'widthPercent': 0.45, 'rescaleHeight': False, 'trialN': 50, 'loaded': True, 'loadedTime': 6226.100000023842, 'positionName': 'RIGHT', 'positionCoords': [665.6, 155], 'bid': 5.03}]",84864.5,1669832941970,sushi w_condiments,bagel plain,4.9,5.03,0.1299999999999999,bagel plain,1163.3000000715256,1164,1163.6000000238419,True,i,86538.20000004768,1673.7000000476837,1669832943644,1674,HRV,HRV_0125,2022-11-30 18:32:40
51,"[{'imgObject': {}, 'id': 'popsicles', 'src': '/static/foodstim60/popsicles.jpg', 'key': 'u', 'origWidth': 410, 'origHeight': 410, 'width': 410, 'height': 410, 'widthPercent': 0.45, 'rescaleHeight': False, 'trialN': 51, 'loaded': True, 'loadedTime': 6414.100000023842, 'positionName': 'LEFT', 'positionCoords': [204.4, 155], 'bid': 6.96}, {'imgObject': {}, 'id': 'avocado', 'src': '/static/foodstim60/avocado.jpg', 'key': 'i', 'origWidth': 409, 'origHeight': 409, 'width': 409, 'height': 409, 'widthPercent': 0.45, 'rescaleHeight': False, 'trialN': 51, 'loaded': True, 'loadedTime': 5640.200000047684, 'positionName': 'RIGHT', 'positionCoords': [665.6, 155.5], 'bid': 6.65}]",86538.40000009537,1669832943644,popsicles,avocado,6.96,6.65,-0.3099999999999996,avocado,904.7999999523163,905,905.3999999761581,True,i,87948.60000002384,1410.1999999284744,1669832945054,1410,HRV,HRV_0125,2022-11-30 18:32:40
52,"[{'imgObject': {}, 'id': 'olives', 'src': '/static/foodstim60/olives.jpg', 'key': 'u', 'origWidth': 410, 'origHeight': 410, 'width': 410, 'height': 410, 'widthPercent': 0.45, 'rescaleHeight': False, 'trialN': 52, 'loaded': True, 'loadedTime': 5992.600000023842, 'positionName': 'LEFT', 'positionCoords': [204.4, 155], 'bid': 6}, {'imgObject': {}, 'id': 'edamame', 'src': '/static/foodstim60/edamame.jpg', 'key': 'i', 'origWidth': 409, 'origHeight': 410, 'width': 409, 'height': 410, 'widthPercent': 0.45, 'rescaleHeight': False, 'trialN': 52, 'loaded': True, 'loadedTime': 6266.300000071526, 'positionName': 'RIGHT', 'positionCoords': [665.6, 155], 'bid': 3.4}]",87949.0,1669832945055,olives,edamame,6.0,3.4,-2.6,olives,1087.7000000476837,1088,1088.1000000238419,True,u,89558.40000009537,1609.4000000953674,1669832946664,1609,HRV,HRV_0125,2022-11-30 18:32:40
53,"[{'imgObject': {}, 'id': 'granola w milk', 'src': '/static/foodstim60/granola w milk.jpg', 'key': 'u', 'origWidth': 410, 'origHeight': 410, 'width': 410, 'height': 410, 'widthPercent': 0.45, 'rescaleHeight': False, 'trialN': 53, 'loaded': True, 'loadedTime': 6215.700000047684, 'positionName': 'LEFT', 'positionCoords': [204.4, 155], 'bid': 8.700000000000001}, {'imgObject': {}, 'id': 'bagel and cc', 'src': '/static/foodstim60/bagel and cc.jpg', 'key': 'i', 'origWidth': 410, 'origHeight': 410, 'width': 410, 'height': 410, 'widthPercent': 0.45, 'rescaleHeight': False, 'trialN': 53, 'loaded': True, 'loadedTime': 5869.400000095367, 'positionName': 'RIGHT', 'positionCoords': [665.6, 155], 'bid': 5.5}]",89558.5,1669832946664,granola w milk,bagel and cc,8.700000000000001,5.5,-3.200000000000001,bagel and cc,1121.3000000715256,1122,1121.8000000715256,True,i,91188.30000007153,1629.8000000715256,1669832948294,1630,HRV,HRV_0125,2022-11-30 18:32:40
54,"[{'imgObject': {}, 'id': 'steak', 'src': '/static/foodstim60/steak.jpg', 'key': 'u', 'origWidth': 410, 'origHeight': 410, 'width': 410, 'height': 410, 'widthPercent': 0.45, 'rescaleHeight': False, 'trialN': 54, 'loaded': True, 'loadedTime': 5484.400000095367, 'positionName': 'LEFT', 'positionCoords': [204.4, 155], 'bid': 9.06}, {'imgObject': {}, 'id': 'blueberries', 'src': '/static/foodstim60/blueberries.jpg', 'key': 'i', 'origWidth': 411, 'origHeight': 411, 'width': 411, 'height': 411, 'widthPercent': 0.45, 'rescaleHeight': False, 'trialN': 54, 'loaded': True, 'loadedTime': 6230.400000095367, 'positionName': 'RIGHT', 'positionCoords': [665.6, 154.5], 'bid': 7.71}]",91188.30000007153,1669832948294,steak,blueberries,9.06,7.71,-1.3500000000000005,steak,951.6999999284744,952,952.2999999523163,True,u,92648.60000002384,1460.2999999523163,1669832949754,1460,HRV,HRV_0125,2022-11-30 18:32:40
55,"[{'imgObject': {}, 'id': 'Grapes', 'src': '/static/foodstim60/Grapes.jpg', 'key': 'u', 'origWidth': 411, 'origHeight': 411, 'width': 411, 'height': 411, 'widthPercent': 0.45, 'rescaleHeight': False, 'trialN': 55, 'loaded': True, 'loadedTime': 5768, 'positionName': 'LEFT', 'positionCoords': [203.4, 154.5], 'bid': 6.17}, {'imgObject': {}, 'id': 'blackbeanswithrice', 'src': '/static/foodstim60/blackbeanswithrice.jpg', 'key': 'i', 'origWidth': 410, 'origHeight': 410, 'width': 410, 'height': 410, 'widthPercent': 0.45, 'rescaleHeight': False, 'trialN': 55, 'loaded': True, 'loadedTime': 6036.300000071526, 'positionName': 'RIGHT', 'positionCoords': [665.6, 155], 'bid': 5.78}]",92648.80000007153,1669832949754,Grapes,blackbeanswithrice,6.17,5.78,-0.3899999999999997,blackbeanswithrice,1542.6999999284744,1544,1543.2999999523163,True,i,94717.60000002384,2068.7999999523163,1669832951823,2069,HRV,HRV_0125,2022-11-30 18:32:40
56,"[{'imgObject': {}, 'id': 'chicken nuggets2', 'src': '/static/foodstim60/chicken nuggets2.jpg', 'key': 'u', 'origWidth': 410, 'origHeight': 409, 'width': 410, 'height': 409, 'widthPercent': 0.45, 'rescaleHeight': False, 'trialN': 56, 'loaded': True, 'loadedTime': 6291.5, 'positionName': 'LEFT', 'positionCoords': [204.4, 155.5], 'bid': 6.43}, {'imgObject': {}, 'id': 'hashbrowns', 'src': '/static/foodstim60/hashbrowns.jpg', 'key': 'i', 'origWidth': 411, 'origHeight': 410, 'width': 411, 'height': 410, 'widthPercent': 0.45, 'rescaleHeight': False, 'trialN': 56, 'loaded': True, 'loadedTime': 6047.800000071526, 'positionName': 'RIGHT', 'positionCoords': [665.6, 155], 'bid': 5.57}]",94718.0,1669832951824,chicken nuggets2,hashbrowns,6.43,5.57,-0.8599999999999994,chicken nuggets2,858.4000000953674,859,858.9000000953674,True,u,96081.20000004768,1363.2000000476837,1669832953187,1363,HRV,HRV_0125,2022-11-30 18:32:40
57,"[{'imgObject': {}, 'id': 'eggsalad', 'src': '/static/foodstim60/eggsalad.jpg', 'key': 'u', 'origWidth': 410, 'origHeight': 409, 'width': 410, 'height': 409, 'widthPercent': 0.45, 'rescaleHeight': False, 'trialN': 57, 'loaded': True, 'loadedTime': 6083, 'positionName': 'LEFT', 'positionCoords': [204.4, 155.5], 'bid': 3.96}, {'imgObject': {}, 'id': 'sweetpotato', 'src': '/static/foodstim60/sweetpotato.jpg', 'key': 'i', 'origWidth': 410, 'origHeight': 410, 'width': 410, 'height': 410, 'widthPercent': 0.45, 'rescaleHeight': False, 'trialN': 57, 'loaded': True, 'loadedTime': 6179.700000047684, 'positionName': 'RIGHT', 'positionCoords': [665.6, 155], 'bid': 2.25}]",96081.5,1669832953187,eggsalad,sweetpotato,3.96,2.25,-1.71,eggsalad,1139.2000000476837,1140,1139.7000000476837,True,u,97729.70000004768,1648.2000000476837,1669832954835,1648,HRV,HRV_0125,2022-11-30 18:32:40
58,"[{'imgObject': {}, 'id': 'corn cob', 'src': '/static/foodstim60/corn cob.jpg', 'key': 'u', 'origWidth': 411, 'origHeight': 411, 'width': 411, 'height': 411, 'widthPercent': 0.45, 'rescaleHeight': False, 'trialN': 58, 'loaded': True, 'loadedTime': 6268.700000047684, 'positionName': 'LEFT', 'positionCoords': [203.4, 154.5], 'bid': 4.75}, {'imgObject': {}, 'id': 'cherries', 'src': '/static/foodstim60/cherries.jpg', 'key': 'i', 'origWidth': 410, 'origHeight': 411, 'width': 410, 'height': 411, 'widthPercent': 0.45, 'rescaleHeight': False, 'trialN': 58, 'loaded': True, 'loadedTime': 5539.400000095367, 'positionName': 'RIGHT', 'positionCoords': [665.6, 154.5], 'bid': 7.28}]",97730.10000002384,1669832954836,corn cob,cherries,4.75,7.28,2.5300000000000002,cherries,862.3000000715256,863,862.8000000715256,True,i,99101.10000002384,1371.0,1669832956207,1371,HRV,HRV_0125,2022-11-30 18:32:40
59,"[{'imgObject': {}, 'id': 'froot loops w milk', 'src': '/static/foodstim60/froot loops w milk.jpg', 'key': 'u', 'origWidth': 410, 'origHeight': 410, 'width': 410, 'height': 410, 'widthPercent': 0.45, 'rescaleHeight': False, 'trialN': 59, 'loaded': True, 'loadedTime': 6159, 'positionName': 'LEFT', 'positionCoords': [204.4, 155], 'bid': 4.76}, {'imgObject': {}, 'id': 'eggsalad', 'src': '/static/foodstim60/eggsalad.jpg', 'key': 'i', 'origWidth': 410, 'origHeight': 409, 'width': 410, 'height': 409, 'widthPercent': 0.45, 'rescaleHeight': False, 'trialN': 59, 'loaded': True, 'loadedTime': 6085.300000071526, 'positionName': 'RIGHT', 'positionCoords': [665.6, 155.5], 'bid': 3.96}]",99101.30000007153,1669832956207,froot loops w milk,eggsalad,4.76,3.96,-0.7999999999999998,eggsalad,1083.1999999284744,1084,1083.6000000238419,True,i,100692.70000004768,1591.3999999761581,1669832957798,1591,HRV,HRV_0125,2022-11-30 18:32:40
60,"[{'imgObject': {}, 'id': 'baked potato', 'src': '/static/foodstim60/baked potato.jpg', 'key': 'u', 'origWidth': 409, 'origHeight': 410, 'width': 409, 'height': 410, 'widthPercent': 0.45, 'rescaleHeight': False, 'trialN': 60, 'loaded': True, 'loadedTime': 6022.100000023842, 'positionName': 'LEFT', 'positionCoords': [205.4, 155], 'bid': 4.68}, {'imgObject': {}, 'id': 'blackbeanswithrice', 'src': '/static/foodstim60/blackbeanswithrice.jpg', 'key': 'i', 'origWidth': 410, 'origHeight': 410, 'width': 410, 'height': 410, 'widthPercent': 0.45, 'rescaleHeight': False, 'trialN': 60, 'loaded': True, 'loadedTime': 6033.5, 'positionName': 'RIGHT', 'positionCoords': [665.6, 155], 'bid': 5.78}]",100692.80000007153,1669832957798,baked potato,blackbeanswithrice,4.68,5.78,1.1000000000000005,blackbeanswithrice,833.7999999523163,835,834.2999999523163,True,i,102046.60000002384,1353.7999999523163,1669832959152,1354,HRV,HRV_0125,2022-11-30 18:32:40
61,"[{'imgObject': {}, 'id': 'lox', 'src': '/static/foodstim60/lox.jpg', 'key': 'u', 'origWidth': 410, 'origHeight': 411, 'width': 410, 'height': 411, 'widthPercent': 0.45, 'rescaleHeight': False, 'trialN': 61, 'loaded': True, 'loadedTime': 6087.600000023842, 'positionName': 'LEFT', 'positionCoords': [204.4, 154.5], 'bid': 8.03}, {'imgObject': {}, 'id': 'apple slices', 'src': '/static/foodstim60/apple slices.jpg', 'key': 'i', 'origWidth': 409, 'origHeight': 410, 'width': 409, 'height': 410, 'widthPercent': 0.45, 'rescaleHeight': False, 'trialN': 61, 'loaded': True, 'loadedTime': 6040.300000071526, 'positionName': 'RIGHT', 'positionCoords': [665.6, 155], 'bid': 5.18}]",102046.80000007153,1669832959153,lox,apple slices,8.03,5.18,-2.8499999999999996,apple slices,1099.1999999284744,1099,1099.7999999523163,True,i,103658.20000004768,1611.3999999761581,1669832960764,1611,HRV,HRV_0125,2022-11-30 18:32:40
62,"[{'imgObject': {}, 'id': 'ice cream sundae 002', 'src': '/static/foodstim60/ice cream sundae 002.jpg', 'key': 'u', 'origWidth': 409, 'origHeight': 409, 'width': 409, 'height': 409, 'widthPercent': 0.45, 'rescaleHeight': False, 'trialN': 62, 'loaded': True, 'loadedTime': 5610.5, 'positionName': 'LEFT', 'positionCoords': [205.4, 155.5], 'bid': 7.73}, {'imgObject': {}, 'id': 'mango', 'src': '/static/foodstim60/mango.jpg', 'key': 'i', 'origWidth': 411, 'origHeight': 411, 'width': 411, 'height': 411, 'widthPercent': 0.45, 'rescaleHeight': False, 'trialN': 62, 'loaded': True, 'loadedTime': 6296.5, 'positionName': 'RIGHT', 'positionCoords': [665.6, 154.5], 'bid': 7.57}]",103658.40000009537,1669832960764,ice cream sundae 002,mango,7.73,7.57,-0.16000000000000014,ice cream sundae 002,1368.8999999761581,1369,1369.3999999761581,True,u,105537.90000009537,1879.5,1669832962644,1880,HRV,HRV_0125,2022-11-30 18:32:40
63,"[{'imgObject': {}, 'id': 'rigatoni and sauce', 'src': '/static/foodstim60/rigatoni and sauce.jpg', 'key': 'u', 'origWidth': 410, 'origHeight': 411, 'width': 410, 'height': 411, 'widthPercent': 0.45, 'rescaleHeight': False, 'trialN': 63, 'loaded': True, 'loadedTime': 6182.100000023842, 'positionName': 'LEFT', 'positionCoords': [204.4, 154.5], 'bid': 3.06}, {'imgObject': {}, 'id': 'froot loops w milk', 'src': '/static/foodstim60/froot loops w milk.jpg', 'key': 'i', 'origWidth': 410, 'origHeight': 410, 'width': 410, 'height': 410, 'widthPercent': 0.45, 'rescaleHeight': False, 'trialN': 63, 'loaded': True, 'loadedTime': 6153.600000023842, 'positionName': 'RIGHT', 'positionCoords': [665.6, 155], 'bid': 4.76}]",105538.0,1669832962644,rigatoni and sauce,froot loops w milk,3.06,4.76,1.6999999999999997,froot loops w milk,836.1000000238419,836,836.6000000238419,True,i,106892.20000004768,1354.2000000476837,1669832963998,1354,HRV,HRV_0125,2022-11-30 18:32:40
64,"[{'imgObject': {}, 'id': 'turkey sandwich', 'src': '/static/foodstim60/turkey sandwich.jpg', 'key': 'u', 'origWidth': 409, 'origHeight': 409, 'width': 409, 'height': 409, 'widthPercent': 0.45, 'rescaleHeight': False, 'trialN': 64, 'loaded': True, 'loadedTime': 5625.900000095367, 'positionName': 'LEFT', 'positionCoords': [205.4, 155.5], 'bid': 7.48}, {'imgObject': {}, 'id': 'chickenfingers', 'src': '/static/foodstim60/chickenfingers.jpg', 'key': 'i', 'origWidth': 410, 'origHeight': 410, 'width': 410, 'height': 410, 'widthPercent': 0.45, 'rescaleHeight': False, 'trialN': 64, 'loaded': True, 'loadedTime': 5716.5, 'positionName': 'RIGHT', 'positionCoords': [665.6, 155], 'bid': 6.75}]",106892.30000007153,1669832963998,turkey sandwich,chickenfingers,7.48,6.75,-0.7300000000000004,chickenfingers,764.5,765,765.1000000238419,True,i,108188.90000009537,1296.6000000238419,1669832965295,1297,HRV,HRV_0125,2022-11-30 18:32:40
65,"[{'imgObject': {}, 'id': 'fried eggs', 'src': '/static/foodstim60/fried eggs.jpg', 'key': 'u', 'origWidth': 410, 'origHeight': 410, 'width': 410, 'height': 410, 'widthPercent': 0.45, 'rescaleHeight': False, 'trialN': 65, 'loaded': True, 'loadedTime': 6201, 'positionName': 'LEFT', 'positionCoords': [204.4, 155], 'bid': 6.65}, {'imgObject': {}, 'id': 'rigatoni', 'src': '/static/foodstim60/rigatoni.jpg', 'key': 'i', 'origWidth': 411, 'origHeight': 411, 'width': 411, 'height': 411, 'widthPercent': 0.45, 'rescaleHeight': False, 'trialN': 65, 'loaded': True, 'loadedTime': 6270.900000095367, 'positionName': 'RIGHT', 'positionCoords': [665.6, 154.5], 'bid': 6.42}]",108189.10000002384,1669832965295,fried eggs,rigatoni,6.65,6.42,-0.23000000000000043,fried eggs,853.1000000238419,853,853.6000000238419,True,u,109559.20000004768,1370.1000000238419,1669832966665,1370,HRV,HRV_0125,2022-11-30 18:32:40
66,"[{'imgObject': {}, 'id': 'froot loops w milk', 'src': '/static/foodstim60/froot loops w milk.jpg', 'key': 'u', 'origWidth': 410, 'origHeight': 410, 'width': 410, 'height': 410, 'widthPercent': 0.45, 'rescaleHeight': False, 'trialN': 66, 'loaded': True, 'loadedTime': 6159.300000071526, 'positionName': 'LEFT', 'positionCoords': [204.4, 155], 'bid': 4.76}, {'imgObject': {}, 'id': 'salmon', 'src': '/static/foodstim60/salmon.jpg', 'key': 'i', 'origWidth': 410, 'origHeight': 409, 'width': 410, 'height': 409, 'widthPercent': 0.45, 'rescaleHeight': False, 'trialN': 66, 'loaded': True, 'loadedTime': 6299.700000047684, 'positionName': 'RIGHT', 'positionCoords': [665.6, 155.5], 'bid': 5.25}]",109559.40000009537,1669832966665,froot loops w milk,salmon,4.76,5.25,0.4900000000000002,salmon,839.6999999284744,840,840.0999999046326,True,i,110906.10000002384,1346.6999999284744,1669832968012,1347,HRV,HRV_0125,2022-11-30 18:32:40
67,"[{'imgObject': {}, 'id': 'Grapes', 'src': '/static/foodstim60/Grapes.jpg', 'key': 'u', 'origWidth': 411, 'origHeight': 411, 'width': 411, 'height': 411, 'widthPercent': 0.45, 'rescaleHeight': False, 'trialN': 67, 'loaded': True, 'loadedTime': 5774, 'positionName': 'LEFT', 'positionCoords': [203.4, 154.5], 'bid': 6.17}, {'imgObject': {}, 'id': 'olives', 'src': '/static/foodstim60/olives.jpg', 'key': 'i', 'origWidth': 410, 'origHeight': 410, 'width': 410, 'height': 410, 'widthPercent': 0.45, 'rescaleHeight': False, 'trialN': 67, 'loaded': True, 'loadedTime': 5966.600000023842, 'positionName': 'RIGHT', 'positionCoords': [665.6, 155], 'bid': 6}]",110906.10000002384,1669832968012,Grapes,olives,6.17,6.0,-0.16999999999999993,Grapes,1374.3999999761581,1375,1374.8999999761581,True,u,112792.20000004768,1886.1000000238419,1669832969898,1886,HRV,HRV_0125,2022-11-30 18:32:40
68,"[{'imgObject': {}, 'id': 'raspberries', 'src': '/static/foodstim60/raspberries.jpg', 'key': 'u', 'origWidth': 411, 'origHeight': 411, 'width': 411, 'height': 411, 'widthPercent': 0.45, 'rescaleHeight': False, 'trialN': 68, 'loaded': True, 'loadedTime': 5917.5, 'positionName': 'LEFT', 'positionCoords': [203.4, 154.5], 'bid': 8.5}, {'imgObject': {}, 'id': 'strawberries', 'src': '/static/foodstim60/strawberries.jpg', 'key': 'i', 'origWidth': 410, 'origHeight': 410, 'width': 410, 'height': 410, 'widthPercent': 0.45, 'rescaleHeight': False, 'trialN': 68, 'loaded': True, 'loadedTime': 6096.300000071526, 'positionName': 'RIGHT', 'positionCoords': [665.6, 155], 'bid': 8.21}]",112792.40000009537,1669832969898,raspberries,strawberries,8.5,8.21,-0.28999999999999915,strawberries,773.6999999284744,774,774.2999999523163,True,i,114086.90000009537,1294.5,1669832971193,1295,HRV,HRV_0125,2022-11-30 18:32:40
69,"[{'imgObject': {}, 'id': 'sushi w_condiments', 'src': '/static/foodstim60/sushi w_condiments.jpg', 'key': 'u', 'origWidth': 410, 'origHeight': 410, 'width': 410, 'height': 410, 'widthPercent': 0.45, 'rescaleHeight': False, 'trialN': 69, 'loaded': True, 'loadedTime': 6120.600000023842, 'positionName': 'LEFT', 'positionCoords': [204.4, 155], 'bid': 4.9}, {'imgObject': {}, 'id': 'mango', 'src': '/static/foodstim60/mango.jpg', 'key': 'i', 'origWidth': 411, 'origHeight': 411, 'width': 411, 'height': 411, 'widthPercent': 0.45, 'rescaleHeight': False, 'trialN': 69, 'loaded': True, 'loadedTime': 6294.300000071526, 'positionName': 'RIGHT', 'positionCoords': [665.6, 154.5], 'bid': 7.57}]",114087.0,1669832971193,sushi w_condiments,mango,4.9,7.57,2.67,mango,1012.6000000238419,1013,1013.1000000238419,True,i,115615.70000004768,1528.7000000476837,1669832972721,1528,HRV,HRV_0125,2022-11-30 18:32:40
70,"[{'imgObject': {}, 'id': 'corn cob', 'src': '/static/foodstim60/corn cob.jpg', 'key': 'u', 'origWidth': 411, 'origHeight': 411, 'width': 411, 'height': 411, 'widthPercent': 0.45, 'rescaleHeight': False, 'trialN': 70, 'loaded': True, 'loadedTime': 6268.5, 'positionName': 'LEFT', 'positionCoords': [203.4, 154.5], 'bid': 4.75}, {'imgObject': {}, 'id': 'apple slices', 'src': '/static/foodstim60/apple slices.jpg', 'key': 'i', 'origWidth': 409, 'origHeight': 410, 'width': 409, 'height': 410, 'widthPercent': 0.45, 'rescaleHeight': False, 'trialN': 70, 'loaded': True, 'loadedTime': 6036.600000023842, 'positionName': 'RIGHT', 'positionCoords': [665.6, 155], 'bid': 5.18}]",115615.80000007153,1669832972721,corn cob,apple slices,4.75,5.18,0.4299999999999997,apple slices,1015.6000000238419,1016,1016.0,True,i,117145.30000007153,1529.5,1669832974251,1530,HRV,HRV_0125,2022-11-30 18:32:40
71,"[{'imgObject': {}, 'id': 'cocktailshrimp', 'src': '/static/foodstim60/cocktailshrimp.jpg', 'key': 'u', 'origWidth': 410, 'origHeight': 410, 'width': 410, 'height': 410, 'widthPercent': 0.45, 'rescaleHeight': False, 'trialN': 71, 'loaded': True, 'loadedTime': 6284.400000095367, 'positionName': 'LEFT', 'positionCoords': [204.4, 155], 'bid': 8.9}, {'imgObject': {}, 'id': 'grilled chicken strips', 'src': '/static/foodstim60/grilled chicken strips.jpg', 'key': 'i', 'origWidth': 410, 'origHeight': 411, 'width': 410, 'height': 411, 'widthPercent': 0.45, 'rescaleHeight': False, 'trialN': 71, 'loaded': True, 'loadedTime': 5852.100000023842, 'positionName': 'RIGHT', 'positionCoords': [665.6, 154.5], 'bid': 8.68}]",117145.40000009537,1669832974251,cocktailshrimp,grilled chicken strips,8.9,8.68,-0.22000000000000064,grilled chicken strips,1472.2999999523163,1473,1472.5999999046326,True,i,119122.20000004768,1976.7999999523163,1669832976228,1977,HRV,HRV_0125,2022-11-30 18:32:40
72,"[{'imgObject': {}, 'id': 'seaweed', 'src': '/static/foodstim60/seaweed.jpg', 'key': 'u', 'origWidth': 410, 'origHeight': 410, 'width': 410, 'height': 410, 'widthPercent': 0.45, 'rescaleHeight': False, 'trialN': 72, 'loaded': True, 'loadedTime': 6256.700000047684, 'positionName': 'LEFT', 'positionCoords': [204.4, 155], 'bid': 4.5600000000000005}, {'imgObject': {}, 'id': 'pear', 'src': '/static/foodstim60/pear.jpg', 'key': 'i', 'origWidth': 411, 'origHeight': 410, 'width': 411, 'height': 410, 'widthPercent': 0.45, 'rescaleHeight': False, 'trialN': 72, 'loaded': True, 'loadedTime': 5730.400000095367, 'positionName': 'RIGHT', 'positionCoords': [665.6, 155], 'bid': 7.07}]",119122.40000009537,1669832976228,seaweed,pear,4.5600000000000005,7.07,2.51,pear,964.0999999046326,965,964.5999999046326,True,i,120595.90000009537,1473.5,1669832977701,1473,HRV,HRV_0125,2022-11-30 18:32:40
73,"[{'imgObject': {}, 'id': 'hashbrowns', 'src': '/static/foodstim60/hashbrowns.jpg', 'key': 'u', 'origWidth': 411, 'origHeight': 410, 'width': 411, 'height': 410, 'widthPercent': 0.45, 'rescaleHeight': False, 'trialN': 73, 'loaded': True, 'loadedTime': 6078, 'positionName': 'LEFT', 'positionCoords': [203.4, 155], 'bid': 5.57}, {'imgObject': {}, 'id': 'salad w chicken', 'src': '/static/foodstim60/salad w chicken.jpg', 'key': 'i', 'origWidth': 411, 'origHeight': 411, 'width': 411, 'height': 411, 'widthPercent': 0.45, 'rescaleHeight': False, 'trialN': 73, 'loaded': True, 'loadedTime': 5839.100000023842, 'positionName': 'RIGHT', 'positionCoords': [665.6, 154.5], 'bid': 6.09}]",120596.0,1669832977702,hashbrowns,salad w chicken,5.57,6.09,0.5199999999999996,salad w chicken,903.9000000953674,904,904.4000000953674,True,i,122012.80000007153,1416.8000000715256,1669832979118,1416,HRV,HRV_0125,2022-11-30 18:32:40
74,"[{'imgObject': {}, 'id': 'mango', 'src': '/static/foodstim60/mango.jpg', 'key': 'u', 'origWidth': 411, 'origHeight': 411, 'width': 411, 'height': 411, 'widthPercent': 0.45, 'rescaleHeight': False, 'trialN': 74, 'loaded': True, 'loadedTime': 6296.300000071526, 'positionName': 'LEFT', 'positionCoords': [203.4, 154.5], 'bid': 7.57}, {'imgObject': {}, 'id': 'cocktailshrimp', 'src': '/static/foodstim60/cocktailshrimp.jpg', 'key': 'i', 'origWidth': 410, 'origHeight': 410, 'width': 410, 'height': 410, 'widthPercent': 0.45, 'rescaleHeight': False, 'trialN': 74, 'loaded': True, 'loadedTime': 6282.100000023842, 'positionName': 'RIGHT', 'positionCoords': [665.6, 155], 'bid': 8.9}]",122012.90000009537,1669832979118,mango,cocktailshrimp,7.57,8.9,1.33,cocktailshrimp,1366.0,1367,1366.5,True,i,123880.70000004768,1867.7999999523163,1669832980986,1868,HRV,HRV_0125,2022-11-30 18:32:40
75,"[{'imgObject': {}, 'id': 'strawberries', 'src': '/static/foodstim60/strawberries.jpg', 'key': 'u', 'origWidth': 410, 'origHeight': 410, 'width': 410, 'height': 410, 'widthPercent': 0.45, 'rescaleHeight': False, 'trialN': 75, 'loaded': True, 'loadedTime': 6106.900000095367, 'positionName': 'LEFT', 'positionCoords': [204.4, 155], 'bid': 8.21}, {'imgObject': {}, 'id': 'rigatoni', 'src': '/static/foodstim60/rigatoni.jpg', 'key': 'i', 'origWidth': 411, 'origHeight': 411, 'width': 411, 'height': 411, 'widthPercent': 0.45, 'rescaleHeight': False, 'trialN': 75, 'loaded': True, 'loadedTime': 6273.600000023842, 'positionName': 'RIGHT', 'positionCoords': [665.6, 154.5], 'bid': 6.42}]",123880.90000009537,1669832980986,strawberries,rigatoni,8.21,6.42,-1.790000000000001,strawberries,1051.5,1052,1051.8999999761581,True,u,125451.70000004768,1570.7999999523163,1669832982557,1571,HRV,HRV_0125,2022-11-30 18:32:40
76,"[{'imgObject': {}, 'id': 'luckycharms', 'src': '/static/foodstim60/luckycharms.jpg', 'key': 'u', 'origWidth': 410, 'origHeight': 409, 'width': 410, 'height': 409, 'widthPercent': 0.45, 'rescaleHeight': False, 'trialN': 76, 'loaded': True, 'loadedTime': 6285.200000047684, 'positionName': 'LEFT', 'positionCoords': [204.4, 155.5], 'bid': 5.03}, {'imgObject': {}, 'id': 'salmon', 'src': '/static/foodstim60/salmon.jpg', 'key': 'i', 'origWidth': 410, 'origHeight': 409, 'width': 410, 'height': 409, 'widthPercent': 0.45, 'rescaleHeight': False, 'trialN': 76, 'loaded': True, 'loadedTime': 6298.5, 'positionName': 'RIGHT', 'positionCoords': [665.6, 155.5], 'bid': 5.25}]",125451.80000007153,1669832982557,luckycharms,salmon,5.03,5.25,0.21999999999999975,salmon,773.0,774,773.5,True,i,126732.20000004768,1280.3999999761581,1669832983838,1281,HRV,HRV_0125,2022-11-30 18:32:40
77,"[{'imgObject': {}, 'id': 'omelette', 'src': '/static/foodstim60/omelette.jpg', 'key': 'u', 'origWidth': 410, 'origHeight': 409, 'width': 410, 'height': 409, 'widthPercent': 0.45, 'rescaleHeight': False, 'trialN': 77, 'loaded': True, 'loadedTime': 5931.900000095367, 'positionName': 'LEFT', 'positionCoords': [204.4, 155.5], 'bid': 4.87}, {'imgObject': {}, 'id': 'shreddedwheatwithmilk', 'src': '/static/foodstim60/shreddedwheatwithmilk.jpg', 'key': 'i', 'origWidth': 410, 'origHeight': 410, 'width': 410, 'height': 410, 'widthPercent': 0.45, 'rescaleHeight': False, 'trialN': 77, 'loaded': True, 'loadedTime': 6169.200000047684, 'positionName': 'RIGHT', 'positionCoords': [665.6, 155], 'bid': 3.34}]",126732.20000004768,1669832983838,omelette,shreddedwheatwithmilk,4.87,3.34,-1.5300000000000002,omelette,967.8999999761581,968,968.3999999761581,True,u,128218.30000007153,1486.1000000238419,1669832985324,1486,HRV,HRV_0125,2022-11-30 18:32:40
78,"[{'imgObject': {}, 'id': 'steak', 'src': '/static/foodstim60/steak.jpg', 'key': 'u', 'origWidth': 410, 'origHeight': 410, 'width': 410, 'height': 410, 'widthPercent': 0.45, 'rescaleHeight': False, 'trialN': 78, 'loaded': True, 'loadedTime': 5516.200000047684, 'positionName': 'LEFT', 'positionCoords': [204.4, 155], 'bid': 9.06}, {'imgObject': {}, 'id': 'cocktailshrimp', 'src': '/static/foodstim60/cocktailshrimp.jpg', 'key': 'i', 'origWidth': 410, 'origHeight': 410, 'width': 410, 'height': 410, 'widthPercent': 0.45, 'rescaleHeight': False, 'trialN': 78, 'loaded': True, 'loadedTime': 6284.700000047684, 'positionName': 'RIGHT', 'positionCoords': [665.6, 155], 'bid': 8.9}]",128218.40000009537,1669832985324,steak,cocktailshrimp,9.06,8.9,-0.16000000000000014,steak,848.3999999761581,849,848.7999999523163,True,u,129569.40000009537,1351.0,1669832986675,1351,HRV,HRV_0125,2022-11-30 18:32:40
79,"[{'imgObject': {}, 'id': 'turkeysandwich', 'src': '/static/foodstim60/turkeysandwich.jpg', 'key': 'u', 'origWidth': 409, 'origHeight': 409, 'width': 409, 'height': 409, 'widthPercent': 0.45, 'rescaleHeight': False, 'trialN': 79, 'loaded': True, 'loadedTime': 5953.800000071526, 'positionName': 'LEFT', 'positionCoords': [205.4, 155.5], 'bid': 5.48}, {'imgObject': {}, 'id': 'banana', 'src': '/static/foodstim60/banana.jpg', 'key': 'i', 'origWidth': 410, 'origHeight': 410, 'width': 410, 'height': 410, 'widthPercent': 0.45, 'rescaleHeight': False, 'trialN': 79, 'loaded': True, 'loadedTime': 5682.200000047684, 'positionName': 'RIGHT', 'positionCoords': [665.6, 155], 'bid': 5.37}]",129569.60000002384,1669832986675,turkeysandwich,banana,5.48,5.37,-0.11000000000000032,turkeysandwich,1148.2000000476837,1149,1148.6000000238419,True,u,131230.90000009537,1661.3000000715256,1669832988336,1661,HRV,HRV_0125,2022-11-30 18:32:40
80,"[{'imgObject': {}, 'id': 'bagel plain', 'src': '/static/foodstim60/bagel plain.jpg', 'key': 'u', 'origWidth': 410, 'origHeight': 410, 'width': 410, 'height': 410, 'widthPercent': 0.45, 'rescaleHeight': False, 'trialN': 80, 'loaded': True, 'loadedTime': 6221.600000023842, 'positionName': 'LEFT', 'positionCoords': [204.4, 155], 'bid': 5.03}, {'imgObject': {}, 'id': 'seaweed', 'src': '/static/foodstim60/seaweed.jpg', 'key': 'i', 'origWidth': 410, 'origHeight': 410, 'width': 410, 'height': 410, 'widthPercent': 0.45, 'rescaleHeight': False, 'trialN': 80, 'loaded': True, 'loadedTime': 6261, 'positionName': 'RIGHT', 'positionCoords': [665.6, 155], 'bid': 4.5600000000000005}]",131231.10000002384,1669832988337,bagel plain,seaweed,5.03,4.5600000000000005,-0.46999999999999975,bagel plain,1546.8000000715256,1547,1547.3000000715256,True,u,133292.30000007153,2061.2000000476837,1669832990398,2061,HRV,HRV_0125,2022-11-30 18:32:40
81,"[{'imgObject': {}, 'id': 'bagel plain', 'src': '/static/foodstim60/bagel plain.jpg', 'key': 'u', 'origWidth': 410, 'origHeight': 410, 'width': 410, 'height': 410, 'widthPercent': 0.45, 'rescaleHeight': False, 'trialN': 81, 'loaded': True, 'loadedTime': 6221.300000071526, 'positionName': 'LEFT', 'positionCoords': [204.4, 155], 'bid': 5.03}, {'imgObject': {}, 'id': 'mashed potato', 'src': '/static/foodstim60/mashed potato.jpg', 'key': 'i', 'origWidth': 409, 'origHeight': 409, 'width': 409, 'height': 409, 'widthPercent': 0.45, 'rescaleHeight': False, 'trialN': 81, 'loaded': True, 'loadedTime': 5794.700000047684, 'positionName': 'RIGHT', 'positionCoords': [665.6, 155.5], 'bid': 3.43}]",133292.40000009537,1669832990398,bagel plain,mashed potato,5.03,3.43,-1.6,bagel plain,1167.1999999284744,1168,1167.5999999046326,True,u,134962.10000002384,1669.6999999284744,1669832992068,1670,HRV,HRV_0125,2022-11-30 18:32:40
82,"[{'imgObject': {}, 'id': 'hashbrowns', 'src': '/static/foodstim60/hashbrowns.jpg', 'key': 'u', 'origWidth': 411, 'origHeight': 410, 'width': 411, 'height': 410, 'widthPercent': 0.45, 'rescaleHeight': False, 'trialN': 82, 'loaded': True, 'loadedTime': 6074, 'positionName': 'LEFT', 'positionCoords': [203.4, 155], 'bid': 5.57}, {'imgObject': {}, 'id': 'blackbeanswithrice', 'src': '/static/foodstim60/blackbeanswithrice.jpg', 'key': 'i', 'origWidth': 410, 'origHeight': 410, 'width': 410, 'height': 410, 'widthPercent': 0.45, 'rescaleHeight': False, 'trialN': 82, 'loaded': True, 'loadedTime': 6031, 'positionName': 'RIGHT', 'positionCoords': [665.6, 155], 'bid': 5.78}]",134962.30000007153,1669832992068,hashbrowns,blackbeanswithrice,5.57,5.78,0.20999999999999996,blackbeanswithrice,1346.5,1347,1347.1000000238419,True,i,136817.70000004768,1855.3999999761581,1669832993923,1855,HRV,HRV_0125,2022-11-30 18:32:40
83,"[{'imgObject': {}, 'id': 'grilled chicken strips', 'src': '/static/foodstim60/grilled chicken strips.jpg', 'key': 'u', 'origWidth': 410, 'origHeight': 411, 'width': 410, 'height': 411, 'widthPercent': 0.45, 'rescaleHeight': False, 'trialN': 83, 'loaded': True, 'loadedTime': 5858.300000071526, 'positionName': 'LEFT', 'positionCoords': [204.4, 154.5], 'bid': 8.68}, {'imgObject': {}, 'id': 'granola w milk', 'src': '/static/foodstim60/granola w milk.jpg', 'key': 'i', 'origWidth': 410, 'origHeight': 410, 'width': 410, 'height': 410, 'widthPercent': 0.45, 'rescaleHeight': False, 'trialN': 83, 'loaded': True, 'loadedTime': 6213.5, 'positionName': 'RIGHT', 'positionCoords': [665.6, 155], 'bid': 8.700000000000001}]",136818.0,1669832993924,grilled chicken strips,granola w milk,8.68,8.700000000000001,0.02000000000000135,grilled chicken strips,737.3000000715256,737,737.8000000715256,True,u,138058.30000007153,1240.3000000715256,1669832995164,1240,HRV,HRV_0125,2022-11-30 18:32:40
84,"[{'imgObject': {}, 'id': 'corn cob', 'src': '/static/foodstim60/corn cob.jpg', 'key': 'u', 'origWidth': 411, 'origHeight': 411, 'width': 411, 'height': 411, 'widthPercent': 0.45, 'rescaleHeight': False, 'trialN': 84, 'loaded': True, 'loadedTime': 6269.100000023842, 'positionName': 'LEFT', 'positionCoords': [203.4, 154.5], 'bid': 4.75}, {'imgObject': {}, 'id': 'cherry tomato', 'src': '/static/foodstim60/cherry tomato.jpg', 'key': 'i', 'origWidth': 410, 'origHeight': 410, 'width': 410, 'height': 410, 'widthPercent': 0.45, 'rescaleHeight': False, 'trialN': 84, 'loaded': True, 'loadedTime': 5806.200000047684, 'positionName': 'RIGHT', 'positionCoords': [665.6, 155], 'bid': 3.5}]",138058.5,1669832995164,corn cob,cherry tomato,4.75,3.5,-1.25,corn cob,1297.1000000238419,1298,1297.6000000238419,True,u,139861.30000007153,1802.8000000715256,1669832996967,1803,HRV,HRV_0125,2022-11-30 18:32:40
85,"[{'imgObject': {}, 'id': 'grilled chicken strips', 'src': '/static/foodstim60/grilled chicken strips.jpg', 'key': 'u', 'origWidth': 410, 'origHeight': 411, 'width': 410, 'height': 411, 'widthPercent': 0.45, 'rescaleHeight': False, 'trialN': 85, 'loaded': True, 'loadedTime': 5860.600000023842, 'positionName': 'LEFT', 'positionCoords': [204.4, 154.5], 'bid': 8.68}, {'imgObject': {}, 'id': 'ice cream sundae 002', 'src': '/static/foodstim60/ice cream sundae 002.jpg', 'key': 'i', 'origWidth': 409, 'origHeight': 409, 'width': 409, 'height': 409, 'widthPercent': 0.45, 'rescaleHeight': False, 'trialN': 85, 'loaded': True, 'loadedTime': 5613.100000023842, 'positionName': 'RIGHT', 'positionCoords': [665.6, 155.5], 'bid': 7.73}]",139861.70000004768,1669832996967,grilled chicken strips,ice cream sundae 002,8.68,7.73,-0.9499999999999993,grilled chicken strips,687.7000000476837,688,688.1000000238419,True,u,141058.70000004768,1197.0,1669832998164,1197,HRV,HRV_0125,2022-11-30 18:32:40
86,"[{'imgObject': {}, 'id': 'rigatoni and sauce', 'src': '/static/foodstim60/rigatoni and sauce.jpg', 'key': 'u', 'origWidth': 410, 'origHeight': 411, 'width': 410, 'height': 411, 'widthPercent': 0.45, 'rescaleHeight': False, 'trialN': 86, 'loaded': True, 'loadedTime': 6187.700000047684, 'positionName': 'LEFT', 'positionCoords': [204.4, 154.5], 'bid': 3.06}, {'imgObject': {}, 'id': 'cheerios', 'src': '/static/foodstim60/cheerios.jpg', 'key': 'i', 'origWidth': 409, 'origHeight': 410, 'width': 409, 'height': 410, 'widthPercent': 0.45, 'rescaleHeight': False, 'trialN': 86, 'loaded': True, 'loadedTime': 5940.300000071526, 'positionName': 'RIGHT', 'positionCoords': [665.6, 155], 'bid': 3.96}]",141058.90000009537,1669832998164,rigatoni and sauce,cheerios,3.06,3.96,0.8999999999999999,cheerios,1411.5,1412,1411.8999999761581,True,i,143006.30000007153,1947.3999999761581,1669833000112,1948,HRV,HRV_0125,2022-11-30 18:32:40
87,"[{'imgObject': {}, 'id': 'veggieswithdip', 'src': '/static/foodstim60/veggieswithdip.jpg', 'key': 'u', 'origWidth': 409, 'origHeight': 409, 'width': 409, 'height': 409, 'widthPercent': 0.45, 'rescaleHeight': False, 'trialN': 87, 'loaded': True, 'loadedTime': 6304.700000047684, 'positionName': 'LEFT', 'positionCoords': [205.4, 155.5], 'bid': 4.28}, {'imgObject': {}, 'id': 'chickenfingers', 'src': '/static/foodstim60/chickenfingers.jpg', 'key': 'i', 'origWidth': 410, 'origHeight': 410, 'width': 410, 'height': 410, 'widthPercent': 0.45, 'rescaleHeight': False, 'trialN': 87, 'loaded': True, 'loadedTime': 5716.700000047684, 'positionName': 'RIGHT', 'positionCoords': [665.6, 155], 'bid': 6.75}]",143006.5,1669833000112,veggieswithdip,chickenfingers,4.28,6.75,2.4699999999999998,chickenfingers,1153.9000000953674,1154,1154.4000000953674,True,i,144669.40000009537,1662.9000000953674,1669833001775,1663,HRV,HRV_0125,2022-11-30 18:32:40
88,"[{'imgObject': {}, 'id': 'apple slices', 'src': '/static/foodstim60/apple slices.jpg', 'key': 'u', 'origWidth': 409, 'origHeight': 410, 'width': 409, 'height': 410, 'widthPercent': 0.45, 'rescaleHeight': False, 'trialN': 88, 'loaded': True, 'loadedTime': 6043, 'positionName': 'LEFT', 'positionCoords': [205.4, 155], 'bid': 5.18}, {'imgObject': {}, 'id': 'luckycharms', 'src': '/static/foodstim60/luckycharms.jpg', 'key': 'i', 'origWidth': 410, 'origHeight': 409, 'width': 410, 'height': 409, 'widthPercent': 0.45, 'rescaleHeight': False, 'trialN': 88, 'loaded': True, 'loadedTime': 6288.600000023842, 'positionName': 'RIGHT', 'positionCoords': [665.6, 155.5], 'bid': 5.03}]",144669.5,1669833001775,apple slices,luckycharms,5.18,5.03,-0.14999999999999947,apple slices,731.0,732,731.5,True,u,145907.30000007153,1237.8000000715256,1669833003013,1238,HRV,HRV_0125,2022-11-30 18:32:40
89,"[{'imgObject': {}, 'id': 'Grapes', 'src': '/static/foodstim60/Grapes.jpg', 'key': 'u', 'origWidth': 411, 'origHeight': 411, 'width': 411, 'height': 411, 'widthPercent': 0.45, 'rescaleHeight': False, 'trialN': 89, 'loaded': True, 'loadedTime': 5776.600000023842, 'positionName': 'LEFT', 'positionCoords': [203.4, 154.5], 'bid': 6.17}, {'imgObject': {}, 'id': 'cherry tomato', 'src': '/static/foodstim60/cherry tomato.jpg', 'key': 'i', 'origWidth': 410, 'origHeight': 410, 'width': 410, 'height': 410, 'widthPercent': 0.45, 'rescaleHeight': False, 'trialN': 89, 'loaded': True, 'loadedTime': 5803.700000047684, 'positionName': 'RIGHT', 'positionCoords': [665.6, 155], 'bid': 3.5}]",145907.5,1669833003013,Grapes,cherry tomato,6.17,3.5,-2.67,Grapes,1143.1000000238419,1144,1143.7000000476837,True,u,147558.0,1650.5,1669833004664,1651,HRV,HRV_0125,2022-11-30 18:32:40
90,"[{'imgObject': {}, 'id': 'rigatoni', 'src': '/static/foodstim60/rigatoni.jpg', 'key': 'u', 'origWidth': 411, 'origHeight': 411, 'width': 411, 'height': 411, 'widthPercent': 0.45, 'rescaleHeight': False, 'trialN': 90, 'loaded': True, 'loadedTime': 6271.300000071526, 'positionName': 'LEFT', 'positionCoords': [203.4, 154.5], 'bid': 6.42}, {'imgObject': {}, 'id': 'cantaloupe', 'src': '/static/foodstim60/cantaloupe.jpg', 'key': 'i', 'origWidth': 409, 'origHeight': 409, 'width': 409, 'height': 409, 'widthPercent': 0.45, 'rescaleHeight': False, 'trialN': 90, 'loaded': True, 'loadedTime': 6310.900000095367, 'positionName': 'RIGHT', 'positionCoords': [665.6, 155.5], 'bid': 6.18}]",150446.0,1669833007552,rigatoni,cantaloupe,6.42,6.18,-0.2400000000000002,cantaloupe,1190.9000000953674,1191,1191.7000000476837,True,i,152152.20000004768,1706.2000000476837,1669833009258,1706,HRV,HRV_0125,2022-11-30 18:32:40
91,"[{'imgObject': {}, 'id': 'cantaloupe', 'src': '/static/foodstim60/cantaloupe.jpg', 'key': 'u', 'origWidth': 409, 'origHeight': 409, 'width': 409, 'height': 409, 'widthPercent': 0.45, 'rescaleHeight': False, 'trialN': 91, 'loaded': True, 'loadedTime': 6311.200000047684, 'positionName': 'LEFT', 'positionCoords': [205.4, 155.5], 'bid': 6.18}, {'imgObject': {}, 'id': 'popsicles', 'src': '/static/foodstim60/popsicles.jpg', 'key': 'i', 'origWidth': 410, 'origHeight': 410, 'width': 410, 'height': 410, 'widthPercent': 0.45, 'rescaleHeight': False, 'trialN': 91, 'loaded': True, 'loadedTime': 6414, 'positionName': 'RIGHT', 'positionCoords': [665.6, 155], 'bid': 6.96}]",152152.30000007153,1669833009258,cantaloupe,popsicles,6.18,6.96,0.7800000000000002,cantaloupe,1531.2999999523163,1532,1531.7999999523163,True,u,154194.80000007153,2042.5,1669833011300,2042,HRV,HRV_0125,2022-11-30 18:32:40
92,"[{'imgObject': {}, 'id': 'raisin bran w milk', 'src': '/static/foodstim60/raisin bran w milk.jpg', 'key': 'u', 'origWidth': 411, 'origHeight': 411, 'width': 411, 'height': 411, 'widthPercent': 0.45, 'rescaleHeight': False, 'trialN': 92, 'loaded': True, 'loadedTime': 5697.5, 'positionName': 'LEFT', 'positionCoords': [203.4, 154.5], 'bid': 5.46}, {'imgObject': {}, 'id': 'orange slices', 'src': '/static/foodstim60/orange slices.jpg', 'key': 'i', 'origWidth': 409, 'origHeight': 410, 'width': 409, 'height': 410, 'widthPercent': 0.45, 'rescaleHeight': False, 'trialN': 92, 'loaded': True, 'loadedTime': 6010.400000095367, 'positionName': 'RIGHT', 'positionCoords': [665.6, 155], 'bid': 5.87}]",154195.0,1669833011301,raisin bran w milk,orange slices,5.46,5.87,0.41000000000000014,raisin bran w milk,1157.9000000953674,1158,1158.3000000715256,True,u,155871.40000009537,1676.4000000953674,1669833012977,1676,HRV,HRV_0125,2022-11-30 18:32:40
93,"[{'imgObject': {}, 'id': 'omelette', 'src': '/static/foodstim60/omelette.jpg', 'key': 'u', 'origWidth': 410, 'origHeight': 409, 'width': 410, 'height': 409, 'widthPercent': 0.45, 'rescaleHeight': False, 'trialN': 93, 'loaded': True, 'loadedTime': 5927.100000023842, 'positionName': 'LEFT', 'positionCoords': [204.4, 155.5], 'bid': 4.87}, {'imgObject': {}, 'id': 'bagel plain', 'src': '/static/foodstim60/bagel plain.jpg', 'key': 'i', 'origWidth': 410, 'origHeight': 410, 'width': 410, 'height': 410, 'widthPercent': 0.45, 'rescaleHeight': False, 'trialN': 93, 'loaded': True, 'loadedTime': 6220, 'positionName': 'RIGHT', 'positionCoords': [665.6, 155], 'bid': 5.03}]",155871.5,1669833012977,omelette,bagel plain,4.87,5.03,0.16000000000000014,omelette,1163.0,1164,1163.5,True,u,157547.60000002384,1676.1000000238419,1669833014653,1676,HRV,HRV_0125,2022-11-30 18:32:40
94,"[{'imgObject': {}, 'id': 'salad w chicken', 'src': '/static/foodstim60/salad w chicken.jpg', 'key': 'u', 'origWidth': 411, 'origHeight': 411, 'width': 411, 'height': 411, 'widthPercent': 0.45, 'rescaleHeight': False, 'trialN': 94, 'loaded': True, 'loadedTime': 5813.200000047684, 'positionName': 'LEFT', 'positionCoords': [203.4, 154.5], 'bid': 6.09}, {'imgObject': {}, 'id': 'banana', 'src': '/static/foodstim60/banana.jpg', 'key': 'i', 'origWidth': 410, 'origHeight': 410, 'width': 410, 'height': 410, 'widthPercent': 0.45, 'rescaleHeight': False, 'trialN': 94, 'loaded': True, 'loadedTime': 5676.300000071526, 'positionName': 'RIGHT', 'positionCoords': [665.6, 155], 'bid': 5.37}]",157547.70000004768,1669833014653,salad w chicken,banana,6.09,5.37,-0.7199999999999998,banana,1477.3999999761581,1478,1477.8999999761581,True,i,159531.60000002384,1983.8999999761581,1669833016637,1984,HRV,HRV_0125,2022-11-30 18:32:40
95,"[{'imgObject': {}, 'id': 'rigatoni', 'src': '/static/foodstim60/rigatoni.jpg', 'key': 'u', 'origWidth': 411, 'origHeight': 411, 'width': 411, 'height': 411, 'widthPercent': 0.45, 'rescaleHeight': False, 'trialN': 95, 'loaded': True, 'loadedTime': 6270.600000023842, 'positionName': 'LEFT', 'positionCoords': [203.4, 154.5], 'bid': 6.42}, {'imgObject': {}, 'id': 'bagel and cc', 'src': '/static/foodstim60/bagel and cc.jpg', 'key': 'i', 'origWidth': 410, 'origHeight': 410, 'width': 410, 'height': 410, 'widthPercent': 0.45, 'rescaleHeight': False, 'trialN': 95, 'loaded': True, 'loadedTime': 5864.800000071526, 'positionName': 'RIGHT', 'positionCoords': [665.6, 155], 'bid': 5.5}]",159532.10000002384,1669833016638,rigatoni,bagel and cc,6.42,5.5,-0.9199999999999999,bagel and cc,1181.3000000715256,1181,1181.7000000476837,True,i,161220.5,1688.3999999761581,1669833018326,1688,HRV,HRV_0125,2022-11-30 18:32:40
96,"[{'imgObject': {}, 'id': 'tacos', 'src': '/static/foodstim60/tacos.jpg', 'key': 'u', 'origWidth': 411, 'origHeight': 411, 'width': 411, 'height': 411, 'widthPercent': 0.45, 'rescaleHeight': False, 'trialN': 96, 'loaded': True, 'loadedTime': 6212.5, 'positionName': 'LEFT', 'positionCoords': [203.4, 154.5], 'bid': 8.620000000000001}, {'imgObject': {}, 'id': 'raspberries', 'src': '/static/foodstim60/raspberries.jpg', 'key': 'i', 'origWidth': 411, 'origHeight': 411, 'width': 411, 'height': 411, 'widthPercent': 0.45, 'rescaleHeight': False, 'trialN': 96, 'loaded': True, 'loadedTime': 5888.800000071526, 'positionName': 'RIGHT', 'positionCoords': [665.6, 154.5], 'bid': 8.5}]",161220.70000004768,1669833018326,tacos,raspberries,8.620000000000001,8.5,-0.120000000000001,tacos,1144.8999999761581,1146,1145.5,True,u,162874.20000004768,1653.5,1669833019980,1654,HRV,HRV_0125,2022-11-30 18:32:40
97,"[{'imgObject': {}, 'id': 'edamame', 'src': '/static/foodstim60/edamame.jpg', 'key': 'u', 'origWidth': 409, 'origHeight': 410, 'width': 409, 'height': 410, 'widthPercent': 0.45, 'rescaleHeight': False, 'trialN': 97, 'loaded': True, 'loadedTime': 6263.200000047684, 'positionName': 'LEFT', 'positionCoords': [205.4, 155], 'bid': 3.4}, {'imgObject': {}, 'id': 'fruitsalad', 'src': '/static/foodstim60/fruitsalad.jpg', 'key': 'i', 'origWidth': 410, 'origHeight': 410, 'width': 410, 'height': 410, 'widthPercent': 0.45, 'rescaleHeight': False, 'trialN': 97, 'loaded': True, 'loadedTime': 6307.200000047684, 'positionName': 'RIGHT', 'positionCoords': [665.6, 155], 'bid': 4.18}]",162874.30000007153,1669833019980,edamame,fruitsalad,3.4,4.18,0.7799999999999998,fruitsalad,1030.3999999761581,1031,1030.8999999761581,True,i,164417.70000004768,1543.3999999761581,1669833021523,1543,HRV,HRV_0125,2022-11-30 18:32:40
98,"[{'imgObject': {}, 'id': 'cantaloupe', 'src': '/static/foodstim60/cantaloupe.jpg', 'key': 'u', 'origWidth': 409, 'origHeight': 409, 'width': 409, 'height': 409, 'widthPercent': 0.45, 'rescaleHeight': False, 'trialN': 98, 'loaded': True, 'loadedTime': 6310.200000047684, 'positionName': 'LEFT', 'positionCoords': [205.4, 155.5], 'bid': 6.18}, {'imgObject': {}, 'id': 'chicken nuggets2', 'src': '/static/foodstim60/chicken nuggets2.jpg', 'key': 'i', 'origWidth': 410, 'origHeight': 409, 'width': 410, 'height': 409, 'widthPercent': 0.45, 'rescaleHeight': False, 'trialN': 98, 'loaded': True, 'loadedTime': 6291.900000095367, 'positionName': 'RIGHT', 'positionCoords': [665.6, 155.5], 'bid': 6.43}]",164418.0,1669833021523,cantaloupe,chicken nuggets2,6.18,6.43,0.25,cantaloupe,922.2000000476837,923,922.6000000238419,True,u,165854.90000009537,1436.9000000953674,1669833022961,1438,HRV,HRV_0125,2022-11-30 18:32:40
99,"[{'imgObject': {}, 'id': 'corn cob', 'src': '/static/foodstim60/corn cob.jpg', 'key': 'u', 'origWidth': 411, 'origHeight': 411, 'width': 411, 'height': 411, 'widthPercent': 0.45, 'rescaleHeight': False, 'trialN': 99, 'loaded': True, 'loadedTime': 6268.900000095367, 'positionName': 'LEFT', 'positionCoords': [203.4, 154.5], 'bid': 4.75}, {'imgObject': {}, 'id': 'seaweed', 'src': '/static/foodstim60/seaweed.jpg', 'key': 'i', 'origWidth': 410, 'origHeight': 410, 'width': 410, 'height': 410, 'widthPercent': 0.45, 'rescaleHeight': False, 'trialN': 99, 'loaded': True, 'loadedTime': 6257.300000071526, 'positionName': 'RIGHT', 'positionCoords': [665.6, 155], 'bid': 4.5600000000000005}]",165855.10000002384,1669833022961,corn cob,seaweed,4.75,4.5600000000000005,-0.1899999999999995,corn cob,1245.6000000238419,1246,1246.0,True,u,167619.90000009537,1764.8000000715256,1669833024725,1764,HRV,HRV_0125,2022-11-30 18:32:40
100,"[{'imgObject': {}, 'id': 'steak', 'src': '/static/foodstim60/steak.jpg', 'key': 'u', 'origWidth': 410, 'origHeight': 410, 'width': 410, 'height': 410, 'widthPercent': 0.45, 'rescaleHeight': False, 'trialN': 100, 'loaded': True, 'loadedTime': 5518.900000095367, 'positionName': 'LEFT', 'positionCoords': [204.4, 155], 'bid': 9.06}, {'imgObject': {}, 'id': 'granola w milk', 'src': '/static/foodstim60/granola w milk.jpg', 'key': 'i', 'origWidth': 410, 'origHeight': 410, 'width': 410, 'height': 410, 'widthPercent': 0.45, 'rescaleHeight': False, 'trialN': 100, 'loaded': True, 'loadedTime': 6216.100000023842, 'positionName': 'RIGHT', 'positionCoords': [665.6, 155], 'bid': 8.700000000000001}]",167620.10000002384,1669833024726,steak,granola w milk,9.06,8.700000000000001,-0.35999999999999943,steak,1043.0,1043,1043.3999999761581,True,u,169181.80000007153,1561.7000000476837,1669833026287,1561,HRV,HRV_0125,2022-11-30 18:32:40
101,"[{'imgObject': {}, 'id': 'yogurt no spoon', 'src': '/static/foodstim60/yogurt no spoon.jpg', 'key': 'u', 'origWidth': 411, 'origHeight': 410, 'width': 411, 'height': 410, 'widthPercent': 0.45, 'rescaleHeight': False, 'trialN': 101, 'loaded': True, 'loadedTime': 6113.400000095367, 'positionName': 'LEFT', 'positionCoords': [203.4, 155], 'bid': 8.32}, {'imgObject': {}, 'id': 'pear', 'src': '/static/foodstim60/pear.jpg', 'key': 'i', 'origWidth': 411, 'origHeight': 410, 'width': 411, 'height': 410, 'widthPercent': 0.45, 'rescaleHeight': False, 'trialN': 101, 'loaded': True, 'loadedTime': 5757, 'positionName': 'RIGHT', 'positionCoords': [665.6, 155], 'bid': 7.07}]",169181.90000009537,1669833026287,yogurt no spoon,pear,8.32,7.07,-1.25,yogurt no spoon,1923.1999999284744,1924,1923.5999999046326,True,u,171614.30000007153,2432.399999976158,1669833028720,2433,HRV,HRV_0125,2022-11-30 18:32:40
102,"[{'imgObject': {}, 'id': 'cherry tomato', 'src': '/static/foodstim60/cherry tomato.jpg', 'key': 'u', 'origWidth': 410, 'origHeight': 410, 'width': 410, 'height': 410, 'widthPercent': 0.45, 'rescaleHeight': False, 'trialN': 102, 'loaded': True, 'loadedTime': 5804.100000023842, 'positionName': 'LEFT', 'positionCoords': [204.4, 155], 'bid': 3.5}, {'imgObject': {}, 'id': 'luckycharms', 'src': '/static/foodstim60/luckycharms.jpg', 'key': 'i', 'origWidth': 410, 'origHeight': 409, 'width': 410, 'height': 409, 'widthPercent': 0.45, 'rescaleHeight': False, 'trialN': 102, 'loaded': True, 'loadedTime': 6289, 'positionName': 'RIGHT', 'positionCoords': [665.6, 155.5], 'bid': 5.03}]",171614.40000009537,1669833028720,cherry tomato,luckycharms,3.5,5.03,1.5300000000000002,cherry tomato,2055.5,2056,2056.0,True,u,174194.0,2579.5999999046326,1669833031300,2580,HRV,HRV_0125,2022-11-30 18:32:40
103,"[{'imgObject': {}, 'id': 'cherries', 'src': '/static/foodstim60/cherries.jpg', 'key': 'u', 'origWidth': 410, 'origHeight': 411, 'width': 410, 'height': 411, 'widthPercent': 0.45, 'rescaleHeight': False, 'trialN': 103, 'loaded': True, 'loadedTime': 5546.300000071526, 'positionName': 'LEFT', 'positionCoords': [204.4, 154.5], 'bid': 7.28}, {'imgObject': {}, 'id': 'fried eggs', 'src': '/static/foodstim60/fried eggs.jpg', 'key': 'i', 'origWidth': 410, 'origHeight': 410, 'width': 410, 'height': 410, 'widthPercent': 0.45, 'rescaleHeight': False, 'trialN': 103, 'loaded': True, 'loadedTime': 6205.200000047684, 'positionName': 'RIGHT', 'positionCoords': [665.6, 155], 'bid': 6.65}]",174194.20000004768,1669833031300,cherries,fried eggs,7.28,6.65,-0.6299999999999999,fried eggs,1066.6000000238419,1067,1067.0,True,i,175784.0,1589.7999999523163,1669833032889,1589,HRV,HRV_0125,2022-11-30 18:32:40
104,"[{'imgObject': {}, 'id': 'rigatoni', 'src': '/static/foodstim60/rigatoni.jpg', 'key': 'u', 'origWidth': 411, 'origHeight': 411, 'width': 411, 'height': 411, 'widthPercent': 0.45, 'rescaleHeight': False, 'trialN': 104, 'loaded': True, 'loadedTime': 6271.100000023842, 'positionName': 'LEFT', 'positionCoords': [203.4, 154.5], 'bid': 6.42}, {'imgObject': {}, 'id': 'cheerios', 'src': '/static/foodstim60/cheerios.jpg', 'key': 'i', 'origWidth': 409, 'origHeight': 410, 'width': 409, 'height': 410, 'widthPercent': 0.45, 'rescaleHeight': False, 'trialN': 104, 'loaded': True, 'loadedTime': 5934.300000071526, 'positionName': 'RIGHT', 'positionCoords': [665.6, 155], 'bid': 3.96}]",175784.0,1669833032890,rigatoni,cheerios,6.42,3.96,-2.46,cheerios,1284.3000000715256,1284,1284.8000000715256,True,i,177582.90000009537,1798.9000000953674,1669833034688,1798,HRV,HRV_0125,2022-11-30 18:32:40
105,"[{'imgObject': {}, 'id': 'cherries', 'src': '/static/foodstim60/cherries.jpg', 'key': 'u', 'origWidth': 410, 'origHeight': 411, 'width': 410, 'height': 411, 'widthPercent': 0.45, 'rescaleHeight': False, 'trialN': 105, 'loaded': True, 'loadedTime': 5537.100000023842, 'positionName': 'LEFT', 'positionCoords': [204.4, 154.5], 'bid': 7.28}, {'imgObject': {}, 'id': 'turkey sandwich', 'src': '/static/foodstim60/turkey sandwich.jpg', 'key': 'i', 'origWidth': 409, 'origHeight': 409, 'width': 409, 'height': 409, 'widthPercent': 0.45, 'rescaleHeight': False, 'trialN': 105, 'loaded': True, 'loadedTime': 5619, 'positionName': 'RIGHT', 'positionCoords': [665.6, 155.5], 'bid': 7.48}]",177583.20000004768,1669833034689,cherries,turkey sandwich,7.28,7.48,0.20000000000000018,turkey sandwich,923.2000000476837,923,923.6000000238419,True,i,179010.90000009537,1427.7000000476837,1669833036117,1428,HRV,HRV_0125,2022-11-30 18:32:40
106,"[{'imgObject': {}, 'id': 'cheerios', 'src': '/static/foodstim60/cheerios.jpg', 'key': 'u', 'origWidth': 409, 'origHeight': 410, 'width': 409, 'height': 410, 'widthPercent': 0.45, 'rescaleHeight': False, 'trialN': 106, 'loaded': True, 'loadedTime': 5940, 'positionName': 'LEFT', 'positionCoords': [205.4, 155], 'bid': 3.96}, {'imgObject': {}, 'id': 'cherry tomato', 'src': '/static/foodstim60/cherry tomato.jpg', 'key': 'i', 'origWidth': 410, 'origHeight': 410, 'width': 410, 'height': 410, 'widthPercent': 0.45, 'rescaleHeight': False, 'trialN': 106, 'loaded': True, 'loadedTime': 5797.400000095367, 'positionName': 'RIGHT', 'positionCoords': [665.6, 155], 'bid': 3.5}]",179011.20000004768,1669833036117,cheerios,cherry tomato,3.96,3.5,-0.45999999999999996,cheerios,781.3999999761581,771,782.0,True,u,180301.5,1290.2999999523163,1669833037396,1279,HRV,HRV_0125,2022-11-30 18:32:40
107,"[{'imgObject': {}, 'id': 'fried eggs', 'src': '/static/foodstim60/fried eggs.jpg', 'key': 'u', 'origWidth': 410, 'origHeight': 410, 'width': 410, 'height': 410, 'widthPercent': 0.45, 'rescaleHeight': False, 'trialN': 107, 'loaded': True, 'loadedTime': 6192.300000071526, 'positionName': 'LEFT', 'positionCoords': [204.4, 155], 'bid': 6.65}, {'imgObject': {}, 'id': 'raspberries', 'src': '/static/foodstim60/raspberries.jpg', 'key': 'i', 'origWidth': 411, 'origHeight': 411, 'width': 411, 'height': 411, 'widthPercent': 0.45, 'rescaleHeight': False, 'trialN': 107, 'loaded': True, 'loadedTime': 5891, 'positionName': 'RIGHT', 'positionCoords': [665.6, 154.5], 'bid': 8.5}]",180301.80000007153,1669833037396,fried eggs,raspberries,6.65,8.5,1.8499999999999996,fried eggs,1560.5,1561,1561.0,True,u,182383.40000009537,2081.600000023842,1669833039478,2082,HRV,HRV_0125,2022-11-30 18:32:40
108,"[{'imgObject': {}, 'id': 'lox', 'src': '/static/foodstim60/lox.jpg', 'key': 'u', 'origWidth': 410, 'origHeight': 411, 'width': 410, 'height': 411, 'widthPercent': 0.45, 'rescaleHeight': False, 'trialN': 108, 'loaded': True, 'loadedTime': 6089.400000095367, 'positionName': 'LEFT', 'positionCoords': [204.4, 154.5], 'bid': 8.03}, {'imgObject': {}, 'id': 'granola w milk', 'src': '/static/foodstim60/granola w milk.jpg', 'key': 'i', 'origWidth': 410, 'origHeight': 410, 'width': 410, 'height': 410, 'widthPercent': 0.45, 'rescaleHeight': False, 'trialN': 108, 'loaded': True, 'loadedTime': 6219.5, 'positionName': 'RIGHT', 'positionCoords': [665.6, 155], 'bid': 8.700000000000001}]",182383.5,1669833039478,lox,granola w milk,8.03,8.700000000000001,0.6700000000000017,lox,1214.9000000953674,1215,1215.5,True,u,184113.40000009537,1729.9000000953674,1669833041208,1730,HRV,HRV_0125,2022-11-30 18:32:40
