success,trial_type,trial_index,time_elapsed,internal_node_id,missTrial,missTrialMsg,Block,TrialNumber,TrialTime,trialTimeDiff,FPS_avg,FPS_med,FPS_mode,TrialDur,winResizeTime,rt,block,button_pressed,MotCoh,MotDir,ColCoh,Color,ChoiceKey,Choice,Accuracy,RT,nFrames,FPS,PPD,onsetDelay,fullScreenExitTime,canvCenter,TrialType,Score,BlockTrial,stimulus,button_labels,exp,subjectId,date
True,fullscreen,0,8011,0.0-0.0,True,undefinedblurEvent ,0.0,0.0,,,,,,,,,,,,,,,,,,,,,,,,,,,,,,HRV,HRV_0125,2022-11-30 18:42:27
,wl-check-fps,1,13033,0.0-1.0,,,0.0,1.0,"[12190.1, 12193.1, 12214.2, 12232.4, 12251.1, 12263, 12279, 12291.2, 12307.8, 12323.9, 12340.9, 12358.3, 12373.7, 12391.4, 12407.8, 12424, 12440.6, 12457.4, 12473.9, 12490.4, 12507.2, 12524.3, 12541.1, 12557.8, 12577.7, 12590.7, 12606.3, 12622.9, 12641.4, 12657, 12673.9, 12688.8, 12707, 12724, 12740.7, 12757.1, 12773.6, 12790.3, 12806.9, 12822.4, 12840.2, 12857, 12873.7, 12888.8, 12907, 12923.6, 12940.6, 12957.4, 12973.8, 12989.4, 13006.8, 13022.4, 13039.9, 13056.7, 13073, 13090, 13106.9, 13123.1, 13140.2, 13158.1, 13173.3, 13190.5, 13206.8, 13222.9, 13239.8, 13256.8, 13274.5, 13297.9, 13329.7, 13335.1, 13348, 13362.1, 13376.8, 13392.9, 13407.6, 13428.7, 13441, 13458.4, 13473.4, 13489.1, 13507, 13523.3, 13540.3, 13558, 13573.2, 13589.8, 13606.9, 13623.1, 13640, 13656.9, 13676.9, 13689.7, 13706.5, 13722.6, 13739.5, 13757, 13772.6, 13789.4, 13805.7, 13822.6, 13840.8, 13856, 13872.7, 13889.3, 13906.2, 13922.6, 13946.3, 13973.5, 14011.9, 14016.6, 14029, 14040, 14056.6, 14072.3, 14089.1, 14105.7, 14122.3, 14139.1, 14155.8, 14172.4, 14187.7, 14205.8, 14220.6, 14238.7, 14256.3, 14272.3, 14288, 14305.7, 14322.4, 14338, 14356.3, 14373.4, 14389.2, 14405.7, 14422.7, 14439.6, 14457.4, 14473.1, 14489, 14506.2, 14521.9, 14538.9, 14558.3, 14576.5, 14589.9, 14605.4, 14623, 14641.5, 14660.5, 14677, 14714, 14721.3, 14738.3, 14756.2, 14771.1, 14788.4, 14805.5, 14821.7, 14836.8, 14855.4, 14872, 14887.5, 14905, 14921.6, 14939.7, 14954.9, 14972, 14988.6, 15008.1, 15021.8, 15038.2, 15053.9, 15071.4, 15088.1, 15103.8, 15121.3, 15138.2, 15153.9, 15171.3, 15188.2, 15203.8, 15221.3, 15238.2, 15255.3, 15271.3, 15287.9, 15304.7, 15320.7, 15337.8, 15355.6, 15371.5, 15388, 15405.4, 15421.6, 15438.2, 15455.1, 15471.3, 15489, 15504.9, 15521.1, 15537.8, 15552.7, 15571.3, 15587.6, 15605.7, 15620.4, 15637.7, 15655.5, 15671.1, 15687.8, 15704.2, 15719.6, 15737.5, 15755.4, 15771.3, 15787.5, 15803.3, 15820.8, 15837.4, 15854.6, 15872.1, 15887.6, 15904, 15921.3, 15938.6, 15958.7, 15971.8, 15987.6, 16004.2, 16021, 16038, 16057.5, 16070.7, 16087.9, 16104.1, 16119.1, 16137.5, 16154.6, 16170.9, 16187.3, 16203.9, 16219, 16237.5, 16253.8, 16269, 16287.5, 16304.9, 16320.7, 16337.1, 16353.9, 16368.6, 16388.5, 16404.2, 16420.4, 16437.2, 16453.8, 16473.5, 16487.6, 16504, 16520.6, 16537.3, 16553.8, 16570.5, 16587.2, 16604.6, 16620.3, 16637.1, 16653.7, 16670.2, 16688.3, 16703.5, 16720.5, 16736.8, 16753.8, 16770.4, 16788.3, 16803.5, 16820.1, 16836.7, 16856.3, 16870.4, 16886.8, 16903.6, 16920.6, 16938.6, 16955.2, 16969.9, 16986.7, 17003.4, 17019.9, 17036.5, 17053.8, 17070.2, 17086.9, 17103.2, 17120.5, 17136.9, 17157, 17169.8, 17186.8]","[3.4, 3, 21.1, 18.2, 18.7, 11.9, 16, 12.2, 16.6, 16.1, 17, 17.4, 15.4, 17.7, 16.4, 16.2, 16.6, 16.8, 16.5, 16.5, 16.8, 17.1, 16.8, 16.7, 19.9, 13, 15.6, 16.6, 18.5, 15.6, 16.9, 14.9, 18.2, 17, 16.7, 16.4, 16.5, 16.7, 16.6, 15.5, 17.8, 16.8, 16.7, 15.1, 18.2, 16.6, 17, 16.8, 16.4, 15.6, 17.4, 15.6, 17.5, 16.8, 16.3, 17, 16.9, 16.2, 17.1, 17.9, 15.2, 17.2, 16.3, 16.1, 16.9, 17, 17.7, 23.4, 31.8, 5.4, 12.9, 14.1, 14.7, 16.1, 14.7, 21.1, 12.3, 17.4, 15, 15.7, 17.9, 16.3, 17, 17.7, 15.2, 16.6, 17.1, 16.2, 16.9, 16.9, 20, 12.8, 16.8, 16.1, 16.9, 17.5, 15.6, 16.8, 16.3, 16.9, 18.2, 15.2, 16.7, 16.6, 16.9, 16.4, 23.7, 27.2, 38.4, 4.7, 12.4, 11, 16.6, 15.7, 16.8, 16.6, 16.6, 16.8, 16.7, 16.6, 15.3, 18.1, 14.8, 18.1, 17.6, 16, 15.7, 17.7, 16.7, 15.6, 18.3, 17.1, 15.8, 16.5, 17, 16.9, 17.8, 15.7, 15.9, 17.2, 15.7, 17, 19.4, 18.2, 13.4, 15.5, 17.6, 18.5, 19, 16.5, 37, 7.3, 17, 17.9, 14.9, 17.3, 17.1, 16.2, 15.1, 18.6, 16.6, 15.5, 17.5, 16.6, 18.1, 15.2, 17.1, 16.6, 19.5, 13.7, 16.4, 15.7, 17.5, 16.7, 15.7, 17.5, 16.9, 15.7, 17.4, 16.9, 15.6, 17.5, 16.9, 17.1, 16, 16.6, 16.8, 16, 17.1, 17.8, 15.9, 16.5, 17.4, 16.2, 16.6, 16.9, 16.2, 17.7, 15.9, 16.2, 16.7, 14.9, 18.6, 16.3, 18.1, 14.7, 17.3, 17.8, 15.6, 16.7, 16.4, 15.4, 17.9, 17.9, 15.9, 16.2, 15.8, 17.5, 16.6, 17.2, 17.5, 15.5, 16.4, 17.3, 17.3, 20.1, 13.1, 15.8, 16.6, 16.8, 17, 19.5, 13.2, 17.2, 16.2, 15, 18.4, 17.1, 16.3, 16.4, 16.6, 15.1, 18.5, 16.3, 15.2, 18.5, 17.4, 15.8, 16.4, 16.8, 14.7, 19.9, 15.7, 16.2, 16.8, 16.6, 19.7, 14.1, 16.4, 16.6, 16.7, 16.5, 16.7, 16.7, 17.4, 15.7, 16.8, 16.6, 16.5, 18.1, 15.2, 17, 16.3, 17, 16.6, 17.9, 15.2, 16.6, 16.6, 19.6, 14.1, 16.4, 16.8, 17, 18, 16.6, 14.7, 16.8, 16.7, 16.5, 16.6, 17.3, 16.4, 16.7, 16.3, 17.3, 16.4, 20.1, 12.8, 17]",60.0,37.0,60.0,5016.6,[],,,,,,,,,,,,,,,,,,,,,,,HRV,HRV_0125,2022-11-30 18:42:27
,wl-html-keyboard-response,2,29824,0.0-2.0-0.0,,,0.0,2.0,,,,,,,,14779.599999904633,0.0,0,,,,,,,,,,,,,,,,,,,,HRV,HRV_0125,2022-11-30 18:42:27
,wl-rdm,3,37008,0.0-3.0-0.0,False,,0.0,3.0,,,,,,,[],,,,0.0,0.0,87.9,0.0,u,0.0,True,1589.8999999761581,96.0,60.0,40.0,3000.0,[],"[640, 360]",ColorTask_Demo,,,,,HRV,HRV_0125,2022-11-30 18:42:27
,wl-rdm,4,41968,0.0-3.0-1.0,False,,0.0,4.0,,,,,,,[],,,,0.0,0.0,87.9,1.0,i,1.0,True,876.0,53.0,60.0,40.0,2000.0,[],"[640, 360]",ColorTask_Demo,,,,,HRV,HRV_0125,2022-11-30 18:42:27
,wl-html-keyboard-response,5,51688,0.0-3.0-2.0,,,0.0,5.0,,,,,,,,7706.5,0.0,1,,,,,,,,,,,,,,,,,,,,HRV,HRV_0125,2022-11-30 18:42:27
,wl-html-keyboard-response,6,62448,0.0-4.0-0.0,,,0.0,6.0,,,,,,,,8749.5,0.0,0,,,,,,,,,,,,,,,,,,,,HRV,HRV_0125,2022-11-30 18:42:27
,wl-html-keyboard-response,7,76664,0.0-5.0-0.0,,,0.0,7.0,,,,,,,,12207.5,0.0,0,,,,,,,,,,,,,,,,,,,,HRV,HRV_0125,2022-11-30 18:42:27
,wl-rdm,8,79185,0.0-6.0-0.0,False,,0.0,8.0,,,,,,,[],,,,,,53.2,1.0,i,1.0,True,1210.8999999761581,73.0,60.0,40.0,245.59622806570582,[],"[640, 360]",ColorTask,1.0,1.0,,,HRV,HRV_0125,2022-11-30 18:42:27
,wl-rdm,9,82015,0.0-6.1-0.1,False,,0.0,9.0,,,,,,,[],,,,,,53.2,0.0,i,1.0,False,1389.1000000238419,84.0,60.0,40.0,358.1906763902973,[],"[640, 360]",ColorTask,0.0,2.0,,,HRV,HRV_0125,2022-11-30 18:42:27
,wl-rdm,10,84579,0.0-6.2-0.2,False,,0.0,10.0,,,,,,,[],,,,,,56.4,1.0,i,1.0,True,1216.8999998569489,73.0,60.0,40.0,268.3765434331806,[],"[640, 360]",ColorTask,1.0,3.0,,,HRV,HRV_0125,2022-11-30 18:42:27
,wl-rdm,11,86894,0.0-6.3-0.3,False,,0.0,11.0,,,,,,,[],,,,,,62.5,1.0,i,1.0,True,1008.5,61.0,60.0,40.0,225.463160342342,[],"[640, 360]",ColorTask,2.0,4.0,,,HRV,HRV_0125,2022-11-30 18:42:27
,wl-rdm,12,89062,0.0-6.4-0.4,False,,0.0,12.0,,,,,,,[],,,,,,50.0,0.0,u,0.0,True,896.0,54.0,60.0,40.0,212.65720779644133,[],"[640, 360]",ColorTask,3.0,5.0,,,HRV,HRV_0125,2022-11-30 18:42:27
,wl-rdm,13,91407,0.0-6.5-0.5,False,,0.0,13.0,,,,,,,[],,,,,,50.0,1.0,i,1.0,True,989.3999998569489,60.0,60.0,40.0,285.69691688660134,[],"[640, 360]",ColorTask,4.0,6.0,,,HRV,HRV_0125,2022-11-30 18:42:27
,wl-rdm,14,93670,0.0-6.6-0.6,False,,0.0,14.0,,,,,,,[],,,,,,73.6,1.0,i,1.0,True,955.8000000715256,58.0,60.0,40.0,238.61115292371443,[],"[640, 360]",ColorTask,5.0,7.0,,,HRV,HRV_0125,2022-11-30 18:42:27
,wl-rdm,15,96085,0.0-6.7-0.7,False,,0.0,15.0,,,,,,,[],,,,,,50.0,0.0,i,1.0,False,1092.3000000715256,66.0,60.0,40.0,234.90111387782218,[],"[640, 360]",ColorTask,4.0,8.0,,,HRV,HRV_0125,2022-11-30 18:42:27
,wl-rdm,16,98385,0.0-6.8-0.8,False,,0.0,16.0,,,,,,,[],,,,,,73.6,1.0,i,1.0,True,925.8999998569489,56.0,60.0,40.0,307.56382961482853,[],"[640, 360]",ColorTask,5.0,9.0,,,HRV,HRV_0125,2022-11-30 18:42:27
,wl-rdm,17,100431,0.0-6.9-0.9,False,,0.0,17.0,,,,,,,[],,,,,,87.9,0.0,u,0.0,True,747.6999999284744,45.0,60.0,40.0,224.35663822010534,[],"[640, 360]",ColorTask,6.0,10.0,,,HRV,HRV_0125,2022-11-30 18:42:27
,wl-rdm,18,102579,0.0-6.10-0.10,False,,0.0,18.0,,,,,,,[],,,,,,87.9,1.0,i,1.0,True,757.5999999046326,46.0,60.0,40.0,307.5045477385305,[],"[640, 360]",ColorTask,7.0,11.0,,,HRV,HRV_0125,2022-11-30 18:42:27
,wl-rdm,19,104843,0.0-6.11-0.11,False,,0.0,19.0,,,,,,,[],,,,,,62.5,0.0,u,0.0,True,828.7000000476837,50.0,60.0,40.0,351.24555424471043,[],"[640, 360]",ColorTask,8.0,12.0,,,HRV,HRV_0125,2022-11-30 18:42:27
,wl-rdm,20,106908,0.0-6.12-0.12,False,,0.0,20.0,,,,,,,[],,,,,,73.6,0.0,u,0.0,True,781.1000000238419,47.0,60.0,40.0,208.3898527972746,[],"[640, 360]",ColorTask,9.0,13.0,,,HRV,HRV_0125,2022-11-30 18:42:27
,wl-rdm,21,109141,0.0-6.13-0.13,False,,0.0,21.0,,,,,,,[],,,,,,50.0,1.0,u,0.0,False,906.5000001192093,55.0,60.0,40.0,259.8780059665125,[],"[640, 360]",ColorTask,8.0,14.0,,,HRV,HRV_0125,2022-11-30 18:42:27
,wl-rdm,22,111370,0.0-6.14-0.14,False,,0.0,22.0,,,,,,,[],,,,,,56.4,1.0,u,0.0,False,910.3999999761581,55.0,60.0,40.0,235.0926432980836,[],"[640, 360]",ColorTask,7.0,15.0,,,HRV,HRV_0125,2022-11-30 18:42:27
,wl-rdm,23,113735,0.0-6.15-0.15,False,,0.0,23.0,,,,,,,[],,,,,,53.2,0.0,i,1.0,False,1078.0000001192093,65.0,60.0,40.0,209.258539028832,[],"[640, 360]",ColorTask,6.0,16.0,,,HRV,HRV_0125,2022-11-30 18:42:27
,wl-rdm,24,116066,0.0-6.16-0.16,False,,0.0,24.0,,,,,,,[],,,,,,87.9,1.0,i,1.0,True,990.2000000476837,60.0,60.0,40.0,250.9131429010094,[],"[640, 360]",ColorTask,7.0,17.0,,,HRV,HRV_0125,2022-11-30 18:42:27
,wl-rdm,25,118630,0.0-6.17-0.17,False,,0.0,25.0,,,,,,,[],,,,,,50.0,1.0,u,0.0,False,1123.1000000238419,68.0,60.0,40.0,372.52075031097695,[],"[640, 360]",ColorTask,6.0,18.0,,,HRV,HRV_0125,2022-11-30 18:42:27
,wl-rdm,26,120945,0.0-6.18-0.18,False,,0.0,26.0,,,,,,,[],,,,,,50.0,1.0,u,0.0,False,947.8999999761581,57.0,60.0,40.0,297.64658920894203,[],"[640, 360]",ColorTask,5.0,19.0,,,HRV,HRV_0125,2022-11-30 18:42:27
,wl-rdm,27,123292,0.0-6.19-0.19,False,,0.0,27.0,,,,,,,[],,,,,,56.4,1.0,u,0.0,False,1011.2000000476837,61.0,60.0,40.0,251.99702969929592,[],"[640, 360]",ColorTask,4.0,20.0,,,HRV,HRV_0125,2022-11-30 18:42:27
,wl-rdm,28,125606,0.0-6.20-0.20,False,,0.0,28.0,,,,,,,[],,,,,,50.0,0.0,u,0.0,True,984.0000001192093,59.0,60.0,40.0,253.26197033551355,[],"[640, 360]",ColorTask,5.0,21.0,,,HRV,HRV_0125,2022-11-30 18:42:27
,wl-rdm,29,128188,0.0-6.21-0.21,False,,0.0,29.0,,,,,,,[],,,,,,62.5,1.0,u,0.0,False,1189.0999999046326,72.0,60.0,40.0,324.33487501138234,[],"[640, 360]",ColorTask,4.0,22.0,,,HRV,HRV_0125,2022-11-30 18:42:27
,wl-rdm,30,130453,0.0-6.22-0.22,False,,0.0,30.0,,,,,,,[],,,,,,87.9,1.0,i,1.0,True,973.3000000715256,59.0,60.0,40.0,231.81876701248189,[],"[640, 360]",ColorTask,5.0,23.0,,,HRV,HRV_0125,2022-11-30 18:42:27
,wl-rdm,31,132933,0.0-6.23-0.23,False,,0.0,31.0,,,,,,,[],,,,,,62.5,1.0,i,1.0,True,1120.2000000476837,68.0,60.0,40.0,283.7969076504391,[],"[640, 360]",ColorTask,6.0,24.0,,,HRV,HRV_0125,2022-11-30 18:42:27
,wl-rdm,32,135115,0.0-6.24-0.24,False,,0.0,32.0,,,,,,,[],,,,,,73.6,0.0,u,0.0,True,756.2000000476837,46.0,60.0,40.0,344.6946745292174,[],"[640, 360]",ColorTask,7.0,25.0,,,HRV,HRV_0125,2022-11-30 18:42:27
,wl-rdm,33,137498,0.0-6.25-0.25,False,,0.0,33.0,,,,,,,[],,,,,,62.5,1.0,i,1.0,True,1089.5,66.0,60.0,40.0,213.3156703744285,[],"[640, 360]",ColorTask,8.0,26.0,,,HRV,HRV_0125,2022-11-30 18:42:27
,wl-rdm,34,139494,0.0-6.26-0.26,False,,0.0,34.0,,,,,,,[],,,,,,87.9,0.0,u,0.0,True,707.1000000238419,43.0,60.0,40.0,205.41012024195334,[],"[640, 360]",ColorTask,9.0,27.0,,,HRV,HRV_0125,2022-11-30 18:42:27
,wl-rdm,35,141696,0.0-6.27-0.27,False,,0.0,35.0,,,,,,,[],,,,,,56.4,0.0,u,0.0,True,740.5,45.0,60.0,40.0,380.10619917414317,[],"[640, 360]",ColorTask,10.0,28.0,,,HRV,HRV_0125,2022-11-30 18:42:27
,wl-rdm,36,144057,0.0-6.28-0.28,False,,0.0,36.0,,,,,,,[],,,,,,56.4,0.0,u,0.0,True,1073.3999999761581,65.0,60.0,40.0,208.46578549296657,[],"[640, 360]",ColorTask,11.0,29.0,,,HRV,HRV_0125,2022-11-30 18:42:27
,wl-rdm,37,146221,0.0-6.29-0.29,False,,0.0,37.0,,,,,,,[],,,,,,87.9,1.0,i,1.0,True,811.7000000476837,49.0,60.0,40.0,280.8607320219055,[],"[640, 360]",ColorTask,12.0,30.0,,,HRV,HRV_0125,2022-11-30 18:42:27
,wl-rdm,38,148236,0.0-6.30-0.30,False,,0.0,38.0,,,,,,,[],,,,,,73.6,0.0,u,0.0,True,725.0,44.0,60.0,40.0,221.3497211188416,[],"[640, 360]",ColorTask,13.0,31.0,,,HRV,HRV_0125,2022-11-30 18:42:27
,wl-rdm,39,150434,0.0-6.31-0.31,False,,0.0,39.0,,,,,,,[],,,,,,56.4,1.0,i,1.0,True,925.3999999761581,56.0,60.0,40.0,206.0743878287754,[],"[640, 360]",ColorTask,14.0,32.0,,,HRV,HRV_0125,2022-11-30 18:42:27
,wl-rdm,40,152532,0.0-6.32-0.32,False,,0.0,40.0,,,,,,,[],,,,,,73.6,1.0,i,1.0,True,809.3999998569489,49.0,60.0,40.0,226.4755067181609,[],"[640, 360]",ColorTask,15.0,33.0,,,HRV,HRV_0125,2022-11-30 18:42:27
,wl-rdm,41,154630,0.0-6.33-0.33,False,,0.0,41.0,,,,,,,[],,,,,,53.2,1.0,u,0.0,False,811.4000000953674,49.0,60.0,40.0,205.22058832018033,[],"[640, 360]",ColorTask,14.0,34.0,,,HRV,HRV_0125,2022-11-30 18:42:27
,wl-rdm,42,156745,0.0-6.34-0.34,False,,0.0,42.0,,,,,,,[],,,,,,87.9,0.0,u,0.0,True,776.6000000238419,47.0,60.0,40.0,264.56382860195333,[],"[640, 360]",ColorTask,15.0,35.0,,,HRV,HRV_0125,2022-11-30 18:42:27
,wl-rdm,43,158893,0.0-6.35-0.35,False,,0.0,43.0,,,,,,,[],,,,,,73.6,1.0,i,1.0,True,827.3000000715256,50.0,60.0,40.0,263.7430268622823,[],"[640, 360]",ColorTask,16.0,36.0,,,HRV,HRV_0125,2022-11-30 18:42:27
,wl-rdm,44,160924,0.0-6.36-0.36,False,,0.0,44.0,,,,,,,[],,,,,,73.6,1.0,i,1.0,True,657.2999999523163,40.0,60.0,40.0,290.0423856747816,[],"[640, 360]",ColorTask,17.0,37.0,,,HRV,HRV_0125,2022-11-30 18:42:27
,wl-rdm,45,163005,0.0-6.37-0.37,False,,0.0,45.0,,,,,,,[],,,,,,50.0,1.0,u,0.0,False,717.6000000238419,43.0,60.0,40.0,281.1725901586072,[],"[640, 360]",ColorTask,16.0,38.0,,,HRV,HRV_0125,2022-11-30 18:42:27
,wl-rdm,46,165303,0.0-6.38-0.38,False,,0.0,46.0,,,,,,,[],,,,,,56.4,0.0,i,1.0,False,839.1000000238419,51.0,60.0,40.0,367.2429342122446,[],"[640, 360]",ColorTask,15.0,39.0,,,HRV,HRV_0125,2022-11-30 18:42:27
,wl-rdm,47,167634,0.0-6.39-0.39,False,,0.0,47.0,,,,,,,[],,,,,,50.0,1.0,i,1.0,True,942.6000000238419,57.0,60.0,40.0,315.80547421447244,[],"[640, 360]",ColorTask,16.0,40.0,,,HRV,HRV_0125,2022-11-30 18:42:27
,wl-rdm,48,170033,0.0-6.40-0.40,False,,0.0,48.0,,,,,,,[],,,,,,62.5,1.0,i,1.0,True,1058.2000000476837,64.0,60.0,40.0,259.27706165309166,[],"[640, 360]",ColorTask,17.0,41.0,,,HRV,HRV_0125,2022-11-30 18:42:27
,wl-rdm,49,172215,0.0-6.41-0.41,False,,0.0,49.0,,,,,,,[],,,,,,56.4,0.0,u,0.0,True,806.5999999046326,49.0,60.0,40.0,317.5149950971118,[],"[640, 360]",ColorTask,18.0,42.0,,,HRV,HRV_0125,2022-11-30 18:42:27
,wl-rdm,50,174595,0.0-6.42-0.42,False,,0.0,50.0,,,,,,,[],,,,,,73.6,0.0,u,0.0,True,1095.2000000476837,66.0,60.0,40.0,229.23862017195006,[],"[640, 360]",ColorTask,19.0,43.0,,,HRV,HRV_0125,2022-11-30 18:42:27
,wl-rdm,51,176776,0.0-6.43-0.43,False,,0.0,51.0,,,,,,,[],,,,,,56.4,1.0,i,1.0,True,756.1000000238419,46.0,60.0,40.0,336.96535836890996,[],"[640, 360]",ColorTask,20.0,44.0,,,HRV,HRV_0125,2022-11-30 18:42:27
,wl-rdm,52,178874,0.0-6.44-0.44,False,,0.0,52.0,,,,,,,[],,,,,,53.2,0.0,u,0.0,True,822.5,50.0,60.0,40.0,211.38951798754513,[],"[640, 360]",ColorTask,21.0,45.0,,,HRV,HRV_0125,2022-11-30 18:42:27
,wl-rdm,53,180872,0.0-6.45-0.45,False,,0.0,53.0,,,,,,,[],,,,,,73.6,1.0,i,1.0,True,724.3999999761581,44.0,60.0,40.0,213.83331863065519,[],"[640, 360]",ColorTask,22.0,46.0,,,HRV,HRV_0125,2022-11-30 18:42:27
,wl-rdm,54,182904,0.0-6.46-0.46,False,,0.0,54.0,,,,,,,[],,,,,,62.5,0.0,u,0.0,True,689.9000000953674,42.0,60.0,40.0,279.6033653282673,[],"[640, 360]",ColorTask,23.0,47.0,,,HRV,HRV_0125,2022-11-30 18:42:27
,wl-rdm,55,185101,0.0-6.47-0.47,False,,0.0,55.0,,,,,,,[],,,,,,73.6,1.0,i,1.0,True,709.1999999284744,43.0,60.0,40.0,399.9377444591228,[],"[640, 360]",ColorTask,24.0,48.0,,,HRV,HRV_0125,2022-11-30 18:42:27
,wl-rdm,56,187248,0.0-6.48-0.48,False,,0.0,56.0,,,,,,,[],,,,,,53.2,1.0,i,1.0,True,861.3999999761581,52.0,60.0,40.0,212.44039629503754,[],"[640, 360]",ColorTask,25.0,49.0,,,HRV,HRV_0125,2022-11-30 18:42:27
,wl-rdm,57,189385,0.0-6.49-0.49,False,,0.0,57.0,,,,,,,[],,,,,,87.9,1.0,i,1.0,True,740.3999999761581,45.0,60.0,40.0,326.665098923285,[],"[640, 360]",ColorTask,26.0,50.0,,,HRV,HRV_0125,2022-11-30 18:42:27
,wl-rdm,58,191594,0.0-6.50-0.50,False,,0.0,58.0,,,,,,,[],,,,,,56.4,0.0,u,0.0,True,824.8000000715256,50.0,60.0,40.0,303.5675918118302,[],"[640, 360]",ColorTask,27.0,51.0,,,HRV,HRV_0125,2022-11-30 18:42:27
,wl-rdm,59,193894,0.0-6.51-0.51,False,,0.0,59.0,,,,,,,[],,,,,,50.0,1.0,u,0.0,False,944.7999999523163,57.0,60.0,40.0,295.3782326538041,[],"[640, 360]",ColorTask,26.0,52.0,,,HRV,HRV_0125,2022-11-30 18:42:27
,wl-rdm,60,196341,0.0-6.52-0.52,False,,0.0,60.0,,,,,,,[],,,,,,50.0,0.0,i,1.0,False,1139.5999999046326,69.0,60.0,40.0,222.4357851406932,[],"[640, 360]",ColorTask,25.0,53.0,,,HRV,HRV_0125,2022-11-30 18:42:27
,wl-rdm,61,198572,0.0-6.53-0.53,False,,0.0,61.0,,,,,,,[],,,,,,62.5,0.0,u,0.0,True,843.0,51.0,60.0,40.0,314.9964891588336,[],"[640, 360]",ColorTask,26.0,54.0,,,HRV,HRV_0125,2022-11-30 18:42:27
,wl-rdm,62,200938,0.0-6.54-0.54,False,,0.0,62.0,,,,,,,[],,,,,,62.5,1.0,u,0.0,False,1039.1999999284744,63.0,60.0,40.0,253.27105445774492,[],"[640, 360]",ColorTask,25.0,55.0,,,HRV,HRV_0125,2022-11-30 18:42:27
,wl-rdm,63,203101,0.0-6.55-0.55,False,,0.0,63.0,,,,,,,[],,,,,,62.5,0.0,u,0.0,True,859.1000000238419,52.0,60.0,40.0,231.70754282100148,[],"[640, 360]",ColorTask,26.0,56.0,,,HRV,HRV_0125,2022-11-30 18:42:27
,wl-rdm,64,205434,0.0-6.56-0.56,False,,0.0,64.0,,,,,,,[],,,,,,87.9,0.0,u,0.0,True,988.9000000953674,60.0,60.0,40.0,257.2685014074624,[],"[640, 360]",ColorTask,27.0,57.0,,,HRV,HRV_0125,2022-11-30 18:42:27
,wl-rdm,65,207731,0.0-6.57-0.57,False,,0.0,65.0,,,,,,,[],,,,,,50.0,0.0,u,0.0,True,823.8000000715256,50.0,60.0,40.0,398.6154990248257,[],"[640, 360]",ColorTask,28.0,58.0,,,HRV,HRV_0125,2022-11-30 18:42:27
,wl-rdm,66,210145,0.0-6.58-0.58,False,,0.0,66.0,,,,,,,[],,,,,,53.2,0.0,u,0.0,True,1029.1000000238419,62.0,60.0,40.0,305.95674263740534,[],"[640, 360]",ColorTask,29.0,59.0,,,HRV,HRV_0125,2022-11-30 18:42:27
,wl-rdm,67,212343,0.0-6.59-0.59,False,,0.0,67.0,,,,,,,[],,,,,,53.2,1.0,i,1.0,True,824.8999999761581,50.0,60.0,40.0,300.4171581151487,[],"[640, 360]",ColorTask,30.0,60.0,,,HRV,HRV_0125,2022-11-30 18:42:27
,wl-rdm,68,214474,0.0-6.60-0.60,False,,0.0,68.0,,,,,,,[],,,,,,87.9,0.0,u,0.0,True,810.2000000476837,49.0,60.0,40.0,242.2223288710956,[],"[640, 360]",ColorTask,31.0,61.0,,,HRV,HRV_0125,2022-11-30 18:42:27
,wl-rdm,69,216672,0.0-6.61-0.61,False,,0.0,69.0,,,,,,,[],,,,,,50.0,0.0,u,0.0,True,791.1999998092651,48.0,60.0,40.0,339.8617487396972,[],"[640, 360]",ColorTask,32.0,62.0,,,HRV,HRV_0125,2022-11-30 18:42:27
,wl-rdm,70,218970,0.0-6.62-0.62,False,,0.0,70.0,,,,,,,[],,,,,,53.2,1.0,u,0.0,False,840.0999999046326,50.0,60.0,40.0,378.7141849071348,[],"[640, 360]",ColorTask,31.0,63.0,,,HRV,HRV_0125,2022-11-30 18:42:27
,wl-rdm,71,221050,0.0-6.63-0.63,False,,0.0,71.0,,,,,,,[],,,,,,73.6,0.0,u,0.0,True,777.4000000953674,47.0,60.0,40.0,223.64193071788247,[],"[640, 360]",ColorTask,32.0,64.0,,,HRV,HRV_0125,2022-11-30 18:42:27
,wl-rdm,72,223149,0.0-6.64-0.64,False,,0.0,72.0,,,,,,,[],,,,,,87.9,0.0,i,1.0,False,690.0,42.0,60.0,40.0,341.0450402302039,[],"[640, 360]",ColorTask,31.0,65.0,,,HRV,HRV_0125,2022-11-30 18:42:27
,wl-rdm,73,225780,0.0-6.65-0.65,False,,0.0,73.0,,,,,,,[],,,,,,62.5,0.0,i,1.0,False,1258.5000001192093,76.0,60.0,40.0,288.2665422925207,[],"[640, 360]",ColorTask,30.0,66.0,,,HRV,HRV_0125,2022-11-30 18:42:27
,wl-rdm,74,227943,0.0-6.66-0.66,False,,0.0,74.0,,,,,,,[],,,,,,73.6,0.0,u,0.0,True,747.7999999523163,45.0,60.0,40.0,361.77827042135766,[],"[640, 360]",ColorTask,31.0,67.0,,,HRV,HRV_0125,2022-11-30 18:42:27
,wl-rdm,75,229991,0.0-6.67-0.67,False,,0.0,75.0,,,,,,,[],,,,,,73.6,0.0,u,0.0,True,763.9000000953674,46.0,60.0,40.0,203.41408549245799,[],"[640, 360]",ColorTask,32.0,68.0,,,HRV,HRV_0125,2022-11-30 18:42:27
,wl-rdm,76,232107,0.0-6.68-0.68,False,,0.0,76.0,,,,,,,[],,,,,,53.2,1.0,i,1.0,True,758.9999998807907,45.0,60.0,40.0,288.7645177758606,[],"[640, 360]",ColorTask,33.0,69.0,,,HRV,HRV_0125,2022-11-30 18:42:27
,wl-rdm,77,234472,0.0-6.69-0.69,False,,0.0,77.0,,,,,,,[],,,,,,53.2,1.0,i,1.0,True,1025.2999999523163,62.0,60.0,40.0,259.5925656896779,[],"[640, 360]",ColorTask,34.0,70.0,,,HRV,HRV_0125,2022-11-30 18:42:27
,wl-rdm,78,236753,0.0-6.70-0.70,False,,0.0,78.0,,,,,,,[],,,,,,56.4,0.0,u,0.0,True,839.1000000238419,51.0,60.0,40.0,364.4950829376003,[],"[640, 360]",ColorTask,35.0,71.0,,,HRV,HRV_0125,2022-11-30 18:42:27
,wl-rdm,79,239068,0.0-6.71-0.71,False,,0.0,79.0,,,,,,,[],,,,,,50.0,0.0,u,0.0,True,924.1000000238419,56.0,60.0,40.0,310.16527948529864,[],"[640, 360]",ColorTask,36.0,72.0,,,HRV,HRV_0125,2022-11-30 18:42:27
,wl-rdm,80,241349,0.0-6.72-0.72,False,,0.0,80.0,,,,,,,[],,,,,,56.4,1.0,i,1.0,True,924.8999999761581,56.0,60.0,40.0,290.30360932402755,[],"[640, 360]",ColorTask,37.0,73.0,,,HRV,HRV_0125,2022-11-30 18:42:27
,wl-rdm,81,243781,0.0-6.73-0.73,False,,0.0,81.0,,,,,,,[],,,,,,62.5,1.0,i,1.0,True,1073.6999999284744,65.0,60.0,40.0,273.65334561710654,[],"[640, 360]",ColorTask,38.0,74.0,,,HRV,HRV_0125,2022-11-30 18:42:27
,wl-rdm,82,245928,0.0-6.74-0.74,False,,0.0,82.0,,,,,,,[],,,,,,87.9,0.0,u,0.0,True,739.4000000953674,45.0,60.0,40.0,321.5040183801353,[],"[640, 360]",ColorTask,39.0,75.0,,,HRV,HRV_0125,2022-11-30 18:42:27
,wl-rdm,83,248342,0.0-6.75-0.75,False,,0.0,83.0,,,,,,,[],,,,,,53.2,0.0,i,1.0,False,975.2000000476837,59.0,60.0,40.0,356.9787955843107,[],"[640, 360]",ColorTask,38.0,76.0,,,HRV,HRV_0125,2022-11-30 18:42:27
,wl-rdm,84,250823,0.0-6.76-0.76,False,,0.0,84.0,,,,,,,[],,,,,,50.0,0.0,i,1.0,False,1178.0999999046326,71.0,60.0,40.0,220.21152767428808,[],"[640, 360]",ColorTask,37.0,77.0,,,HRV,HRV_0125,2022-11-30 18:42:27
,wl-rdm,85,253105,0.0-6.77-0.77,False,,0.0,85.0,,,,,,,[],,,,,,53.2,0.0,u,0.0,True,961.3000000715256,58.0,60.0,40.0,232.4179033635551,[],"[640, 360]",ColorTask,38.0,78.0,,,HRV,HRV_0125,2022-11-30 18:42:27
,wl-rdm,86,255102,0.0-6.78-0.78,False,,0.0,86.0,,,,,,,[],,,,,,87.9,1.0,i,1.0,True,710.1000000238419,43.0,60.0,40.0,206.6558337725016,[],"[640, 360]",ColorTask,39.0,79.0,,,HRV,HRV_0125,2022-11-30 18:42:27
,wl-rdm,87,257650,0.0-6.79-0.79,False,,0.0,87.0,,,,,,,[],,,,,,56.4,0.0,u,0.0,True,1097.3000000715256,66.0,60.0,40.0,368.5854545419735,[],"[640, 360]",ColorTask,40.0,80.0,,,HRV,HRV_0125,2022-11-30 18:42:27
,wl-rdm,88,259815,0.0-6.80-0.80,False,,0.0,88.0,,,,,,,[],,,,,,87.9,0.0,u,0.0,True,773.2000000476837,47.0,60.0,40.0,316.9473017533706,[],"[640, 360]",ColorTask,41.0,81.0,,,HRV,HRV_0125,2022-11-30 18:42:27
,wl-rdm,89,262179,0.0-6.81-0.81,False,,0.0,89.0,,,,,,,[],,,,,,53.2,0.0,u,0.0,True,929.6000000238419,56.0,60.0,40.0,350.32800669209263,[],"[640, 360]",ColorTask,42.0,82.0,,,HRV,HRV_0125,2022-11-30 18:42:27
,wl-rdm,90,264378,0.0-6.82-0.82,False,,0.0,90.0,,,,,,,[],,,,,,73.6,1.0,i,1.0,True,744.8999999761581,45.0,60.0,40.0,371.2327441292939,[],"[640, 360]",ColorTask,43.0,83.0,,,HRV,HRV_0125,2022-11-30 18:42:27
,wl-rdm,91,266525,0.0-6.83-0.83,False,,0.0,91.0,,,,,,,[],,,,,,73.6,1.0,i,1.0,True,840.1999999284744,51.0,60.0,40.0,240.03292378160884,[],"[640, 360]",ColorTask,44.0,84.0,,,HRV,HRV_0125,2022-11-30 18:42:27
,wl-rdm,92,268725,0.0-6.84-0.84,False,,0.0,92.0,,,,,,,[],,,,,,87.9,1.0,i,1.0,True,828.9999998807907,50.0,60.0,40.0,302.10118801249337,[],"[640, 360]",ColorTask,45.0,85.0,,,HRV,HRV_0125,2022-11-30 18:42:27
,wl-rdm,93,271070,0.0-6.85-0.85,False,,0.0,93.0,,,,,,,[],,,,,,56.4,0.0,u,0.0,True,889.4999998807907,54.0,60.0,40.0,372.7631350026653,[],"[640, 360]",ColorTask,46.0,86.0,,,HRV,HRV_0125,2022-11-30 18:42:27
,wl-rdm,94,273453,0.0-6.86-0.86,False,,0.0,94.0,,,,,,,[],,,,,,50.0,1.0,u,0.0,False,930.3000000715256,56.0,60.0,40.0,376.47067715200956,[],"[640, 360]",ColorTask,45.0,87.0,,,HRV,HRV_0125,2022-11-30 18:42:27
,wl-rdm,95,276085,0.0-6.87-0.87,False,,0.0,95.0,,,,,,,[],,,,,,53.2,1.0,u,0.0,False,1154.8000000715256,70.0,60.0,40.0,390.0516298294712,[],"[640, 360]",ColorTask,44.0,88.0,,,HRV,HRV_0125,2022-11-30 18:42:27
,wl-rdm,96,278565,0.0-6.88-0.88,False,,0.0,96.0,,,,,,,[],,,,,,56.4,1.0,i,1.0,True,1040.1000000238419,63.0,60.0,40.0,351.2376006106166,[],"[640, 360]",ColorTask,45.0,89.0,,,HRV,HRV_0125,2022-11-30 18:42:27
,wl-rdm,97,280928,0.0-6.89-0.89,False,,0.0,97.0,,,,,,,[],,,,,,56.4,0.0,u,0.0,True,1025.5,62.0,60.0,40.0,255.47521988948756,[],"[640, 360]",ColorTask,46.0,90.0,,,HRV,HRV_0125,2022-11-30 18:42:27
,wl-rdm,98,283259,0.0-6.90-0.90,False,,0.0,98.0,,,,,,,[],,,,,,62.5,0.0,u,0.0,True,910.0,55.0,60.0,40.0,351.52148003350425,[],"[640, 360]",ColorTask,47.0,91.0,,,HRV,HRV_0125,2022-11-30 18:42:27
,wl-rdm,99,285408,0.0-6.91-0.91,False,,0.0,99.0,,,,,,,[],,,,,,53.2,0.0,u,0.0,True,856.7999999523163,52.0,60.0,40.0,229.92794510881623,[],"[640, 360]",ColorTask,48.0,92.0,,,HRV,HRV_0125,2022-11-30 18:42:27
,wl-rdm,100,287773,0.0-6.92-0.92,False,,0.0,100.0,,,,,,,[],,,,,,53.2,1.0,u,0.0,False,1055.5,63.0,60.0,40.0,238.3833864727477,[],"[640, 360]",ColorTask,47.0,93.0,,,HRV,HRV_0125,2022-11-30 18:42:27
,wl-rdm,101,290020,0.0-6.93-0.93,False,,0.0,101.0,,,,,,,[],,,,,,50.0,1.0,i,1.0,True,889.5,54.0,60.0,40.0,280.0246038798398,[],"[640, 360]",ColorTask,48.0,94.0,,,HRV,HRV_0125,2022-11-30 18:42:27
,wl-rdm,102,292202,0.0-6.94-0.94,False,,0.0,102.0,,,,,,,[],,,,,,73.6,0.0,u,0.0,True,838.7999999523163,51.0,60.0,40.0,257.72450504228124,[],"[640, 360]",ColorTask,49.0,95.0,,,HRV,HRV_0125,2022-11-30 18:42:27
,wl-rdm,103,294199,0.0-6.95-0.95,False,,0.0,103.0,,,,,,,[],,,,,,87.9,0.0,u,0.0,True,690.1000000238419,42.0,60.0,40.0,232.14152589196766,[],"[640, 360]",ColorTask,50.0,96.0,,,HRV,HRV_0125,2022-11-30 18:42:27
,wl-rdm,104,296347,0.0-6.96-0.96,False,,0.0,104.0,,,,,,,[],,,,,,62.5,0.0,u,0.0,True,776.4000000953674,47.0,60.0,40.0,284.61204401909754,[],"[640, 360]",ColorTask,51.0,97.0,,,HRV,HRV_0125,2022-11-30 18:42:27
,wl-rdm,105,298512,0.0-6.97-0.97,False,,0.0,105.0,,,,,,,[],,,,,,62.5,0.0,u,0.0,True,709.4000000953674,43.0,60.0,40.0,368.85394507979333,[],"[640, 360]",ColorTask,52.0,98.0,,,HRV,HRV_0125,2022-11-30 18:42:27
,wl-rdm,106,300792,0.0-6.98-0.98,False,,0.0,106.0,,,,,,,[],,,,,,62.5,1.0,u,0.0,False,879.7999999523163,53.0,60.0,40.0,301.8827536263285,[],"[640, 360]",ColorTask,51.0,99.0,,,HRV,HRV_0125,2022-11-30 18:42:27
,wl-rdm,107,303273,0.0-6.99-0.99,False,,0.0,107.0,,,,,,,[],,,,,,56.4,1.0,u,0.0,False,1106.0000001192093,67.0,60.0,40.0,299.7849744320634,[],"[640, 360]",ColorTask,50.0,100.0,,,HRV,HRV_0125,2022-11-30 18:42:27
,wl-rdm,108,305754,0.0-6.100-0.100,False,,0.0,108.0,,,,,,,[],,,,,,53.2,0.0,u,0.0,True,1172.7000000476837,71.0,60.0,40.0,244.00670365436136,[],"[640, 360]",ColorTask,51.0,101.0,,,HRV,HRV_0125,2022-11-30 18:42:27
,wl-rdm,109,307920,0.0-6.101-0.101,False,,0.0,109.0,,,,,,,[],,,,,,62.5,1.0,i,1.0,True,796.8000000715256,48.0,60.0,40.0,294.4899345342519,[],"[640, 360]",ColorTask,52.0,102.0,,,HRV,HRV_0125,2022-11-30 18:42:27
,wl-rdm,110,310151,0.0-6.102-0.102,False,,0.0,110.0,,,,,,,[],,,,,,50.0,0.0,i,1.0,False,945.1000000238419,57.0,60.0,40.0,208.69031781333663,[],"[640, 360]",ColorTask,51.0,103.0,,,HRV,HRV_0125,2022-11-30 18:42:27
,wl-rdm,111,312500,0.0-6.103-0.103,False,,0.0,111.0,,,,,,,[],,,,,,87.9,1.0,i,1.0,True,941.5,57.0,60.0,40.0,336.4706750377885,[],"[640, 360]",ColorTask,52.0,104.0,,,HRV,HRV_0125,2022-11-30 18:42:27
,wl-rdm,112,314797,0.0-6.104-0.104,False,,0.0,112.0,,,,,,,[],,,,,,62.5,0.0,u,0.0,True,974.6999999284744,59.0,60.0,40.0,247.35139674166356,[],"[640, 360]",ColorTask,53.0,105.0,,,HRV,HRV_0125,2022-11-30 18:42:27
,wl-rdm,113,317245,0.0-6.105-0.105,False,,0.0,113.0,,,,,,,[],,,,,,73.6,0.0,i,1.0,False,1133.5,68.0,60.0,40.0,236.33458202058907,[],"[640, 360]",ColorTask,52.0,106.0,,,HRV,HRV_0125,2022-11-30 18:42:27
,wl-rdm,114,319659,0.0-6.106-0.106,False,,0.0,114.0,,,,,,,[],,,,,,56.4,1.0,i,1.0,True,999.7000000476837,60.0,60.0,40.0,336.49466837170417,[],"[640, 360]",ColorTask,53.0,107.0,,,HRV,HRV_0125,2022-11-30 18:42:27
,wl-rdm,115,321674,0.0-6.107-0.107,False,,0.0,115.0,,,,,,,[],,,,,,87.9,1.0,i,1.0,True,713.0,43.0,60.0,40.0,240.48663264048793,[],"[640, 360]",ColorTask,54.0,108.0,,,HRV,HRV_0125,2022-11-30 18:42:27
,wl-html-keyboard-response,116,329600,0.0-7.0-0.0,,,1.0,116.0,,,,,,,,5917.199999928474,1.0,0,,,,,,,,,,,,,,,,,,,,HRV,HRV_0125,2022-11-30 18:42:27
,wl-rdm,117,331848,0.0-8.0-0.0,False,,1.0,117.0,,,,,,,[],,,,,,62.5,1.0,i,1.0,True,846.5999999046326,51.0,60.0,40.0,328.13743369186886,[],"[640, 360]",ColorTask,55.0,1.0,,,HRV,HRV_0125,2022-11-30 18:42:27
,wl-rdm,118,333913,0.0-8.1-0.1,False,,1.0,118.0,,,,,,,[],,,,,,87.9,1.0,i,1.0,True,636.4000000953674,38.0,60.0,40.0,349.19071614809104,[],"[640, 360]",ColorTask,56.0,2.0,,,HRV,HRV_0125,2022-11-30 18:42:27
,wl-rdm,119,336275,0.0-8.2-0.2,False,,1.0,119.0,,,,,,,[],,,,,,53.2,1.0,i,1.0,True,979.5,59.0,60.0,40.0,300.4828369740403,[],"[640, 360]",ColorTask,57.0,3.0,,,HRV,HRV_0125,2022-11-30 18:42:27
,wl-rdm,120,338325,0.0-8.3-0.3,False,,1.0,120.0,,,,,,,[],,,,,,62.5,0.0,u,0.0,True,735.1000000238419,45.0,60.0,40.0,233.19779693867653,[],"[640, 360]",ColorTask,58.0,4.0,,,HRV,HRV_0125,2022-11-30 18:42:27
,wl-rdm,121,340575,0.0-8.4-0.4,False,,1.0,121.0,,,,,,,[],,,,,,50.0,0.0,u,0.0,True,923.3999999761581,56.0,60.0,40.0,237.9601751795222,[],"[640, 360]",ColorTask,59.0,5.0,,,HRV,HRV_0125,2022-11-30 18:42:27
,wl-rdm,122,342638,0.0-8.5-0.5,False,,1.0,122.0,,,,,,,[],,,,,,53.2,1.0,i,1.0,True,723.1999999284744,44.0,60.0,40.0,261.91742539572584,[],"[640, 360]",ColorTask,60.0,6.0,,,HRV,HRV_0125,2022-11-30 18:42:27
,wl-rdm,123,344770,0.0-8.6-0.6,False,,1.0,123.0,,,,,,,[],,,,,,87.9,0.0,u,0.0,True,674.0,41.0,60.0,40.0,375.13766444113924,[],"[640, 360]",ColorTask,61.0,7.0,,,HRV,HRV_0125,2022-11-30 18:42:27
,wl-rdm,124,346999,0.0-8.7-0.7,False,,1.0,124.0,,,,,,,[],,,,,,53.2,1.0,u,0.0,False,827.5,50.0,60.0,40.0,324.27444916799743,[],"[640, 360]",ColorTask,60.0,8.0,,,HRV,HRV_0125,2022-11-30 18:42:27
,wl-rdm,125,349031,0.0-8.8-0.8,False,,1.0,125.0,,,,,,,[],,,,,,87.9,0.0,u,0.0,True,694.1000000238419,42.0,60.0,40.0,259.06576044916824,[],"[640, 360]",ColorTask,61.0,9.0,,,HRV,HRV_0125,2022-11-30 18:42:27
,wl-rdm,126,350995,0.0-8.9-0.9,False,,1.0,126.0,,,,,,,[],,,,,,56.4,1.0,i,1.0,True,661.5,40.0,60.0,40.0,232.07973065453064,[],"[640, 360]",ColorTask,62.0,10.0,,,HRV,HRV_0125,2022-11-30 18:42:27
,wl-rdm,127,353011,0.0-8.10-0.10,False,,1.0,127.0,,,,,,,[],,,,,,62.5,0.0,u,0.0,True,643.5,39.0,60.0,40.0,296.78012328278254,[],"[640, 360]",ColorTask,63.0,11.0,,,HRV,HRV_0125,2022-11-30 18:42:27
,wl-rdm,128,355075,0.0-8.11-0.11,False,,1.0,128.0,,,,,,,[],,,,,,87.9,0.0,u,0.0,True,651.0,39.0,60.0,40.0,331.8229566618486,[],"[640, 360]",ColorTask,64.0,12.0,,,HRV,HRV_0125,2022-11-30 18:42:27
,wl-rdm,129,357024,0.0-8.12-0.12,False,,1.0,129.0,,,,,,,[],,,,,,87.9,1.0,i,1.0,True,591.0,36.0,60.0,40.0,291.7642548902143,[],"[640, 360]",ColorTask,65.0,13.0,,,HRV,HRV_0125,2022-11-30 18:42:27
,wl-rdm,130,358989,0.0-8.13-0.13,False,,1.0,130.0,,,,,,,[],,,,,,87.9,1.0,i,1.0,True,579.2999999523163,34.0,60.0,40.0,325.0482051899085,[],"[640, 360]",ColorTask,66.0,14.0,,,HRV,HRV_0125,2022-11-30 18:42:27
,wl-rdm,131,361020,0.0-8.14-0.14,False,,1.0,131.0,,,,,,,[],,,,,,73.6,1.0,i,1.0,True,649.5,39.0,60.0,40.0,305.1446494194509,[],"[640, 360]",ColorTask,67.0,15.0,,,HRV,HRV_0125,2022-11-30 18:42:27
,wl-rdm,132,363202,0.0-8.15-0.15,False,,1.0,132.0,,,,,,,[],,,,,,56.4,0.0,u,0.0,True,717.5,43.0,60.0,40.0,398.90077959726955,[],"[640, 360]",ColorTask,68.0,16.0,,,HRV,HRV_0125,2022-11-30 18:42:27
,wl-rdm,133,365283,0.0-8.16-0.16,False,,1.0,133.0,,,,,,,[],,,,,,73.6,1.0,i,1.0,True,789.0000001192093,48.0,60.0,40.0,214.7696265120708,[],"[640, 360]",ColorTask,69.0,17.0,,,HRV,HRV_0125,2022-11-30 18:42:27
,wl-rdm,134,367214,0.0-8.17-0.17,False,,1.0,134.0,,,,,,,[],,,,,,87.9,0.0,u,0.0,True,614.1000000238419,37.0,60.0,40.0,239.19849661333242,[],"[640, 360]",ColorTask,70.0,18.0,,,HRV,HRV_0125,2022-11-30 18:42:27
,wl-rdm,135,369346,0.0-8.18-0.18,False,,1.0,135.0,,,,,,,[],,,,,,53.2,1.0,i,1.0,True,740.3000000715256,45.0,60.0,40.0,314.35887713650067,[],"[640, 360]",ColorTask,71.0,19.0,,,HRV,HRV_0125,2022-11-30 18:42:27
,wl-rdm,136,371310,0.0-8.19-0.19,False,,1.0,136.0,,,,,,,[],,,,,,73.6,0.0,u,0.0,True,656.5999999046326,40.0,60.0,40.0,226.88094151150432,[],"[640, 360]",ColorTask,72.0,20.0,,,HRV,HRV_0125,2022-11-30 18:42:27
,wl-rdm,137,373575,0.0-8.20-0.20,False,,1.0,137.0,,,,,,,[],,,,,,56.4,0.0,u,0.0,True,822.3999999761581,50.0,60.0,40.0,359.37035743832274,[],"[640, 360]",ColorTask,73.0,21.0,,,HRV,HRV_0125,2022-11-30 18:42:27
,wl-rdm,138,375757,0.0-8.21-0.21,False,,1.0,138.0,,,,,,,[],,,,,,56.4,0.0,u,0.0,True,890.2999999523163,54.0,60.0,40.0,210.74146595253904,[],"[640, 360]",ColorTask,74.0,22.0,,,HRV,HRV_0125,2022-11-30 18:42:27
,wl-rdm,139,377805,0.0-8.22-0.22,False,,1.0,139.0,,,,,,,[],,,,,,50.0,0.0,u,0.0,True,774.3000000715256,47.0,60.0,40.0,208.59118414124066,[],"[640, 360]",ColorTask,75.0,23.0,,,HRV,HRV_0125,2022-11-30 18:42:27
,wl-rdm,140,379770,0.0-8.23-0.23,False,,1.0,140.0,,,,,,,[],,,,,,87.9,1.0,i,1.0,True,665.0999999046326,40.0,60.0,40.0,225.0449466037353,[],"[640, 360]",ColorTask,76.0,24.0,,,HRV,HRV_0125,2022-11-30 18:42:27
,wl-rdm,141,381984,0.0-8.24-0.24,False,,1.0,141.0,,,,,,,[],,,,,,73.6,1.0,i,1.0,True,891.1000000238419,54.0,60.0,40.0,251.66586048883923,[],"[640, 360]",ColorTask,77.0,25.0,,,HRV,HRV_0125,2022-11-30 18:42:27
,wl-rdm,142,384415,0.0-8.25-0.25,False,,1.0,142.0,,,,,,,[],,,,,,53.2,1.0,u,0.0,False,1055.8000000715256,64.0,60.0,40.0,294.23374169200736,[],"[640, 360]",ColorTask,76.0,26.0,,,HRV,HRV_0125,2022-11-30 18:42:27
,wl-rdm,143,386713,0.0-8.26-0.26,False,,1.0,143.0,,,,,,,[],,,,,,62.5,1.0,i,1.0,True,1023.8999999761581,62.0,60.0,40.0,204.66212820318555,[],"[640, 360]",ColorTask,77.0,27.0,,,HRV,HRV_0125,2022-11-30 18:42:27
,wl-rdm,144,389127,0.0-8.27-0.27,False,,1.0,144.0,,,,,,,[],,,,,,50.0,1.0,u,0.0,False,1079.0,65.0,60.0,40.0,257.5466940793219,[],"[640, 360]",ColorTask,76.0,28.0,,,HRV,HRV_0125,2022-11-30 18:42:27
,wl-rdm,145,391492,0.0-8.28-0.28,False,,1.0,145.0,,,,,,,[],,,,,,53.2,1.0,i,1.0,True,1036.0999999046326,63.0,60.0,40.0,252.41120307316325,[],"[640, 360]",ColorTask,77.0,29.0,,,HRV,HRV_0125,2022-11-30 18:42:27
,wl-rdm,146,393556,0.0-8.29-0.29,False,,1.0,146.0,,,,,,,[],,,,,,87.9,0.0,u,0.0,True,793.0,48.0,60.0,40.0,210.86382847131472,[],"[640, 360]",ColorTask,78.0,30.0,,,HRV,HRV_0125,2022-11-30 18:42:27
,wl-rdm,147,395938,0.0-8.30-0.30,False,,1.0,147.0,,,,,,,[],,,,,,53.2,1.0,i,1.0,True,910.9000000953674,55.0,60.0,40.0,395.77645152081186,[],"[640, 360]",ColorTask,79.0,31.0,,,HRV,HRV_0125,2022-11-30 18:42:27
,wl-rdm,148,398319,0.0-8.31-0.31,False,,1.0,148.0,,,,,,,[],,,,,,56.4,1.0,i,1.0,True,909.8999999761581,55.0,60.0,40.0,378.4795387460206,[],"[640, 360]",ColorTask,80.0,32.0,,,HRV,HRV_0125,2022-11-30 18:42:27
,wl-rdm,149,401198,0.0-8.32-0.32,False,,1.0,149.0,,,,,,,[],,,,,,62.5,1.0,i,1.0,True,1445.0,87.0,60.0,40.0,358.95859128127233,[],"[640, 360]",ColorTask,81.0,33.0,,,HRV,HRV_0125,2022-11-30 18:42:27
,wl-rdm,150,403413,0.0-8.33-0.33,False,,1.0,150.0,,,,,,,[],,,,,,56.4,1.0,u,0.0,False,876.6000000238419,53.0,60.0,40.0,254.8167210734403,[],"[640, 360]",ColorTask,80.0,34.0,,,HRV,HRV_0125,2022-11-30 18:42:27
,wl-rdm,151,405612,0.0-8.34-0.34,False,,1.0,151.0,,,,,,,[],,,,,,62.5,1.0,i,1.0,True,775.0000001192093,47.0,60.0,40.0,353.73646378590934,[],"[640, 360]",ColorTask,81.0,35.0,,,HRV,HRV_0125,2022-11-30 18:42:27
,wl-rdm,152,407858,0.0-8.35-0.35,False,,1.0,152.0,,,,,,,[],,,,,,53.2,0.0,u,0.0,True,934.2999999523163,57.0,60.0,40.0,224.93065334507486,[],"[640, 360]",ColorTask,82.0,36.0,,,HRV,HRV_0125,2022-11-30 18:42:27
,wl-rdm,153,409958,0.0-8.36-0.36,False,,1.0,153.0,,,,,,,[],,,,,,73.6,0.0,u,0.0,True,772.3999999761581,46.0,60.0,40.0,241.58478818453392,[],"[640, 360]",ColorTask,83.0,37.0,,,HRV,HRV_0125,2022-11-30 18:42:27
,wl-rdm,154,412007,0.0-8.37-0.37,False,,1.0,154.0,,,,,,,[],,,,,,56.4,0.0,u,0.0,True,709.6000000238419,43.0,60.0,40.0,254.17279979113482,[],"[640, 360]",ColorTask,84.0,38.0,,,HRV,HRV_0125,2022-11-30 18:42:27
,wl-rdm,155,414088,0.0-8.38-0.38,False,,1.0,155.0,,,,,,,[],,,,,,87.9,0.0,u,0.0,True,791.2999999523163,48.0,60.0,40.0,209.8711568998952,[],"[640, 360]",ColorTask,85.0,39.0,,,HRV,HRV_0125,2022-11-30 18:42:27
,wl-rdm,156,416317,0.0-8.39-0.39,False,,1.0,156.0,,,,,,,[],,,,,,62.5,0.0,u,0.0,True,809.0,49.0,60.0,40.0,362.1714389652861,[],"[640, 360]",ColorTask,86.0,40.0,,,HRV,HRV_0125,2022-11-30 18:42:27
,wl-rdm,157,418668,0.0-8.40-0.40,False,,1.0,157.0,,,,,,,[],,,,,,53.2,0.0,u,0.0,True,1042.0,63.0,60.0,40.0,221.82736014079404,[],"[640, 360]",ColorTask,87.0,41.0,,,HRV,HRV_0125,2022-11-30 18:42:27
,wl-rdm,158,420865,0.0-8.41-0.41,False,,1.0,158.0,,,,,,,[],,,,,,50.0,0.0,u,0.0,True,840.3999999761581,51.0,60.0,40.0,273.7428100129413,[],"[640, 360]",ColorTask,88.0,42.0,,,HRV,HRV_0125,2022-11-30 18:42:27
,wl-rdm,159,423012,0.0-8.42-0.42,False,,1.0,159.0,,,,,,,[],,,,,,56.4,0.0,u,0.0,True,857.3999999761581,52.0,60.0,40.0,208.25173878599355,[],"[640, 360]",ColorTask,89.0,43.0,,,HRV,HRV_0125,2022-11-30 18:42:27
,wl-rdm,160,425061,0.0-8.43-0.43,False,,1.0,160.0,,,,,,,[],,,,,,62.5,0.0,u,0.0,True,756.1000000238419,46.0,60.0,40.0,217.18117026491728,[],"[640, 360]",ColorTask,90.0,44.0,,,HRV,HRV_0125,2022-11-30 18:42:27
,wl-rdm,161,427263,0.0-8.44-0.44,False,,1.0,161.0,,,,,,,[],,,,,,50.0,0.0,u,0.0,True,910.1000000238419,55.0,60.0,40.0,226.29094033587205,[],"[640, 360]",ColorTask,91.0,45.0,,,HRV,HRV_0125,2022-11-30 18:42:27
,wl-rdm,162,429511,0.0-8.45-0.45,False,,1.0,162.0,,,,,,,[],,,,,,62.5,0.0,u,0.0,True,826.2000000476837,50.0,60.0,40.0,358.7002747772672,[],"[640, 360]",ColorTask,92.0,46.0,,,HRV,HRV_0125,2022-11-30 18:42:27
,wl-rdm,163,431588,0.0-8.46-0.46,False,,1.0,163.0,,,,,,,[],,,,,,62.5,0.0,u,0.0,True,683.5,42.0,60.0,40.0,299.77397048538023,[],"[640, 360]",ColorTask,93.0,47.0,,,HRV,HRV_0125,2022-11-30 18:42:27
,wl-rdm,164,433786,0.0-8.47-0.47,False,,1.0,164.0,,,,,,,[],,,,,,62.5,1.0,u,0.0,False,839.7000000476837,51.0,60.0,40.0,267.81378184621383,[],"[640, 360]",ColorTask,92.0,48.0,,,HRV,HRV_0125,2022-11-30 18:42:27
,wl-rdm,165,435801,0.0-8.48-0.48,False,,1.0,165.0,,,,,,,[],,,,,,87.9,1.0,i,1.0,True,708.0,43.0,60.0,40.0,217.92300815174903,[],"[640, 360]",ColorTask,93.0,49.0,,,HRV,HRV_0125,2022-11-30 18:42:27
,wl-rdm,166,438213,0.0-8.49-0.49,False,,1.0,166.0,,,,,,,[],,,,,,50.0,0.0,i,1.0,False,1124.7999999523163,68.0,60.0,40.0,214.1305815534286,[],"[640, 360]",ColorTask,92.0,50.0,,,HRV,HRV_0125,2022-11-30 18:42:27
,wl-rdm,167,442362,0.0-8.50-0.50,False,,1.0,167.0,,,,,,,[],,,,,,56.4,1.0,i,1.0,True,2787.600000023842,168.0,60.0,40.0,286.4863081107583,[],"[640, 360]",ColorTask,93.0,51.0,,,HRV,HRV_0125,2022-11-30 18:42:27
,wl-rdm,168,445140,0.0-8.51-0.51,False,,1.0,168.0,,,,,,,[],,,,,,87.9,1.0,i,1.0,True,1458.7000000476837,88.0,60.0,40.0,244.9567912014408,[],"[640, 360]",ColorTask,94.0,52.0,,,HRV,HRV_0125,2022-11-30 18:42:27
,wl-rdm,169,447205,0.0-8.52-0.52,False,,1.0,169.0,,,,,,,[],,,,,,73.6,0.0,u,0.0,True,674.8999999761581,41.0,60.0,40.0,312.6477662227647,[],"[640, 360]",ColorTask,95.0,53.0,,,HRV,HRV_0125,2022-11-30 18:42:27
,wl-rdm,170,449470,0.0-8.53-0.53,False,,1.0,170.0,,,,,,,[],,,,,,56.4,1.0,i,1.0,True,898.7999999523163,55.0,60.0,40.0,284.8378627380514,[],"[640, 360]",ColorTask,96.0,54.0,,,HRV,HRV_0125,2022-11-30 18:42:27
,wl-rdm,171,451651,0.0-8.54-0.54,False,,1.0,171.0,,,,,,,[],,,,,,56.4,0.0,u,0.0,True,741.7999999523163,45.0,60.0,40.0,349.6464040543689,[],"[640, 360]",ColorTask,97.0,55.0,,,HRV,HRV_0125,2022-11-30 18:42:27
,wl-rdm,172,453700,0.0-8.55-0.55,False,,1.0,172.0,,,,,,,[],,,,,,87.9,0.0,u,0.0,True,657.5,40.0,60.0,40.0,306.28103435927346,[],"[640, 360]",ColorTask,98.0,56.0,,,HRV,HRV_0125,2022-11-30 18:42:27
,wl-rdm,173,455848,0.0-8.56-0.56,False,,1.0,173.0,,,,,,,[],,,,,,62.5,1.0,i,1.0,True,808.4000000953674,49.0,60.0,40.0,259.9628673704997,[],"[640, 360]",ColorTask,99.0,57.0,,,HRV,HRV_0125,2022-11-30 18:42:27
,wl-rdm,174,457912,0.0-8.57-0.57,False,,1.0,174.0,,,,,,,[],,,,,,87.9,1.0,i,1.0,True,624.0,38.0,60.0,40.0,352.4483737005755,[],"[640, 360]",ColorTask,100.0,58.0,,,HRV,HRV_0125,2022-11-30 18:42:27
,wl-rdm,175,459961,0.0-8.58-0.58,False,,1.0,175.0,,,,,,,[],,,,,,73.6,1.0,i,1.0,True,606.8000000715256,37.0,60.0,40.0,369.0851343700093,[],"[640, 360]",ColorTask,101.0,59.0,,,HRV,HRV_0125,2022-11-30 18:42:27
,wl-rdm,176,462192,0.0-8.59-0.59,False,,1.0,176.0,,,,,,,[],,,,,,56.4,0.0,u,0.0,True,872.7999999523163,53.0,60.0,40.0,277.813127539608,[],"[640, 360]",ColorTask,102.0,60.0,,,HRV,HRV_0125,2022-11-30 18:42:27
,wl-rdm,177,464324,0.0-8.60-0.60,False,,1.0,177.0,,,,,,,[],,,,,,53.2,1.0,u,0.0,False,842.1000001430511,51.0,60.0,40.0,214.89804482610057,[],"[640, 360]",ColorTask,101.0,61.0,,,HRV,HRV_0125,2022-11-30 18:42:27
,wl-rdm,178,466488,0.0-8.61-0.61,False,,1.0,178.0,,,,,,,[],,,,,,73.6,0.0,u,0.0,True,775.7000000476837,47.0,60.0,40.0,303.644025825999,[],"[640, 360]",ColorTask,102.0,62.0,,,HRV,HRV_0125,2022-11-30 18:42:27
,wl-rdm,179,468736,0.0-8.62-0.62,False,,1.0,179.0,,,,,,,[],,,,,,56.4,1.0,i,1.0,True,959.5999999046326,58.0,60.0,40.0,219.3188404469645,[],"[640, 360]",ColorTask,103.0,63.0,,,HRV,HRV_0125,2022-11-30 18:42:27
,wl-rdm,180,471150,0.0-8.63-0.63,False,,1.0,180.0,,,,,,,[],,,,,,50.0,1.0,i,1.0,True,1080.7000000476837,65.0,60.0,40.0,255.9211822778133,[],"[640, 360]",ColorTask,104.0,64.0,,,HRV,HRV_0125,2022-11-30 18:42:27
,wl-rdm,181,473264,0.0-8.64-0.64,False,,1.0,181.0,,,,,,,[],,,,,,53.2,0.0,u,0.0,True,844.4000000953674,50.0,60.0,40.0,203.73959377724213,[],"[640, 360]",ColorTask,105.0,65.0,,,HRV,HRV_0125,2022-11-30 18:42:27
,wl-rdm,182,475399,0.0-8.65-0.65,False,,1.0,182.0,,,,,,,[],,,,,,56.4,1.0,i,1.0,True,842.1000000238419,51.0,60.0,40.0,221.0892861786867,[],"[640, 360]",ColorTask,106.0,66.0,,,HRV,HRV_0125,2022-11-30 18:42:27
,wl-rdm,183,477414,0.0-8.66-0.66,False,,1.0,183.0,,,,,,,[],,,,,,62.5,0.0,u,0.0,True,725.0,44.0,60.0,40.0,205.05879225445457,[],"[640, 360]",ColorTask,107.0,67.0,,,HRV,HRV_0125,2022-11-30 18:42:27
,wl-rdm,184,479609,0.0-8.67-0.67,False,,1.0,184.0,,,,,,,[],,,,,,73.6,1.0,i,1.0,True,866.4999998807907,52.0,60.0,40.0,256.24287146056616,[],"[640, 360]",ColorTask,108.0,68.0,,,HRV,HRV_0125,2022-11-30 18:42:27
,wl-rdm,185,481974,0.0-8.68-0.68,False,,1.0,185.0,,,,,,,[],,,,,,53.2,0.0,u,0.0,True,912.5,55.0,60.0,40.0,381.00317283442087,[],"[640, 360]",ColorTask,109.0,69.0,,,HRV,HRV_0125,2022-11-30 18:42:27
,wl-rdm,186,484188,0.0-8.69-0.69,False,,1.0,186.0,,,,,,,[],,,,,,50.0,0.0,i,1.0,False,823.5999999046326,49.0,60.0,40.0,310.75089750673874,[],"[640, 360]",ColorTask,108.0,70.0,,,HRV,HRV_0125,2022-11-30 18:42:27
,wl-rdm,187,486536,0.0-8.70-0.70,False,,1.0,187.0,,,,,,,[],,,,,,56.4,1.0,u,0.0,False,872.9000000953674,53.0,60.0,40.0,390.0842608118708,[],"[640, 360]",ColorTask,107.0,71.0,,,HRV,HRV_0125,2022-11-30 18:42:27
,wl-rdm,188,488634,0.0-8.71-0.71,False,,1.0,188.0,,,,,,,[],,,,,,62.5,1.0,i,1.0,True,675.5,41.0,60.0,40.0,338.10262227255936,[],"[640, 360]",ColorTask,108.0,72.0,,,HRV,HRV_0125,2022-11-30 18:42:27
,wl-rdm,189,490915,0.0-8.72-0.72,False,,1.0,189.0,,,,,,,[],,,,,,50.0,1.0,u,0.0,False,957.0,58.0,60.0,40.0,233.54495372097352,[],"[640, 360]",ColorTask,107.0,73.0,,,HRV,HRV_0125,2022-11-30 18:42:27
,wl-rdm,190,493217,0.0-8.73-0.73,False,,1.0,190.0,,,,,,,[],,,,,,50.0,1.0,u,0.0,False,1007.0,61.0,60.0,40.0,210.998220391153,[],"[640, 360]",ColorTask,106.0,74.0,,,HRV,HRV_0125,2022-11-30 18:42:27
,wl-rdm,191,495398,0.0-8.74-0.74,False,,1.0,191.0,,,,,,,[],,,,,,62.5,1.0,i,1.0,True,874.3999998569489,53.0,60.0,40.0,242.83167087140052,[],"[640, 360]",ColorTask,107.0,75.0,,,HRV,HRV_0125,2022-11-30 18:42:27
,wl-rdm,192,497676,0.0-8.75-0.75,False,,1.0,192.0,,,,,,,[],,,,,,53.2,0.0,u,0.0,True,969.1999999284744,58.0,60.0,40.0,236.58240422319938,[],"[640, 360]",ColorTask,108.0,76.0,,,HRV,HRV_0125,2022-11-30 18:42:27
,wl-rdm,193,499941,0.0-8.76-0.76,False,,1.0,193.0,,,,,,,[],,,,,,73.6,0.0,u,0.0,True,971.1000000238419,57.0,60.0,40.0,225.48630014804118,[],"[640, 360]",ColorTask,109.0,77.0,,,HRV,HRV_0125,2022-11-30 18:42:27
,wl-rdm,194,502139,0.0-8.77-0.77,False,,1.0,194.0,,,,,,,[],,,,,,73.6,0.0,u,0.0,True,849.6000000238419,51.0,60.0,40.0,268.0736010775824,[],"[640, 360]",ColorTask,110.0,78.0,,,HRV,HRV_0125,2022-11-30 18:42:27
,wl-rdm,195,504070,0.0-8.78-0.78,False,,1.0,195.0,,,,,,,[],,,,,,73.6,0.0,u,0.0,True,643.8000000715256,39.0,60.0,40.0,225.66863050522264,[],"[640, 360]",ColorTask,111.0,79.0,,,HRV,HRV_0125,2022-11-30 18:42:27
,wl-rdm,196,506118,0.0-8.79-0.79,False,,1.0,196.0,,,,,,,[],,,,,,73.6,0.0,u,0.0,True,641.6000000238419,39.0,60.0,40.0,318.54338162492803,[],"[640, 360]",ColorTask,112.0,80.0,,,HRV,HRV_0125,2022-11-30 18:42:27
,wl-rdm,197,507982,0.0-8.80-0.80,False,,1.0,197.0,,,,,,,[],,,,,,87.9,1.0,i,1.0,True,562.5,34.0,60.0,40.0,222.96980847423848,[],"[640, 360]",ColorTask,113.0,81.0,,,HRV,HRV_0125,2022-11-30 18:42:27
,wl-rdm,198,510198,0.0-8.81-0.81,False,,1.0,198.0,,,,,,,[],,,,,,73.6,1.0,u,0.0,False,826.8999999761581,50.0,60.0,40.0,314.9943744914224,[],"[640, 360]",ColorTask,112.0,82.0,,,HRV,HRV_0125,2022-11-30 18:42:27
,wl-rdm,199,512611,0.0-8.82-0.82,False,,1.0,199.0,,,,,,,[],,,,,,50.0,1.0,u,0.0,False,973.5,59.0,60.0,40.0,363.90255700347205,[],"[640, 360]",ColorTask,111.0,83.0,,,HRV,HRV_0125,2022-11-30 18:42:27
,wl-rdm,200,515026,0.0-8.83-0.83,False,,1.0,200.0,,,,,,,[],,,,,,73.6,1.0,i,1.0,True,988.5999999046326,60.0,60.0,40.0,345.9476715714631,[],"[640, 360]",ColorTask,112.0,84.0,,,HRV,HRV_0125,2022-11-30 18:42:27
,wl-rdm,201,517308,0.0-8.84-0.84,False,,1.0,201.0,,,,,,,[],,,,,,62.5,1.0,u,0.0,False,908.5,55.0,60.0,40.0,302.5635353367278,[],"[640, 360]",ColorTask,111.0,85.0,,,HRV,HRV_0125,2022-11-30 18:42:27
,wl-rdm,202,519239,0.0-8.85-0.85,False,,1.0,202.0,,,,,,,[],,,,,,73.6,1.0,i,1.0,True,627.2000000476837,38.0,60.0,40.0,225.65828064502125,[],"[640, 360]",ColorTask,112.0,86.0,,,HRV,HRV_0125,2022-11-30 18:42:27
,wl-rdm,203,521388,0.0-8.86-0.86,False,,1.0,203.0,,,,,,,[],,,,,,53.2,0.0,i,1.0,False,858.1000000238419,52.0,60.0,40.0,209.2472190199076,[],"[640, 360]",ColorTask,111.0,87.0,,,HRV,HRV_0125,2022-11-30 18:42:27
,wl-rdm,204,523634,0.0-8.87-0.87,False,,1.0,204.0,,,,,,,[],,,,,,53.2,0.0,u,0.0,True,958.7999999523163,58.0,60.0,40.0,206.33506917084168,[],"[640, 360]",ColorTask,112.0,88.0,,,HRV,HRV_0125,2022-11-30 18:42:27
,wl-rdm,205,525866,0.0-8.88-0.88,False,,1.0,205.0,,,,,,,[],,,,,,53.2,1.0,u,0.0,False,890.4000000953674,54.0,60.0,40.0,265.20449092582675,[],"[640, 360]",ColorTask,111.0,89.0,,,HRV,HRV_0125,2022-11-30 18:42:27
,wl-rdm,206,527980,0.0-8.89-0.89,False,,1.0,206.0,,,,,,,[],,,,,,50.0,0.0,i,1.0,False,805.8000000715256,49.0,60.0,40.0,218.517203591062,[],"[640, 360]",ColorTask,110.0,90.0,,,HRV,HRV_0125,2022-11-30 18:42:27
,wl-rdm,207,530244,0.0-8.90-0.90,False,,1.0,207.0,,,,,,,[],,,,,,87.9,0.0,u,0.0,True,811.5,49.0,60.0,40.0,366.6577531914504,[],"[640, 360]",ColorTask,111.0,91.0,,,HRV,HRV_0125,2022-11-30 18:42:27
,wl-rdm,208,532510,0.0-8.91-0.91,False,,1.0,208.0,,,,,,,[],,,,,,50.0,0.0,i,1.0,False,972.3999999761581,58.0,60.0,40.0,200.16551656862833,[],"[640, 360]",ColorTask,110.0,92.0,,,HRV,HRV_0125,2022-11-30 18:42:27
,wl-rdm,209,534541,0.0-8.92-0.92,False,,1.0,209.0,,,,,,,[],,,,,,50.0,1.0,u,0.0,False,723.7000000476837,44.0,60.0,40.0,248.09194457092298,[],"[640, 360]",ColorTask,109.0,93.0,,,HRV,HRV_0125,2022-11-30 18:42:27
,wl-rdm,210,536523,0.0-8.93-0.93,False,,1.0,210.0,,,,,,,[],,,,,,50.0,1.0,i,1.0,True,572.9000000953674,35.0,60.0,40.0,342.64081481606576,[],"[640, 360]",ColorTask,110.0,94.0,,,HRV,HRV_0125,2022-11-30 18:42:27
,wl-rdm,211,539637,0.0-8.94-0.94,False,,1.0,211.0,,,,,,,[],,,,,,62.5,0.0,u,0.0,True,1756.2000000476837,105.0,60.0,40.0,285.6687204114509,[],"[640, 360]",ColorTask,111.0,95.0,,,HRV,HRV_0125,2022-11-30 18:42:27
,wl-rdm,212,541651,0.0-8.95-0.95,False,,1.0,212.0,,,,,,,[],,,,,,56.4,1.0,i,1.0,True,689.3999999761581,42.0,60.0,40.0,248.12430589187602,[],"[640, 360]",ColorTask,112.0,96.0,,,HRV,HRV_0125,2022-11-30 18:42:27
,wl-rdm,213,543916,0.0-8.96-0.96,False,,1.0,213.0,,,,,,,[],,,,,,50.0,1.0,u,0.0,False,876.5,53.0,60.0,40.0,305.1778230044942,[],"[640, 360]",ColorTask,111.0,97.0,,,HRV,HRV_0125,2022-11-30 18:42:27
,wl-rdm,214,546056,0.0-8.97-0.97,False,,1.0,214.0,,,,,,,[],,,,,,73.6,0.0,u,0.0,True,690.6999998092651,42.0,60.0,40.0,382.4838804752423,[],"[640, 360]",ColorTask,112.0,98.0,,,HRV,HRV_0125,2022-11-30 18:42:27
,wl-rdm,215,548561,0.0-8.98-0.98,False,,1.0,215.0,,,,,,,[],,,,,,50.0,0.0,i,1.0,False,1208.0,73.0,60.0,40.0,223.53959737485104,[],"[640, 360]",ColorTask,111.0,99.0,,,HRV,HRV_0125,2022-11-30 18:42:27
,wl-rdm,216,550609,0.0-8.99-0.99,False,,1.0,216.0,,,,,,,[],,,,,,53.2,0.0,u,0.0,True,756.5999999046326,46.0,60.0,40.0,218.0967922080687,[],"[640, 360]",ColorTask,112.0,100.0,,,HRV,HRV_0125,2022-11-30 18:42:27
,wl-rdm,217,552957,0.0-8.100-0.100,False,,1.0,217.0,,,,,,,[],,,,,,56.4,0.0,i,1.0,False,923.0,56.0,60.0,40.0,365.77513947709986,[],"[640, 360]",ColorTask,111.0,101.0,,,HRV,HRV_0125,2022-11-30 18:42:27
,wl-rdm,218,555271,0.0-8.101-0.101,False,,1.0,218.0,,,,,,,[],,,,,,73.6,1.0,u,0.0,False,994.5,60.0,60.0,40.0,237.15774122615218,[],"[640, 360]",ColorTask,110.0,102.0,,,HRV,HRV_0125,2022-11-30 18:42:27
,wl-rdm,219,557353,0.0-8.102-0.102,False,,1.0,219.0,,,,,,,[],,,,,,87.9,0.0,i,1.0,False,774.2000000476837,47.0,60.0,40.0,251.6817330718999,[],"[640, 360]",ColorTask,109.0,103.0,,,HRV,HRV_0125,2022-11-30 18:42:27
,wl-rdm,220,559219,0.0-8.103-0.103,False,,1.0,220.0,,,,,,,[],,,,,,87.9,1.0,u,0.0,False,522.6000000238419,32.0,60.0,40.0,265.6339275335676,[],"[640, 360]",ColorTask,108.0,104.0,,,HRV,HRV_0125,2022-11-30 18:42:27
,wl-rdm,221,561300,0.0-8.104-0.104,False,,1.0,221.0,,,,,,,[],,,,,,53.2,0.0,u,0.0,True,724.7000000476837,44.0,60.0,40.0,273.45862000974444,[],"[640, 360]",ColorTask,109.0,105.0,,,HRV,HRV_0125,2022-11-30 18:42:27
,wl-rdm,222,564081,0.0-8.105-0.105,False,,1.0,222.0,,,,,,,[],,,,,,50.0,1.0,i,1.0,True,1378.4999998807907,83.0,60.0,40.0,331.59684095394584,[],"[640, 360]",ColorTask,110.0,106.0,,,HRV,HRV_0125,2022-11-30 18:42:27
,wl-rdm,223,566312,0.0-8.106-0.106,False,,1.0,223.0,,,,,,,[],,,,,,56.4,0.0,u,0.0,True,841.7000000476837,51.0,60.0,40.0,309.59553958575367,[],"[640, 360]",ColorTask,111.0,107.0,,,HRV,HRV_0125,2022-11-30 18:42:27
,wl-rdm,224,568726,0.0-8.107-0.107,False,,1.0,224.0,,,,,,,[],,,,,,62.5,0.0,u,0.0,True,1094.8999999761581,66.0,60.0,40.0,249.68372501653238,[],"[640, 360]",ColorTask,112.0,108.0,,,HRV,HRV_0125,2022-11-30 18:42:27
,wl-html-button-response,225,572599,0.0-9.0-0.0,,,,,,,,,,,,3865.100000023842,,0,,,,,,,,,,,,,,,,,,<h3>End of this session. Thank you!</h3><br>,['Close window'],HRV,HRV_0125,2022-11-30 18:42:27
