trialN,stimuli,question,trialStartTime,trialStartTime_UNIX,stimulus1,rt,receivedResponse,rating,trialEndTime,trialDuration,stimulus1Loaded,exp,subjectId,date
0,"[{'imgObject': {}, 'id': 'kiwi', 'src': '/static/foodstim60/kiwi.jpg', 'key': 'NaN', 'origWidth': 410, 'origHeight': 410, 'width': 410, 'height': 410, 'widthPercent': 0.8, 'rescaleHeight': True, 'trialN': 0, 'loaded': True, 'loadedTime': 2581.3000000715256, 'positionName': 'CENTER', 'positionCoords': [506, 195]}]",Rate how much you want to eat this food from 0 (least) to 10 (most).,2656.0,1669841226922,kiwi,2468.7000000476837,True,8.620000000000001,5124.700000047684,2468.7000000476837,True,HRV,HRV_0295,2022-11-30 20:49:28
1,"[{'imgObject': {}, 'id': 'cheerios', 'src': '/static/foodstim60/cheerios.jpg', 'key': 'NaN', 'origWidth': 409, 'origHeight': 410, 'width': 409, 'height': 410, 'widthPercent': 0.8, 'rescaleHeight': True, 'trialN': 1, 'loaded': True, 'loadedTime': 2581.600000023842, 'positionName': 'CENTER', 'positionCoords': [506.5, 195]}]",Rate how much you want to eat this food from 0 (least) to 10 (most).,5125.900000095367,1669841229392,cheerios,2475.5,True,0.89,7601.400000095367,2475.5,True,HRV,HRV_0295,2022-11-30 20:49:28
2,"[{'imgObject': {}, 'id': 'veggieswithdip', 'src': '/static/foodstim60/veggieswithdip.jpg', 'key': 'NaN', 'origWidth': 409, 'origHeight': 409, 'width': 409, 'height': 409, 'widthPercent': 0.8, 'rescaleHeight': True, 'trialN': 2, 'loaded': True, 'loadedTime': 2581.8000000715256, 'positionName': 'CENTER', 'positionCoords': [506.5, 195.5]}]",Rate how much you want to eat this food from 0 (least) to 10 (most).,7602.400000095367,1669841231868,veggieswithdip,2781.0999999046326,True,6.4,10383.5,2781.0999999046326,True,HRV,HRV_0295,2022-11-30 20:49:28
3,"[{'imgObject': {}, 'id': 'granola w milk', 'src': '/static/foodstim60/granola w milk.jpg', 'key': 'NaN', 'origWidth': 410, 'origHeight': 410, 'width': 410, 'height': 410, 'widthPercent': 0.8, 'rescaleHeight': True, 'trialN': 3, 'loaded': True, 'loadedTime': 2581.8000000715256, 'positionName': 'CENTER', 'positionCoords': [506, 195]}]",Rate how much you want to eat this food from 0 (least) to 10 (most).,10384.900000095367,1669841234651,granola w milk,2066.0999999046326,True,0.92,12451.0,2066.0999999046326,True,HRV,HRV_0295,2022-11-30 20:49:28
4,"[{'imgObject': {}, 'id': 'blueberries', 'src': '/static/foodstim60/blueberries.jpg', 'key': 'NaN', 'origWidth': 411, 'origHeight': 411, 'width': 411, 'height': 411, 'widthPercent': 0.8, 'rescaleHeight': True, 'trialN': 4, 'loaded': True, 'loadedTime': 2582.5, 'positionName': 'CENTER', 'positionCoords': [505.5, 194.5]}]",Rate how much you want to eat this food from 0 (least) to 10 (most).,12452.100000023842,1669841236718,blueberries,2075.600000023842,True,9.950000000000001,14527.700000047684,2075.600000023842,True,HRV,HRV_0295,2022-11-30 20:49:28
5,"[{'imgObject': {}, 'id': 'edamame', 'src': '/static/foodstim60/edamame.jpg', 'key': 'NaN', 'origWidth': 409, 'origHeight': 410, 'width': 409, 'height': 410, 'widthPercent': 0.8, 'rescaleHeight': True, 'trialN': 5, 'loaded': True, 'loadedTime': 2583.5, 'positionName': 'CENTER', 'positionCoords': [506.5, 195]}]",Rate how much you want to eat this food from 0 (least) to 10 (most).,14529.300000071526,1669841238795,edamame,2455.1999999284744,True,0.09,16984.5,2455.1999999284744,True,HRV,HRV_0295,2022-11-30 20:49:28
6,"[{'imgObject': {}, 'id': 'banana', 'src': '/static/foodstim60/banana.jpg', 'key': 'NaN', 'origWidth': 410, 'origHeight': 410, 'width': 410, 'height': 410, 'widthPercent': 0.8, 'rescaleHeight': True, 'trialN': 6, 'loaded': True, 'loadedTime': 2584.100000023842, 'positionName': 'CENTER', 'positionCoords': [506, 195]}]",Rate how much you want to eat this food from 0 (least) to 10 (most).,16986.0,1669841241252,banana,1847.9000000953674,True,1.84,18833.900000095367,1847.9000000953674,True,HRV,HRV_0295,2022-11-30 20:49:28
7,"[{'imgObject': {}, 'id': 'lox', 'src': '/static/foodstim60/lox.jpg', 'key': 'NaN', 'origWidth': 410, 'origHeight': 411, 'width': 410, 'height': 411, 'widthPercent': 0.8, 'rescaleHeight': True, 'trialN': 7, 'loaded': True, 'loadedTime': 2584.7000000476837, 'positionName': 'CENTER', 'positionCoords': [506, 194.5]}]",Rate how much you want to eat this food from 0 (least) to 10 (most).,18835.700000047684,1669841243101,lox,4098.700000047684,True,0.16,22934.400000095367,4098.700000047684,True,HRV,HRV_0295,2022-11-30 20:49:28
8,"[{'imgObject': {}, 'id': 'cherries', 'src': '/static/foodstim60/cherries.jpg', 'key': 'NaN', 'origWidth': 410, 'origHeight': 411, 'width': 410, 'height': 411, 'widthPercent': 0.8, 'rescaleHeight': True, 'trialN': 8, 'loaded': True, 'loadedTime': 2586.5, 'positionName': 'CENTER', 'positionCoords': [506, 194.5]}]",Rate how much you want to eat this food from 0 (least) to 10 (most).,22935.700000047684,1669841247201,cherries,2466.2999999523163,True,9.02,25402.0,2466.2999999523163,True,HRV,HRV_0295,2022-11-30 20:49:28
9,"[{'imgObject': {}, 'id': 'raspberries', 'src': '/static/foodstim60/raspberries.jpg', 'key': 'NaN', 'origWidth': 411, 'origHeight': 411, 'width': 411, 'height': 411, 'widthPercent': 0.8, 'rescaleHeight': True, 'trialN': 9, 'loaded': True, 'loadedTime': 2587.3000000715256, 'positionName': 'CENTER', 'positionCoords': [505.5, 194.5]}]",Rate how much you want to eat this food from 0 (least) to 10 (most).,25403.5,1669841249669,raspberries,1631.3000000715256,True,9.97,27034.800000071526,1631.3000000715256,True,HRV,HRV_0295,2022-11-30 20:49:28
10,"[{'imgObject': {}, 'id': 'mashed potato', 'src': '/static/foodstim60/mashed potato.jpg', 'key': 'NaN', 'origWidth': 409, 'origHeight': 409, 'width': 409, 'height': 409, 'widthPercent': 0.8, 'rescaleHeight': True, 'trialN': 10, 'loaded': True, 'loadedTime': 2588.8000000715256, 'positionName': 'CENTER', 'positionCoords': [506.5, 195.5]}]",Rate how much you want to eat this food from 0 (least) to 10 (most).,27037.100000023842,1669841251302,mashed potato,2132.600000023842,True,5.71,29169.700000047684,2132.600000023842,True,HRV,HRV_0295,2022-11-30 20:49:28
11,"[{'imgObject': {}, 'id': 'bagel and cc', 'src': '/static/foodstim60/bagel and cc.jpg', 'key': 'NaN', 'origWidth': 410, 'origHeight': 410, 'width': 410, 'height': 410, 'widthPercent': 0.8, 'rescaleHeight': True, 'trialN': 11, 'loaded': True, 'loadedTime': 2589.7000000476837, 'positionName': 'CENTER', 'positionCoords': [506, 195]}]",Rate how much you want to eat this food from 0 (least) to 10 (most).,29171.0,1669841253436,bagel and cc,1895.4000000953674,True,1.1,31066.400000095367,1895.4000000953674,True,HRV,HRV_0295,2022-11-30 20:49:28
12,"[{'imgObject': {}, 'id': 'corn cob', 'src': '/static/foodstim60/corn cob.jpg', 'key': 'NaN', 'origWidth': 411, 'origHeight': 411, 'width': 411, 'height': 411, 'widthPercent': 0.8, 'rescaleHeight': True, 'trialN': 12, 'loaded': True, 'loadedTime': 2590.600000023842, 'positionName': 'CENTER', 'positionCoords': [505.5, 194.5]}]",Rate how much you want to eat this food from 0 (least) to 10 (most).,31067.5,1669841255333,corn cob,2084.0,True,2.39,33151.5,2084.0,True,HRV,HRV_0295,2022-11-30 20:49:28
13,"[{'imgObject': {}, 'id': 'eggsalad', 'src': '/static/foodstim60/eggsalad.jpg', 'key': 'NaN', 'origWidth': 410, 'origHeight': 409, 'width': 410, 'height': 409, 'widthPercent': 0.8, 'rescaleHeight': True, 'trialN': 13, 'loaded': True, 'loadedTime': 2591.100000023842, 'positionName': 'CENTER', 'positionCoords': [506, 195.5]}]",Rate how much you want to eat this food from 0 (least) to 10 (most).,33152.90000009537,1669841257418,eggsalad,2216.1999999284744,True,5.8100000000000005,35369.10000002384,2216.1999999284744,True,HRV,HRV_0295,2022-11-30 20:49:28
14,"[{'imgObject': {}, 'id': 'seaweed', 'src': '/static/foodstim60/seaweed.jpg', 'key': 'NaN', 'origWidth': 410, 'origHeight': 410, 'width': 410, 'height': 410, 'widthPercent': 0.8, 'rescaleHeight': True, 'trialN': 14, 'loaded': True, 'loadedTime': 2591.600000023842, 'positionName': 'CENTER', 'positionCoords': [506, 195]}]",Rate how much you want to eat this food from 0 (least) to 10 (most).,35370.5,1669841259636,seaweed,2545.7000000476837,True,0.13,37916.200000047684,2545.7000000476837,True,HRV,HRV_0295,2022-11-30 20:49:28
15,"[{'imgObject': {}, 'id': 'baked potato', 'src': '/static/foodstim60/baked potato.jpg', 'key': 'NaN', 'origWidth': 409, 'origHeight': 410, 'width': 409, 'height': 410, 'widthPercent': 0.8, 'rescaleHeight': True, 'trialN': 15, 'loaded': True, 'loadedTime': 2592.2000000476837, 'positionName': 'CENTER', 'positionCoords': [506.5, 195]}]",Rate how much you want to eat this food from 0 (least) to 10 (most).,37917.60000002384,1669841262183,baked potato,2033.2000000476837,True,1.52,39950.800000071526,2033.2000000476837,True,HRV,HRV_0295,2022-11-30 20:49:28
16,"[{'imgObject': {}, 'id': 'turkey sandwich', 'src': '/static/foodstim60/turkey sandwich.jpg', 'key': 'NaN', 'origWidth': 409, 'origHeight': 409, 'width': 409, 'height': 409, 'widthPercent': 0.8, 'rescaleHeight': True, 'trialN': 16, 'loaded': True, 'loadedTime': 2592.600000023842, 'positionName': 'CENTER', 'positionCoords': [506.5, 195.5]}]",Rate how much you want to eat this food from 0 (least) to 10 (most).,39952.200000047684,1669841264217,turkey sandwich,1999.8999999761581,True,2.0100000000000002,41952.10000002384,1999.8999999761581,True,HRV,HRV_0295,2022-11-30 20:49:28
17,"[{'imgObject': {}, 'id': 'shreddedwheatwithmilk', 'src': '/static/foodstim60/shreddedwheatwithmilk.jpg', 'key': 'NaN', 'origWidth': 410, 'origHeight': 410, 'width': 410, 'height': 410, 'widthPercent': 0.8, 'rescaleHeight': True, 'trialN': 17, 'loaded': True, 'loadedTime': 2592.9000000953674, 'positionName': 'CENTER', 'positionCoords': [506, 195]}]",Rate how much you want to eat this food from 0 (least) to 10 (most).,41953.700000047684,1669841266219,shreddedwheatwithmilk,2277.2999999523163,True,0.68,44231.0,2277.2999999523163,True,HRV,HRV_0295,2022-11-30 20:49:28
18,"[{'imgObject': {}, 'id': 'Grapes', 'src': '/static/foodstim60/Grapes.jpg', 'key': 'NaN', 'origWidth': 411, 'origHeight': 411, 'width': 411, 'height': 411, 'widthPercent': 0.8, 'rescaleHeight': True, 'trialN': 18, 'loaded': True, 'loadedTime': 2593.4000000953674, 'positionName': 'CENTER', 'positionCoords': [505.5, 194.5]}]",Rate how much you want to eat this food from 0 (least) to 10 (most).,44232.200000047684,1669841268497,Grapes,2802.399999976158,True,8.24,47034.60000002384,2802.399999976158,True,HRV,HRV_0295,2022-11-30 20:49:28
19,"[{'imgObject': {}, 'id': 'chickenfingers', 'src': '/static/foodstim60/chickenfingers.jpg', 'key': 'NaN', 'origWidth': 410, 'origHeight': 410, 'width': 410, 'height': 410, 'widthPercent': 0.8, 'rescaleHeight': True, 'trialN': 19, 'loaded': True, 'loadedTime': 2593.7000000476837, 'positionName': 'CENTER', 'positionCoords': [506, 195]}]",Rate how much you want to eat this food from 0 (least) to 10 (most).,47036.700000047684,1669841271302,chickenfingers,2165.5,True,5.0,49202.200000047684,2165.5,True,HRV,HRV_0295,2022-11-30 20:49:28
20,"[{'imgObject': {}, 'id': 'rigatoni and sauce', 'src': '/static/foodstim60/rigatoni and sauce.jpg', 'key': 'NaN', 'origWidth': 410, 'origHeight': 411, 'width': 410, 'height': 411, 'widthPercent': 0.8, 'rescaleHeight': True, 'trialN': 20, 'loaded': True, 'loadedTime': 2593.9000000953674, 'positionName': 'CENTER', 'positionCoords': [506, 194.5]}]",Rate how much you want to eat this food from 0 (least) to 10 (most).,49203.5,1669841273469,rigatoni and sauce,3684.3000000715256,True,2.96,52887.800000071526,3684.3000000715256,True,HRV,HRV_0295,2022-11-30 20:49:28
21,"[{'imgObject': {}, 'id': 'pear', 'src': '/static/foodstim60/pear.jpg', 'key': 'NaN', 'origWidth': 411, 'origHeight': 410, 'width': 411, 'height': 410, 'widthPercent': 0.8, 'rescaleHeight': True, 'trialN': 21, 'loaded': True, 'loadedTime': 2594, 'positionName': 'CENTER', 'positionCoords': [505.5, 195]}]",Rate how much you want to eat this food from 0 (least) to 10 (most).,52890.10000002384,1669841277155,pear,2127.600000023842,True,8.17,55017.700000047684,2127.600000023842,True,HRV,HRV_0295,2022-11-30 20:49:28
22,"[{'imgObject': {}, 'id': 'fried eggs', 'src': '/static/foodstim60/fried eggs.jpg', 'key': 'NaN', 'origWidth': 410, 'origHeight': 410, 'width': 410, 'height': 410, 'widthPercent': 0.8, 'rescaleHeight': True, 'trialN': 22, 'loaded': True, 'loadedTime': 2594, 'positionName': 'CENTER', 'positionCoords': [506, 195]}]",Rate how much you want to eat this food from 0 (least) to 10 (most).,55019.200000047684,1669841279284,fried eggs,2366.100000023842,True,3.2800000000000002,57385.300000071526,2366.100000023842,True,HRV,HRV_0295,2022-11-30 20:49:28
23,"[{'imgObject': {}, 'id': 'sweetpotato', 'src': '/static/foodstim60/sweetpotato.jpg', 'key': 'NaN', 'origWidth': 410, 'origHeight': 410, 'width': 410, 'height': 410, 'widthPercent': 0.8, 'rescaleHeight': True, 'trialN': 23, 'loaded': True, 'loadedTime': 2594.2000000476837, 'positionName': 'CENTER', 'positionCoords': [506, 195]}]",Rate how much you want to eat this food from 0 (least) to 10 (most).,57386.800000071526,1669841281652,sweetpotato,3158.1999999284744,True,4.38,60545.0,3158.1999999284744,True,HRV,HRV_0295,2022-11-30 20:49:28
24,"[{'imgObject': {}, 'id': 'raisin bran w milk', 'src': '/static/foodstim60/raisin bran w milk.jpg', 'key': 'NaN', 'origWidth': 411, 'origHeight': 411, 'width': 411, 'height': 411, 'widthPercent': 0.8, 'rescaleHeight': True, 'trialN': 24, 'loaded': True, 'loadedTime': 2594.2000000476837, 'positionName': 'CENTER', 'positionCoords': [505.5, 194.5]}]",Rate how much you want to eat this food from 0 (least) to 10 (most).,60546.60000002384,1669841284812,raisin bran w milk,1905.7000000476837,True,1.07,62452.300000071526,1905.7000000476837,True,HRV,HRV_0295,2022-11-30 20:49:28
25,"[{'imgObject': {}, 'id': 'grilled chicken strips', 'src': '/static/foodstim60/grilled chicken strips.jpg', 'key': 'NaN', 'origWidth': 410, 'origHeight': 411, 'width': 410, 'height': 411, 'widthPercent': 0.8, 'rescaleHeight': True, 'trialN': 25, 'loaded': True, 'loadedTime': 2594.3000000715256, 'positionName': 'CENTER', 'positionCoords': [506, 194.5]}]",Rate how much you want to eat this food from 0 (least) to 10 (most).,62453.90000009537,1669841286719,grilled chicken strips,1915.8999999761581,True,2.77,64369.800000071526,1915.8999999761581,True,HRV,HRV_0295,2022-11-30 20:49:28
26,"[{'imgObject': {}, 'id': 'ice cream sundae 002', 'src': '/static/foodstim60/ice cream sundae 002.jpg', 'key': 'NaN', 'origWidth': 409, 'origHeight': 409, 'width': 409, 'height': 409, 'widthPercent': 0.8, 'rescaleHeight': True, 'trialN': 26, 'loaded': True, 'loadedTime': 2594.4000000953674, 'positionName': 'CENTER', 'positionCoords': [506.5, 195.5]}]",Rate how much you want to eat this food from 0 (least) to 10 (most).,64371.300000071526,1669841288636,ice cream sundae 002,2252.1999999284744,True,7.61,66623.5,2252.1999999284744,True,HRV,HRV_0295,2022-11-30 20:49:28
27,"[{'imgObject': {}, 'id': 'cantaloupe', 'src': '/static/foodstim60/cantaloupe.jpg', 'key': 'NaN', 'origWidth': 409, 'origHeight': 409, 'width': 409, 'height': 409, 'widthPercent': 0.8, 'rescaleHeight': True, 'trialN': 27, 'loaded': True, 'loadedTime': 2594.5, 'positionName': 'CENTER', 'positionCoords': [506.5, 195.5]}]",Rate how much you want to eat this food from 0 (least) to 10 (most).,66624.80000007153,1669841290890,cantaloupe,1903.7999999523163,True,8.72,68528.60000002384,1903.7999999523163,True,HRV,HRV_0295,2022-11-30 20:49:28
28,"[{'imgObject': {}, 'id': 'cocktailshrimp', 'src': '/static/foodstim60/cocktailshrimp.jpg', 'key': 'NaN', 'origWidth': 410, 'origHeight': 410, 'width': 410, 'height': 410, 'widthPercent': 0.8, 'rescaleHeight': True, 'trialN': 28, 'loaded': True, 'loadedTime': 2594.600000023842, 'positionName': 'CENTER', 'positionCoords': [506, 195]}]",Rate how much you want to eat this food from 0 (least) to 10 (most).,68529.90000009537,1669841292795,cocktailshrimp,1983.0,True,0.0,70512.90000009537,1983.0,True,HRV,HRV_0295,2022-11-30 20:49:28
29,"[{'imgObject': {}, 'id': 'sushi w_condiments', 'src': '/static/foodstim60/sushi w_condiments.jpg', 'key': 'NaN', 'origWidth': 410, 'origHeight': 410, 'width': 410, 'height': 410, 'widthPercent': 0.8, 'rescaleHeight': True, 'trialN': 29, 'loaded': True, 'loadedTime': 2594.7000000476837, 'positionName': 'CENTER', 'positionCoords': [506, 195]}]",Rate how much you want to eat this food from 0 (least) to 10 (most).,70514.0,1669841294779,sushi w_condiments,2969.4000000953674,True,4.97,73483.40000009537,2969.4000000953674,True,HRV,HRV_0295,2022-11-30 20:49:28
30,"[{'imgObject': {}, 'id': 'mac & cheese', 'src': '/static/foodstim60/mac & cheese.jpg', 'key': 'NaN', 'origWidth': 410, 'origHeight': 410, 'width': 410, 'height': 410, 'widthPercent': 0.8, 'rescaleHeight': True, 'trialN': 30, 'loaded': True, 'loadedTime': 2594.8000000715256, 'positionName': 'CENTER', 'positionCoords': [506, 195]}]",Rate how much you want to eat this food from 0 (least) to 10 (most).,73484.40000009537,1669841297749,mac & cheese,2967.5999999046326,True,3.35,76452.0,2967.5999999046326,True,HRV,HRV_0295,2022-11-30 20:49:28
31,"[{'imgObject': {}, 'id': 'apple slices', 'src': '/static/foodstim60/apple slices.jpg', 'key': 'NaN', 'origWidth': 409, 'origHeight': 410, 'width': 409, 'height': 410, 'widthPercent': 0.8, 'rescaleHeight': True, 'trialN': 31, 'loaded': True, 'loadedTime': 2595, 'positionName': 'CENTER', 'positionCoords': [506.5, 195]}]",Rate how much you want to eat this food from 0 (least) to 10 (most).,76453.10000002384,1669841300718,apple slices,2299.600000023842,True,8.41,78752.70000004768,2299.600000023842,True,HRV,HRV_0295,2022-11-30 20:49:28
32,"[{'imgObject': {}, 'id': 'cherry tomato', 'src': '/static/foodstim60/cherry tomato.jpg', 'key': 'NaN', 'origWidth': 410, 'origHeight': 410, 'width': 410, 'height': 410, 'widthPercent': 0.8, 'rescaleHeight': True, 'trialN': 32, 'loaded': True, 'loadedTime': 2595, 'positionName': 'CENTER', 'positionCoords': [506, 195]}]",Rate how much you want to eat this food from 0 (least) to 10 (most).,78754.0,1669841303019,cherry tomato,2812.9000000953674,True,1.7,81566.90000009537,2812.9000000953674,True,HRV,HRV_0295,2022-11-30 20:49:28
33,"[{'imgObject': {}, 'id': 'Tribe humus pita', 'src': '/static/foodstim60/Tribe humus pita.jpg', 'key': 'NaN', 'origWidth': 411, 'origHeight': 411, 'width': 411, 'height': 411, 'widthPercent': 0.8, 'rescaleHeight': True, 'trialN': 33, 'loaded': True, 'loadedTime': 2595.100000023842, 'positionName': 'CENTER', 'positionCoords': [505.5, 194.5]}]",Rate how much you want to eat this food from 0 (least) to 10 (most).,81567.80000007153,1669841305833,Tribe humus pita,2298.5,True,1.06,83866.30000007153,2298.5,True,HRV,HRV_0295,2022-11-30 20:49:28
34,"[{'imgObject': {}, 'id': 'hashbrowns', 'src': '/static/foodstim60/hashbrowns.jpg', 'key': 'NaN', 'origWidth': 411, 'origHeight': 410, 'width': 411, 'height': 410, 'widthPercent': 0.8, 'rescaleHeight': True, 'trialN': 34, 'loaded': True, 'loadedTime': 2595.2000000476837, 'positionName': 'CENTER', 'positionCoords': [505.5, 195]}]",Rate how much you want to eat this food from 0 (least) to 10 (most).,83867.20000004768,1669841308132,hashbrowns,2370.7000000476837,True,1.34,86237.90000009537,2370.7000000476837,True,HRV,HRV_0295,2022-11-30 20:49:28
35,"[{'imgObject': {}, 'id': 'blackbeanswithrice', 'src': '/static/foodstim60/blackbeanswithrice.jpg', 'key': 'NaN', 'origWidth': 410, 'origHeight': 410, 'width': 410, 'height': 410, 'widthPercent': 0.8, 'rescaleHeight': True, 'trialN': 35, 'loaded': True, 'loadedTime': 2595.3000000715256, 'positionName': 'CENTER', 'positionCoords': [506, 195]}]",Rate how much you want to eat this food from 0 (least) to 10 (most).,86240.20000004768,1669841310505,blackbeanswithrice,1945.5,True,0.06,88185.70000004768,1945.5,True,HRV,HRV_0295,2022-11-30 20:49:28
36,"[{'imgObject': {}, 'id': 'burrito', 'src': '/static/foodstim60/burrito.jpg', 'key': 'NaN', 'origWidth': 410, 'origHeight': 410, 'width': 410, 'height': 410, 'widthPercent': 0.8, 'rescaleHeight': True, 'trialN': 36, 'loaded': True, 'loadedTime': 2595.4000000953674, 'positionName': 'CENTER', 'positionCoords': [506, 195]}]",Rate how much you want to eat this food from 0 (least) to 10 (most).,88187.0,1669841312452,burrito,2999.0,True,5.99,91186.0,2999.0,True,HRV,HRV_0295,2022-11-30 20:49:28
37,"[{'imgObject': {}, 'id': 'chicken nuggets2', 'src': '/static/foodstim60/chicken nuggets2.jpg', 'key': 'NaN', 'origWidth': 410, 'origHeight': 409, 'width': 410, 'height': 409, 'widthPercent': 0.8, 'rescaleHeight': True, 'trialN': 37, 'loaded': True, 'loadedTime': 2595.5, 'positionName': 'CENTER', 'positionCoords': [506, 195.5]}]",Rate how much you want to eat this food from 0 (least) to 10 (most).,91187.10000002384,1669841315452,chicken nuggets2,3532.7000000476837,True,4.07,94719.80000007153,3532.7000000476837,True,HRV,HRV_0295,2022-11-30 20:49:28
38,"[{'imgObject': {}, 'id': 'rigatoni', 'src': '/static/foodstim60/rigatoni.jpg', 'key': 'NaN', 'origWidth': 411, 'origHeight': 411, 'width': 411, 'height': 411, 'widthPercent': 0.8, 'rescaleHeight': True, 'trialN': 38, 'loaded': True, 'loadedTime': 2595.600000023842, 'positionName': 'CENTER', 'positionCoords': [505.5, 194.5]}]",Rate how much you want to eat this food from 0 (least) to 10 (most).,94721.40000009537,1669841318987,rigatoni,1981.2999999523163,True,0.8200000000000001,96702.70000004768,1981.2999999523163,True,HRV,HRV_0295,2022-11-30 20:49:28
39,"[{'imgObject': {}, 'id': 'strawberries', 'src': '/static/foodstim60/strawberries.jpg', 'key': 'NaN', 'origWidth': 410, 'origHeight': 410, 'width': 410, 'height': 410, 'widthPercent': 0.8, 'rescaleHeight': True, 'trialN': 39, 'loaded': True, 'loadedTime': 2595.7000000476837, 'positionName': 'CENTER', 'positionCoords': [506, 195]}]",Rate how much you want to eat this food from 0 (least) to 10 (most).,96704.10000002384,1669841320969,strawberries,1890.7000000476837,True,9.0,98594.80000007153,1890.7000000476837,True,HRV,HRV_0295,2022-11-30 20:49:28
40,"[{'imgObject': {}, 'id': 'salad w chicken', 'src': '/static/foodstim60/salad w chicken.jpg', 'key': 'NaN', 'origWidth': 411, 'origHeight': 411, 'width': 411, 'height': 411, 'widthPercent': 0.8, 'rescaleHeight': True, 'trialN': 40, 'loaded': True, 'loadedTime': 2595.8000000715256, 'positionName': 'CENTER', 'positionCoords': [505.5, 194.5]}]",Rate how much you want to eat this food from 0 (least) to 10 (most).,98596.70000004768,1669841322862,salad w chicken,2623.899999976158,True,3.62,101220.60000002384,2623.899999976158,True,HRV,HRV_0295,2022-11-30 20:49:28
41,"[{'imgObject': {}, 'id': 'popsicles', 'src': '/static/foodstim60/popsicles.jpg', 'key': 'NaN', 'origWidth': 410, 'origHeight': 410, 'width': 410, 'height': 410, 'widthPercent': 0.8, 'rescaleHeight': True, 'trialN': 41, 'loaded': True, 'loadedTime': 2595.9000000953674, 'positionName': 'CENTER', 'positionCoords': [506, 195]}]",Rate how much you want to eat this food from 0 (least) to 10 (most).,101222.5,1669841325488,popsicles,1847.5,True,6.2700000000000005,103070.0,1847.5,True,HRV,HRV_0295,2022-11-30 20:49:28
42,"[{'imgObject': {}, 'id': 'tacos', 'src': '/static/foodstim60/tacos.jpg', 'key': 'NaN', 'origWidth': 411, 'origHeight': 411, 'width': 411, 'height': 411, 'widthPercent': 0.8, 'rescaleHeight': True, 'trialN': 42, 'loaded': True, 'loadedTime': 2595.9000000953674, 'positionName': 'CENTER', 'positionCoords': [505.5, 194.5]}]",Rate how much you want to eat this food from 0 (least) to 10 (most).,103071.60000002384,1669841327337,tacos,2215.2000000476837,True,4.92,105286.80000007153,2215.2000000476837,True,HRV,HRV_0295,2022-11-30 20:49:28
43,"[{'imgObject': {}, 'id': 'steak', 'src': '/static/foodstim60/steak.jpg', 'key': 'NaN', 'origWidth': 410, 'origHeight': 410, 'width': 410, 'height': 410, 'widthPercent': 0.8, 'rescaleHeight': True, 'trialN': 43, 'loaded': True, 'loadedTime': 2596, 'positionName': 'CENTER', 'positionCoords': [506, 195]}]",Rate how much you want to eat this food from 0 (least) to 10 (most).,105287.90000009537,1669841329553,steak,1715.5999999046326,True,2.38,107003.5,1715.5999999046326,True,HRV,HRV_0295,2022-11-30 20:49:28
44,"[{'imgObject': {}, 'id': 'salmon', 'src': '/static/foodstim60/salmon.jpg', 'key': 'NaN', 'origWidth': 410, 'origHeight': 409, 'width': 410, 'height': 409, 'widthPercent': 0.8, 'rescaleHeight': True, 'trialN': 44, 'loaded': True, 'loadedTime': 2596.100000023842, 'positionName': 'CENTER', 'positionCoords': [506, 195.5]}]",Rate how much you want to eat this food from 0 (least) to 10 (most).,107005.90000009537,1669841331271,salmon,4247.099999904633,True,2.63,111253.0,4247.099999904633,True,HRV,HRV_0295,2022-11-30 20:49:28
45,"[{'imgObject': {}, 'id': 'roastedpotatoes', 'src': '/static/foodstim60/roastedpotatoes.jpg', 'key': 'NaN', 'origWidth': 409, 'origHeight': 410, 'width': 409, 'height': 410, 'widthPercent': 0.8, 'rescaleHeight': True, 'trialN': 45, 'loaded': True, 'loadedTime': 2596.2000000476837, 'positionName': 'CENTER', 'positionCoords': [506.5, 195]}]",Rate how much you want to eat this food from 0 (least) to 10 (most).,111254.60000002384,1669841335520,roastedpotatoes,1912.6000000238419,True,4.95,113167.20000004768,1912.6000000238419,True,HRV,HRV_0295,2022-11-30 20:49:28
46,"[{'imgObject': {}, 'id': 'olives', 'src': '/static/foodstim60/olives.jpg', 'key': 'NaN', 'origWidth': 410, 'origHeight': 410, 'width': 410, 'height': 410, 'widthPercent': 0.8, 'rescaleHeight': True, 'trialN': 46, 'loaded': True, 'loadedTime': 2596.2000000476837, 'positionName': 'CENTER', 'positionCoords': [506, 195]}]",Rate how much you want to eat this food from 0 (least) to 10 (most).,113168.40000009537,1669841337434,olives,2250.399999976158,True,4.95,115418.80000007153,2250.399999976158,True,HRV,HRV_0295,2022-11-30 20:49:28
47,"[{'imgObject': {}, 'id': 'omelette', 'src': '/static/foodstim60/omelette.jpg', 'key': 'NaN', 'origWidth': 410, 'origHeight': 409, 'width': 410, 'height': 409, 'widthPercent': 0.8, 'rescaleHeight': True, 'trialN': 47, 'loaded': True, 'loadedTime': 2611.4000000953674, 'positionName': 'CENTER', 'positionCoords': [506, 195.5]}]",Rate how much you want to eat this food from 0 (least) to 10 (most).,115419.80000007153,1669841339685,omelette,2016.7999999523163,True,2.66,117436.60000002384,2016.7999999523163,True,HRV,HRV_0295,2022-11-30 20:49:28
48,"[{'imgObject': {}, 'id': 'orange slices', 'src': '/static/foodstim60/orange slices.jpg', 'key': 'NaN', 'origWidth': 409, 'origHeight': 410, 'width': 409, 'height': 410, 'widthPercent': 0.8, 'rescaleHeight': True, 'trialN': 48, 'loaded': True, 'loadedTime': 2612.9000000953674, 'positionName': 'CENTER', 'positionCoords': [506.5, 195]}]",Rate how much you want to eat this food from 0 (least) to 10 (most).,117438.20000004768,1669841341703,orange slices,1899.3999999761581,True,7.8100000000000005,119337.60000002384,1899.3999999761581,True,HRV,HRV_0295,2022-11-30 20:49:28
49,"[{'imgObject': {}, 'id': 'yogurt no spoon', 'src': '/static/foodstim60/yogurt no spoon.jpg', 'key': 'NaN', 'origWidth': 411, 'origHeight': 410, 'width': 411, 'height': 410, 'widthPercent': 0.8, 'rescaleHeight': True, 'trialN': 49, 'loaded': True, 'loadedTime': 2613.7000000476837, 'positionName': 'CENTER', 'positionCoords': [505.5, 195]}]",Rate how much you want to eat this food from 0 (least) to 10 (most).,119338.60000002384,1669841343604,yogurt no spoon,2400.2000000476837,True,9.03,121738.80000007153,2400.2000000476837,True,HRV,HRV_0295,2022-11-30 20:49:28
50,"[{'imgObject': {}, 'id': 'luckycharms', 'src': '/static/foodstim60/luckycharms.jpg', 'key': 'NaN', 'origWidth': 410, 'origHeight': 409, 'width': 410, 'height': 409, 'widthPercent': 0.8, 'rescaleHeight': True, 'trialN': 50, 'loaded': True, 'loadedTime': 2614.2000000476837, 'positionName': 'CENTER', 'positionCoords': [506, 195.5]}]",Rate how much you want to eat this food from 0 (least) to 10 (most).,121740.80000007153,1669841346006,luckycharms,2245.7999999523163,True,1.56,123986.60000002384,2245.7999999523163,True,HRV,HRV_0295,2022-11-30 20:49:28
51,"[{'imgObject': {}, 'id': 'fruitsalad', 'src': '/static/foodstim60/fruitsalad.jpg', 'key': 'NaN', 'origWidth': 410, 'origHeight': 410, 'width': 410, 'height': 410, 'widthPercent': 0.8, 'rescaleHeight': True, 'trialN': 51, 'loaded': True, 'loadedTime': 2614.4000000953674, 'positionName': 'CENTER', 'positionCoords': [506, 195]}]",Rate how much you want to eat this food from 0 (least) to 10 (most).,123988.30000007153,1669841348253,fruitsalad,2814.6999999284744,True,7.12,126803.0,2814.6999999284744,True,HRV,HRV_0295,2022-11-30 20:49:28
52,"[{'imgObject': {}, 'id': 'mango', 'src': '/static/foodstim60/mango.jpg', 'key': 'NaN', 'origWidth': 411, 'origHeight': 411, 'width': 411, 'height': 411, 'widthPercent': 0.8, 'rescaleHeight': True, 'trialN': 52, 'loaded': True, 'loadedTime': 2632, 'positionName': 'CENTER', 'positionCoords': [505.5, 194.5]}]",Rate how much you want to eat this food from 0 (least) to 10 (most).,126804.0,1669841351069,mango,3032.600000023842,True,5.71,129836.60000002384,3032.600000023842,True,HRV,HRV_0295,2022-11-30 20:49:28
53,"[{'imgObject': {}, 'id': 'hotdog w must', 'src': '/static/foodstim60/hotdog w must.jpg', 'key': 'NaN', 'origWidth': 409, 'origHeight': 409, 'width': 409, 'height': 409, 'widthPercent': 0.8, 'rescaleHeight': True, 'trialN': 53, 'loaded': True, 'loadedTime': 2632.4000000953674, 'positionName': 'CENTER', 'positionCoords': [506.5, 195.5]}]",Rate how much you want to eat this food from 0 (least) to 10 (most).,129837.60000002384,1669841354103,hotdog w must,1950.0,True,3.2800000000000002,131787.60000002384,1950.0,True,HRV,HRV_0295,2022-11-30 20:49:28
54,"[{'imgObject': {}, 'id': 'avocado', 'src': '/static/foodstim60/avocado.jpg', 'key': 'NaN', 'origWidth': 409, 'origHeight': 409, 'width': 409, 'height': 409, 'widthPercent': 0.8, 'rescaleHeight': True, 'trialN': 54, 'loaded': True, 'loadedTime': 2632.5, 'positionName': 'CENTER', 'positionCoords': [506.5, 195.5]}]",Rate how much you want to eat this food from 0 (least) to 10 (most).,131789.0,1669841356054,avocado,2282.8000000715256,True,3.81,134071.80000007153,2282.8000000715256,True,HRV,HRV_0295,2022-11-30 20:49:28
55,"[{'imgObject': {}, 'id': 'bagel plain', 'src': '/static/foodstim60/bagel plain.jpg', 'key': 'NaN', 'origWidth': 410, 'origHeight': 410, 'width': 410, 'height': 410, 'widthPercent': 0.8, 'rescaleHeight': True, 'trialN': 55, 'loaded': True, 'loadedTime': 2632.600000023842, 'positionName': 'CENTER', 'positionCoords': [506, 195]}]",Rate how much you want to eat this food from 0 (least) to 10 (most).,134073.0,1669841358338,bagel plain,2083.2000000476837,True,0.16,136156.20000004768,2083.2000000476837,True,HRV,HRV_0295,2022-11-30 20:49:28
56,"[{'imgObject': {}, 'id': 'turkeysandwich', 'src': '/static/foodstim60/turkeysandwich.jpg', 'key': 'NaN', 'origWidth': 409, 'origHeight': 409, 'width': 409, 'height': 409, 'widthPercent': 0.8, 'rescaleHeight': True, 'trialN': 56, 'loaded': True, 'loadedTime': 2632.8000000715256, 'positionName': 'CENTER', 'positionCoords': [506.5, 195.5]}]",Rate how much you want to eat this food from 0 (least) to 10 (most).,136157.80000007153,1669841360423,turkeysandwich,1578.8999999761581,True,1.35,137736.70000004768,1578.8999999761581,True,HRV,HRV_0295,2022-11-30 20:49:28
57,"[{'imgObject': {}, 'id': 'eggs', 'src': '/static/foodstim60/eggs.jpg', 'key': 'NaN', 'origWidth': 409, 'origHeight': 409, 'width': 409, 'height': 409, 'widthPercent': 0.8, 'rescaleHeight': True, 'trialN': 57, 'loaded': True, 'loadedTime': 2651.9000000953674, 'positionName': 'CENTER', 'positionCoords': [506.5, 195.5]}]",Rate how much you want to eat this food from 0 (least) to 10 (most).,137738.10000002384,1669841362003,eggs,2232.0,True,2.74,139970.10000002384,2232.0,True,HRV,HRV_0295,2022-11-30 20:49:28
58,"[{'imgObject': {}, 'id': 'burger', 'src': '/static/foodstim60/burger.jpg', 'key': 'NaN', 'origWidth': 409, 'origHeight': 409, 'width': 409, 'height': 409, 'widthPercent': 0.8, 'rescaleHeight': True, 'trialN': 58, 'loaded': True, 'loadedTime': 2652.4000000953674, 'positionName': 'CENTER', 'positionCoords': [506.5, 195.5]}]",Rate how much you want to eat this food from 0 (least) to 10 (most).,139971.5,1669841364237,burger,2231.9000000953674,True,3.49,142203.40000009537,2231.9000000953674,True,HRV,HRV_0295,2022-11-30 20:49:28
59,"[{'imgObject': {}, 'id': 'froot loops w milk', 'src': '/static/foodstim60/froot loops w milk.jpg', 'key': 'NaN', 'origWidth': 410, 'origHeight': 410, 'width': 410, 'height': 410, 'widthPercent': 0.8, 'rescaleHeight': True, 'trialN': 59, 'loaded': True, 'loadedTime': 2652.8000000715256, 'positionName': 'CENTER', 'positionCoords': [506, 195]}]",Rate how much you want to eat this food from 0 (least) to 10 (most).,142204.80000007153,1669841366470,froot loops w milk,2138.1999999284744,True,2.38,144343.0,2138.1999999284744,True,HRV,HRV_0295,2022-11-30 20:49:28
