success,trial_type,trial_index,time_elapsed,internal_node_id,Block,TrialNumber,TrialTime,trialTimeDiff,FPS_avg,FPS_med,FPS_mode,TrialDur,winResizeTime,rt,block,button_pressed,MotCoh,MotDir,ColCoh,Color,ChoiceKey,Choice,Accuracy,RT,nFrames,FPS,PPD,missTrial,missTrialMsg,onsetDelay,fullScreenExitTime,canvCenter,TrialType,Score,BlockTrial,stimulus,button_labels,exp,subjectId,date
True,fullscreen,0,3120,0.0-0.0,0.0,1.0,,,,,,,,,,,,,,,,,,,,,,,,,,,,,,,,HRV,HRV_0295,2022-11-30 21:05:30
,wl-check-fps,1,8110,0.0-1.0,0.0,2.0,"[3721.7, 3725.3, 3742.2, 3759.3, 3775.4, 3792.3, 3808.8, 3825.9, 3842, 3858.8, 3875.5, 3891.9, 3908.8, 3925.4, 3942.3, 3959, 3976.2, 3991.9, 4009.2, 4025.8, 4042, 4059.1, 4075.3, 4092.2, 4108.7, 4125.4, 4142, 4159.1, 4175.4, 4192.3, 4208.8, 4225.2, 4242.5, 4259.1, 4275.5, 4292.5, 4308.7, 4325.5, 4341.9, 4358.6, 4375.4, 4392.4, 4409, 4425.5, 4442.2, 4458.6, 4475.6, 4492.1, 4508.8, 4525.5, 4542.2, 4558.9, 4575.6, 4592.2, 4608.7, 4625.5, 4641.9, 4659.1, 4675.3, 4692, 4709.2, 4725.5, 4742.2, 4758.7, 4775.6, 4792.3, 4809, 4825.5, 4842.1, 4858.7, 4875.6, 4892.4, 4908.9, 4925.6, 4942.3, 4958.8, 4975.4, 4992, 5008.9, 5025.3, 5042.4, 5058.8, 5075.4, 5092.3, 5108.8, 5126, 5142.2, 5159.4, 5175.6, 5192.2, 5209.4, 5225.5, 5242.3, 5258.6, 5275.6, 5292, 5309.1, 5325.6, 5341.9, 5359.1, 5375.4, 5392.6, 5408.6, 5425.4, 5442.2, 5458.9, 5475.7, 5492.3, 5508.6, 5525.6, 5542.3, 5558.7, 5575.7, 5592.4, 5609.5, 5625.5, 5642.2, 5659.2, 5675.5, 5692.1, 5709.3, 5725.5, 5742, 5758.9, 5775.5, 5792.1, 5808.9, 5825.3, 5842.3, 5858.7, 5875.6, 5892.1, 5908.7, 5925.4, 5941.9, 5959, 5975.3, 5992, 6008.9, 6025.4, 6042.1, 6058.8, 6075.7, 6092.1, 6109.3, 6126.2, 6142.4, 6158.6, 6175.2, 6192.2, 6209, 6225.5, 6242, 6259.5, 6275.8, 6292.6, 6309, 6325.3, 6345, 6358.7, 6375.5, 6392.7, 6409, 6425.7, 6442.1, 6458.8, 6475.3, 6492.6, 6509.1, 6525.7, 6541.9, 6559, 6575.5, 6592.2, 6609.1, 6625.5, 6642, 6658.8, 6675.7, 6692.1, 6708.7, 6725.3, 6742, 6759.5, 6775.4, 6792.4, 6808.7, 6825.7, 6842, 6858.6, 6875.5, 6892.3, 6908.6, 6925.5, 6942.4, 6959, 6975.5, 6992.2, 7009.1, 7025.8, 7042.1, 7058.9, 7075.3, 7092.2, 7109, 7125.4, 7142.2, 7159.3, 7175.7, 7192.1, 7209.2, 7226.1, 7242.2, 7259.1, 7275.3, 7292.2, 7308.9, 7325.3, 7342.6, 7359.3, 7375.6, 7392.5, 7408.9, 7425.6, 7442.1, 7459, 7475.5, 7492.1, 7509, 7525.4, 7542.3, 7558.7, 7575.4, 7592.1, 7609, 7625.4, 7642.1, 7660.9, 7675.4, 7692, 7708.7, 7725.4, 7742.4, 7759.2, 7775.5, 7792.7, 7808.8, 7825.3, 7842.3, 7859.1, 7875.7, 7892.6, 7908.6, 7925.4, 7942.8, 7958.7, 7975.8, 7992.6, 8008.8, 8025.4, 8042.1, 8058.8, 8075.6, 8092.4, 8108.8, 8125.5, 8142.2, 8158.8, 8175.7, 8192.3, 8209, 8225.6, 8242.3, 8259.2, 8275.8, 8292.4, 8308.7, 8325.4, 8342.4, 8359.4, 8375.9, 8392.4, 8409, 8425.8, 8442.3, 8458.9, 8476.1, 8492.4, 8508.7, 8525.4, 8542.3, 8558.8, 8575.4, 8592.3, 8609.1, 8625.5, 8642.1, 8658.9, 8676, 8692.2]","[1.4, 3.6, 16.9, 17.1, 16.1, 16.9, 16.5, 17.1, 16.1, 16.8, 16.7, 16.4, 16.9, 16.6, 16.9, 16.7, 17.2, 15.7, 17.3, 16.6, 16.2, 17.1, 16.2, 16.9, 16.5, 16.7, 16.6, 17.1, 16.3, 16.9, 16.5, 16.4, 17.3, 16.6, 16.4, 17, 16.2, 16.8, 16.4, 16.7, 16.8, 17, 16.6, 16.5, 16.7, 16.4, 17, 16.5, 16.7, 16.7, 16.7, 16.7, 16.7, 16.6, 16.5, 16.8, 16.4, 17.2, 16.2, 16.7, 17.2, 16.3, 16.7, 16.5, 16.9, 16.7, 16.7, 16.5, 16.6, 16.6, 16.9, 16.8, 16.5, 16.7, 16.7, 16.5, 16.6, 16.6, 16.9, 16.4, 17.1, 16.4, 16.6, 16.9, 16.5, 17.2, 16.2, 17.2, 16.2, 16.6, 17.2, 16.1, 16.8, 16.3, 17, 16.4, 17.1, 16.5, 16.3, 17.2, 16.3, 17.2, 16, 16.8, 16.8, 16.7, 16.8, 16.6, 16.3, 17, 16.7, 16.4, 17, 16.7, 17.1, 16, 16.7, 17, 16.3, 16.6, 17.2, 16.2, 16.5, 16.9, 16.6, 16.6, 16.8, 16.4, 17, 16.4, 16.9, 16.5, 16.6, 16.7, 16.5, 17.1, 16.3, 16.7, 16.9, 16.5, 16.7, 16.7, 16.9, 16.4, 17.2, 16.9, 16.2, 16.2, 16.6, 17, 16.8, 16.5, 16.5, 17.5, 16.3, 16.8, 16.4, 16.3, 19.7, 13.7, 16.8, 17.2, 16.3, 16.7, 16.4, 16.7, 16.5, 17.3, 16.5, 16.6, 16.2, 17.1, 16.5, 16.7, 16.9, 16.4, 16.5, 16.8, 16.9, 16.4, 16.6, 16.6, 16.7, 17.5, 15.9, 17, 16.3, 17, 16.3, 16.6, 16.9, 16.8, 16.3, 16.9, 16.9, 16.6, 16.5, 16.7, 16.9, 16.7, 16.3, 16.8, 16.4, 16.9, 16.8, 16.4, 16.8, 17.1, 16.4, 16.4, 17.1, 16.9, 16.1, 16.9, 16.2, 16.9, 16.7, 16.4, 17.3, 16.7, 16.3, 16.9, 16.4, 16.7, 16.5, 16.9, 16.5, 16.6, 16.9, 16.4, 16.9, 16.4, 16.7, 16.7, 16.9, 16.4, 16.7, 18.8, 14.5, 16.6, 16.7, 16.7, 17, 16.8, 16.3, 17.2, 16.1, 16.5, 17, 16.8, 16.6, 16.9, 16, 16.8, 17.4, 15.9, 17.1, 16.8, 16.2, 16.6, 16.7, 16.7, 16.8, 16.8, 16.4, 16.7, 16.7, 16.6, 16.9, 16.6, 16.7, 16.6, 16.7, 16.9, 16.6, 16.6, 16.3, 16.7, 17, 17, 16.5, 16.5, 16.6, 16.8, 16.5, 16.6, 17.2, 16.3, 16.3, 16.7, 16.9, 16.5, 16.6, 16.9, 16.8, 16.4, 16.6, 16.8, 17.1, 16.2]",60.0,59.0,60.0,4988.5,[],,,,,,,,,,,,,,,,,,,,,,,,,HRV,HRV_0295,2022-11-30 21:05:30
,wl-html-keyboard-response,2,27042,0.0-2.0-0.0,0.0,3.0,,,,,,,,16927.0,0.0,0,,,,,,,,,,,,,,,,,,,,,,HRV,HRV_0295,2022-11-30 21:05:30
,wl-rdm,3,33700,0.0-3.0-0.0,0.0,4.0,,,,,,,[],,,,0.0,0.0,87.9,0.0,u,0.0,True,1090.8000000715256,66.0,60.0,40.0,False,,3000.0,[],"[711, 400]",ColorTask_Demo,,,,,HRV,HRV_0295,2022-11-30 21:05:30
,wl-rdm,4,38350,0.0-3.0-1.0,0.0,5.0,,,,,,,[],,,,0.0,0.0,87.9,1.0,i,1.0,True,599.1000000238419,36.0,60.0,40.0,False,,2000.0,[],"[711, 400]",ColorTask_Demo,,,,,HRV,HRV_0295,2022-11-30 21:05:30
,wl-html-keyboard-response,5,45408,0.0-3.0-2.0,0.0,6.0,,,,,,,,5054.200000047684,0.0,1,,,,,,,,,,,,,,,,,,,,,,HRV,HRV_0295,2022-11-30 21:05:30
,wl-html-keyboard-response,6,54104,0.0-4.0-0.0,0.0,7.0,,,,,,,,6690.100000023842,0.0,0,,,,,,,,,,,,,,,,,,,,,,HRV,HRV_0295,2022-11-30 21:05:30
,wl-html-keyboard-response,7,65509,0.0-5.0-0.0,0.0,8.0,,,,,,,,9388.5,0.0,0,,,,,,,,,,,,,,,,,,,,,,HRV,HRV_0295,2022-11-30 21:05:30
,wl-rdm,8,67634,0.0-6.0-0.0,0.0,9.0,,,,,,,[],,,,,,56.4,0.0,i,1.0,False,810.8999998569489,49.0,60.0,40.0,False,,255.53787817259217,[],"[711, 400]",ColorTask,-1.0,1.0,,,HRV,HRV_0295,2022-11-30 21:05:30
,wl-rdm,9,69834,0.0-6.1-0.1,0.0,10.0,,,,,,,[],,,,,,87.9,1.0,i,1.0,True,735.5999999046326,45.0,60.0,40.0,False,,387.8544001593782,[],"[711, 400]",ColorTask,0.0,2.0,,,HRV,HRV_0295,2022-11-30 21:05:30
,wl-rdm,10,71834,0.0-6.2-0.2,0.0,11.0,,,,,,,[],,,,,,87.9,0.0,u,0.0,True,618.1999999284744,38.0,60.0,40.0,False,,287.9595712161197,[],"[711, 400]",ColorTask,1.0,3.0,,,HRV,HRV_0295,2022-11-30 21:05:30
,wl-rdm,11,74018,0.0-6.3-0.3,0.0,12.0,,,,,,,[],,,,,,50.0,1.0,i,1.0,True,828.3999999761581,50.0,60.0,40.0,False,,275.55831251280995,[],"[711, 400]",ColorTask,2.0,4.0,,,HRV,HRV_0295,2022-11-30 21:05:30
,wl-rdm,12,76034,0.0-6.4-0.4,0.0,13.0,,,,,,,[],,,,,,56.4,1.0,i,1.0,True,697.1000000238419,42.0,60.0,40.0,False,,261.94985961563543,[],"[711, 400]",ColorTask,3.0,5.0,,,HRV,HRV_0295,2022-11-30 21:05:30
,wl-rdm,13,78368,0.0-6.5-0.5,0.0,14.0,,,,,,,[],,,,,,62.5,1.0,i,1.0,True,1014.0,61.0,60.0,40.0,False,,248.77449242731439,[],"[711, 400]",ColorTask,4.0,6.0,,,HRV,HRV_0295,2022-11-30 21:05:30
,wl-rdm,14,80335,0.0-6.6-0.6,0.0,15.0,,,,,,,[],,,,,,62.5,0.0,u,0.0,True,618.6000000238419,38.0,60.0,40.0,False,,262.6210599965634,[],"[711, 400]",ColorTask,5.0,7.0,,,HRV,HRV_0295,2022-11-30 21:05:30
,wl-rdm,15,82284,0.0-6.7-0.7,0.0,16.0,,,,,,,[],,,,,,87.9,1.0,i,1.0,True,635.7999999523163,39.0,60.0,40.0,False,,244.30064598639936,[],"[711, 400]",ColorTask,6.0,8.0,,,HRV,HRV_0295,2022-11-30 21:05:30
,wl-rdm,16,84501,0.0-6.8-0.8,0.0,17.0,,,,,,,[],,,,,,56.4,1.0,i,1.0,True,871.0,53.0,60.0,40.0,False,,259.51135306422276,[],"[711, 400]",ColorTask,7.0,9.0,,,HRV,HRV_0295,2022-11-30 21:05:30
,wl-rdm,17,86651,0.0-6.9-0.9,0.0,18.0,,,,,,,[],,,,,,50.0,1.0,i,1.0,True,808.5,49.0,60.0,40.0,False,,255.79056030237183,[],"[711, 400]",ColorTask,8.0,10.0,,,HRV,HRV_0295,2022-11-30 21:05:30
,wl-rdm,18,88851,0.0-6.10-0.10,0.0,19.0,,,,,,,[],,,,,,62.5,1.0,i,1.0,True,752.6000000238419,46.0,60.0,40.0,False,,355.43767884553586,[],"[711, 400]",ColorTask,9.0,11.0,,,HRV,HRV_0295,2022-11-30 21:05:30
,wl-rdm,19,90801,0.0-6.11-0.11,0.0,20.0,,,,,,,[],,,,,,53.2,1.0,i,1.0,True,620.0,38.0,60.0,40.0,False,,248.27625026904366,[],"[711, 400]",ColorTask,10.0,12.0,,,HRV,HRV_0295,2022-11-30 21:05:30
,wl-rdm,20,92901,0.0-6.12-0.12,0.0,21.0,,,,,,,[],,,,,,73.6,0.0,u,0.0,True,701.4000000953674,43.0,60.0,40.0,False,,299.6337772623916,[],"[711, 400]",ColorTask,11.0,13.0,,,HRV,HRV_0295,2022-11-30 21:05:30
,wl-rdm,21,94902,0.0-6.13-0.13,0.0,22.0,,,,,,,[],,,,,,50.0,1.0,u,0.0,False,586.5,36.0,60.0,40.0,False,,319.90773366226296,[],"[711, 400]",ColorTask,10.0,14.0,,,HRV,HRV_0295,2022-11-30 21:05:30
,wl-rdm,22,97318,0.0-6.14-0.14,0.0,23.0,,,,,,,[],,,,,,56.4,1.0,u,0.0,False,1108.2999999523163,67.0,60.0,40.0,False,,246.44060980720778,[],"[711, 400]",ColorTask,9.0,15.0,,,HRV,HRV_0295,2022-11-30 21:05:30
,wl-rdm,23,99369,0.0-6.15-0.15,0.0,24.0,,,,,,,[],,,,,,56.4,1.0,i,1.0,True,779.5,47.0,60.0,40.0,False,,214.88635002651654,[],"[711, 400]",ColorTask,10.0,16.0,,,HRV,HRV_0295,2022-11-30 21:05:30
,wl-rdm,24,101534,0.0-6.16-0.16,0.0,25.0,,,,,,,[],,,,,,73.6,0.0,u,0.0,True,852.0,52.0,60.0,40.0,False,,228.73189972347996,[],"[711, 400]",ColorTask,11.0,17.0,,,HRV,HRV_0295,2022-11-30 21:05:30
,wl-rdm,25,103618,0.0-6.17-0.17,0.0,26.0,,,,,,,[],,,,,,73.6,1.0,i,1.0,True,630.3999999761581,38.0,60.0,40.0,False,,369.673020027843,[],"[711, 400]",ColorTask,12.0,18.0,,,HRV,HRV_0295,2022-11-30 21:05:30
,wl-rdm,26,105635,0.0-6.18-0.18,0.0,27.0,,,,,,,[],,,,,,87.9,1.0,i,1.0,True,710.6999999284744,43.0,60.0,40.0,False,,236.66555924918035,[],"[711, 400]",ColorTask,13.0,19.0,,,HRV,HRV_0295,2022-11-30 21:05:30
,wl-rdm,27,107519,0.0-6.19-0.19,0.0,28.0,,,,,,,[],,,,,,62.5,1.0,i,1.0,True,554.7999999523163,34.0,60.0,40.0,False,,241.63623228400505,[],"[711, 400]",ColorTask,14.0,20.0,,,HRV,HRV_0295,2022-11-30 21:05:30
,wl-rdm,28,109469,0.0-6.20-0.20,0.0,29.0,,,,,,,[],,,,,,87.9,0.0,u,0.0,True,564.3999999761581,34.0,60.0,40.0,False,,303.484145404583,[],"[711, 400]",ColorTask,15.0,21.0,,,HRV,HRV_0295,2022-11-30 21:05:30
,wl-rdm,29,111969,0.0-6.21-0.21,0.0,30.0,,,,,,,[],,,,,,62.5,1.0,u,0.0,False,1072.3000000715256,65.0,60.0,40.0,False,,338.6585388273614,[],"[711, 400]",ColorTask,14.0,22.0,,,HRV,HRV_0295,2022-11-30 21:05:30
,wl-rdm,30,114119,0.0-6.22-0.22,0.0,31.0,,,,,,,[],,,,,,50.0,0.0,u,0.0,True,878.0,53.0,60.0,40.0,False,,209.88582068995706,[],"[711, 400]",ColorTask,15.0,23.0,,,HRV,HRV_0295,2022-11-30 21:05:30
,wl-rdm,31,116469,0.0-6.23-0.23,0.0,32.0,,,,,,,[],,,,,,53.2,1.0,u,0.0,False,1046.5999999046326,63.0,60.0,40.0,False,,246.41102124027574,[],"[711, 400]",ColorTask,14.0,24.0,,,HRV,HRV_0295,2022-11-30 21:05:30
,wl-rdm,32,119318,0.0-6.24-0.24,0.0,33.0,,,,,,,[],,,,,,73.6,1.0,u,0.0,False,1480.2000000476837,89.0,60.0,40.0,False,,314.50711183284807,[],"[711, 400]",ColorTask,13.0,25.0,,,HRV,HRV_0295,2022-11-30 21:05:30
,wl-rdm,33,121569,0.0-6.25-0.25,0.0,34.0,,,,,,,[],,,,,,53.2,0.0,u,0.0,True,865.1000000238419,52.0,60.0,40.0,False,,317.1027119975182,[],"[711, 400]",ColorTask,14.0,26.0,,,HRV,HRV_0295,2022-11-30 21:05:30
,wl-rdm,34,123785,0.0-6.26-0.26,0.0,35.0,,,,,,,[],,,,,,56.4,0.0,u,0.0,True,935.8000000715256,57.0,60.0,40.0,False,,212.40307419956687,[],"[711, 400]",ColorTask,15.0,27.0,,,HRV,HRV_0295,2022-11-30 21:05:30
,wl-rdm,35,125702,0.0-6.27-0.27,0.0,36.0,,,,,,,[],,,,,,87.9,1.0,i,1.0,True,532.0000001192093,32.0,60.0,40.0,False,,332.08925634692446,[],"[711, 400]",ColorTask,16.0,28.0,,,HRV,HRV_0295,2022-11-30 21:05:30
,wl-rdm,36,127852,0.0-6.28-0.28,0.0,37.0,,,,,,,[],,,,,,62.5,0.0,u,0.0,True,726.2999999523163,44.0,60.0,40.0,False,,361.901619916334,[],"[711, 400]",ColorTask,17.0,29.0,,,HRV,HRV_0295,2022-11-30 21:05:30
,wl-rdm,37,130385,0.0-6.29-0.29,0.0,38.0,,,,,,,[],,,,,,53.2,1.0,i,1.0,True,1137.6999999284744,69.0,60.0,40.0,False,,316.23366310989496,[],"[711, 400]",ColorTask,18.0,30.0,,,HRV,HRV_0295,2022-11-30 21:05:30
,wl-rdm,38,132585,0.0-6.30-0.30,0.0,39.0,,,,,,,[],,,,,,50.0,1.0,u,0.0,False,823.7999999523163,50.0,60.0,40.0,False,,314.1816955005862,[],"[711, 400]",ColorTask,17.0,31.0,,,HRV,HRV_0295,2022-11-30 21:05:30
,wl-rdm,39,135486,0.0-6.31-0.31,0.0,40.0,,,,,,,[],,,,,,50.0,0.0,u,0.0,True,1630.6000000238419,98.0,60.0,40.0,False,,215.29396410907466,[],"[711, 400]",ColorTask,18.0,32.0,,,HRV,HRV_0295,2022-11-30 21:05:30
,wl-rdm,40,137552,0.0-6.32-0.32,0.0,41.0,,,,,,,[],,,,,,87.9,0.0,u,0.0,True,656.2999999523163,40.0,60.0,40.0,False,,346.55557873880684,[],"[711, 400]",ColorTask,19.0,33.0,,,HRV,HRV_0295,2022-11-30 21:05:30
,wl-rdm,41,139619,0.0-6.33-0.33,0.0,42.0,,,,,,,[],,,,,,62.5,0.0,u,0.0,True,754.2999999523163,46.0,60.0,40.0,False,,247.06850724959952,[],"[711, 400]",ColorTask,20.0,34.0,,,HRV,HRV_0295,2022-11-30 21:05:30
,wl-rdm,42,141585,0.0-6.34-0.34,0.0,43.0,,,,,,,[],,,,,,62.5,0.0,u,0.0,True,697.7000000476837,42.0,60.0,40.0,False,,205.6081463267896,[],"[711, 400]",ColorTask,21.0,35.0,,,HRV,HRV_0295,2022-11-30 21:05:30
,wl-rdm,43,143536,0.0-6.35-0.35,0.0,44.0,,,,,,,[],,,,,,73.6,1.0,i,1.0,True,622.8999999761581,38.0,60.0,40.0,False,,243.53234414731386,[],"[711, 400]",ColorTask,22.0,36.0,,,HRV,HRV_0295,2022-11-30 21:05:30
,wl-rdm,44,146453,0.0-6.36-0.36,0.0,45.0,,,,,,,[],,,,,,56.4,1.0,u,0.0,False,1487.5,90.0,60.0,40.0,False,,359.3177757987597,[],"[711, 400]",ColorTask,21.0,37.0,,,HRV,HRV_0295,2022-11-30 21:05:30
,wl-rdm,45,148369,0.0-6.37-0.37,0.0,46.0,,,,,,,[],,,,,,73.6,1.0,i,1.0,True,629.3999998569489,38.0,60.0,40.0,False,,228.42116185176693,[],"[711, 400]",ColorTask,22.0,38.0,,,HRV,HRV_0295,2022-11-30 21:05:30
,wl-rdm,46,150386,0.0-6.38-0.38,0.0,47.0,,,,,,,[],,,,,,73.6,1.0,i,1.0,True,564.2000000476837,34.0,60.0,40.0,False,,366.75944848366396,[],"[711, 400]",ColorTask,23.0,39.0,,,HRV,HRV_0295,2022-11-30 21:05:30
,wl-rdm,47,152536,0.0-6.39-0.39,0.0,48.0,,,,,,,[],,,,,,56.4,0.0,u,0.0,True,852.7999999523163,52.0,60.0,40.0,False,,208.1025842788592,[],"[711, 400]",ColorTask,24.0,40.0,,,HRV,HRV_0295,2022-11-30 21:05:30
,wl-rdm,48,155202,0.0-6.40-0.40,0.0,49.0,,,,,,,[],,,,,,56.4,1.0,i,1.0,True,1282.6000000238419,77.0,60.0,40.0,False,,303.22109556554466,[],"[711, 400]",ColorTask,25.0,41.0,,,HRV,HRV_0295,2022-11-30 21:05:30
,wl-rdm,49,157453,0.0-6.41-0.41,0.0,50.0,,,,,,,[],,,,,,56.4,0.0,u,0.0,True,934.3000000715256,57.0,60.0,40.0,False,,243.92025999505398,[],"[711, 400]",ColorTask,26.0,42.0,,,HRV,HRV_0295,2022-11-30 21:05:30
,wl-rdm,50,159670,0.0-6.42-0.42,0.0,51.0,,,,,,,[],,,,,,87.9,1.0,i,1.0,True,828.1000000238419,50.0,60.0,40.0,False,,324.64316014380216,[],"[711, 400]",ColorTask,27.0,43.0,,,HRV,HRV_0295,2022-11-30 21:05:30
,wl-rdm,51,161686,0.0-6.43-0.43,0.0,52.0,,,,,,,[],,,,,,87.9,0.0,u,0.0,True,712.1000000238419,43.0,60.0,40.0,False,,244.92456531733055,[],"[711, 400]",ColorTask,28.0,44.0,,,HRV,HRV_0295,2022-11-30 21:05:30
,wl-rdm,52,163619,0.0-6.44-0.44,0.0,53.0,,,,,,,[],,,,,,73.6,0.0,u,0.0,True,639.2999999523163,39.0,60.0,40.0,False,,229.23019163101947,[],"[711, 400]",ColorTask,29.0,45.0,,,HRV,HRV_0295,2022-11-30 21:05:30
,wl-rdm,53,165853,0.0-6.45-0.45,0.0,54.0,,,,,,,[],,,,,,50.0,0.0,u,0.0,True,889.5,54.0,60.0,40.0,False,,256.0920799244442,[],"[711, 400]",ColorTask,30.0,46.0,,,HRV,HRV_0295,2022-11-30 21:05:30
,wl-rdm,54,167920,0.0-6.46-0.46,0.0,55.0,,,,,,,[],,,,,,53.2,1.0,u,0.0,False,608.3999999761581,37.0,60.0,40.0,False,,383.5492759629476,[],"[711, 400]",ColorTask,29.0,47.0,,,HRV,HRV_0295,2022-11-30 21:05:30
,wl-rdm,55,171770,0.0-6.47-0.47,0.0,56.0,,,,,,,[],,,,,,56.4,1.0,u,0.0,False,2544.9999998807907,153.0,60.0,40.0,False,,217.49529923223847,[],"[711, 400]",ColorTask,28.0,48.0,,,HRV,HRV_0295,2022-11-30 21:05:30
,wl-rdm,56,174153,0.0-6.48-0.48,0.0,57.0,,,,,,,[],,,,,,50.0,1.0,u,0.0,False,961.1999999284744,58.0,60.0,40.0,False,,339.38250848555083,[],"[711, 400]",ColorTask,27.0,49.0,,,HRV,HRV_0295,2022-11-30 21:05:30
,wl-rdm,57,176353,0.0-6.49-0.49,0.0,58.0,,,,,,,[],,,,,,73.6,0.0,u,0.0,True,860.0,52.0,60.0,40.0,False,,250.0917163688763,[],"[711, 400]",ColorTask,28.0,50.0,,,HRV,HRV_0295,2022-11-30 21:05:30
,wl-rdm,58,178753,0.0-6.50-0.50,0.0,59.0,,,,,,,[],,,,,,62.5,0.0,u,0.0,True,943.8999999761581,57.0,60.0,40.0,False,,377.3061435781202,[],"[711, 400]",ColorTask,29.0,51.0,,,HRV,HRV_0295,2022-11-30 21:05:30
,wl-rdm,59,180803,0.0-6.51-0.51,0.0,60.0,,,,,,,[],,,,,,53.2,0.0,u,0.0,True,715.5,43.0,60.0,40.0,False,,282.99863770732605,[],"[711, 400]",ColorTask,30.0,52.0,,,HRV,HRV_0295,2022-11-30 21:05:30
,wl-rdm,60,183036,0.0-6.52-0.52,0.0,61.0,,,,,,,[],,,,,,53.2,1.0,i,1.0,True,937.5999999046326,57.0,60.0,40.0,False,,201.34120731104184,[],"[711, 400]",ColorTask,31.0,53.0,,,HRV,HRV_0295,2022-11-30 21:05:30
,wl-rdm,61,185087,0.0-6.53-0.53,0.0,62.0,,,,,,,[],,,,,,87.9,0.0,u,0.0,True,684.5999999046326,42.0,60.0,40.0,False,,283.0026783742113,[],"[711, 400]",ColorTask,32.0,54.0,,,HRV,HRV_0295,2022-11-30 21:05:30
,wl-rdm,62,187070,0.0-6.54-0.54,0.0,63.0,,,,,,,[],,,,,,73.6,1.0,i,1.0,True,584.6999999284744,36.0,60.0,40.0,False,,309.07367886095574,[],"[711, 400]",ColorTask,33.0,55.0,,,HRV,HRV_0295,2022-11-30 21:05:30
,wl-rdm,63,189170,0.0-6.55-0.55,0.0,64.0,,,,,,,[],,,,,,62.5,0.0,u,0.0,True,786.1000000238419,48.0,60.0,40.0,False,,226.02213543958396,[],"[711, 400]",ColorTask,34.0,56.0,,,HRV,HRV_0295,2022-11-30 21:05:30
,wl-rdm,64,191037,0.0-6.56-0.56,0.0,65.0,,,,,,,[],,,,,,87.9,1.0,i,1.0,True,598.5,36.0,60.0,40.0,False,,203.11146191858077,[],"[711, 400]",ColorTask,35.0,57.0,,,HRV,HRV_0295,2022-11-30 21:05:30
,wl-rdm,65,193404,0.0-6.57-0.57,0.0,66.0,,,,,,,[],,,,,,50.0,1.0,i,1.0,True,940.3999999761581,57.0,60.0,40.0,False,,351.9414871398772,[],"[711, 400]",ColorTask,36.0,58.0,,,HRV,HRV_0295,2022-11-30 21:05:30
,wl-rdm,66,195503,0.0-6.58-0.58,0.0,67.0,,,,,,,[],,,,,,73.6,0.0,u,0.0,True,652.7000000476837,40.0,60.0,40.0,False,,379.0707982621742,[],"[711, 400]",ColorTask,37.0,59.0,,,HRV,HRV_0295,2022-11-30 21:05:30
,wl-rdm,67,197571,0.0-6.59-0.59,0.0,68.0,,,,,,,[],,,,,,56.4,0.0,i,1.0,False,749.7000000476837,45.0,60.0,40.0,False,,253.84959651996547,[],"[711, 400]",ColorTask,36.0,60.0,,,HRV,HRV_0295,2022-11-30 21:05:30
,wl-rdm,68,199838,0.0-6.60-0.60,0.0,69.0,,,,,,,[],,,,,,50.0,0.0,i,1.0,False,936.6000000238419,57.0,60.0,40.0,False,,237.973021938593,[],"[711, 400]",ColorTask,35.0,61.0,,,HRV,HRV_0295,2022-11-30 21:05:30
,wl-rdm,69,202354,0.0-6.61-0.61,0.0,70.0,,,,,,,[],,,,,,73.6,1.0,i,1.0,True,1204.7000000476837,73.0,60.0,40.0,False,,222.6718301747772,[],"[711, 400]",ColorTask,36.0,62.0,,,HRV,HRV_0295,2022-11-30 21:05:30
,wl-rdm,70,205287,0.0-6.62-0.62,0.0,71.0,,,,,,,[],,,,,,62.5,0.0,u,0.0,True,1537.0,93.0,60.0,40.0,False,,320.41889686141883,[],"[711, 400]",ColorTask,37.0,63.0,,,HRV,HRV_0295,2022-11-30 21:05:30
,wl-rdm,71,207521,0.0-6.63-0.63,0.0,72.0,,,,,,,[],,,,,,56.4,0.0,u,0.0,True,830.6999999284744,50.0,60.0,40.0,False,,331.9933404915255,[],"[711, 400]",ColorTask,38.0,64.0,,,HRV,HRV_0295,2022-11-30 21:05:30
,wl-rdm,72,210354,0.0-6.64-0.64,0.0,73.0,,,,,,,[],,,,,,56.4,1.0,u,0.0,False,1408.7000000476837,85.0,60.0,40.0,False,,347.5343361875079,[],"[711, 400]",ColorTask,37.0,65.0,,,HRV,HRV_0295,2022-11-30 21:05:30
,wl-rdm,73,212954,0.0-6.65-0.65,0.0,74.0,,,,,,,[],,,,,,56.4,1.0,i,1.0,True,1152.7000000476837,70.0,60.0,40.0,False,,363.55417706119306,[],"[711, 400]",ColorTask,38.0,66.0,,,HRV,HRV_0295,2022-11-30 21:05:30
,wl-rdm,74,214987,0.0-6.66-0.66,0.0,75.0,,,,,,,[],,,,,,87.9,1.0,i,1.0,True,616.5,37.0,60.0,40.0,False,,358.66934291379994,[],"[711, 400]",ColorTask,39.0,67.0,,,HRV,HRV_0295,2022-11-30 21:05:30
,wl-rdm,75,217121,0.0-6.67-0.67,0.0,76.0,,,,,,,[],,,,,,50.0,0.0,u,0.0,True,778.3999999761581,47.0,60.0,40.0,False,,273.07927887048874,[],"[711, 400]",ColorTask,40.0,68.0,,,HRV,HRV_0295,2022-11-30 21:05:30
,wl-rdm,76,219404,0.0-6.68-0.68,0.0,77.0,,,,,,,[],,,,,,53.2,0.0,u,0.0,True,891.0,54.0,60.0,40.0,False,,313.840503506635,[],"[711, 400]",ColorTask,41.0,69.0,,,HRV,HRV_0295,2022-11-30 21:05:30
,wl-rdm,77,221887,0.0-6.69-0.69,0.0,78.0,,,,,,,[],,,,,,53.2,1.0,i,1.0,True,1058.5,64.0,60.0,40.0,False,,349.0744724618801,[],"[711, 400]",ColorTask,42.0,70.0,,,HRV,HRV_0295,2022-11-30 21:05:30
,wl-rdm,78,224154,0.0-6.70-0.70,0.0,79.0,,,,,,,[],,,,,,87.9,0.0,u,0.0,True,900.5,55.0,60.0,40.0,False,,268.8568081690117,[],"[711, 400]",ColorTask,43.0,71.0,,,HRV,HRV_0295,2022-11-30 21:05:30
,wl-rdm,79,226204,0.0-6.71-0.71,0.0,80.0,,,,,,,[],,,,,,62.5,1.0,i,1.0,True,742.7999999523163,45.0,60.0,40.0,False,,238.06373205270387,[],"[711, 400]",ColorTask,44.0,72.0,,,HRV,HRV_0295,2022-11-30 21:05:30
,wl-rdm,80,228571,0.0-6.72-0.72,0.0,81.0,,,,,,,[],,,,,,50.0,0.0,u,0.0,True,1031.6000000238419,62.0,60.0,40.0,False,,274.2791857304064,[],"[711, 400]",ColorTask,45.0,73.0,,,HRV,HRV_0295,2022-11-30 21:05:30
,wl-rdm,81,230771,0.0-6.73-0.73,0.0,82.0,,,,,,,[],,,,,,73.6,0.0,u,0.0,True,735.4000000953674,45.0,60.0,40.0,False,,390.87476974286835,[],"[711, 400]",ColorTask,46.0,74.0,,,HRV,HRV_0295,2022-11-30 21:05:30
,wl-rdm,82,232772,0.0-6.74-0.74,0.0,83.0,,,,,,,[],,,,,,87.9,1.0,i,1.0,True,655.8000000715256,40.0,60.0,40.0,False,,258.91478228008964,[],"[711, 400]",ColorTask,47.0,75.0,,,HRV,HRV_0295,2022-11-30 21:05:30
,wl-rdm,83,235121,0.0-6.75-0.75,0.0,84.0,,,,,,,[],,,,,,62.5,1.0,i,1.0,True,1027.3999999761581,62.0,60.0,40.0,False,,238.68673504525944,[],"[711, 400]",ColorTask,48.0,76.0,,,HRV,HRV_0295,2022-11-30 21:05:30
,wl-rdm,84,237171,0.0-6.76-0.76,0.0,85.0,,,,,,,[],,,,,,73.6,0.0,u,0.0,True,664.7000000476837,40.0,60.0,40.0,False,,324.5383142107735,[],"[711, 400]",ColorTask,49.0,77.0,,,HRV,HRV_0295,2022-11-30 21:05:30
,wl-rdm,85,239054,0.0-6.77-0.77,0.0,86.0,,,,,,,[],,,,,,53.2,1.0,i,1.0,True,581.8000000715256,35.0,60.0,40.0,False,,243.66268891452387,[],"[711, 400]",ColorTask,50.0,78.0,,,HRV,HRV_0295,2022-11-30 21:05:30
,wl-rdm,86,241488,0.0-6.78-0.78,0.0,87.0,,,,,,,[],,,,,,53.2,0.0,i,1.0,False,1036.6999999284744,63.0,60.0,40.0,False,,330.4668323236417,[],"[711, 400]",ColorTask,49.0,79.0,,,HRV,HRV_0295,2022-11-30 21:05:30
,wl-rdm,87,243621,0.0-6.79-0.79,0.0,88.0,,,,,,,[],,,,,,62.5,1.0,i,1.0,True,843.6000000238419,51.0,60.0,40.0,False,,211.5859464622463,[],"[711, 400]",ColorTask,50.0,80.0,,,HRV,HRV_0295,2022-11-30 21:05:30
,wl-rdm,88,245688,0.0-6.80-0.80,0.0,89.0,,,,,,,[],,,,,,56.4,0.0,i,1.0,False,629.3999999761581,38.0,60.0,40.0,False,,367.1298743316121,[],"[711, 400]",ColorTask,49.0,81.0,,,HRV,HRV_0295,2022-11-30 21:05:30
,wl-rdm,89,248839,0.0-6.81-0.81,0.0,90.0,,,,,,,[],,,,,,53.2,1.0,i,1.0,True,1880.5,113.0,60.0,40.0,False,,202.64508858089954,[],"[711, 400]",ColorTask,50.0,82.0,,,HRV,HRV_0295,2022-11-30 21:05:30
,wl-rdm,90,251005,0.0-6.82-0.82,0.0,91.0,,,,,,,[],,,,,,62.5,0.0,u,0.0,True,852.7000000476837,52.0,60.0,40.0,False,,224.87885693758363,[],"[711, 400]",ColorTask,51.0,83.0,,,HRV,HRV_0295,2022-11-30 21:05:30
,wl-rdm,91,252971,0.0-6.83-0.83,0.0,92.0,,,,,,,[],,,,,,73.6,1.0,i,1.0,True,675.6000000238419,41.0,60.0,40.0,False,,222.94771931307176,[],"[711, 400]",ColorTask,52.0,84.0,,,HRV,HRV_0295,2022-11-30 21:05:30
,wl-rdm,92,255105,0.0-6.84-0.84,0.0,93.0,,,,,,,[],,,,,,87.9,0.0,u,0.0,True,733.5,45.0,60.0,40.0,False,,325.75135465652187,[],"[711, 400]",ColorTask,53.0,85.0,,,HRV,HRV_0295,2022-11-30 21:05:30
,wl-rdm,93,257239,0.0-6.85-0.85,0.0,94.0,,,,,,,[],,,,,,73.6,1.0,i,1.0,True,789.3999999761581,48.0,60.0,40.0,False,,280.7872541260598,[],"[711, 400]",ColorTask,54.0,86.0,,,HRV,HRV_0295,2022-11-30 21:05:30
,wl-rdm,94,259472,0.0-6.86-0.86,0.0,95.0,,,,,,,[],,,,,,53.2,0.0,i,1.0,False,935.3000000715256,57.0,60.0,40.0,False,,220.19935492725696,[],"[711, 400]",ColorTask,53.0,87.0,,,HRV,HRV_0295,2022-11-30 21:05:30
,wl-rdm,95,261989,0.0-6.87-0.87,0.0,96.0,,,,,,,[],,,,,,50.0,0.0,u,0.0,True,1214.5999999046326,73.0,60.0,40.0,False,,247.52981240296359,[],"[711, 400]",ColorTask,54.0,88.0,,,HRV,HRV_0295,2022-11-30 21:05:30
,wl-rdm,96,264222,0.0-6.88-0.88,0.0,97.0,,,,,,,[],,,,,,62.5,1.0,i,1.0,True,854.2999999523163,52.0,60.0,40.0,False,,286.18015300225284,[],"[711, 400]",ColorTask,55.0,89.0,,,HRV,HRV_0295,2022-11-30 21:05:30
,wl-rdm,97,266288,0.0-6.89-0.89,0.0,98.0,,,,,,,[],,,,,,50.0,1.0,i,1.0,True,772.5999999046326,47.0,60.0,40.0,False,,226.58695548303152,[],"[711, 400]",ColorTask,56.0,90.0,,,HRV,HRV_0295,2022-11-30 21:05:30
,wl-rdm,98,268355,0.0-6.90-0.90,0.0,99.0,,,,,,,[],,,,,,87.9,0.0,u,0.0,True,741.2999999523163,45.0,60.0,40.0,False,,235.24712714863634,[],"[711, 400]",ColorTask,57.0,91.0,,,HRV,HRV_0295,2022-11-30 21:05:30
,wl-rdm,99,270772,0.0-6.91-0.91,0.0,100.0,,,,,,,[],,,,,,53.2,0.0,u,0.0,True,959.0,58.0,60.0,40.0,False,,381.3747112953951,[],"[711, 400]",ColorTask,58.0,92.0,,,HRV,HRV_0295,2022-11-30 21:05:30
,wl-rdm,100,274023,0.0-6.92-0.92,0.0,101.0,,,,,,,[],,,,,,50.0,0.0,i,1.0,False,1939.7999999523163,117.0,60.0,40.0,False,,247.51423171981529,[],"[711, 400]",ColorTask,57.0,93.0,,,HRV,HRV_0295,2022-11-30 21:05:30
,wl-rdm,101,276489,0.0-6.93-0.93,0.0,102.0,,,,,,,[],,,,,,56.4,0.0,u,0.0,True,1037.8000000715256,63.0,60.0,40.0,False,,333.52822579620647,[],"[711, 400]",ColorTask,58.0,94.0,,,HRV,HRV_0295,2022-11-30 21:05:30
,wl-rdm,102,279389,0.0-6.94-0.94,0.0,103.0,,,,,,,[],,,,,,50.0,1.0,u,0.0,False,1542.0,93.0,60.0,40.0,False,,283.1441859254453,[],"[711, 400]",ColorTask,57.0,95.0,,,HRV,HRV_0295,2022-11-30 21:05:30
,wl-rdm,103,282373,0.0-6.95-0.95,0.0,104.0,,,,,,,[],,,,,,53.2,0.0,u,0.0,True,1647.5,99.0,60.0,40.0,False,,276.86618802655465,[],"[711, 400]",ColorTask,58.0,96.0,,,HRV,HRV_0295,2022-11-30 21:05:30
,wl-rdm,104,284340,0.0-6.96-0.96,0.0,105.0,,,,,,,[],,,,,,87.9,0.0,u,0.0,True,684.1999999284744,42.0,60.0,40.0,False,,212.7655638068139,[],"[711, 400]",ColorTask,59.0,97.0,,,HRV,HRV_0295,2022-11-30 21:05:30
,wl-rdm,105,287922,0.0-6.97-0.97,0.0,106.0,,,,,,,[],,,,,,62.5,1.0,i,1.0,True,2132.3000000715256,128.0,60.0,40.0,False,,390.9753504661559,[],"[711, 400]",ColorTask,60.0,98.0,,,HRV,HRV_0295,2022-11-30 21:05:30
,wl-rdm,106,289923,0.0-6.98-0.98,0.0,107.0,,,,,,,[],,,,,,53.2,0.0,u,0.0,True,715.7000000476837,43.0,60.0,40.0,False,,229.45080136215697,[],"[711, 400]",ColorTask,61.0,99.0,,,HRV,HRV_0295,2022-11-30 21:05:30
,wl-rdm,107,292889,0.0-6.99-0.99,0.0,108.0,,,,,,,[],,,,,,53.2,1.0,u,0.0,False,1607.2000000476837,97.0,60.0,40.0,False,,272.2504677845252,[],"[711, 400]",ColorTask,60.0,100.0,,,HRV,HRV_0295,2022-11-30 21:05:30
,wl-rdm,108,295323,0.0-6.100-0.100,0.0,109.0,,,,,,,[],,,,,,50.0,1.0,u,0.0,False,1036.8000000715256,63.0,60.0,40.0,False,,301.6154700901242,[],"[711, 400]",ColorTask,59.0,101.0,,,HRV,HRV_0295,2022-11-30 21:05:30
,wl-rdm,109,297406,0.0-6.101-0.101,0.0,110.0,,,,,,,[],,,,,,56.4,0.0,u,0.0,True,781.8000000715256,47.0,60.0,40.0,False,,246.7477199003595,[],"[711, 400]",ColorTask,60.0,102.0,,,HRV,HRV_0295,2022-11-30 21:05:30
,wl-rdm,110,299539,0.0-6.102-0.102,0.0,111.0,,,,,,,[],,,,,,62.5,0.0,u,0.0,True,684.0999999046326,42.0,60.0,40.0,False,,366.5949676497721,[],"[711, 400]",ColorTask,61.0,103.0,,,HRV,HRV_0295,2022-11-30 21:05:30
,wl-rdm,111,302773,0.0-6.103-0.103,0.0,112.0,,,,,,,[],,,,,,53.2,0.0,u,0.0,True,1870.1000000238419,113.0,60.0,40.0,False,,294.7001169774056,[],"[711, 400]",ColorTask,62.0,104.0,,,HRV,HRV_0295,2022-11-30 21:05:30
,wl-rdm,112,304757,0.0-6.104-0.104,0.0,113.0,,,,,,,[],,,,,,73.6,0.0,u,0.0,True,694.9000000953674,42.0,60.0,40.0,False,,207.14402021829676,[],"[711, 400]",ColorTask,63.0,105.0,,,HRV,HRV_0295,2022-11-30 21:05:30
,wl-rdm,113,306923,0.0-6.105-0.105,0.0,114.0,,,,,,,[],,,,,,73.6,0.0,u,0.0,True,879.7999999523163,53.0,60.0,40.0,False,,213.47921492640552,[],"[711, 400]",ColorTask,64.0,106.0,,,HRV,HRV_0295,2022-11-30 21:05:30
,wl-rdm,114,310106,0.0-6.106-0.106,0.0,115.0,,,,,,,[],,,,,,50.0,0.0,u,0.0,True,1879.1000000238419,113.0,60.0,40.0,False,,220.22782232877722,[],"[711, 400]",ColorTask,65.0,107.0,,,HRV,HRV_0295,2022-11-30 21:05:30
,wl-rdm,115,311990,0.0-6.107-0.107,0.0,116.0,,,,,,,[],,,,,,87.9,1.0,i,1.0,True,569.8000000715256,35.0,60.0,40.0,False,,243.0147716387858,[],"[711, 400]",ColorTask,66.0,108.0,,,HRV,HRV_0295,2022-11-30 21:05:30
,wl-html-keyboard-response,116,321547,0.0-7.0-0.0,1.0,117.0,,,,,,,,7541.800000071526,1.0,0,,,,,,,,,,,,,,,,,,,,,,HRV,HRV_0295,2022-11-30 21:05:30
,wl-rdm,117,323773,0.0-8.0-0.0,1.0,118.0,,,,,,,[],,,,,,53.2,0.0,u,0.0,True,826.0999999046326,50.0,60.0,40.0,False,,329.9922885689404,[],"[711, 400]",ColorTask,67.0,1.0,,,HRV,HRV_0295,2022-11-30 21:05:30
,wl-rdm,118,325724,0.0-8.1-0.1,1.0,119.0,,,,,,,[],,,,,,87.9,1.0,i,1.0,True,581.6000000238419,35.0,60.0,40.0,False,,311.4241404166457,[],"[711, 400]",ColorTask,68.0,2.0,,,HRV,HRV_0295,2022-11-30 21:05:30
,wl-rdm,119,327923,0.0-8.2-0.2,1.0,120.0,,,,,,,[],,,,,,62.5,0.0,u,0.0,True,887.5,54.0,60.0,40.0,False,,233.4397350070718,[],"[711, 400]",ColorTask,69.0,3.0,,,HRV,HRV_0295,2022-11-30 21:05:30
,wl-rdm,120,329840,0.0-8.3-0.3,1.0,121.0,,,,,,,[],,,,,,87.9,1.0,i,1.0,True,632.0,38.0,60.0,40.0,False,,220.6327031970357,[],"[711, 400]",ColorTask,70.0,4.0,,,HRV,HRV_0295,2022-11-30 21:05:30
,wl-rdm,121,332023,0.0-8.4-0.4,1.0,122.0,,,,,,,[],,,,,,73.6,1.0,i,1.0,True,735.7999999523163,45.0,60.0,40.0,False,,354.45580516125915,[],"[711, 400]",ColorTask,71.0,5.0,,,HRV,HRV_0295,2022-11-30 21:05:30
,wl-rdm,122,335357,0.0-8.5-0.5,1.0,123.0,,,,,,,[],,,,,,56.4,1.0,u,0.0,False,2039.1000000238419,123.0,60.0,40.0,False,,211.97856371077694,[],"[711, 400]",ColorTask,70.0,6.0,,,HRV,HRV_0295,2022-11-30 21:05:30
,wl-rdm,123,337556,0.0-8.6-0.6,1.0,124.0,,,,,,,[],,,,,,62.5,1.0,i,1.0,True,837.0,51.0,60.0,40.0,False,,267.0419076031277,[],"[711, 400]",ColorTask,71.0,7.0,,,HRV,HRV_0295,2022-11-30 21:05:30
,wl-rdm,124,339557,0.0-8.7-0.7,1.0,125.0,,,,,,,[],,,,,,73.6,1.0,i,1.0,True,662.7999999523163,40.0,60.0,40.0,False,,275.62064683892476,[],"[711, 400]",ColorTask,72.0,8.0,,,HRV,HRV_0295,2022-11-30 21:05:30
,wl-rdm,125,341706,0.0-8.8-0.8,1.0,126.0,,,,,,,[],,,,,,53.2,1.0,i,1.0,True,845.3999999761581,51.0,60.0,40.0,False,,228.7539305503139,[],"[711, 400]",ColorTask,73.0,9.0,,,HRV,HRV_0295,2022-11-30 21:05:30
,wl-rdm,126,344006,0.0-8.9-0.9,1.0,127.0,,,,,,,[],,,,,,50.0,0.0,u,0.0,True,1014.3000000715256,61.0,60.0,40.0,False,,209.18351438055743,[],"[711, 400]",ColorTask,74.0,10.0,,,HRV,HRV_0295,2022-11-30 21:05:30
,wl-rdm,127,346274,0.0-8.10-0.10,1.0,128.0,,,,,,,[],,,,,,56.4,1.0,i,1.0,True,911.1000000238419,55.0,60.0,40.0,False,,297.0541018088578,[],"[711, 400]",ColorTask,75.0,11.0,,,HRV,HRV_0295,2022-11-30 21:05:30
,wl-rdm,128,349490,0.0-8.11-0.11,1.0,129.0,,,,,,,[],,,,,,53.2,0.0,u,0.0,True,1811.3000000715256,109.0,60.0,40.0,False,,339.18333073237807,[],"[711, 400]",ColorTask,76.0,12.0,,,HRV,HRV_0295,2022-11-30 21:05:30
,wl-rdm,129,352123,0.0-8.12-0.12,1.0,130.0,,,,,,,[],,,,,,56.4,1.0,u,0.0,False,1220.2000000476837,74.0,60.0,40.0,False,,325.6126989423898,[],"[711, 400]",ColorTask,75.0,13.0,,,HRV,HRV_0295,2022-11-30 21:05:30
,wl-rdm,130,354124,0.0-8.13-0.13,1.0,131.0,,,,,,,[],,,,,,56.4,0.0,u,0.0,True,704.5999999046326,43.0,60.0,40.0,False,,204.32555124185922,[],"[711, 400]",ColorTask,76.0,14.0,,,HRV,HRV_0295,2022-11-30 21:05:30
,wl-rdm,131,356107,0.0-8.14-0.14,1.0,132.0,,,,,,,[],,,,,,87.9,0.0,u,0.0,True,645.0,39.0,60.0,40.0,False,,254.6770317522695,[],"[711, 400]",ColorTask,77.0,15.0,,,HRV,HRV_0295,2022-11-30 21:05:30
,wl-rdm,132,358024,0.0-8.15-0.15,1.0,133.0,,,,,,,[],,,,,,87.9,0.0,u,0.0,True,622.1000000238419,38.0,60.0,40.0,False,,224.2123732439633,[],"[711, 400]",ColorTask,78.0,16.0,,,HRV,HRV_0295,2022-11-30 21:05:30
,wl-rdm,133,360591,0.0-8.16-0.16,1.0,134.0,,,,,,,[],,,,,,53.2,1.0,u,0.0,False,1283.2999999523163,77.0,60.0,40.0,False,,216.09143022798898,[],"[711, 400]",ColorTask,77.0,17.0,,,HRV,HRV_0295,2022-11-30 21:05:30
,wl-rdm,134,362657,0.0-8.17-0.17,1.0,135.0,,,,,,,[],,,,,,50.0,1.0,u,0.0,False,775.0000001192093,47.0,60.0,40.0,False,,231.65227285135649,[],"[711, 400]",ColorTask,76.0,18.0,,,HRV,HRV_0295,2022-11-30 21:05:30
,wl-rdm,135,365408,0.0-8.18-0.18,1.0,136.0,,,,,,,[],,,,,,87.9,1.0,i,1.0,True,1318.7000000476837,80.0,60.0,40.0,False,,339.1625716908956,[],"[711, 400]",ColorTask,77.0,19.0,,,HRV,HRV_0295,2022-11-30 21:05:30
,wl-rdm,136,368007,0.0-8.19-0.19,1.0,137.0,,,,,,,[],,,,,,56.4,0.0,u,0.0,True,1257.3999999761581,76.0,60.0,40.0,False,,283.654760153937,[],"[711, 400]",ColorTask,78.0,20.0,,,HRV,HRV_0295,2022-11-30 21:05:30
,wl-rdm,137,370558,0.0-8.20-0.20,1.0,138.0,,,,,,,[],,,,,,62.5,1.0,u,0.0,False,1150.0,69.0,60.0,40.0,False,,327.280239108114,[],"[711, 400]",ColorTask,77.0,21.0,,,HRV,HRV_0295,2022-11-30 21:05:30
,wl-rdm,138,372724,0.0-8.21-0.21,1.0,139.0,,,,,,,[],,,,,,56.4,0.0,u,0.0,True,853.1999999284744,52.0,60.0,40.0,False,,225.51878624326616,[],"[711, 400]",ColorTask,78.0,22.0,,,HRV,HRV_0295,2022-11-30 21:05:30
,wl-rdm,139,374574,0.0-8.22-0.22,1.0,140.0,,,,,,,[],,,,,,87.9,1.0,i,1.0,True,575.9000000953674,35.0,60.0,40.0,False,,210.51516140806865,[],"[711, 400]",ColorTask,79.0,23.0,,,HRV,HRV_0295,2022-11-30 21:05:30
,wl-rdm,140,376574,0.0-8.23-0.23,1.0,141.0,,,,,,,[],,,,,,73.6,0.0,u,0.0,True,712.9999998807907,43.0,60.0,40.0,False,,223.1476721081331,[],"[711, 400]",ColorTask,80.0,24.0,,,HRV,HRV_0295,2022-11-30 21:05:30
,wl-rdm,141,378608,0.0-8.24-0.24,1.0,142.0,,,,,,,[],,,,,,50.0,1.0,i,1.0,True,617.5,38.0,60.0,40.0,False,,322.0318066004306,[],"[711, 400]",ColorTask,81.0,25.0,,,HRV,HRV_0295,2022-11-30 21:05:30
,wl-rdm,142,380624,0.0-8.25-0.25,1.0,143.0,,,,,,,[],,,,,,73.6,0.0,u,0.0,True,718.1000000238419,44.0,60.0,40.0,False,,221.68021926571737,[],"[711, 400]",ColorTask,82.0,26.0,,,HRV,HRV_0295,2022-11-30 21:05:30
,wl-rdm,143,382674,0.0-8.26-0.26,1.0,144.0,,,,,,,[],,,,,,50.0,1.0,u,0.0,False,704.1999999284744,43.0,60.0,40.0,False,,279.3997102536646,[],"[711, 400]",ColorTask,81.0,27.0,,,HRV,HRV_0295,2022-11-30 21:05:30
,wl-rdm,144,386225,0.0-8.27-0.27,1.0,145.0,,,,,,,[],,,,,,73.6,0.0,u,0.0,True,2098.2999999523163,126.0,60.0,40.0,False,,399.8280733976502,[],"[711, 400]",ColorTask,82.0,28.0,,,HRV,HRV_0295,2022-11-30 21:05:30
,wl-rdm,145,388341,0.0-8.28-0.28,1.0,146.0,,,,,,,[],,,,,,87.9,1.0,i,1.0,True,684.5,42.0,60.0,40.0,False,,334.5982616646074,[],"[711, 400]",ColorTask,83.0,29.0,,,HRV,HRV_0295,2022-11-30 21:05:30
,wl-rdm,146,390875,0.0-8.29-0.29,1.0,147.0,,,,,,,[],,,,,,62.5,1.0,i,1.0,True,1134.2000000476837,69.0,60.0,40.0,False,,317.94954070271916,[],"[711, 400]",ColorTask,84.0,30.0,,,HRV,HRV_0295,2022-11-30 21:05:30
,wl-rdm,147,393042,0.0-8.30-0.30,1.0,148.0,,,,,,,[],,,,,,53.2,0.0,u,0.0,True,758.3999999761581,46.0,60.0,40.0,False,,332.09364508088186,[],"[711, 400]",ColorTask,85.0,31.0,,,HRV,HRV_0295,2022-11-30 21:05:30
,wl-rdm,148,394925,0.0-8.31-0.31,1.0,149.0,,,,,,,[],,,,,,87.9,1.0,i,1.0,True,518.7999999523163,32.0,60.0,40.0,False,,269.4261403531403,[],"[711, 400]",ColorTask,86.0,32.0,,,HRV,HRV_0295,2022-11-30 21:05:30
,wl-rdm,149,397025,0.0-8.32-0.32,1.0,150.0,,,,,,,[],,,,,,87.9,0.0,u,0.0,True,713.0999999046326,43.0,60.0,40.0,False,,333.15687904060314,[],"[711, 400]",ColorTask,87.0,33.0,,,HRV,HRV_0295,2022-11-30 21:05:30
,wl-rdm,150,399025,0.0-8.33-0.33,1.0,151.0,,,,,,,[],,,,,,53.2,0.0,u,0.0,True,579.2999999523163,35.0,60.0,40.0,False,,341.82693853256615,[],"[711, 400]",ColorTask,88.0,34.0,,,HRV,HRV_0295,2022-11-30 21:05:30
,wl-rdm,151,401063,0.0-8.34-0.34,1.0,152.0,,,,,,,[],,,,,,73.6,0.0,u,0.0,True,608.9000000953674,37.0,60.0,40.0,False,,361.83434966303884,[],"[711, 400]",ColorTask,89.0,35.0,,,HRV,HRV_0295,2022-11-30 21:05:30
,wl-rdm,152,403042,0.0-8.35-0.35,1.0,153.0,,,,,,,[],,,,,,50.0,0.0,u,0.0,True,547.9000000953674,33.0,60.0,40.0,False,,368.2675992882922,[],"[711, 400]",ColorTask,90.0,36.0,,,HRV,HRV_0295,2022-11-30 21:05:30
,wl-rdm,153,405209,0.0-8.36-0.36,1.0,154.0,,,,,,,[],,,,,,56.4,1.0,i,1.0,True,881.6999999284744,53.0,60.0,40.0,False,,223.11084649776666,[],"[711, 400]",ColorTask,91.0,37.0,,,HRV,HRV_0295,2022-11-30 21:05:30
,wl-rdm,154,407225,0.0-8.37-0.37,1.0,155.0,,,,,,,[],,,,,,73.6,0.0,u,0.0,True,706.1000000238419,43.0,60.0,40.0,False,,231.1317756634091,[],"[711, 400]",ColorTask,92.0,38.0,,,HRV,HRV_0295,2022-11-30 21:05:30
,wl-rdm,155,409492,0.0-8.38-0.38,1.0,156.0,,,,,,,[],,,,,,53.2,0.0,u,0.0,True,955.3000000715256,58.0,60.0,40.0,False,,219.22095338265734,[],"[711, 400]",ColorTask,93.0,39.0,,,HRV,HRV_0295,2022-11-30 21:05:30
,wl-rdm,156,411375,0.0-8.39-0.39,1.0,157.0,,,,,,,[],,,,,,87.9,0.0,u,0.0,True,600.6999999284744,37.0,60.0,40.0,False,,205.19454698572443,[],"[711, 400]",ColorTask,94.0,40.0,,,HRV,HRV_0295,2022-11-30 21:05:30
,wl-rdm,157,413492,0.0-8.40-0.40,1.0,158.0,,,,,,,[],,,,,,56.4,1.0,u,0.0,False,787.2999999523163,48.0,60.0,40.0,False,,256.5059461508228,[],"[711, 400]",ColorTask,93.0,41.0,,,HRV,HRV_0295,2022-11-30 21:05:30
,wl-rdm,158,415458,0.0-8.41-0.41,1.0,159.0,,,,,,,[],,,,,,62.5,0.0,u,0.0,True,610.8000000715256,37.0,60.0,40.0,False,,276.15016421521415,[],"[711, 400]",ColorTask,94.0,42.0,,,HRV,HRV_0295,2022-11-30 21:05:30
,wl-rdm,159,418025,0.0-8.42-0.42,1.0,160.0,,,,,,,[],,,,,,50.0,1.0,u,0.0,False,1256.3999999761581,76.0,60.0,40.0,False,,234.00899745229805,[],"[711, 400]",ColorTask,93.0,43.0,,,HRV,HRV_0295,2022-11-30 21:05:30
,wl-rdm,160,420892,0.0-8.43-0.43,1.0,161.0,,,,,,,[],,,,,,56.4,1.0,i,1.0,True,1412.2999999523163,85.0,60.0,40.0,False,,390.3066192698326,[],"[711, 400]",ColorTask,94.0,44.0,,,HRV,HRV_0295,2022-11-30 21:05:30
,wl-rdm,161,423276,0.0-8.44-0.44,1.0,162.0,,,,,,,[],,,,,,62.5,0.0,u,0.0,True,1043.6999999284744,63.0,60.0,40.0,False,,278.336291705215,[],"[711, 400]",ColorTask,95.0,45.0,,,HRV,HRV_0295,2022-11-30 21:05:30
,wl-rdm,162,425259,0.0-8.45-0.45,1.0,163.0,,,,,,,[],,,,,,87.9,0.0,u,0.0,True,652.7000000476837,40.0,60.0,40.0,False,,257.4244273402779,[],"[711, 400]",ColorTask,96.0,46.0,,,HRV,HRV_0295,2022-11-30 21:05:30
,wl-rdm,163,427693,0.0-8.46-0.46,1.0,164.0,,,,,,,[],,,,,,53.2,1.0,u,0.0,False,1111.3999998569489,67.0,60.0,40.0,False,,250.74205820630672,[],"[711, 400]",ColorTask,95.0,47.0,,,HRV,HRV_0295,2022-11-30 21:05:30
,wl-rdm,164,430193,0.0-8.47-0.47,1.0,165.0,,,,,,,[],,,,,,50.0,1.0,i,1.0,True,1091.9999998807907,66.0,60.0,40.0,False,,342.8425754567455,[],"[711, 400]",ColorTask,96.0,48.0,,,HRV,HRV_0295,2022-11-30 21:05:30
,wl-rdm,165,432343,0.0-8.48-0.48,1.0,166.0,,,,,,,[],,,,,,73.6,0.0,u,0.0,True,842.2999999523163,51.0,60.0,40.0,False,,247.99970439016028,[],"[711, 400]",ColorTask,97.0,49.0,,,HRV,HRV_0295,2022-11-30 21:05:30
,wl-rdm,166,435009,0.0-8.49-0.49,1.0,167.0,,,,,,,[],,,,,,50.0,0.0,i,1.0,False,1369.1000000238419,83.0,60.0,40.0,False,,213.9106861382477,[],"[711, 400]",ColorTask,96.0,50.0,,,HRV,HRV_0295,2022-11-30 21:05:30
,wl-rdm,167,437310,0.0-8.50-0.50,1.0,168.0,,,,,,,[],,,,,,53.2,0.0,u,0.0,True,979.6000000238419,59.0,60.0,40.0,False,,250.6164636477479,[],"[711, 400]",ColorTask,97.0,51.0,,,HRV,HRV_0295,2022-11-30 21:05:30
,wl-rdm,168,439842,0.0-8.51-0.51,1.0,169.0,,,,,,,[],,,,,,62.5,1.0,i,1.0,True,1232.0,74.0,60.0,40.0,False,,245.39864985065552,[],"[711, 400]",ColorTask,98.0,52.0,,,HRV,HRV_0295,2022-11-30 21:05:30
,wl-rdm,169,441859,0.0-8.52-0.52,1.0,170.0,,,,,,,[],,,,,,87.9,0.0,u,0.0,True,544.1999999284744,33.0,60.0,40.0,False,,387.92241027320927,[],"[711, 400]",ColorTask,99.0,53.0,,,HRV,HRV_0295,2022-11-30 21:05:30
,wl-rdm,170,444093,0.0-8.53-0.53,1.0,171.0,,,,,,,[],,,,,,56.4,0.0,u,0.0,True,923.6000000238419,56.0,60.0,40.0,False,,233.92163425982937,[],"[711, 400]",ColorTask,100.0,54.0,,,HRV,HRV_0295,2022-11-30 21:05:30
,wl-rdm,171,445992,0.0-8.54-0.54,1.0,172.0,,,,,,,[],,,,,,73.6,1.0,i,1.0,True,612.8000000715256,37.0,60.0,40.0,False,,223.36889676827644,[],"[711, 400]",ColorTask,101.0,55.0,,,HRV,HRV_0295,2022-11-30 21:05:30
,wl-rdm,172,448060,0.0-8.55-0.55,1.0,173.0,,,,,,,[],,,,,,73.6,0.0,u,0.0,True,779.1999999284744,47.0,60.0,40.0,False,,210.22996493839577,[],"[711, 400]",ColorTask,102.0,56.0,,,HRV,HRV_0295,2022-11-30 21:05:30
,wl-rdm,173,450092,0.0-8.56-0.56,1.0,174.0,,,,,,,[],,,,,,87.9,0.0,u,0.0,True,594.6999999284744,36.0,60.0,40.0,False,,352.6369512614143,[],"[711, 400]",ColorTask,103.0,57.0,,,HRV,HRV_0295,2022-11-30 21:05:30
,wl-rdm,174,452709,0.0-8.57-0.57,1.0,175.0,,,,,,,[],,,,,,62.5,1.0,u,0.0,False,1159.6999999284744,70.0,60.0,40.0,False,,381.5024536457813,[],"[711, 400]",ColorTask,102.0,58.0,,,HRV,HRV_0295,2022-11-30 21:05:30
,wl-rdm,175,454743,0.0-8.58-0.58,1.0,176.0,,,,,,,[],,,,,,56.4,0.0,u,0.0,True,697.0,42.0,60.0,40.0,False,,276.71218157572474,[],"[711, 400]",ColorTask,103.0,59.0,,,HRV,HRV_0295,2022-11-30 21:05:30
,wl-rdm,176,456776,0.0-8.59-0.59,1.0,177.0,,,,,,,[],,,,,,53.2,1.0,u,0.0,False,679.0,41.0,60.0,40.0,False,,281.938204652873,[],"[711, 400]",ColorTask,102.0,60.0,,,HRV,HRV_0295,2022-11-30 21:05:30
,wl-rdm,177,459809,0.0-8.60-0.60,1.0,178.0,,,,,,,[],,,,,,50.0,1.0,u,0.0,False,1747.3000000715256,105.0,60.0,40.0,False,,214.79710199176782,[],"[711, 400]",ColorTask,101.0,61.0,,,HRV,HRV_0295,2022-11-30 21:05:30
,wl-rdm,178,461960,0.0-8.61-0.61,1.0,179.0,,,,,,,[],,,,,,56.4,1.0,i,1.0,True,685.5,42.0,60.0,40.0,False,,390.3987632453136,[],"[711, 400]",ColorTask,102.0,62.0,,,HRV,HRV_0295,2022-11-30 21:05:30
,wl-rdm,179,463193,0.0-8.62-0.62,1.0,179.0,,,,,,,[],,,,,,87.9,1.0,i,,,700.3999999761581,0.0,60.0,40.0,True,too_early ,210.706344095138,[],"[711, 400]",ColorTask,101.0,63.0,,,HRV,HRV_0295,2022-11-30 21:05:30
,wl-rdm,180,466142,0.0-8.63-0.63,1.0,180.0,,,,,,,[],,,,,,73.6,1.0,i,1.0,True,1553.6000000238419,94.0,60.0,40.0,False,,301.6134844492554,[],"[711, 400]",ColorTask,102.0,64.0,,,HRV,HRV_0295,2022-11-30 21:05:30
,wl-rdm,181,469059,0.0-8.64-0.64,1.0,181.0,,,,,,,[],,,,,,62.5,1.0,i,1.0,True,1504.3000000715256,91.0,60.0,40.0,False,,318.37812990194925,[],"[711, 400]",ColorTask,103.0,65.0,,,HRV,HRV_0295,2022-11-30 21:05:30
,wl-rdm,182,471060,0.0-8.65-0.65,1.0,182.0,,,,,,,[],,,,,,73.6,0.0,u,0.0,True,708.7000000476837,43.0,60.0,40.0,False,,226.1288888369166,[],"[711, 400]",ColorTask,104.0,66.0,,,HRV,HRV_0295,2022-11-30 21:05:30
,wl-rdm,183,473093,0.0-8.66-0.66,1.0,183.0,,,,,,,[],,,,,,50.0,0.0,i,1.0,False,657.3999999761581,40.0,60.0,40.0,False,,291.89549179117853,[],"[711, 400]",ColorTask,103.0,67.0,,,HRV,HRV_0295,2022-11-30 21:05:30
,wl-rdm,184,475059,0.0-8.67-0.67,1.0,184.0,,,,,,,[],,,,,,87.9,0.0,u,0.0,True,591.7999999523163,36.0,60.0,40.0,False,,286.2613876686178,[],"[711, 400]",ColorTask,104.0,68.0,,,HRV,HRV_0295,2022-11-30 21:05:30
,wl-rdm,185,477160,0.0-8.68-0.68,1.0,185.0,,,,,,,[],,,,,,53.2,0.0,i,1.0,False,744.6000000238419,45.0,60.0,40.0,False,,279.51164556763797,[],"[711, 400]",ColorTask,103.0,69.0,,,HRV,HRV_0295,2022-11-30 21:05:30
,wl-rdm,186,479027,0.0-8.69-0.69,1.0,186.0,,,,,,,[],,,,,,87.9,1.0,i,1.0,True,553.2999999523163,34.0,60.0,40.0,False,,227.4182776311904,[],"[711, 400]",ColorTask,104.0,70.0,,,HRV,HRV_0295,2022-11-30 21:05:30
,wl-rdm,187,481126,0.0-8.70-0.70,1.0,187.0,,,,,,,[],,,,,,53.2,0.0,u,0.0,True,789.2999999523163,48.0,60.0,40.0,False,,221.51546073100084,[],"[711, 400]",ColorTask,105.0,71.0,,,HRV,HRV_0295,2022-11-30 21:05:30
,wl-rdm,188,483426,0.0-8.71-0.71,1.0,188.0,,,,,,,[],,,,,,56.4,1.0,i,1.0,True,903.6000000238419,55.0,60.0,40.0,False,,314.32760394457375,[],"[711, 400]",ColorTask,106.0,72.0,,,HRV,HRV_0295,2022-11-30 21:05:30
,wl-rdm,189,485393,0.0-8.72-0.72,1.0,189.0,,,,,,,[],,,,,,62.5,1.0,i,1.0,True,680.7999999523163,41.0,60.0,40.0,False,,211.1247965518119,[],"[711, 400]",ColorTask,107.0,73.0,,,HRV,HRV_0295,2022-11-30 21:05:30
,wl-rdm,190,488160,0.0-8.73-0.73,1.0,190.0,,,,,,,[],,,,,,50.0,0.0,u,0.0,True,1318.8999999761581,80.0,60.0,40.0,False,,379.776833043439,[],"[711, 400]",ColorTask,108.0,74.0,,,HRV,HRV_0295,2022-11-30 21:05:30
,wl-rdm,191,490127,0.0-8.74-0.74,1.0,191.0,,,,,,,[],,,,,,73.6,1.0,i,1.0,True,585.8999999761581,36.0,60.0,40.0,False,,306.65823727628106,[],"[711, 400]",ColorTask,109.0,75.0,,,HRV,HRV_0295,2022-11-30 21:05:30
,wl-rdm,192,492393,0.0-8.75-0.75,1.0,192.0,,,,,,,[],,,,,,53.2,1.0,i,1.0,True,924.0,56.0,60.0,40.0,False,,259.8051683327552,[],"[711, 400]",ColorTask,110.0,76.0,,,HRV,HRV_0295,2022-11-30 21:05:30
,wl-rdm,193,494344,0.0-8.76-0.76,1.0,193.0,,,,,,,[],,,,,,62.5,0.0,i,1.0,False,570.7999999523163,35.0,60.0,40.0,False,,299.3489426243944,[],"[711, 400]",ColorTask,109.0,77.0,,,HRV,HRV_0295,2022-11-30 21:05:30
,wl-rdm,194,496477,0.0-8.77-0.77,1.0,194.0,,,,,,,[],,,,,,50.0,1.0,i,1.0,True,815.0,49.0,60.0,40.0,False,,261.7437406075608,[],"[711, 400]",ColorTask,110.0,78.0,,,HRV,HRV_0295,2022-11-30 21:05:30
,wl-rdm,195,498444,0.0-8.78-0.78,1.0,195.0,,,,,,,[],,,,,,56.4,0.0,i,1.0,False,599.2000000476837,36.0,60.0,40.0,False,,307.886201668869,[],"[711, 400]",ColorTask,109.0,79.0,,,HRV,HRV_0295,2022-11-30 21:05:30
,wl-rdm,196,501243,0.0-8.79-0.79,1.0,196.0,,,,,,,[],,,,,,53.2,1.0,u,0.0,False,1433.1000000238419,86.0,60.0,40.0,False,,289.7940869165151,[],"[711, 400]",ColorTask,108.0,80.0,,,HRV,HRV_0295,2022-11-30 21:05:30
,wl-rdm,197,504461,0.0-8.80-0.80,1.0,197.0,,,,,,,[],,,,,,50.0,0.0,u,0.0,True,1920.6999999284744,116.0,60.0,40.0,False,,218.26349003824964,[],"[711, 400]",ColorTask,109.0,81.0,,,HRV,HRV_0295,2022-11-30 21:05:30
,wl-rdm,198,506478,0.0-8.81-0.81,1.0,198.0,,,,,,,[],,,,,,87.9,0.0,u,0.0,True,717.0,44.0,60.0,40.0,False,,216.7273040689058,[],"[711, 400]",ColorTask,110.0,82.0,,,HRV,HRV_0295,2022-11-30 21:05:30
,wl-rdm,199,508611,0.0-8.82-0.82,1.0,199.0,,,,,,,[],,,,,,53.2,0.0,i,1.0,False,731.5,44.0,60.0,40.0,False,,344.377635949994,[],"[711, 400]",ColorTask,109.0,83.0,,,HRV,HRV_0295,2022-11-30 21:05:30
,wl-rdm,200,510544,0.0-8.83-0.83,1.0,200.0,,,,,,,[],,,,,,62.5,0.0,u,0.0,True,622.0999999046326,38.0,60.0,40.0,False,,227.21989044954995,[],"[711, 400]",ColorTask,110.0,84.0,,,HRV,HRV_0295,2022-11-30 21:05:30
,wl-rdm,201,512578,0.0-8.84-0.84,1.0,201.0,,,,,,,[],,,,,,56.4,0.0,u,0.0,True,718.5,44.0,60.0,40.0,False,,244.0000699205319,[],"[711, 400]",ColorTask,111.0,85.0,,,HRV,HRV_0295,2022-11-30 21:05:30
,wl-rdm,202,514645,0.0-8.85-0.85,1.0,202.0,,,,,,,[],,,,,,73.6,1.0,i,1.0,True,665.1000000238419,40.0,60.0,40.0,False,,345.09164265163184,[],"[711, 400]",ColorTask,112.0,86.0,,,HRV,HRV_0295,2022-11-30 21:05:30
,wl-rdm,203,516627,0.0-8.86-0.86,1.0,203.0,,,,,,,[],,,,,,73.6,1.0,i,1.0,True,651.7000000476837,40.0,60.0,40.0,False,,263.18126890989055,[],"[711, 400]",ColorTask,113.0,87.0,,,HRV,HRV_0295,2022-11-30 21:05:30
,wl-rdm,204,518828,0.0-8.87-0.87,1.0,204.0,,,,,,,[],,,,,,56.4,0.0,u,0.0,True,865.3999999761581,52.0,60.0,40.0,False,,275.02856724189627,[],"[711, 400]",ColorTask,114.0,88.0,,,HRV,HRV_0295,2022-11-30 21:05:30
,wl-rdm,205,521012,0.0-8.88-0.88,1.0,205.0,,,,,,,[],,,,,,53.2,1.0,i,1.0,True,831.1000000238419,50.0,60.0,40.0,False,,287.2596807273948,[],"[711, 400]",ColorTask,115.0,89.0,,,HRV,HRV_0295,2022-11-30 21:05:30
,wl-rdm,206,522744,0.0-8.89-0.89,1.0,206.0,,,,,,,[],,,,,,62.5,1.0,i,1.0,True,410.60000002384186,25.0,60.0,40.0,False,,241.14912966443367,[],"[711, 400]",ColorTask,116.0,90.0,,,HRV,HRV_0295,2022-11-30 21:05:30
,wl-rdm,207,524944,0.0-8.90-0.90,1.0,207.0,,,,,,,[],,,,,,50.0,0.0,u,0.0,True,754.0,46.0,60.0,40.0,False,,359.3599851309335,[],"[711, 400]",ColorTask,117.0,91.0,,,HRV,HRV_0295,2022-11-30 21:05:30
,wl-rdm,208,527095,0.0-8.91-0.91,1.0,208.0,,,,,,,[],,,,,,62.5,0.0,u,0.0,True,799.4999998807907,48.0,60.0,40.0,False,,285.6654619162945,[],"[711, 400]",ColorTask,118.0,92.0,,,HRV,HRV_0295,2022-11-30 21:05:30
,wl-rdm,209,529045,0.0-8.92-0.92,1.0,209.0,,,,,,,[],,,,,,73.6,1.0,i,1.0,True,636.9000000953674,39.0,60.0,40.0,False,,244.62227246438502,[],"[711, 400]",ColorTask,119.0,93.0,,,HRV,HRV_0295,2022-11-30 21:05:30
,wl-rdm,210,531661,0.0-8.93-0.93,1.0,210.0,,,,,,,[],,,,,,53.2,1.0,u,0.0,False,1303.5,79.0,60.0,40.0,False,,233.67150355705564,[],"[711, 400]",ColorTask,118.0,94.0,,,HRV,HRV_0295,2022-11-30 21:05:30
,wl-rdm,211,534512,0.0-8.94-0.94,1.0,211.0,,,,,,,[],,,,,,53.2,1.0,i,1.0,True,1502.6999999284744,91.0,60.0,40.0,False,,268.2235022268676,[],"[711, 400]",ColorTask,119.0,95.0,,,HRV,HRV_0295,2022-11-30 21:05:30
,wl-rdm,212,536511,0.0-8.95-0.95,1.0,212.0,,,,,,,[],,,,,,73.6,0.0,u,0.0,True,683.7999999523163,42.0,60.0,40.0,False,,243.11804668300442,[],"[711, 400]",ColorTask,120.0,96.0,,,HRV,HRV_0295,2022-11-30 21:05:30
,wl-rdm,213,538678,0.0-8.96-0.96,1.0,213.0,,,,,,,[],,,,,,62.5,1.0,i,1.0,True,713.1000000238419,43.0,60.0,40.0,False,,386.6853504352149,[],"[711, 400]",ColorTask,121.0,97.0,,,HRV,HRV_0295,2022-11-30 21:05:30
,wl-rdm,214,540861,0.0-8.97-0.97,1.0,214.0,,,,,,,[],,,,,,62.5,0.0,u,0.0,True,850.2999999523163,52.0,60.0,40.0,False,,239.7908707573488,[],"[711, 400]",ColorTask,122.0,98.0,,,HRV,HRV_0295,2022-11-30 21:05:30
,wl-rdm,215,542928,0.0-8.98-0.98,1.0,215.0,,,,,,,[],,,,,,50.0,1.0,u,0.0,False,764.6999999284744,46.0,60.0,40.0,False,,239.28835282094326,[],"[711, 400]",ColorTask,121.0,99.0,,,HRV,HRV_0295,2022-11-30 21:05:30
,wl-rdm,216,544845,0.0-8.99-0.99,1.0,216.0,,,,,,,[],,,,,,87.9,1.0,i,1.0,True,647.1000000238419,39.0,60.0,40.0,False,,207.20962054801754,[],"[711, 400]",ColorTask,122.0,100.0,,,HRV,HRV_0295,2022-11-30 21:05:30
,wl-rdm,217,547646,0.0-8.100-0.100,1.0,217.0,,,,,,,[],,,,,,50.0,1.0,i,1.0,True,1345.5,81.0,60.0,40.0,False,,389.9738477761974,[],"[711, 400]",ColorTask,123.0,101.0,,,HRV,HRV_0295,2022-11-30 21:05:30
,wl-rdm,218,549645,0.0-8.101-0.101,1.0,218.0,,,,,,,[],,,,,,50.0,0.0,i,1.0,False,703.7000000476837,43.0,60.0,40.0,False,,224.72200742056205,[],"[711, 400]",ColorTask,122.0,102.0,,,HRV,HRV_0295,2022-11-30 21:05:30
,wl-rdm,219,551829,0.0-8.102-0.102,1.0,219.0,,,,,,,[],,,,,,62.5,0.0,u,0.0,True,775.7999999523163,47.0,60.0,40.0,False,,322.47722118443403,[],"[711, 400]",ColorTask,123.0,103.0,,,HRV,HRV_0295,2022-11-30 21:05:30
,wl-rdm,220,553862,0.0-8.103-0.103,1.0,220.0,,,,,,,[],,,,,,73.6,1.0,i,1.0,True,717.2999999523163,44.0,60.0,40.0,False,,239.53936518576515,[],"[711, 400]",ColorTask,124.0,104.0,,,HRV,HRV_0295,2022-11-30 21:05:30
,wl-rdm,221,556412,0.0-8.104-0.104,1.0,221.0,,,,,,,[],,,,,,56.4,0.0,u,0.0,True,1103.6000000238419,67.0,60.0,40.0,False,,369.1310831963391,[],"[711, 400]",ColorTask,125.0,105.0,,,HRV,HRV_0295,2022-11-30 21:05:30
,wl-rdm,222,558829,0.0-8.105-0.105,1.0,222.0,,,,,,,[],,,,,,62.5,0.0,u,0.0,True,1106.2999999523163,67.0,60.0,40.0,False,,245.29510350432963,[],"[711, 400]",ColorTask,126.0,106.0,,,HRV,HRV_0295,2022-11-30 21:05:30
,wl-rdm,223,561712,0.0-8.106-0.106,1.0,223.0,,,,,,,[],,,,,,50.0,0.0,i,1.0,False,1555.7000000476837,94.0,60.0,40.0,False,,253.0004930138269,[],"[711, 400]",ColorTask,125.0,107.0,,,HRV,HRV_0295,2022-11-30 21:05:30
,wl-rdm,224,564328,0.0-8.107-0.107,1.0,224.0,,,,,,,[],,,,,,56.4,1.0,u,0.0,False,1209.0999999046326,73.0,60.0,40.0,False,,328.6140050746659,[],"[711, 400]",ColorTask,124.0,108.0,,,HRV,HRV_0295,2022-11-30 21:05:30
,wl-rdm,225,566462,0.0-8.108-0.108,1.0,225.0,,,,,,,[],,,,,,87.9,1.0,i,1.0,True,675.1000000238419,41.0,60.0,40.0,False,,368.75175537885633,[],"[711, 400]",ColorTask,125.0,109.0,,,HRV,HRV_0295,2022-11-30 21:05:30
,wl-html-button-response,226,568682,0.0-9.0-0.0,,,,,,,,,,2216.399999976158,,0,,,,,,,,,,,,,,,,,,,,<h3>End of this session. Thank you!</h3><br>,['Close window'],HRV,HRV_0295,2022-11-30 21:05:30
