trialN,stimuli,trialStartTime,trialStartTime_UNIX,stimulus1,stimulus2,stimulus1Bid,stimulus2Bid,delta,selected,rt,rt_UNIX,rt_perfnow,receivedResponse,rsp,trialEndTime,trialDuration,trialEndTime_UNIX,trialDuration_UNIX,exp,subjectId,date
0,"[{'imgObject': {}, 'id': 'olives', 'src': '/static/foodstim60/olives.jpg', 'key': 'u', 'origWidth': 410, 'origHeight': 410, 'width': 410, 'height': 410, 'widthPercent': 0.45, 'rescaleHeight': False, 'trialN': 0, 'loaded': True, 'loadedTime': 3886.600000023842, 'positionName': 'LEFT', 'positionCoords': [272.56, 195], 'bid': 4.95}, {'imgObject': {}, 'id': 'kiwi', 'src': '/static/foodstim60/kiwi.jpg', 'key': 'i', 'origWidth': 410, 'origHeight': 410, 'width': 410, 'height': 410, 'widthPercent': 0.45, 'rescaleHeight': False, 'trialN': 0, 'loaded': True, 'loadedTime': 3917.7999999523163, 'positionName': 'RIGHT', 'positionCoords': [739.44, 195], 'bid': 8.620000000000001}]",4187.799999952316,1669841443406,olives,kiwi,4.95,8.620000000000001,3.670000000000001,kiwi,1874.1000000238419,1875,1874.3999999761581,True,i,6577.899999976158,2390.100000023842,1669841445796,2390,HRV,HRV_0295,2022-11-30 20:55:56
1,"[{'imgObject': {}, 'id': 'cocktailshrimp', 'src': '/static/foodstim60/cocktailshrimp.jpg', 'key': 'u', 'origWidth': 410, 'origHeight': 410, 'width': 410, 'height': 410, 'widthPercent': 0.45, 'rescaleHeight': False, 'trialN': 1, 'loaded': True, 'loadedTime': 3919.600000023842, 'positionName': 'LEFT', 'positionCoords': [272.56, 195], 'bid': 0}, {'imgObject': {}, 'id': 'baked potato', 'src': '/static/foodstim60/baked potato.jpg', 'key': 'i', 'origWidth': 409, 'origHeight': 410, 'width': 409, 'height': 410, 'widthPercent': 0.45, 'rescaleHeight': False, 'trialN': 1, 'loaded': True, 'loadedTime': 3923.899999976158, 'positionName': 'RIGHT', 'positionCoords': [739.44, 195], 'bid': 1.52}]",6578.299999952316,1669841445797,cocktailshrimp,baked potato,0.0,1.52,1.52,baked potato,1066.0,1066,1066.3000000715256,True,i,8153.699999928474,1575.3999999761581,1669841447372,1575,HRV,HRV_0295,2022-11-30 20:55:56
2,"[{'imgObject': {}, 'id': 'avocado', 'src': '/static/foodstim60/avocado.jpg', 'key': 'u', 'origWidth': 409, 'origHeight': 409, 'width': 409, 'height': 409, 'widthPercent': 0.45, 'rescaleHeight': False, 'trialN': 2, 'loaded': True, 'loadedTime': 3925.399999976158, 'positionName': 'LEFT', 'positionCoords': [273.56, 195.5], 'bid': 3.81}, {'imgObject': {}, 'id': 'salad w chicken', 'src': '/static/foodstim60/salad w chicken.jpg', 'key': 'i', 'origWidth': 411, 'origHeight': 411, 'width': 411, 'height': 411, 'widthPercent': 0.45, 'rescaleHeight': False, 'trialN': 2, 'loaded': True, 'loadedTime': 3927.399999976158, 'positionName': 'RIGHT', 'positionCoords': [739.44, 194.5], 'bid': 3.62}]",8154.0,1669841447372,avocado,salad w chicken,3.81,3.62,-0.18999999999999995,avocado,978.5,979,978.7999999523163,True,u,9649.199999928474,1495.1999999284744,1669841448868,1496,HRV,HRV_0295,2022-11-30 20:55:56
3,"[{'imgObject': {}, 'id': 'bagel and cc', 'src': '/static/foodstim60/bagel and cc.jpg', 'key': 'u', 'origWidth': 410, 'origHeight': 410, 'width': 410, 'height': 410, 'widthPercent': 0.45, 'rescaleHeight': False, 'trialN': 3, 'loaded': True, 'loadedTime': 3927.5, 'positionName': 'LEFT', 'positionCoords': [272.56, 195], 'bid': 1.1}, {'imgObject': {}, 'id': 'banana', 'src': '/static/foodstim60/banana.jpg', 'key': 'i', 'origWidth': 410, 'origHeight': 410, 'width': 410, 'height': 410, 'widthPercent': 0.45, 'rescaleHeight': False, 'trialN': 3, 'loaded': True, 'loadedTime': 3929.100000023842, 'positionName': 'RIGHT', 'positionCoords': [739.44, 195], 'bid': 1.84}]",9649.600000023842,1669841448868,bagel and cc,banana,1.1,1.84,0.74,banana,689.8999999761581,690,690.3999999761581,True,i,10860.600000023842,1211.0,1669841450079,1211,HRV,HRV_0295,2022-11-30 20:55:56
4,"[{'imgObject': {}, 'id': 'froot loops w milk', 'src': '/static/foodstim60/froot loops w milk.jpg', 'key': 'u', 'origWidth': 410, 'origHeight': 410, 'width': 410, 'height': 410, 'widthPercent': 0.45, 'rescaleHeight': False, 'trialN': 4, 'loaded': True, 'loadedTime': 3931.5, 'positionName': 'LEFT', 'positionCoords': [272.56, 195], 'bid': 2.38}, {'imgObject': {}, 'id': 'salmon', 'src': '/static/foodstim60/salmon.jpg', 'key': 'i', 'origWidth': 410, 'origHeight': 409, 'width': 410, 'height': 409, 'widthPercent': 0.45, 'rescaleHeight': False, 'trialN': 4, 'loaded': True, 'loadedTime': 3931.6999999284744, 'positionName': 'RIGHT', 'positionCoords': [739.44, 195.5], 'bid': 2.63}]",10860.799999952316,1669841450079,froot loops w milk,salmon,2.38,2.63,0.25,froot loops w milk,1081.1000000238419,1082,1081.3000000715256,True,u,12460.100000023842,1599.3000000715256,1669841451679,1600,HRV,HRV_0295,2022-11-30 20:55:56
5,"[{'imgObject': {}, 'id': 'bagel and cc', 'src': '/static/foodstim60/bagel and cc.jpg', 'key': 'u', 'origWidth': 410, 'origHeight': 410, 'width': 410, 'height': 410, 'widthPercent': 0.45, 'rescaleHeight': False, 'trialN': 5, 'loaded': True, 'loadedTime': 3928.7999999523163, 'positionName': 'LEFT', 'positionCoords': [272.56, 195], 'bid': 1.1}, {'imgObject': {}, 'id': 'rigatoni and sauce', 'src': '/static/foodstim60/rigatoni and sauce.jpg', 'key': 'i', 'origWidth': 410, 'origHeight': 411, 'width': 410, 'height': 411, 'widthPercent': 0.45, 'rescaleHeight': False, 'trialN': 5, 'loaded': True, 'loadedTime': 3932.899999976158, 'positionName': 'RIGHT', 'positionCoords': [739.44, 194.5], 'bid': 2.96}]",12460.399999976158,1669841451679,bagel and cc,rigatoni and sauce,1.1,2.96,1.8599999999999999,bagel and cc,1442.7999999523163,1443,1443.2000000476837,True,u,14410.100000023842,1949.7000000476837,1669841453629,1950,HRV,HRV_0295,2022-11-30 20:55:56
6,"[{'imgObject': {}, 'id': 'Grapes', 'src': '/static/foodstim60/Grapes.jpg', 'key': 'u', 'origWidth': 411, 'origHeight': 411, 'width': 411, 'height': 411, 'widthPercent': 0.45, 'rescaleHeight': False, 'trialN': 6, 'loaded': True, 'loadedTime': 3935.899999976158, 'positionName': 'LEFT', 'positionCoords': [271.56, 194.5], 'bid': 8.24}, {'imgObject': {}, 'id': 'tacos', 'src': '/static/foodstim60/tacos.jpg', 'key': 'i', 'origWidth': 411, 'origHeight': 411, 'width': 411, 'height': 411, 'widthPercent': 0.45, 'rescaleHeight': False, 'trialN': 6, 'loaded': True, 'loadedTime': 3937.899999976158, 'positionName': 'RIGHT', 'positionCoords': [739.44, 194.5], 'bid': 4.92}]",14410.5,1669841453629,Grapes,tacos,8.24,4.92,-3.3200000000000003,Grapes,840.1999999284744,840,840.5,True,u,15759.199999928474,1348.6999999284744,1669841454978,1349,HRV,HRV_0295,2022-11-30 20:55:56
7,"[{'imgObject': {}, 'id': 'roastedpotatoes', 'src': '/static/foodstim60/roastedpotatoes.jpg', 'key': 'u', 'origWidth': 409, 'origHeight': 410, 'width': 409, 'height': 410, 'widthPercent': 0.45, 'rescaleHeight': False, 'trialN': 7, 'loaded': True, 'loadedTime': 3939.1999999284744, 'positionName': 'LEFT', 'positionCoords': [273.56, 195], 'bid': 4.95}, {'imgObject': {}, 'id': 'apple slices', 'src': '/static/foodstim60/apple slices.jpg', 'key': 'i', 'origWidth': 409, 'origHeight': 410, 'width': 409, 'height': 410, 'widthPercent': 0.45, 'rescaleHeight': False, 'trialN': 7, 'loaded': True, 'loadedTime': 3941.2999999523163, 'positionName': 'RIGHT', 'positionCoords': [739.44, 195], 'bid': 8.41}]",15759.299999952316,1669841454978,roastedpotatoes,apple slices,4.95,8.41,3.46,apple slices,1016.2000000476837,1016,1016.5,True,i,17278.600000023842,1519.3000000715256,1669841456497,1519,HRV,HRV_0295,2022-11-30 20:55:56
8,"[{'imgObject': {}, 'id': 'granola w milk', 'src': '/static/foodstim60/granola w milk.jpg', 'key': 'u', 'origWidth': 410, 'origHeight': 410, 'width': 410, 'height': 410, 'widthPercent': 0.45, 'rescaleHeight': False, 'trialN': 8, 'loaded': True, 'loadedTime': 3943, 'positionName': 'LEFT', 'positionCoords': [272.56, 195], 'bid': 0.92}, {'imgObject': {}, 'id': 'turkey sandwich', 'src': '/static/foodstim60/turkey sandwich.jpg', 'key': 'i', 'origWidth': 409, 'origHeight': 409, 'width': 409, 'height': 409, 'widthPercent': 0.45, 'rescaleHeight': False, 'trialN': 8, 'loaded': True, 'loadedTime': 3944.2999999523163, 'positionName': 'RIGHT', 'positionCoords': [739.44, 195.5], 'bid': 2.01}]",17279.600000023842,1669841456498,granola w milk,turkey sandwich,0.92,2.01,1.0899999999999999,granola w milk,1352.8999999761581,1353,1353.2999999523163,True,u,19145.100000023842,1865.5,1669841458363,1865,HRV,HRV_0295,2022-11-30 20:55:56
9,"[{'imgObject': {}, 'id': 'yogurt no spoon', 'src': '/static/foodstim60/yogurt no spoon.jpg', 'key': 'u', 'origWidth': 411, 'origHeight': 410, 'width': 411, 'height': 410, 'widthPercent': 0.45, 'rescaleHeight': False, 'trialN': 9, 'loaded': True, 'loadedTime': 3951.7999999523163, 'positionName': 'LEFT', 'positionCoords': [271.56, 195], 'bid': 9.03}, {'imgObject': {}, 'id': 'mango', 'src': '/static/foodstim60/mango.jpg', 'key': 'i', 'origWidth': 411, 'origHeight': 411, 'width': 411, 'height': 411, 'widthPercent': 0.45, 'rescaleHeight': False, 'trialN': 9, 'loaded': True, 'loadedTime': 3952.100000023842, 'positionName': 'RIGHT', 'positionCoords': [739.44, 194.5], 'bid': 5.71}]",19145.399999976158,1669841458364,yogurt no spoon,mango,9.03,5.71,-3.3199999999999994,yogurt no spoon,1181.8999999761581,1182,1182.2999999523163,True,u,20832.199999928474,1686.7999999523163,1669841460051,1687,HRV,HRV_0295,2022-11-30 20:55:56
10,"[{'imgObject': {}, 'id': 'corn cob', 'src': '/static/foodstim60/corn cob.jpg', 'key': 'u', 'origWidth': 411, 'origHeight': 411, 'width': 411, 'height': 411, 'widthPercent': 0.45, 'rescaleHeight': False, 'trialN': 10, 'loaded': True, 'loadedTime': 3969.7999999523163, 'positionName': 'LEFT', 'positionCoords': [271.56, 194.5], 'bid': 2.39}, {'imgObject': {}, 'id': 'apple slices', 'src': '/static/foodstim60/apple slices.jpg', 'key': 'i', 'origWidth': 409, 'origHeight': 410, 'width': 409, 'height': 410, 'widthPercent': 0.45, 'rescaleHeight': False, 'trialN': 10, 'loaded': True, 'loadedTime': 3940.899999976158, 'positionName': 'RIGHT', 'positionCoords': [739.44, 195], 'bid': 8.41}]",20832.299999952316,1669841460051,corn cob,apple slices,2.39,8.41,6.02,apple slices,1091.1000000238419,1091,1091.6000000238419,True,i,22427.699999928474,1595.3999999761581,1669841461646,1595,HRV,HRV_0295,2022-11-30 20:55:56
11,"[{'imgObject': {}, 'id': 'cheerios', 'src': '/static/foodstim60/cheerios.jpg', 'key': 'u', 'origWidth': 409, 'origHeight': 410, 'width': 409, 'height': 410, 'widthPercent': 0.45, 'rescaleHeight': False, 'trialN': 11, 'loaded': True, 'loadedTime': 3970.100000023842, 'positionName': 'LEFT', 'positionCoords': [273.56, 195], 'bid': 0.89}, {'imgObject': {}, 'id': 'granola w milk', 'src': '/static/foodstim60/granola w milk.jpg', 'key': 'i', 'origWidth': 410, 'origHeight': 410, 'width': 410, 'height': 410, 'widthPercent': 0.45, 'rescaleHeight': False, 'trialN': 11, 'loaded': True, 'loadedTime': 3942.399999976158, 'positionName': 'RIGHT', 'positionCoords': [739.44, 195], 'bid': 0.92}]",22427.899999976158,1669841461646,cheerios,granola w milk,0.89,0.92,0.030000000000000027,granola w milk,1341.5,1342,1341.7000000476837,True,i,24293.399999976158,1865.5,1669841463512,1866,HRV,HRV_0295,2022-11-30 20:55:56
12,"[{'imgObject': {}, 'id': 'mac & cheese', 'src': '/static/foodstim60/mac & cheese.jpg', 'key': 'u', 'origWidth': 410, 'origHeight': 410, 'width': 410, 'height': 410, 'widthPercent': 0.45, 'rescaleHeight': False, 'trialN': 12, 'loaded': True, 'loadedTime': 3982, 'positionName': 'LEFT', 'positionCoords': [272.56, 195], 'bid': 3.35}, {'imgObject': {}, 'id': 'steak', 'src': '/static/foodstim60/steak.jpg', 'key': 'i', 'origWidth': 410, 'origHeight': 410, 'width': 410, 'height': 410, 'widthPercent': 0.45, 'rescaleHeight': False, 'trialN': 12, 'loaded': True, 'loadedTime': 3995, 'positionName': 'RIGHT', 'positionCoords': [739.44, 195], 'bid': 2.38}]",24293.799999952316,1669841463512,mac & cheese,steak,3.35,2.38,-0.9700000000000002,steak,1504.5,1505,1504.8000000715256,True,i,26309.199999928474,2015.3999999761581,1669841465528,2016,HRV,HRV_0295,2022-11-30 20:55:56
13,"[{'imgObject': {}, 'id': 'cherries', 'src': '/static/foodstim60/cherries.jpg', 'key': 'u', 'origWidth': 410, 'origHeight': 411, 'width': 410, 'height': 411, 'widthPercent': 0.45, 'rescaleHeight': False, 'trialN': 13, 'loaded': True, 'loadedTime': 3995.899999976158, 'positionName': 'LEFT', 'positionCoords': [272.56, 194.5], 'bid': 9.02}, {'imgObject': {}, 'id': 'blueberries', 'src': '/static/foodstim60/blueberries.jpg', 'key': 'i', 'origWidth': 411, 'origHeight': 411, 'width': 411, 'height': 411, 'widthPercent': 0.45, 'rescaleHeight': False, 'trialN': 13, 'loaded': True, 'loadedTime': 4004.600000023842, 'positionName': 'RIGHT', 'positionCoords': [739.44, 194.5], 'bid': 9.95}]",26309.399999976158,1669841465528,cherries,blueberries,9.02,9.95,0.9299999999999997,blueberries,768.5,769,768.7999999523163,True,i,27588.600000023842,1279.2000000476837,1669841466807,1279,HRV,HRV_0295,2022-11-30 20:55:56
14,"[{'imgObject': {}, 'id': 'chickenfingers', 'src': '/static/foodstim60/chickenfingers.jpg', 'key': 'u', 'origWidth': 410, 'origHeight': 410, 'width': 410, 'height': 410, 'widthPercent': 0.45, 'rescaleHeight': False, 'trialN': 14, 'loaded': True, 'loadedTime': 4031.100000023842, 'positionName': 'LEFT', 'positionCoords': [272.56, 195], 'bid': 5}, {'imgObject': {}, 'id': 'Tribe humus pita', 'src': '/static/foodstim60/Tribe humus pita.jpg', 'key': 'i', 'origWidth': 411, 'origHeight': 411, 'width': 411, 'height': 411, 'widthPercent': 0.45, 'rescaleHeight': False, 'trialN': 14, 'loaded': True, 'loadedTime': 4043, 'positionName': 'RIGHT', 'positionCoords': [739.44, 194.5], 'bid': 1.06}]",27588.899999976158,1669841466807,chickenfingers,Tribe humus pita,5.0,1.06,-3.94,chickenfingers,1261.2000000476837,1262,1261.7999999523163,True,u,29361.0,1772.1000000238419,1669841468579,1772,HRV,HRV_0295,2022-11-30 20:55:56
15,"[{'imgObject': {}, 'id': 'burrito', 'src': '/static/foodstim60/burrito.jpg', 'key': 'u', 'origWidth': 410, 'origHeight': 410, 'width': 410, 'height': 410, 'widthPercent': 0.45, 'rescaleHeight': False, 'trialN': 15, 'loaded': True, 'loadedTime': 4045.2999999523163, 'positionName': 'LEFT', 'positionCoords': [272.56, 195], 'bid': 5.99}, {'imgObject': {}, 'id': 'veggieswithdip', 'src': '/static/foodstim60/veggieswithdip.jpg', 'key': 'i', 'origWidth': 409, 'origHeight': 409, 'width': 409, 'height': 409, 'widthPercent': 0.45, 'rescaleHeight': False, 'trialN': 15, 'loaded': True, 'loadedTime': 4057.2999999523163, 'positionName': 'RIGHT', 'positionCoords': [739.44, 195.5], 'bid': 6.4}]",29361.399999976158,1669841468580,burrito,veggieswithdip,5.99,6.4,0.41000000000000014,veggieswithdip,1183.1000000238419,1183,1183.6000000238419,True,i,31060.699999928474,1699.2999999523163,1669841470279,1699,HRV,HRV_0295,2022-11-30 20:55:56
16,"[{'imgObject': {}, 'id': 'edamame', 'src': '/static/foodstim60/edamame.jpg', 'key': 'u', 'origWidth': 409, 'origHeight': 410, 'width': 409, 'height': 410, 'widthPercent': 0.45, 'rescaleHeight': False, 'trialN': 16, 'loaded': True, 'loadedTime': 4068.100000023842, 'positionName': 'LEFT', 'positionCoords': [273.56, 195], 'bid': 0.09}, {'imgObject': {}, 'id': 'salad w chicken', 'src': '/static/foodstim60/salad w chicken.jpg', 'key': 'i', 'origWidth': 411, 'origHeight': 411, 'width': 411, 'height': 411, 'widthPercent': 0.45, 'rescaleHeight': False, 'trialN': 16, 'loaded': True, 'loadedTime': 3927, 'positionName': 'RIGHT', 'positionCoords': [739.44, 194.5], 'bid': 3.62}]",31061.100000023842,1669841470279,edamame,salad w chicken,0.09,3.62,3.5300000000000002,salad w chicken,1327.3999999761581,1328,1327.8999999761581,True,i,32895.699999928474,1834.5999999046326,1669841472114,1835,HRV,HRV_0295,2022-11-30 20:55:56
17,"[{'imgObject': {}, 'id': 'Grapes', 'src': '/static/foodstim60/Grapes.jpg', 'key': 'u', 'origWidth': 411, 'origHeight': 411, 'width': 411, 'height': 411, 'widthPercent': 0.45, 'rescaleHeight': False, 'trialN': 17, 'loaded': True, 'loadedTime': 3935.7999999523163, 'positionName': 'LEFT', 'positionCoords': [271.56, 194.5], 'bid': 8.24}, {'imgObject': {}, 'id': 'orange slices', 'src': '/static/foodstim60/orange slices.jpg', 'key': 'i', 'origWidth': 409, 'origHeight': 410, 'width': 409, 'height': 410, 'widthPercent': 0.45, 'rescaleHeight': False, 'trialN': 17, 'loaded': True, 'loadedTime': 4068.1999999284744, 'positionName': 'RIGHT', 'positionCoords': [739.44, 195], 'bid': 7.81}]",32895.89999997616,1669841472114,Grapes,orange slices,8.24,7.81,-0.4300000000000006,orange slices,940.1000000238419,941,940.3999999761581,True,i,34343.60000002384,1447.7000000476837,1669841473562,1448,HRV,HRV_0295,2022-11-30 20:55:56
18,"[{'imgObject': {}, 'id': 'mango', 'src': '/static/foodstim60/mango.jpg', 'key': 'u', 'origWidth': 411, 'origHeight': 411, 'width': 411, 'height': 411, 'widthPercent': 0.45, 'rescaleHeight': False, 'trialN': 18, 'loaded': True, 'loadedTime': 3952.899999976158, 'positionName': 'LEFT', 'positionCoords': [271.56, 194.5], 'bid': 5.71}, {'imgObject': {}, 'id': 'eggsalad', 'src': '/static/foodstim60/eggsalad.jpg', 'key': 'i', 'origWidth': 410, 'origHeight': 409, 'width': 410, 'height': 409, 'widthPercent': 0.45, 'rescaleHeight': False, 'trialN': 18, 'loaded': True, 'loadedTime': 4080.1999999284744, 'positionName': 'RIGHT', 'positionCoords': [739.44, 195.5], 'bid': 5.8100000000000005}]",34344.0,1669841473562,mango,eggsalad,5.71,5.8100000000000005,0.10000000000000053,mango,1160.6000000238419,1161,1161.0,True,u,36011.299999952316,1667.2999999523163,1669841475230,1668,HRV,HRV_0295,2022-11-30 20:55:56
19,"[{'imgObject': {}, 'id': 'rigatoni', 'src': '/static/foodstim60/rigatoni.jpg', 'key': 'u', 'origWidth': 411, 'origHeight': 411, 'width': 411, 'height': 411, 'widthPercent': 0.45, 'rescaleHeight': False, 'trialN': 19, 'loaded': True, 'loadedTime': 4080.2999999523163, 'positionName': 'LEFT', 'positionCoords': [271.56, 194.5], 'bid': 0.8200000000000001}, {'imgObject': {}, 'id': 'bagel plain', 'src': '/static/foodstim60/bagel plain.jpg', 'key': 'i', 'origWidth': 410, 'origHeight': 410, 'width': 410, 'height': 410, 'widthPercent': 0.45, 'rescaleHeight': False, 'trialN': 19, 'loaded': True, 'loadedTime': 4085.600000023842, 'positionName': 'RIGHT', 'positionCoords': [739.44, 195], 'bid': 0.16}]",36011.5,1669841475230,rigatoni,bagel plain,0.8200000000000001,0.16,-0.66,rigatoni,1443.6000000238419,1444,1444.1999999284744,True,u,37964.5,1953.0,1669841477183,1953,HRV,HRV_0295,2022-11-30 20:55:56
20,"[{'imgObject': {}, 'id': 'luckycharms', 'src': '/static/foodstim60/luckycharms.jpg', 'key': 'u', 'origWidth': 410, 'origHeight': 409, 'width': 410, 'height': 409, 'widthPercent': 0.45, 'rescaleHeight': False, 'trialN': 20, 'loaded': True, 'loadedTime': 4089.1999999284744, 'positionName': 'LEFT', 'positionCoords': [272.56, 195.5], 'bid': 1.56}, {'imgObject': {}, 'id': 'banana', 'src': '/static/foodstim60/banana.jpg', 'key': 'i', 'origWidth': 410, 'origHeight': 410, 'width': 410, 'height': 410, 'widthPercent': 0.45, 'rescaleHeight': False, 'trialN': 20, 'loaded': True, 'loadedTime': 3930, 'positionName': 'RIGHT', 'positionCoords': [739.44, 195], 'bid': 1.84}]",37964.699999928474,1669841477183,luckycharms,banana,1.56,1.84,0.28,banana,1346.9000000953674,1347,1347.3000000715256,True,i,39823.199999928474,1858.5,1669841479042,1859,HRV,HRV_0295,2022-11-30 20:55:56
21,"[{'imgObject': {}, 'id': 'hashbrowns', 'src': '/static/foodstim60/hashbrowns.jpg', 'key': 'u', 'origWidth': 411, 'origHeight': 410, 'width': 411, 'height': 410, 'widthPercent': 0.45, 'rescaleHeight': False, 'trialN': 21, 'loaded': True, 'loadedTime': 4090.899999976158, 'positionName': 'LEFT', 'positionCoords': [271.56, 195], 'bid': 1.34}, {'imgObject': {}, 'id': 'fried eggs', 'src': '/static/foodstim60/fried eggs.jpg', 'key': 'i', 'origWidth': 410, 'origHeight': 410, 'width': 410, 'height': 410, 'widthPercent': 0.45, 'rescaleHeight': False, 'trialN': 21, 'loaded': True, 'loadedTime': 4094.7999999523163, 'positionName': 'RIGHT', 'positionCoords': [739.44, 195], 'bid': 3.28}]",39823.39999997616,1669841479042,hashbrowns,fried eggs,1.34,3.28,1.9399999999999997,fried eggs,1198.7000000476837,1199,1199.1000000238419,True,i,41524.5,1701.1000000238419,1669841480743,1701,HRV,HRV_0295,2022-11-30 20:55:56
22,"[{'imgObject': {}, 'id': 'strawberries', 'src': '/static/foodstim60/strawberries.jpg', 'key': 'u', 'origWidth': 410, 'origHeight': 410, 'width': 410, 'height': 410, 'widthPercent': 0.45, 'rescaleHeight': False, 'trialN': 22, 'loaded': True, 'loadedTime': 4096.399999976158, 'positionName': 'LEFT', 'positionCoords': [272.56, 195], 'bid': 9}, {'imgObject': {}, 'id': 'eggs', 'src': '/static/foodstim60/eggs.jpg', 'key': 'i', 'origWidth': 409, 'origHeight': 409, 'width': 409, 'height': 409, 'widthPercent': 0.45, 'rescaleHeight': False, 'trialN': 22, 'loaded': True, 'loadedTime': 4097.5, 'positionName': 'RIGHT', 'positionCoords': [739.44, 195.5], 'bid': 2.74}]",41524.699999928474,1669841480743,strawberries,eggs,9.0,2.74,-6.26,strawberries,1003.4000000953674,1004,1003.8000000715256,True,u,43045.199999928474,1520.5,1669841482264,1521,HRV,HRV_0295,2022-11-30 20:55:56
23,"[{'imgObject': {}, 'id': 'popsicles', 'src': '/static/foodstim60/popsicles.jpg', 'key': 'u', 'origWidth': 410, 'origHeight': 410, 'width': 410, 'height': 410, 'widthPercent': 0.45, 'rescaleHeight': False, 'trialN': 23, 'loaded': True, 'loadedTime': 4187.100000023842, 'positionName': 'LEFT', 'positionCoords': [272.56, 195], 'bid': 6.2700000000000005}, {'imgObject': {}, 'id': 'sushi w_condiments', 'src': '/static/foodstim60/sushi w_condiments.jpg', 'key': 'i', 'origWidth': 410, 'origHeight': 410, 'width': 410, 'height': 410, 'widthPercent': 0.45, 'rescaleHeight': False, 'trialN': 23, 'loaded': True, 'loadedTime': 4116.899999976158, 'positionName': 'RIGHT', 'positionCoords': [739.44, 195], 'bid': 4.97}]",43045.39999997616,1669841482264,popsicles,sushi w_condiments,6.2700000000000005,4.97,-1.3000000000000007,popsicles,1425.2999999523163,1425,1425.6000000238419,True,u,44977.5,1932.1000000238419,1669841484196,1932,HRV,HRV_0295,2022-11-30 20:55:56
24,"[{'imgObject': {}, 'id': 'corn cob', 'src': '/static/foodstim60/corn cob.jpg', 'key': 'u', 'origWidth': 411, 'origHeight': 411, 'width': 411, 'height': 411, 'widthPercent': 0.45, 'rescaleHeight': False, 'trialN': 24, 'loaded': True, 'loadedTime': 3969.6999999284744, 'positionName': 'LEFT', 'positionCoords': [271.56, 194.5], 'bid': 2.39}, {'imgObject': {}, 'id': 'steak', 'src': '/static/foodstim60/steak.jpg', 'key': 'i', 'origWidth': 410, 'origHeight': 410, 'width': 410, 'height': 410, 'widthPercent': 0.45, 'rescaleHeight': False, 'trialN': 24, 'loaded': True, 'loadedTime': 3994.7999999523163, 'positionName': 'RIGHT', 'positionCoords': [739.44, 195], 'bid': 2.38}]",44977.799999952316,1669841484196,corn cob,steak,2.39,2.38,-0.010000000000000231,corn cob,1348.7000000476837,1349,1349.1000000238419,True,u,46829.0,1851.2000000476837,1669841486047,1851,HRV,HRV_0295,2022-11-30 20:55:56
25,"[{'imgObject': {}, 'id': 'sushi w_condiments', 'src': '/static/foodstim60/sushi w_condiments.jpg', 'key': 'u', 'origWidth': 410, 'origHeight': 410, 'width': 410, 'height': 410, 'widthPercent': 0.45, 'rescaleHeight': False, 'trialN': 25, 'loaded': True, 'loadedTime': 4118, 'positionName': 'LEFT', 'positionCoords': [272.56, 195], 'bid': 4.97}, {'imgObject': {}, 'id': 'olives', 'src': '/static/foodstim60/olives.jpg', 'key': 'i', 'origWidth': 410, 'origHeight': 410, 'width': 410, 'height': 410, 'widthPercent': 0.45, 'rescaleHeight': False, 'trialN': 25, 'loaded': True, 'loadedTime': 3886.600000023842, 'positionName': 'RIGHT', 'positionCoords': [739.44, 195], 'bid': 4.95}]",46829.199999928474,1669841486048,sushi w_condiments,olives,4.97,4.95,-0.019999999999999574,sushi w_condiments,1413.4000000953674,1406,1413.6000000238419,True,u,48759.89999997616,1930.7000000476837,1669841487971,1923,HRV,HRV_0295,2022-11-30 20:55:56
26,"[{'imgObject': {}, 'id': 'apple slices', 'src': '/static/foodstim60/apple slices.jpg', 'key': 'u', 'origWidth': 409, 'origHeight': 410, 'width': 409, 'height': 410, 'widthPercent': 0.45, 'rescaleHeight': False, 'trialN': 26, 'loaded': True, 'loadedTime': 3940.6999999284744, 'positionName': 'LEFT', 'positionCoords': [273.56, 195], 'bid': 8.41}, {'imgObject': {}, 'id': 'blueberries', 'src': '/static/foodstim60/blueberries.jpg', 'key': 'i', 'origWidth': 411, 'origHeight': 411, 'width': 411, 'height': 411, 'widthPercent': 0.45, 'rescaleHeight': False, 'trialN': 26, 'loaded': True, 'loadedTime': 4006, 'positionName': 'RIGHT', 'positionCoords': [739.44, 194.5], 'bid': 9.95}]",48760.10000002384,1669841487971,apple slices,blueberries,8.41,9.95,1.5399999999999991,blueberries,837.0999999046326,838,837.3999999761581,True,i,50109.0,1348.8999999761581,1669841489320,1349,HRV,HRV_0295,2022-11-30 20:55:56
27,"[{'imgObject': {}, 'id': 'cherries', 'src': '/static/foodstim60/cherries.jpg', 'key': 'u', 'origWidth': 410, 'origHeight': 411, 'width': 410, 'height': 411, 'widthPercent': 0.45, 'rescaleHeight': False, 'trialN': 27, 'loaded': True, 'loadedTime': 4004.399999976158, 'positionName': 'LEFT', 'positionCoords': [272.56, 194.5], 'bid': 9.02}, {'imgObject': {}, 'id': 'pear', 'src': '/static/foodstim60/pear.jpg', 'key': 'i', 'origWidth': 411, 'origHeight': 410, 'width': 411, 'height': 410, 'widthPercent': 0.45, 'rescaleHeight': False, 'trialN': 27, 'loaded': True, 'loadedTime': 4119.899999976158, 'positionName': 'RIGHT', 'positionCoords': [739.44, 195], 'bid': 8.17}]",50109.299999952316,1669841489321,cherries,pear,9.02,8.17,-0.8499999999999996,cherries,1184.6000000238419,1185,1184.8999999761581,True,u,51809.799999952316,1700.5,1669841491021,1700,HRV,HRV_0295,2022-11-30 20:55:56
28,"[{'imgObject': {}, 'id': 'blueberries', 'src': '/static/foodstim60/blueberries.jpg', 'key': 'u', 'origWidth': 411, 'origHeight': 411, 'width': 411, 'height': 411, 'widthPercent': 0.45, 'rescaleHeight': False, 'trialN': 28, 'loaded': True, 'loadedTime': 4006.100000023842, 'positionName': 'LEFT', 'positionCoords': [271.56, 194.5], 'bid': 9.95}, {'imgObject': {}, 'id': 'raspberries', 'src': '/static/foodstim60/raspberries.jpg', 'key': 'i', 'origWidth': 411, 'origHeight': 411, 'width': 411, 'height': 411, 'widthPercent': 0.45, 'rescaleHeight': False, 'trialN': 28, 'loaded': True, 'loadedTime': 4121.600000023842, 'positionName': 'RIGHT', 'positionCoords': [739.44, 194.5], 'bid': 9.97}]",51810.0,1669841491021,blueberries,raspberries,9.95,9.97,0.02000000000000135,raspberries,1134.8999999761581,1136,1135.2999999523163,True,i,53460.199999928474,1650.1999999284744,1669841492671,1650,HRV,HRV_0295,2022-11-30 20:55:56
29,"[{'imgObject': {}, 'id': 'sushi w_condiments', 'src': '/static/foodstim60/sushi w_condiments.jpg', 'key': 'u', 'origWidth': 410, 'origHeight': 410, 'width': 410, 'height': 410, 'widthPercent': 0.45, 'rescaleHeight': False, 'trialN': 29, 'loaded': True, 'loadedTime': 4117.799999952316, 'positionName': 'LEFT', 'positionCoords': [272.56, 195], 'bid': 4.97}, {'imgObject': {}, 'id': 'granola w milk', 'src': '/static/foodstim60/granola w milk.jpg', 'key': 'i', 'origWidth': 410, 'origHeight': 410, 'width': 410, 'height': 410, 'widthPercent': 0.45, 'rescaleHeight': False, 'trialN': 29, 'loaded': True, 'loadedTime': 3942.7999999523163, 'positionName': 'RIGHT', 'positionCoords': [739.44, 195], 'bid': 0.92}]",53460.39999997616,1669841492672,sushi w_condiments,granola w milk,4.97,0.92,-4.05,sushi w_condiments,1326.3999999761581,1327,1326.7999999523163,True,u,55309.5,1849.1000000238419,1669841494521,1849,HRV,HRV_0295,2022-11-30 20:55:56
30,"[{'imgObject': {}, 'id': 'pear', 'src': '/static/foodstim60/pear.jpg', 'key': 'u', 'origWidth': 411, 'origHeight': 410, 'width': 411, 'height': 410, 'widthPercent': 0.45, 'rescaleHeight': False, 'trialN': 30, 'loaded': True, 'loadedTime': 4118.699999928474, 'positionName': 'LEFT', 'positionCoords': [271.56, 195], 'bid': 8.17}, {'imgObject': {}, 'id': 'Grapes', 'src': '/static/foodstim60/Grapes.jpg', 'key': 'i', 'origWidth': 411, 'origHeight': 411, 'width': 411, 'height': 411, 'widthPercent': 0.45, 'rescaleHeight': False, 'trialN': 30, 'loaded': True, 'loadedTime': 3935.899999976158, 'positionName': 'RIGHT', 'positionCoords': [739.44, 194.5], 'bid': 8.24}]",55309.799999952316,1669841494521,pear,Grapes,8.17,8.24,0.07000000000000028,pear,1323.8999999761581,1324,1324.3000000715256,True,u,57143.60000002384,1833.8000000715256,1669841496355,1834,HRV,HRV_0295,2022-11-30 20:55:56
31,"[{'imgObject': {}, 'id': 'veggieswithdip', 'src': '/static/foodstim60/veggieswithdip.jpg', 'key': 'u', 'origWidth': 409, 'origHeight': 409, 'width': 409, 'height': 409, 'widthPercent': 0.45, 'rescaleHeight': False, 'trialN': 31, 'loaded': True, 'loadedTime': 4057.5, 'positionName': 'LEFT', 'positionCoords': [273.56, 195.5], 'bid': 6.4}, {'imgObject': {}, 'id': 'luckycharms', 'src': '/static/foodstim60/luckycharms.jpg', 'key': 'i', 'origWidth': 410, 'origHeight': 409, 'width': 410, 'height': 409, 'widthPercent': 0.45, 'rescaleHeight': False, 'trialN': 31, 'loaded': True, 'loadedTime': 4089.100000023842, 'positionName': 'RIGHT', 'positionCoords': [739.44, 195.5], 'bid': 1.56}]",57143.799999952316,1669841496355,veggieswithdip,luckycharms,6.4,1.56,-4.84,veggieswithdip,1156.3000000715256,1157,1156.7000000476837,True,u,58811.699999928474,1667.8999999761581,1669841498023,1668,HRV,HRV_0295,2022-11-30 20:55:56
32,"[{'imgObject': {}, 'id': 'yogurt no spoon', 'src': '/static/foodstim60/yogurt no spoon.jpg', 'key': 'u', 'origWidth': 411, 'origHeight': 410, 'width': 411, 'height': 410, 'widthPercent': 0.45, 'rescaleHeight': False, 'trialN': 32, 'loaded': True, 'loadedTime': 3951.600000023842, 'positionName': 'LEFT', 'positionCoords': [271.56, 195], 'bid': 9.03}, {'imgObject': {}, 'id': 'Grapes', 'src': '/static/foodstim60/Grapes.jpg', 'key': 'i', 'origWidth': 411, 'origHeight': 411, 'width': 411, 'height': 411, 'widthPercent': 0.45, 'rescaleHeight': False, 'trialN': 32, 'loaded': True, 'loadedTime': 3934.399999976158, 'positionName': 'RIGHT', 'positionCoords': [739.44, 194.5], 'bid': 8.24}]",58812.0,1669841498023,yogurt no spoon,Grapes,9.03,8.24,-0.7899999999999991,yogurt no spoon,808.6999999284744,809,809.0,True,u,60127.199999928474,1315.1999999284744,1669841499339,1316,HRV,HRV_0295,2022-11-30 20:55:56
33,"[{'imgObject': {}, 'id': 'luckycharms', 'src': '/static/foodstim60/luckycharms.jpg', 'key': 'u', 'origWidth': 410, 'origHeight': 409, 'width': 410, 'height': 409, 'widthPercent': 0.45, 'rescaleHeight': False, 'trialN': 33, 'loaded': True, 'loadedTime': 4086.399999976158, 'positionName': 'LEFT', 'positionCoords': [272.56, 195.5], 'bid': 1.56}, {'imgObject': {}, 'id': 'shreddedwheatwithmilk', 'src': '/static/foodstim60/shreddedwheatwithmilk.jpg', 'key': 'i', 'origWidth': 410, 'origHeight': 410, 'width': 410, 'height': 410, 'widthPercent': 0.45, 'rescaleHeight': False, 'trialN': 33, 'loaded': True, 'loadedTime': 4125.699999928474, 'positionName': 'RIGHT', 'positionCoords': [739.44, 195], 'bid': 0.68}]",60128.299999952316,1669841499340,luckycharms,shreddedwheatwithmilk,1.56,0.68,-0.88,luckycharms,1147.3000000715256,1147,1147.8000000715256,True,u,61793.0,1664.7000000476837,1669841501004,1664,HRV,HRV_0295,2022-11-30 20:55:56
34,"[{'imgObject': {}, 'id': 'mashed potato', 'src': '/static/foodstim60/mashed potato.jpg', 'key': 'u', 'origWidth': 409, 'origHeight': 409, 'width': 409, 'height': 409, 'widthPercent': 0.45, 'rescaleHeight': False, 'trialN': 34, 'loaded': True, 'loadedTime': 4127.100000023842, 'positionName': 'LEFT', 'positionCoords': [273.56, 195.5], 'bid': 5.71}, {'imgObject': {}, 'id': 'chickenfingers', 'src': '/static/foodstim60/chickenfingers.jpg', 'key': 'i', 'origWidth': 410, 'origHeight': 410, 'width': 410, 'height': 410, 'widthPercent': 0.45, 'rescaleHeight': False, 'trialN': 34, 'loaded': True, 'loadedTime': 4030.899999976158, 'positionName': 'RIGHT', 'positionCoords': [739.44, 195], 'bid': 5}]",61794.199999928474,1669841501005,mashed potato,chickenfingers,5.71,5.0,-0.71,chickenfingers,961.0,962,961.3000000715256,True,i,63277.199999928474,1483.0,1669841502488,1483,HRV,HRV_0295,2022-11-30 20:55:56
35,"[{'imgObject': {}, 'id': 'roastedpotatoes', 'src': '/static/foodstim60/roastedpotatoes.jpg', 'key': 'u', 'origWidth': 409, 'origHeight': 410, 'width': 409, 'height': 410, 'widthPercent': 0.45, 'rescaleHeight': False, 'trialN': 35, 'loaded': True, 'loadedTime': 3938.899999976158, 'positionName': 'LEFT', 'positionCoords': [273.56, 195], 'bid': 4.95}, {'imgObject': {}, 'id': 'eggsalad', 'src': '/static/foodstim60/eggsalad.jpg', 'key': 'i', 'origWidth': 410, 'origHeight': 409, 'width': 410, 'height': 409, 'widthPercent': 0.45, 'rescaleHeight': False, 'trialN': 35, 'loaded': True, 'loadedTime': 4070.2999999523163, 'positionName': 'RIGHT', 'positionCoords': [739.44, 195.5], 'bid': 5.8100000000000005}]",63277.39999997616,1669841502489,roastedpotatoes,eggsalad,4.95,5.8100000000000005,0.8600000000000003,roastedpotatoes,1019.1000000238419,1019,1019.5,True,u,64798.0,1520.6000000238419,1669841504009,1520,HRV,HRV_0295,2022-11-30 20:55:56
36,"[{'imgObject': {}, 'id': 'froot loops w milk', 'src': '/static/foodstim60/froot loops w milk.jpg', 'key': 'u', 'origWidth': 410, 'origHeight': 410, 'width': 410, 'height': 410, 'widthPercent': 0.45, 'rescaleHeight': False, 'trialN': 36, 'loaded': True, 'loadedTime': 3931.100000023842, 'positionName': 'LEFT', 'positionCoords': [272.56, 195], 'bid': 2.38}, {'imgObject': {}, 'id': 'Grapes', 'src': '/static/foodstim60/Grapes.jpg', 'key': 'i', 'origWidth': 411, 'origHeight': 411, 'width': 411, 'height': 411, 'widthPercent': 0.45, 'rescaleHeight': False, 'trialN': 36, 'loaded': True, 'loadedTime': 3936.100000023842, 'positionName': 'RIGHT', 'positionCoords': [739.44, 194.5], 'bid': 8.24}]",64798.199999928474,1669841504010,froot loops w milk,Grapes,2.38,8.24,5.86,Grapes,1474.9000000953674,1475,1475.4000000953674,True,i,66795.60000002384,1997.4000000953674,1669841506007,1997,HRV,HRV_0295,2022-11-30 20:55:56
37,"[{'imgObject': {}, 'id': 'rigatoni', 'src': '/static/foodstim60/rigatoni.jpg', 'key': 'u', 'origWidth': 411, 'origHeight': 411, 'width': 411, 'height': 411, 'widthPercent': 0.45, 'rescaleHeight': False, 'trialN': 37, 'loaded': True, 'loadedTime': 4081.600000023842, 'positionName': 'LEFT', 'positionCoords': [271.56, 194.5], 'bid': 0.8200000000000001}, {'imgObject': {}, 'id': 'blackbeanswithrice', 'src': '/static/foodstim60/blackbeanswithrice.jpg', 'key': 'i', 'origWidth': 410, 'origHeight': 410, 'width': 410, 'height': 410, 'widthPercent': 0.45, 'rescaleHeight': False, 'trialN': 37, 'loaded': True, 'loadedTime': 4128.399999976158, 'positionName': 'RIGHT', 'positionCoords': [739.44, 195], 'bid': 0.06}]",66795.79999995232,1669841506007,rigatoni,blackbeanswithrice,0.8200000000000001,0.06,-0.76,rigatoni,1172.5,1173,1172.7000000476837,True,u,68473.69999992847,1677.8999999761581,1669841507685,1678,HRV,HRV_0295,2022-11-30 20:55:56
38,"[{'imgObject': {}, 'id': 'apple slices', 'src': '/static/foodstim60/apple slices.jpg', 'key': 'u', 'origWidth': 409, 'origHeight': 410, 'width': 409, 'height': 410, 'widthPercent': 0.45, 'rescaleHeight': False, 'trialN': 38, 'loaded': True, 'loadedTime': 3939.5, 'positionName': 'LEFT', 'positionCoords': [273.56, 195], 'bid': 8.41}, {'imgObject': {}, 'id': 'kiwi', 'src': '/static/foodstim60/kiwi.jpg', 'key': 'i', 'origWidth': 410, 'origHeight': 410, 'width': 410, 'height': 410, 'widthPercent': 0.45, 'rescaleHeight': False, 'trialN': 38, 'loaded': True, 'loadedTime': 3914.7999999523163, 'positionName': 'RIGHT', 'positionCoords': [739.44, 195], 'bid': 8.620000000000001}]",68473.89999997616,1669841507685,apple slices,kiwi,8.41,8.620000000000001,0.21000000000000085,kiwi,930.3999999761581,931,930.7999999523163,True,i,69916.10000002384,1442.2000000476837,1669841509127,1442,HRV,HRV_0295,2022-11-30 20:55:56
39,"[{'imgObject': {}, 'id': 'strawberries', 'src': '/static/foodstim60/strawberries.jpg', 'key': 'u', 'origWidth': 410, 'origHeight': 410, 'width': 410, 'height': 410, 'widthPercent': 0.45, 'rescaleHeight': False, 'trialN': 39, 'loaded': True, 'loadedTime': 4096.299999952316, 'positionName': 'LEFT', 'positionCoords': [272.56, 195], 'bid': 9}, {'imgObject': {}, 'id': 'cantaloupe', 'src': '/static/foodstim60/cantaloupe.jpg', 'key': 'i', 'origWidth': 409, 'origHeight': 409, 'width': 409, 'height': 409, 'widthPercent': 0.45, 'rescaleHeight': False, 'trialN': 39, 'loaded': True, 'loadedTime': 4138.299999952316, 'positionName': 'RIGHT', 'positionCoords': [739.44, 195.5], 'bid': 8.72}]",69916.19999992847,1669841509128,strawberries,cantaloupe,9.0,8.72,-0.27999999999999936,strawberries,982.3000000715256,982,982.6000000238419,True,u,71411.39999997616,1495.2000000476837,1669841510623,1495,HRV,HRV_0295,2022-11-30 20:55:56
40,"[{'imgObject': {}, 'id': 'raspberries', 'src': '/static/foodstim60/raspberries.jpg', 'key': 'u', 'origWidth': 411, 'origHeight': 411, 'width': 411, 'height': 411, 'widthPercent': 0.45, 'rescaleHeight': False, 'trialN': 40, 'loaded': True, 'loadedTime': 4120.600000023842, 'positionName': 'LEFT', 'positionCoords': [271.56, 194.5], 'bid': 9.97}, {'imgObject': {}, 'id': 'orange slices', 'src': '/static/foodstim60/orange slices.jpg', 'key': 'i', 'origWidth': 409, 'origHeight': 410, 'width': 409, 'height': 410, 'widthPercent': 0.45, 'rescaleHeight': False, 'trialN': 40, 'loaded': True, 'loadedTime': 4069.6999999284744, 'positionName': 'RIGHT', 'positionCoords': [739.44, 195], 'bid': 7.81}]",71411.69999992847,1669841510623,raspberries,orange slices,9.97,7.81,-2.160000000000001,raspberries,1061.4000000953674,1062,1061.8000000715256,True,u,72995.69999992847,1584.0,1669841512207,1584,HRV,HRV_0295,2022-11-30 20:55:56
41,"[{'imgObject': {}, 'id': 'cocktailshrimp', 'src': '/static/foodstim60/cocktailshrimp.jpg', 'key': 'u', 'origWidth': 410, 'origHeight': 410, 'width': 410, 'height': 410, 'widthPercent': 0.45, 'rescaleHeight': False, 'trialN': 41, 'loaded': True, 'loadedTime': 3922.2999999523163, 'positionName': 'LEFT', 'positionCoords': [272.56, 195], 'bid': 0}, {'imgObject': {}, 'id': 'edamame', 'src': '/static/foodstim60/edamame.jpg', 'key': 'i', 'origWidth': 409, 'origHeight': 410, 'width': 409, 'height': 410, 'widthPercent': 0.45, 'rescaleHeight': False, 'trialN': 41, 'loaded': True, 'loadedTime': 4067.899999976158, 'positionName': 'RIGHT', 'positionCoords': [739.44, 195], 'bid': 0.09}]",72996.0,1669841512207,cocktailshrimp,edamame,0.0,0.09,0.09,cocktailshrimp,1574.6999999284744,1576,1575.6000000238419,True,u,75077.69999992847,2081.6999999284744,1669841514289,2082,HRV,HRV_0295,2022-11-30 20:55:56
42,"[{'imgObject': {}, 'id': 'cantaloupe', 'src': '/static/foodstim60/cantaloupe.jpg', 'key': 'u', 'origWidth': 409, 'origHeight': 409, 'width': 409, 'height': 409, 'widthPercent': 0.45, 'rescaleHeight': False, 'trialN': 42, 'loaded': True, 'loadedTime': 4139.199999928474, 'positionName': 'LEFT', 'positionCoords': [273.56, 195.5], 'bid': 8.72}, {'imgObject': {}, 'id': 'omelette', 'src': '/static/foodstim60/omelette.jpg', 'key': 'i', 'origWidth': 410, 'origHeight': 409, 'width': 410, 'height': 409, 'widthPercent': 0.45, 'rescaleHeight': False, 'trialN': 42, 'loaded': True, 'loadedTime': 4140.799999952316, 'positionName': 'RIGHT', 'positionCoords': [739.44, 195.5], 'bid': 2.66}]",75077.89999997616,1669841514289,cantaloupe,omelette,8.72,2.66,-6.0600000000000005,cantaloupe,1153.2999999523163,1154,1153.7999999523163,True,u,76746.79999995232,1668.8999999761581,1669841515958,1669,HRV,HRV_0295,2022-11-30 20:55:56
43,"[{'imgObject': {}, 'id': 'bagel plain', 'src': '/static/foodstim60/bagel plain.jpg', 'key': 'u', 'origWidth': 410, 'origHeight': 410, 'width': 410, 'height': 410, 'widthPercent': 0.45, 'rescaleHeight': False, 'trialN': 43, 'loaded': True, 'loadedTime': 4084.600000023842, 'positionName': 'LEFT', 'positionCoords': [272.56, 195], 'bid': 0.16}, {'imgObject': {}, 'id': 'raisin bran w milk', 'src': '/static/foodstim60/raisin bran w milk.jpg', 'key': 'i', 'origWidth': 411, 'origHeight': 411, 'width': 411, 'height': 411, 'widthPercent': 0.45, 'rescaleHeight': False, 'trialN': 43, 'loaded': True, 'loadedTime': 4142.100000023842, 'positionName': 'RIGHT', 'positionCoords': [739.44, 194.5], 'bid': 1.07}]",76747.0,1669841515958,bagel plain,raisin bran w milk,0.16,1.07,0.91,raisin bran w milk,1208.2999999523163,1209,1209.0,True,i,78476.79999995232,1729.7999999523163,1669841517688,1730,HRV,HRV_0295,2022-11-30 20:55:56
44,"[{'imgObject': {}, 'id': 'hotdog w must', 'src': '/static/foodstim60/hotdog w must.jpg', 'key': 'u', 'origWidth': 409, 'origHeight': 409, 'width': 409, 'height': 409, 'widthPercent': 0.45, 'rescaleHeight': False, 'trialN': 44, 'loaded': True, 'loadedTime': 4156.100000023842, 'positionName': 'LEFT', 'positionCoords': [273.56, 195.5], 'bid': 3.28}, {'imgObject': {}, 'id': 'burger', 'src': '/static/foodstim60/burger.jpg', 'key': 'i', 'origWidth': 409, 'origHeight': 409, 'width': 409, 'height': 409, 'widthPercent': 0.45, 'rescaleHeight': False, 'trialN': 44, 'loaded': True, 'loadedTime': 4157.699999928474, 'positionName': 'RIGHT', 'positionCoords': [739.44, 195.5], 'bid': 3.49}]",78476.89999997616,1669841517688,hotdog w must,burger,3.28,3.49,0.2100000000000004,burger,1489.0,1490,1489.6000000238419,True,i,80479.29999995232,2002.3999999761581,1669841519691,2003,HRV,HRV_0295,2022-11-30 20:55:56
45,"[{'imgObject': {}, 'id': 'popsicles', 'src': '/static/foodstim60/popsicles.jpg', 'key': 'u', 'origWidth': 410, 'origHeight': 410, 'width': 410, 'height': 410, 'widthPercent': 0.45, 'rescaleHeight': False, 'trialN': 45, 'loaded': True, 'loadedTime': 4187, 'positionName': 'LEFT', 'positionCoords': [272.56, 195], 'bid': 6.2700000000000005}, {'imgObject': {}, 'id': 'burrito', 'src': '/static/foodstim60/burrito.jpg', 'key': 'i', 'origWidth': 410, 'origHeight': 410, 'width': 410, 'height': 410, 'widthPercent': 0.45, 'rescaleHeight': False, 'trialN': 45, 'loaded': True, 'loadedTime': 4043.5, 'positionName': 'RIGHT', 'positionCoords': [739.44, 195], 'bid': 5.99}]",80479.5,1669841519691,popsicles,burrito,6.2700000000000005,5.99,-0.28000000000000025,popsicles,936.1999999284744,937,936.7999999523163,True,u,81918.60000002384,1439.1000000238419,1669841521130,1439,HRV,HRV_0295,2022-11-30 20:55:56
46,"[{'imgObject': {}, 'id': 'froot loops w milk', 'src': '/static/foodstim60/froot loops w milk.jpg', 'key': 'u', 'origWidth': 410, 'origHeight': 410, 'width': 410, 'height': 410, 'widthPercent': 0.45, 'rescaleHeight': False, 'trialN': 46, 'loaded': True, 'loadedTime': 3931.6999999284744, 'positionName': 'LEFT', 'positionCoords': [272.56, 195], 'bid': 2.38}, {'imgObject': {}, 'id': 'baked potato', 'src': '/static/foodstim60/baked potato.jpg', 'key': 'i', 'origWidth': 409, 'origHeight': 410, 'width': 409, 'height': 410, 'widthPercent': 0.45, 'rescaleHeight': False, 'trialN': 46, 'loaded': True, 'loadedTime': 3924.100000023842, 'positionName': 'RIGHT', 'positionCoords': [739.44, 195], 'bid': 1.52}]",81918.79999995232,1669841521130,froot loops w milk,baked potato,2.38,1.52,-0.8599999999999999,froot loops w milk,1503.5,1504,1503.8000000715256,True,u,83933.69999992847,2014.8999999761581,1669841523145,2015,HRV,HRV_0295,2022-11-30 20:55:56
47,"[{'imgObject': {}, 'id': 'mac & cheese', 'src': '/static/foodstim60/mac & cheese.jpg', 'key': 'u', 'origWidth': 410, 'origHeight': 410, 'width': 410, 'height': 410, 'widthPercent': 0.45, 'rescaleHeight': False, 'trialN': 47, 'loaded': True, 'loadedTime': 3983.899999976158, 'positionName': 'LEFT', 'positionCoords': [272.56, 195], 'bid': 3.35}, {'imgObject': {}, 'id': 'omelette', 'src': '/static/foodstim60/omelette.jpg', 'key': 'i', 'origWidth': 410, 'origHeight': 409, 'width': 410, 'height': 409, 'widthPercent': 0.45, 'rescaleHeight': False, 'trialN': 47, 'loaded': True, 'loadedTime': 4140.600000023842, 'positionName': 'RIGHT', 'positionCoords': [739.44, 195.5], 'bid': 2.66}]",83934.0,1669841523145,mac & cheese,omelette,3.35,2.66,-0.69,omelette,1431.7999999523163,1433,1432.5,True,i,85872.0,1938.0,1669841525083,1938,HRV,HRV_0295,2022-11-30 20:55:56
48,"[{'imgObject': {}, 'id': 'lox', 'src': '/static/foodstim60/lox.jpg', 'key': 'u', 'origWidth': 410, 'origHeight': 411, 'width': 410, 'height': 411, 'widthPercent': 0.45, 'rescaleHeight': False, 'trialN': 48, 'loaded': True, 'loadedTime': 4158.699999928474, 'positionName': 'LEFT', 'positionCoords': [272.56, 194.5], 'bid': 0.16}, {'imgObject': {}, 'id': 'shreddedwheatwithmilk', 'src': '/static/foodstim60/shreddedwheatwithmilk.jpg', 'key': 'i', 'origWidth': 410, 'origHeight': 410, 'width': 410, 'height': 410, 'widthPercent': 0.45, 'rescaleHeight': False, 'trialN': 48, 'loaded': True, 'loadedTime': 4122.699999928474, 'positionName': 'RIGHT', 'positionCoords': [739.44, 195], 'bid': 0.68}]",85872.19999992847,1669841525083,lox,shreddedwheatwithmilk,0.16,0.68,0.52,shreddedwheatwithmilk,2204.8000000715256,2206,2205.100000023842,True,i,88594.60000002384,2722.4000000953674,1669841527806,2723,HRV,HRV_0295,2022-11-30 20:55:56
49,"[{'imgObject': {}, 'id': 'bagel and cc', 'src': '/static/foodstim60/bagel and cc.jpg', 'key': 'u', 'origWidth': 410, 'origHeight': 410, 'width': 410, 'height': 410, 'widthPercent': 0.45, 'rescaleHeight': False, 'trialN': 49, 'loaded': True, 'loadedTime': 3928.2999999523163, 'positionName': 'LEFT', 'positionCoords': [272.56, 195], 'bid': 1.1}, {'imgObject': {}, 'id': 'hashbrowns', 'src': '/static/foodstim60/hashbrowns.jpg', 'key': 'i', 'origWidth': 411, 'origHeight': 410, 'width': 411, 'height': 410, 'widthPercent': 0.45, 'rescaleHeight': False, 'trialN': 49, 'loaded': True, 'loadedTime': 4090.7999999523163, 'positionName': 'RIGHT', 'positionCoords': [739.44, 195], 'bid': 1.34}]",88594.89999997616,1669841527806,bagel and cc,hashbrowns,1.1,1.34,0.24,bagel and cc,2049.7999999523163,2050,2050.2000000476837,True,u,91162.29999995232,2567.399999976158,1669841530374,2568,HRV,HRV_0295,2022-11-30 20:55:56
50,"[{'imgObject': {}, 'id': 'hashbrowns', 'src': '/static/foodstim60/hashbrowns.jpg', 'key': 'u', 'origWidth': 411, 'origHeight': 410, 'width': 411, 'height': 410, 'widthPercent': 0.45, 'rescaleHeight': False, 'trialN': 50, 'loaded': True, 'loadedTime': 4090.1999999284744, 'positionName': 'LEFT', 'positionCoords': [271.56, 195], 'bid': 1.34}, {'imgObject': {}, 'id': 'seaweed', 'src': '/static/foodstim60/seaweed.jpg', 'key': 'i', 'origWidth': 410, 'origHeight': 410, 'width': 410, 'height': 410, 'widthPercent': 0.45, 'rescaleHeight': False, 'trialN': 50, 'loaded': True, 'loadedTime': 4168.699999928474, 'positionName': 'RIGHT', 'positionCoords': [739.44, 195], 'bid': 0.13}]",91162.60000002384,1669841530374,hashbrowns,seaweed,1.34,0.13,-1.21,seaweed,1773.7999999523163,1774,1774.1999999284744,True,i,93445.10000002384,2282.5,1669841532656,2282,HRV,HRV_0295,2022-11-30 20:55:56
51,"[{'imgObject': {}, 'id': 'rigatoni and sauce', 'src': '/static/foodstim60/rigatoni and sauce.jpg', 'key': 'u', 'origWidth': 410, 'origHeight': 411, 'width': 410, 'height': 411, 'widthPercent': 0.45, 'rescaleHeight': False, 'trialN': 51, 'loaded': True, 'loadedTime': 3934.1999999284744, 'positionName': 'LEFT', 'positionCoords': [272.56, 194.5], 'bid': 2.96}, {'imgObject': {}, 'id': 'roastedpotatoes', 'src': '/static/foodstim60/roastedpotatoes.jpg', 'key': 'i', 'origWidth': 409, 'origHeight': 410, 'width': 409, 'height': 410, 'widthPercent': 0.45, 'rescaleHeight': False, 'trialN': 51, 'loaded': True, 'loadedTime': 3939.5, 'positionName': 'RIGHT', 'positionCoords': [739.44, 195], 'bid': 4.95}]",93445.39999997616,1669841532657,rigatoni and sauce,roastedpotatoes,2.96,4.95,1.9900000000000002,roastedpotatoes,1086.7000000476837,1087,1087.1000000238419,True,i,95045.5,1600.1000000238419,1669841534257,1600,HRV,HRV_0295,2022-11-30 20:55:56
52,"[{'imgObject': {}, 'id': 'cantaloupe', 'src': '/static/foodstim60/cantaloupe.jpg', 'key': 'u', 'origWidth': 409, 'origHeight': 409, 'width': 409, 'height': 409, 'widthPercent': 0.45, 'rescaleHeight': False, 'trialN': 52, 'loaded': True, 'loadedTime': 4139.5, 'positionName': 'LEFT', 'positionCoords': [273.56, 195.5], 'bid': 8.72}, {'imgObject': {}, 'id': 'sushi w_condiments', 'src': '/static/foodstim60/sushi w_condiments.jpg', 'key': 'i', 'origWidth': 410, 'origHeight': 410, 'width': 410, 'height': 410, 'widthPercent': 0.45, 'rescaleHeight': False, 'trialN': 52, 'loaded': True, 'loadedTime': 4117.899999976158, 'positionName': 'RIGHT', 'positionCoords': [739.44, 195], 'bid': 4.97}]",95045.69999992847,1669841534257,cantaloupe,sushi w_condiments,8.72,4.97,-3.750000000000001,cantaloupe,1180.3000000715256,1181,1180.8000000715256,True,u,96729.60000002384,1683.9000000953674,1669841535941,1684,HRV,HRV_0295,2022-11-30 20:55:56
53,"[{'imgObject': {}, 'id': 'sweetpotato', 'src': '/static/foodstim60/sweetpotato.jpg', 'key': 'u', 'origWidth': 410, 'origHeight': 410, 'width': 410, 'height': 410, 'widthPercent': 0.45, 'rescaleHeight': False, 'trialN': 53, 'loaded': True, 'loadedTime': 4171.299999952316, 'positionName': 'LEFT', 'positionCoords': [272.56, 195], 'bid': 4.38}, {'imgObject': {}, 'id': 'pear', 'src': '/static/foodstim60/pear.jpg', 'key': 'i', 'origWidth': 411, 'origHeight': 410, 'width': 411, 'height': 410, 'widthPercent': 0.45, 'rescaleHeight': False, 'trialN': 53, 'loaded': True, 'loadedTime': 4120.100000023842, 'positionName': 'RIGHT', 'positionCoords': [739.44, 195], 'bid': 8.17}]",96729.79999995232,1669841535941,sweetpotato,pear,4.38,8.17,3.79,pear,1392.3999999761581,1393,1392.8000000715256,True,i,98633.29999995232,1903.5,1669841537845,1904,HRV,HRV_0295,2022-11-30 20:55:56
54,"[{'imgObject': {}, 'id': 'bagel plain', 'src': '/static/foodstim60/bagel plain.jpg', 'key': 'u', 'origWidth': 410, 'origHeight': 410, 'width': 410, 'height': 410, 'widthPercent': 0.45, 'rescaleHeight': False, 'trialN': 54, 'loaded': True, 'loadedTime': 4082.899999976158, 'positionName': 'LEFT', 'positionCoords': [272.56, 195], 'bid': 0.16}, {'imgObject': {}, 'id': 'lox', 'src': '/static/foodstim60/lox.jpg', 'key': 'i', 'origWidth': 410, 'origHeight': 411, 'width': 410, 'height': 411, 'widthPercent': 0.45, 'rescaleHeight': False, 'trialN': 54, 'loaded': True, 'loadedTime': 4158.600000023842, 'positionName': 'RIGHT', 'positionCoords': [739.44, 194.5], 'bid': 0.16}]",98633.69999992847,1669841537845,bagel plain,lox,0.16,0.16,0.0,lox,1492.5,1493,1492.7000000476837,True,i,100630.10000002384,1996.4000000953674,1669841539841,1996,HRV,HRV_0295,2022-11-30 20:55:56
55,"[{'imgObject': {}, 'id': 'orange slices', 'src': '/static/foodstim60/orange slices.jpg', 'key': 'u', 'origWidth': 409, 'origHeight': 410, 'width': 409, 'height': 410, 'widthPercent': 0.45, 'rescaleHeight': False, 'trialN': 55, 'loaded': True, 'loadedTime': 4070.100000023842, 'positionName': 'LEFT', 'positionCoords': [273.56, 195], 'bid': 7.81}, {'imgObject': {}, 'id': 'ice cream sundae 002', 'src': '/static/foodstim60/ice cream sundae 002.jpg', 'key': 'i', 'origWidth': 409, 'origHeight': 409, 'width': 409, 'height': 409, 'widthPercent': 0.45, 'rescaleHeight': False, 'trialN': 55, 'loaded': True, 'loadedTime': 4172.5, 'positionName': 'RIGHT', 'positionCoords': [739.44, 195.5], 'bid': 7.61}]",100630.39999997616,1669841539842,orange slices,ice cream sundae 002,7.81,7.61,-0.1999999999999993,ice cream sundae 002,798.7000000476837,799,798.8999999761581,True,i,101932.39999997616,1302.0,1669841541144,1302,HRV,HRV_0295,2022-11-30 20:55:56
56,"[{'imgObject': {}, 'id': 'yogurt no spoon', 'src': '/static/foodstim60/yogurt no spoon.jpg', 'key': 'u', 'origWidth': 411, 'origHeight': 410, 'width': 411, 'height': 410, 'widthPercent': 0.45, 'rescaleHeight': False, 'trialN': 56, 'loaded': True, 'loadedTime': 3944.6999999284744, 'positionName': 'LEFT', 'positionCoords': [271.56, 195], 'bid': 9.03}, {'imgObject': {}, 'id': 'fruitsalad', 'src': '/static/foodstim60/fruitsalad.jpg', 'key': 'i', 'origWidth': 410, 'origHeight': 410, 'width': 410, 'height': 410, 'widthPercent': 0.45, 'rescaleHeight': False, 'trialN': 56, 'loaded': True, 'loadedTime': 4173.5, 'positionName': 'RIGHT', 'positionCoords': [739.44, 195], 'bid': 7.12}]",101932.5,1669841541144,yogurt no spoon,fruitsalad,9.03,7.12,-1.9099999999999993,yogurt no spoon,887.6000000238419,888,888.1999999284744,True,u,103329.29999995232,1396.7999999523163,1669841542541,1397,HRV,HRV_0295,2022-11-30 20:55:56
57,"[{'imgObject': {}, 'id': 'fried eggs', 'src': '/static/foodstim60/fried eggs.jpg', 'key': 'u', 'origWidth': 410, 'origHeight': 410, 'width': 410, 'height': 410, 'widthPercent': 0.45, 'rescaleHeight': False, 'trialN': 57, 'loaded': True, 'loadedTime': 4095.100000023842, 'positionName': 'LEFT', 'positionCoords': [272.56, 195], 'bid': 3.28}, {'imgObject': {}, 'id': 'blueberries', 'src': '/static/foodstim60/blueberries.jpg', 'key': 'i', 'origWidth': 411, 'origHeight': 411, 'width': 411, 'height': 411, 'widthPercent': 0.45, 'rescaleHeight': False, 'trialN': 57, 'loaded': True, 'loadedTime': 4018.600000023842, 'positionName': 'RIGHT', 'positionCoords': [739.44, 194.5], 'bid': 9.95}]",103329.5,1669841542541,fried eggs,blueberries,3.28,9.95,6.67,blueberries,804.6999999284744,805,805.1000000238419,True,i,104645.69999992847,1316.1999999284744,1669841543857,1316,HRV,HRV_0295,2022-11-30 20:55:56
58,"[{'imgObject': {}, 'id': 'luckycharms', 'src': '/static/foodstim60/luckycharms.jpg', 'key': 'u', 'origWidth': 410, 'origHeight': 409, 'width': 410, 'height': 409, 'widthPercent': 0.45, 'rescaleHeight': False, 'trialN': 58, 'loaded': True, 'loadedTime': 4089.2999999523163, 'positionName': 'LEFT', 'positionCoords': [272.56, 195.5], 'bid': 1.56}, {'imgObject': {}, 'id': 'corn cob', 'src': '/static/foodstim60/corn cob.jpg', 'key': 'i', 'origWidth': 411, 'origHeight': 411, 'width': 411, 'height': 411, 'widthPercent': 0.45, 'rescaleHeight': False, 'trialN': 58, 'loaded': True, 'loadedTime': 3970, 'positionName': 'RIGHT', 'positionCoords': [739.44, 194.5], 'bid': 2.39}]",104645.79999995232,1669841543857,luckycharms,corn cob,1.56,2.39,0.8300000000000001,luckycharms,1728.6000000238419,1729,1729.0,True,u,106882.29999995232,2236.5,1669841546094,2237,HRV,HRV_0295,2022-11-30 20:55:56
59,"[{'imgObject': {}, 'id': 'rigatoni and sauce', 'src': '/static/foodstim60/rigatoni and sauce.jpg', 'key': 'u', 'origWidth': 410, 'origHeight': 411, 'width': 410, 'height': 411, 'widthPercent': 0.45, 'rescaleHeight': False, 'trialN': 59, 'loaded': True, 'loadedTime': 3934, 'positionName': 'LEFT', 'positionCoords': [272.56, 194.5], 'bid': 2.96}, {'imgObject': {}, 'id': 'yogurt no spoon', 'src': '/static/foodstim60/yogurt no spoon.jpg', 'key': 'i', 'origWidth': 411, 'origHeight': 410, 'width': 411, 'height': 410, 'widthPercent': 0.45, 'rescaleHeight': False, 'trialN': 59, 'loaded': True, 'loadedTime': 3952, 'positionName': 'RIGHT', 'positionCoords': [739.44, 195], 'bid': 9.03}]",106882.5,1669841546094,rigatoni and sauce,yogurt no spoon,2.96,9.03,6.069999999999999,yogurt no spoon,757.7999999523163,758,758.1000000238419,True,i,108144.39999997616,1261.8999999761581,1669841547356,1262,HRV,HRV_0295,2022-11-30 20:55:56
60,"[{'imgObject': {}, 'id': 'hashbrowns', 'src': '/static/foodstim60/hashbrowns.jpg', 'key': 'u', 'origWidth': 411, 'origHeight': 410, 'width': 411, 'height': 410, 'widthPercent': 0.45, 'rescaleHeight': False, 'trialN': 60, 'loaded': True, 'loadedTime': 4090.6999999284744, 'positionName': 'LEFT', 'positionCoords': [271.56, 195], 'bid': 1.34}, {'imgObject': {}, 'id': 'eggsalad', 'src': '/static/foodstim60/eggsalad.jpg', 'key': 'i', 'origWidth': 410, 'origHeight': 409, 'width': 410, 'height': 409, 'widthPercent': 0.45, 'rescaleHeight': False, 'trialN': 60, 'loaded': True, 'loadedTime': 4079.6999999284744, 'positionName': 'RIGHT', 'positionCoords': [739.44, 195.5], 'bid': 5.8100000000000005}]",108144.60000002384,1669841547356,hashbrowns,eggsalad,1.34,5.8100000000000005,4.470000000000001,eggsalad,1122.1999999284744,1127,1122.6999999284744,True,i,109777.89999997616,1633.2999999523163,1669841548993,1637,HRV,HRV_0295,2022-11-30 20:55:56
61,"[{'imgObject': {}, 'id': 'mango', 'src': '/static/foodstim60/mango.jpg', 'key': 'u', 'origWidth': 411, 'origHeight': 411, 'width': 411, 'height': 411, 'widthPercent': 0.45, 'rescaleHeight': False, 'trialN': 61, 'loaded': True, 'loadedTime': 3953.100000023842, 'positionName': 'LEFT', 'positionCoords': [271.56, 194.5], 'bid': 5.71}, {'imgObject': {}, 'id': 'tacos', 'src': '/static/foodstim60/tacos.jpg', 'key': 'i', 'origWidth': 411, 'origHeight': 411, 'width': 411, 'height': 411, 'widthPercent': 0.45, 'rescaleHeight': False, 'trialN': 61, 'loaded': True, 'loadedTime': 3937.7999999523163, 'positionName': 'RIGHT', 'positionCoords': [739.44, 194.5], 'bid': 4.92}]",109778.10000002384,1669841548993,mango,tacos,5.71,4.92,-0.79,mango,1299.7999999523163,1300,1300.0999999046326,True,u,111590.5,1812.3999999761581,1669841550806,1813,HRV,HRV_0295,2022-11-30 20:55:56
62,"[{'imgObject': {}, 'id': 'fruitsalad', 'src': '/static/foodstim60/fruitsalad.jpg', 'key': 'u', 'origWidth': 410, 'origHeight': 410, 'width': 410, 'height': 410, 'widthPercent': 0.45, 'rescaleHeight': False, 'trialN': 62, 'loaded': True, 'loadedTime': 4173.699999928474, 'positionName': 'LEFT', 'positionCoords': [272.56, 195], 'bid': 7.12}, {'imgObject': {}, 'id': 'popsicles', 'src': '/static/foodstim60/popsicles.jpg', 'key': 'i', 'origWidth': 410, 'origHeight': 410, 'width': 410, 'height': 410, 'widthPercent': 0.45, 'rescaleHeight': False, 'trialN': 62, 'loaded': True, 'loadedTime': 4187, 'positionName': 'RIGHT', 'positionCoords': [739.44, 195], 'bid': 6.2700000000000005}]",111590.89999997616,1669841550806,fruitsalad,popsicles,7.12,6.2700000000000005,-0.8499999999999996,fruitsalad,1626.6000000238419,1627,1627.0,True,u,113732.79999995232,2141.899999976158,1669841552948,2142,HRV,HRV_0295,2022-11-30 20:55:56
63,"[{'imgObject': {}, 'id': 'salmon', 'src': '/static/foodstim60/salmon.jpg', 'key': 'u', 'origWidth': 410, 'origHeight': 409, 'width': 410, 'height': 409, 'widthPercent': 0.45, 'rescaleHeight': False, 'trialN': 63, 'loaded': True, 'loadedTime': 3932.600000023842, 'positionName': 'LEFT', 'positionCoords': [272.56, 195.5], 'bid': 2.63}, {'imgObject': {}, 'id': 'cherry tomato', 'src': '/static/foodstim60/cherry tomato.jpg', 'key': 'i', 'origWidth': 410, 'origHeight': 410, 'width': 410, 'height': 410, 'widthPercent': 0.45, 'rescaleHeight': False, 'trialN': 63, 'loaded': True, 'loadedTime': 4174.899999976158, 'positionName': 'RIGHT', 'positionCoords': [739.44, 195], 'bid': 1.7}]",113732.89999997616,1669841552948,salmon,cherry tomato,2.63,1.7,-0.9299999999999999,cherry tomato,1874.2999999523163,1875,1874.6000000238419,True,i,116111.10000002384,2378.2000000476837,1669841555326,2378,HRV,HRV_0295,2022-11-30 20:55:56
64,"[{'imgObject': {}, 'id': 'raisin bran w milk', 'src': '/static/foodstim60/raisin bran w milk.jpg', 'key': 'u', 'origWidth': 411, 'origHeight': 411, 'width': 411, 'height': 411, 'widthPercent': 0.45, 'rescaleHeight': False, 'trialN': 64, 'loaded': True, 'loadedTime': 4142.299999952316, 'positionName': 'LEFT', 'positionCoords': [271.56, 194.5], 'bid': 1.07}, {'imgObject': {}, 'id': 'grilled chicken strips', 'src': '/static/foodstim60/grilled chicken strips.jpg', 'key': 'i', 'origWidth': 410, 'origHeight': 411, 'width': 410, 'height': 411, 'widthPercent': 0.45, 'rescaleHeight': False, 'trialN': 64, 'loaded': True, 'loadedTime': 4175.699999928474, 'positionName': 'RIGHT', 'positionCoords': [739.44, 194.5], 'bid': 2.77}]",116111.29999995232,1669841555326,raisin bran w milk,grilled chicken strips,1.07,2.77,1.7,raisin bran w milk,1711.8000000715256,1713,1712.2000000476837,True,u,118329.5,2218.2000000476837,1669841557545,2219,HRV,HRV_0295,2022-11-30 20:55:56
65,"[{'imgObject': {}, 'id': 'strawberries', 'src': '/static/foodstim60/strawberries.jpg', 'key': 'u', 'origWidth': 410, 'origHeight': 410, 'width': 410, 'height': 410, 'widthPercent': 0.45, 'rescaleHeight': False, 'trialN': 65, 'loaded': True, 'loadedTime': 4095.1999999284744, 'positionName': 'LEFT', 'positionCoords': [272.56, 195], 'bid': 9}, {'imgObject': {}, 'id': 'orange slices', 'src': '/static/foodstim60/orange slices.jpg', 'key': 'i', 'origWidth': 409, 'origHeight': 410, 'width': 409, 'height': 410, 'widthPercent': 0.45, 'rescaleHeight': False, 'trialN': 65, 'loaded': True, 'loadedTime': 4069.5, 'positionName': 'RIGHT', 'positionCoords': [739.44, 195], 'bid': 7.81}]",118329.69999992847,1669841557545,strawberries,orange slices,9.0,7.81,-1.1900000000000004,strawberries,1425.2000000476837,1426,1425.7000000476837,True,u,120263.39999997616,1933.7000000476837,1669841559479,1934,HRV,HRV_0295,2022-11-30 20:55:56
66,"[{'imgObject': {}, 'id': 'burger', 'src': '/static/foodstim60/burger.jpg', 'key': 'u', 'origWidth': 409, 'origHeight': 409, 'width': 409, 'height': 409, 'widthPercent': 0.45, 'rescaleHeight': False, 'trialN': 66, 'loaded': True, 'loadedTime': 4156.5, 'positionName': 'LEFT', 'positionCoords': [273.56, 195.5], 'bid': 3.49}, {'imgObject': {}, 'id': 'mac & cheese', 'src': '/static/foodstim60/mac & cheese.jpg', 'key': 'i', 'origWidth': 410, 'origHeight': 410, 'width': 410, 'height': 410, 'widthPercent': 0.45, 'rescaleHeight': False, 'trialN': 66, 'loaded': True, 'loadedTime': 3984.1999999284744, 'positionName': 'RIGHT', 'positionCoords': [739.44, 195], 'bid': 3.35}]",120264.19999992847,1669841559479,burger,mac & cheese,3.49,3.35,-0.14000000000000012,burger,1334.3000000715256,1336,1335.3000000715256,True,u,122113.10000002384,1848.9000000953674,1669841561328,1849,HRV,HRV_0295,2022-11-30 20:55:56
67,"[{'imgObject': {}, 'id': 'ice cream sundae 002', 'src': '/static/foodstim60/ice cream sundae 002.jpg', 'key': 'u', 'origWidth': 409, 'origHeight': 409, 'width': 409, 'height': 409, 'widthPercent': 0.45, 'rescaleHeight': False, 'trialN': 67, 'loaded': True, 'loadedTime': 4171.699999928474, 'positionName': 'LEFT', 'positionCoords': [273.56, 195.5], 'bid': 7.61}, {'imgObject': {}, 'id': 'pear', 'src': '/static/foodstim60/pear.jpg', 'key': 'i', 'origWidth': 411, 'origHeight': 410, 'width': 411, 'height': 410, 'widthPercent': 0.45, 'rescaleHeight': False, 'trialN': 67, 'loaded': True, 'loadedTime': 4119.399999976158, 'positionName': 'RIGHT', 'positionCoords': [739.44, 195], 'bid': 8.17}]",122113.29999995232,1669841561329,ice cream sundae 002,pear,7.61,8.17,0.5599999999999996,ice cream sundae 002,904.0,904,904.5,True,u,123529.39999997616,1416.1000000238419,1669841562745,1416,HRV,HRV_0295,2022-11-30 20:55:56
68,"[{'imgObject': {}, 'id': 'cherries', 'src': '/static/foodstim60/cherries.jpg', 'key': 'u', 'origWidth': 410, 'origHeight': 411, 'width': 410, 'height': 411, 'widthPercent': 0.45, 'rescaleHeight': False, 'trialN': 68, 'loaded': True, 'loadedTime': 4003.6999999284744, 'positionName': 'LEFT', 'positionCoords': [272.56, 194.5], 'bid': 9.02}, {'imgObject': {}, 'id': 'grilled chicken strips', 'src': '/static/foodstim60/grilled chicken strips.jpg', 'key': 'i', 'origWidth': 410, 'origHeight': 411, 'width': 410, 'height': 411, 'widthPercent': 0.45, 'rescaleHeight': False, 'trialN': 68, 'loaded': True, 'loadedTime': 4175.799999952316, 'positionName': 'RIGHT', 'positionCoords': [739.44, 194.5], 'bid': 2.77}]",123529.60000002384,1669841562745,cherries,grilled chicken strips,9.02,2.77,-6.25,cherries,1192.1999999284744,1192,1192.5,True,u,125228.29999995232,1698.6999999284744,1669841564444,1699,HRV,HRV_0295,2022-11-30 20:55:56
69,"[{'imgObject': {}, 'id': 'roastedpotatoes', 'src': '/static/foodstim60/roastedpotatoes.jpg', 'key': 'u', 'origWidth': 409, 'origHeight': 410, 'width': 409, 'height': 410, 'widthPercent': 0.45, 'rescaleHeight': False, 'trialN': 69, 'loaded': True, 'loadedTime': 3938, 'positionName': 'LEFT', 'positionCoords': [273.56, 195], 'bid': 4.95}, {'imgObject': {}, 'id': 'sushi w_condiments', 'src': '/static/foodstim60/sushi w_condiments.jpg', 'key': 'i', 'origWidth': 410, 'origHeight': 410, 'width': 410, 'height': 410, 'widthPercent': 0.45, 'rescaleHeight': False, 'trialN': 69, 'loaded': True, 'loadedTime': 4118.100000023842, 'positionName': 'RIGHT', 'positionCoords': [739.44, 195], 'bid': 4.97}]",125228.60000002384,1669841564444,roastedpotatoes,sushi w_condiments,4.95,4.97,0.019999999999999574,sushi w_condiments,1444.0999999046326,1444,1444.5,True,i,127194.69999992847,1966.0999999046326,1669841566410,1966,HRV,HRV_0295,2022-11-30 20:55:56
70,"[{'imgObject': {}, 'id': 'banana', 'src': '/static/foodstim60/banana.jpg', 'key': 'u', 'origWidth': 410, 'origHeight': 410, 'width': 410, 'height': 410, 'widthPercent': 0.45, 'rescaleHeight': False, 'trialN': 70, 'loaded': True, 'loadedTime': 3930.100000023842, 'positionName': 'LEFT', 'positionCoords': [272.56, 195], 'bid': 1.84}, {'imgObject': {}, 'id': 'ice cream sundae 002', 'src': '/static/foodstim60/ice cream sundae 002.jpg', 'key': 'i', 'origWidth': 409, 'origHeight': 409, 'width': 409, 'height': 409, 'widthPercent': 0.45, 'rescaleHeight': False, 'trialN': 70, 'loaded': True, 'loadedTime': 4172.5, 'positionName': 'RIGHT', 'positionCoords': [739.44, 195.5], 'bid': 7.61}]",127194.89999997616,1669841566410,banana,ice cream sundae 002,1.84,7.61,5.7700000000000005,ice cream sundae 002,1275.5,1276,1275.7999999523163,True,i,128980.10000002384,1785.2000000476837,1669841568195,1785,HRV,HRV_0295,2022-11-30 20:55:56
71,"[{'imgObject': {}, 'id': 'luckycharms', 'src': '/static/foodstim60/luckycharms.jpg', 'key': 'u', 'origWidth': 410, 'origHeight': 409, 'width': 410, 'height': 409, 'widthPercent': 0.45, 'rescaleHeight': False, 'trialN': 71, 'loaded': True, 'loadedTime': 4087.7999999523163, 'positionName': 'LEFT', 'positionCoords': [272.56, 195.5], 'bid': 1.56}, {'imgObject': {}, 'id': 'cherry tomato', 'src': '/static/foodstim60/cherry tomato.jpg', 'key': 'i', 'origWidth': 410, 'origHeight': 410, 'width': 410, 'height': 410, 'widthPercent': 0.45, 'rescaleHeight': False, 'trialN': 71, 'loaded': True, 'loadedTime': 4173.899999976158, 'positionName': 'RIGHT', 'positionCoords': [739.44, 195], 'bid': 1.7}]",128981.10000002384,1669841568196,luckycharms,cherry tomato,1.56,1.7,0.1399999999999999,luckycharms,1164.5,1166,1165.2999999523163,True,u,130664.79999995232,1683.6999999284744,1669841569880,1684,HRV,HRV_0295,2022-11-30 20:55:56
72,"[{'imgObject': {}, 'id': 'corn cob', 'src': '/static/foodstim60/corn cob.jpg', 'key': 'u', 'origWidth': 411, 'origHeight': 411, 'width': 411, 'height': 411, 'widthPercent': 0.45, 'rescaleHeight': False, 'trialN': 72, 'loaded': True, 'loadedTime': 3969.899999976158, 'positionName': 'LEFT', 'positionCoords': [271.56, 194.5], 'bid': 2.39}, {'imgObject': {}, 'id': 'salmon', 'src': '/static/foodstim60/salmon.jpg', 'key': 'i', 'origWidth': 410, 'origHeight': 409, 'width': 410, 'height': 409, 'widthPercent': 0.45, 'rescaleHeight': False, 'trialN': 72, 'loaded': True, 'loadedTime': 3932.6999999284744, 'positionName': 'RIGHT', 'positionCoords': [739.44, 195.5], 'bid': 2.63}]",130665.10000002384,1669841569880,corn cob,salmon,2.39,2.63,0.23999999999999977,corn cob,1154.0,1155,1154.2999999523163,True,u,132329.79999995232,1664.6999999284744,1669841571545,1665,HRV,HRV_0295,2022-11-30 20:55:56
73,"[{'imgObject': {}, 'id': 'hotdog w must', 'src': '/static/foodstim60/hotdog w must.jpg', 'key': 'u', 'origWidth': 409, 'origHeight': 409, 'width': 409, 'height': 409, 'widthPercent': 0.45, 'rescaleHeight': False, 'trialN': 73, 'loaded': True, 'loadedTime': 4154.600000023842, 'positionName': 'LEFT', 'positionCoords': [273.56, 195.5], 'bid': 3.28}, {'imgObject': {}, 'id': 'raspberries', 'src': '/static/foodstim60/raspberries.jpg', 'key': 'i', 'origWidth': 411, 'origHeight': 411, 'width': 411, 'height': 411, 'widthPercent': 0.45, 'rescaleHeight': False, 'trialN': 73, 'loaded': True, 'loadedTime': 4121.199999928474, 'positionName': 'RIGHT', 'positionCoords': [739.44, 194.5], 'bid': 9.97}]",132330.10000002384,1669841571545,hotdog w must,raspberries,3.28,9.97,6.690000000000001,raspberries,617.5999999046326,618,617.8999999761581,True,i,133462.60000002384,1132.5,1669841572678,1133,HRV,HRV_0295,2022-11-30 20:55:56
74,"[{'imgObject': {}, 'id': 'grilled chicken strips', 'src': '/static/foodstim60/grilled chicken strips.jpg', 'key': 'u', 'origWidth': 410, 'origHeight': 411, 'width': 410, 'height': 411, 'widthPercent': 0.45, 'rescaleHeight': False, 'trialN': 74, 'loaded': True, 'loadedTime': 4174.899999976158, 'positionName': 'LEFT', 'positionCoords': [272.56, 194.5], 'bid': 2.77}, {'imgObject': {}, 'id': 'tacos', 'src': '/static/foodstim60/tacos.jpg', 'key': 'i', 'origWidth': 411, 'origHeight': 411, 'width': 411, 'height': 411, 'widthPercent': 0.45, 'rescaleHeight': False, 'trialN': 74, 'loaded': True, 'loadedTime': 3937.899999976158, 'positionName': 'RIGHT', 'positionCoords': [739.44, 194.5], 'bid': 4.92}]",133463.0,1669841572678,grilled chicken strips,tacos,2.77,4.92,2.15,tacos,1443.3999999761581,1444,1443.8999999761581,True,i,135413.5,1950.5,1669841574629,1951,HRV,HRV_0295,2022-11-30 20:55:56
75,"[{'imgObject': {}, 'id': 'cantaloupe', 'src': '/static/foodstim60/cantaloupe.jpg', 'key': 'u', 'origWidth': 409, 'origHeight': 409, 'width': 409, 'height': 409, 'widthPercent': 0.45, 'rescaleHeight': False, 'trialN': 75, 'loaded': True, 'loadedTime': 4139.600000023842, 'positionName': 'LEFT', 'positionCoords': [273.56, 195.5], 'bid': 8.72}, {'imgObject': {}, 'id': 'burrito', 'src': '/static/foodstim60/burrito.jpg', 'key': 'i', 'origWidth': 410, 'origHeight': 410, 'width': 410, 'height': 410, 'widthPercent': 0.45, 'rescaleHeight': False, 'trialN': 75, 'loaded': True, 'loadedTime': 4045.1999999284744, 'positionName': 'RIGHT', 'positionCoords': [739.44, 195], 'bid': 5.99}]",135414.5,1669841574630,cantaloupe,burrito,8.72,5.99,-2.7300000000000004,cantaloupe,999.2999999523163,1000,1000.0,True,u,136930.0,1515.5,1669841576145,1515,HRV,HRV_0295,2022-11-30 20:55:56
76,"[{'imgObject': {}, 'id': 'burger', 'src': '/static/foodstim60/burger.jpg', 'key': 'u', 'origWidth': 409, 'origHeight': 409, 'width': 409, 'height': 409, 'widthPercent': 0.45, 'rescaleHeight': False, 'trialN': 76, 'loaded': True, 'loadedTime': 4157.699999928474, 'positionName': 'LEFT', 'positionCoords': [273.56, 195.5], 'bid': 3.49}, {'imgObject': {}, 'id': 'veggieswithdip', 'src': '/static/foodstim60/veggieswithdip.jpg', 'key': 'i', 'origWidth': 409, 'origHeight': 409, 'width': 409, 'height': 409, 'widthPercent': 0.45, 'rescaleHeight': False, 'trialN': 76, 'loaded': True, 'loadedTime': 4057.6999999284744, 'positionName': 'RIGHT', 'positionCoords': [739.44, 195.5], 'bid': 6.4}]",136930.19999992847,1669841576145,burger,veggieswithdip,3.49,6.4,2.91,veggieswithdip,661.8000000715256,663,662.2000000476837,True,i,138098.60000002384,1168.4000000953674,1669841577314,1169,HRV,HRV_0295,2022-11-30 20:55:56
77,"[{'imgObject': {}, 'id': 'hotdog w must', 'src': '/static/foodstim60/hotdog w must.jpg', 'key': 'u', 'origWidth': 409, 'origHeight': 409, 'width': 409, 'height': 409, 'widthPercent': 0.45, 'rescaleHeight': False, 'trialN': 77, 'loaded': True, 'loadedTime': 4156.299999952316, 'positionName': 'LEFT', 'positionCoords': [273.56, 195.5], 'bid': 3.28}, {'imgObject': {}, 'id': 'turkeysandwich', 'src': '/static/foodstim60/turkeysandwich.jpg', 'key': 'i', 'origWidth': 409, 'origHeight': 409, 'width': 409, 'height': 409, 'widthPercent': 0.45, 'rescaleHeight': False, 'trialN': 77, 'loaded': True, 'loadedTime': 4176.600000023842, 'positionName': 'RIGHT', 'positionCoords': [739.44, 195.5], 'bid': 1.35}]",138099.0,1669841577314,hotdog w must,turkeysandwich,3.28,1.35,-1.9299999999999997,hotdog w must,1295.5,1296,1296.2999999523163,True,u,139904.0,1805.0,1669841579119,1805,HRV,HRV_0295,2022-11-30 20:55:56
78,"[{'imgObject': {}, 'id': 'corn cob', 'src': '/static/foodstim60/corn cob.jpg', 'key': 'u', 'origWidth': 411, 'origHeight': 411, 'width': 411, 'height': 411, 'widthPercent': 0.45, 'rescaleHeight': False, 'trialN': 78, 'loaded': True, 'loadedTime': 3967.899999976158, 'positionName': 'LEFT', 'positionCoords': [271.56, 194.5], 'bid': 2.39}, {'imgObject': {}, 'id': 'salad w chicken', 'src': '/static/foodstim60/salad w chicken.jpg', 'key': 'i', 'origWidth': 411, 'origHeight': 411, 'width': 411, 'height': 411, 'widthPercent': 0.45, 'rescaleHeight': False, 'trialN': 78, 'loaded': True, 'loadedTime': 3926.7999999523163, 'positionName': 'RIGHT', 'positionCoords': [739.44, 194.5], 'bid': 3.62}]",139904.19999992847,1669841579119,corn cob,salad w chicken,2.39,3.62,1.23,corn cob,1351.2000000476837,1352,1351.7000000476837,True,u,141765.89999997616,1861.7000000476837,1669841580981,1862,HRV,HRV_0295,2022-11-30 20:55:56
79,"[{'imgObject': {}, 'id': 'avocado', 'src': '/static/foodstim60/avocado.jpg', 'key': 'u', 'origWidth': 409, 'origHeight': 409, 'width': 409, 'height': 409, 'widthPercent': 0.45, 'rescaleHeight': False, 'trialN': 79, 'loaded': True, 'loadedTime': 3924.100000023842, 'positionName': 'LEFT', 'positionCoords': [273.56, 195.5], 'bid': 3.81}, {'imgObject': {}, 'id': 'sweetpotato', 'src': '/static/foodstim60/sweetpotato.jpg', 'key': 'i', 'origWidth': 410, 'origHeight': 410, 'width': 410, 'height': 410, 'widthPercent': 0.45, 'rescaleHeight': False, 'trialN': 79, 'loaded': True, 'loadedTime': 4171.199999928474, 'positionName': 'RIGHT', 'positionCoords': [739.44, 195], 'bid': 4.38}]",141766.5,1669841580982,avocado,sweetpotato,3.81,4.38,0.5699999999999998,avocado,1349.6000000238419,1350,1349.8999999761581,True,u,143622.0,1855.5,1669841582837,1855,HRV,HRV_0295,2022-11-30 20:55:56
80,"[{'imgObject': {}, 'id': 'shreddedwheatwithmilk', 'src': '/static/foodstim60/shreddedwheatwithmilk.jpg', 'key': 'u', 'origWidth': 410, 'origHeight': 410, 'width': 410, 'height': 410, 'widthPercent': 0.45, 'rescaleHeight': False, 'trialN': 80, 'loaded': True, 'loadedTime': 4122.699999928474, 'positionName': 'LEFT', 'positionCoords': [272.56, 195], 'bid': 0.68}, {'imgObject': {}, 'id': 'rigatoni', 'src': '/static/foodstim60/rigatoni.jpg', 'key': 'i', 'origWidth': 411, 'origHeight': 411, 'width': 411, 'height': 411, 'widthPercent': 0.45, 'rescaleHeight': False, 'trialN': 80, 'loaded': True, 'loadedTime': 4081.7999999523163, 'positionName': 'RIGHT', 'positionCoords': [739.44, 194.5], 'bid': 0.8200000000000001}]",143622.19999992847,1669841582837,shreddedwheatwithmilk,rigatoni,0.68,0.8200000000000001,0.14,shreddedwheatwithmilk,1587.4000000953674,1588,1587.7000000476837,True,u,145732.39999997616,2110.2000000476837,1669841584948,2111,HRV,HRV_0295,2022-11-30 20:55:56
81,"[{'imgObject': {}, 'id': 'sweetpotato', 'src': '/static/foodstim60/sweetpotato.jpg', 'key': 'u', 'origWidth': 410, 'origHeight': 410, 'width': 410, 'height': 410, 'widthPercent': 0.45, 'rescaleHeight': False, 'trialN': 81, 'loaded': True, 'loadedTime': 4171.399999976158, 'positionName': 'LEFT', 'positionCoords': [272.56, 195], 'bid': 4.38}, {'imgObject': {}, 'id': 'eggs', 'src': '/static/foodstim60/eggs.jpg', 'key': 'i', 'origWidth': 409, 'origHeight': 409, 'width': 409, 'height': 409, 'widthPercent': 0.45, 'rescaleHeight': False, 'trialN': 81, 'loaded': True, 'loadedTime': 4097.699999928474, 'positionName': 'RIGHT', 'positionCoords': [739.44, 195.5], 'bid': 2.74}]",145732.69999992847,1669841584948,sweetpotato,eggs,4.38,2.74,-1.6399999999999997,sweetpotato,1457.2000000476837,1457,1457.5,True,u,147702.29999995232,1969.6000000238419,1669841586918,1970,HRV,HRV_0295,2022-11-30 20:55:56
82,"[{'imgObject': {}, 'id': 'strawberries', 'src': '/static/foodstim60/strawberries.jpg', 'key': 'u', 'origWidth': 410, 'origHeight': 410, 'width': 410, 'height': 410, 'widthPercent': 0.45, 'rescaleHeight': False, 'trialN': 82, 'loaded': True, 'loadedTime': 4096.699999928474, 'positionName': 'LEFT', 'positionCoords': [272.56, 195], 'bid': 9}, {'imgObject': {}, 'id': 'popsicles', 'src': '/static/foodstim60/popsicles.jpg', 'key': 'i', 'origWidth': 410, 'origHeight': 410, 'width': 410, 'height': 410, 'widthPercent': 0.45, 'rescaleHeight': False, 'trialN': 82, 'loaded': True, 'loadedTime': 4186.899999976158, 'positionName': 'RIGHT', 'positionCoords': [739.44, 195], 'bid': 6.2700000000000005}]",147702.60000002384,1669841586918,strawberries,popsicles,9.0,6.2700000000000005,-2.7299999999999995,strawberries,1018.7999999523163,1019,1019.1999999284744,True,u,149230.29999995232,1527.6999999284744,1669841588445,1527,HRV,HRV_0295,2022-11-30 20:55:56
83,"[{'imgObject': {}, 'id': 'cherry tomato', 'src': '/static/foodstim60/cherry tomato.jpg', 'key': 'u', 'origWidth': 410, 'origHeight': 410, 'width': 410, 'height': 410, 'widthPercent': 0.45, 'rescaleHeight': False, 'trialN': 83, 'loaded': True, 'loadedTime': 4174.899999976158, 'positionName': 'LEFT', 'positionCoords': [272.56, 195], 'bid': 1.7}, {'imgObject': {}, 'id': 'fruitsalad', 'src': '/static/foodstim60/fruitsalad.jpg', 'key': 'i', 'origWidth': 410, 'origHeight': 410, 'width': 410, 'height': 410, 'widthPercent': 0.45, 'rescaleHeight': False, 'trialN': 83, 'loaded': True, 'loadedTime': 4172.699999928474, 'positionName': 'RIGHT', 'positionCoords': [739.44, 195], 'bid': 7.12}]",149230.5,1669841588446,cherry tomato,fruitsalad,1.7,7.12,5.42,fruitsalad,1004.2999999523163,1004,1004.7999999523163,True,i,150746.79999995232,1516.2999999523163,1669841589962,1516,HRV,HRV_0295,2022-11-30 20:55:56
84,"[{'imgObject': {}, 'id': 'salmon', 'src': '/static/foodstim60/salmon.jpg', 'key': 'u', 'origWidth': 410, 'origHeight': 409, 'width': 410, 'height': 409, 'widthPercent': 0.45, 'rescaleHeight': False, 'trialN': 84, 'loaded': True, 'loadedTime': 3932.399999976158, 'positionName': 'LEFT', 'positionCoords': [272.56, 195.5], 'bid': 2.63}, {'imgObject': {}, 'id': 'avocado', 'src': '/static/foodstim60/avocado.jpg', 'key': 'i', 'origWidth': 409, 'origHeight': 409, 'width': 409, 'height': 409, 'widthPercent': 0.45, 'rescaleHeight': False, 'trialN': 84, 'loaded': True, 'loadedTime': 3925.6999999284744, 'positionName': 'RIGHT', 'positionCoords': [739.44, 195.5], 'bid': 3.81}]",150747.10000002384,1669841589962,salmon,avocado,2.63,3.81,1.1800000000000002,avocado,842.6999999284744,843,843.0999999046326,True,i,152096.69999992847,1349.5999999046326,1669841591312,1350,HRV,HRV_0295,2022-11-30 20:55:56
85,"[{'imgObject': {}, 'id': 'turkey sandwich', 'src': '/static/foodstim60/turkey sandwich.jpg', 'key': 'u', 'origWidth': 409, 'origHeight': 409, 'width': 409, 'height': 409, 'widthPercent': 0.45, 'rescaleHeight': False, 'trialN': 85, 'loaded': True, 'loadedTime': 3944.5, 'positionName': 'LEFT', 'positionCoords': [273.56, 195.5], 'bid': 2.01}, {'imgObject': {}, 'id': 'orange slices', 'src': '/static/foodstim60/orange slices.jpg', 'key': 'i', 'origWidth': 409, 'origHeight': 410, 'width': 409, 'height': 410, 'widthPercent': 0.45, 'rescaleHeight': False, 'trialN': 85, 'loaded': True, 'loadedTime': 4069.600000023842, 'positionName': 'RIGHT', 'positionCoords': [739.44, 195], 'bid': 7.81}]",152096.89999997616,1669841591312,turkey sandwich,orange slices,2.01,7.81,5.8,orange slices,879.1000000238419,880,879.5,True,i,153480.0,1383.1000000238419,1669841592695,1383,HRV,HRV_0295,2022-11-30 20:55:56
86,"[{'imgObject': {}, 'id': 'cocktailshrimp', 'src': '/static/foodstim60/cocktailshrimp.jpg', 'key': 'u', 'origWidth': 410, 'origHeight': 410, 'width': 410, 'height': 410, 'widthPercent': 0.45, 'rescaleHeight': False, 'trialN': 86, 'loaded': True, 'loadedTime': 3922.399999976158, 'positionName': 'LEFT', 'positionCoords': [272.56, 195], 'bid': 0}, {'imgObject': {}, 'id': 'shreddedwheatwithmilk', 'src': '/static/foodstim60/shreddedwheatwithmilk.jpg', 'key': 'i', 'origWidth': 410, 'origHeight': 410, 'width': 410, 'height': 410, 'widthPercent': 0.45, 'rescaleHeight': False, 'trialN': 86, 'loaded': True, 'loadedTime': 4122.600000023842, 'positionName': 'RIGHT', 'positionCoords': [739.44, 195], 'bid': 0.68}]",153480.19999992847,1669841592695,cocktailshrimp,shreddedwheatwithmilk,0.0,0.68,0.68,shreddedwheatwithmilk,1085.0,1086,1085.4000000953674,True,i,155079.60000002384,1599.4000000953674,1669841594295,1600,HRV,HRV_0295,2022-11-30 20:55:56
87,"[{'imgObject': {}, 'id': 'blueberries', 'src': '/static/foodstim60/blueberries.jpg', 'key': 'u', 'origWidth': 411, 'origHeight': 411, 'width': 411, 'height': 411, 'widthPercent': 0.45, 'rescaleHeight': False, 'trialN': 87, 'loaded': True, 'loadedTime': 4019.1999999284744, 'positionName': 'LEFT', 'positionCoords': [271.56, 194.5], 'bid': 9.95}, {'imgObject': {}, 'id': 'ice cream sundae 002', 'src': '/static/foodstim60/ice cream sundae 002.jpg', 'key': 'i', 'origWidth': 409, 'origHeight': 409, 'width': 409, 'height': 409, 'widthPercent': 0.45, 'rescaleHeight': False, 'trialN': 87, 'loaded': True, 'loadedTime': 4172.5, 'positionName': 'RIGHT', 'positionCoords': [739.44, 195.5], 'bid': 7.61}]",155079.89999997616,1669841594295,blueberries,ice cream sundae 002,9.95,7.61,-2.339999999999999,blueberries,707.3999999761581,708,707.7000000476837,True,u,156298.10000002384,1218.2000000476837,1669841595513,1218,HRV,HRV_0295,2022-11-30 20:55:56
88,"[{'imgObject': {}, 'id': 'hotdog w must', 'src': '/static/foodstim60/hotdog w must.jpg', 'key': 'u', 'origWidth': 409, 'origHeight': 409, 'width': 409, 'height': 409, 'widthPercent': 0.45, 'rescaleHeight': False, 'trialN': 88, 'loaded': True, 'loadedTime': 4155.799999952316, 'positionName': 'LEFT', 'positionCoords': [273.56, 195.5], 'bid': 3.28}, {'imgObject': {}, 'id': 'sweetpotato', 'src': '/static/foodstim60/sweetpotato.jpg', 'key': 'i', 'origWidth': 410, 'origHeight': 410, 'width': 410, 'height': 410, 'widthPercent': 0.45, 'rescaleHeight': False, 'trialN': 88, 'loaded': True, 'loadedTime': 4170.299999952316, 'positionName': 'RIGHT', 'positionCoords': [739.44, 195], 'bid': 4.38}]",156299.19999992847,1669841595514,hotdog w must,sweetpotato,3.28,4.38,1.1,sweetpotato,973.2000000476837,974,973.5,True,i,157779.10000002384,1479.9000000953674,1669841596994,1480,HRV,HRV_0295,2022-11-30 20:55:56
89,"[{'imgObject': {}, 'id': 'cherry tomato', 'src': '/static/foodstim60/cherry tomato.jpg', 'key': 'u', 'origWidth': 410, 'origHeight': 410, 'width': 410, 'height': 410, 'widthPercent': 0.45, 'rescaleHeight': False, 'trialN': 89, 'loaded': True, 'loadedTime': 4174.799999952316, 'positionName': 'LEFT', 'positionCoords': [272.56, 195], 'bid': 1.7}, {'imgObject': {}, 'id': 'edamame', 'src': '/static/foodstim60/edamame.jpg', 'key': 'i', 'origWidth': 409, 'origHeight': 410, 'width': 409, 'height': 410, 'widthPercent': 0.45, 'rescaleHeight': False, 'trialN': 89, 'loaded': True, 'loadedTime': 4058.899999976158, 'positionName': 'RIGHT', 'positionCoords': [739.44, 195], 'bid': 0.09}]",157779.5,1669841596995,cherry tomato,edamame,1.7,0.09,-1.6099999999999999,cherry tomato,1123.1000000238419,1123,1123.5,True,u,159414.69999992847,1635.1999999284744,1669841598630,1635,HRV,HRV_0295,2022-11-30 20:55:56
90,"[{'imgObject': {}, 'id': 'eggs', 'src': '/static/foodstim60/eggs.jpg', 'key': 'u', 'origWidth': 409, 'origHeight': 409, 'width': 409, 'height': 409, 'widthPercent': 0.45, 'rescaleHeight': False, 'trialN': 90, 'loaded': True, 'loadedTime': 4111.199999928474, 'positionName': 'LEFT', 'positionCoords': [273.56, 195.5], 'bid': 2.74}, {'imgObject': {}, 'id': 'burger', 'src': '/static/foodstim60/burger.jpg', 'key': 'i', 'origWidth': 409, 'origHeight': 409, 'width': 409, 'height': 409, 'widthPercent': 0.45, 'rescaleHeight': False, 'trialN': 90, 'loaded': True, 'loadedTime': 4157.5, 'positionName': 'RIGHT', 'positionCoords': [739.44, 195.5], 'bid': 3.49}]",162180.60000002384,1669841601396,eggs,burger,2.74,3.49,0.75,burger,2027.6999999284744,2028,2028.0,True,i,164716.29999995232,2535.6999999284744,1669841603932,2536,HRV,HRV_0295,2022-11-30 20:55:56
91,"[{'imgObject': {}, 'id': 'steak', 'src': '/static/foodstim60/steak.jpg', 'key': 'u', 'origWidth': 410, 'origHeight': 410, 'width': 410, 'height': 410, 'widthPercent': 0.45, 'rescaleHeight': False, 'trialN': 91, 'loaded': True, 'loadedTime': 3993.600000023842, 'positionName': 'LEFT', 'positionCoords': [272.56, 195], 'bid': 2.38}, {'imgObject': {}, 'id': 'froot loops w milk', 'src': '/static/foodstim60/froot loops w milk.jpg', 'key': 'i', 'origWidth': 410, 'origHeight': 410, 'width': 410, 'height': 410, 'widthPercent': 0.45, 'rescaleHeight': False, 'trialN': 91, 'loaded': True, 'loadedTime': 3931.600000023842, 'positionName': 'RIGHT', 'positionCoords': [739.44, 195], 'bid': 2.38}]",164716.5,1669841603932,steak,froot loops w milk,2.38,2.38,0.0,froot loops w milk,884.6000000238419,885,884.7999999523163,True,i,166113.29999995232,1396.7999999523163,1669841605329,1397,HRV,HRV_0295,2022-11-30 20:55:56
92,"[{'imgObject': {}, 'id': 'turkeysandwich', 'src': '/static/foodstim60/turkeysandwich.jpg', 'key': 'u', 'origWidth': 409, 'origHeight': 409, 'width': 409, 'height': 409, 'widthPercent': 0.45, 'rescaleHeight': False, 'trialN': 92, 'loaded': True, 'loadedTime': 4176.899999976158, 'positionName': 'LEFT', 'positionCoords': [273.56, 195.5], 'bid': 1.35}, {'imgObject': {}, 'id': 'baked potato', 'src': '/static/foodstim60/baked potato.jpg', 'key': 'i', 'origWidth': 409, 'origHeight': 410, 'width': 409, 'height': 410, 'widthPercent': 0.45, 'rescaleHeight': False, 'trialN': 92, 'loaded': True, 'loadedTime': 3923.899999976158, 'positionName': 'RIGHT', 'positionCoords': [739.44, 195], 'bid': 1.52}]",166113.5,1669841605329,turkeysandwich,baked potato,1.35,1.52,0.16999999999999993,baked potato,1169.1999999284744,1169,1169.5,True,i,167795.29999995232,1681.7999999523163,1669841607011,1682,HRV,HRV_0295,2022-11-30 20:55:56
93,"[{'imgObject': {}, 'id': 'steak', 'src': '/static/foodstim60/steak.jpg', 'key': 'u', 'origWidth': 410, 'origHeight': 410, 'width': 410, 'height': 410, 'widthPercent': 0.45, 'rescaleHeight': False, 'trialN': 93, 'loaded': True, 'loadedTime': 3994.899999976158, 'positionName': 'LEFT', 'positionCoords': [272.56, 195], 'bid': 2.38}, {'imgObject': {}, 'id': 'bagel plain', 'src': '/static/foodstim60/bagel plain.jpg', 'key': 'i', 'origWidth': 410, 'origHeight': 410, 'width': 410, 'height': 410, 'widthPercent': 0.45, 'rescaleHeight': False, 'trialN': 93, 'loaded': True, 'loadedTime': 4085.600000023842, 'positionName': 'RIGHT', 'positionCoords': [739.44, 195], 'bid': 0.16}]",167795.69999992847,1669841607011,steak,bagel plain,2.38,0.16,-2.2199999999999998,steak,1254.0,1254,1254.3000000715256,True,u,169559.29999995232,1763.6000000238419,1669841608784,1773,HRV,HRV_0295,2022-11-30 20:55:56
94,"[{'imgObject': {}, 'id': 'rigatoni and sauce', 'src': '/static/foodstim60/rigatoni and sauce.jpg', 'key': 'u', 'origWidth': 410, 'origHeight': 411, 'width': 410, 'height': 411, 'widthPercent': 0.45, 'rescaleHeight': False, 'trialN': 94, 'loaded': True, 'loadedTime': 3933.6999999284744, 'positionName': 'LEFT', 'positionCoords': [272.56, 194.5], 'bid': 2.96}, {'imgObject': {}, 'id': 'grilled chicken strips', 'src': '/static/foodstim60/grilled chicken strips.jpg', 'key': 'i', 'origWidth': 410, 'origHeight': 411, 'width': 410, 'height': 411, 'widthPercent': 0.45, 'rescaleHeight': False, 'trialN': 94, 'loaded': True, 'loadedTime': 4175.799999952316, 'positionName': 'RIGHT', 'positionCoords': [739.44, 194.5], 'bid': 2.77}]",169559.5,1669841608784,rigatoni and sauce,grilled chicken strips,2.96,2.77,-0.18999999999999995,grilled chicken strips,1594.7999999523163,1596,1595.1000000238419,True,i,171667.5,2108.0,1669841610892,2108,HRV,HRV_0295,2022-11-30 20:55:56
95,"[{'imgObject': {}, 'id': 'seaweed', 'src': '/static/foodstim60/seaweed.jpg', 'key': 'u', 'origWidth': 410, 'origHeight': 410, 'width': 410, 'height': 410, 'widthPercent': 0.45, 'rescaleHeight': False, 'trialN': 95, 'loaded': True, 'loadedTime': 4170, 'positionName': 'LEFT', 'positionCoords': [272.56, 195], 'bid': 0.13}, {'imgObject': {}, 'id': 'edamame', 'src': '/static/foodstim60/edamame.jpg', 'key': 'i', 'origWidth': 409, 'origHeight': 410, 'width': 409, 'height': 410, 'widthPercent': 0.45, 'rescaleHeight': False, 'trialN': 95, 'loaded': True, 'loadedTime': 4058.600000023842, 'positionName': 'RIGHT', 'positionCoords': [739.44, 195], 'bid': 0.09}]",171667.69999992847,1669841610893,seaweed,edamame,0.13,0.09,-0.04000000000000001,seaweed,754.3000000715256,754,754.7000000476837,True,u,172931.5,1263.8000000715256,1669841612156,1263,HRV,HRV_0295,2022-11-30 20:55:56
96,"[{'imgObject': {}, 'id': 'rigatoni', 'src': '/static/foodstim60/rigatoni.jpg', 'key': 'u', 'origWidth': 411, 'origHeight': 411, 'width': 411, 'height': 411, 'widthPercent': 0.45, 'rescaleHeight': False, 'trialN': 96, 'loaded': True, 'loadedTime': 4081.399999976158, 'positionName': 'LEFT', 'positionCoords': [271.56, 194.5], 'bid': 0.8200000000000001}, {'imgObject': {}, 'id': 'cherry tomato', 'src': '/static/foodstim60/cherry tomato.jpg', 'key': 'i', 'origWidth': 410, 'origHeight': 410, 'width': 410, 'height': 410, 'widthPercent': 0.45, 'rescaleHeight': False, 'trialN': 96, 'loaded': True, 'loadedTime': 4174.799999952316, 'positionName': 'RIGHT', 'positionCoords': [739.44, 195], 'bid': 1.7}]",172932.39999997616,1669841612157,rigatoni,cherry tomato,0.8200000000000001,1.7,0.8799999999999999,cherry tomato,1083.1000000238419,1084,1083.6000000238419,True,i,174530.19999992847,1597.7999999523163,1669841613755,1598,HRV,HRV_0295,2022-11-30 20:55:56
97,"[{'imgObject': {}, 'id': 'hashbrowns', 'src': '/static/foodstim60/hashbrowns.jpg', 'key': 'u', 'origWidth': 411, 'origHeight': 410, 'width': 411, 'height': 410, 'widthPercent': 0.45, 'rescaleHeight': False, 'trialN': 97, 'loaded': True, 'loadedTime': 4089.399999976158, 'positionName': 'LEFT', 'positionCoords': [271.56, 195], 'bid': 1.34}, {'imgObject': {}, 'id': 'turkey sandwich', 'src': '/static/foodstim60/turkey sandwich.jpg', 'key': 'i', 'origWidth': 409, 'origHeight': 409, 'width': 409, 'height': 409, 'widthPercent': 0.45, 'rescaleHeight': False, 'trialN': 97, 'loaded': True, 'loadedTime': 3944, 'positionName': 'RIGHT', 'positionCoords': [739.44, 195.5], 'bid': 2.01}]",174530.5,1669841613755,hashbrowns,turkey sandwich,1.34,2.01,0.6699999999999997,turkey sandwich,999.8999999761581,1001,1000.5,True,i,176047.79999995232,1517.2999999523163,1669841615273,1518,HRV,HRV_0295,2022-11-30 20:55:56
98,"[{'imgObject': {}, 'id': 'chicken nuggets2', 'src': '/static/foodstim60/chicken nuggets2.jpg', 'key': 'u', 'origWidth': 410, 'origHeight': 409, 'width': 410, 'height': 409, 'widthPercent': 0.45, 'rescaleHeight': False, 'trialN': 98, 'loaded': True, 'loadedTime': 4177.799999952316, 'positionName': 'LEFT', 'positionCoords': [272.56, 195.5], 'bid': 4.07}, {'imgObject': {}, 'id': 'omelette', 'src': '/static/foodstim60/omelette.jpg', 'key': 'i', 'origWidth': 410, 'origHeight': 409, 'width': 410, 'height': 409, 'widthPercent': 0.45, 'rescaleHeight': False, 'trialN': 98, 'loaded': True, 'loadedTime': 4140.799999952316, 'positionName': 'RIGHT', 'positionCoords': [739.44, 195.5], 'bid': 2.66}]",176048.0,1669841615273,chicken nuggets2,omelette,4.07,2.66,-1.4100000000000001,chicken nuggets2,1110.6999999284744,1111,1111.1000000238419,True,u,177671.60000002384,1623.6000000238419,1669841616896,1623,HRV,HRV_0295,2022-11-30 20:55:56
99,"[{'imgObject': {}, 'id': 'raisin bran w milk', 'src': '/static/foodstim60/raisin bran w milk.jpg', 'key': 'u', 'origWidth': 411, 'origHeight': 411, 'width': 411, 'height': 411, 'widthPercent': 0.45, 'rescaleHeight': False, 'trialN': 99, 'loaded': True, 'loadedTime': 4141.299999952316, 'positionName': 'LEFT', 'positionCoords': [271.56, 194.5], 'bid': 1.07}, {'imgObject': {}, 'id': 'granola w milk', 'src': '/static/foodstim60/granola w milk.jpg', 'key': 'i', 'origWidth': 410, 'origHeight': 410, 'width': 410, 'height': 410, 'widthPercent': 0.45, 'rescaleHeight': False, 'trialN': 99, 'loaded': True, 'loadedTime': 3942.6999999284744, 'positionName': 'RIGHT', 'positionCoords': [739.44, 195], 'bid': 0.92}]",177671.79999995232,1669841616897,raisin bran w milk,granola w milk,1.07,0.92,-0.15000000000000002,raisin bran w milk,1388.1000000238419,1388,1388.6000000238419,True,u,179576.29999995232,1904.5,1669841618801,1904,HRV,HRV_0295,2022-11-30 20:55:56
100,"[{'imgObject': {}, 'id': 'blackbeanswithrice', 'src': '/static/foodstim60/blackbeanswithrice.jpg', 'key': 'u', 'origWidth': 410, 'origHeight': 410, 'width': 410, 'height': 410, 'widthPercent': 0.45, 'rescaleHeight': False, 'trialN': 100, 'loaded': True, 'loadedTime': 4128.5, 'positionName': 'LEFT', 'positionCoords': [272.56, 195], 'bid': 0.06}, {'imgObject': {}, 'id': 'luckycharms', 'src': '/static/foodstim60/luckycharms.jpg', 'key': 'i', 'origWidth': 410, 'origHeight': 409, 'width': 410, 'height': 409, 'widthPercent': 0.45, 'rescaleHeight': False, 'trialN': 100, 'loaded': True, 'loadedTime': 4088.5, 'positionName': 'RIGHT', 'positionCoords': [739.44, 195.5], 'bid': 1.56}]",179577.29999995232,1669841618802,blackbeanswithrice,luckycharms,0.06,1.56,1.5,luckycharms,1026.1000000238419,1027,1026.3999999761581,True,i,181114.60000002384,1537.3000000715256,1669841620340,1538,HRV,HRV_0295,2022-11-30 20:55:56
101,"[{'imgObject': {}, 'id': 'tacos', 'src': '/static/foodstim60/tacos.jpg', 'key': 'u', 'origWidth': 411, 'origHeight': 411, 'width': 411, 'height': 411, 'widthPercent': 0.45, 'rescaleHeight': False, 'trialN': 101, 'loaded': True, 'loadedTime': 3936.1999999284744, 'positionName': 'LEFT', 'positionCoords': [271.56, 194.5], 'bid': 4.92}, {'imgObject': {}, 'id': 'shreddedwheatwithmilk', 'src': '/static/foodstim60/shreddedwheatwithmilk.jpg', 'key': 'i', 'origWidth': 410, 'origHeight': 410, 'width': 410, 'height': 410, 'widthPercent': 0.45, 'rescaleHeight': False, 'trialN': 101, 'loaded': True, 'loadedTime': 4121.699999928474, 'positionName': 'RIGHT', 'positionCoords': [739.44, 195], 'bid': 0.68}]",181114.79999995232,1669841620340,tacos,shreddedwheatwithmilk,4.92,0.68,-4.24,tacos,1261.1000000238419,1261,1261.3999999761581,True,u,182882.29999995232,1767.5,1669841622107,1767,HRV,HRV_0295,2022-11-30 20:55:56
102,"[{'imgObject': {}, 'id': 'blackbeanswithrice', 'src': '/static/foodstim60/blackbeanswithrice.jpg', 'key': 'u', 'origWidth': 410, 'origHeight': 410, 'width': 410, 'height': 410, 'widthPercent': 0.45, 'rescaleHeight': False, 'trialN': 102, 'loaded': True, 'loadedTime': 4128.5, 'positionName': 'LEFT', 'positionCoords': [272.56, 195], 'bid': 0.06}, {'imgObject': {}, 'id': 'seaweed', 'src': '/static/foodstim60/seaweed.jpg', 'key': 'i', 'origWidth': 410, 'origHeight': 410, 'width': 410, 'height': 410, 'widthPercent': 0.45, 'rescaleHeight': False, 'trialN': 102, 'loaded': True, 'loadedTime': 4169.899999976158, 'positionName': 'RIGHT', 'positionCoords': [739.44, 195], 'bid': 0.13}]",182883.19999992847,1669841622108,blackbeanswithrice,seaweed,0.06,0.13,0.07,seaweed,1121.6000000238419,1122,1122.1000000238419,True,i,184516.10000002384,1632.9000000953674,1669841623741,1633,HRV,HRV_0295,2022-11-30 20:55:56
103,"[{'imgObject': {}, 'id': 'lox', 'src': '/static/foodstim60/lox.jpg', 'key': 'u', 'origWidth': 410, 'origHeight': 411, 'width': 410, 'height': 411, 'widthPercent': 0.45, 'rescaleHeight': False, 'trialN': 103, 'loaded': True, 'loadedTime': 4158.699999928474, 'positionName': 'LEFT', 'positionCoords': [272.56, 194.5], 'bid': 0.16}, {'imgObject': {}, 'id': 'turkey sandwich', 'src': '/static/foodstim60/turkey sandwich.jpg', 'key': 'i', 'origWidth': 409, 'origHeight': 409, 'width': 409, 'height': 409, 'widthPercent': 0.45, 'rescaleHeight': False, 'trialN': 103, 'loaded': True, 'loadedTime': 3944.399999976158, 'positionName': 'RIGHT', 'positionCoords': [739.44, 195.5], 'bid': 2.01}]",184516.39999997616,1669841623741,lox,turkey sandwich,0.16,2.01,1.8499999999999999,lox,1217.5,1218,1217.7999999523163,True,u,186248.79999995232,1732.3999999761581,1669841625474,1733,HRV,HRV_0295,2022-11-30 20:55:56
104,"[{'imgObject': {}, 'id': 'seaweed', 'src': '/static/foodstim60/seaweed.jpg', 'key': 'u', 'origWidth': 410, 'origHeight': 410, 'width': 410, 'height': 410, 'widthPercent': 0.45, 'rescaleHeight': False, 'trialN': 104, 'loaded': True, 'loadedTime': 4170.199999928474, 'positionName': 'LEFT', 'positionCoords': [272.56, 195], 'bid': 0.13}, {'imgObject': {}, 'id': 'banana', 'src': '/static/foodstim60/banana.jpg', 'key': 'i', 'origWidth': 410, 'origHeight': 410, 'width': 410, 'height': 410, 'widthPercent': 0.45, 'rescaleHeight': False, 'trialN': 104, 'loaded': True, 'loadedTime': 3929.7999999523163, 'positionName': 'RIGHT', 'positionCoords': [739.44, 195], 'bid': 1.84}]",186249.10000002384,1669841625474,seaweed,banana,0.13,1.84,1.71,banana,1487.0,1487,1487.3999999761581,True,i,188249.60000002384,2000.5,1669841627474,2000,HRV,HRV_0295,2022-11-30 20:55:56
105,"[{'imgObject': {}, 'id': 'cheerios', 'src': '/static/foodstim60/cheerios.jpg', 'key': 'u', 'origWidth': 409, 'origHeight': 410, 'width': 409, 'height': 410, 'widthPercent': 0.45, 'rescaleHeight': False, 'trialN': 105, 'loaded': True, 'loadedTime': 3971, 'positionName': 'LEFT', 'positionCoords': [273.56, 195], 'bid': 0.89}, {'imgObject': {}, 'id': 'olives', 'src': '/static/foodstim60/olives.jpg', 'key': 'i', 'origWidth': 410, 'origHeight': 410, 'width': 410, 'height': 410, 'widthPercent': 0.45, 'rescaleHeight': False, 'trialN': 105, 'loaded': True, 'loadedTime': 3886.2999999523163, 'positionName': 'RIGHT', 'positionCoords': [739.44, 195], 'bid': 4.95}]",188250.60000002384,1669841627476,cheerios,olives,0.89,4.95,4.0600000000000005,olives,1703.6999999284744,1703,1704.0,True,i,190463.79999995232,2213.1999999284744,1669841629689,2213,HRV,HRV_0295,2022-11-30 20:55:56
106,"[{'imgObject': {}, 'id': 'popsicles', 'src': '/static/foodstim60/popsicles.jpg', 'key': 'u', 'origWidth': 410, 'origHeight': 410, 'width': 410, 'height': 410, 'widthPercent': 0.45, 'rescaleHeight': False, 'trialN': 106, 'loaded': True, 'loadedTime': 4185.899999976158, 'positionName': 'LEFT', 'positionCoords': [272.56, 195], 'bid': 6.2700000000000005}, {'imgObject': {}, 'id': 'mac & cheese', 'src': '/static/foodstim60/mac & cheese.jpg', 'key': 'i', 'origWidth': 410, 'origHeight': 410, 'width': 410, 'height': 410, 'widthPercent': 0.45, 'rescaleHeight': False, 'trialN': 106, 'loaded': True, 'loadedTime': 3984.1999999284744, 'positionName': 'RIGHT', 'positionCoords': [739.44, 195], 'bid': 3.35}]",190464.19999992847,1669841629689,popsicles,mac & cheese,6.2700000000000005,3.35,-2.9200000000000004,popsicles,980.6000000238419,981,981.0,True,u,191952.5,1488.3000000715256,1669841631177,1488,HRV,HRV_0295,2022-11-30 20:55:56
107,"[{'imgObject': {}, 'id': 'avocado', 'src': '/static/foodstim60/avocado.jpg', 'key': 'u', 'origWidth': 409, 'origHeight': 409, 'width': 409, 'height': 409, 'widthPercent': 0.45, 'rescaleHeight': False, 'trialN': 107, 'loaded': True, 'loadedTime': 3925.399999976158, 'positionName': 'LEFT', 'positionCoords': [273.56, 195.5], 'bid': 3.81}, {'imgObject': {}, 'id': 'seaweed', 'src': '/static/foodstim60/seaweed.jpg', 'key': 'i', 'origWidth': 410, 'origHeight': 410, 'width': 410, 'height': 410, 'widthPercent': 0.45, 'rescaleHeight': False, 'trialN': 107, 'loaded': True, 'loadedTime': 4170.199999928474, 'positionName': 'RIGHT', 'positionCoords': [739.44, 195], 'bid': 0.13}]",191952.69999992847,1669841631178,avocado,seaweed,3.81,0.13,-3.68,avocado,1143.1000000238419,1143,1143.3000000715256,True,u,193601.29999995232,1648.6000000238419,1669841632826,1648,HRV,HRV_0295,2022-11-30 20:55:56
108,"[{'imgObject': {}, 'id': 'cocktailshrimp', 'src': '/static/foodstim60/cocktailshrimp.jpg', 'key': 'u', 'origWidth': 410, 'origHeight': 410, 'width': 410, 'height': 410, 'widthPercent': 0.45, 'rescaleHeight': False, 'trialN': 108, 'loaded': True, 'loadedTime': 3921.2999999523163, 'positionName': 'LEFT', 'positionCoords': [272.56, 195], 'bid': 0}, {'imgObject': {}, 'id': 'blackbeanswithrice', 'src': '/static/foodstim60/blackbeanswithrice.jpg', 'key': 'i', 'origWidth': 410, 'origHeight': 410, 'width': 410, 'height': 410, 'widthPercent': 0.45, 'rescaleHeight': False, 'trialN': 108, 'loaded': True, 'loadedTime': 4137.899999976158, 'positionName': 'RIGHT', 'positionCoords': [739.44, 195], 'bid': 0.06}]",193601.5,1669841632826,cocktailshrimp,blackbeanswithrice,0.0,0.06,0.06,cocktailshrimp,1572.7999999523163,1574,1573.2999999523163,True,u,195684.0,2082.5,1669841634909,2083,HRV,HRV_0295,2022-11-30 20:55:56
