trialN,stimuli,trialStartTime,trialStartTime_UNIX,stimulus1,stimulus2,stimulus1Bid,stimulus2Bid,delta,selected,rt,rt_UNIX,rt_perfnow,receivedResponse,rsp,trialEndTime,trialDuration,trialEndTime_UNIX,trialDuration_UNIX,exp,subjectId,date
0,"[{'imgObject': {}, 'id': 'blueberries', 'src': '/static/foodstim60/blueberries.jpg', 'key': 'u', 'origWidth': 411, 'origHeight': 411, 'width': 411, 'height': 411, 'widthPercent': 0.45, 'rescaleHeight': False, 'trialN': 0, 'loaded': True, 'loadedTime': 1827.5, 'positionName': 'LEFT', 'positionCoords': [280.2, 244.5], 'bid': 4.97}, {'imgObject': {}, 'id': 'baked potato', 'src': '/static/foodstim60/baked potato.jpg', 'key': 'i', 'origWidth': 409, 'origHeight': 410, 'width': 409, 'height': 410, 'widthPercent': 0.45, 'rescaleHeight': False, 'trialN': 0, 'loaded': True, 'loadedTime': 1827.5999999977648, 'positionName': 'RIGHT', 'positionCoords': [748.8, 245], 'bid': 5}]",1787.0,1669830395978,blueberries,baked potato,4.97,5.0,0.03000000000000025,baked potato,1154.0999999977648,1164,1164.5999999977648,True,i,3454.89999999851,1667.8999999985099,1669830397645,1667,HRV,HRV_0073,2022-11-30 17:51:57
1,"[{'imgObject': {}, 'id': 'yogurt no spoon', 'src': '/static/foodstim60/yogurt no spoon.jpg', 'key': 'u', 'origWidth': 411, 'origHeight': 410, 'width': 411, 'height': 410, 'widthPercent': 0.45, 'rescaleHeight': False, 'trialN': 1, 'loaded': True, 'loadedTime': 3459, 'positionName': 'LEFT', 'positionCoords': [280.2, 245], 'bid': 9.36}, {'imgObject': {}, 'id': 'kiwi', 'src': '/static/foodstim60/kiwi.jpg', 'key': 'i', 'origWidth': 410, 'origHeight': 410, 'width': 410, 'height': 410, 'widthPercent': 0.45, 'rescaleHeight': False, 'trialN': 1, 'loaded': True, 'loadedTime': 3459.5, 'positionName': 'RIGHT', 'positionCoords': [748.8, 245], 'bid': 4.93}]",3455.89999999851,1669830397646,yogurt no spoon,kiwi,9.36,4.93,-4.43,yogurt no spoon,1060.800000000745,1068,1067.199999999255,True,u,5025.89999999851,1570.0,1669830399216,1570,HRV,HRV_0073,2022-11-30 17:51:57
2,"[{'imgObject': {}, 'id': 'granola w milk', 'src': '/static/foodstim60/granola w milk.jpg', 'key': 'u', 'origWidth': 410, 'origHeight': 410, 'width': 410, 'height': 410, 'widthPercent': 0.45, 'rescaleHeight': False, 'trialN': 2, 'loaded': True, 'loadedTime': 5029.699999999255, 'positionName': 'LEFT', 'positionCoords': [281.2, 245], 'bid': 7.66}, {'imgObject': {}, 'id': 'rigatoni and sauce', 'src': '/static/foodstim60/rigatoni and sauce.jpg', 'key': 'i', 'origWidth': 410, 'origHeight': 411, 'width': 410, 'height': 411, 'widthPercent': 0.45, 'rescaleHeight': False, 'trialN': 2, 'loaded': True, 'loadedTime': 5030.199999999255, 'positionName': 'RIGHT', 'positionCoords': [748.8, 244.5], 'bid': 9.8}]",5026.79999999702,1669830399217,granola w milk,rigatoni and sauce,7.66,9.8,2.1400000000000006,rigatoni and sauce,1077.1000000014901,1089,1088.800000000745,True,i,6616.599999997765,1589.800000000745,1669830400807,1590,HRV,HRV_0073,2022-11-30 17:51:57
3,"[{'imgObject': {}, 'id': 'mashed potato', 'src': '/static/foodstim60/mashed potato.jpg', 'key': 'u', 'origWidth': 409, 'origHeight': 409, 'width': 409, 'height': 409, 'widthPercent': 0.45, 'rescaleHeight': False, 'trialN': 3, 'loaded': True, 'loadedTime': 6620.5, 'positionName': 'LEFT', 'positionCoords': [282.2, 245.5], 'bid': 4.93}, {'imgObject': {}, 'id': 'rigatoni', 'src': '/static/foodstim60/rigatoni.jpg', 'key': 'i', 'origWidth': 411, 'origHeight': 411, 'width': 411, 'height': 411, 'widthPercent': 0.45, 'rescaleHeight': False, 'trialN': 3, 'loaded': True, 'loadedTime': 6620.79999999702, 'positionName': 'RIGHT', 'positionCoords': [748.8, 244.5], 'bid': 9.25}]",6617.599999997765,1669830400808,mashed potato,rigatoni,4.93,9.25,4.32,rigatoni,1170.199999999255,1177,1177.199999999255,True,i,8296.599999997765,1679.0,1669830402487,1679,HRV,HRV_0073,2022-11-30 17:51:57
4,"[{'imgObject': {}, 'id': 'lox', 'src': '/static/foodstim60/lox.jpg', 'key': 'u', 'origWidth': 410, 'origHeight': 411, 'width': 410, 'height': 411, 'widthPercent': 0.45, 'rescaleHeight': False, 'trialN': 4, 'loaded': True, 'loadedTime': 8300.599999997765, 'positionName': 'LEFT', 'positionCoords': [281.2, 244.5], 'bid': 0.13}, {'imgObject': {}, 'id': 'olives', 'src': '/static/foodstim60/olives.jpg', 'key': 'i', 'origWidth': 410, 'origHeight': 410, 'width': 410, 'height': 410, 'widthPercent': 0.45, 'rescaleHeight': False, 'trialN': 4, 'loaded': True, 'loadedTime': 8301, 'positionName': 'RIGHT', 'positionCoords': [748.8, 245], 'bid': 0.15}]",8297.5,1669830402488,lox,olives,0.13,0.15,0.01999999999999999,lox,1271,1278,1277.5,True,u,10078.099999997765,1780.5999999977648,1669830404269,1781,HRV,HRV_0073,2022-11-30 17:51:57
5,"[{'imgObject': {}, 'id': 'burger', 'src': '/static/foodstim60/burger.jpg', 'key': 'u', 'origWidth': 409, 'origHeight': 409, 'width': 409, 'height': 409, 'widthPercent': 0.45, 'rescaleHeight': False, 'trialN': 5, 'loaded': True, 'loadedTime': 10081, 'positionName': 'LEFT', 'positionCoords': [282.2, 245.5], 'bid': 7.79}, {'imgObject': {}, 'id': 'ice cream sundae 002', 'src': '/static/foodstim60/ice cream sundae 002.jpg', 'key': 'i', 'origWidth': 409, 'origHeight': 409, 'width': 409, 'height': 409, 'widthPercent': 0.45, 'rescaleHeight': False, 'trialN': 5, 'loaded': True, 'loadedTime': 10081.29999999702, 'positionName': 'RIGHT', 'positionCoords': [748.8, 245.5], 'bid': 9.81}]",10078.79999999702,1669830404269,burger,ice cream sundae 002,7.79,9.81,2.0200000000000005,ice cream sundae 002,1292.1000000014901,1299,1299.2000000029802,True,i,11881.699999999255,1802.9000000022352,1669830406072,1803,HRV,HRV_0073,2022-11-30 17:51:57
6,"[{'imgObject': {}, 'id': 'corn cob', 'src': '/static/foodstim60/corn cob.jpg', 'key': 'u', 'origWidth': 411, 'origHeight': 411, 'width': 411, 'height': 411, 'widthPercent': 0.45, 'rescaleHeight': False, 'trialN': 6, 'loaded': True, 'loadedTime': 11885.79999999702, 'positionName': 'LEFT', 'positionCoords': [280.2, 244.5], 'bid': 2.77}, {'imgObject': {}, 'id': 'hotdog w must', 'src': '/static/foodstim60/hotdog w must.jpg', 'key': 'i', 'origWidth': 409, 'origHeight': 409, 'width': 409, 'height': 409, 'widthPercent': 0.45, 'rescaleHeight': False, 'trialN': 6, 'loaded': True, 'loadedTime': 11886.099999997765, 'positionName': 'RIGHT', 'positionCoords': [748.8, 245.5], 'bid': 1.2}]",11882.699999999255,1669830406073,corn cob,hotdog w must,2.77,1.2,-1.57,corn cob,1226.0999999977648,1233,1232.5,True,u,13618.39999999851,1735.699999999255,1669830407809,1736,HRV,HRV_0073,2022-11-30 17:51:57
7,"[{'imgObject': {}, 'id': 'froot loops w milk', 'src': '/static/foodstim60/froot loops w milk.jpg', 'key': 'u', 'origWidth': 410, 'origHeight': 410, 'width': 410, 'height': 410, 'widthPercent': 0.45, 'rescaleHeight': False, 'trialN': 7, 'loaded': True, 'loadedTime': 13622.5, 'positionName': 'LEFT', 'positionCoords': [281.2, 245], 'bid': 4.97}, {'imgObject': {}, 'id': 'roastedpotatoes', 'src': '/static/foodstim60/roastedpotatoes.jpg', 'key': 'i', 'origWidth': 409, 'origHeight': 410, 'width': 409, 'height': 410, 'widthPercent': 0.45, 'rescaleHeight': False, 'trialN': 7, 'loaded': True, 'loadedTime': 13622.79999999702, 'positionName': 'RIGHT', 'positionCoords': [748.8, 245], 'bid': 8.86}]",13619.39999999851,1669830407810,froot loops w milk,roastedpotatoes,4.97,8.86,3.8899999999999997,roastedpotatoes,1229.8999999985099,1236,1236.6000000014901,True,i,15356.89999999851,1737.5,1669830409547,1737,HRV,HRV_0073,2022-11-30 17:51:57
8,"[{'imgObject': {}, 'id': 'turkey sandwich', 'src': '/static/foodstim60/turkey sandwich.jpg', 'key': 'u', 'origWidth': 409, 'origHeight': 409, 'width': 409, 'height': 409, 'widthPercent': 0.45, 'rescaleHeight': False, 'trialN': 8, 'loaded': True, 'loadedTime': 15361.39999999851, 'positionName': 'LEFT', 'positionCoords': [282.2, 245.5], 'bid': 4.95}, {'imgObject': {}, 'id': 'olives', 'src': '/static/foodstim60/olives.jpg', 'key': 'i', 'origWidth': 410, 'origHeight': 410, 'width': 410, 'height': 410, 'widthPercent': 0.45, 'rescaleHeight': False, 'trialN': 8, 'loaded': True, 'loadedTime': 15361.699999999255, 'positionName': 'RIGHT', 'positionCoords': [748.8, 245], 'bid': 0.15}]",15357.89999999851,1669830409548,turkey sandwich,olives,4.95,0.15,-4.8,turkey sandwich,1199.800000000745,1207,1206.8999999985099,True,u,17067.599999997765,1709.699999999255,1669830411258,1710,HRV,HRV_0073,2022-11-30 17:51:57
9,"[{'imgObject': {}, 'id': 'baked potato', 'src': '/static/foodstim60/baked potato.jpg', 'key': 'u', 'origWidth': 409, 'origHeight': 410, 'width': 409, 'height': 410, 'widthPercent': 0.45, 'rescaleHeight': False, 'trialN': 9, 'loaded': True, 'loadedTime': 17071.79999999702, 'positionName': 'LEFT', 'positionCoords': [282.2, 245], 'bid': 5}, {'imgObject': {}, 'id': 'mango', 'src': '/static/foodstim60/mango.jpg', 'key': 'i', 'origWidth': 411, 'origHeight': 411, 'width': 411, 'height': 411, 'widthPercent': 0.45, 'rescaleHeight': False, 'trialN': 9, 'loaded': True, 'loadedTime': 17072, 'positionName': 'RIGHT', 'positionCoords': [748.8, 244.5], 'bid': 4.95}]",17068.599999997765,1669830411259,baked potato,mango,5.0,4.95,-0.04999999999999982,baked potato,1130.699999999255,1136,1136.1000000014901,True,u,18708.29999999702,1639.699999999255,1669830412899,1640,HRV,HRV_0073,2022-11-30 17:51:57
10,"[{'imgObject': {}, 'id': 'cocktailshrimp', 'src': '/static/foodstim60/cocktailshrimp.jpg', 'key': 'u', 'origWidth': 410, 'origHeight': 410, 'width': 410, 'height': 410, 'widthPercent': 0.45, 'rescaleHeight': False, 'trialN': 10, 'loaded': True, 'loadedTime': 18712.39999999851, 'positionName': 'LEFT', 'positionCoords': [281.2, 245], 'bid': 0.13}, {'imgObject': {}, 'id': 'baked potato', 'src': '/static/foodstim60/baked potato.jpg', 'key': 'i', 'origWidth': 409, 'origHeight': 410, 'width': 409, 'height': 410, 'widthPercent': 0.45, 'rescaleHeight': False, 'trialN': 10, 'loaded': True, 'loadedTime': 18712.699999999255, 'positionName': 'RIGHT', 'positionCoords': [748.8, 245], 'bid': 5}]",18709.29999999702,1669830412900,cocktailshrimp,baked potato,0.13,5.0,4.87,baked potato,1053,1059,1059.2000000029802,True,i,20271.599999997765,1562.300000000745,1669830414462,1562,HRV,HRV_0073,2022-11-30 17:51:57
11,"[{'imgObject': {}, 'id': 'froot loops w milk', 'src': '/static/foodstim60/froot loops w milk.jpg', 'key': 'u', 'origWidth': 410, 'origHeight': 410, 'width': 410, 'height': 410, 'widthPercent': 0.45, 'rescaleHeight': False, 'trialN': 11, 'loaded': True, 'loadedTime': 20275.29999999702, 'positionName': 'LEFT', 'positionCoords': [281.2, 245], 'bid': 4.97}, {'imgObject': {}, 'id': 'popsicles', 'src': '/static/foodstim60/popsicles.jpg', 'key': 'i', 'origWidth': 410, 'origHeight': 410, 'width': 410, 'height': 410, 'widthPercent': 0.45, 'rescaleHeight': False, 'trialN': 11, 'loaded': True, 'loadedTime': 20275.699999999255, 'positionName': 'RIGHT', 'positionCoords': [748.8, 245], 'bid': 4.97}]",20272.5,1669830414463,froot loops w milk,popsicles,4.97,4.97,0.0,froot loops w milk,1238.5,1246,1246.5,True,u,22022.199999999255,1749.699999999255,1669830416213,1750,HRV,HRV_0073,2022-11-30 17:51:57
12,"[{'imgObject': {}, 'id': 'yogurt no spoon', 'src': '/static/foodstim60/yogurt no spoon.jpg', 'key': 'u', 'origWidth': 411, 'origHeight': 410, 'width': 411, 'height': 410, 'widthPercent': 0.45, 'rescaleHeight': False, 'trialN': 12, 'loaded': True, 'loadedTime': 22026.099999997765, 'positionName': 'LEFT', 'positionCoords': [280.2, 245], 'bid': 9.36}, {'imgObject': {}, 'id': 'chickenfingers', 'src': '/static/foodstim60/chickenfingers.jpg', 'key': 'i', 'origWidth': 410, 'origHeight': 410, 'width': 410, 'height': 410, 'widthPercent': 0.45, 'rescaleHeight': False, 'trialN': 12, 'loaded': True, 'loadedTime': 22026.39999999851, 'positionName': 'RIGHT', 'positionCoords': [748.8, 245], 'bid': 9.84}]",22023.199999999255,1669830416214,yogurt no spoon,chickenfingers,9.36,9.84,0.4800000000000004,yogurt no spoon,1215.300000000745,1222,1222.0999999977648,True,u,23748.29999999702,1725.0999999977648,1669830417939,1725,HRV,HRV_0073,2022-11-30 17:51:57
13,"[{'imgObject': {}, 'id': 'kiwi', 'src': '/static/foodstim60/kiwi.jpg', 'key': 'u', 'origWidth': 410, 'origHeight': 410, 'width': 410, 'height': 410, 'widthPercent': 0.45, 'rescaleHeight': False, 'trialN': 13, 'loaded': True, 'loadedTime': 23752, 'positionName': 'LEFT', 'positionCoords': [281.2, 245], 'bid': 4.93}, {'imgObject': {}, 'id': 'orange slices', 'src': '/static/foodstim60/orange slices.jpg', 'key': 'i', 'origWidth': 409, 'origHeight': 410, 'width': 409, 'height': 410, 'widthPercent': 0.45, 'rescaleHeight': False, 'trialN': 13, 'loaded': True, 'loadedTime': 23752.29999999702, 'positionName': 'RIGHT', 'positionCoords': [748.8, 245], 'bid': 4.94}]",23749.099999997765,1669830417940,kiwi,orange slices,4.93,4.94,0.010000000000000675,orange slices,1076.5,1083,1083.699999999255,True,i,25335.79999999702,1586.699999999255,1669830419526,1586,HRV,HRV_0073,2022-11-30 17:51:57
14,"[{'imgObject': {}, 'id': 'ice cream sundae 002', 'src': '/static/foodstim60/ice cream sundae 002.jpg', 'key': 'u', 'origWidth': 409, 'origHeight': 409, 'width': 409, 'height': 409, 'widthPercent': 0.45, 'rescaleHeight': False, 'trialN': 14, 'loaded': True, 'loadedTime': 25339.79999999702, 'positionName': 'LEFT', 'positionCoords': [282.2, 245.5], 'bid': 9.81}, {'imgObject': {}, 'id': 'bagel plain', 'src': '/static/foodstim60/bagel plain.jpg', 'key': 'i', 'origWidth': 410, 'origHeight': 410, 'width': 410, 'height': 410, 'widthPercent': 0.45, 'rescaleHeight': False, 'trialN': 14, 'loaded': True, 'loadedTime': 25340.099999997765, 'positionName': 'RIGHT', 'positionCoords': [748.8, 245], 'bid': 9.86}]",25336.79999999702,1669830419527,ice cream sundae 002,bagel plain,9.81,9.86,0.049999999999998934,bagel plain,1145.9000000022352,1152,1152.2000000029802,True,i,26992.5,1655.7000000029802,1669830421183,1656,HRV,HRV_0073,2022-11-30 17:51:57
15,"[{'imgObject': {}, 'id': 'fruitsalad', 'src': '/static/foodstim60/fruitsalad.jpg', 'key': 'u', 'origWidth': 410, 'origHeight': 410, 'width': 410, 'height': 410, 'widthPercent': 0.45, 'rescaleHeight': False, 'trialN': 15, 'loaded': True, 'loadedTime': 26996.5, 'positionName': 'LEFT', 'positionCoords': [281.2, 245], 'bid': 5.04}, {'imgObject': {}, 'id': 'cantaloupe', 'src': '/static/foodstim60/cantaloupe.jpg', 'key': 'i', 'origWidth': 409, 'origHeight': 409, 'width': 409, 'height': 409, 'widthPercent': 0.45, 'rescaleHeight': False, 'trialN': 15, 'loaded': True, 'loadedTime': 26996.79999999702, 'positionName': 'RIGHT', 'positionCoords': [748.8, 245.5], 'bid': 7.34}]",26993.39999999851,1669830421184,fruitsalad,cantaloupe,5.04,7.34,2.3,fruitsalad,1363.199999999255,1369,1369.199999999255,True,u,28862.89999999851,1869.5,1669830423053,1869,HRV,HRV_0073,2022-11-30 17:51:57
16,"[{'imgObject': {}, 'id': 'bagel plain', 'src': '/static/foodstim60/bagel plain.jpg', 'key': 'u', 'origWidth': 410, 'origHeight': 410, 'width': 410, 'height': 410, 'widthPercent': 0.45, 'rescaleHeight': False, 'trialN': 16, 'loaded': True, 'loadedTime': 28866.89999999851, 'positionName': 'LEFT', 'positionCoords': [281.2, 245], 'bid': 9.86}, {'imgObject': {}, 'id': 'tacos', 'src': '/static/foodstim60/tacos.jpg', 'key': 'i', 'origWidth': 411, 'origHeight': 411, 'width': 411, 'height': 411, 'widthPercent': 0.45, 'rescaleHeight': False, 'trialN': 16, 'loaded': True, 'loadedTime': 28867.29999999702, 'positionName': 'RIGHT', 'positionCoords': [748.8, 244.5], 'bid': 9.45}]",28863.79999999702,1669830423054,bagel plain,tacos,9.86,9.45,-0.41000000000000014,bagel plain,1020.6000000014901,1028,1027.4000000022352,True,u,30392.699999999255,1528.9000000022352,1669830424583,1529,HRV,HRV_0073,2022-11-30 17:51:57
17,"[{'imgObject': {}, 'id': 'raisin bran w milk', 'src': '/static/foodstim60/raisin bran w milk.jpg', 'key': 'u', 'origWidth': 411, 'origHeight': 411, 'width': 411, 'height': 411, 'widthPercent': 0.45, 'rescaleHeight': False, 'trialN': 17, 'loaded': True, 'loadedTime': 30396.5, 'positionName': 'LEFT', 'positionCoords': [280.2, 244.5], 'bid': 7.34}, {'imgObject': {}, 'id': 'pear', 'src': '/static/foodstim60/pear.jpg', 'key': 'i', 'origWidth': 411, 'origHeight': 410, 'width': 411, 'height': 410, 'widthPercent': 0.45, 'rescaleHeight': False, 'trialN': 17, 'loaded': True, 'loadedTime': 30396.79999999702, 'positionName': 'RIGHT', 'positionCoords': [748.8, 245], 'bid': 9.83}]",30393.599999997765,1669830424584,raisin bran w milk,pear,7.34,9.83,2.49,pear,1108.5,1115,1114.800000000745,True,i,32011.699999999255,1618.1000000014901,1669830426202,1618,HRV,HRV_0073,2022-11-30 17:51:57
18,"[{'imgObject': {}, 'id': 'veggieswithdip', 'src': '/static/foodstim60/veggieswithdip.jpg', 'key': 'u', 'origWidth': 409, 'origHeight': 409, 'width': 409, 'height': 409, 'widthPercent': 0.45, 'rescaleHeight': False, 'trialN': 18, 'loaded': True, 'loadedTime': 32015.79999999702, 'positionName': 'LEFT', 'positionCoords': [282.2, 245.5], 'bid': 4.94}, {'imgObject': {}, 'id': 'hotdog w must', 'src': '/static/foodstim60/hotdog w must.jpg', 'key': 'i', 'origWidth': 409, 'origHeight': 409, 'width': 409, 'height': 409, 'widthPercent': 0.45, 'rescaleHeight': False, 'trialN': 18, 'loaded': True, 'loadedTime': 32016.099999997765, 'positionName': 'RIGHT', 'positionCoords': [748.8, 245.5], 'bid': 1.2}]",32012.79999999702,1669830426203,veggieswithdip,hotdog w must,4.94,1.2,-3.74,veggieswithdip,1050.4000000022352,1058,1057.6000000014901,True,u,33573.5,1560.7000000029802,1669830427764,1561,HRV,HRV_0073,2022-11-30 17:51:57
19,"[{'imgObject': {}, 'id': 'raspberries', 'src': '/static/foodstim60/raspberries.jpg', 'key': 'u', 'origWidth': 411, 'origHeight': 411, 'width': 411, 'height': 411, 'widthPercent': 0.45, 'rescaleHeight': False, 'trialN': 19, 'loaded': True, 'loadedTime': 33577.5, 'positionName': 'LEFT', 'positionCoords': [280.2, 244.5], 'bid': 7.56}, {'imgObject': {}, 'id': 'granola w milk', 'src': '/static/foodstim60/granola w milk.jpg', 'key': 'i', 'origWidth': 410, 'origHeight': 410, 'width': 410, 'height': 410, 'widthPercent': 0.45, 'rescaleHeight': False, 'trialN': 19, 'loaded': True, 'loadedTime': 33577.79999999702, 'positionName': 'RIGHT', 'positionCoords': [748.8, 245], 'bid': 7.66}]",33574.39999999851,1669830427765,raspberries,granola w milk,7.56,7.66,0.10000000000000053,granola w milk,1146.199999999255,1153,1153.1000000014901,True,i,35230.29999999702,1655.8999999985099,1669830429421,1656,HRV,HRV_0073,2022-11-30 17:51:57
20,"[{'imgObject': {}, 'id': 'burger', 'src': '/static/foodstim60/burger.jpg', 'key': 'u', 'origWidth': 409, 'origHeight': 409, 'width': 409, 'height': 409, 'widthPercent': 0.45, 'rescaleHeight': False, 'trialN': 20, 'loaded': True, 'loadedTime': 35234, 'positionName': 'LEFT', 'positionCoords': [282.2, 245.5], 'bid': 7.79}, {'imgObject': {}, 'id': 'hotdog w must', 'src': '/static/foodstim60/hotdog w must.jpg', 'key': 'i', 'origWidth': 409, 'origHeight': 409, 'width': 409, 'height': 409, 'widthPercent': 0.45, 'rescaleHeight': False, 'trialN': 20, 'loaded': True, 'loadedTime': 35234.39999999851, 'positionName': 'RIGHT', 'positionCoords': [748.8, 245.5], 'bid': 1.2}]",35231.199999999255,1669830429421,burger,hotdog w must,7.79,1.2,-6.59,burger,1107.5999999977648,1115,1114.699999999255,True,u,36848.79999999702,1617.5999999977648,1669830431039,1618,HRV,HRV_0073,2022-11-30 17:51:57
21,"[{'imgObject': {}, 'id': 'mashed potato', 'src': '/static/foodstim60/mashed potato.jpg', 'key': 'u', 'origWidth': 409, 'origHeight': 409, 'width': 409, 'height': 409, 'widthPercent': 0.45, 'rescaleHeight': False, 'trialN': 21, 'loaded': True, 'loadedTime': 36852.599999997765, 'positionName': 'LEFT', 'positionCoords': [282.2, 245.5], 'bid': 4.93}, {'imgObject': {}, 'id': 'seaweed', 'src': '/static/foodstim60/seaweed.jpg', 'key': 'i', 'origWidth': 410, 'origHeight': 410, 'width': 410, 'height': 410, 'widthPercent': 0.45, 'rescaleHeight': False, 'trialN': 21, 'loaded': True, 'loadedTime': 36853, 'positionName': 'RIGHT', 'positionCoords': [748.8, 245], 'bid': 0.11}]",36849.599999997765,1669830431040,mashed potato,seaweed,4.93,0.11,-4.819999999999999,mashed potato,1303.199999999255,1310,1309.699999999255,True,u,38662.39999999851,1812.800000000745,1669830432853,1813,HRV,HRV_0073,2022-11-30 17:51:57
22,"[{'imgObject': {}, 'id': 'cantaloupe', 'src': '/static/foodstim60/cantaloupe.jpg', 'key': 'u', 'origWidth': 409, 'origHeight': 409, 'width': 409, 'height': 409, 'widthPercent': 0.45, 'rescaleHeight': False, 'trialN': 22, 'loaded': True, 'loadedTime': 38665.599999997765, 'positionName': 'LEFT', 'positionCoords': [282.2, 245.5], 'bid': 7.34}, {'imgObject': {}, 'id': 'roastedpotatoes', 'src': '/static/foodstim60/roastedpotatoes.jpg', 'key': 'i', 'origWidth': 409, 'origHeight': 410, 'width': 409, 'height': 410, 'widthPercent': 0.45, 'rescaleHeight': False, 'trialN': 22, 'loaded': True, 'loadedTime': 38665.89999999851, 'positionName': 'RIGHT', 'positionCoords': [748.8, 245], 'bid': 8.86}]",38663.099999997765,1669830432853,cantaloupe,roastedpotatoes,7.34,8.86,1.5199999999999996,roastedpotatoes,1029.9000000022352,1037,1036.5,True,i,40202.5,1539.4000000022352,1669830434393,1540,HRV,HRV_0073,2022-11-30 17:51:57
23,"[{'imgObject': {}, 'id': 'orange slices', 'src': '/static/foodstim60/orange slices.jpg', 'key': 'u', 'origWidth': 409, 'origHeight': 410, 'width': 409, 'height': 410, 'widthPercent': 0.45, 'rescaleHeight': False, 'trialN': 23, 'loaded': True, 'loadedTime': 40206.29999999702, 'positionName': 'LEFT', 'positionCoords': [282.2, 245], 'bid': 4.94}, {'imgObject': {}, 'id': 'sushi w_condiments', 'src': '/static/foodstim60/sushi w_condiments.jpg', 'key': 'i', 'origWidth': 410, 'origHeight': 410, 'width': 410, 'height': 410, 'widthPercent': 0.45, 'rescaleHeight': False, 'trialN': 23, 'loaded': True, 'loadedTime': 40206.89999999851, 'positionName': 'RIGHT', 'positionCoords': [748.8, 245], 'bid': 0.13}]",40203.39999999851,1669830434394,orange slices,sushi w_condiments,4.94,0.13,-4.8100000000000005,orange slices,909.1999999992549,916,916.1000000014901,True,u,41622.5,1419.1000000014901,1669830435813,1419,HRV,HRV_0073,2022-11-30 17:51:57
24,"[{'imgObject': {}, 'id': 'bagel and cc', 'src': '/static/foodstim60/bagel and cc.jpg', 'key': 'u', 'origWidth': 410, 'origHeight': 410, 'width': 410, 'height': 410, 'widthPercent': 0.45, 'rescaleHeight': False, 'trialN': 24, 'loaded': True, 'loadedTime': 41626.39999999851, 'positionName': 'LEFT', 'positionCoords': [281.2, 245], 'bid': 9.86}, {'imgObject': {}, 'id': 'bagel plain', 'src': '/static/foodstim60/bagel plain.jpg', 'key': 'i', 'origWidth': 410, 'origHeight': 410, 'width': 410, 'height': 410, 'widthPercent': 0.45, 'rescaleHeight': False, 'trialN': 24, 'loaded': True, 'loadedTime': 41626.699999999255, 'positionName': 'RIGHT', 'positionCoords': [748.8, 245], 'bid': 9.86}]",41623.39999999851,1669830435814,bagel and cc,bagel plain,9.86,9.86,0.0,bagel and cc,1173.800000000745,1180,1179.8999999985099,True,u,43306.89999999851,1683.5,1669830437497,1683,HRV,HRV_0073,2022-11-30 17:51:57
25,"[{'imgObject': {}, 'id': 'strawberries', 'src': '/static/foodstim60/strawberries.jpg', 'key': 'u', 'origWidth': 410, 'origHeight': 410, 'width': 410, 'height': 410, 'widthPercent': 0.45, 'rescaleHeight': False, 'trialN': 25, 'loaded': True, 'loadedTime': 43310.699999999255, 'positionName': 'LEFT', 'positionCoords': [281.2, 245], 'bid': 4.98}, {'imgObject': {}, 'id': 'luckycharms', 'src': '/static/foodstim60/luckycharms.jpg', 'key': 'i', 'origWidth': 410, 'origHeight': 409, 'width': 410, 'height': 409, 'widthPercent': 0.45, 'rescaleHeight': False, 'trialN': 25, 'loaded': True, 'loadedTime': 43311, 'positionName': 'RIGHT', 'positionCoords': [748.8, 245.5], 'bid': 4.97}]",43307.699999999255,1669830437498,strawberries,luckycharms,4.98,4.97,-0.010000000000000675,strawberries,1168.0999999977648,1176,1175.800000000745,True,u,44983.79999999702,1676.0999999977648,1669830439174,1676,HRV,HRV_0073,2022-11-30 17:51:57
26,"[{'imgObject': {}, 'id': 'ice cream sundae 002', 'src': '/static/foodstim60/ice cream sundae 002.jpg', 'key': 'u', 'origWidth': 409, 'origHeight': 409, 'width': 409, 'height': 409, 'widthPercent': 0.45, 'rescaleHeight': False, 'trialN': 26, 'loaded': True, 'loadedTime': 44987.79999999702, 'positionName': 'LEFT', 'positionCoords': [282.2, 245.5], 'bid': 9.81}, {'imgObject': {}, 'id': 'fruitsalad', 'src': '/static/foodstim60/fruitsalad.jpg', 'key': 'i', 'origWidth': 410, 'origHeight': 410, 'width': 410, 'height': 410, 'widthPercent': 0.45, 'rescaleHeight': False, 'trialN': 26, 'loaded': True, 'loadedTime': 44988.099999997765, 'positionName': 'RIGHT', 'positionCoords': [748.8, 245], 'bid': 5.04}]",44984.699999999255,1669830439175,ice cream sundae 002,fruitsalad,9.81,5.04,-4.7700000000000005,ice cream sundae 002,1184.300000000745,1191,1191.0999999977648,True,u,46678.89999999851,1694.199999999255,1669830440869,1694,HRV,HRV_0073,2022-11-30 17:51:57
27,"[{'imgObject': {}, 'id': 'burrito', 'src': '/static/foodstim60/burrito.jpg', 'key': 'u', 'origWidth': 410, 'origHeight': 410, 'width': 410, 'height': 410, 'widthPercent': 0.45, 'rescaleHeight': False, 'trialN': 27, 'loaded': True, 'loadedTime': 46680.79999999702, 'positionName': 'LEFT', 'positionCoords': [281.2, 245], 'bid': 4.95}, {'imgObject': {}, 'id': 'grilled chicken strips', 'src': '/static/foodstim60/grilled chicken strips.jpg', 'key': 'i', 'origWidth': 410, 'origHeight': 411, 'width': 410, 'height': 411, 'widthPercent': 0.45, 'rescaleHeight': False, 'trialN': 27, 'loaded': True, 'loadedTime': 46681.099999997765, 'positionName': 'RIGHT', 'positionCoords': [748.8, 244.5], 'bid': 4.95}]",46679.29999999702,1669830440870,burrito,grilled chicken strips,4.95,4.95,0.0,grilled chicken strips,1014,1020,1020.7000000029802,True,i,48202.89999999851,1523.6000000014901,1669830442393,1523,HRV,HRV_0073,2022-11-30 17:51:57
28,"[{'imgObject': {}, 'id': 'turkey sandwich', 'src': '/static/foodstim60/turkey sandwich.jpg', 'key': 'u', 'origWidth': 409, 'origHeight': 409, 'width': 409, 'height': 409, 'widthPercent': 0.45, 'rescaleHeight': False, 'trialN': 28, 'loaded': True, 'loadedTime': 48206.79999999702, 'positionName': 'LEFT', 'positionCoords': [282.2, 245.5], 'bid': 4.95}, {'imgObject': {}, 'id': 'luckycharms', 'src': '/static/foodstim60/luckycharms.jpg', 'key': 'i', 'origWidth': 410, 'origHeight': 409, 'width': 410, 'height': 409, 'widthPercent': 0.45, 'rescaleHeight': False, 'trialN': 28, 'loaded': True, 'loadedTime': 48207.199999999255, 'positionName': 'RIGHT', 'positionCoords': [748.8, 245.5], 'bid': 4.97}]",48203.89999999851,1669830442394,turkey sandwich,luckycharms,4.95,4.97,0.019999999999999574,luckycharms,1202.3999999985099,1209,1208.8999999985099,True,i,49915.39999999851,1711.5,1669830444106,1712,HRV,HRV_0073,2022-11-30 17:51:57
29,"[{'imgObject': {}, 'id': 'hashbrowns', 'src': '/static/foodstim60/hashbrowns.jpg', 'key': 'u', 'origWidth': 411, 'origHeight': 410, 'width': 411, 'height': 410, 'widthPercent': 0.45, 'rescaleHeight': False, 'trialN': 29, 'loaded': True, 'loadedTime': 49919.29999999702, 'positionName': 'LEFT', 'positionCoords': [280.2, 245], 'bid': 2.8000000000000003}, {'imgObject': {}, 'id': 'grilled chicken strips', 'src': '/static/foodstim60/grilled chicken strips.jpg', 'key': 'i', 'origWidth': 410, 'origHeight': 411, 'width': 410, 'height': 411, 'widthPercent': 0.45, 'rescaleHeight': False, 'trialN': 29, 'loaded': True, 'loadedTime': 49919.599999997765, 'positionName': 'RIGHT', 'positionCoords': [748.8, 244.5], 'bid': 4.95}]",49916.29999999702,1669830444107,hashbrowns,grilled chicken strips,2.8000000000000003,4.95,2.15,grilled chicken strips,1170.9000000022352,1178,1178.4000000022352,True,i,51597.099999997765,1680.800000000745,1669830445787,1680,HRV,HRV_0073,2022-11-30 17:51:57
30,"[{'imgObject': {}, 'id': 'ice cream sundae 002', 'src': '/static/foodstim60/ice cream sundae 002.jpg', 'key': 'u', 'origWidth': 409, 'origHeight': 409, 'width': 409, 'height': 409, 'widthPercent': 0.45, 'rescaleHeight': False, 'trialN': 30, 'loaded': True, 'loadedTime': 51601.099999997765, 'positionName': 'LEFT', 'positionCoords': [282.2, 245.5], 'bid': 9.81}, {'imgObject': {}, 'id': 'turkey sandwich', 'src': '/static/foodstim60/turkey sandwich.jpg', 'key': 'i', 'origWidth': 409, 'origHeight': 409, 'width': 409, 'height': 409, 'widthPercent': 0.45, 'rescaleHeight': False, 'trialN': 30, 'loaded': True, 'loadedTime': 51601.5, 'positionName': 'RIGHT', 'positionCoords': [748.8, 245.5], 'bid': 4.95}]",51598.0,1669830445788,ice cream sundae 002,turkey sandwich,9.81,4.95,-4.86,ice cream sundae 002,1315.699999999255,1322,1322.0,True,u,53423.29999999702,1825.2999999970198,1669830447614,1826,HRV,HRV_0073,2022-11-30 17:51:57
31,"[{'imgObject': {}, 'id': 'kiwi', 'src': '/static/foodstim60/kiwi.jpg', 'key': 'u', 'origWidth': 410, 'origHeight': 410, 'width': 410, 'height': 410, 'widthPercent': 0.45, 'rescaleHeight': False, 'trialN': 31, 'loaded': True, 'loadedTime': 53426.89999999851, 'positionName': 'LEFT', 'positionCoords': [281.2, 245], 'bid': 4.93}, {'imgObject': {}, 'id': 'burrito', 'src': '/static/foodstim60/burrito.jpg', 'key': 'i', 'origWidth': 410, 'origHeight': 410, 'width': 410, 'height': 410, 'widthPercent': 0.45, 'rescaleHeight': False, 'trialN': 31, 'loaded': True, 'loadedTime': 53427.199999999255, 'positionName': 'RIGHT', 'positionCoords': [748.8, 245], 'bid': 4.95}]",53424.199999999255,1669830447614,kiwi,burrito,4.93,4.95,0.020000000000000462,kiwi,1193.800000000745,1203,1202.0999999977648,True,u,55129.39999999851,1705.199999999255,1669830449320,1706,HRV,HRV_0073,2022-11-30 17:51:57
32,"[{'imgObject': {}, 'id': 'sweetpotato', 'src': '/static/foodstim60/sweetpotato.jpg', 'key': 'u', 'origWidth': 410, 'origHeight': 410, 'width': 410, 'height': 410, 'widthPercent': 0.45, 'rescaleHeight': False, 'trialN': 32, 'loaded': True, 'loadedTime': 55133.099999997765, 'positionName': 'LEFT', 'positionCoords': [281.2, 245], 'bid': 0.29}, {'imgObject': {}, 'id': 'fried eggs', 'src': '/static/foodstim60/fried eggs.jpg', 'key': 'i', 'origWidth': 410, 'origHeight': 410, 'width': 410, 'height': 410, 'widthPercent': 0.45, 'rescaleHeight': False, 'trialN': 32, 'loaded': True, 'loadedTime': 55133.5, 'positionName': 'RIGHT', 'positionCoords': [748.8, 245], 'bid': 0.11}]",55130.29999999702,1669830449321,sweetpotato,fried eggs,0.29,0.11,-0.18,sweetpotato,1058,1065,1065.0,True,u,56695.699999999255,1565.4000000022352,1669830450886,1565,HRV,HRV_0073,2022-11-30 17:51:57
33,"[{'imgObject': {}, 'id': 'cheerios', 'src': '/static/foodstim60/cheerios.jpg', 'key': 'u', 'origWidth': 409, 'origHeight': 410, 'width': 409, 'height': 410, 'widthPercent': 0.45, 'rescaleHeight': False, 'trialN': 33, 'loaded': True, 'loadedTime': 56699.599999997765, 'positionName': 'LEFT', 'positionCoords': [282.2, 245], 'bid': 8.31}, {'imgObject': {}, 'id': 'raisin bran w milk', 'src': '/static/foodstim60/raisin bran w milk.jpg', 'key': 'i', 'origWidth': 411, 'origHeight': 411, 'width': 411, 'height': 411, 'widthPercent': 0.45, 'rescaleHeight': False, 'trialN': 33, 'loaded': True, 'loadedTime': 56700, 'positionName': 'RIGHT', 'positionCoords': [748.8, 244.5], 'bid': 7.34}]",56696.599999997765,1669830450887,cheerios,raisin bran w milk,8.31,7.34,-0.9700000000000006,raisin bran w milk,1297.4000000022352,1304,1304.0,True,i,58503.5,1806.9000000022352,1669830452694,1807,HRV,HRV_0073,2022-11-30 17:51:57
34,"[{'imgObject': {}, 'id': 'cherries', 'src': '/static/foodstim60/cherries.jpg', 'key': 'u', 'origWidth': 410, 'origHeight': 411, 'width': 410, 'height': 411, 'widthPercent': 0.45, 'rescaleHeight': False, 'trialN': 34, 'loaded': True, 'loadedTime': 58507.099999997765, 'positionName': 'LEFT', 'positionCoords': [281.2, 244.5], 'bid': 4.97}, {'imgObject': {}, 'id': 'chickenfingers', 'src': '/static/foodstim60/chickenfingers.jpg', 'key': 'i', 'origWidth': 410, 'origHeight': 410, 'width': 410, 'height': 410, 'widthPercent': 0.45, 'rescaleHeight': False, 'trialN': 34, 'loaded': True, 'loadedTime': 58507.39999999851, 'positionName': 'RIGHT', 'positionCoords': [748.8, 245], 'bid': 9.84}]",58504.39999999851,1669830452695,cherries,chickenfingers,4.97,9.84,4.87,chickenfingers,1109.199999999255,1115,1115.3999999985099,True,i,60123.199999999255,1618.800000000745,1669830454313,1618,HRV,HRV_0073,2022-11-30 17:51:57
35,"[{'imgObject': {}, 'id': 'salmon', 'src': '/static/foodstim60/salmon.jpg', 'key': 'u', 'origWidth': 410, 'origHeight': 409, 'width': 410, 'height': 409, 'widthPercent': 0.45, 'rescaleHeight': False, 'trialN': 35, 'loaded': True, 'loadedTime': 60127.099999997765, 'positionName': 'LEFT', 'positionCoords': [281.2, 245.5], 'bid': 0.13}, {'imgObject': {}, 'id': 'eggs', 'src': '/static/foodstim60/eggs.jpg', 'key': 'i', 'origWidth': 409, 'origHeight': 409, 'width': 409, 'height': 409, 'widthPercent': 0.45, 'rescaleHeight': False, 'trialN': 35, 'loaded': True, 'loadedTime': 60127.39999999851, 'positionName': 'RIGHT', 'positionCoords': [748.8, 245.5], 'bid': 0.12}]",60124.099999997765,1669830454314,salmon,eggs,0.13,0.12,-0.010000000000000009,salmon,1055,1062,1061.300000000745,True,u,61688.5,1564.4000000022352,1669830455879,1565,HRV,HRV_0073,2022-11-30 17:51:57
36,"[{'imgObject': {}, 'id': 'rigatoni and sauce', 'src': '/static/foodstim60/rigatoni and sauce.jpg', 'key': 'u', 'origWidth': 410, 'origHeight': 411, 'width': 410, 'height': 411, 'widthPercent': 0.45, 'rescaleHeight': False, 'trialN': 36, 'loaded': True, 'loadedTime': 61692.29999999702, 'positionName': 'LEFT', 'positionCoords': [281.2, 244.5], 'bid': 9.8}, {'imgObject': {}, 'id': 'mac & cheese', 'src': '/static/foodstim60/mac & cheese.jpg', 'key': 'i', 'origWidth': 410, 'origHeight': 410, 'width': 410, 'height': 410, 'widthPercent': 0.45, 'rescaleHeight': False, 'trialN': 36, 'loaded': True, 'loadedTime': 61692.699999999255, 'positionName': 'RIGHT', 'positionCoords': [748.8, 245], 'bid': 9.59}]",61689.29999999702,1669830455880,rigatoni and sauce,mac & cheese,9.8,9.59,-0.21000000000000085,rigatoni and sauce,1024.7000000029802,1031,1031.6000000014901,True,u,63223.699999999255,1534.4000000022352,1669830457414,1534,HRV,HRV_0073,2022-11-30 17:51:57
37,"[{'imgObject': {}, 'id': 'yogurt no spoon', 'src': '/static/foodstim60/yogurt no spoon.jpg', 'key': 'u', 'origWidth': 411, 'origHeight': 410, 'width': 411, 'height': 410, 'widthPercent': 0.45, 'rescaleHeight': False, 'trialN': 37, 'loaded': True, 'loadedTime': 63227.5, 'positionName': 'LEFT', 'positionCoords': [280.2, 245], 'bid': 9.36}, {'imgObject': {}, 'id': 'roastedpotatoes', 'src': '/static/foodstim60/roastedpotatoes.jpg', 'key': 'i', 'origWidth': 409, 'origHeight': 410, 'width': 409, 'height': 410, 'widthPercent': 0.45, 'rescaleHeight': False, 'trialN': 37, 'loaded': True, 'loadedTime': 63227.89999999851, 'positionName': 'RIGHT', 'positionCoords': [748.8, 245], 'bid': 8.86}]",63224.599999997765,1669830457415,yogurt no spoon,roastedpotatoes,9.36,8.86,-0.5,roastedpotatoes,1245.699999999255,1252,1252.0,True,i,64977.099999997765,1752.5,1669830459167,1752,HRV,HRV_0073,2022-11-30 17:51:57
38,"[{'imgObject': {}, 'id': 'chicken nuggets2', 'src': '/static/foodstim60/chicken nuggets2.jpg', 'key': 'u', 'origWidth': 410, 'origHeight': 409, 'width': 410, 'height': 409, 'widthPercent': 0.45, 'rescaleHeight': False, 'trialN': 38, 'loaded': True, 'loadedTime': 64981, 'positionName': 'LEFT', 'positionCoords': [281.2, 245.5], 'bid': 9.84}, {'imgObject': {}, 'id': 'granola w milk', 'src': '/static/foodstim60/granola w milk.jpg', 'key': 'i', 'origWidth': 410, 'origHeight': 410, 'width': 410, 'height': 410, 'widthPercent': 0.45, 'rescaleHeight': False, 'trialN': 38, 'loaded': True, 'loadedTime': 64981.39999999851, 'positionName': 'RIGHT', 'positionCoords': [748.8, 245], 'bid': 7.66}]",64978.099999997765,1669830459168,chicken nuggets2,granola w milk,9.84,7.66,-2.1799999999999997,chicken nuggets2,1283.699999999255,1292,1291.4000000022352,True,u,66772.89999999851,1794.800000000745,1669830460963,1795,HRV,HRV_0073,2022-11-30 17:51:57
39,"[{'imgObject': {}, 'id': 'fruitsalad', 'src': '/static/foodstim60/fruitsalad.jpg', 'key': 'u', 'origWidth': 410, 'origHeight': 410, 'width': 410, 'height': 410, 'widthPercent': 0.45, 'rescaleHeight': False, 'trialN': 39, 'loaded': True, 'loadedTime': 66776.89999999851, 'positionName': 'LEFT', 'positionCoords': [281.2, 245], 'bid': 5.04}, {'imgObject': {}, 'id': 'shreddedwheatwithmilk', 'src': '/static/foodstim60/shreddedwheatwithmilk.jpg', 'key': 'i', 'origWidth': 410, 'origHeight': 410, 'width': 410, 'height': 410, 'widthPercent': 0.45, 'rescaleHeight': False, 'trialN': 39, 'loaded': True, 'loadedTime': 66777.09999999776, 'positionName': 'RIGHT', 'positionCoords': [748.8, 245], 'bid': 7.91}]",66773.79999999702,1669830460964,fruitsalad,shreddedwheatwithmilk,5.04,7.91,2.87,shreddedwheatwithmilk,1106.4000000022352,1113,1113.5,True,i,68388.0,1614.2000000029802,1669830462578,1614,HRV,HRV_0073,2022-11-30 17:51:57
40,"[{'imgObject': {}, 'id': 'chickenfingers', 'src': '/static/foodstim60/chickenfingers.jpg', 'key': 'u', 'origWidth': 410, 'origHeight': 410, 'width': 410, 'height': 410, 'widthPercent': 0.45, 'rescaleHeight': False, 'trialN': 40, 'loaded': True, 'loadedTime': 68391.89999999851, 'positionName': 'LEFT', 'positionCoords': [281.2, 245], 'bid': 9.84}, {'imgObject': {}, 'id': 'bagel and cc', 'src': '/static/foodstim60/bagel and cc.jpg', 'key': 'i', 'origWidth': 410, 'origHeight': 410, 'width': 410, 'height': 410, 'widthPercent': 0.45, 'rescaleHeight': False, 'trialN': 40, 'loaded': True, 'loadedTime': 68392.29999999702, 'positionName': 'RIGHT', 'positionCoords': [748.8, 245], 'bid': 9.86}]",68388.89999999851,1669830462579,chickenfingers,bagel and cc,9.84,9.86,0.019999999999999574,chickenfingers,1161.1000000014901,1167,1166.800000000745,True,u,70056.19999999925,1667.300000000745,1669830464246,1667,HRV,HRV_0073,2022-11-30 17:51:57
41,"[{'imgObject': {}, 'id': 'apple slices', 'src': '/static/foodstim60/apple slices.jpg', 'key': 'u', 'origWidth': 409, 'origHeight': 410, 'width': 409, 'height': 410, 'widthPercent': 0.45, 'rescaleHeight': False, 'trialN': 41, 'loaded': True, 'loadedTime': 70060.19999999925, 'positionName': 'LEFT', 'positionCoords': [282.2, 245], 'bid': 9.84}, {'imgObject': {}, 'id': 'ice cream sundae 002', 'src': '/static/foodstim60/ice cream sundae 002.jpg', 'key': 'i', 'origWidth': 409, 'origHeight': 409, 'width': 409, 'height': 409, 'widthPercent': 0.45, 'rescaleHeight': False, 'trialN': 41, 'loaded': True, 'loadedTime': 70060.5, 'positionName': 'RIGHT', 'positionCoords': [748.8, 245.5], 'bid': 9.81}]",70057.09999999776,1669830464247,apple slices,ice cream sundae 002,9.84,9.81,-0.02999999999999936,ice cream sundae 002,1174,1181,1181.0,True,i,71740.79999999702,1683.699999999255,1669830465931,1684,HRV,HRV_0073,2022-11-30 17:51:57
42,"[{'imgObject': {}, 'id': 'mac & cheese', 'src': '/static/foodstim60/mac & cheese.jpg', 'key': 'u', 'origWidth': 410, 'origHeight': 410, 'width': 410, 'height': 410, 'widthPercent': 0.45, 'rescaleHeight': False, 'trialN': 42, 'loaded': True, 'loadedTime': 71744.39999999851, 'positionName': 'LEFT', 'positionCoords': [281.2, 245], 'bid': 9.59}, {'imgObject': {}, 'id': 'orange slices', 'src': '/static/foodstim60/orange slices.jpg', 'key': 'i', 'origWidth': 409, 'origHeight': 410, 'width': 409, 'height': 410, 'widthPercent': 0.45, 'rescaleHeight': False, 'trialN': 42, 'loaded': True, 'loadedTime': 71744.79999999702, 'positionName': 'RIGHT', 'positionCoords': [748.8, 245], 'bid': 4.94}]",71741.79999999702,1669830465932,mac & cheese,orange slices,9.59,4.94,-4.6499999999999995,mac & cheese,1309.9000000022352,1317,1317.1000000014901,True,u,73561.79999999702,1820.0,1669830467752,1820,HRV,HRV_0073,2022-11-30 17:51:57
43,"[{'imgObject': {}, 'id': 'luckycharms', 'src': '/static/foodstim60/luckycharms.jpg', 'key': 'u', 'origWidth': 410, 'origHeight': 409, 'width': 410, 'height': 409, 'widthPercent': 0.45, 'rescaleHeight': False, 'trialN': 43, 'loaded': True, 'loadedTime': 73565.79999999702, 'positionName': 'LEFT', 'positionCoords': [281.2, 245.5], 'bid': 4.97}, {'imgObject': {}, 'id': 'yogurt no spoon', 'src': '/static/foodstim60/yogurt no spoon.jpg', 'key': 'i', 'origWidth': 411, 'origHeight': 410, 'width': 411, 'height': 410, 'widthPercent': 0.45, 'rescaleHeight': False, 'trialN': 43, 'loaded': True, 'loadedTime': 73566.09999999776, 'positionName': 'RIGHT', 'positionCoords': [748.8, 245], 'bid': 9.36}]",73562.69999999925,1669830467753,luckycharms,yogurt no spoon,4.97,9.36,4.39,yogurt no spoon,1248.3999999985099,1255,1255.0999999977648,True,i,75320.89999999851,1758.199999999255,1669830469511,1758,HRV,HRV_0073,2022-11-30 17:51:57
44,"[{'imgObject': {}, 'id': 'mango', 'src': '/static/foodstim60/mango.jpg', 'key': 'u', 'origWidth': 411, 'origHeight': 411, 'width': 411, 'height': 411, 'widthPercent': 0.45, 'rescaleHeight': False, 'trialN': 44, 'loaded': True, 'loadedTime': 75324.5, 'positionName': 'LEFT', 'positionCoords': [280.2, 244.5], 'bid': 4.95}, {'imgObject': {}, 'id': 'blackbeanswithrice', 'src': '/static/foodstim60/blackbeanswithrice.jpg', 'key': 'i', 'origWidth': 410, 'origHeight': 410, 'width': 410, 'height': 410, 'widthPercent': 0.45, 'rescaleHeight': False, 'trialN': 44, 'loaded': True, 'loadedTime': 75324.89999999851, 'positionName': 'RIGHT', 'positionCoords': [748.8, 245], 'bid': 9.84}]",75321.69999999925,1669830469512,mango,blackbeanswithrice,4.95,9.84,4.89,blackbeanswithrice,1065.5,1073,1073.0999999977648,True,i,76895.59999999776,1573.8999999985099,1669830471086,1574,HRV,HRV_0073,2022-11-30 17:51:57
45,"[{'imgObject': {}, 'id': 'veggieswithdip', 'src': '/static/foodstim60/veggieswithdip.jpg', 'key': 'u', 'origWidth': 409, 'origHeight': 409, 'width': 409, 'height': 409, 'widthPercent': 0.45, 'rescaleHeight': False, 'trialN': 45, 'loaded': True, 'loadedTime': 76899.19999999925, 'positionName': 'LEFT', 'positionCoords': [282.2, 245.5], 'bid': 4.94}, {'imgObject': {}, 'id': 'tacos', 'src': '/static/foodstim60/tacos.jpg', 'key': 'i', 'origWidth': 411, 'origHeight': 411, 'width': 411, 'height': 411, 'widthPercent': 0.45, 'rescaleHeight': False, 'trialN': 45, 'loaded': True, 'loadedTime': 76899.5, 'positionName': 'RIGHT', 'positionCoords': [748.8, 244.5], 'bid': 9.45}]",76896.5,1669830471087,veggieswithdip,tacos,4.94,9.45,4.509999999999999,veggieswithdip,1275.3999999985099,1282,1282.199999999255,True,u,78681.59999999776,1785.0999999977648,1669830472872,1785,HRV,HRV_0073,2022-11-30 17:51:57
46,"[{'imgObject': {}, 'id': 'chickenfingers', 'src': '/static/foodstim60/chickenfingers.jpg', 'key': 'u', 'origWidth': 410, 'origHeight': 410, 'width': 410, 'height': 410, 'widthPercent': 0.45, 'rescaleHeight': False, 'trialN': 46, 'loaded': True, 'loadedTime': 78685.5, 'positionName': 'LEFT', 'positionCoords': [281.2, 245], 'bid': 9.84}, {'imgObject': {}, 'id': 'rigatoni and sauce', 'src': '/static/foodstim60/rigatoni and sauce.jpg', 'key': 'i', 'origWidth': 410, 'origHeight': 411, 'width': 410, 'height': 411, 'widthPercent': 0.45, 'rescaleHeight': False, 'trialN': 46, 'loaded': True, 'loadedTime': 78685.79999999702, 'positionName': 'RIGHT', 'positionCoords': [748.8, 244.5], 'bid': 9.8}]",78682.5,1669830472873,chickenfingers,rigatoni and sauce,9.84,9.8,-0.03999999999999915,chickenfingers,1527.5,1533,1533.199999999255,True,u,80719.09999999776,2036.5999999977648,1669830474909,2036,HRV,HRV_0073,2022-11-30 17:51:57
47,"[{'imgObject': {}, 'id': 'veggieswithdip', 'src': '/static/foodstim60/veggieswithdip.jpg', 'key': 'u', 'origWidth': 409, 'origHeight': 409, 'width': 409, 'height': 409, 'widthPercent': 0.45, 'rescaleHeight': False, 'trialN': 47, 'loaded': True, 'loadedTime': 80722.89999999851, 'positionName': 'LEFT', 'positionCoords': [282.2, 245.5], 'bid': 4.94}, {'imgObject': {}, 'id': 'eggsalad', 'src': '/static/foodstim60/eggsalad.jpg', 'key': 'i', 'origWidth': 410, 'origHeight': 409, 'width': 410, 'height': 409, 'widthPercent': 0.45, 'rescaleHeight': False, 'trialN': 47, 'loaded': True, 'loadedTime': 80723.19999999925, 'positionName': 'RIGHT', 'positionCoords': [748.8, 245.5], 'bid': 0.19}]",80720.0,1669830474910,veggieswithdip,eggsalad,4.94,0.19,-4.75,veggieswithdip,1475.5999999977648,1482,1481.8999999985099,True,u,82705.09999999776,1985.0999999977648,1669830476895,1985,HRV,HRV_0073,2022-11-30 17:51:57
48,"[{'imgObject': {}, 'id': 'banana', 'src': '/static/foodstim60/banana.jpg', 'key': 'u', 'origWidth': 410, 'origHeight': 410, 'width': 410, 'height': 410, 'widthPercent': 0.45, 'rescaleHeight': False, 'trialN': 48, 'loaded': True, 'loadedTime': 82706.69999999925, 'positionName': 'LEFT', 'positionCoords': [281.2, 245], 'bid': 4.95}, {'imgObject': {}, 'id': 'apple slices', 'src': '/static/foodstim60/apple slices.jpg', 'key': 'i', 'origWidth': 409, 'origHeight': 410, 'width': 409, 'height': 410, 'widthPercent': 0.45, 'rescaleHeight': False, 'trialN': 48, 'loaded': True, 'loadedTime': 82706.89999999851, 'positionName': 'RIGHT', 'positionCoords': [748.8, 245], 'bid': 9.84}]",82705.5,1669830476896,banana,apple slices,4.95,9.84,4.89,banana,1337.699999999255,1344,1344.3999999985099,True,u,84552.79999999702,1847.2999999970198,1669830478743,1847,HRV,HRV_0073,2022-11-30 17:51:57
49,"[{'imgObject': {}, 'id': 'lox', 'src': '/static/foodstim60/lox.jpg', 'key': 'u', 'origWidth': 410, 'origHeight': 411, 'width': 410, 'height': 411, 'widthPercent': 0.45, 'rescaleHeight': False, 'trialN': 49, 'loaded': True, 'loadedTime': 84556.59999999776, 'positionName': 'LEFT', 'positionCoords': [281.2, 244.5], 'bid': 0.13}, {'imgObject': {}, 'id': 'fried eggs', 'src': '/static/foodstim60/fried eggs.jpg', 'key': 'i', 'origWidth': 410, 'origHeight': 410, 'width': 410, 'height': 410, 'widthPercent': 0.45, 'rescaleHeight': False, 'trialN': 49, 'loaded': True, 'loadedTime': 84556.89999999851, 'positionName': 'RIGHT', 'positionCoords': [748.8, 245], 'bid': 0.11}]",84553.69999999925,1669830478744,lox,fried eggs,0.13,0.11,-0.020000000000000004,lox,1362.5999999977648,1369,1368.800000000745,True,u,86425.79999999702,1872.0999999977648,1669830480616,1872,HRV,HRV_0073,2022-11-30 17:51:57
50,"[{'imgObject': {}, 'id': 'salmon', 'src': '/static/foodstim60/salmon.jpg', 'key': 'u', 'origWidth': 410, 'origHeight': 409, 'width': 410, 'height': 409, 'widthPercent': 0.45, 'rescaleHeight': False, 'trialN': 50, 'loaded': True, 'loadedTime': 86429.69999999925, 'positionName': 'LEFT', 'positionCoords': [281.2, 245.5], 'bid': 0.13}, {'imgObject': {}, 'id': 'edamame', 'src': '/static/foodstim60/edamame.jpg', 'key': 'i', 'origWidth': 409, 'origHeight': 410, 'width': 409, 'height': 410, 'widthPercent': 0.45, 'rescaleHeight': False, 'trialN': 50, 'loaded': True, 'loadedTime': 86430.09999999776, 'positionName': 'RIGHT', 'positionCoords': [748.8, 245], 'bid': 4.97}]",86426.59999999776,1669830480617,salmon,edamame,0.13,4.97,4.84,edamame,1163.5,1171,1171.699999999255,True,i,88101.29999999702,1674.699999999255,1669830482291,1674,HRV,HRV_0073,2022-11-30 17:51:57
51,"[{'imgObject': {}, 'id': 'kiwi', 'src': '/static/foodstim60/kiwi.jpg', 'key': 'u', 'origWidth': 410, 'origHeight': 410, 'width': 410, 'height': 410, 'widthPercent': 0.45, 'rescaleHeight': False, 'trialN': 51, 'loaded': True, 'loadedTime': 88105.19999999925, 'positionName': 'LEFT', 'positionCoords': [281.2, 245], 'bid': 4.93}, {'imgObject': {}, 'id': 'mashed potato', 'src': '/static/foodstim60/mashed potato.jpg', 'key': 'i', 'origWidth': 409, 'origHeight': 409, 'width': 409, 'height': 409, 'widthPercent': 0.45, 'rescaleHeight': False, 'trialN': 51, 'loaded': True, 'loadedTime': 88105.59999999776, 'positionName': 'RIGHT', 'positionCoords': [748.8, 245.5], 'bid': 4.93}]",88102.19999999925,1669830482292,kiwi,mashed potato,4.93,4.93,0.0,kiwi,1221.8999999985099,1229,1228.800000000745,True,u,89833.89999999851,1731.699999999255,1669830484024,1732,HRV,HRV_0073,2022-11-30 17:51:57
52,"[{'imgObject': {}, 'id': 'turkey sandwich', 'src': '/static/foodstim60/turkey sandwich.jpg', 'key': 'u', 'origWidth': 409, 'origHeight': 409, 'width': 409, 'height': 409, 'widthPercent': 0.45, 'rescaleHeight': False, 'trialN': 52, 'loaded': True, 'loadedTime': 89837.5, 'positionName': 'LEFT', 'positionCoords': [282.2, 245.5], 'bid': 4.95}, {'imgObject': {}, 'id': 'burrito', 'src': '/static/foodstim60/burrito.jpg', 'key': 'i', 'origWidth': 410, 'origHeight': 410, 'width': 410, 'height': 410, 'widthPercent': 0.45, 'rescaleHeight': False, 'trialN': 52, 'loaded': True, 'loadedTime': 89837.89999999851, 'positionName': 'RIGHT', 'positionCoords': [748.8, 245], 'bid': 4.95}]",89834.69999999925,1669830484025,turkey sandwich,burrito,4.95,4.95,0.0,turkey sandwich,1195.699999999255,1203,1203.5999999977648,True,u,91540.5,1705.800000000745,1669830485731,1706,HRV,HRV_0073,2022-11-30 17:51:57
53,"[{'imgObject': {}, 'id': 'burrito', 'src': '/static/foodstim60/burrito.jpg', 'key': 'u', 'origWidth': 410, 'origHeight': 410, 'width': 410, 'height': 410, 'widthPercent': 0.45, 'rescaleHeight': False, 'trialN': 53, 'loaded': True, 'loadedTime': 91544.29999999702, 'positionName': 'LEFT', 'positionCoords': [281.2, 245], 'bid': 4.95}, {'imgObject': {}, 'id': 'pear', 'src': '/static/foodstim60/pear.jpg', 'key': 'i', 'origWidth': 411, 'origHeight': 410, 'width': 411, 'height': 410, 'widthPercent': 0.45, 'rescaleHeight': False, 'trialN': 53, 'loaded': True, 'loadedTime': 91544.69999999925, 'positionName': 'RIGHT', 'positionCoords': [748.8, 245], 'bid': 9.83}]",91541.29999999702,1669830485731,burrito,pear,4.95,9.83,4.88,pear,992.5,1000,999.1000000014901,True,i,93043.59999999776,1502.300000000745,1669830487234,1503,HRV,HRV_0073,2022-11-30 17:51:57
54,"[{'imgObject': {}, 'id': 'omelette', 'src': '/static/foodstim60/omelette.jpg', 'key': 'u', 'origWidth': 410, 'origHeight': 409, 'width': 410, 'height': 409, 'widthPercent': 0.45, 'rescaleHeight': False, 'trialN': 54, 'loaded': True, 'loadedTime': 93047.09999999776, 'positionName': 'LEFT', 'positionCoords': [281.2, 245.5], 'bid': 0.33}, {'imgObject': {}, 'id': 'seaweed', 'src': '/static/foodstim60/seaweed.jpg', 'key': 'i', 'origWidth': 410, 'origHeight': 410, 'width': 410, 'height': 410, 'widthPercent': 0.45, 'rescaleHeight': False, 'trialN': 54, 'loaded': True, 'loadedTime': 93047.59999999776, 'positionName': 'RIGHT', 'positionCoords': [748.8, 245], 'bid': 0.11}]",93044.39999999851,1669830487234,omelette,seaweed,0.33,0.11,-0.22000000000000003,omelette,1080.300000000745,1088,1087.199999999255,True,u,94634.39999999851,1590.0,1669830488825,1591,HRV,HRV_0073,2022-11-30 17:51:57
55,"[{'imgObject': {}, 'id': 'burger', 'src': '/static/foodstim60/burger.jpg', 'key': 'u', 'origWidth': 409, 'origHeight': 409, 'width': 409, 'height': 409, 'widthPercent': 0.45, 'rescaleHeight': False, 'trialN': 55, 'loaded': True, 'loadedTime': 94638.19999999925, 'positionName': 'LEFT', 'positionCoords': [282.2, 245.5], 'bid': 7.79}, {'imgObject': {}, 'id': 'raspberries', 'src': '/static/foodstim60/raspberries.jpg', 'key': 'i', 'origWidth': 411, 'origHeight': 411, 'width': 411, 'height': 411, 'widthPercent': 0.45, 'rescaleHeight': False, 'trialN': 55, 'loaded': True, 'loadedTime': 94638.5, 'positionName': 'RIGHT', 'positionCoords': [748.8, 244.5], 'bid': 7.56}]",94635.29999999702,1669830488825,burger,raspberries,7.79,7.56,-0.23000000000000043,burger,1123.9000000022352,1131,1131.0,True,u,96269.09999999776,1633.800000000745,1669830490459,1634,HRV,HRV_0073,2022-11-30 17:51:57
56,"[{'imgObject': {}, 'id': 'seaweed', 'src': '/static/foodstim60/seaweed.jpg', 'key': 'u', 'origWidth': 410, 'origHeight': 410, 'width': 410, 'height': 410, 'widthPercent': 0.45, 'rescaleHeight': False, 'trialN': 56, 'loaded': True, 'loadedTime': 96273, 'positionName': 'LEFT', 'positionCoords': [281.2, 245], 'bid': 0.11}, {'imgObject': {}, 'id': 'Tribe humus pita', 'src': '/static/foodstim60/Tribe humus pita.jpg', 'key': 'i', 'origWidth': 411, 'origHeight': 411, 'width': 411, 'height': 411, 'widthPercent': 0.45, 'rescaleHeight': False, 'trialN': 56, 'loaded': True, 'loadedTime': 96273.29999999702, 'positionName': 'RIGHT', 'positionCoords': [748.8, 244.5], 'bid': 4.97}]",96270.0,1669830490460,seaweed,Tribe humus pita,0.11,4.97,4.859999999999999,Tribe humus pita,1109.2999999970198,1116,1115.699999999255,True,i,97888.89999999851,1618.8999999985099,1669830492079,1619,HRV,HRV_0073,2022-11-30 17:51:57
57,"[{'imgObject': {}, 'id': 'rigatoni', 'src': '/static/foodstim60/rigatoni.jpg', 'key': 'u', 'origWidth': 411, 'origHeight': 411, 'width': 411, 'height': 411, 'widthPercent': 0.45, 'rescaleHeight': False, 'trialN': 57, 'loaded': True, 'loadedTime': 97892.5, 'positionName': 'LEFT', 'positionCoords': [280.2, 244.5], 'bid': 9.25}, {'imgObject': {}, 'id': 'raspberries', 'src': '/static/foodstim60/raspberries.jpg', 'key': 'i', 'origWidth': 411, 'origHeight': 411, 'width': 411, 'height': 411, 'widthPercent': 0.45, 'rescaleHeight': False, 'trialN': 57, 'loaded': True, 'loadedTime': 97892.89999999851, 'positionName': 'RIGHT', 'positionCoords': [748.8, 244.5], 'bid': 7.56}]",97889.89999999851,1669830492080,rigatoni,raspberries,9.25,7.56,-1.6900000000000004,rigatoni,1151.699999999255,1159,1159.3999999985099,True,u,99552.79999999702,1662.8999999985099,1669830493743,1663,HRV,HRV_0073,2022-11-30 17:51:57
58,"[{'imgObject': {}, 'id': 'turkey sandwich', 'src': '/static/foodstim60/turkey sandwich.jpg', 'key': 'u', 'origWidth': 409, 'origHeight': 409, 'width': 409, 'height': 409, 'widthPercent': 0.45, 'rescaleHeight': False, 'trialN': 58, 'loaded': True, 'loadedTime': 99556.79999999702, 'positionName': 'LEFT', 'positionCoords': [282.2, 245.5], 'bid': 4.95}, {'imgObject': {}, 'id': 'mashed potato', 'src': '/static/foodstim60/mashed potato.jpg', 'key': 'i', 'origWidth': 409, 'origHeight': 409, 'width': 409, 'height': 409, 'widthPercent': 0.45, 'rescaleHeight': False, 'trialN': 58, 'loaded': True, 'loadedTime': 99557.19999999925, 'positionName': 'RIGHT', 'positionCoords': [748.8, 245.5], 'bid': 4.93}]",99553.59999999776,1669830493744,turkey sandwich,mashed potato,4.95,4.93,-0.020000000000000462,turkey sandwich,1401.1000000014901,1407,1407.300000000745,True,u,101463.19999999925,1909.6000000014901,1669830495653,1909,HRV,HRV_0073,2022-11-30 17:51:57
59,"[{'imgObject': {}, 'id': 'avocado', 'src': '/static/foodstim60/avocado.jpg', 'key': 'u', 'origWidth': 409, 'origHeight': 409, 'width': 409, 'height': 409, 'widthPercent': 0.45, 'rescaleHeight': False, 'trialN': 59, 'loaded': True, 'loadedTime': 101466.29999999702, 'positionName': 'LEFT', 'positionCoords': [282.2, 245.5], 'bid': 0.27}, {'imgObject': {}, 'id': 'salmon', 'src': '/static/foodstim60/salmon.jpg', 'key': 'i', 'origWidth': 410, 'origHeight': 409, 'width': 410, 'height': 409, 'widthPercent': 0.45, 'rescaleHeight': False, 'trialN': 59, 'loaded': True, 'loadedTime': 101466.69999999925, 'positionName': 'RIGHT', 'positionCoords': [748.8, 245.5], 'bid': 0.13}]",101463.79999999702,1669830495654,avocado,salmon,0.27,0.13,-0.14,avocado,1238.7000000029802,1245,1245.5,True,u,103212.19999999925,1748.4000000022352,1669830497402,1748,HRV,HRV_0073,2022-11-30 17:51:57
60,"[{'imgObject': {}, 'id': 'mango', 'src': '/static/foodstim60/mango.jpg', 'key': 'u', 'origWidth': 411, 'origHeight': 411, 'width': 411, 'height': 411, 'widthPercent': 0.45, 'rescaleHeight': False, 'trialN': 60, 'loaded': True, 'loadedTime': 103216.09999999776, 'positionName': 'LEFT', 'positionCoords': [280.2, 244.5], 'bid': 4.95}, {'imgObject': {}, 'id': 'Tribe humus pita', 'src': '/static/foodstim60/Tribe humus pita.jpg', 'key': 'i', 'origWidth': 411, 'origHeight': 411, 'width': 411, 'height': 411, 'widthPercent': 0.45, 'rescaleHeight': False, 'trialN': 60, 'loaded': True, 'loadedTime': 103216.5, 'positionName': 'RIGHT', 'positionCoords': [748.8, 244.5], 'bid': 4.97}]",103213.09999999776,1669830497403,mango,Tribe humus pita,4.95,4.97,0.019999999999999574,Tribe humus pita,1086.5,1094,1093.4000000022352,True,i,104809.69999999925,1596.6000000014901,1669830499000,1597,HRV,HRV_0073,2022-11-30 17:51:57
61,"[{'imgObject': {}, 'id': 'strawberries', 'src': '/static/foodstim60/strawberries.jpg', 'key': 'u', 'origWidth': 410, 'origHeight': 410, 'width': 410, 'height': 410, 'widthPercent': 0.45, 'rescaleHeight': False, 'trialN': 61, 'loaded': True, 'loadedTime': 104813.59999999776, 'positionName': 'LEFT', 'positionCoords': [281.2, 245], 'bid': 4.98}, {'imgObject': {}, 'id': 'baked potato', 'src': '/static/foodstim60/baked potato.jpg', 'key': 'i', 'origWidth': 409, 'origHeight': 410, 'width': 409, 'height': 410, 'widthPercent': 0.45, 'rescaleHeight': False, 'trialN': 61, 'loaded': True, 'loadedTime': 104814, 'positionName': 'RIGHT', 'positionCoords': [748.8, 245], 'bid': 5}]",104810.69999999925,1669830499001,strawberries,baked potato,4.98,5.0,0.019999999999999574,baked potato,1192,1199,1198.800000000745,True,i,106511.29999999702,1700.5999999977648,1669830500701,1700,HRV,HRV_0073,2022-11-30 17:51:57
62,"[{'imgObject': {}, 'id': 'fruitsalad', 'src': '/static/foodstim60/fruitsalad.jpg', 'key': 'u', 'origWidth': 410, 'origHeight': 410, 'width': 410, 'height': 410, 'widthPercent': 0.45, 'rescaleHeight': False, 'trialN': 62, 'loaded': True, 'loadedTime': 106515, 'positionName': 'LEFT', 'positionCoords': [281.2, 245], 'bid': 5.04}, {'imgObject': {}, 'id': 'steak', 'src': '/static/foodstim60/steak.jpg', 'key': 'i', 'origWidth': 410, 'origHeight': 410, 'width': 410, 'height': 410, 'widthPercent': 0.45, 'rescaleHeight': False, 'trialN': 62, 'loaded': True, 'loadedTime': 106515.39999999851, 'positionName': 'RIGHT', 'positionCoords': [748.8, 245], 'bid': 5}]",106512.09999999776,1669830500702,fruitsalad,steak,5.04,5.0,-0.040000000000000036,steak,1180.199999999255,1187,1187.199999999255,True,i,108202.19999999925,1690.1000000014901,1669830502392,1690,HRV,HRV_0073,2022-11-30 17:51:57
63,"[{'imgObject': {}, 'id': 'olives', 'src': '/static/foodstim60/olives.jpg', 'key': 'u', 'origWidth': 410, 'origHeight': 410, 'width': 410, 'height': 410, 'widthPercent': 0.45, 'rescaleHeight': False, 'trialN': 63, 'loaded': True, 'loadedTime': 108205.89999999851, 'positionName': 'LEFT', 'positionCoords': [281.2, 245], 'bid': 0.15}, {'imgObject': {}, 'id': 'cocktailshrimp', 'src': '/static/foodstim60/cocktailshrimp.jpg', 'key': 'i', 'origWidth': 410, 'origHeight': 410, 'width': 410, 'height': 410, 'widthPercent': 0.45, 'rescaleHeight': False, 'trialN': 63, 'loaded': True, 'loadedTime': 108206.19999999925, 'positionName': 'RIGHT', 'positionCoords': [748.8, 245], 'bid': 0.13}]",108203.09999999776,1669830502393,olives,cocktailshrimp,0.15,0.13,-0.01999999999999999,cocktailshrimp,1274.800000000745,1283,1282.800000000745,True,i,109989.29999999702,1786.199999999255,1669830504179,1786,HRV,HRV_0073,2022-11-30 17:51:57
64,"[{'imgObject': {}, 'id': 'raisin bran w milk', 'src': '/static/foodstim60/raisin bran w milk.jpg', 'key': 'u', 'origWidth': 411, 'origHeight': 411, 'width': 411, 'height': 411, 'widthPercent': 0.45, 'rescaleHeight': False, 'trialN': 64, 'loaded': True, 'loadedTime': 109993.19999999925, 'positionName': 'LEFT', 'positionCoords': [280.2, 244.5], 'bid': 7.34}, {'imgObject': {}, 'id': 'popsicles', 'src': '/static/foodstim60/popsicles.jpg', 'key': 'i', 'origWidth': 410, 'origHeight': 410, 'width': 410, 'height': 410, 'widthPercent': 0.45, 'rescaleHeight': False, 'trialN': 64, 'loaded': True, 'loadedTime': 109993.5, 'positionName': 'RIGHT', 'positionCoords': [748.8, 245], 'bid': 4.97}]",109990.19999999925,1669830504180,raisin bran w milk,popsicles,7.34,4.97,-2.37,raisin bran w milk,1214.3999999985099,1221,1221.0999999977648,True,u,111714.19999999925,1724.0,1669830505904,1724,HRV,HRV_0073,2022-11-30 17:51:57
65,"[{'imgObject': {}, 'id': 'lox', 'src': '/static/foodstim60/lox.jpg', 'key': 'u', 'origWidth': 410, 'origHeight': 411, 'width': 410, 'height': 411, 'widthPercent': 0.45, 'rescaleHeight': False, 'trialN': 65, 'loaded': True, 'loadedTime': 111717.79999999702, 'positionName': 'LEFT', 'positionCoords': [281.2, 244.5], 'bid': 0.13}, {'imgObject': {}, 'id': 'grilled chicken strips', 'src': '/static/foodstim60/grilled chicken strips.jpg', 'key': 'i', 'origWidth': 410, 'origHeight': 411, 'width': 410, 'height': 411, 'widthPercent': 0.45, 'rescaleHeight': False, 'trialN': 65, 'loaded': True, 'loadedTime': 111718.19999999925, 'positionName': 'RIGHT', 'positionCoords': [748.8, 244.5], 'bid': 4.95}]",111715.09999999776,1669830505905,lox,grilled chicken strips,0.13,4.95,4.82,grilled chicken strips,1151,1158,1157.4000000022352,True,i,113372.79999999702,1657.699999999255,1669830507563,1658,HRV,HRV_0073,2022-11-30 17:51:57
66,"[{'imgObject': {}, 'id': 'corn cob', 'src': '/static/foodstim60/corn cob.jpg', 'key': 'u', 'origWidth': 411, 'origHeight': 411, 'width': 411, 'height': 411, 'widthPercent': 0.45, 'rescaleHeight': False, 'trialN': 66, 'loaded': True, 'loadedTime': 113374.09999999776, 'positionName': 'LEFT', 'positionCoords': [280.2, 244.5], 'bid': 2.77}, {'imgObject': {}, 'id': 'blueberries', 'src': '/static/foodstim60/blueberries.jpg', 'key': 'i', 'origWidth': 411, 'origHeight': 411, 'width': 411, 'height': 411, 'widthPercent': 0.45, 'rescaleHeight': False, 'trialN': 66, 'loaded': True, 'loadedTime': 113374.19999999925, 'positionName': 'RIGHT', 'positionCoords': [748.8, 244.5], 'bid': 4.97}]",113373.09999999776,1669830507563,corn cob,blueberries,2.77,4.97,2.1999999999999997,corn cob,1348.6000000014901,1356,1355.5,True,u,115231.5,1858.4000000022352,1669830509421,1858,HRV,HRV_0073,2022-11-30 17:51:57
67,"[{'imgObject': {}, 'id': 'blueberries', 'src': '/static/foodstim60/blueberries.jpg', 'key': 'u', 'origWidth': 411, 'origHeight': 411, 'width': 411, 'height': 411, 'widthPercent': 0.45, 'rescaleHeight': False, 'trialN': 67, 'loaded': True, 'loadedTime': 115235.39999999851, 'positionName': 'LEFT', 'positionCoords': [280.2, 244.5], 'bid': 4.97}, {'imgObject': {}, 'id': 'bagel and cc', 'src': '/static/foodstim60/bagel and cc.jpg', 'key': 'i', 'origWidth': 410, 'origHeight': 410, 'width': 410, 'height': 410, 'widthPercent': 0.45, 'rescaleHeight': False, 'trialN': 67, 'loaded': True, 'loadedTime': 115235.79999999702, 'positionName': 'RIGHT', 'positionCoords': [748.8, 245], 'bid': 9.86}]",115232.29999999702,1669830509422,blueberries,bagel and cc,4.97,9.86,4.89,bagel and cc,1049.1000000014901,1055,1055.1000000014901,True,i,116790.39999999851,1558.1000000014901,1669830510980,1558,HRV,HRV_0073,2022-11-30 17:51:57
68,"[{'imgObject': {}, 'id': 'steak', 'src': '/static/foodstim60/steak.jpg', 'key': 'u', 'origWidth': 410, 'origHeight': 410, 'width': 410, 'height': 410, 'widthPercent': 0.45, 'rescaleHeight': False, 'trialN': 68, 'loaded': True, 'loadedTime': 116794.29999999702, 'positionName': 'LEFT', 'positionCoords': [281.2, 245], 'bid': 5}, {'imgObject': {}, 'id': 'burger', 'src': '/static/foodstim60/burger.jpg', 'key': 'i', 'origWidth': 409, 'origHeight': 409, 'width': 409, 'height': 409, 'widthPercent': 0.45, 'rescaleHeight': False, 'trialN': 68, 'loaded': True, 'loadedTime': 116794.59999999776, 'positionName': 'RIGHT', 'positionCoords': [748.8, 245.5], 'bid': 7.79}]",116791.29999999702,1669830510981,steak,burger,5.0,7.79,2.79,burger,1343.4000000022352,1350,1350.2000000029802,True,i,118643.0,1851.7000000029802,1669830512833,1852,HRV,HRV_0073,2022-11-30 17:51:57
69,"[{'imgObject': {}, 'id': 'cheerios', 'src': '/static/foodstim60/cheerios.jpg', 'key': 'u', 'origWidth': 409, 'origHeight': 410, 'width': 409, 'height': 410, 'widthPercent': 0.45, 'rescaleHeight': False, 'trialN': 69, 'loaded': True, 'loadedTime': 118646.69999999925, 'positionName': 'LEFT', 'positionCoords': [282.2, 245], 'bid': 8.31}, {'imgObject': {}, 'id': 'roastedpotatoes', 'src': '/static/foodstim60/roastedpotatoes.jpg', 'key': 'i', 'origWidth': 409, 'origHeight': 410, 'width': 409, 'height': 410, 'widthPercent': 0.45, 'rescaleHeight': False, 'trialN': 69, 'loaded': True, 'loadedTime': 118647, 'positionName': 'RIGHT', 'positionCoords': [748.8, 245], 'bid': 8.86}]",118643.89999999851,1669830512834,cheerios,roastedpotatoes,8.31,8.86,0.5499999999999989,roastedpotatoes,1148.1000000014901,1155,1154.800000000745,True,i,120302.09999999776,1658.199999999255,1669830514492,1658,HRV,HRV_0073,2022-11-30 17:51:57
70,"[{'imgObject': {}, 'id': 'granola w milk', 'src': '/static/foodstim60/granola w milk.jpg', 'key': 'u', 'origWidth': 410, 'origHeight': 410, 'width': 410, 'height': 410, 'widthPercent': 0.45, 'rescaleHeight': False, 'trialN': 70, 'loaded': True, 'loadedTime': 120305.69999999925, 'positionName': 'LEFT', 'positionCoords': [281.2, 245], 'bid': 7.66}, {'imgObject': {}, 'id': 'yogurt no spoon', 'src': '/static/foodstim60/yogurt no spoon.jpg', 'key': 'i', 'origWidth': 411, 'origHeight': 410, 'width': 411, 'height': 410, 'widthPercent': 0.45, 'rescaleHeight': False, 'trialN': 70, 'loaded': True, 'loadedTime': 120306.09999999776, 'positionName': 'RIGHT', 'positionCoords': [748.8, 245], 'bid': 9.36}]",120302.89999999851,1669830514493,granola w milk,yogurt no spoon,7.66,9.36,1.6999999999999993,yogurt no spoon,1091,1097,1097.300000000745,True,i,121903.39999999851,1600.5,1669830516093,1600,HRV,HRV_0073,2022-11-30 17:51:57
71,"[{'imgObject': {}, 'id': 'turkeysandwich', 'src': '/static/foodstim60/turkeysandwich.jpg', 'key': 'u', 'origWidth': 409, 'origHeight': 409, 'width': 409, 'height': 409, 'widthPercent': 0.45, 'rescaleHeight': False, 'trialN': 71, 'loaded': True, 'loadedTime': 121907.09999999776, 'positionName': 'LEFT', 'positionCoords': [282.2, 245.5], 'bid': 4.95}, {'imgObject': {}, 'id': 'chicken nuggets2', 'src': '/static/foodstim60/chicken nuggets2.jpg', 'key': 'i', 'origWidth': 410, 'origHeight': 409, 'width': 410, 'height': 409, 'widthPercent': 0.45, 'rescaleHeight': False, 'trialN': 71, 'loaded': True, 'loadedTime': 121907.59999999776, 'positionName': 'RIGHT', 'positionCoords': [748.8, 245.5], 'bid': 9.84}]",121904.19999999925,1669830516094,turkeysandwich,chicken nuggets2,4.95,9.84,4.89,chicken nuggets2,942.3999999985099,947,947.1999999992549,True,i,123351.69999999925,1447.5,1669830517542,1448,HRV,HRV_0073,2022-11-30 17:51:57
72,"[{'imgObject': {}, 'id': 'hashbrowns', 'src': '/static/foodstim60/hashbrowns.jpg', 'key': 'u', 'origWidth': 411, 'origHeight': 410, 'width': 411, 'height': 410, 'widthPercent': 0.45, 'rescaleHeight': False, 'trialN': 72, 'loaded': True, 'loadedTime': 123354.89999999851, 'positionName': 'LEFT', 'positionCoords': [280.2, 245], 'bid': 2.8000000000000003}, {'imgObject': {}, 'id': 'cocktailshrimp', 'src': '/static/foodstim60/cocktailshrimp.jpg', 'key': 'i', 'origWidth': 410, 'origHeight': 410, 'width': 410, 'height': 410, 'widthPercent': 0.45, 'rescaleHeight': False, 'trialN': 72, 'loaded': True, 'loadedTime': 123355.19999999925, 'positionName': 'RIGHT', 'positionCoords': [748.8, 245], 'bid': 0.13}]",123352.29999999702,1669830517542,hashbrowns,cocktailshrimp,2.8000000000000003,0.13,-2.6700000000000004,hashbrowns,1276.9000000022352,1284,1283.7000000029802,True,u,125138.89999999851,1786.6000000014901,1669830519329,1787,HRV,HRV_0073,2022-11-30 17:51:57
73,"[{'imgObject': {}, 'id': 'raisin bran w milk', 'src': '/static/foodstim60/raisin bran w milk.jpg', 'key': 'u', 'origWidth': 411, 'origHeight': 411, 'width': 411, 'height': 411, 'widthPercent': 0.45, 'rescaleHeight': False, 'trialN': 73, 'loaded': True, 'loadedTime': 125142.79999999702, 'positionName': 'LEFT', 'positionCoords': [280.2, 244.5], 'bid': 7.34}, {'imgObject': {}, 'id': 'eggsalad', 'src': '/static/foodstim60/eggsalad.jpg', 'key': 'i', 'origWidth': 410, 'origHeight': 409, 'width': 410, 'height': 409, 'widthPercent': 0.45, 'rescaleHeight': False, 'trialN': 73, 'loaded': True, 'loadedTime': 125143.09999999776, 'positionName': 'RIGHT', 'positionCoords': [748.8, 245.5], 'bid': 0.19}]",125139.79999999702,1669830519330,raisin bran w milk,eggsalad,7.34,0.19,-7.1499999999999995,raisin bran w milk,1160.1000000014901,1167,1167.1000000014901,True,u,126809.69999999925,1669.9000000022352,1669830521000,1670,HRV,HRV_0073,2022-11-30 17:51:57
74,"[{'imgObject': {}, 'id': 'banana', 'src': '/static/foodstim60/banana.jpg', 'key': 'u', 'origWidth': 410, 'origHeight': 410, 'width': 410, 'height': 410, 'widthPercent': 0.45, 'rescaleHeight': False, 'trialN': 74, 'loaded': True, 'loadedTime': 126813.39999999851, 'positionName': 'LEFT', 'positionCoords': [281.2, 245], 'bid': 4.95}, {'imgObject': {}, 'id': 'turkeysandwich', 'src': '/static/foodstim60/turkeysandwich.jpg', 'key': 'i', 'origWidth': 409, 'origHeight': 409, 'width': 409, 'height': 409, 'widthPercent': 0.45, 'rescaleHeight': False, 'trialN': 74, 'loaded': True, 'loadedTime': 126813.69999999925, 'positionName': 'RIGHT', 'positionCoords': [748.8, 245.5], 'bid': 4.95}]",126810.59999999776,1669830521001,banana,turkeysandwich,4.95,4.95,0.0,banana,1222,1228,1228.9000000022352,True,u,128542.29999999702,1731.699999999255,1669830522732,1731,HRV,HRV_0073,2022-11-30 17:51:57
75,"[{'imgObject': {}, 'id': 'rigatoni', 'src': '/static/foodstim60/rigatoni.jpg', 'key': 'u', 'origWidth': 411, 'origHeight': 411, 'width': 411, 'height': 411, 'widthPercent': 0.45, 'rescaleHeight': False, 'trialN': 75, 'loaded': True, 'loadedTime': 128546.09999999776, 'positionName': 'LEFT', 'positionCoords': [280.2, 244.5], 'bid': 9.25}, {'imgObject': {}, 'id': 'yogurt no spoon', 'src': '/static/foodstim60/yogurt no spoon.jpg', 'key': 'i', 'origWidth': 411, 'origHeight': 410, 'width': 411, 'height': 410, 'widthPercent': 0.45, 'rescaleHeight': False, 'trialN': 75, 'loaded': True, 'loadedTime': 128546.5, 'positionName': 'RIGHT', 'positionCoords': [748.8, 245], 'bid': 9.36}]",128543.19999999925,1669830522733,rigatoni,yogurt no spoon,9.25,9.36,0.10999999999999943,yogurt no spoon,1635.3999999985099,1644,1643.3999999985099,True,i,130689.79999999702,2146.599999997765,1669830524880,2147,HRV,HRV_0073,2022-11-30 17:51:57
76,"[{'imgObject': {}, 'id': 'cherry tomato', 'src': '/static/foodstim60/cherry tomato.jpg', 'key': 'u', 'origWidth': 410, 'origHeight': 410, 'width': 410, 'height': 410, 'widthPercent': 0.45, 'rescaleHeight': False, 'trialN': 76, 'loaded': True, 'loadedTime': 130693.59999999776, 'positionName': 'LEFT', 'positionCoords': [281.2, 245], 'bid': 2.75}, {'imgObject': {}, 'id': 'shreddedwheatwithmilk', 'src': '/static/foodstim60/shreddedwheatwithmilk.jpg', 'key': 'i', 'origWidth': 410, 'origHeight': 410, 'width': 410, 'height': 410, 'widthPercent': 0.45, 'rescaleHeight': False, 'trialN': 76, 'loaded': True, 'loadedTime': 130693.89999999851, 'positionName': 'RIGHT', 'positionCoords': [748.8, 245], 'bid': 7.91}]",130690.59999999776,1669830524881,cherry tomato,shreddedwheatwithmilk,2.75,7.91,5.16,shreddedwheatwithmilk,1302.300000000745,1309,1309.1000000014901,True,i,132502.5,1811.9000000022352,1669830526692,1811,HRV,HRV_0073,2022-11-30 17:51:57
77,"[{'imgObject': {}, 'id': 'avocado', 'src': '/static/foodstim60/avocado.jpg', 'key': 'u', 'origWidth': 409, 'origHeight': 409, 'width': 409, 'height': 409, 'widthPercent': 0.45, 'rescaleHeight': False, 'trialN': 77, 'loaded': True, 'loadedTime': 132506.3999999985, 'positionName': 'LEFT', 'positionCoords': [282.2, 245.5], 'bid': 0.27}, {'imgObject': {}, 'id': 'eggsalad', 'src': '/static/foodstim60/eggsalad.jpg', 'key': 'i', 'origWidth': 410, 'origHeight': 409, 'width': 410, 'height': 409, 'widthPercent': 0.45, 'rescaleHeight': False, 'trialN': 77, 'loaded': True, 'loadedTime': 132506.79999999702, 'positionName': 'RIGHT', 'positionCoords': [748.8, 245.5], 'bid': 0.19}]",132503.3999999985,1669830526693,avocado,eggsalad,0.27,0.19,-0.08000000000000002,eggsalad,1143.199999999255,1150,1149.699999999255,True,i,134156.0,1652.6000000014901,1669830528346,1653,HRV,HRV_0073,2022-11-30 17:51:57
78,"[{'imgObject': {}, 'id': 'fruitsalad', 'src': '/static/foodstim60/fruitsalad.jpg', 'key': 'u', 'origWidth': 410, 'origHeight': 410, 'width': 410, 'height': 410, 'widthPercent': 0.45, 'rescaleHeight': False, 'trialN': 78, 'loaded': True, 'loadedTime': 134159.8999999985, 'positionName': 'LEFT', 'positionCoords': [281.2, 245], 'bid': 5.04}, {'imgObject': {}, 'id': 'olives', 'src': '/static/foodstim60/olives.jpg', 'key': 'i', 'origWidth': 410, 'origHeight': 410, 'width': 410, 'height': 410, 'widthPercent': 0.45, 'rescaleHeight': False, 'trialN': 78, 'loaded': True, 'loadedTime': 134160.29999999702, 'positionName': 'RIGHT', 'positionCoords': [748.8, 245], 'bid': 0.15}]",134156.8999999985,1669830528347,fruitsalad,olives,5.04,0.15,-4.89,fruitsalad,1174.5,1181,1181.3999999985099,True,u,135838.69999999925,1681.800000000745,1669830530029,1682,HRV,HRV_0073,2022-11-30 17:51:57
79,"[{'imgObject': {}, 'id': 'olives', 'src': '/static/foodstim60/olives.jpg', 'key': 'u', 'origWidth': 410, 'origHeight': 410, 'width': 410, 'height': 410, 'widthPercent': 0.45, 'rescaleHeight': False, 'trialN': 79, 'loaded': True, 'loadedTime': 135842.3999999985, 'positionName': 'LEFT', 'positionCoords': [281.2, 245], 'bid': 0.15}, {'imgObject': {}, 'id': 'seaweed', 'src': '/static/foodstim60/seaweed.jpg', 'key': 'i', 'origWidth': 410, 'origHeight': 410, 'width': 410, 'height': 410, 'widthPercent': 0.45, 'rescaleHeight': False, 'trialN': 79, 'loaded': True, 'loadedTime': 135842.69999999925, 'positionName': 'RIGHT', 'positionCoords': [748.8, 245], 'bid': 0.11}]",135839.5,1669830530029,olives,seaweed,0.15,0.11,-0.039999999999999994,olives,1111.7999999970198,1119,1118.8999999985099,True,u,137461.3999999985,1621.8999999985099,1669830531651,1622,HRV,HRV_0073,2022-11-30 17:51:57
80,"[{'imgObject': {}, 'id': 'rigatoni', 'src': '/static/foodstim60/rigatoni.jpg', 'key': 'u', 'origWidth': 411, 'origHeight': 411, 'width': 411, 'height': 411, 'widthPercent': 0.45, 'rescaleHeight': False, 'trialN': 80, 'loaded': True, 'loadedTime': 137465.3999999985, 'positionName': 'LEFT', 'positionCoords': [280.2, 244.5], 'bid': 9.25}, {'imgObject': {}, 'id': 'chicken nuggets2', 'src': '/static/foodstim60/chicken nuggets2.jpg', 'key': 'i', 'origWidth': 410, 'origHeight': 409, 'width': 410, 'height': 409, 'widthPercent': 0.45, 'rescaleHeight': False, 'trialN': 80, 'loaded': True, 'loadedTime': 137465.59999999776, 'positionName': 'RIGHT', 'positionCoords': [748.8, 245.5], 'bid': 9.84}]",137462.19999999925,1669830531652,rigatoni,chicken nuggets2,9.25,9.84,0.5899999999999999,chicken nuggets2,1144.199999999255,1151,1150.8999999985099,True,i,139116.0,1653.800000000745,1669830533306,1654,HRV,HRV_0073,2022-11-30 17:51:57
81,"[{'imgObject': {}, 'id': 'omelette', 'src': '/static/foodstim60/omelette.jpg', 'key': 'u', 'origWidth': 410, 'origHeight': 409, 'width': 410, 'height': 409, 'widthPercent': 0.45, 'rescaleHeight': False, 'trialN': 81, 'loaded': True, 'loadedTime': 139119.8999999985, 'positionName': 'LEFT', 'positionCoords': [281.2, 245.5], 'bid': 0.33}, {'imgObject': {}, 'id': 'sweetpotato', 'src': '/static/foodstim60/sweetpotato.jpg', 'key': 'i', 'origWidth': 410, 'origHeight': 410, 'width': 410, 'height': 410, 'widthPercent': 0.45, 'rescaleHeight': False, 'trialN': 81, 'loaded': True, 'loadedTime': 139120.19999999925, 'positionName': 'RIGHT', 'positionCoords': [748.8, 245], 'bid': 0.29}]",139116.8999999985,1669830533307,omelette,sweetpotato,0.33,0.29,-0.040000000000000036,sweetpotato,1178,1186,1186.3999999985099,True,i,140804.09999999776,1687.199999999255,1669830534994,1687,HRV,HRV_0073,2022-11-30 17:51:57
82,"[{'imgObject': {}, 'id': 'corn cob', 'src': '/static/foodstim60/corn cob.jpg', 'key': 'u', 'origWidth': 411, 'origHeight': 411, 'width': 411, 'height': 411, 'widthPercent': 0.45, 'rescaleHeight': False, 'trialN': 82, 'loaded': True, 'loadedTime': 140807.79999999702, 'positionName': 'LEFT', 'positionCoords': [280.2, 244.5], 'bid': 2.77}, {'imgObject': {}, 'id': 'sushi w_condiments', 'src': '/static/foodstim60/sushi w_condiments.jpg', 'key': 'i', 'origWidth': 410, 'origHeight': 410, 'width': 410, 'height': 410, 'widthPercent': 0.45, 'rescaleHeight': False, 'trialN': 82, 'loaded': True, 'loadedTime': 140808.09999999776, 'positionName': 'RIGHT', 'positionCoords': [748.8, 245], 'bid': 0.13}]",140805.0,1669830534995,corn cob,sushi w_condiments,2.77,0.13,-2.64,corn cob,1171,1173,1173.0,True,u,142480.59999999776,1675.5999999977648,1669830536670,1675,HRV,HRV_0073,2022-11-30 17:51:57
83,"[{'imgObject': {}, 'id': 'eggs', 'src': '/static/foodstim60/eggs.jpg', 'key': 'u', 'origWidth': 409, 'origHeight': 409, 'width': 409, 'height': 409, 'widthPercent': 0.45, 'rescaleHeight': False, 'trialN': 83, 'loaded': True, 'loadedTime': 142484.59999999776, 'positionName': 'LEFT', 'positionCoords': [282.2, 245.5], 'bid': 0.12}, {'imgObject': {}, 'id': 'luckycharms', 'src': '/static/foodstim60/luckycharms.jpg', 'key': 'i', 'origWidth': 410, 'origHeight': 409, 'width': 410, 'height': 409, 'widthPercent': 0.45, 'rescaleHeight': False, 'trialN': 83, 'loaded': True, 'loadedTime': 142484.8999999985, 'positionName': 'RIGHT', 'positionCoords': [748.8, 245.5], 'bid': 4.97}]",142481.5,1669830536671,eggs,luckycharms,0.12,4.97,4.85,luckycharms,1150.2999999970198,1156,1156.0,True,i,144139.09999999776,1657.5999999977648,1669830538329,1658,HRV,HRV_0073,2022-11-30 17:51:57
84,"[{'imgObject': {}, 'id': 'raisin bran w milk', 'src': '/static/foodstim60/raisin bran w milk.jpg', 'key': 'u', 'origWidth': 411, 'origHeight': 411, 'width': 411, 'height': 411, 'widthPercent': 0.45, 'rescaleHeight': False, 'trialN': 84, 'loaded': True, 'loadedTime': 144142.8999999985, 'positionName': 'LEFT', 'positionCoords': [280.2, 244.5], 'bid': 7.34}, {'imgObject': {}, 'id': 'steak', 'src': '/static/foodstim60/steak.jpg', 'key': 'i', 'origWidth': 410, 'origHeight': 410, 'width': 410, 'height': 410, 'widthPercent': 0.45, 'rescaleHeight': False, 'trialN': 84, 'loaded': True, 'loadedTime': 144143.19999999925, 'positionName': 'RIGHT', 'positionCoords': [748.8, 245], 'bid': 5}]",144140.0,1669830538330,raisin bran w milk,steak,7.34,5.0,-2.34,raisin bran w milk,1545.0999999977648,1551,1551.5,True,u,146194.69999999925,2054.699999999255,1669830540385,2055,HRV,HRV_0073,2022-11-30 17:51:57
85,"[{'imgObject': {}, 'id': 'steak', 'src': '/static/foodstim60/steak.jpg', 'key': 'u', 'origWidth': 410, 'origHeight': 410, 'width': 410, 'height': 410, 'widthPercent': 0.45, 'rescaleHeight': False, 'trialN': 85, 'loaded': True, 'loadedTime': 146198.59999999776, 'positionName': 'LEFT', 'positionCoords': [281.2, 245], 'bid': 5}, {'imgObject': {}, 'id': 'rigatoni and sauce', 'src': '/static/foodstim60/rigatoni and sauce.jpg', 'key': 'i', 'origWidth': 410, 'origHeight': 411, 'width': 410, 'height': 411, 'widthPercent': 0.45, 'rescaleHeight': False, 'trialN': 85, 'loaded': True, 'loadedTime': 146199, 'positionName': 'RIGHT', 'positionCoords': [748.8, 244.5], 'bid': 9.8}]",146195.59999999776,1669830540385,steak,rigatoni and sauce,5.0,9.8,4.800000000000001,rigatoni and sauce,1150,1158,1157.1000000014901,True,i,147855.69999999925,1660.1000000014901,1669830542045,1660,HRV,HRV_0073,2022-11-30 17:51:57
86,"[{'imgObject': {}, 'id': 'bagel plain', 'src': '/static/foodstim60/bagel plain.jpg', 'key': 'u', 'origWidth': 410, 'origHeight': 410, 'width': 410, 'height': 410, 'widthPercent': 0.45, 'rescaleHeight': False, 'trialN': 86, 'loaded': True, 'loadedTime': 147859.69999999925, 'positionName': 'LEFT', 'positionCoords': [281.2, 245], 'bid': 9.86}, {'imgObject': {}, 'id': 'chicken nuggets2', 'src': '/static/foodstim60/chicken nuggets2.jpg', 'key': 'i', 'origWidth': 410, 'origHeight': 409, 'width': 410, 'height': 409, 'widthPercent': 0.45, 'rescaleHeight': False, 'trialN': 86, 'loaded': True, 'loadedTime': 147860.09999999776, 'positionName': 'RIGHT', 'positionCoords': [748.8, 245.5], 'bid': 9.84}]",147856.59999999776,1669830542046,bagel plain,chicken nuggets2,9.86,9.84,-0.019999999999999574,bagel plain,1299.4000000022352,1306,1305.6000000014901,True,u,149665.69999999925,1809.1000000014901,1669830543856,1810,HRV,HRV_0073,2022-11-30 17:51:57
87,"[{'imgObject': {}, 'id': 'bagel and cc', 'src': '/static/foodstim60/bagel and cc.jpg', 'key': 'u', 'origWidth': 410, 'origHeight': 410, 'width': 410, 'height': 410, 'widthPercent': 0.45, 'rescaleHeight': False, 'trialN': 87, 'loaded': True, 'loadedTime': 149669.59999999776, 'positionName': 'LEFT', 'positionCoords': [281.2, 245], 'bid': 9.86}, {'imgObject': {}, 'id': 'cheerios', 'src': '/static/foodstim60/cheerios.jpg', 'key': 'i', 'origWidth': 409, 'origHeight': 410, 'width': 409, 'height': 410, 'widthPercent': 0.45, 'rescaleHeight': False, 'trialN': 87, 'loaded': True, 'loadedTime': 149669.8999999985, 'positionName': 'RIGHT', 'positionCoords': [748.8, 245], 'bid': 8.31}]",149666.59999999776,1669830543856,bagel and cc,cheerios,9.86,8.31,-1.549999999999999,bagel and cc,1135.5,1144,1143.9000000022352,True,u,151313.3999999985,1646.800000000745,1669830545503,1647,HRV,HRV_0073,2022-11-30 17:51:57
88,"[{'imgObject': {}, 'id': 'shreddedwheatwithmilk', 'src': '/static/foodstim60/shreddedwheatwithmilk.jpg', 'key': 'u', 'origWidth': 410, 'origHeight': 410, 'width': 410, 'height': 410, 'widthPercent': 0.45, 'rescaleHeight': False, 'trialN': 88, 'loaded': True, 'loadedTime': 151316.69999999925, 'positionName': 'LEFT', 'positionCoords': [281.2, 245], 'bid': 7.91}, {'imgObject': {}, 'id': 'burger', 'src': '/static/foodstim60/burger.jpg', 'key': 'i', 'origWidth': 409, 'origHeight': 409, 'width': 409, 'height': 409, 'widthPercent': 0.45, 'rescaleHeight': False, 'trialN': 88, 'loaded': True, 'loadedTime': 151317.19999999925, 'positionName': 'RIGHT', 'positionCoords': [748.8, 245.5], 'bid': 7.79}]",151314.09999999776,1669830545504,shreddedwheatwithmilk,burger,7.91,7.79,-0.1200000000000001,burger,1345.9000000022352,1353,1352.9000000022352,True,i,153170.09999999776,1856.0,1669830547360,1856,HRV,HRV_0073,2022-11-30 17:51:57
89,"[{'imgObject': {}, 'id': 'froot loops w milk', 'src': '/static/foodstim60/froot loops w milk.jpg', 'key': 'u', 'origWidth': 410, 'origHeight': 410, 'width': 410, 'height': 410, 'widthPercent': 0.45, 'rescaleHeight': False, 'trialN': 89, 'loaded': True, 'loadedTime': 153174, 'positionName': 'LEFT', 'positionCoords': [281.2, 245], 'bid': 4.97}, {'imgObject': {}, 'id': 'salad w chicken', 'src': '/static/foodstim60/salad w chicken.jpg', 'key': 'i', 'origWidth': 411, 'origHeight': 411, 'width': 411, 'height': 411, 'widthPercent': 0.45, 'rescaleHeight': False, 'trialN': 89, 'loaded': True, 'loadedTime': 153174.29999999702, 'positionName': 'RIGHT', 'positionCoords': [748.8, 244.5], 'bid': 4.94}]",153171.0,1669830547361,froot loops w milk,salad w chicken,4.97,4.94,-0.02999999999999936,salad w chicken,1217.8999999985099,1224,1224.199999999255,True,i,154898.59999999776,1727.5999999977648,1669830549088,1727,HRV,HRV_0073,2022-11-30 17:51:57
90,"[{'imgObject': {}, 'id': 'eggs', 'src': '/static/foodstim60/eggs.jpg', 'key': 'u', 'origWidth': 409, 'origHeight': 409, 'width': 409, 'height': 409, 'widthPercent': 0.45, 'rescaleHeight': False, 'trialN': 90, 'loaded': True, 'loadedTime': 157809.8999999985, 'positionName': 'LEFT', 'positionCoords': [282.2, 245.5], 'bid': 0.12}, {'imgObject': {}, 'id': 'fried eggs', 'src': '/static/foodstim60/fried eggs.jpg', 'key': 'i', 'origWidth': 410, 'origHeight': 410, 'width': 410, 'height': 410, 'widthPercent': 0.45, 'rescaleHeight': False, 'trialN': 90, 'loaded': True, 'loadedTime': 157810.3999999985, 'positionName': 'RIGHT', 'positionCoords': [748.8, 245], 'bid': 0.11}]",157807.3999999985,1669830551997,eggs,fried eggs,0.12,0.11,-0.009999999999999995,fried eggs,987.5,991,991.1000000014901,True,i,159303.0,1495.6000000014901,1669830553493,1496,HRV,HRV_0073,2022-11-30 17:51:57
91,"[{'imgObject': {}, 'id': 'apple slices', 'src': '/static/foodstim60/apple slices.jpg', 'key': 'u', 'origWidth': 409, 'origHeight': 410, 'width': 409, 'height': 410, 'widthPercent': 0.45, 'rescaleHeight': False, 'trialN': 91, 'loaded': True, 'loadedTime': 159307, 'positionName': 'LEFT', 'positionCoords': [282.2, 245], 'bid': 9.84}, {'imgObject': {}, 'id': 'cheerios', 'src': '/static/foodstim60/cheerios.jpg', 'key': 'i', 'origWidth': 409, 'origHeight': 410, 'width': 409, 'height': 410, 'widthPercent': 0.45, 'rescaleHeight': False, 'trialN': 91, 'loaded': True, 'loadedTime': 159307.29999999702, 'positionName': 'RIGHT', 'positionCoords': [748.8, 245], 'bid': 8.31}]",159303.8999999985,1669830553494,apple slices,cheerios,9.84,8.31,-1.5299999999999994,cheerios,1248.3999999985099,1255,1255.199999999255,True,i,161059.3999999985,1755.5,1669830555249,1755,HRV,HRV_0073,2022-11-30 17:51:57
92,"[{'imgObject': {}, 'id': 'mac & cheese', 'src': '/static/foodstim60/mac & cheese.jpg', 'key': 'u', 'origWidth': 410, 'origHeight': 410, 'width': 410, 'height': 410, 'widthPercent': 0.45, 'rescaleHeight': False, 'trialN': 92, 'loaded': True, 'loadedTime': 161063.09999999776, 'positionName': 'LEFT', 'positionCoords': [281.2, 245], 'bid': 9.59}, {'imgObject': {}, 'id': 'tacos', 'src': '/static/foodstim60/tacos.jpg', 'key': 'i', 'origWidth': 411, 'origHeight': 411, 'width': 411, 'height': 411, 'widthPercent': 0.45, 'rescaleHeight': False, 'trialN': 92, 'loaded': True, 'loadedTime': 161063.3999999985, 'positionName': 'RIGHT', 'positionCoords': [748.8, 244.5], 'bid': 9.45}]",161060.29999999702,1669830555250,mac & cheese,tacos,9.59,9.45,-0.14000000000000057,mac & cheese,993.9000000022352,1002,1001.7000000029802,True,u,162564.19999999925,1503.9000000022352,1669830556754,1504,HRV,HRV_0073,2022-11-30 17:51:57
93,"[{'imgObject': {}, 'id': 'pear', 'src': '/static/foodstim60/pear.jpg', 'key': 'u', 'origWidth': 411, 'origHeight': 410, 'width': 411, 'height': 410, 'widthPercent': 0.45, 'rescaleHeight': False, 'trialN': 93, 'loaded': True, 'loadedTime': 162568.19999999925, 'positionName': 'LEFT', 'positionCoords': [280.2, 245], 'bid': 9.83}, {'imgObject': {}, 'id': 'bagel and cc', 'src': '/static/foodstim60/bagel and cc.jpg', 'key': 'i', 'origWidth': 410, 'origHeight': 410, 'width': 410, 'height': 410, 'widthPercent': 0.45, 'rescaleHeight': False, 'trialN': 93, 'loaded': True, 'loadedTime': 162568.69999999925, 'positionName': 'RIGHT', 'positionCoords': [748.8, 245], 'bid': 9.86}]",162565.19999999925,1669830556755,pear,bagel and cc,9.83,9.86,0.02999999999999936,bagel and cc,1096.300000000745,1103,1103.0,True,i,164171.19999999925,1606.0,1669830558361,1606,HRV,HRV_0073,2022-11-30 17:51:57
94,"[{'imgObject': {}, 'id': 'blueberries', 'src': '/static/foodstim60/blueberries.jpg', 'key': 'u', 'origWidth': 411, 'origHeight': 411, 'width': 411, 'height': 411, 'widthPercent': 0.45, 'rescaleHeight': False, 'trialN': 94, 'loaded': True, 'loadedTime': 164175.29999999702, 'positionName': 'LEFT', 'positionCoords': [280.2, 244.5], 'bid': 4.97}, {'imgObject': {}, 'id': 'popsicles', 'src': '/static/foodstim60/popsicles.jpg', 'key': 'i', 'origWidth': 410, 'origHeight': 410, 'width': 410, 'height': 410, 'widthPercent': 0.45, 'rescaleHeight': False, 'trialN': 94, 'loaded': True, 'loadedTime': 164175.69999999925, 'positionName': 'RIGHT', 'positionCoords': [748.8, 245], 'bid': 4.97}]",164172.19999999925,1669830558362,blueberries,popsicles,4.97,4.97,0.0,blueberries,1383.5999999977648,1390,1389.5999999977648,True,u,166062.19999999925,1890.0,1669830560252,1890,HRV,HRV_0073,2022-11-30 17:51:57
95,"[{'imgObject': {}, 'id': 'edamame', 'src': '/static/foodstim60/edamame.jpg', 'key': 'u', 'origWidth': 409, 'origHeight': 410, 'width': 409, 'height': 410, 'widthPercent': 0.45, 'rescaleHeight': False, 'trialN': 95, 'loaded': True, 'loadedTime': 166066.09999999776, 'positionName': 'LEFT', 'positionCoords': [282.2, 245], 'bid': 4.97}, {'imgObject': {}, 'id': 'baked potato', 'src': '/static/foodstim60/baked potato.jpg', 'key': 'i', 'origWidth': 409, 'origHeight': 410, 'width': 409, 'height': 410, 'widthPercent': 0.45, 'rescaleHeight': False, 'trialN': 95, 'loaded': True, 'loadedTime': 166066.5, 'positionName': 'RIGHT', 'positionCoords': [748.8, 245], 'bid': 5}]",166063.09999999776,1669830560253,edamame,baked potato,4.97,5.0,0.03000000000000025,baked potato,863.6999999992549,870,870.5,True,i,167435.69999999925,1372.6000000014901,1669830561625,1372,HRV,HRV_0073,2022-11-30 17:51:57
96,"[{'imgObject': {}, 'id': 'banana', 'src': '/static/foodstim60/banana.jpg', 'key': 'u', 'origWidth': 410, 'origHeight': 410, 'width': 410, 'height': 410, 'widthPercent': 0.45, 'rescaleHeight': False, 'trialN': 96, 'loaded': True, 'loadedTime': 167439.5, 'positionName': 'LEFT', 'positionCoords': [281.2, 245], 'bid': 4.95}, {'imgObject': {}, 'id': 'mango', 'src': '/static/foodstim60/mango.jpg', 'key': 'i', 'origWidth': 411, 'origHeight': 411, 'width': 411, 'height': 411, 'widthPercent': 0.45, 'rescaleHeight': False, 'trialN': 96, 'loaded': True, 'loadedTime': 167439.79999999702, 'positionName': 'RIGHT', 'positionCoords': [748.8, 244.5], 'bid': 4.95}]",167436.59999999776,1669830561626,banana,mango,4.95,4.95,0.0,banana,1028.6000000014901,1036,1035.300000000745,True,u,168975.29999999702,1538.699999999255,1669830563165,1539,HRV,HRV_0073,2022-11-30 17:51:57
97,"[{'imgObject': {}, 'id': 'Grapes', 'src': '/static/foodstim60/Grapes.jpg', 'key': 'u', 'origWidth': 411, 'origHeight': 411, 'width': 411, 'height': 411, 'widthPercent': 0.45, 'rescaleHeight': False, 'trialN': 97, 'loaded': True, 'loadedTime': 168979.29999999702, 'positionName': 'LEFT', 'positionCoords': [280.2, 244.5], 'bid': 9.66}, {'imgObject': {}, 'id': 'salad w chicken', 'src': '/static/foodstim60/salad w chicken.jpg', 'key': 'i', 'origWidth': 411, 'origHeight': 411, 'width': 411, 'height': 411, 'widthPercent': 0.45, 'rescaleHeight': False, 'trialN': 97, 'loaded': True, 'loadedTime': 168979.59999999776, 'positionName': 'RIGHT', 'positionCoords': [748.8, 244.5], 'bid': 4.94}]",168976.19999999925,1669830563166,Grapes,salad w chicken,9.66,4.94,-4.72,Grapes,850.3999999985099,857,857.3000000007451,True,u,170336.29999999702,1360.0999999977648,1669830564526,1360,HRV,HRV_0073,2022-11-30 17:51:57
98,"[{'imgObject': {}, 'id': 'roastedpotatoes', 'src': '/static/foodstim60/roastedpotatoes.jpg', 'key': 'u', 'origWidth': 409, 'origHeight': 410, 'width': 409, 'height': 410, 'widthPercent': 0.45, 'rescaleHeight': False, 'trialN': 98, 'loaded': True, 'loadedTime': 170340.09999999776, 'positionName': 'LEFT', 'positionCoords': [282.2, 245], 'bid': 8.86}, {'imgObject': {}, 'id': 'hashbrowns', 'src': '/static/foodstim60/hashbrowns.jpg', 'key': 'i', 'origWidth': 411, 'origHeight': 410, 'width': 411, 'height': 410, 'widthPercent': 0.45, 'rescaleHeight': False, 'trialN': 98, 'loaded': True, 'loadedTime': 170340.3999999985, 'positionName': 'RIGHT', 'positionCoords': [748.8, 245], 'bid': 2.8000000000000003}]",170337.19999999925,1669830564527,roastedpotatoes,hashbrowns,8.86,2.8000000000000003,-6.059999999999999,roastedpotatoes,1052.8999999985099,1059,1059.300000000745,True,u,171899.8999999985,1562.699999999255,1669830566090,1563,HRV,HRV_0073,2022-11-30 17:51:57
99,"[{'imgObject': {}, 'id': 'granola w milk', 'src': '/static/foodstim60/granola w milk.jpg', 'key': 'u', 'origWidth': 410, 'origHeight': 410, 'width': 410, 'height': 410, 'widthPercent': 0.45, 'rescaleHeight': False, 'trialN': 99, 'loaded': True, 'loadedTime': 171903.5, 'positionName': 'LEFT', 'positionCoords': [281.2, 245], 'bid': 7.66}, {'imgObject': {}, 'id': 'shreddedwheatwithmilk', 'src': '/static/foodstim60/shreddedwheatwithmilk.jpg', 'key': 'i', 'origWidth': 410, 'origHeight': 410, 'width': 410, 'height': 410, 'widthPercent': 0.45, 'rescaleHeight': False, 'trialN': 99, 'loaded': True, 'loadedTime': 171903.8999999985, 'positionName': 'RIGHT', 'positionCoords': [748.8, 245], 'bid': 7.91}]",171900.59999999776,1669830566090,granola w milk,shreddedwheatwithmilk,7.66,7.91,0.25,granola w milk,1403.6000000014901,1412,1412.0,True,u,173815.59999999776,1915.0,1669830568005,1915,HRV,HRV_0073,2022-11-30 17:51:57
100,"[{'imgObject': {}, 'id': 'turkeysandwich', 'src': '/static/foodstim60/turkeysandwich.jpg', 'key': 'u', 'origWidth': 409, 'origHeight': 409, 'width': 409, 'height': 409, 'widthPercent': 0.45, 'rescaleHeight': False, 'trialN': 100, 'loaded': True, 'loadedTime': 173819.19999999925, 'positionName': 'LEFT', 'positionCoords': [282.2, 245.5], 'bid': 4.95}, {'imgObject': {}, 'id': 'luckycharms', 'src': '/static/foodstim60/luckycharms.jpg', 'key': 'i', 'origWidth': 410, 'origHeight': 409, 'width': 410, 'height': 409, 'widthPercent': 0.45, 'rescaleHeight': False, 'trialN': 100, 'loaded': True, 'loadedTime': 173819.5, 'positionName': 'RIGHT', 'positionCoords': [748.8, 245.5], 'bid': 4.97}]",173816.3999999985,1669830568006,turkeysandwich,luckycharms,4.95,4.97,0.019999999999999574,turkeysandwich,1892.3999999985099,1899,1899.199999999255,True,u,176218.69999999925,2402.300000000745,1669830570408,2402,HRV,HRV_0073,2022-11-30 17:51:57
101,"[{'imgObject': {}, 'id': 'orange slices', 'src': '/static/foodstim60/orange slices.jpg', 'key': 'u', 'origWidth': 409, 'origHeight': 410, 'width': 409, 'height': 410, 'widthPercent': 0.45, 'rescaleHeight': False, 'trialN': 101, 'loaded': True, 'loadedTime': 176222.59999999776, 'positionName': 'LEFT', 'positionCoords': [282.2, 245], 'bid': 4.94}, {'imgObject': {}, 'id': 'veggieswithdip', 'src': '/static/foodstim60/veggieswithdip.jpg', 'key': 'i', 'origWidth': 409, 'origHeight': 409, 'width': 409, 'height': 409, 'widthPercent': 0.45, 'rescaleHeight': False, 'trialN': 101, 'loaded': True, 'loadedTime': 176223, 'positionName': 'RIGHT', 'positionCoords': [748.8, 245.5], 'bid': 4.94}]",176219.59999999776,1669830570409,orange slices,veggieswithdip,4.94,4.94,0.0,orange slices,1220.5,1227,1226.9000000022352,True,u,177949.59999999776,1730.0,1669830572139,1730,HRV,HRV_0073,2022-11-30 17:51:57
102,"[{'imgObject': {}, 'id': 'fried eggs', 'src': '/static/foodstim60/fried eggs.jpg', 'key': 'u', 'origWidth': 410, 'origHeight': 410, 'width': 410, 'height': 410, 'widthPercent': 0.45, 'rescaleHeight': False, 'trialN': 102, 'loaded': True, 'loadedTime': 177953.29999999702, 'positionName': 'LEFT', 'positionCoords': [281.2, 245], 'bid': 0.11}, {'imgObject': {}, 'id': 'froot loops w milk', 'src': '/static/foodstim60/froot loops w milk.jpg', 'key': 'i', 'origWidth': 410, 'origHeight': 410, 'width': 410, 'height': 410, 'widthPercent': 0.45, 'rescaleHeight': False, 'trialN': 102, 'loaded': True, 'loadedTime': 177953.59999999776, 'positionName': 'RIGHT', 'positionCoords': [748.8, 245], 'bid': 4.97}]",177950.5,1669830572140,fried eggs,froot loops w milk,0.11,4.97,4.859999999999999,froot loops w milk,858.5999999977648,865,865.1999999992549,True,i,179318.5,1368.0,1669830573508,1368,HRV,HRV_0073,2022-11-30 17:51:57
103,"[{'imgObject': {}, 'id': 'cherry tomato', 'src': '/static/foodstim60/cherry tomato.jpg', 'key': 'u', 'origWidth': 410, 'origHeight': 410, 'width': 410, 'height': 410, 'widthPercent': 0.45, 'rescaleHeight': False, 'trialN': 103, 'loaded': True, 'loadedTime': 179322.5, 'positionName': 'LEFT', 'positionCoords': [281.2, 245], 'bid': 2.75}, {'imgObject': {}, 'id': 'hotdog w must', 'src': '/static/foodstim60/hotdog w must.jpg', 'key': 'i', 'origWidth': 409, 'origHeight': 409, 'width': 409, 'height': 409, 'widthPercent': 0.45, 'rescaleHeight': False, 'trialN': 103, 'loaded': True, 'loadedTime': 179322.8999999985, 'positionName': 'RIGHT', 'positionCoords': [748.8, 245.5], 'bid': 1.2}]",179319.5,1669830573509,cherry tomato,hotdog w must,2.75,1.2,-1.55,hotdog w must,1241.199999999255,1248,1247.699999999255,True,i,181068.5,1749.0,1669830575258,1749,HRV,HRV_0073,2022-11-30 17:51:57
104,"[{'imgObject': {}, 'id': 'Grapes', 'src': '/static/foodstim60/Grapes.jpg', 'key': 'u', 'origWidth': 411, 'origHeight': 411, 'width': 411, 'height': 411, 'widthPercent': 0.45, 'rescaleHeight': False, 'trialN': 104, 'loaded': True, 'loadedTime': 181072, 'positionName': 'LEFT', 'positionCoords': [280.2, 244.5], 'bid': 9.66}, {'imgObject': {}, 'id': 'rigatoni and sauce', 'src': '/static/foodstim60/rigatoni and sauce.jpg', 'key': 'i', 'origWidth': 410, 'origHeight': 411, 'width': 410, 'height': 411, 'widthPercent': 0.45, 'rescaleHeight': False, 'trialN': 104, 'loaded': True, 'loadedTime': 181072.3999999985, 'positionName': 'RIGHT', 'positionCoords': [748.8, 244.5], 'bid': 9.8}]",181069.3999999985,1669830575259,Grapes,rigatoni and sauce,9.66,9.8,0.14000000000000057,rigatoni and sauce,1332.199999999255,1339,1338.800000000745,True,i,182911.19999999925,1841.800000000745,1669830577101,1842,HRV,HRV_0073,2022-11-30 17:51:57
105,"[{'imgObject': {}, 'id': 'burger', 'src': '/static/foodstim60/burger.jpg', 'key': 'u', 'origWidth': 409, 'origHeight': 409, 'width': 409, 'height': 409, 'widthPercent': 0.45, 'rescaleHeight': False, 'trialN': 105, 'loaded': True, 'loadedTime': 182915.09999999776, 'positionName': 'LEFT', 'positionCoords': [282.2, 245.5], 'bid': 7.79}, {'imgObject': {}, 'id': 'chickenfingers', 'src': '/static/foodstim60/chickenfingers.jpg', 'key': 'i', 'origWidth': 410, 'origHeight': 410, 'width': 410, 'height': 410, 'widthPercent': 0.45, 'rescaleHeight': False, 'trialN': 105, 'loaded': True, 'loadedTime': 182915.3999999985, 'positionName': 'RIGHT', 'positionCoords': [748.8, 245], 'bid': 9.84}]",182912.09999999776,1669830577102,burger,chickenfingers,7.79,9.84,2.05,chickenfingers,1222.1000000014901,1230,1230.5,True,i,184646.0,1733.9000000022352,1669830578836,1734,HRV,HRV_0073,2022-11-30 17:51:57
106,"[{'imgObject': {}, 'id': 'corn cob', 'src': '/static/foodstim60/corn cob.jpg', 'key': 'u', 'origWidth': 411, 'origHeight': 411, 'width': 411, 'height': 411, 'widthPercent': 0.45, 'rescaleHeight': False, 'trialN': 106, 'loaded': True, 'loadedTime': 184649.59999999776, 'positionName': 'LEFT', 'positionCoords': [280.2, 244.5], 'bid': 2.77}, {'imgObject': {}, 'id': 'cheerios', 'src': '/static/foodstim60/cheerios.jpg', 'key': 'i', 'origWidth': 409, 'origHeight': 410, 'width': 409, 'height': 410, 'widthPercent': 0.45, 'rescaleHeight': False, 'trialN': 106, 'loaded': True, 'loadedTime': 184650, 'positionName': 'RIGHT', 'positionCoords': [748.8, 245], 'bid': 8.31}]",184646.79999999702,1669830578836,corn cob,cheerios,2.77,8.31,5.540000000000001,cheerios,1381.5,1389,1388.300000000745,True,i,186537.8999999985,1891.1000000014901,1669830580728,1892,HRV,HRV_0073,2022-11-30 17:51:57
107,"[{'imgObject': {}, 'id': 'kiwi', 'src': '/static/foodstim60/kiwi.jpg', 'key': 'u', 'origWidth': 410, 'origHeight': 410, 'width': 410, 'height': 410, 'widthPercent': 0.45, 'rescaleHeight': False, 'trialN': 107, 'loaded': True, 'loadedTime': 186541.59999999776, 'positionName': 'LEFT', 'positionCoords': [281.2, 245], 'bid': 4.93}, {'imgObject': {}, 'id': 'olives', 'src': '/static/foodstim60/olives.jpg', 'key': 'i', 'origWidth': 410, 'origHeight': 410, 'width': 410, 'height': 410, 'widthPercent': 0.45, 'rescaleHeight': False, 'trialN': 107, 'loaded': True, 'loadedTime': 186542, 'positionName': 'RIGHT', 'positionCoords': [748.8, 245], 'bid': 0.15}]",186538.79999999702,1669830580728,kiwi,olives,4.93,0.15,-4.779999999999999,kiwi,1242.6000000014901,1248,1247.7000000029802,True,u,188290.0,1751.2000000029802,1669830582480,1752,HRV,HRV_0073,2022-11-30 17:51:57
108,"[{'imgObject': {}, 'id': 'cantaloupe', 'src': '/static/foodstim60/cantaloupe.jpg', 'key': 'u', 'origWidth': 409, 'origHeight': 409, 'width': 409, 'height': 409, 'widthPercent': 0.45, 'rescaleHeight': False, 'trialN': 108, 'loaded': True, 'loadedTime': 188293.8999999985, 'positionName': 'LEFT', 'positionCoords': [282.2, 245.5], 'bid': 7.34}, {'imgObject': {}, 'id': 'blueberries', 'src': '/static/foodstim60/blueberries.jpg', 'key': 'i', 'origWidth': 411, 'origHeight': 411, 'width': 411, 'height': 411, 'widthPercent': 0.45, 'rescaleHeight': False, 'trialN': 108, 'loaded': True, 'loadedTime': 188294.19999999925, 'positionName': 'RIGHT', 'positionCoords': [748.8, 244.5], 'bid': 4.97}]",188290.79999999702,1669830582480,cantaloupe,blueberries,7.34,4.97,-2.37,blueberries,1371.2000000029802,1378,1377.5,True,i,190170.59999999776,1879.800000000745,1669830584360,1880,HRV,HRV_0073,2022-11-30 17:51:57
