success,trial_type,trial_index,time_elapsed,internal_node_id,Block,TrialNumber,TrialTime,trialTimeDiff,FPS_avg,FPS_med,FPS_mode,TrialDur,winResizeTime,rt,block,button_pressed,MotCoh,MotDir,ColCoh,Color,ChoiceKey,Choice,Accuracy,RT,nFrames,FPS,PPD,missTrial,missTrialMsg,onsetDelay,fullScreenExitTime,canvCenter,TrialType,Score,BlockTrial,stimulus,button_labels,exp,subjectId,date
True,fullscreen,0,3200,0.0-0.0,0.0,1.0,,,,,,,,,,,,,,,,,,,,,,,,,,,,,,,,HRV,HRV_0073,2022-11-30 18:03:16
,wl-check-fps,1,8205,0.0-1.0,0.0,2.0,"[3577, 3591.2, 3608, 3624.5, 3641.4, 3658.6, 3675.2, 3690.6, 3708.3, 3725.1, 3742, 3757.9, 3774, 3792, 3808.5, 3824.8, 3841.3, 3857.8, 3874.6, 3890.7, 3908.2, 3924.7, 3940.7, 3958.2, 3974.9, 3991.7, 4007, 4025.1, 4041.2, 4058.3, 4074.3, 4090.3, 4108.3, 4124.2, 4141.8, 4158, 4173.9, 4191.7, 4207.4, 4224.3, 4241.1, 4257.5, 4274.8, 4291.2, 4308.3, 4325.4, 4341.5, 4358.8, 4374, 4391.2, 4408, 4423.9, 4441.5, 4458.6, 4475.4, 4491.3, 4508.7, 4525.1, 4541.3, 4558.7, 4574.8, 4591.7, 4608.7, 4625, 4641.1, 4658.3, 4675.3, 4691.6, 4707.8, 4724.8, 4740.8, 4758.7, 4775, 4792.1, 4808.2, 4824.3, 4841.8, 4858.5, 4874.4, 4891.1, 4907.7, 4925.4, 4941.5, 4958.9, 4974.6, 4990.7, 5007.2, 5024.9, 5041.6, 5058, 5074.9, 5091.5, 5107.9, 5124.4, 5141.4, 5158.5, 5174.6, 5191.2, 5208.6, 5224.6, 5241.6, 5257.3, 5274.6, 5290.9, 5308, 5324.9, 5341.1, 5357.4, 5375.5, 5391.2, 5408, 5424.6, 5441.9, 5457.9, 5473.9, 5491.1, 5507.3, 5525.4, 5541.2, 5557.3, 5574.7, 5591.9, 5607.3, 5625.4, 5640.6, 5657.4, 5674.5, 5691.6, 5707.4, 5724.7, 5741.9, 5757.4, 5774.2, 5790.9, 5808.7, 5824.7, 5842.1, 5858.1, 5875.1, 5891.1, 5908.1, 5925.2, 5940.7, 5957.3, 5974.4, 5991.6, 6007.3, 6024.5, 6040.7, 6057.4, 6074, 6091.1, 6108.4, 6124.5, 6141.4, 6157.8, 6174.7, 6192, 6207.9, 6225.1, 6241.2, 6258.4, 6274.3, 6291.3, 6308.4, 6324.5, 6340.7, 6358.1, 6374.4, 6391, 6408.7, 6425.1, 6441.5, 6457, 6474.6, 6491.9, 6508.4, 6524.9, 6541.5, 6558.7, 6574.7, 6591.9, 6608, 6624, 6641.4, 6656.9, 6673.8, 6691.4, 6707.4, 6724.5, 6741.6, 6758.9, 6775, 6790.6, 6807.4, 6824.5, 6841.5, 6858.5, 6874.6, 6892, 6908, 6924.5, 6941.6, 6958, 6974.8, 6992, 7008.1, 7025.1, 7040.6, 7058.6, 7074, 7091.7, 7108.2, 7125.1, 7141.2, 7158.4, 7174, 7191.9, 7208.5, 7224.9, 7242, 7258, 7274.7, 7291.1, 7308.3, 7324.3, 7341.6, 7357.8, 7375.4, 7391.9, 7408.5, 7424.4, 7440.6, 7457.4, 7475.2, 7491.2, 7508.6, 7524.9, 7541.9, 7557.8, 7574, 7591.8, 7608, 7625.2, 7641.4, 7658.6, 7674, 7691.2, 7707.7, 7724.7, 7741, 7757.4, 7775, 7791.1, 7808.3, 7824.5, 7841.1, 7858.4, 7873.9, 7891.9, 7908.4, 7923.9, 7941.3, 7958, 7974.7, 7991.8, 8007.7, 8024.8, 8041.9, 8057.9, 8074.3, 8091.5, 8108.6, 8124.6, 8141.6, 8158.1, 8174.3, 8195.6, 8208.4, 8224.5, 8241.1, 8258.4, 8274.5, 8291.9, 8307.8, 8325.2, 8341.4, 8358.5, 8374.5, 8391.4, 8408.7, 8424.3, 8441.8, 8457.7, 8474.3, 8491, 8508.1, 8524.4, 8541.4, 8557.7]","[1.5, 14.2, 16.8, 16.5, 16.9, 17.2, 16.6, 15.4, 17.7, 16.8, 16.9, 15.9, 16.1, 18, 16.5, 16.3, 16.5, 16.5, 16.8, 16.1, 17.5, 16.5, 16, 17.5, 16.7, 16.8, 15.3, 18.1, 16.1, 17.1, 16, 16, 18, 15.9, 17.6, 16.2, 15.9, 17.8, 15.7, 16.9, 16.8, 16.4, 17.3, 16.4, 17.1, 17.1, 16.1, 17.3, 15.2, 17.2, 16.8, 15.9, 17.6, 17.1, 16.8, 15.9, 17.4, 16.4, 16.2, 17.4, 16.1, 16.9, 17, 16.3, 16.1, 17.2, 17, 16.3, 16.2, 17, 16, 17.9, 16.3, 17.1, 16.1, 16.1, 17.5, 16.7, 15.9, 16.7, 16.6, 17.7, 16.1, 17.4, 15.7, 16.1, 16.5, 17.7, 16.7, 16.4, 16.9, 16.6, 16.4, 16.5, 17, 17.1, 16.1, 16.6, 17.4, 16, 17, 15.7, 17.3, 16.3, 17.1, 16.9, 16.2, 16.3, 18.1, 15.7, 16.8, 16.6, 17.3, 16, 16, 17.2, 16.2, 18.1, 15.8, 16.1, 17.4, 17.2, 15.4, 18.1, 15.2, 16.8, 17.1, 17.1, 15.8, 17.3, 17.2, 15.5, 16.8, 16.7, 17.8, 16, 17.4, 16, 17, 16, 17, 17.1, 15.5, 16.6, 17.1, 17.2, 15.7, 17.2, 16.2, 16.7, 16.6, 17.1, 17.3, 16.1, 16.9, 16.4, 16.9, 17.3, 15.9, 17.2, 16.1, 17.2, 15.9, 17, 17.1, 16.1, 16.2, 17.4, 16.3, 16.6, 17.7, 16.4, 16.4, 15.5, 17.6, 17.3, 16.5, 16.5, 16.6, 17.2, 16, 17.2, 16.1, 16, 17.4, 15.5, 16.9, 17.6, 16, 17.1, 17.1, 17.3, 16.1, 15.6, 16.8, 17.1, 17, 17, 16.1, 17.4, 16, 16.5, 17.1, 16.4, 16.8, 17.2, 16.1, 17, 15.5, 18, 15.4, 17.7, 16.5, 16.9, 16.1, 17.2, 15.6, 17.9, 16.6, 16.4, 17.1, 16, 16.7, 16.4, 17.2, 16, 17.3, 16.2, 17.6, 16.5, 16.6, 15.9, 16.2, 16.8, 17.8, 16, 17.4, 16.3, 17, 15.9, 16.2, 17.8, 16.2, 17.2, 16.2, 17.2, 15.4, 17.2, 16.5, 17, 16.3, 16.4, 17.6, 16.1, 17.2, 16.2, 16.6, 17.3, 15.5, 18, 16.5, 15.5, 17.4, 16.7, 16.7, 17.1, 15.9, 17.1, 17.1, 16, 16.4, 17.2, 17.1, 16, 17, 16.5, 16.2, 21.3, 12.8, 16.1, 16.6, 17.3, 16.1, 17.4, 15.9, 17.4, 16.2, 17.1, 16, 16.9, 17.3, 15.6, 17.5, 15.9, 16.6, 16.7, 17.1, 16.3, 17, 16.3]",60.0,60.0,58.0,4999.4,[],,,,,,,,,,,,,,,,,,,,,,,,,HRV,HRV_0073,2022-11-30 18:03:16
,wl-html-keyboard-response,2,20499,0.0-2.0-0.0,0.0,3.0,,,,,,,,10282.699999999255,0.0,0,,,,,,,,,,,,,,,,,,,,,,HRV,HRV_0073,2022-11-30 18:03:16
,wl-rdm,3,29253,0.0-3.0-0.0,0.0,4.0,,,,,,,[],,,,0.0,0.0,87.9,0.0,u,0.0,True,3175.2000000029802,191.0,58.0,40.0,False,,3000.0,[],"[720, 450]",ColorTask_Demo,,,,,HRV,HRV_0073,2022-11-30 18:03:16
,wl-rdm,4,35169,0.0-3.0-1.0,0.0,5.0,,,,,,,[],,,,0.0,0.0,87.9,1.0,i,1.0,True,1822.7000000029802,110.0,58.0,40.0,False,,2000.0,[],"[720, 450]",ColorTask_Demo,,,,,HRV,HRV_0073,2022-11-30 18:03:16
,wl-html-keyboard-response,5,43076,0.0-3.0-2.0,0.0,6.0,,,,,,,,5899.70000000298,0.0,1,,,,,,,,,,,,,,,,,,,,,,HRV,HRV_0073,2022-11-30 18:03:16
,wl-html-keyboard-response,6,59549,0.0-4.0-0.0,0.0,7.0,,,,,,,,14464.0,0.0,0,,,,,,,,,,,,,,,,,,,,,,HRV,HRV_0073,2022-11-30 18:03:16
,wl-html-keyboard-response,7,80830,0.0-5.0-0.0,0.0,8.0,,,,,,,,19275.0,0.0,0,,,,,,,,,,,,,,,,,,,,,,HRV,HRV_0073,2022-11-30 18:03:16
,wl-rdm,8,84337,0.0-6.0-0.0,0.0,9.0,,,,,,,[],,,,,,62.5,0.0,u,0.0,True,2205.900000002235,133.0,58.0,40.0,False,,248.43231048699363,[],"[720, 450]",ColorTask,1.0,1.0,,,HRV,HRV_0073,2022-11-30 18:03:16
,wl-rdm,9,87353,0.0-6.1-0.1,0.0,10.0,,,,,,,[],,,,,,87.9,1.0,i,1.0,True,1657.4999999962747,100.0,58.0,40.0,False,,275.2766870601026,[],"[720, 450]",ColorTask,2.0,2.0,,,HRV,HRV_0073,2022-11-30 18:03:16
,wl-rdm,10,90353,0.0-6.2-0.2,0.0,11.0,,,,,,,[],,,,,,53.2,1.0,u,0.0,False,1542.0999999977648,93.0,58.0,40.0,False,,371.96430018219075,[],"[720, 450]",ColorTask,1.0,3.0,,,HRV,HRV_0073,2022-11-30 18:03:16
,wl-rdm,11,93102,0.0-6.3-0.3,0.0,12.0,,,,,,,[],,,,,,53.2,0.0,u,0.0,True,1457.5999999977648,88.0,58.0,40.0,False,,201.28573719996888,[],"[720, 450]",ColorTask,2.0,4.0,,,HRV,HRV_0073,2022-11-30 18:03:16
,wl-rdm,12,95954,0.0-6.4-0.4,0.0,13.0,,,,,,,[],,,,,,50.0,0.0,i,1.0,False,1425.300000000745,86.0,58.0,40.0,False,,342.8362725128554,[],"[720, 450]",ColorTask,1.0,5.0,,,HRV,HRV_0073,2022-11-30 18:03:16
,wl-rdm,13,98537,0.0-6.5-0.5,0.0,14.0,,,,,,,[],,,,,,73.6,0.0,u,0.0,True,1237.800000000745,75.0,58.0,40.0,False,,271.2962028019954,[],"[720, 450]",ColorTask,2.0,6.0,,,HRV,HRV_0073,2022-11-30 18:03:16
,wl-rdm,14,101103,0.0-6.6-0.6,0.0,15.0,,,,,,,[],,,,,,62.5,1.0,u,0.0,False,1210.199999999255,73.0,58.0,40.0,False,,278.48437017080903,[],"[720, 450]",ColorTask,1.0,7.0,,,HRV,HRV_0073,2022-11-30 18:03:16
,wl-rdm,15,103603,0.0-6.7-0.7,0.0,16.0,,,,,,,[],,,,,,73.6,0.0,u,0.0,True,1212.300000000745,73.0,58.0,40.0,False,,200.42369309119061,[],"[720, 450]",ColorTask,2.0,8.0,,,HRV,HRV_0073,2022-11-30 18:03:16
,wl-rdm,16,106236,0.0-6.8-0.8,0.0,17.0,,,,,,,[],,,,,,56.4,1.0,i,1.0,True,1213.4000000022352,73.0,58.0,40.0,False,,354.800440626257,[],"[720, 450]",ColorTask,3.0,9.0,,,HRV,HRV_0073,2022-11-30 18:03:16
,wl-rdm,17,108852,0.0-6.9-0.9,0.0,18.0,,,,,,,[],,,,,,53.2,0.0,i,1.0,False,1309.4999999962747,79.0,58.0,40.0,False,,243.47895595945369,[],"[720, 450]",ColorTask,2.0,10.0,,,HRV,HRV_0073,2022-11-30 18:03:16
,wl-rdm,18,111437,0.0-6.10-0.10,0.0,19.0,,,,,,,[],,,,,,50.0,1.0,i,1.0,True,1206.6999999955297,73.0,58.0,40.0,False,,296.36159080483475,[],"[720, 450]",ColorTask,3.0,11.0,,,HRV,HRV_0073,2022-11-30 18:03:16
,wl-rdm,19,113920,0.0-6.11-0.11,0.0,20.0,,,,,,,[],,,,,,50.0,0.0,u,0.0,True,1155.5999999977648,70.0,58.0,40.0,False,,234.83426467487118,[],"[720, 450]",ColorTask,4.0,12.0,,,HRV,HRV_0073,2022-11-30 18:03:16
,wl-rdm,20,116503,0.0-6.12-0.12,0.0,21.0,,,,,,,[],,,,,,56.4,0.0,u,0.0,True,1243.300000000745,75.0,58.0,40.0,False,,263.4577727232293,[],"[720, 450]",ColorTask,5.0,13.0,,,HRV,HRV_0073,2022-11-30 18:03:16
,wl-rdm,21,119087,0.0-6.13-0.13,0.0,22.0,,,,,,,[],,,,,,62.5,1.0,i,1.0,True,1239.800000000745,75.0,58.0,40.0,False,,261.84540927977423,[],"[720, 450]",ColorTask,6.0,14.0,,,HRV,HRV_0073,2022-11-30 18:03:16
,wl-rdm,22,121686,0.0-6.14-0.14,0.0,23.0,,,,,,,[],,,,,,62.5,1.0,u,0.0,False,1331.6000000014901,80.0,58.0,40.0,False,,213.57300585030274,[],"[720, 450]",ColorTask,5.0,15.0,,,HRV,HRV_0073,2022-11-30 18:03:16
,wl-rdm,23,124352,0.0-6.15-0.15,0.0,24.0,,,,,,,[],,,,,,56.4,0.0,i,1.0,False,1386.800000000745,83.0,58.0,40.0,False,,202.99353550330292,[],"[720, 450]",ColorTask,4.0,16.0,,,HRV,HRV_0073,2022-11-30 18:03:16
,wl-rdm,24,126754,0.0-6.16-0.16,0.0,25.0,,,,,,,[],,,,,,62.5,0.0,u,0.0,True,1107.199999999255,67.0,58.0,40.0,False,,206.24517524276604,[],"[720, 450]",ColorTask,5.0,17.0,,,HRV,HRV_0073,2022-11-30 18:03:16
,wl-rdm,25,129353,0.0-6.17-0.17,0.0,26.0,,,,,,,[],,,,,,50.0,0.0,u,0.0,True,1155.2000000029802,70.0,58.0,40.0,False,,355.9589445879466,[],"[720, 450]",ColorTask,6.0,18.0,,,HRV,HRV_0073,2022-11-30 18:03:16
,wl-rdm,26,131852,0.0-6.18-0.18,0.0,27.0,,,,,,,[],,,,,,73.6,0.0,u,0.0,True,1108.5,67.0,58.0,40.0,False,,328.31999464782774,[],"[720, 450]",ColorTask,7.0,19.0,,,HRV,HRV_0073,2022-11-30 18:03:16
,wl-rdm,27,134303,0.0-6.19-0.19,0.0,28.0,,,,,,,[],,,,,,62.5,0.0,u,0.0,True,1112.800000000745,67.0,58.0,40.0,False,,263.81979804632556,[],"[720, 450]",ColorTask,8.0,20.0,,,HRV,HRV_0073,2022-11-30 18:03:16
,wl-rdm,28,136770,0.0-6.20-0.20,0.0,29.0,,,,,,,[],,,,,,87.9,1.0,i,1.0,True,1090.4000000022352,66.0,58.0,40.0,False,,289.7621757262136,[],"[720, 450]",ColorTask,9.0,21.0,,,HRV,HRV_0073,2022-11-30 18:03:16
,wl-rdm,29,139237,0.0-6.21-0.21,0.0,30.0,,,,,,,[],,,,,,53.2,0.0,u,0.0,True,1133.699999999255,68.0,58.0,40.0,False,,263.347820251559,[],"[720, 450]",ColorTask,10.0,22.0,,,HRV,HRV_0073,2022-11-30 18:03:16
,wl-rdm,30,141737,0.0-6.22-0.22,0.0,31.0,,,,,,,[],,,,,,73.6,1.0,i,1.0,True,1131.3999999985099,68.0,58.0,40.0,False,,311.372588826894,[],"[720, 450]",ColorTask,11.0,23.0,,,HRV,HRV_0073,2022-11-30 18:03:16
,wl-rdm,31,144203,0.0-6.23-0.23,0.0,32.0,,,,,,,[],,,,,,56.4,0.0,u,0.0,True,1097.9000000022352,66.0,58.0,40.0,False,,296.9060241153628,[],"[720, 450]",ColorTask,12.0,24.0,,,HRV,HRV_0073,2022-11-30 18:03:16
,wl-rdm,32,146703,0.0-6.24-0.24,0.0,33.0,,,,,,,[],,,,,,87.9,1.0,i,1.0,True,1072.1000000014901,65.0,58.0,40.0,False,,337.59482264759856,[],"[720, 450]",ColorTask,13.0,25.0,,,HRV,HRV_0073,2022-11-30 18:03:16
,wl-rdm,33,149236,0.0-6.25-0.25,0.0,34.0,,,,,,,[],,,,,,56.4,1.0,i,1.0,True,1145.6000000014901,69.0,58.0,40.0,False,,331.0633457251956,[],"[720, 450]",ColorTask,14.0,26.0,,,HRV,HRV_0073,2022-11-30 18:03:16
,wl-rdm,34,151670,0.0-6.26-0.26,0.0,35.0,,,,,,,[],,,,,,87.9,1.0,i,1.0,True,999.9000000022352,60.0,58.0,40.0,False,,361.8712083392313,[],"[720, 450]",ColorTask,15.0,27.0,,,HRV,HRV_0073,2022-11-30 18:03:16
,wl-rdm,35,154070,0.0-6.27-0.27,0.0,36.0,,,,,,,[],,,,,,73.6,0.0,u,0.0,True,985.7999999970198,59.0,58.0,40.0,False,,343.6586194876555,[],"[720, 450]",ColorTask,16.0,28.0,,,HRV,HRV_0073,2022-11-30 18:03:16
,wl-rdm,36,156387,0.0-6.28-0.28,0.0,37.0,,,,,,,[],,,,,,73.6,0.0,u,0.0,True,921.6999999992549,56.0,58.0,40.0,False,,317.3087857380204,[],"[720, 450]",ColorTask,17.0,29.0,,,HRV,HRV_0073,2022-11-30 18:03:16
,wl-rdm,37,158520,0.0-6.29-0.29,0.0,38.0,,,,,,,[],,,,,,53.2,0.0,i,1.0,False,841.6999999992549,51.0,58.0,40.0,False,,232.43175584440195,[],"[720, 450]",ColorTask,16.0,30.0,,,HRV,HRV_0073,2022-11-30 18:03:16
,wl-rdm,38,160853,0.0-6.30-0.30,0.0,39.0,,,,,,,[],,,,,,50.0,1.0,i,1.0,True,905.2999999970198,55.0,58.0,40.0,False,,343.60379523827396,[],"[720, 450]",ColorTask,17.0,31.0,,,HRV,HRV_0073,2022-11-30 18:03:16
,wl-rdm,39,163054,0.0-6.31-0.31,0.0,40.0,,,,,,,[],,,,,,73.6,0.0,u,0.0,True,872.8000000007451,53.0,58.0,40.0,False,,248.77043243116822,[],"[720, 450]",ColorTask,18.0,32.0,,,HRV,HRV_0073,2022-11-30 18:03:16
,wl-rdm,40,165369,0.0-6.32-0.32,0.0,41.0,,,,,,,[],,,,,,56.4,0.0,u,0.0,True,1015.8000000007451,61.0,58.0,40.0,False,,235.37828193333715,[],"[720, 450]",ColorTask,19.0,33.0,,,HRV,HRV_0073,2022-11-30 18:03:16
,wl-rdm,41,167569,0.0-6.33-0.33,0.0,42.0,,,,,,,[],,,,,,73.6,0.0,u,0.0,True,824.9000000022352,50.0,58.0,40.0,False,,306.71085738952655,[],"[720, 450]",ColorTask,20.0,34.0,,,HRV,HRV_0073,2022-11-30 18:03:16
,wl-rdm,42,169920,0.0-6.34-0.34,0.0,43.0,,,,,,,[],,,,,,50.0,0.0,i,1.0,False,923.8000000007451,56.0,58.0,40.0,False,,366.27941492674,[],"[720, 450]",ColorTask,19.0,35.0,,,HRV,HRV_0073,2022-11-30 18:03:16
,wl-rdm,43,172153,0.0-6.35-0.35,0.0,44.0,,,,,,,[],,,,,,53.2,1.0,i,1.0,True,960.4000000022352,58.0,58.0,40.0,False,,200.03883203580295,[],"[720, 450]",ColorTask,20.0,36.0,,,HRV,HRV_0073,2022-11-30 18:03:16
,wl-rdm,44,174537,0.0-6.36-0.36,0.0,45.0,,,,,,,[],,,,,,73.6,0.0,u,0.0,True,1083.6000000014901,65.0,58.0,40.0,False,,218.9678471071912,[],"[720, 450]",ColorTask,21.0,37.0,,,HRV,HRV_0073,2022-11-30 18:03:16
,wl-rdm,45,176904,0.0-6.37-0.37,0.0,46.0,,,,,,,[],,,,,,53.2,1.0,i,1.0,True,1040.3999999985099,63.0,58.0,40.0,False,,240.5038884531129,[],"[720, 450]",ColorTask,22.0,38.0,,,HRV,HRV_0073,2022-11-30 18:03:16
,wl-rdm,46,179354,0.0-6.38-0.38,0.0,47.0,,,,,,,[],,,,,,62.5,1.0,i,1.0,True,1017.8999999985099,61.0,58.0,40.0,False,,358.8867745039408,[],"[720, 450]",ColorTask,23.0,39.0,,,HRV,HRV_0073,2022-11-30 18:03:16
,wl-rdm,47,181720,0.0-6.39-0.39,0.0,48.0,,,,,,,[],,,,,,62.5,0.0,i,1.0,False,1057.4000000022352,64.0,58.0,40.0,False,,229.54532199752498,[],"[720, 450]",ColorTask,22.0,40.0,,,HRV,HRV_0073,2022-11-30 18:03:16
,wl-rdm,48,184204,0.0-6.40-0.40,0.0,49.0,,,,,,,[],,,,,,53.2,0.0,i,1.0,False,1168.699999999255,70.0,58.0,40.0,False,,240.04075164386884,[],"[720, 450]",ColorTask,21.0,41.0,,,HRV,HRV_0073,2022-11-30 18:03:16
,wl-rdm,49,186537,0.0-6.41-0.41,0.0,50.0,,,,,,,[],,,,,,87.9,0.0,u,0.0,True,981.4000000022352,59.0,58.0,40.0,False,,285.50394599010735,[],"[720, 450]",ColorTask,22.0,42.0,,,HRV,HRV_0073,2022-11-30 18:03:16
,wl-rdm,50,188970,0.0-6.42-0.42,0.0,51.0,,,,,,,[],,,,,,50.0,1.0,u,0.0,False,1071.0,65.0,58.0,40.0,False,,292.69559099929336,[],"[720, 450]",ColorTask,21.0,43.0,,,HRV,HRV_0073,2022-11-30 18:03:16
,wl-rdm,51,191070,0.0-6.43-0.43,0.0,52.0,,,,,,,[],,,,,,73.6,1.0,i,1.0,True,803.1999999992549,49.0,58.0,40.0,False,,205.0072145495675,[],"[720, 450]",ColorTask,22.0,44.0,,,HRV,HRV_0073,2022-11-30 18:03:16
,wl-rdm,52,193370,0.0-6.44-0.44,0.0,53.0,,,,,,,[],,,,,,56.4,1.0,i,1.0,True,973.7000000029802,59.0,58.0,40.0,False,,241.62224874641979,[],"[720, 450]",ColorTask,23.0,45.0,,,HRV,HRV_0073,2022-11-30 18:03:16
,wl-rdm,53,195720,0.0-6.45-0.45,0.0,54.0,,,,,,,[],,,,,,53.2,1.0,u,0.0,False,1073.5,65.0,58.0,40.0,False,,209.76487686368375,[],"[720, 450]",ColorTask,22.0,46.0,,,HRV,HRV_0073,2022-11-30 18:03:16
,wl-rdm,54,198237,0.0-6.46-0.46,0.0,55.0,,,,,,,[],,,,,,50.0,0.0,u,0.0,True,1157.2000000029802,70.0,58.0,40.0,False,,288.54270872165307,[],"[720, 450]",ColorTask,23.0,47.0,,,HRV,HRV_0073,2022-11-30 18:03:16
,wl-rdm,55,200804,0.0-6.47-0.47,0.0,56.0,,,,,,,[],,,,,,62.5,1.0,i,1.0,True,1234.1999999955297,74.0,58.0,40.0,False,,254.5637017895511,[],"[720, 450]",ColorTask,24.0,48.0,,,HRV,HRV_0073,2022-11-30 18:03:16
,wl-rdm,56,203320,0.0-6.48-0.48,0.0,57.0,,,,,,,[],,,,,,50.0,1.0,u,0.0,False,1209.5000000037253,73.0,58.0,40.0,False,,224.71027685652552,[],"[720, 450]",ColorTask,23.0,49.0,,,HRV,HRV_0073,2022-11-30 18:03:16
,wl-rdm,57,205853,0.0-6.49-0.49,0.0,58.0,,,,,,,[],,,,,,50.0,1.0,i,1.0,True,1193.5,72.0,58.0,40.0,False,,256.5472692655159,[],"[720, 450]",ColorTask,24.0,50.0,,,HRV,HRV_0073,2022-11-30 18:03:16
,wl-rdm,58,208403,0.0-6.50-0.50,0.0,59.0,,,,,,,[],,,,,,53.2,0.0,u,0.0,True,1092.800000000745,66.0,58.0,40.0,False,,367.57363724623735,[],"[720, 450]",ColorTask,25.0,51.0,,,HRV,HRV_0073,2022-11-30 18:03:16
,wl-rdm,59,210953,0.0-6.51-0.51,0.0,60.0,,,,,,,[],,,,,,53.2,1.0,u,0.0,False,1271.0999999977648,77.0,58.0,40.0,False,,214.62980560351664,[],"[720, 450]",ColorTask,24.0,52.0,,,HRV,HRV_0073,2022-11-30 18:03:16
,wl-rdm,60,213271,0.0-6.52-0.52,0.0,61.0,,,,,,,[],,,,,,73.6,1.0,i,1.0,True,1023.3000000007451,62.0,58.0,40.0,False,,216.85474449116828,[],"[720, 450]",ColorTask,25.0,53.0,,,HRV,HRV_0073,2022-11-30 18:03:16
,wl-rdm,61,215737,0.0-6.53-0.53,0.0,62.0,,,,,,,[],,,,,,87.9,0.0,u,0.0,True,1102.7000000029802,66.0,58.0,40.0,False,,296.9397372951845,[],"[720, 450]",ColorTask,26.0,54.0,,,HRV,HRV_0073,2022-11-30 18:03:16
,wl-rdm,62,218221,0.0-6.54-0.54,0.0,63.0,,,,,,,[],,,,,,56.4,0.0,i,1.0,False,1096.5,66.0,58.0,40.0,False,,306.4178857234655,[],"[720, 450]",ColorTask,25.0,55.0,,,HRV,HRV_0073,2022-11-30 18:03:16
,wl-rdm,63,220604,0.0-6.55-0.55,0.0,64.0,,,,,,,[],,,,,,62.5,1.0,i,1.0,True,1002.5,60.0,58.0,40.0,False,,314.57652293365123,[],"[720, 450]",ColorTask,26.0,56.0,,,HRV,HRV_0073,2022-11-30 18:03:16
,wl-rdm,64,223354,0.0-6.56-0.56,0.0,65.0,,,,,,,[],,,,,,50.0,1.0,i,1.0,True,1290.3999999985099,78.0,58.0,40.0,False,,382.3979429969464,[],"[720, 450]",ColorTask,27.0,57.0,,,HRV,HRV_0073,2022-11-30 18:03:16
,wl-rdm,65,226003,0.0-6.57-0.57,0.0,66.0,,,,,,,[],,,,,,87.9,0.0,u,0.0,True,1302.7000000029802,78.0,58.0,40.0,False,,272.8391322510122,[],"[720, 450]",ColorTask,28.0,58.0,,,HRV,HRV_0073,2022-11-30 18:03:16
,wl-rdm,66,228487,0.0-6.58-0.58,0.0,67.0,,,,,,,[],,,,,,62.5,0.0,u,0.0,True,1208.3999999985099,73.0,58.0,40.0,False,,204.39724139459375,[],"[720, 450]",ColorTask,29.0,59.0,,,HRV,HRV_0073,2022-11-30 18:03:16
,wl-rdm,67,231170,0.0-6.59-0.59,0.0,68.0,,,,,,,[],,,,,,87.9,0.0,u,0.0,True,1390.8999999985099,84.0,58.0,40.0,False,,231.8171179058328,[],"[720, 450]",ColorTask,30.0,60.0,,,HRV,HRV_0073,2022-11-30 18:03:16
,wl-rdm,68,233803,0.0-6.60-0.60,0.0,69.0,,,,,,,[],,,,,,87.9,1.0,i,1.0,True,1319.4000000022352,79.0,58.0,40.0,False,,242.83846172052523,[],"[720, 450]",ColorTask,31.0,61.0,,,HRV,HRV_0073,2022-11-30 18:03:16
,wl-rdm,69,236587,0.0-6.61-0.61,0.0,70.0,,,,,,,[],,,,,,56.4,0.0,i,1.0,False,1403.5,84.0,58.0,40.0,False,,300.9665480012149,[],"[720, 450]",ColorTask,30.0,62.0,,,HRV,HRV_0073,2022-11-30 18:03:16
,wl-rdm,70,239371,0.0-6.62-0.62,0.0,71.0,,,,,,,[],,,,,,62.5,1.0,i,1.0,True,1329.1000000014901,80.0,58.0,40.0,False,,372.6049424186624,[],"[720, 450]",ColorTask,31.0,63.0,,,HRV,HRV_0073,2022-11-30 18:03:16
,wl-rdm,71,241954,0.0-6.63-0.63,0.0,72.0,,,,,,,[],,,,,,56.4,1.0,i,1.0,True,1283.300000000745,77.0,58.0,40.0,False,,238.22058799949858,[],"[720, 450]",ColorTask,32.0,64.0,,,HRV,HRV_0073,2022-11-30 18:03:16
,wl-rdm,72,244570,0.0-6.64-0.64,0.0,73.0,,,,,,,[],,,,,,50.0,0.0,u,0.0,True,1321.1000000014901,80.0,58.0,40.0,False,,210.0379059077326,[],"[720, 450]",ColorTask,33.0,65.0,,,HRV,HRV_0073,2022-11-30 18:03:16
,wl-rdm,73,247387,0.0-6.65-0.65,0.0,74.0,,,,,,,[],,,,,,50.0,1.0,i,1.0,True,1450.800000000745,87.0,58.0,40.0,False,,295.5791023087585,[],"[720, 450]",ColorTask,34.0,66.0,,,HRV,HRV_0073,2022-11-30 18:03:16
,wl-rdm,74,249487,0.0-6.66-0.66,0.0,75.0,,,,,,,[],,,,,,73.6,1.0,i,1.0,True,703.8999999985099,43.0,58.0,40.0,False,,322.171280965227,[],"[720, 450]",ColorTask,35.0,67.0,,,HRV,HRV_0073,2022-11-30 18:03:16
,wl-rdm,75,252053,0.0-6.67-0.67,0.0,76.0,,,,,,,[],,,,,,50.0,0.0,i,1.0,False,1244.9000000022352,75.0,58.0,40.0,False,,261.55696264432237,[],"[720, 450]",ColorTask,34.0,68.0,,,HRV,HRV_0073,2022-11-30 18:03:16
,wl-rdm,76,254520,0.0-6.68-0.68,0.0,77.0,,,,,,,[],,,,,,87.9,1.0,i,1.0,True,1182.3999999985099,71.0,58.0,40.0,False,,202.09582723862115,[],"[720, 450]",ColorTask,35.0,69.0,,,HRV,HRV_0073,2022-11-30 18:03:16
,wl-rdm,77,257055,0.0-6.69-0.69,0.0,78.0,,,,,,,[],,,,,,50.0,0.0,i,1.0,False,1190.699999999255,72.0,58.0,40.0,False,,263.19141145390915,[],"[720, 450]",ColorTask,34.0,70.0,,,HRV,HRV_0073,2022-11-30 18:03:16
,wl-rdm,78,259954,0.0-6.70-0.70,0.0,79.0,,,,,,,[],,,,,,62.5,0.0,u,0.0,True,1472.5999999977648,89.0,58.0,40.0,False,,341.624701986703,[],"[720, 450]",ColorTask,35.0,71.0,,,HRV,HRV_0073,2022-11-30 18:03:16
,wl-rdm,79,262620,0.0-6.71-0.71,0.0,80.0,,,,,,,[],,,,,,87.9,0.0,u,0.0,True,1272.300000000745,77.0,58.0,40.0,False,,321.8912831152692,[],"[720, 450]",ColorTask,36.0,72.0,,,HRV,HRV_0073,2022-11-30 18:03:16
,wl-rdm,80,265304,0.0-6.72-0.72,0.0,81.0,,,,,,,[],,,,,,56.4,1.0,i,1.0,True,1329.3999999985099,80.0,58.0,40.0,False,,290.8177733500598,[],"[720, 450]",ColorTask,37.0,73.0,,,HRV,HRV_0073,2022-11-30 18:03:16
,wl-rdm,81,267938,0.0-6.73-0.73,0.0,82.0,,,,,,,[],,,,,,62.5,1.0,i,1.0,True,1310.800000000745,79.0,58.0,40.0,False,,255.74452388367337,[],"[720, 450]",ColorTask,38.0,74.0,,,HRV,HRV_0073,2022-11-30 18:03:16
,wl-rdm,82,270670,0.0-6.74-0.74,0.0,83.0,,,,,,,[],,,,,,56.4,0.0,u,0.0,True,1458.5,88.0,58.0,40.0,False,,201.0967234132931,[],"[720, 450]",ColorTask,39.0,75.0,,,HRV,HRV_0073,2022-11-30 18:03:16
,wl-rdm,83,273686,0.0-6.75-0.75,0.0,84.0,,,,,,,[],,,,,,53.2,0.0,u,0.0,True,1588.8999999985099,96.0,58.0,40.0,False,,339.18787573415693,[],"[720, 450]",ColorTask,40.0,76.0,,,HRV,HRV_0073,2022-11-30 18:03:16
,wl-rdm,84,276470,0.0-6.76-0.76,0.0,85.0,,,,,,,[],,,,,,56.4,1.0,i,1.0,True,1491.0000000037253,90.0,58.0,40.0,False,,203.0902101901388,[],"[720, 450]",ColorTask,41.0,77.0,,,HRV,HRV_0073,2022-11-30 18:03:16
,wl-rdm,85,279254,0.0-6.77-0.77,0.0,86.0,,,,,,,[],,,,,,53.2,1.0,i,1.0,True,1493.199999999255,90.0,58.0,40.0,False,,211.01944867282393,[],"[720, 450]",ColorTask,42.0,78.0,,,HRV,HRV_0073,2022-11-30 18:03:16
,wl-rdm,86,282088,0.0-6.78-0.78,0.0,87.0,,,,,,,[],,,,,,56.4,1.0,i,1.0,True,1370.9000000022352,83.0,58.0,40.0,False,,373.74309090765973,[],"[720, 450]",ColorTask,43.0,79.0,,,HRV,HRV_0073,2022-11-30 18:03:16
,wl-rdm,87,284937,0.0-6.79-0.79,0.0,88.0,,,,,,,[],,,,,,53.2,0.0,u,0.0,True,1473.800000000745,89.0,58.0,40.0,False,,308.29412484089966,[],"[720, 450]",ColorTask,44.0,80.0,,,HRV,HRV_0073,2022-11-30 18:03:16
,wl-rdm,88,287853,0.0-6.80-0.80,0.0,89.0,,,,,,,[],,,,,,73.6,1.0,i,1.0,True,1544.199999999255,93.0,58.0,40.0,False,,296.7426428976028,[],"[720, 450]",ColorTask,45.0,81.0,,,HRV,HRV_0073,2022-11-30 18:03:16
,wl-rdm,89,290903,0.0-6.81-0.81,0.0,90.0,,,,,,,[],,,,,,56.4,1.0,i,1.0,True,1739.7000000029802,105.0,58.0,40.0,False,,237.62630104971126,[],"[720, 450]",ColorTask,46.0,82.0,,,HRV,HRV_0073,2022-11-30 18:03:16
,wl-rdm,90,293786,0.0-6.82-0.82,0.0,91.0,,,,,,,[],,,,,,62.5,0.0,u,0.0,True,1523.199999999255,92.0,58.0,40.0,False,,295.85914171075706,[],"[720, 450]",ColorTask,47.0,83.0,,,HRV,HRV_0073,2022-11-30 18:03:16
,wl-rdm,91,296737,0.0-6.83-0.83,0.0,92.0,,,,,,,[],,,,,,56.4,1.0,i,1.0,True,1657.3999999985099,100.0,58.0,40.0,False,,209.39493913794615,[],"[720, 450]",ColorTask,48.0,84.0,,,HRV,HRV_0073,2022-11-30 18:03:16
,wl-rdm,92,299570,0.0-6.84-0.84,0.0,93.0,,,,,,,[],,,,,,73.6,1.0,i,1.0,True,1450.6999999955297,87.0,58.0,40.0,False,,309.24223996714403,[],"[720, 450]",ColorTask,49.0,85.0,,,HRV,HRV_0073,2022-11-30 18:03:16
,wl-rdm,93,302404,0.0-6.85-0.85,0.0,94.0,,,,,,,[],,,,,,53.2,0.0,u,0.0,True,1450.300000000745,87.0,58.0,40.0,False,,302.76820129310255,[],"[720, 450]",ColorTask,50.0,86.0,,,HRV,HRV_0073,2022-11-30 18:03:16
,wl-rdm,94,304988,0.0-6.86-0.86,0.0,95.0,,,,,,,[],,,,,,73.6,0.0,u,0.0,True,1274.7000000029802,77.0,58.0,40.0,False,,226.04994061591196,[],"[720, 450]",ColorTask,51.0,87.0,,,HRV,HRV_0073,2022-11-30 18:03:16
,wl-rdm,95,307188,0.0-6.87-0.87,0.0,96.0,,,,,,,[],,,,,,50.0,1.0,i,1.0,True,924.5999999977648,56.0,58.0,40.0,False,,205.43362819137346,[],"[720, 450]",ColorTask,52.0,88.0,,,HRV,HRV_0073,2022-11-30 18:03:16
,wl-rdm,96,309770,0.0-6.88-0.88,0.0,97.0,,,,,,,[],,,,,,87.9,0.0,i,1.0,False,1282.199999999255,77.0,58.0,40.0,False,,230.67624939086048,[],"[720, 450]",ColorTask,51.0,89.0,,,HRV,HRV_0073,2022-11-30 18:03:16
,wl-rdm,97,312187,0.0-6.89-0.89,0.0,98.0,,,,,,,[],,,,,,87.9,1.0,i,1.0,True,1065.199999999255,64.0,58.0,40.0,False,,275.266979766288,[],"[720, 450]",ColorTask,52.0,90.0,,,HRV,HRV_0073,2022-11-30 18:03:16
,wl-rdm,98,314770,0.0-6.90-0.90,0.0,99.0,,,,,,,[],,,,,,87.9,0.0,u,0.0,True,1128.3999999985099,68.0,58.0,40.0,False,,383.54235358155563,[],"[720, 450]",ColorTask,53.0,91.0,,,HRV,HRV_0073,2022-11-30 18:03:16
,wl-rdm,99,317188,0.0-6.91-0.91,0.0,100.0,,,,,,,[],,,,,,62.5,1.0,i,1.0,True,1041.699999999255,63.0,58.0,40.0,False,,286.8694134355243,[],"[720, 450]",ColorTask,54.0,92.0,,,HRV,HRV_0073,2022-11-30 18:03:16
,wl-rdm,100,319620,0.0-6.92-0.92,0.0,101.0,,,,,,,[],,,,,,73.6,1.0,i,1.0,True,956.6000000014901,58.0,58.0,40.0,False,,384.36614486861197,[],"[720, 450]",ColorTask,55.0,93.0,,,HRV,HRV_0073,2022-11-30 18:03:16
,wl-rdm,101,322003,0.0-6.93-0.93,0.0,102.0,,,,,,,[],,,,,,87.9,0.0,u,0.0,True,1107.7999999970198,67.0,58.0,40.0,False,,206.01162035013047,[],"[720, 450]",ColorTask,56.0,94.0,,,HRV,HRV_0073,2022-11-30 18:03:16
,wl-rdm,102,324604,0.0-6.94-0.94,0.0,103.0,,,,,,,[],,,,,,53.2,1.0,i,1.0,True,1282.300000000745,77.0,58.0,40.0,False,,246.07620347870412,[],"[720, 450]",ColorTask,57.0,95.0,,,HRV,HRV_0073,2022-11-30 18:03:16
,wl-rdm,103,327303,0.0-6.95-0.95,0.0,104.0,,,,,,,[],,,,,,56.4,0.0,u,0.0,True,1276.800000000745,77.0,58.0,40.0,False,,339.8234671336367,[],"[720, 450]",ColorTask,58.0,96.0,,,HRV,HRV_0073,2022-11-30 18:03:16
,wl-rdm,104,330187,0.0-6.96-0.96,0.0,105.0,,,,,,,[],,,,,,56.4,0.0,i,1.0,False,1490.7000000029802,90.0,58.0,40.0,False,,315.97796972104095,[],"[720, 450]",ColorTask,57.0,97.0,,,HRV,HRV_0073,2022-11-30 18:03:16
,wl-rdm,105,332620,0.0-6.97-0.97,0.0,106.0,,,,,,,[],,,,,,73.6,1.0,i,1.0,True,1125.0,68.0,58.0,40.0,False,,243.24808454532808,[],"[720, 450]",ColorTask,58.0,98.0,,,HRV,HRV_0073,2022-11-30 18:03:16
,wl-rdm,106,335354,0.0-6.98-0.98,0.0,107.0,,,,,,,[],,,,,,62.5,0.0,u,0.0,True,1342.300000000745,81.0,58.0,40.0,False,,314.3329756161877,[],"[720, 450]",ColorTask,59.0,99.0,,,HRV,HRV_0073,2022-11-30 18:03:16
,wl-rdm,107,338088,0.0-6.99-0.99,0.0,108.0,,,,,,,[],,,,,,73.6,1.0,i,1.0,True,1252.8999999985099,76.0,58.0,40.0,False,,386.97016614732627,[],"[720, 450]",ColorTask,60.0,100.0,,,HRV,HRV_0073,2022-11-30 18:03:16
,wl-rdm,108,340837,0.0-6.100-0.100,0.0,109.0,,,,,,,[],,,,,,53.2,1.0,i,1.0,True,1416.0000000037253,85.0,58.0,40.0,False,,261.8682792339278,[],"[720, 450]",ColorTask,61.0,101.0,,,HRV,HRV_0073,2022-11-30 18:03:16
,wl-rdm,109,343604,0.0-6.101-0.101,0.0,110.0,,,,,,,[],,,,,,87.9,1.0,i,1.0,True,1412.2000000029802,85.0,58.0,40.0,False,,271.50725111585604,[],"[720, 450]",ColorTask,62.0,102.0,,,HRV,HRV_0073,2022-11-30 18:03:16
,wl-rdm,110,346271,0.0-6.102-0.102,0.0,111.0,,,,,,,[],,,,,,50.0,0.0,u,0.0,True,1332.5,80.0,58.0,40.0,False,,277.16554188049577,[],"[720, 450]",ColorTask,63.0,103.0,,,HRV,HRV_0073,2022-11-30 18:03:16
,wl-rdm,111,348887,0.0-6.103-0.103,0.0,112.0,,,,,,,[],,,,,,50.0,1.0,i,1.0,True,1343.6999999955297,81.0,58.0,40.0,False,,213.1455746524161,[],"[720, 450]",ColorTask,64.0,104.0,,,HRV,HRV_0073,2022-11-30 18:03:16
,wl-rdm,112,351653,0.0-6.104-0.104,0.0,113.0,,,,,,,[],,,,,,53.2,1.0,i,1.0,True,1457.5,88.0,58.0,40.0,False,,224.92350343644452,[],"[720, 450]",ColorTask,65.0,105.0,,,HRV,HRV_0073,2022-11-30 18:03:16
,wl-rdm,113,354187,0.0-6.105-0.105,0.0,114.0,,,,,,,[],,,,,,87.9,0.0,u,0.0,True,1230.3999999985099,74.0,58.0,40.0,False,,237.16455058085126,[],"[720, 450]",ColorTask,66.0,106.0,,,HRV,HRV_0073,2022-11-30 18:03:16
,wl-rdm,114,357021,0.0-6.106-0.106,0.0,115.0,,,,,,,[],,,,,,87.9,1.0,i,1.0,True,1399.5,84.0,58.0,40.0,False,,378.15123962364794,[],"[720, 450]",ColorTask,67.0,107.0,,,HRV,HRV_0073,2022-11-30 18:03:16
,wl-rdm,115,359938,0.0-6.107-0.107,0.0,116.0,,,,,,,[],,,,,,62.5,0.0,u,0.0,True,1459.3999999985099,88.0,58.0,40.0,False,,372.3342488467143,[],"[720, 450]",ColorTask,68.0,108.0,,,HRV,HRV_0073,2022-11-30 18:03:16
,wl-html-keyboard-response,116,372018,0.0-7.0-0.0,1.0,117.0,,,,,,,,10074.0,1.0,0,,,,,,,,,,,,,,,,,,,,,,HRV,HRV_0073,2022-11-30 18:03:16
,wl-rdm,117,374554,0.0-8.0-0.0,1.0,118.0,,,,,,,[],,,,,,73.6,0.0,u,0.0,True,1141.4000000022352,69.0,58.0,40.0,False,,300.9805951521328,[],"[720, 450]",ColorTask,69.0,1.0,,,HRV,HRV_0073,2022-11-30 18:03:16
,wl-rdm,118,377370,0.0-8.1-0.1,1.0,119.0,,,,,,,[],,,,,,50.0,0.0,i,1.0,False,1405.800000000745,85.0,58.0,40.0,False,,334.4362536827643,[],"[720, 450]",ColorTask,68.0,2.0,,,HRV,HRV_0073,2022-11-30 18:03:16
,wl-rdm,119,379970,0.0-8.2-0.2,1.0,120.0,,,,,,,[],,,,,,56.4,1.0,i,1.0,True,1295.5,78.0,58.0,40.0,False,,223.85478490700652,[],"[720, 450]",ColorTask,69.0,3.0,,,HRV,HRV_0073,2022-11-30 18:03:16
,wl-rdm,120,382670,0.0-8.3-0.3,1.0,121.0,,,,,,,[],,,,,,56.4,0.0,u,0.0,True,1273.199999999255,77.0,58.0,40.0,False,,352.6641856884425,[],"[720, 450]",ColorTask,70.0,4.0,,,HRV,HRV_0073,2022-11-30 18:03:16
,wl-rdm,121,385203,0.0-8.4-0.4,1.0,122.0,,,,,,,[],,,,,,87.9,0.0,u,0.0,True,1187.6000000014901,72.0,58.0,40.0,False,,258.8337359986135,[],"[720, 450]",ColorTask,71.0,5.0,,,HRV,HRV_0073,2022-11-30 18:03:16
,wl-rdm,122,387721,0.0-8.5-0.5,1.0,123.0,,,,,,,[],,,,,,53.2,1.0,i,1.0,True,1201.699999999255,72.0,58.0,40.0,False,,241.1370778309514,[],"[720, 450]",ColorTask,72.0,6.0,,,HRV,HRV_0073,2022-11-30 18:03:16
,wl-rdm,123,390387,0.0-8.6-0.6,1.0,124.0,,,,,,,[],,,,,,56.4,1.0,i,1.0,True,1223.699999999255,74.0,58.0,40.0,False,,351.2671394447159,[],"[720, 450]",ColorTask,73.0,7.0,,,HRV,HRV_0073,2022-11-30 18:03:16
,wl-rdm,124,392971,0.0-8.7-0.7,1.0,125.0,,,,,,,[],,,,,,56.4,1.0,u,0.0,False,1289.199999999255,78.0,58.0,40.0,False,,218.1594464597135,[],"[720, 450]",ColorTask,72.0,8.0,,,HRV,HRV_0073,2022-11-30 18:03:16
,wl-rdm,125,395420,0.0-8.8-0.8,1.0,126.0,,,,,,,[],,,,,,62.5,1.0,i,1.0,True,1104.199999999255,67.0,58.0,40.0,False,,265.02831526749117,[],"[720, 450]",ColorTask,73.0,9.0,,,HRV,HRV_0073,2022-11-30 18:03:16
,wl-rdm,126,398037,0.0-8.9-0.9,1.0,127.0,,,,,,,[],,,,,,53.2,1.0,i,1.0,True,1241.0,75.0,58.0,40.0,False,,290.0858297925827,[],"[720, 450]",ColorTask,74.0,10.0,,,HRV,HRV_0073,2022-11-30 18:03:16
,wl-rdm,127,400637,0.0-8.10-0.10,1.0,128.0,,,,,,,[],,,,,,62.5,1.0,i,1.0,True,1310.3000000044703,79.0,58.0,40.0,False,,204.21559636418522,[],"[720, 450]",ColorTask,75.0,11.0,,,HRV,HRV_0073,2022-11-30 18:03:16
,wl-rdm,128,403037,0.0-8.11-0.11,1.0,129.0,,,,,,,[],,,,,,87.9,1.0,i,1.0,True,990.0999999977648,60.0,58.0,40.0,False,,346.87356842977255,[],"[720, 450]",ColorTask,76.0,12.0,,,HRV,HRV_0073,2022-11-30 18:03:16
,wl-rdm,129,405638,0.0-8.12-0.12,1.0,130.0,,,,,,,[],,,,,,50.0,1.0,i,1.0,True,1297.699999999255,78.0,58.0,40.0,False,,235.83851785470185,[],"[720, 450]",ColorTask,77.0,13.0,,,HRV,HRV_0073,2022-11-30 18:03:16
,wl-rdm,130,408056,0.0-8.13-0.13,1.0,131.0,,,,,,,[],,,,,,73.6,0.0,u,0.0,True,1131.199999999255,68.0,58.0,40.0,False,,218.9936330434145,[],"[720, 450]",ColorTask,78.0,14.0,,,HRV,HRV_0073,2022-11-30 18:03:16
,wl-rdm,131,410471,0.0-8.14-0.14,1.0,132.0,,,,,,,[],,,,,,53.2,1.0,i,1.0,True,1115.5,67.0,58.0,40.0,False,,234.98012787528418,[],"[720, 450]",ColorTask,79.0,15.0,,,HRV,HRV_0073,2022-11-30 18:03:16
,wl-rdm,132,412937,0.0-8.15-0.15,1.0,133.0,,,,,,,[],,,,,,73.6,0.0,u,0.0,True,1170.2000000029802,71.0,58.0,40.0,False,,228.14325644959368,[],"[720, 450]",ColorTask,80.0,16.0,,,HRV,HRV_0073,2022-11-30 18:03:16
,wl-rdm,133,415504,0.0-8.16-0.16,1.0,134.0,,,,,,,[],,,,,,87.9,1.0,i,1.0,True,1225.4000000022352,74.0,58.0,40.0,False,,263.9025389716685,[],"[720, 450]",ColorTask,81.0,17.0,,,HRV,HRV_0073,2022-11-30 18:03:16
,wl-rdm,134,418104,0.0-8.17-0.17,1.0,135.0,,,,,,,[],,,,,,62.5,0.0,u,0.0,True,1288.8999999985099,78.0,58.0,40.0,False,,226.27929679923992,[],"[720, 450]",ColorTask,82.0,18.0,,,HRV,HRV_0073,2022-11-30 18:03:16
,wl-rdm,135,420770,0.0-8.18-0.18,1.0,136.0,,,,,,,[],,,,,,73.6,1.0,i,1.0,True,1253.5000000037253,76.0,58.0,40.0,False,,337.0318694985181,[],"[720, 450]",ColorTask,83.0,19.0,,,HRV,HRV_0073,2022-11-30 18:03:16
,wl-rdm,136,423138,0.0-8.19-0.19,1.0,137.0,,,,,,,[],,,,,,53.2,0.0,u,0.0,True,1089.9000000022352,66.0,58.0,40.0,False,,208.69489300878536,[],"[720, 450]",ColorTask,84.0,20.0,,,HRV,HRV_0073,2022-11-30 18:03:16
,wl-rdm,137,425371,0.0-8.20-0.20,1.0,138.0,,,,,,,[],,,,,,87.9,1.0,i,1.0,True,948.8999999947846,57.0,58.0,40.0,False,,231.74267347459715,[],"[720, 450]",ColorTask,85.0,21.0,,,HRV,HRV_0073,2022-11-30 18:03:16
,wl-rdm,138,428037,0.0-8.21-0.21,1.0,139.0,,,,,,,[],,,,,,50.0,1.0,u,0.0,False,1206.4000000022352,73.0,58.0,40.0,False,,397.36261307957824,[],"[720, 450]",ColorTask,84.0,22.0,,,HRV,HRV_0073,2022-11-30 18:03:16
,wl-rdm,139,430371,0.0-8.22-0.22,1.0,140.0,,,,,,,[],,,,,,56.4,1.0,i,1.0,True,1023.7000000029802,62.0,58.0,40.0,False,,224.0225653527773,[],"[720, 450]",ColorTask,85.0,23.0,,,HRV,HRV_0073,2022-11-30 18:03:16
,wl-rdm,140,432938,0.0-8.23-0.23,1.0,141.0,,,,,,,[],,,,,,62.5,0.0,u,0.0,True,1175.5,71.0,58.0,40.0,False,,316.9243073619562,[],"[720, 450]",ColorTask,86.0,24.0,,,HRV,HRV_0073,2022-11-30 18:03:16
,wl-rdm,141,435320,0.0-8.24-0.24,1.0,142.0,,,,,,,[],,,,,,87.9,1.0,i,1.0,True,1098.3999999985099,66.0,58.0,40.0,False,,217.8705075050178,[],"[720, 450]",ColorTask,87.0,25.0,,,HRV,HRV_0073,2022-11-30 18:03:16
,wl-rdm,142,437937,0.0-8.25-0.25,1.0,143.0,,,,,,,[],,,,,,56.4,1.0,i,1.0,True,1252.800000000745,75.0,58.0,40.0,False,,283.89288422869095,[],"[720, 450]",ColorTask,88.0,26.0,,,HRV,HRV_0073,2022-11-30 18:03:16
,wl-rdm,143,440537,0.0-8.26-0.26,1.0,144.0,,,,,,,[],,,,,,73.6,1.0,i,1.0,True,1152.0000000037253,69.0,58.0,40.0,False,,380.2669446831764,[],"[720, 450]",ColorTask,89.0,27.0,,,HRV,HRV_0073,2022-11-30 18:03:16
,wl-rdm,144,443221,0.0-8.27-0.27,1.0,145.0,,,,,,,[],,,,,,62.5,0.0,u,0.0,True,1257.8999999985099,76.0,58.0,40.0,False,,356.2083950550601,[],"[720, 450]",ColorTask,90.0,28.0,,,HRV,HRV_0073,2022-11-30 18:03:16
,wl-rdm,145,445837,0.0-8.28-0.28,1.0,146.0,,,,,,,[],,,,,,73.6,1.0,i,1.0,True,1168.0,70.0,58.0,40.0,False,,376.6706600183069,[],"[720, 450]",ColorTask,91.0,29.0,,,HRV,HRV_0073,2022-11-30 18:03:16
,wl-rdm,146,448389,0.0-8.29-0.29,1.0,147.0,,,,,,,[],,,,,,50.0,1.0,u,0.0,False,1273.9000000022352,77.0,58.0,40.0,False,,203.2344713634138,[],"[720, 450]",ColorTask,90.0,30.0,,,HRV,HRV_0073,2022-11-30 18:03:16
,wl-rdm,147,451072,0.0-8.30-0.30,1.0,148.0,,,,,,,[],,,,,,73.6,1.0,i,1.0,True,1307.6000000014901,79.0,58.0,40.0,False,,303.42099357833615,[],"[720, 450]",ColorTask,91.0,31.0,,,HRV,HRV_0073,2022-11-30 18:03:16
,wl-rdm,148,453638,0.0-8.31-0.31,1.0,149.0,,,,,,,[],,,,,,87.9,0.0,u,0.0,True,1215.8999999985099,73.0,58.0,40.0,False,,275.838286062226,[],"[720, 450]",ColorTask,92.0,32.0,,,HRV,HRV_0073,2022-11-30 18:03:16
,wl-rdm,149,456221,0.0-8.32-0.32,1.0,150.0,,,,,,,[],,,,,,62.5,1.0,i,1.0,True,1291.5,78.0,58.0,40.0,False,,201.28344906355326,[],"[720, 450]",ColorTask,93.0,33.0,,,HRV,HRV_0073,2022-11-30 18:03:16
,wl-rdm,150,458904,0.0-8.33-0.33,1.0,151.0,,,,,,,[],,,,,,56.4,0.0,u,0.0,True,1355.199999999255,82.0,58.0,40.0,False,,262.346836617837,[],"[720, 450]",ColorTask,94.0,34.0,,,HRV,HRV_0073,2022-11-30 18:03:16
,wl-rdm,151,461737,0.0-8.34-0.34,1.0,152.0,,,,,,,[],,,,,,73.6,0.0,u,0.0,True,1376.0,83.0,58.0,40.0,False,,397.23867664939917,[],"[720, 450]",ColorTask,95.0,35.0,,,HRV,HRV_0073,2022-11-30 18:03:16
,wl-rdm,152,464437,0.0-8.35-0.35,1.0,153.0,,,,,,,[],,,,,,62.5,1.0,i,1.0,True,1362.3999999947846,82.0,58.0,40.0,False,,267.55912161093903,[],"[720, 450]",ColorTask,96.0,36.0,,,HRV,HRV_0073,2022-11-30 18:03:16
,wl-rdm,153,467089,0.0-8.36-0.36,1.0,154.0,,,,,,,[],,,,,,73.6,0.0,u,0.0,True,1219.7999999970198,73.0,58.0,40.0,False,,358.76005490380703,[],"[720, 450]",ColorTask,97.0,37.0,,,HRV,HRV_0073,2022-11-30 18:03:16
,wl-rdm,154,469321,0.0-8.37-0.37,1.0,155.0,,,,,,,[],,,,,,87.9,1.0,i,1.0,True,954.9999999962747,58.0,58.0,40.0,False,,211.06607920784802,[],"[720, 450]",ColorTask,98.0,38.0,,,HRV,HRV_0073,2022-11-30 18:03:16
,wl-rdm,155,471805,0.0-8.38-0.38,1.0,156.0,,,,,,,[],,,,,,53.2,0.0,u,0.0,True,1189.0,72.0,58.0,40.0,False,,229.88502697931446,[],"[720, 450]",ColorTask,99.0,39.0,,,HRV,HRV_0073,2022-11-30 18:03:16
,wl-rdm,156,474288,0.0-8.39-0.39,1.0,157.0,,,,,,,[],,,,,,62.5,1.0,i,1.0,True,1139.9999999962747,69.0,58.0,40.0,False,,282.6199360239,[],"[720, 450]",ColorTask,100.0,40.0,,,HRV,HRV_0073,2022-11-30 18:03:16
,wl-rdm,157,476955,0.0-8.40-0.40,1.0,158.0,,,,,,,[],,,,,,50.0,1.0,i,1.0,True,1244.9000000022352,75.0,58.0,40.0,False,,362.38644857044284,[],"[720, 450]",ColorTask,101.0,41.0,,,HRV,HRV_0073,2022-11-30 18:03:16
,wl-rdm,158,479704,0.0-8.41-0.41,1.0,159.0,,,,,,,[],,,,,,73.6,0.0,u,0.0,True,1275.199999999255,77.0,58.0,40.0,False,,384.29998772902553,[],"[720, 450]",ColorTask,102.0,42.0,,,HRV,HRV_0073,2022-11-30 18:03:16
,wl-rdm,159,482537,0.0-8.42-0.42,1.0,160.0,,,,,,,[],,,,,,50.0,1.0,i,1.0,True,1423.4000000022352,86.0,58.0,40.0,False,,321.74335849024226,[],"[720, 450]",ColorTask,103.0,43.0,,,HRV,HRV_0073,2022-11-30 18:03:16
,wl-rdm,160,485304,0.0-8.43-0.43,1.0,161.0,,,,,,,[],,,,,,53.2,1.0,i,1.0,True,1345.300000000745,81.0,58.0,40.0,False,,355.20721611041404,[],"[720, 450]",ColorTask,104.0,44.0,,,HRV,HRV_0073,2022-11-30 18:03:16
,wl-rdm,161,488221,0.0-8.44-0.44,1.0,162.0,,,,,,,[],,,,,,50.0,1.0,i,1.0,True,1636.1000000014901,98.0,58.0,40.0,False,,208.54664635644437,[],"[720, 450]",ColorTask,105.0,45.0,,,HRV,HRV_0073,2022-11-30 18:03:16
,wl-rdm,162,491171,0.0-8.45-0.45,1.0,163.0,,,,,,,[],,,,,,62.5,0.0,u,0.0,True,1619.199999999255,97.0,58.0,40.0,False,,256.9883159757898,[],"[720, 450]",ColorTask,106.0,46.0,,,HRV,HRV_0073,2022-11-30 18:03:16
,wl-rdm,163,494004,0.0-8.46-0.46,1.0,164.0,,,,,,,[],,,,,,87.9,1.0,i,1.0,True,1518.0,91.0,58.0,40.0,False,,244.5471841457736,[],"[720, 450]",ColorTask,107.0,47.0,,,HRV,HRV_0073,2022-11-30 18:03:16
,wl-rdm,164,496753,0.0-8.47-0.47,1.0,165.0,,,,,,,[],,,,,,53.2,0.0,i,1.0,False,1455.8999999985099,88.0,58.0,40.0,False,,218.85022265256265,[],"[720, 450]",ColorTask,106.0,48.0,,,HRV,HRV_0073,2022-11-30 18:03:16
,wl-rdm,165,499154,0.0-8.48-0.48,1.0,166.0,,,,,,,[],,,,,,73.6,1.0,i,1.0,True,1055.5999999977648,64.0,58.0,40.0,False,,251.7845500740628,[],"[720, 450]",ColorTask,107.0,49.0,,,HRV,HRV_0073,2022-11-30 18:03:16
,wl-rdm,166,501671,0.0-8.49-0.49,1.0,167.0,,,,,,,[],,,,,,87.9,0.0,u,0.0,True,1106.0,67.0,58.0,40.0,False,,316.60585556819615,[],"[720, 450]",ColorTask,108.0,50.0,,,HRV,HRV_0073,2022-11-30 18:03:16
,wl-rdm,167,504287,0.0-8.50-0.50,1.0,168.0,,,,,,,[],,,,,,56.4,1.0,i,1.0,True,1193.699999999255,72.0,58.0,40.0,False,,362.14277810258574,[],"[720, 450]",ColorTask,109.0,51.0,,,HRV,HRV_0073,2022-11-30 18:03:16
,wl-rdm,168,506921,0.0-8.51-0.51,1.0,169.0,,,,,,,[],,,,,,53.2,1.0,i,1.0,True,1275.5000000037253,77.0,58.0,40.0,False,,276.9294171734191,[],"[720, 450]",ColorTask,110.0,52.0,,,HRV,HRV_0073,2022-11-30 18:03:16
,wl-rdm,169,509455,0.0-8.52-0.52,1.0,170.0,,,,,,,[],,,,,,56.4,1.0,i,1.0,True,1251.300000000745,75.0,58.0,40.0,False,,215.91867451430142,[],"[720, 450]",ColorTask,111.0,53.0,,,HRV,HRV_0073,2022-11-30 18:03:16
,wl-rdm,170,512337,0.0-8.53-0.53,1.0,171.0,,,,,,,[],,,,,,56.4,1.0,i,1.0,True,1405.0999999977648,85.0,58.0,40.0,False,,388.37422137937904,[],"[720, 450]",ColorTask,112.0,54.0,,,HRV,HRV_0073,2022-11-30 18:03:16
,wl-rdm,171,514921,0.0-8.54-0.54,1.0,172.0,,,,,,,[],,,,,,56.4,0.0,u,0.0,True,1213.3000000044703,73.0,58.0,40.0,False,,285.87038549870135,[],"[720, 450]",ColorTask,113.0,55.0,,,HRV,HRV_0073,2022-11-30 18:03:16
,wl-rdm,172,517288,0.0-8.55-0.55,1.0,173.0,,,,,,,[],,,,,,73.6,1.0,i,1.0,True,976.6000000014901,59.0,58.0,40.0,False,,329.8697947035889,[],"[720, 450]",ColorTask,114.0,56.0,,,HRV,HRV_0073,2022-11-30 18:03:16
,wl-rdm,173,519938,0.0-8.56-0.56,1.0,174.0,,,,,,,[],,,,,,62.5,1.0,i,1.0,True,1207.5,73.0,58.0,40.0,False,,365.22283673507275,[],"[720, 450]",ColorTask,115.0,57.0,,,HRV,HRV_0073,2022-11-30 18:03:16
,wl-rdm,174,522588,0.0-8.57-0.57,1.0,175.0,,,,,,,[],,,,,,53.2,1.0,u,0.0,False,1267.1000000014901,76.0,58.0,40.0,False,,307.0793918348648,[],"[720, 450]",ColorTask,114.0,58.0,,,HRV,HRV_0073,2022-11-30 18:03:16
,wl-rdm,175,525171,0.0-8.58-0.58,1.0,176.0,,,,,,,[],,,,,,50.0,0.0,i,1.0,False,1219.5999999977648,74.0,58.0,40.0,False,,286.1502046798496,[],"[720, 450]",ColorTask,113.0,59.0,,,HRV,HRV_0073,2022-11-30 18:03:16
,wl-rdm,176,527538,0.0-8.59-0.59,1.0,177.0,,,,,,,[],,,,,,73.6,0.0,u,0.0,True,1085.800000000745,65.0,58.0,40.0,False,,200.42044795337887,[],"[720, 450]",ColorTask,114.0,60.0,,,HRV,HRV_0073,2022-11-30 18:03:16
,wl-rdm,177,530105,0.0-8.60-0.60,1.0,178.0,,,,,,,[],,,,,,50.0,0.0,i,1.0,False,1267.8999999985099,76.0,58.0,40.0,False,,225.30522729938005,[],"[720, 450]",ColorTask,113.0,61.0,,,HRV,HRV_0073,2022-11-30 18:03:16
,wl-rdm,178,532321,0.0-8.61-0.61,1.0,179.0,,,,,,,[],,,,,,87.9,0.0,u,0.0,True,852.0,51.0,58.0,40.0,False,,296.5607888074015,[],"[720, 450]",ColorTask,114.0,62.0,,,HRV,HRV_0073,2022-11-30 18:03:16
,wl-rdm,179,534721,0.0-8.62-0.62,1.0,180.0,,,,,,,[],,,,,,87.9,0.0,u,0.0,True,997.9000000022352,60.0,58.0,40.0,False,,330.57601667602944,[],"[720, 450]",ColorTask,115.0,63.0,,,HRV,HRV_0073,2022-11-30 18:03:16
,wl-rdm,180,537254,0.0-8.63-0.63,1.0,181.0,,,,,,,[],,,,,,53.2,1.0,u,0.0,False,1118.800000000745,67.0,58.0,40.0,False,,340.59214198286463,[],"[720, 450]",ColorTask,114.0,64.0,,,HRV,HRV_0073,2022-11-30 18:03:16
,wl-rdm,181,539888,0.0-8.64-0.64,1.0,182.0,,,,,,,[],,,,,,62.5,0.0,i,1.0,False,1257.8000000044703,76.0,58.0,40.0,False,,295.2554460351964,[],"[720, 450]",ColorTask,113.0,65.0,,,HRV,HRV_0073,2022-11-30 18:03:16
,wl-rdm,182,542438,0.0-8.65-0.65,1.0,183.0,,,,,,,[],,,,,,56.4,0.0,i,1.0,False,1232.5999999977648,74.0,58.0,40.0,False,,260.03832189291086,[],"[720, 450]",ColorTask,112.0,66.0,,,HRV,HRV_0073,2022-11-30 18:03:16
,wl-rdm,183,545037,0.0-8.66-0.66,1.0,184.0,,,,,,,[],,,,,,53.2,0.0,u,0.0,True,1242.199999999255,75.0,58.0,40.0,False,,296.9592907855791,[],"[720, 450]",ColorTask,113.0,67.0,,,HRV,HRV_0073,2022-11-30 18:03:16
,wl-rdm,184,547754,0.0-8.67-0.67,1.0,185.0,,,,,,,[],,,,,,50.0,1.0,u,0.0,False,1317.0,79.0,58.0,40.0,False,,317.40364608392593,[],"[720, 450]",ColorTask,112.0,68.0,,,HRV,HRV_0073,2022-11-30 18:03:16
,wl-rdm,185,549572,0.0-8.68-0.68,1.0,186.0,,,,,,,[],,,,,,73.6,1.0,u,0.0,False,531.4000000022352,32.0,58.0,40.0,False,,210.28646741045816,[],"[720, 450]",ColorTask,111.0,69.0,,,HRV,HRV_0073,2022-11-30 18:03:16
,wl-rdm,186,551972,0.0-8.69-0.69,1.0,187.0,,,,,,,[],,,,,,53.2,0.0,i,1.0,False,1073.5,65.0,58.0,40.0,False,,264.57037828314924,[],"[720, 450]",ColorTask,110.0,70.0,,,HRV,HRV_0073,2022-11-30 18:03:16
,wl-rdm,187,554905,0.0-8.70-0.70,1.0,188.0,,,,,,,[],,,,,,73.6,0.0,u,0.0,True,1657.6000000014901,100.0,58.0,40.0,False,,205.60334990559252,[],"[720, 450]",ColorTask,111.0,71.0,,,HRV,HRV_0073,2022-11-30 18:03:16
,wl-rdm,188,558088,0.0-8.71-0.71,1.0,189.0,,,,,,,[],,,,,,53.2,0.0,i,1.0,False,1780.4000000022352,107.0,58.0,40.0,False,,347.0170708136351,[],"[720, 450]",ColorTask,110.0,72.0,,,HRV,HRV_0073,2022-11-30 18:03:16
,wl-rdm,189,561104,0.0-8.72-0.72,1.0,190.0,,,,,,,[],,,,,,62.5,0.0,u,0.0,True,1541.3999999985099,93.0,58.0,40.0,False,,396.8026710737174,[],"[720, 450]",ColorTask,111.0,73.0,,,HRV,HRV_0073,2022-11-30 18:03:16
,wl-rdm,190,564921,0.0-8.73-0.73,1.0,191.0,,,,,,,[],,,,,,50.0,0.0,i,1.0,False,2504.7999999970198,151.0,58.0,40.0,False,,243.4835735469908,[],"[720, 450]",ColorTask,110.0,74.0,,,HRV,HRV_0073,2022-11-30 18:03:16
,wl-rdm,191,568422,0.0-8.74-0.74,1.0,192.0,,,,,,,[],,,,,,56.4,0.0,u,0.0,True,2070.60000000149,124.0,58.0,40.0,False,,355.9556859643301,[],"[720, 450]",ColorTask,111.0,75.0,,,HRV,HRV_0073,2022-11-30 18:03:16
,wl-rdm,192,571588,0.0-8.75-0.75,1.0,193.0,,,,,,,[],,,,,,62.5,1.0,i,1.0,True,1760.5,106.0,58.0,40.0,False,,330.52842709011713,[],"[720, 450]",ColorTask,112.0,76.0,,,HRV,HRV_0073,2022-11-30 18:03:16
,wl-rdm,193,574322,0.0-8.76-0.76,1.0,194.0,,,,,,,[],,,,,,87.9,0.0,u,0.0,True,1358.8999999985099,82.0,58.0,40.0,False,,294.4625550932053,[],"[720, 450]",ColorTask,113.0,77.0,,,HRV,HRV_0073,2022-11-30 18:03:16
,wl-rdm,194,577472,0.0-8.77-0.77,1.0,195.0,,,,,,,[],,,,,,50.0,0.0,i,1.0,False,1794.5999999977648,108.0,58.0,40.0,False,,293.39291069361593,[],"[720, 450]",ColorTask,112.0,78.0,,,HRV,HRV_0073,2022-11-30 18:03:16
,wl-rdm,195,580922,0.0-8.78-0.78,1.0,196.0,,,,,,,[],,,,,,56.4,0.0,u,0.0,True,2081.099999997765,125.0,58.0,40.0,False,,300.1427776683777,[],"[720, 450]",ColorTask,113.0,79.0,,,HRV,HRV_0073,2022-11-30 18:03:16
,wl-rdm,196,584304,0.0-8.79-0.79,1.0,197.0,,,,,,,[],,,,,,50.0,0.0,i,1.0,False,2060.60000000149,124.0,58.0,40.0,False,,242.50275517089568,[],"[720, 450]",ColorTask,112.0,80.0,,,HRV,HRV_0073,2022-11-30 18:03:16
,wl-rdm,197,586972,0.0-8.80-0.80,1.0,198.0,,,,,,,[],,,,,,53.2,0.0,i,1.0,False,1259.7000000029802,76.0,58.0,40.0,False,,340.4205847576902,[],"[720, 450]",ColorTask,111.0,81.0,,,HRV,HRV_0073,2022-11-30 18:03:16
,wl-rdm,198,590706,0.0-8.81-0.81,1.0,199.0,,,,,,,[],,,,,,53.2,0.0,u,0.0,True,2335.900000002235,140.0,58.0,40.0,False,,328.6774064556695,[],"[720, 450]",ColorTask,112.0,82.0,,,HRV,HRV_0073,2022-11-30 18:03:16
,wl-rdm,199,594589,0.0-8.82-0.82,1.0,200.0,,,,,,,[],,,,,,56.4,0.0,i,1.0,False,2560.800000000745,154.0,58.0,40.0,False,,243.81178374528602,[],"[720, 450]",ColorTask,111.0,83.0,,,HRV,HRV_0073,2022-11-30 18:03:16
,wl-rdm,200,596987,0.0-8.83-0.83,1.0,201.0,,,,,,,[],,,,,,87.9,1.0,i,1.0,True,1035.8999999985099,63.0,58.0,40.0,False,,292.38053012196576,[],"[720, 450]",ColorTask,112.0,84.0,,,HRV,HRV_0073,2022-11-30 18:03:16
,wl-rdm,201,600471,0.0-8.84-0.84,1.0,202.0,,,,,,,[],,,,,,56.4,1.0,i,1.0,True,2038.7000000029802,123.0,58.0,40.0,False,,375.54838597332184,[],"[720, 450]",ColorTask,113.0,85.0,,,HRV,HRV_0073,2022-11-30 18:03:16
,wl-rdm,202,604137,0.0-8.85-0.85,1.0,203.0,,,,,,,[],,,,,,62.5,1.0,i,1.0,True,2241.300000000745,135.0,58.0,40.0,False,,355.1455396597846,[],"[720, 450]",ColorTask,114.0,86.0,,,HRV,HRV_0073,2022-11-30 18:03:16
,wl-rdm,203,607622,0.0-8.86-0.86,1.0,204.0,,,,,,,[],,,,,,50.0,0.0,u,0.0,True,2170.599999997765,131.0,58.0,40.0,False,,242.08471285322395,[],"[720, 450]",ColorTask,115.0,87.0,,,HRV,HRV_0073,2022-11-30 18:03:16
,wl-rdm,204,610906,0.0-8.87-0.87,1.0,205.0,,,,,,,[],,,,,,56.4,0.0,u,0.0,True,2008.6000000014901,121.0,58.0,40.0,False,,202.77793653426036,[],"[720, 450]",ColorTask,116.0,88.0,,,HRV,HRV_0073,2022-11-30 18:03:16
,wl-rdm,205,613971,0.0-8.88-0.88,1.0,206.0,,,,,,,[],,,,,,62.5,0.0,u,0.0,True,1705.9000000022352,103.0,58.0,40.0,False,,288.22211379563873,[],"[720, 450]",ColorTask,117.0,89.0,,,HRV,HRV_0073,2022-11-30 18:03:16
,wl-rdm,206,617372,0.0-8.89-0.89,1.0,207.0,,,,,,,[],,,,,,73.6,1.0,i,1.0,True,2057.300000000745,124.0,58.0,40.0,False,,280.79281155617014,[],"[720, 450]",ColorTask,118.0,90.0,,,HRV,HRV_0073,2022-11-30 18:03:16
,wl-rdm,207,620972,0.0-8.90-0.90,1.0,208.0,,,,,,,[],,,,,,50.0,0.0,u,0.0,True,2170.599999997765,131.0,58.0,40.0,False,,349.2262984193447,[],"[720, 450]",ColorTask,119.0,91.0,,,HRV,HRV_0073,2022-11-30 18:03:16
,wl-rdm,208,624355,0.0-8.91-0.91,1.0,209.0,,,,,,,[],,,,,,62.5,1.0,i,1.0,True,2046.199999999255,123.0,58.0,40.0,False,,271.72943187349176,[],"[720, 450]",ColorTask,120.0,92.0,,,HRV,HRV_0073,2022-11-30 18:03:16
,wl-rdm,209,627555,0.0-8.92-0.92,1.0,210.0,,,,,,,[],,,,,,62.5,0.0,u,0.0,True,1882.0,113.0,58.0,40.0,False,,242.30573896362816,[],"[720, 450]",ColorTask,121.0,93.0,,,HRV,HRV_0073,2022-11-30 18:03:16
,wl-rdm,210,630388,0.0-8.93-0.93,1.0,211.0,,,,,,,[],,,,,,87.9,0.0,u,0.0,True,1540.8999999985099,93.0,58.0,40.0,False,,232.58669920572686,[],"[720, 450]",ColorTask,122.0,94.0,,,HRV,HRV_0073,2022-11-30 18:03:16
,wl-rdm,211,633272,0.0-8.94-0.94,1.0,212.0,,,,,,,[],,,,,,87.9,1.0,i,1.0,True,1596.2000000029802,96.0,58.0,40.0,False,,219.8848355122839,[],"[720, 450]",ColorTask,123.0,95.0,,,HRV,HRV_0073,2022-11-30 18:03:16
,wl-rdm,212,636473,0.0-8.95-0.95,1.0,213.0,,,,,,,[],,,,,,50.0,1.0,i,1.0,True,1825.8999999985099,110.0,58.0,40.0,False,,298.43274009581626,[],"[720, 450]",ColorTask,124.0,96.0,,,HRV,HRV_0073,2022-11-30 18:03:16
,wl-rdm,213,639822,0.0-8.96-0.96,1.0,214.0,,,,,,,[],,,,,,53.2,0.0,u,0.0,True,2062.0,124.0,58.0,40.0,False,,226.5605895821164,[],"[720, 450]",ColorTask,125.0,97.0,,,HRV,HRV_0073,2022-11-30 18:03:16
,wl-rdm,214,642471,0.0-8.97-0.97,1.0,215.0,,,,,,,[],,,,,,73.6,1.0,i,1.0,True,1321.699999999255,80.0,58.0,40.0,False,,261.55799120647583,[],"[720, 450]",ColorTask,126.0,98.0,,,HRV,HRV_0073,2022-11-30 18:03:16
,wl-rdm,215,645938,0.0-8.98-0.98,1.0,216.0,,,,,,,[],,,,,,53.2,1.0,i,1.0,True,2011.4000000022352,121.0,58.0,40.0,False,,381.12352052353395,[],"[720, 450]",ColorTask,127.0,99.0,,,HRV,HRV_0073,2022-11-30 18:03:16
,wl-rdm,216,649222,0.0-8.99-0.99,1.0,217.0,,,,,,,[],,,,,,62.5,0.0,u,0.0,True,1937.6999999955297,117.0,58.0,40.0,False,,266.024089500637,[],"[720, 450]",ColorTask,128.0,100.0,,,HRV,HRV_0073,2022-11-30 18:03:16
,wl-rdm,217,652373,0.0-8.100-0.100,1.0,218.0,,,,,,,[],,,,,,56.4,0.0,i,1.0,False,1700.699999999255,102.0,58.0,40.0,False,,373.32219034712136,[],"[720, 450]",ColorTask,127.0,101.0,,,HRV,HRV_0073,2022-11-30 18:03:16
,wl-rdm,218,655556,0.0-8.101-0.101,1.0,219.0,,,,,,,[],,,,,,87.9,0.0,u,0.0,True,1727.199999999255,104.0,58.0,40.0,False,,385.50515092031117,[],"[720, 450]",ColorTask,128.0,102.0,,,HRV,HRV_0073,2022-11-30 18:03:16
,wl-rdm,219,658805,0.0-8.102-0.102,1.0,220.0,,,,,,,[],,,,,,53.2,1.0,i,1.0,True,1946.3999999985099,117.0,58.0,40.0,False,,240.14758984560785,[],"[720, 450]",ColorTask,129.0,103.0,,,HRV,HRV_0073,2022-11-30 18:03:16
,wl-rdm,220,662222,0.0-8.103-0.103,1.0,221.0,,,,,,,[],,,,,,87.9,0.0,u,0.0,True,2062.5,124.0,58.0,40.0,False,,285.7397099599983,[],"[720, 450]",ColorTask,130.0,104.0,,,HRV,HRV_0073,2022-11-30 18:03:16
,wl-rdm,221,664554,0.0-8.104-0.104,1.0,222.0,,,,,,,[],,,,,,87.9,1.0,i,1.0,True,1023.8000000007451,62.0,58.0,40.0,False,,236.49683655003315,[],"[720, 450]",ColorTask,131.0,105.0,,,HRV,HRV_0073,2022-11-30 18:03:16
,wl-rdm,222,667572,0.0-8.105-0.105,1.0,223.0,,,,,,,[],,,,,,50.0,0.0,i,1.0,False,1648.5999999977648,99.0,58.0,40.0,False,,294.97124820775525,[],"[720, 450]",ColorTask,130.0,106.0,,,HRV,HRV_0073,2022-11-30 18:03:16
,wl-rdm,223,670339,0.0-8.106-0.106,1.0,224.0,,,,,,,[],,,,,,50.0,1.0,u,0.0,False,1435.9000000022352,87.0,58.0,40.0,False,,264.83337424396046,[],"[720, 450]",ColorTask,129.0,107.0,,,HRV,HRV_0073,2022-11-30 18:03:16
,wl-rdm,224,672755,0.0-8.107-0.107,1.0,225.0,,,,,,,[],,,,,,73.6,0.0,u,0.0,True,1072.1000000014901,65.0,58.0,40.0,False,,263.36315490123303,[],"[720, 450]",ColorTask,130.0,108.0,,,HRV,HRV_0073,2022-11-30 18:03:16
,wl-html-button-response,225,675165,0.0-9.0-0.0,,,,,,,,,,2404.39999999851,,0,,,,,,,,,,,,,,,,,,,,<h3>End of this session. Thank you!</h3><br>,['Close window'],HRV,HRV_0073,2022-11-30 18:03:16
