success,trial_type,trial_index,time_elapsed,internal_node_id,missTrial,missTrialMsg,Block,TrialNumber,TrialTime,trialTimeDiff,FPS_avg,FPS_med,FPS_mode,TrialDur,winResizeTime,rt,block,button_pressed,MotCoh,MotDir,ColCoh,Color,ChoiceKey,Choice,Accuracy,RT,nFrames,FPS,PPD,onsetDelay,fullScreenExitTime,canvCenter,TrialType,Score,BlockTrial,stimulus,button_labels,exp,subjectId,date
True,fullscreen,0,7800,0.0-0.0,True,undefinedblurEvent ,0.0,0.0,,,,,,,,,,,,,,,,,,,,,,,,,,,,,,HRV,HRV_0014,2022-11-30 18:01:19
,wl-check-fps,1,12802,0.0-1.0,,,0.0,1.0,"[9376.1, 9379.8, 9396.4, 9413.3, 9430.1, 9447.3, 9463.6, 9479.9, 9496.7, 9513.7, 9530, 9546.8, 9563.5, 9580.1, 9596.6, 9613.2, 9630.3, 9647.1, 9663.7, 9679.9, 9696.6, 9713.4, 9730, 9746.7, 9763.4, 9780.4, 9797.3, 9813.6, 9830.5, 9846.9, 9863.6, 9880.2, 9896.8, 9913.4, 9930.5, 9947.2, 9963.6, 9980.4, 9997.1, 10013.9, 10030.4, 10047, 10063.8, 10080.1, 10096.7, 10113.4, 10130, 10146.9, 10163.5, 10180.2, 10196.5, 10213.3, 10230.4, 10247.3, 10263.6, 10280.7, 10297.1, 10313.7, 10330.3, 10346.6, 10363.3, 10380.2, 10396.8, 10413.6, 10430.3, 10446.7, 10463.6, 10480.1, 10496.8, 10513.5, 10530.1, 10546.9, 10563.7, 10581, 10596.4, 10613.4, 10630, 10646.8, 10663.5, 10680.1, 10696.9, 10713.8, 10730.3, 10747, 10763.7, 10780.4, 10796.9, 10813.5, 10830.2, 10846.5, 10863.7, 10880.5, 10897.1, 10913.9, 10930.4, 10947.1, 10963.6, 10980.3, 10997.1, 11013.8, 11030.5, 11047, 11063.5, 11079.7, 11096.6, 11113.3, 11130.4, 11146.9, 11163.7, 11180.4, 11196.8, 11213.1, 11229.8, 11246.5, 11263, 11280.3, 11297, 11313.6, 11330.3, 11347, 11363.6, 11380.3, 11397, 11413.6, 11430.1, 11446.7, 11463.5, 11480, 11496.8, 11513.8, 11530.3, 11546.8, 11563.6, 11580.4, 11596.5, 11613.2, 11630, 11646.6, 11663.4, 11680, 11696.8, 11713.4, 11730.2, 11746.8, 11763.4, 11780.2, 11796.6, 11813.5, 11830.1, 11846.8, 11863.5, 11880, 11896.7, 11913.5, 11930.2, 11946.8, 11963.5, 11980, 11996.7, 12013.4, 12030.1, 12046.8, 12063.5, 12080.1, 12096.7, 12113.4, 12130, 12146.8, 12163.4, 12179.9, 12196.7, 12213.4, 12229.8, 12246.4, 12263.3, 12280.2, 12296.7, 12313.4, 12330.3, 12346.7, 12363.4, 12380.2, 12396.7, 12413.1, 12429.9, 12446.6, 12463.5, 12480.1, 12496.9, 12513.3, 12530, 12546.6, 12563.4, 12580.6, 12596.5, 12613.2, 12629.8, 12646.5, 12663.3, 12680, 12696.4, 12713.1, 12729.9, 12746.6, 12763.6, 12780, 12796.7, 12813.7, 12830.3, 12846.9, 12863.4, 12880.3, 12896.8, 12913.5, 12930.1, 12946.6, 12963.1, 12979.9, 12996.7, 13013.2, 13030.1, 13046.7, 13063.5, 13080, 13096.6, 13113.3, 13130, 13146.7, 13163.4, 13179.7, 13196.6, 13213.6, 13230.3, 13246.7, 13263.5, 13280.1, 13296.8, 13313.4, 13330.1, 13347, 13363.7, 13380, 13397.6, 13413.1, 13430, 13446.5, 13463, 13480.1, 13496.7, 13513.4, 13530.1, 13546.7, 13563.5, 13580.9, 13596.8, 13613.4, 13629.7, 13646.4, 13663.4, 13679.7, 13696.4, 13713.1, 13729.8, 13746.4, 13763.2, 13780.1, 13797.2, 13814.2, 13830.3, 13847.2, 13863.4, 13880.1, 13897.2, 13913.6, 13930.3, 13947, 13963.2, 13980, 13996.8, 14013.5, 14030.4, 14046.9, 14063.5, 14080.6, 14096.6, 14113.2, 14130.1, 14146.7, 14163.4, 14180.3, 14197.3, 14214, 14230, 14246.9, 14263.9, 14280.3, 14296.9, 14313.4, 14330.4, 14346.8]","[10.3, 3.7, 16.6, 16.9, 16.8, 17.2, 16.3, 16.3, 16.8, 17, 16.3, 16.8, 16.7, 16.6, 16.5, 16.6, 17.1, 16.8, 16.6, 16.2, 16.7, 16.8, 16.6, 16.7, 16.7, 17, 16.9, 16.3, 16.9, 16.4, 16.7, 16.6, 16.6, 16.6, 17.1, 16.7, 16.4, 16.8, 16.7, 16.8, 16.5, 16.6, 16.8, 16.3, 16.6, 16.7, 16.6, 16.9, 16.6, 16.7, 16.3, 16.8, 17.1, 16.9, 16.3, 17.1, 16.4, 16.6, 16.6, 16.3, 16.7, 16.9, 16.6, 16.8, 16.7, 16.4, 16.9, 16.5, 16.7, 16.7, 16.6, 16.8, 16.8, 17.3, 15.4, 17, 16.6, 16.8, 16.7, 16.6, 16.8, 16.9, 16.5, 16.7, 16.7, 16.7, 16.5, 16.6, 16.7, 16.3, 17.2, 16.8, 16.6, 16.8, 16.5, 16.7, 16.5, 16.7, 16.8, 16.7, 16.7, 16.5, 16.5, 16.2, 16.9, 16.7, 17.1, 16.5, 16.8, 16.7, 16.4, 16.3, 16.7, 16.7, 16.5, 17.3, 16.7, 16.6, 16.7, 16.7, 16.6, 16.7, 16.7, 16.6, 16.5, 16.6, 16.8, 16.5, 16.8, 17, 16.5, 16.5, 16.8, 16.8, 16.1, 16.7, 16.8, 16.6, 16.8, 16.6, 16.8, 16.6, 16.8, 16.6, 16.6, 16.8, 16.4, 16.9, 16.6, 16.7, 16.7, 16.5, 16.7, 16.8, 16.7, 16.6, 16.7, 16.5, 16.7, 16.7, 16.7, 16.7, 16.7, 16.6, 16.6, 16.7, 16.6, 16.8, 16.6, 16.5, 16.8, 16.7, 16.4, 16.6, 16.9, 16.9, 16.5, 16.7, 16.9, 16.4, 16.7, 16.8, 16.5, 16.4, 16.8, 16.7, 16.9, 16.6, 16.8, 16.4, 16.7, 16.6, 16.8, 17.2, 15.9, 16.7, 16.6, 16.7, 16.8, 16.7, 16.4, 16.7, 16.8, 16.7, 17, 16.4, 16.7, 17, 16.6, 16.6, 16.5, 16.9, 16.5, 16.7, 16.6, 16.5, 16.5, 16.8, 16.8, 16.5, 16.9, 16.6, 16.8, 16.5, 16.6, 16.7, 16.7, 16.7, 16.7, 16.3, 16.9, 17, 16.7, 16.4, 16.8, 16.6, 16.7, 16.6, 16.7, 16.9, 16.7, 16.3, 17.6, 15.5, 16.9, 16.5, 16.5, 17.1, 16.6, 16.7, 16.7, 16.6, 16.8, 17.4, 15.9, 16.6, 16.3, 16.7, 17, 16.3, 16.7, 16.7, 16.7, 16.6, 16.8, 16.9, 17.1, 17, 16.1, 16.9, 16.2, 16.7, 17.1, 16.4, 16.7, 16.7, 16.2, 16.8, 16.8, 16.7, 16.9, 16.5, 16.6, 17.1, 16, 16.6, 16.9, 16.6, 16.7, 16.9, 17, 16.7, 16, 16.9, 17, 16.4, 16.6, 16.5, 17, 16.4]",60.0,60.0,60.0,4997.6,[],,,,,,,,,,,,,,,,,,,,,,,HRV,HRV_0014,2022-11-30 18:01:19
,wl-html-keyboard-response,2,27520,0.0-2.0-0.0,,,0.0,2.0,,,,,,,,12698.10000000149,0.0,0,,,,,,,,,,,,,,,,,,,,HRV,HRV_0014,2022-11-30 18:01:19
,wl-rdm,3,35483,0.0-3.0-0.0,False,,0.0,3.0,,,,,,,[],,,,0.0,0.0,87.9,0.0,u,0.0,True,2386.89999999851,144.0,60.0,40.0,3000.0,[],"[1720, 720]",ColorTask_Demo,,,,,HRV,HRV_0014,2022-11-30 18:01:19
,wl-rdm,4,40316,0.0-3.0-1.0,False,,0.0,4.0,,,,,,,[],,,,0.0,0.0,87.9,1.0,i,1.0,True,769.5,47.0,60.0,40.0,2000.0,[],"[1720, 720]",ColorTask_Demo,,,,,HRV,HRV_0014,2022-11-30 18:01:19
,wl-html-keyboard-response,5,44437,0.0-3.0-2.0,,,0.0,5.0,,,,,,,,2109.400000002235,0.0,1,,,,,,,,,,,,,,,,,,,,HRV,HRV_0014,2022-11-30 18:01:19
,wl-html-keyboard-response,6,52076,0.0-4.0-0.0,,,0.0,6.0,,,,,,,,5629.199999999255,0.0,0,,,,,,,,,,,,,,,,,,,,HRV,HRV_0014,2022-11-30 18:01:19
,wl-html-keyboard-response,7,59653,0.0-5.0-0.0,,,0.0,7.0,,,,,,,,5565.10000000149,0.0,0,,,,,,,,,,,,,,,,,,,,HRV,HRV_0014,2022-11-30 18:01:19
,wl-rdm,8,62066,0.0-6.0-0.0,False,,0.0,8.0,,,,,,,[],,,,,,53.2,1.0,i,1.0,True,1079.9999999962747,65.0,60.0,40.0,250.58112835831002,[],"[1720, 720]",ColorTask,1.0,1.0,,,HRV,HRV_0014,2022-11-30 18:01:19
,wl-rdm,9,64732,0.0-6.1-0.1,False,,0.0,9.0,,,,,,,[],,,,,,62.5,1.0,i,1.0,True,1320.0,80.0,60.0,40.0,257.90228352149154,[],"[1720, 720]",ColorTask,2.0,2.0,,,HRV,HRV_0014,2022-11-30 18:01:19
,wl-rdm,10,66715,0.0-6.2-0.2,False,,0.0,10.0,,,,,,,[],,,,,,73.6,0.0,u,0.0,True,702.1000000014901,43.0,60.0,40.0,206.27403922805715,[],"[1720, 720]",ColorTask,3.0,3.0,,,HRV,HRV_0014,2022-11-30 18:01:19
,wl-rdm,11,68965,0.0-6.3-0.3,False,,0.0,11.0,,,,,,,[],,,,,,53.2,1.0,i,1.0,True,810.7999999970198,49.0,60.0,40.0,362.98792184901106,[],"[1720, 720]",ColorTask,4.0,4.0,,,HRV,HRV_0014,2022-11-30 18:01:19
,wl-rdm,12,70999,0.0-6.4-0.4,False,,0.0,12.0,,,,,,,[],,,,,,62.5,1.0,i,1.0,True,654.4000000022352,40.0,60.0,40.0,316.8805275557816,[],"[1720, 720]",ColorTask,5.0,5.0,,,HRV,HRV_0014,2022-11-30 18:01:19
,wl-rdm,13,73199,0.0-6.5-0.5,False,,0.0,13.0,,,,,,,[],,,,,,50.0,0.0,u,0.0,True,910.6999999992549,55.0,60.0,40.0,222.7839871514333,[],"[1720, 720]",ColorTask,6.0,6.0,,,HRV,HRV_0014,2022-11-30 18:01:19
,wl-rdm,14,75265,0.0-6.6-0.6,False,,0.0,14.0,,,,,,,[],,,,,,73.6,1.0,i,1.0,True,651.5,40.0,60.0,40.0,344.1730876896134,[],"[1720, 720]",ColorTask,7.0,7.0,,,HRV,HRV_0014,2022-11-30 18:01:19
,wl-rdm,15,77265,0.0-6.7-0.7,False,,0.0,15.0,,,,,,,[],,,,,,62.5,1.0,i,1.0,True,553.0,34.0,60.0,40.0,376.2537912512212,[],"[1720, 720]",ColorTask,8.0,8.0,,,HRV,HRV_0014,2022-11-30 18:01:19
,wl-rdm,16,79482,0.0-6.8-0.8,False,,0.0,16.0,,,,,,,[],,,,,,73.6,0.0,u,0.0,True,754.0999999977648,46.0,60.0,40.0,384.36666647952677,[],"[1720, 720]",ColorTask,9.0,9.0,,,HRV,HRV_0014,2022-11-30 18:01:19
,wl-rdm,17,81482,0.0-6.9-0.9,False,,0.0,17.0,,,,,,,[],,,,,,50.0,0.0,i,1.0,False,648.3000000007451,39.0,60.0,40.0,295.5467581461797,[],"[1720, 720]",ColorTask,8.0,10.0,,,HRV,HRV_0014,2022-11-30 18:01:19
,wl-rdm,18,83632,0.0-6.10-0.10,False,,0.0,18.0,,,,,,,[],,,,,,56.4,0.0,u,0.0,True,858.9000000022352,52.0,60.0,40.0,204.10145993976874,[],"[1720, 720]",ColorTask,9.0,11.0,,,HRV,HRV_0014,2022-11-30 18:01:19
,wl-rdm,19,86214,0.0-6.11-0.11,False,,0.0,19.0,,,,,,,[],,,,,,62.5,0.0,u,0.0,True,1242.7999999970198,75.0,60.0,40.0,254.1962515763215,[],"[1720, 720]",ColorTask,10.0,12.0,,,HRV,HRV_0014,2022-11-30 18:01:19
,wl-rdm,20,88415,0.0-6.12-0.12,False,,0.0,20.0,,,,,,,[],,,,,,62.5,1.0,i,1.0,True,768.3999999985099,47.0,60.0,40.0,361.43387152700046,[],"[1720, 720]",ColorTask,11.0,13.0,,,HRV,HRV_0014,2022-11-30 18:01:19
,wl-rdm,21,91631,0.0-6.13-0.13,False,,0.0,21.0,,,,,,,[],,,,,,56.4,1.0,i,1.0,True,1906.5,115.0,60.0,40.0,243.59018975739397,[],"[1720, 720]",ColorTask,12.0,14.0,,,HRV,HRV_0014,2022-11-30 18:01:19
,wl-rdm,22,93798,0.0-6.14-0.14,False,,0.0,22.0,,,,,,,[],,,,,,50.0,0.0,u,0.0,True,777.9000000022352,47.0,60.0,40.0,306.08750743539906,[],"[1720, 720]",ColorTask,13.0,15.0,,,HRV,HRV_0014,2022-11-30 18:01:19
,wl-rdm,23,96248,0.0-6.15-0.15,False,,0.0,23.0,,,,,,,[],,,,,,56.4,1.0,u,0.0,False,1135.7999999970198,69.0,60.0,40.0,220.39608822418063,[],"[1720, 720]",ColorTask,12.0,16.0,,,HRV,HRV_0014,2022-11-30 18:01:19
,wl-rdm,24,98398,0.0-6.16-0.16,False,,0.0,24.0,,,,,,,[],,,,,,62.5,1.0,i,1.0,True,869.5,53.0,60.0,40.0,210.6785596389206,[],"[1720, 720]",ColorTask,13.0,17.0,,,HRV,HRV_0014,2022-11-30 18:01:19
,wl-rdm,25,100948,0.0-6.17-0.17,False,,0.0,25.0,,,,,,,[],,,,,,56.4,1.0,u,0.0,False,1122.5,68.0,60.0,40.0,336.50568807545585,[],"[1720, 720]",ColorTask,12.0,18.0,,,HRV,HRV_0014,2022-11-30 18:01:19
,wl-rdm,26,103681,0.0-6.18-0.18,False,,0.0,26.0,,,,,,,[],,,,,,56.4,0.0,u,0.0,True,1324.5999999977648,80.0,60.0,40.0,331.5696979887051,[],"[1720, 720]",ColorTask,13.0,19.0,,,HRV,HRV_0014,2022-11-30 18:01:19
,wl-rdm,27,108048,0.0-6.19-0.19,True,RT_timeout ,0.0,26.0,,,,,,,[],,,,,,56.4,0.0,,,,,179.0,60.0,40.0,298.3457069972336,[],"[1720, 720]",ColorTask,12.0,20.0,,,HRV,HRV_0014,2022-11-30 18:01:19
,wl-rdm,28,110347,0.0-6.20-0.20,False,,0.0,27.0,,,,,,,[],,,,,,62.5,1.0,i,1.0,True,935.1999999992549,57.0,60.0,40.0,274.7823885004338,[],"[1720, 720]",ColorTask,13.0,21.0,,,HRV,HRV_0014,2022-11-30 18:01:19
,wl-rdm,29,112447,0.0-6.21-0.21,False,,0.0,28.0,,,,,,,[],,,,,,53.2,0.0,u,0.0,True,771.2000000029802,47.0,60.0,40.0,258.4186090119704,[],"[1720, 720]",ColorTask,14.0,22.0,,,HRV,HRV_0014,2022-11-30 18:01:19
,wl-rdm,30,114914,0.0-6.22-0.22,False,,0.0,29.0,,,,,,,[],,,,,,50.0,1.0,i,1.0,True,1139.1000000014901,69.0,60.0,40.0,236.7083037983781,[],"[1720, 720]",ColorTask,15.0,23.0,,,HRV,HRV_0014,2022-11-30 18:01:19
,wl-rdm,31,116997,0.0-6.23-0.23,False,,0.0,30.0,,,,,,,[],,,,,,87.9,1.0,i,1.0,True,775.8000000044703,47.0,60.0,40.0,220.37761942283612,[],"[1720, 720]",ColorTask,16.0,24.0,,,HRV,HRV_0014,2022-11-30 18:01:19
,wl-rdm,32,119230,0.0-6.24-0.24,False,,0.0,31.0,,,,,,,[],,,,,,73.6,0.0,u,0.0,True,783.5,47.0,60.0,40.0,382.87428734908354,[],"[1720, 720]",ColorTask,17.0,25.0,,,HRV,HRV_0014,2022-11-30 18:01:19
,wl-rdm,33,121947,0.0-6.25-0.25,False,,0.0,32.0,,,,,,,[],,,,,,53.2,0.0,i,1.0,False,1378.5,83.0,60.0,40.0,260.1708413329097,[],"[1720, 720]",ColorTask,16.0,26.0,,,HRV,HRV_0014,2022-11-30 18:01:19
,wl-rdm,34,124647,0.0-6.26-0.26,False,,0.0,33.0,,,,,,,[],,,,,,53.2,0.0,u,0.0,True,1340.1000000014901,81.0,60.0,40.0,281.33043697625004,[],"[1720, 720]",ColorTask,17.0,27.0,,,HRV,HRV_0014,2022-11-30 18:01:19
,wl-rdm,35,126997,0.0-6.27-0.27,False,,0.0,34.0,,,,,,,[],,,,,,62.5,0.0,u,0.0,True,1035.3999999985099,63.0,60.0,40.0,240.5493139507929,[],"[1720, 720]",ColorTask,18.0,28.0,,,HRV,HRV_0014,2022-11-30 18:01:19
,wl-rdm,36,129247,0.0-6.28-0.28,False,,0.0,35.0,,,,,,,[],,,,,,73.6,1.0,i,1.0,True,885.6999999992549,54.0,60.0,40.0,276.65441979507153,[],"[1720, 720]",ColorTask,19.0,29.0,,,HRV,HRV_0014,2022-11-30 18:01:19
,wl-rdm,37,131680,0.0-6.29-0.29,False,,0.0,36.0,,,,,,,[],,,,,,50.0,0.0,i,1.0,False,998.6999999992549,60.0,60.0,40.0,353.9866148234581,[],"[1720, 720]",ColorTask,18.0,30.0,,,HRV,HRV_0014,2022-11-30 18:01:19
,wl-rdm,38,133829,0.0-6.30-0.30,False,,0.0,37.0,,,,,,,[],,,,,,87.9,0.0,u,0.0,True,687.1999999992549,42.0,60.0,40.0,370.40797947676697,[],"[1720, 720]",ColorTask,19.0,31.0,,,HRV,HRV_0014,2022-11-30 18:01:19
,wl-rdm,39,136113,0.0-6.31-0.31,False,,0.0,38.0,,,,,,,[],,,,,,62.5,0.0,u,0.0,True,1000.3000000007451,60.0,60.0,40.0,211.7838240486545,[],"[1720, 720]",ColorTask,20.0,32.0,,,HRV,HRV_0014,2022-11-30 18:01:19
,wl-rdm,40,138580,0.0-6.32-0.32,False,,0.0,39.0,,,,,,,[],,,,,,56.4,0.0,u,0.0,True,1199.0999999977648,72.0,60.0,40.0,211.17026366232471,[],"[1720, 720]",ColorTask,21.0,33.0,,,HRV,HRV_0014,2022-11-30 18:01:19
,wl-rdm,41,141280,0.0-6.33-0.33,False,,0.0,40.0,,,,,,,[],,,,,,50.0,1.0,u,0.0,False,1431.8999999985099,86.0,60.0,40.0,213.80516237013236,[],"[1720, 720]",ColorTask,20.0,34.0,,,HRV,HRV_0014,2022-11-30 18:01:19
,wl-rdm,42,143896,0.0-6.34-0.34,False,,0.0,41.0,,,,,,,[],,,,,,53.2,0.0,i,1.0,False,1149.8999999985099,69.0,60.0,40.0,397.31697962277894,[],"[1720, 720]",ColorTask,19.0,35.0,,,HRV,HRV_0014,2022-11-30 18:01:19
,wl-rdm,43,146013,0.0-6.35-0.35,False,,0.0,42.0,,,,,,,[],,,,,,50.0,1.0,i,1.0,True,786.1999999955297,48.0,60.0,40.0,255.81444957510834,[],"[1720, 720]",ColorTask,20.0,36.0,,,HRV,HRV_0014,2022-11-30 18:01:19
,wl-rdm,44,148413,0.0-6.36-0.36,False,,0.0,43.0,,,,,,,[],,,,,,73.6,0.0,u,0.0,True,1019.6999999992549,62.0,60.0,40.0,309.85017821927784,[],"[1720, 720]",ColorTask,21.0,37.0,,,HRV,HRV_0014,2022-11-30 18:01:19
,wl-rdm,45,150962,0.0-6.37-0.37,False,,0.0,44.0,,,,,,,[],,,,,,50.0,0.0,i,1.0,False,1214.6000000014901,73.0,60.0,40.0,252.47271174748514,[],"[1720, 720]",ColorTask,20.0,38.0,,,HRV,HRV_0014,2022-11-30 18:01:19
,wl-rdm,46,153146,0.0-6.38-0.38,False,,0.0,45.0,,,,,,,[],,,,,,53.2,1.0,i,1.0,True,790.3999999985099,48.0,60.0,40.0,319.42067914170593,[],"[1720, 720]",ColorTask,21.0,39.0,,,HRV,HRV_0014,2022-11-30 18:01:19
,wl-rdm,47,155312,0.0-6.39-0.39,False,,0.0,46.0,,,,,,,[],,,,,,73.6,0.0,u,0.0,True,853.2000000029802,52.0,60.0,40.0,226.15648655819618,[],"[1720, 720]",ColorTask,22.0,40.0,,,HRV,HRV_0014,2022-11-30 18:01:19
,wl-rdm,48,157746,0.0-6.40-0.40,False,,0.0,47.0,,,,,,,[],,,,,,73.6,1.0,i,1.0,True,952.2000000029802,58.0,60.0,40.0,392.2585734007606,[],"[1720, 720]",ColorTask,23.0,41.0,,,HRV,HRV_0014,2022-11-30 18:01:19
,wl-rdm,49,159979,0.0-6.41-0.41,False,,0.0,48.0,,,,,,,[],,,,,,56.4,1.0,i,1.0,True,951.6999999992549,58.0,60.0,40.0,202.86408587060603,[],"[1720, 720]",ColorTask,24.0,42.0,,,HRV,HRV_0014,2022-11-30 18:01:19
,wl-rdm,50,162612,0.0-6.42-0.42,False,,0.0,49.0,,,,,,,[],,,,,,50.0,0.0,u,0.0,True,1298.800000000745,78.0,60.0,40.0,259.81789634156974,[],"[1720, 720]",ColorTask,25.0,43.0,,,HRV,HRV_0014,2022-11-30 18:01:19
,wl-rdm,51,165262,0.0-6.43-0.43,False,,0.0,50.0,,,,,,,[],,,,,,50.0,1.0,i,1.0,True,1355.0999999977648,82.0,60.0,40.0,232.18106811213175,[],"[1720, 720]",ColorTask,26.0,44.0,,,HRV,HRV_0014,2022-11-30 18:01:19
,wl-rdm,52,167396,0.0-6.44-0.44,False,,0.0,51.0,,,,,,,[],,,,,,87.9,0.0,u,0.0,True,767.8999999985099,47.0,60.0,40.0,298.4080514746478,[],"[1720, 720]",ColorTask,27.0,45.0,,,HRV,HRV_0014,2022-11-30 18:01:19
,wl-rdm,53,169562,0.0-6.45-0.45,False,,0.0,52.0,,,,,,,[],,,,,,73.6,1.0,i,1.0,True,743.7999999970198,45.0,60.0,40.0,366.06883330360233,[],"[1720, 720]",ColorTask,28.0,46.0,,,HRV,HRV_0014,2022-11-30 18:01:19
,wl-rdm,54,171962,0.0-6.46-0.46,False,,0.0,53.0,,,,,,,[],,,,,,56.4,0.0,i,1.0,False,1028.3999999985099,62.0,60.0,40.0,289.2234302370463,[],"[1720, 720]",ColorTask,27.0,47.0,,,HRV,HRV_0014,2022-11-30 18:01:19
,wl-rdm,55,174329,0.0-6.47-0.47,False,,0.0,54.0,,,,,,,[],,,,,,53.2,1.0,i,1.0,True,945.8000000007451,57.0,60.0,40.0,365.44784666040493,[],"[1720, 720]",ColorTask,28.0,48.0,,,HRV,HRV_0014,2022-11-30 18:01:19
,wl-rdm,56,176712,0.0-6.48-0.48,False,,0.0,55.0,,,,,,,[],,,,,,50.0,1.0,i,1.0,True,1103.9999999962747,67.0,60.0,40.0,210.56482721966785,[],"[1720, 720]",ColorTask,29.0,49.0,,,HRV,HRV_0014,2022-11-30 18:01:19
,wl-rdm,57,178929,0.0-6.49-0.49,False,,0.0,56.0,,,,,,,[],,,,,,56.4,1.0,i,1.0,True,831.5999999977648,50.0,60.0,40.0,328.90263187242005,[],"[1720, 720]",ColorTask,30.0,50.0,,,HRV,HRV_0014,2022-11-30 18:01:19
,wl-rdm,58,181078,0.0-6.50-0.50,False,,0.0,57.0,,,,,,,[],,,,,,56.4,0.0,u,0.0,True,775.8999999985099,47.0,60.0,40.0,299.788761566516,[],"[1720, 720]",ColorTask,31.0,51.0,,,HRV,HRV_0014,2022-11-30 18:01:19
,wl-rdm,59,183062,0.0-6.51-0.51,False,,0.0,58.0,,,,,,,[],,,,,,87.9,1.0,i,1.0,True,605.1999999992549,37.0,60.0,40.0,288.17347105163964,[],"[1720, 720]",ColorTask,32.0,52.0,,,HRV,HRV_0014,2022-11-30 18:01:19
,wl-rdm,60,185279,0.0-6.52-0.52,False,,0.0,59.0,,,,,,,[],,,,,,53.2,1.0,i,1.0,True,820.6000000014901,50.0,60.0,40.0,326.715902107181,[],"[1720, 720]",ColorTask,33.0,53.0,,,HRV,HRV_0014,2022-11-30 18:01:19
,wl-rdm,61,187361,0.0-6.53-0.53,False,,0.0,60.0,,,,,,,[],,,,,,73.6,0.0,u,0.0,True,802.0,49.0,60.0,40.0,211.1240514342364,[],"[1720, 720]",ColorTask,34.0,54.0,,,HRV,HRV_0014,2022-11-30 18:01:19
,wl-rdm,62,189362,0.0-6.54-0.54,False,,0.0,61.0,,,,,,,[],,,,,,56.4,0.0,i,1.0,False,679.2000000029802,41.0,60.0,40.0,241.57900778914868,[],"[1720, 720]",ColorTask,33.0,55.0,,,HRV,HRV_0014,2022-11-30 18:01:19
,wl-rdm,63,191662,0.0-6.55-0.55,False,,0.0,62.0,,,,,,,[],,,,,,62.5,1.0,i,1.0,True,874.5,53.0,60.0,40.0,344.6521101448895,[],"[1720, 720]",ColorTask,34.0,56.0,,,HRV,HRV_0014,2022-11-30 18:01:19
,wl-rdm,64,193711,0.0-6.56-0.56,False,,0.0,63.0,,,,,,,[],,,,,,50.0,1.0,i,1.0,True,691.5,42.0,60.0,40.0,281.6488421269944,[],"[1720, 720]",ColorTask,35.0,57.0,,,HRV,HRV_0014,2022-11-30 18:01:19
,wl-rdm,65,195778,0.0-6.57-0.57,False,,0.0,64.0,,,,,,,[],,,,,,73.6,1.0,i,1.0,True,731.9000000022352,44.0,60.0,40.0,278.91861815940894,[],"[1720, 720]",ColorTask,36.0,58.0,,,HRV,HRV_0014,2022-11-30 18:01:19
,wl-rdm,66,197894,0.0-6.58-0.58,False,,0.0,65.0,,,,,,,[],,,,,,56.4,0.0,u,0.0,True,827.6999999992549,50.0,60.0,40.0,220.2696176907563,[],"[1720, 720]",ColorTask,37.0,59.0,,,HRV,HRV_0014,2022-11-30 18:01:19
,wl-rdm,67,200061,0.0-6.59-0.59,False,,0.0,66.0,,,,,,,[],,,,,,56.4,1.0,i,1.0,True,731.5,44.0,60.0,40.0,354.1264139268658,[],"[1720, 720]",ColorTask,38.0,60.0,,,HRV,HRV_0014,2022-11-30 18:01:19
,wl-rdm,68,202261,0.0-6.60-0.60,False,,0.0,67.0,,,,,,,[],,,,,,56.4,1.0,i,1.0,True,914.8000000007451,55.0,60.0,40.0,227.51437324733666,[],"[1720, 720]",ColorTask,39.0,61.0,,,HRV,HRV_0014,2022-11-30 18:01:19
,wl-rdm,69,204328,0.0-6.61-0.61,False,,0.0,68.0,,,,,,,[],,,,,,87.9,1.0,i,1.0,True,630.2999999970198,38.0,60.0,40.0,369.4153726340258,[],"[1720, 720]",ColorTask,40.0,62.0,,,HRV,HRV_0014,2022-11-30 18:01:19
,wl-rdm,70,206661,0.0-6.62-0.62,False,,0.0,69.0,,,,,,,[],,,,,,50.0,1.0,u,0.0,False,957.8999999985099,58.0,60.0,40.0,288.166370438699,[],"[1720, 720]",ColorTask,39.0,63.0,,,HRV,HRV_0014,2022-11-30 18:01:19
,wl-rdm,71,208578,0.0-6.63-0.63,False,,0.0,70.0,,,,,,,[],,,,,,87.9,0.0,u,0.0,True,572.8000000007451,35.0,60.0,40.0,275.6415787174394,[],"[1720, 720]",ColorTask,40.0,64.0,,,HRV,HRV_0014,2022-11-30 18:01:19
,wl-rdm,72,210778,0.0-6.64-0.64,False,,0.0,71.0,,,,,,,[],,,,,,73.6,1.0,i,1.0,True,717.8000000007451,44.0,60.0,40.0,389.86315003927905,[],"[1720, 720]",ColorTask,41.0,65.0,,,HRV,HRV_0014,2022-11-30 18:01:19
,wl-rdm,73,212811,0.0-6.65-0.65,False,,0.0,72.0,,,,,,,[],,,,,,62.5,1.0,i,1.0,True,701.2999999970198,43.0,60.0,40.0,237.85837631694562,[],"[1720, 720]",ColorTask,42.0,66.0,,,HRV,HRV_0014,2022-11-30 18:01:19
,wl-rdm,74,215144,0.0-6.66-0.66,False,,0.0,73.0,,,,,,,[],,,,,,62.5,0.0,u,0.0,True,1026.199999999255,62.0,60.0,40.0,236.5873439669361,[],"[1720, 720]",ColorTask,43.0,67.0,,,HRV,HRV_0014,2022-11-30 18:01:19
,wl-rdm,75,217044,0.0-6.67-0.67,False,,0.0,74.0,,,,,,,[],,,,,,87.9,1.0,i,1.0,True,584.6000000014901,36.0,60.0,40.0,241.99349012349685,[],"[1720, 720]",ColorTask,44.0,68.0,,,HRV,HRV_0014,2022-11-30 18:01:19
,wl-rdm,76,219194,0.0-6.68-0.68,False,,0.0,75.0,,,,,,,[],,,,,,53.2,0.0,u,0.0,True,813.0000000037253,49.0,60.0,40.0,261.2648957448654,[],"[1720, 720]",ColorTask,45.0,69.0,,,HRV,HRV_0014,2022-11-30 18:01:19
,wl-rdm,77,222027,0.0-6.69-0.69,False,,0.0,76.0,,,,,,,[],,,,,,56.4,0.0,u,0.0,True,1394.199999999255,84.0,60.0,40.0,358.5779435371634,[],"[1720, 720]",ColorTask,46.0,70.0,,,HRV,HRV_0014,2022-11-30 18:01:19
,wl-rdm,78,224111,0.0-6.70-0.70,False,,0.0,77.0,,,,,,,[],,,,,,73.6,0.0,u,0.0,True,741.8000000044703,45.0,60.0,40.0,250.45867248189518,[],"[1720, 720]",ColorTask,47.0,71.0,,,HRV,HRV_0014,2022-11-30 18:01:19
,wl-rdm,79,226160,0.0-6.71-0.71,False,,0.0,78.0,,,,,,,[],,,,,,62.5,0.0,u,0.0,True,706.4000000022352,43.0,60.0,40.0,282.8154208138627,[],"[1720, 720]",ColorTask,48.0,72.0,,,HRV,HRV_0014,2022-11-30 18:01:19
,wl-rdm,80,228093,0.0-6.72-0.72,False,,0.0,79.0,,,,,,,[],,,,,,50.0,1.0,i,1.0,True,661.1999999992549,40.0,60.0,40.0,204.6048132845523,[],"[1720, 720]",ColorTask,49.0,73.0,,,HRV,HRV_0014,2022-11-30 18:01:19
,wl-rdm,81,230011,0.0-6.73-0.73,False,,0.0,80.0,,,,,,,[],,,,,,87.9,0.0,u,0.0,True,552.4000000022352,34.0,60.0,40.0,266.9709149298634,[],"[1720, 720]",ColorTask,50.0,74.0,,,HRV,HRV_0014,2022-11-30 18:01:19
,wl-rdm,82,232577,0.0-6.74-0.74,False,,0.0,81.0,,,,,,,[],,,,,,53.2,1.0,u,0.0,False,1161.6000000014901,70.0,60.0,40.0,321.5396969437466,[],"[1720, 720]",ColorTask,49.0,75.0,,,HRV,HRV_0014,2022-11-30 18:01:19
,wl-rdm,83,234943,0.0-6.75-0.75,False,,0.0,82.0,,,,,,,[],,,,,,73.6,1.0,i,1.0,True,994.5999999977648,60.0,60.0,40.0,311.9864378612258,[],"[1720, 720]",ColorTask,50.0,76.0,,,HRV,HRV_0014,2022-11-30 18:01:19
,wl-rdm,84,237026,0.0-6.76-0.76,False,,0.0,83.0,,,,,,,[],,,,,,87.9,1.0,i,1.0,True,769.8000000007451,47.0,60.0,40.0,243.43847314036955,[],"[1720, 720]",ColorTask,51.0,77.0,,,HRV,HRV_0014,2022-11-30 18:01:19
,wl-rdm,85,239527,0.0-6.77-0.77,False,,0.0,84.0,,,,,,,[],,,,,,53.2,1.0,i,1.0,True,1090.199999999255,66.0,60.0,40.0,316.52425372115874,[],"[1720, 720]",ColorTask,52.0,78.0,,,HRV,HRV_0014,2022-11-30 18:01:19
,wl-rdm,86,241809,0.0-6.78-0.78,False,,0.0,85.0,,,,,,,[],,,,,,62.5,0.0,u,0.0,True,870.3000000007451,53.0,60.0,40.0,340.4141993832866,[],"[1720, 720]",ColorTask,53.0,79.0,,,HRV,HRV_0014,2022-11-30 18:01:19
,wl-rdm,87,244010,0.0-6.79-0.79,False,,0.0,86.0,,,,,,,[],,,,,,53.2,1.0,u,0.0,False,880.3000000007451,53.0,60.0,40.0,236.60543713017591,[],"[1720, 720]",ColorTask,52.0,80.0,,,HRV,HRV_0014,2022-11-30 18:01:19
,wl-rdm,88,246542,0.0-6.80-0.80,False,,0.0,87.0,,,,,,,[],,,,,,53.2,0.0,u,0.0,True,1090.5,66.0,60.0,40.0,381.4471920645499,[],"[1720, 720]",ColorTask,53.0,81.0,,,HRV,HRV_0014,2022-11-30 18:01:19
,wl-rdm,89,249010,0.0-6.81-0.81,False,,0.0,88.0,,,,,,,[],,,,,,53.2,0.0,i,1.0,False,1180.2000000029802,71.0,60.0,40.0,231.52918885662027,[],"[1720, 720]",ColorTask,52.0,82.0,,,HRV,HRV_0014,2022-11-30 18:01:19
,wl-rdm,90,251193,0.0-6.82-0.82,False,,0.0,89.0,,,,,,,[],,,,,,87.9,0.0,u,0.0,True,831.0999999977648,50.0,60.0,40.0,294.11177122177367,[],"[1720, 720]",ColorTask,53.0,83.0,,,HRV,HRV_0014,2022-11-30 18:01:19
,wl-rdm,91,253776,0.0-6.83-0.83,False,,0.0,90.0,,,,,,,[],,,,,,62.5,0.0,u,0.0,True,1215.5999999977648,73.0,60.0,40.0,313.61530251109775,[],"[1720, 720]",ColorTask,54.0,84.0,,,HRV,HRV_0014,2022-11-30 18:01:19
,wl-rdm,92,256142,0.0-6.84-0.84,False,,0.0,91.0,,,,,,,[],,,,,,50.0,0.0,u,0.0,True,999.8000000007451,60.0,60.0,40.0,313.36036151650956,[],"[1720, 720]",ColorTask,55.0,85.0,,,HRV,HRV_0014,2022-11-30 18:01:19
,wl-rdm,93,258243,0.0-6.85-0.85,False,,0.0,92.0,,,,,,,[],,,,,,73.6,1.0,i,1.0,True,681.7000000029802,41.0,60.0,40.0,354.15348896588534,[],"[1720, 720]",ColorTask,56.0,86.0,,,HRV,HRV_0014,2022-11-30 18:01:19
,wl-rdm,94,260809,0.0-6.86-0.86,False,,0.0,93.0,,,,,,,[],,,,,,56.4,0.0,u,0.0,True,1125.5999999977648,68.0,60.0,40.0,362.1996804591847,[],"[1720, 720]",ColorTask,57.0,87.0,,,HRV,HRV_0014,2022-11-30 18:01:19
,wl-rdm,95,263493,0.0-6.87-0.87,False,,0.0,94.0,,,,,,,[],,,,,,53.2,1.0,i,1.0,True,1338.5999999977648,81.0,60.0,40.0,265.5675943976595,[],"[1720, 720]",ColorTask,58.0,88.0,,,HRV,HRV_0014,2022-11-30 18:01:19
,wl-rdm,96,266109,0.0-6.88-0.88,False,,0.0,95.0,,,,,,,[],,,,,,62.5,1.0,u,0.0,False,1254.4999999962747,76.0,60.0,40.0,279.453425157636,[],"[1720, 720]",ColorTask,57.0,89.0,,,HRV,HRV_0014,2022-11-30 18:01:19
,wl-rdm,97,268059,0.0-6.89-0.89,False,,0.0,96.0,,,,,,,[],,,,,,87.9,1.0,i,1.0,True,582.1999999955297,35.0,60.0,40.0,305.2672034482974,[],"[1720, 720]",ColorTask,58.0,90.0,,,HRV,HRV_0014,2022-11-30 18:01:19
,wl-rdm,98,270076,0.0-6.90-0.90,False,,0.0,97.0,,,,,,,[],,,,,,87.9,0.0,u,0.0,True,602.1000000014901,37.0,60.0,40.0,348.19059727643145,[],"[1720, 720]",ColorTask,59.0,91.0,,,HRV,HRV_0014,2022-11-30 18:01:19
,wl-rdm,99,272926,0.0-6.91-0.91,False,,0.0,98.0,,,,,,,[],,,,,,73.6,1.0,i,1.0,True,1447.699999999255,87.0,60.0,40.0,326.52257373365353,[],"[1720, 720]",ColorTask,60.0,92.0,,,HRV,HRV_0014,2022-11-30 18:01:19
,wl-rdm,100,274859,0.0-6.92-0.92,False,,0.0,99.0,,,,,,,[],,,,,,87.9,1.0,i,1.0,True,658.8999999985099,40.0,60.0,40.0,202.77049594371826,[],"[1720, 720]",ColorTask,61.0,93.0,,,HRV,HRV_0014,2022-11-30 18:01:19
,wl-rdm,101,276759,0.0-6.93-0.93,False,,0.0,100.0,,,,,,,[],,,,,,87.9,0.0,u,0.0,True,557.6000000014901,34.0,60.0,40.0,270.8242554727894,[],"[1720, 720]",ColorTask,62.0,94.0,,,HRV,HRV_0014,2022-11-30 18:01:19
,wl-rdm,102,278826,0.0-6.94-0.94,False,,0.0,101.0,,,,,,,[],,,,,,73.6,0.0,u,0.0,True,695.6999999992549,42.0,60.0,40.0,312.1759524318083,[],"[1720, 720]",ColorTask,63.0,95.0,,,HRV,HRV_0014,2022-11-30 18:01:19
,wl-rdm,103,281159,0.0-6.95-0.95,False,,0.0,102.0,,,,,,,[],,,,,,53.2,0.0,u,0.0,True,892.5,54.0,60.0,40.0,374.67962828516227,[],"[1720, 720]",ColorTask,64.0,96.0,,,HRV,HRV_0014,2022-11-30 18:01:19
,wl-rdm,104,283608,0.0-6.96-0.96,False,,0.0,103.0,,,,,,,[],,,,,,56.4,1.0,u,0.0,False,1102.0,67.0,60.0,40.0,265.229940543299,[],"[1720, 720]",ColorTask,63.0,97.0,,,HRV,HRV_0014,2022-11-30 18:01:19
,wl-rdm,105,285758,0.0-6.97-0.97,False,,0.0,104.0,,,,,,,[],,,,,,87.9,1.0,i,1.0,True,777.9000000022352,47.0,60.0,40.0,308.9389151164586,[],"[1720, 720]",ColorTask,64.0,98.0,,,HRV,HRV_0014,2022-11-30 18:01:19
,wl-rdm,106,288341,0.0-6.98-0.98,False,,0.0,105.0,,,,,,,[],,,,,,53.2,0.0,u,0.0,True,1187.800000000745,72.0,60.0,40.0,324.92330835931034,[],"[1720, 720]",ColorTask,65.0,99.0,,,HRV,HRV_0014,2022-11-30 18:01:19
,wl-rdm,107,290241,0.0-6.99-0.99,False,,0.0,106.0,,,,,,,[],,,,,,73.6,0.0,u,0.0,True,521.8000000007451,32.0,60.0,40.0,296.02162603557224,[],"[1720, 720]",ColorTask,66.0,100.0,,,HRV,HRV_0014,2022-11-30 18:01:19
,wl-rdm,108,292908,0.0-6.100-0.100,False,,0.0,107.0,,,,,,,[],,,,,,50.0,1.0,i,1.0,True,1206.5,73.0,60.0,40.0,393.9649685408378,[],"[1720, 720]",ColorTask,67.0,101.0,,,HRV,HRV_0014,2022-11-30 18:01:19
,wl-rdm,109,294841,0.0-6.101-0.101,False,,0.0,108.0,,,,,,,[],,,,,,87.9,1.0,i,1.0,True,562.0,34.0,60.0,40.0,296.43076863500823,[],"[1720, 720]",ColorTask,68.0,102.0,,,HRV,HRV_0014,2022-11-30 18:01:19
,wl-rdm,110,297224,0.0-6.102-0.102,False,,0.0,109.0,,,,,,,[],,,,,,87.9,0.0,u,0.0,True,980.5,59.0,60.0,40.0,324.87374578183915,[],"[1720, 720]",ColorTask,69.0,103.0,,,HRV,HRV_0014,2022-11-30 18:01:19
,wl-rdm,111,300257,0.0-6.103-0.103,False,,0.0,110.0,,,,,,,[],,,,,,50.0,0.0,i,1.0,False,1604.2999999970198,97.0,60.0,40.0,351.0545310900152,[],"[1720, 720]",ColorTask,68.0,104.0,,,HRV,HRV_0014,2022-11-30 18:01:19
,wl-rdm,112,302408,0.0-6.104-0.104,False,,0.0,111.0,,,,,,,[],,,,,,62.5,0.0,u,0.0,True,838.1999999992549,51.0,60.0,40.0,226.86114205523367,[],"[1720, 720]",ColorTask,69.0,105.0,,,HRV,HRV_0014,2022-11-30 18:01:19
,wl-rdm,113,304474,0.0-6.105-0.105,False,,0.0,112.0,,,,,,,[],,,,,,87.9,0.0,u,0.0,True,595.3999999985099,36.0,60.0,40.0,393.3856553367801,[],"[1720, 720]",ColorTask,70.0,106.0,,,HRV,HRV_0014,2022-11-30 18:01:19
,wl-rdm,114,306324,0.0-6.106-0.106,False,,0.0,113.0,,,,,,,[],,,,,,50.0,0.0,u,0.0,True,578.5,35.0,60.0,40.0,205.5862076034277,[],"[1720, 720]",ColorTask,71.0,107.0,,,HRV,HRV_0014,2022-11-30 18:01:19
,wl-rdm,115,308790,0.0-6.107-0.107,False,,0.0,114.0,,,,,,,[],,,,,,62.5,0.0,u,0.0,True,1025.7999999970198,62.0,60.0,40.0,367.7516355605647,[],"[1720, 720]",ColorTask,72.0,108.0,,,HRV,HRV_0014,2022-11-30 18:01:19
,wl-rdm,116,310957,0.0-6.108-0.108,False,,0.0,115.0,,,,,,,[],,,,,,56.4,1.0,i,1.0,True,737.8000000007451,45.0,60.0,40.0,357.3619347273352,[],"[1720, 720]",ColorTask,73.0,109.0,,,HRV,HRV_0014,2022-11-30 18:01:19
,wl-html-keyboard-response,117,318428,0.0-7.0-0.0,True,undefinedblurEvent ,1.0,115.0,,,,,,,,5463.199999999255,1.0,0,,,,,,,,,,,,,,,,,,,,HRV,HRV_0014,2022-11-30 18:01:19
,wl-rdm,118,320957,0.0-8.0-0.0,False,,1.0,116.0,,,,,,,[],,,,,,50.0,0.0,i,1.0,False,1105.0,67.0,60.0,40.0,365.003390200782,[],"[1720, 720]",ColorTask,72.0,1.0,,,HRV,HRV_0014,2022-11-30 18:01:19
,wl-rdm,119,323323,0.0-8.1-0.1,False,,1.0,117.0,,,,,,,[],,,,,,53.2,1.0,i,1.0,True,923.2999999970198,56.0,60.0,40.0,376.81985792815124,[],"[1720, 720]",ColorTask,73.0,2.0,,,HRV,HRV_0014,2022-11-30 18:01:19
,wl-rdm,120,325423,0.0-8.2-0.2,False,,1.0,118.0,,,,,,,[],,,,,,62.5,0.0,u,0.0,True,787.3000000007451,48.0,60.0,40.0,221.31939147706623,[],"[1720, 720]",ColorTask,74.0,3.0,,,HRV,HRV_0014,2022-11-30 18:01:19
,wl-rdm,121,327957,0.0-8.3-0.3,False,,1.0,119.0,,,,,,,[],,,,,,50.0,1.0,u,0.0,False,1172.0999999977648,71.0,60.0,40.0,284.38459677068454,[],"[1720, 720]",ColorTask,73.0,4.0,,,HRV,HRV_0014,2022-11-30 18:01:19
,wl-rdm,122,330040,0.0-8.4-0.4,False,,1.0,120.0,,,,,,,[],,,,,,53.2,0.0,u,0.0,True,779.8000000007451,47.0,60.0,40.0,216.77344312336734,[],"[1720, 720]",ColorTask,74.0,5.0,,,HRV,HRV_0014,2022-11-30 18:01:19
,wl-rdm,123,332257,0.0-8.5-0.5,False,,1.0,121.0,,,,,,,[],,,,,,87.9,0.0,u,0.0,True,863.1000000014901,52.0,60.0,40.0,296.39994174708795,[],"[1720, 720]",ColorTask,75.0,6.0,,,HRV,HRV_0014,2022-11-30 18:01:19
,wl-rdm,124,334673,0.0-8.6-0.6,False,,1.0,122.0,,,,,,,[],,,,,,50.0,1.0,u,0.0,False,1031.199999999255,62.0,60.0,40.0,315.5807715219989,[],"[1720, 720]",ColorTask,74.0,7.0,,,HRV,HRV_0014,2022-11-30 18:01:19
,wl-rdm,125,336956,0.0-8.7-0.7,False,,1.0,123.0,,,,,,,[],,,,,,62.5,1.0,i,1.0,True,942.0999999977648,57.0,60.0,40.0,274.29075947850447,[],"[1720, 720]",ColorTask,75.0,8.0,,,HRV,HRV_0014,2022-11-30 18:01:19
,wl-rdm,126,339140,0.0-8.8-0.8,False,,1.0,124.0,,,,,,,[],,,,,,56.4,0.0,u,0.0,True,869.6000000014901,53.0,60.0,40.0,236.09846834707778,[],"[1720, 720]",ColorTask,76.0,9.0,,,HRV,HRV_0014,2022-11-30 18:01:19
,wl-rdm,127,341273,0.0-8.9-0.9,False,,1.0,125.0,,,,,,,[],,,,,,62.5,0.0,u,0.0,True,752.0,46.0,60.0,40.0,313.53423950066986,[],"[1720, 720]",ColorTask,77.0,10.0,,,HRV,HRV_0014,2022-11-30 18:01:19
,wl-rdm,128,343373,0.0-8.10-0.10,False,,1.0,126.0,,,,,,,[],,,,,,73.6,1.0,i,1.0,True,646.1999999992549,39.0,60.0,40.0,396.7684128094366,[],"[1720, 720]",ColorTask,78.0,11.0,,,HRV,HRV_0014,2022-11-30 18:01:19
,wl-rdm,129,345390,0.0-8.11-0.11,False,,1.0,127.0,,,,,,,[],,,,,,73.6,0.0,u,0.0,True,693.1000000014901,42.0,60.0,40.0,262.208306885286,[],"[1720, 720]",ColorTask,79.0,12.0,,,HRV,HRV_0014,2022-11-30 18:01:19
,wl-rdm,130,347807,0.0-8.12-0.12,False,,1.0,128.0,,,,,,,[],,,,,,62.5,0.0,u,0.0,True,1098.8999999985099,66.0,60.0,40.0,243.57565751953257,[],"[1720, 720]",ColorTask,80.0,13.0,,,HRV,HRV_0014,2022-11-30 18:01:19
,wl-rdm,131,349891,0.0-8.13-0.13,False,,1.0,129.0,,,,,,,[],,,,,,73.6,1.0,i,1.0,True,786.0999999977648,48.0,60.0,40.0,219.66459977345377,[],"[1720, 720]",ColorTask,81.0,14.0,,,HRV,HRV_0014,2022-11-30 18:01:19
,wl-rdm,132,352074,0.0-8.14-0.14,False,,1.0,130.0,,,,,,,[],,,,,,73.6,0.0,i,1.0,False,857.3999999985099,52.0,60.0,40.0,233.83910535711865,[],"[1720, 720]",ColorTask,80.0,15.0,,,HRV,HRV_0014,2022-11-30 18:01:19
,wl-rdm,133,354056,0.0-8.15-0.15,False,,1.0,131.0,,,,,,,[],,,,,,87.9,1.0,i,1.0,True,675.1000000014901,41.0,60.0,40.0,224.6792962245861,[],"[1720, 720]",ColorTask,81.0,16.0,,,HRV,HRV_0014,2022-11-30 18:01:19
,wl-rdm,134,356457,0.0-8.16-0.16,False,,1.0,132.0,,,,,,,[],,,,,,56.4,0.0,u,0.0,True,942.7999999970198,57.0,60.0,40.0,389.2629091979554,[],"[1720, 720]",ColorTask,82.0,17.0,,,HRV,HRV_0014,2022-11-30 18:01:19
,wl-rdm,135,358306,0.0-8.17-0.17,False,,1.0,133.0,,,,,,,[],,,,,,56.4,0.0,u,0.0,True,575.1999999992549,35.0,60.0,40.0,207.81935232404825,[],"[1720, 720]",ColorTask,83.0,18.0,,,HRV,HRV_0014,2022-11-30 18:01:19
,wl-rdm,136,360706,0.0-8.18-0.18,False,,1.0,134.0,,,,,,,[],,,,,,56.4,0.0,u,0.0,True,1092.5999999977648,66.0,60.0,40.0,238.71140155996284,[],"[1720, 720]",ColorTask,84.0,19.0,,,HRV,HRV_0014,2022-11-30 18:01:19
,wl-rdm,137,362773,0.0-8.19-0.19,False,,1.0,135.0,,,,,,,[],,,,,,87.9,0.0,u,0.0,True,759.1999999992549,46.0,60.0,40.0,226.08220895189797,[],"[1720, 720]",ColorTask,85.0,20.0,,,HRV,HRV_0014,2022-11-30 18:01:19
,wl-rdm,138,364856,0.0-8.20-0.20,False,,1.0,136.0,,,,,,,[],,,,,,73.6,0.0,u,0.0,True,715.1000000014901,43.0,60.0,40.0,305.9651584321373,[],"[1720, 720]",ColorTask,86.0,21.0,,,HRV,HRV_0014,2022-11-30 18:01:19
,wl-rdm,139,367773,0.0-8.21-0.21,False,,1.0,137.0,,,,,,,[],,,,,,56.4,1.0,i,1.0,True,1521.0,92.0,60.0,40.0,306.8052756291284,[],"[1720, 720]",ColorTask,87.0,22.0,,,HRV,HRV_0014,2022-11-30 18:01:19
,wl-rdm,140,370123,0.0-8.22-0.22,False,,1.0,138.0,,,,,,,[],,,,,,73.6,1.0,i,1.0,True,1028.699999999255,62.0,60.0,40.0,242.75508343046985,[],"[1720, 720]",ColorTask,88.0,23.0,,,HRV,HRV_0014,2022-11-30 18:01:19
,wl-rdm,141,372122,0.0-8.23-0.23,False,,1.0,139.0,,,,,,,[],,,,,,87.9,1.0,i,1.0,True,613.2000000029802,37.0,60.0,40.0,322.5824350406407,[],"[1720, 720]",ColorTask,89.0,24.0,,,HRV,HRV_0014,2022-11-30 18:01:19
,wl-rdm,142,374439,0.0-8.24-0.24,False,,1.0,140.0,,,,,,,[],,,,,,73.6,1.0,i,1.0,True,953.6999999992549,58.0,60.0,40.0,286.1255093963705,[],"[1720, 720]",ColorTask,90.0,25.0,,,HRV,HRV_0014,2022-11-30 18:01:19
,wl-rdm,143,376556,0.0-8.25-0.25,False,,1.0,141.0,,,,,,,[],,,,,,87.9,1.0,i,1.0,True,822.3000000007451,50.0,60.0,40.0,228.99952049941643,[],"[1720, 720]",ColorTask,91.0,26.0,,,HRV,HRV_0014,2022-11-30 18:01:19
,wl-rdm,144,379022,0.0-8.26-0.26,False,,1.0,142.0,,,,,,,[],,,,,,62.5,1.0,i,1.0,True,1098.0,66.0,60.0,40.0,287.7975316736428,[],"[1720, 720]",ColorTask,92.0,27.0,,,HRV,HRV_0014,2022-11-30 18:01:19
,wl-rdm,145,381306,0.0-8.27-0.27,False,,1.0,143.0,,,,,,,[],,,,,,50.0,1.0,i,1.0,True,835.8000000007451,51.0,60.0,40.0,373.6936767561406,[],"[1720, 720]",ColorTask,93.0,28.0,,,HRV,HRV_0014,2022-11-30 18:01:19
,wl-rdm,146,383622,0.0-8.28-0.28,False,,1.0,144.0,,,,,,,[],,,,,,50.0,0.0,i,1.0,False,996.6999999992549,60.0,60.0,40.0,258.1434250981079,[],"[1720, 720]",ColorTask,92.0,29.0,,,HRV,HRV_0014,2022-11-30 18:01:19
,wl-rdm,147,385689,0.0-8.29-0.29,False,,1.0,145.0,,,,,,,[],,,,,,62.5,0.0,u,0.0,True,706.0,43.0,60.0,40.0,287.6427166346218,[],"[1720, 720]",ColorTask,93.0,30.0,,,HRV,HRV_0014,2022-11-30 18:01:19
,wl-rdm,148,387855,0.0-8.30-0.30,False,,1.0,146.0,,,,,,,[],,,,,,50.0,0.0,u,0.0,True,749.3000000007451,45.0,60.0,40.0,337.4171192577039,[],"[1720, 720]",ColorTask,94.0,31.0,,,HRV,HRV_0014,2022-11-30 18:01:19
,wl-rdm,149,390322,0.0-8.31-0.31,False,,1.0,147.0,,,,,,,[],,,,,,53.2,1.0,i,1.0,True,1056.199999999255,64.0,60.0,40.0,321.6500776465205,[],"[1720, 720]",ColorTask,95.0,32.0,,,HRV,HRV_0014,2022-11-30 18:01:19
,wl-rdm,150,392372,0.0-8.32-0.32,False,,1.0,148.0,,,,,,,[],,,,,,62.5,1.0,i,1.0,True,737.6000000014901,45.0,60.0,40.0,237.96048602473695,[],"[1720, 720]",ColorTask,96.0,33.0,,,HRV,HRV_0014,2022-11-30 18:01:19
,wl-rdm,151,394888,0.0-8.33-0.33,False,,1.0,149.0,,,,,,,[],,,,,,53.2,0.0,u,0.0,True,1116.1000000014901,67.0,60.0,40.0,332.568705740365,[],"[1720, 720]",ColorTask,97.0,34.0,,,HRV,HRV_0014,2022-11-30 18:01:19
,wl-rdm,152,396805,0.0-8.34-0.34,False,,1.0,150.0,,,,,,,[],,,,,,87.9,0.0,u,0.0,True,638.1999999992549,39.0,60.0,40.0,213.75166338831337,[],"[1720, 720]",ColorTask,98.0,35.0,,,HRV,HRV_0014,2022-11-30 18:01:19
,wl-rdm,153,398705,0.0-8.35-0.35,False,,1.0,151.0,,,,,,,[],,,,,,73.6,1.0,i,1.0,True,619.8999999985099,38.0,60.0,40.0,215.00693393806677,[],"[1720, 720]",ColorTask,99.0,36.0,,,HRV,HRV_0014,2022-11-30 18:01:19
,wl-rdm,154,401738,0.0-8.36-0.36,False,,1.0,152.0,,,,,,,[],,,,,,50.0,0.0,i,1.0,False,1569.0000000037253,95.0,60.0,40.0,384.38980728834554,[],"[1720, 720]",ColorTask,98.0,37.0,,,HRV,HRV_0014,2022-11-30 18:01:19
,wl-rdm,155,403855,0.0-8.37-0.37,False,,1.0,153.0,,,,,,,[],,,,,,50.0,0.0,i,1.0,False,762.5,46.0,60.0,40.0,287.6855712641212,[],"[1720, 720]",ColorTask,97.0,38.0,,,HRV,HRV_0014,2022-11-30 18:01:19
,wl-rdm,156,406388,0.0-8.38-0.38,False,,1.0,154.0,,,,,,,[],,,,,,50.0,0.0,i,1.0,False,1241.199999999255,75.0,60.0,40.0,209.13486078412922,[],"[1720, 720]",ColorTask,96.0,39.0,,,HRV,HRV_0014,2022-11-30 18:01:19
,wl-rdm,157,408605,0.0-8.39-0.39,False,,1.0,155.0,,,,,,,[],,,,,,73.6,1.0,i,1.0,True,907.9000000022352,55.0,60.0,40.0,236.66528101144553,[],"[1720, 720]",ColorTask,97.0,40.0,,,HRV,HRV_0014,2022-11-30 18:01:19
,wl-rdm,158,410671,0.0-8.40-0.40,False,,1.0,156.0,,,,,,,[],,,,,,87.9,0.0,u,0.0,True,684.9000000022352,42.0,60.0,40.0,297.6988483143932,[],"[1720, 720]",ColorTask,98.0,41.0,,,HRV,HRV_0014,2022-11-30 18:01:19
,wl-rdm,159,413171,0.0-8.41-0.41,False,,1.0,157.0,,,,,,,[],,,,,,56.4,0.0,i,1.0,False,1070.9000000022352,65.0,60.0,40.0,353.49556434296005,[],"[1720, 720]",ColorTask,97.0,42.0,,,HRV,HRV_0014,2022-11-30 18:01:19
,wl-rdm,160,415221,0.0-8.42-0.42,False,,1.0,158.0,,,,,,,[],,,,,,73.6,0.0,u,0.0,True,720.1000000014901,44.0,60.0,40.0,245.49278861638257,[],"[1720, 720]",ColorTask,98.0,43.0,,,HRV,HRV_0014,2022-11-30 18:01:19
,wl-rdm,161,417354,0.0-8.43-0.43,False,,1.0,159.0,,,,,,,[],,,,,,56.4,1.0,i,1.0,True,800.0999999977648,49.0,60.0,40.0,232.82857077397225,[],"[1720, 720]",ColorTask,99.0,44.0,,,HRV,HRV_0014,2022-11-30 18:01:19
,wl-rdm,162,419688,0.0-8.44-0.44,False,,1.0,160.0,,,,,,,[],,,,,,53.2,0.0,u,0.0,True,1009.9999999962747,61.0,60.0,40.0,256.59308558518353,[],"[1720, 720]",ColorTask,100.0,45.0,,,HRV,HRV_0014,2022-11-30 18:01:19
,wl-rdm,163,421755,0.0-8.45-0.45,False,,1.0,161.0,,,,,,,[],,,,,,73.6,1.0,i,1.0,True,741.5999999977648,45.0,60.0,40.0,254.82951830832047,[],"[1720, 720]",ColorTask,101.0,46.0,,,HRV,HRV_0014,2022-11-30 18:01:19
,wl-rdm,164,424238,0.0-8.46-0.46,False,,1.0,162.0,,,,,,,[],,,,,,62.5,0.0,u,0.0,True,1165.4000000022352,70.0,60.0,40.0,256.2953949521768,[],"[1720, 720]",ColorTask,102.0,47.0,,,HRV,HRV_0014,2022-11-30 18:01:19
,wl-rdm,165,426287,0.0-8.47-0.47,False,,1.0,163.0,,,,,,,[],,,,,,87.9,0.0,u,0.0,True,689.8999999985099,42.0,60.0,40.0,274.8661606051019,[],"[1720, 720]",ColorTask,103.0,48.0,,,HRV,HRV_0014,2022-11-30 18:01:19
,wl-rdm,166,428371,0.0-8.48-0.48,False,,1.0,164.0,,,,,,,[],,,,,,73.6,1.0,i,1.0,True,754.0,46.0,60.0,40.0,264.00644116215994,[],"[1720, 720]",ColorTask,104.0,49.0,,,HRV,HRV_0014,2022-11-30 18:01:19
,wl-rdm,167,430604,0.0-8.49-0.49,False,,1.0,165.0,,,,,,,[],,,,,,62.5,1.0,i,1.0,True,845.0,51.0,60.0,40.0,323.56685728210743,[],"[1720, 720]",ColorTask,105.0,50.0,,,HRV,HRV_0014,2022-11-30 18:01:19
,wl-rdm,168,432821,0.0-8.50-0.50,False,,1.0,166.0,,,,,,,[],,,,,,73.6,0.0,u,0.0,True,795.6000000014901,48.0,60.0,40.0,363.3230405008132,[],"[1720, 720]",ColorTask,106.0,51.0,,,HRV,HRV_0014,2022-11-30 18:01:19
,wl-rdm,169,435521,0.0-8.51-0.51,False,,1.0,167.0,,,,,,,[],,,,,,50.0,1.0,i,1.0,True,1275.7999999970198,77.0,60.0,40.0,345.354967930698,[],"[1720, 720]",ColorTask,107.0,52.0,,,HRV,HRV_0014,2022-11-30 18:01:19
,wl-rdm,170,437421,0.0-8.52-0.52,False,,1.0,168.0,,,,,,,[],,,,,,53.2,0.0,u,0.0,True,615.1000000014901,37.0,60.0,40.0,201.77630839394814,[],"[1720, 720]",ColorTask,108.0,53.0,,,HRV,HRV_0014,2022-11-30 18:01:19
,wl-rdm,171,440420,0.0-8.53-0.53,False,,1.0,169.0,,,,,,,[],,,,,,56.4,1.0,u,0.0,False,1654.300000000745,100.0,60.0,40.0,261.1150651564268,[],"[1720, 720]",ColorTask,107.0,54.0,,,HRV,HRV_0014,2022-11-30 18:01:19
,wl-rdm,172,442404,0.0-8.54-0.54,False,,1.0,170.0,,,,,,,[],,,,,,56.4,1.0,i,1.0,True,573.3999999985099,35.0,60.0,40.0,345.4108868555066,[],"[1720, 720]",ColorTask,108.0,55.0,,,HRV,HRV_0014,2022-11-30 18:01:19
,wl-rdm,173,444787,0.0-8.55-0.55,False,,1.0,171.0,,,,,,,[],,,,,,62.5,0.0,u,0.0,True,950.6999999992549,58.0,60.0,40.0,336.98374242204187,[],"[1720, 720]",ColorTask,109.0,56.0,,,HRV,HRV_0014,2022-11-30 18:01:19
,wl-rdm,174,448087,0.0-8.56-0.56,False,,1.0,172.0,,,,,,,[],,,,,,53.2,1.0,i,1.0,True,1869.699999999255,113.0,60.0,40.0,353.0412638571716,[],"[1720, 720]",ColorTask,110.0,57.0,,,HRV,HRV_0014,2022-11-30 18:01:19
,wl-rdm,175,450520,0.0-8.57-0.57,False,,1.0,173.0,,,,,,,[],,,,,,53.2,1.0,u,0.0,False,1135.5,69.0,60.0,40.0,215.3927959231336,[],"[1720, 720]",ColorTask,109.0,58.0,,,HRV,HRV_0014,2022-11-30 18:01:19
,wl-rdm,176,452687,0.0-8.58-0.58,False,,1.0,174.0,,,,,,,[],,,,,,73.6,0.0,u,0.0,True,852.6000000014901,52.0,60.0,40.0,245.6820406103136,[],"[1720, 720]",ColorTask,110.0,59.0,,,HRV,HRV_0014,2022-11-30 18:01:19
,wl-rdm,177,455570,0.0-8.59-0.59,False,,1.0,175.0,,,,,,,[],,,,,,50.0,1.0,i,1.0,True,1575.0999999977648,95.0,60.0,40.0,220.0915656739857,[],"[1720, 720]",ColorTask,111.0,60.0,,,HRV,HRV_0014,2022-11-30 18:01:19
,wl-rdm,178,458437,0.0-8.60-0.60,False,,1.0,176.0,,,,,,,[],,,,,,62.5,0.0,u,0.0,True,1428.2000000029802,86.0,60.0,40.0,374.3560188270403,[],"[1720, 720]",ColorTask,112.0,61.0,,,HRV,HRV_0014,2022-11-30 18:01:19
,wl-rdm,179,460470,0.0-8.61-0.61,False,,1.0,177.0,,,,,,,[],,,,,,87.9,1.0,i,1.0,True,594.0,36.0,60.0,40.0,369.3117840391086,[],"[1720, 720]",ColorTask,113.0,62.0,,,HRV,HRV_0014,2022-11-30 18:01:19
,wl-rdm,180,463137,0.0-8.62-0.62,False,,1.0,178.0,,,,,,,[],,,,,,50.0,0.0,i,1.0,False,1282.6000000014901,77.0,60.0,40.0,317.1294527291484,[],"[1720, 720]",ColorTask,112.0,63.0,,,HRV,HRV_0014,2022-11-30 18:01:19
,wl-rdm,181,465253,0.0-8.63-0.63,False,,1.0,179.0,,,,,,,[],,,,,,87.9,1.0,i,1.0,True,697.6000000014901,42.0,60.0,40.0,347.95544375982183,[],"[1720, 720]",ColorTask,113.0,64.0,,,HRV,HRV_0014,2022-11-30 18:01:19
,wl-rdm,182,467603,0.0-8.64-0.64,False,,1.0,180.0,,,,,,,[],,,,,,73.6,1.0,i,1.0,True,951.5999999977648,58.0,60.0,40.0,324.31277558297245,[],"[1720, 720]",ColorTask,114.0,65.0,,,HRV,HRV_0014,2022-11-30 18:01:19
,wl-rdm,183,469703,0.0-8.65-0.65,False,,1.0,181.0,,,,,,,[],,,,,,62.5,1.0,i,1.0,True,746.3000000007451,45.0,60.0,40.0,297.0476059081092,[],"[1720, 720]",ColorTask,115.0,66.0,,,HRV,HRV_0014,2022-11-30 18:01:19
,wl-rdm,184,472586,0.0-8.66-0.66,False,,1.0,182.0,,,,,,,[],,,,,,53.2,0.0,u,0.0,True,1592.5999999977648,96.0,60.0,40.0,221.502362280631,[],"[1720, 720]",ColorTask,116.0,67.0,,,HRV,HRV_0014,2022-11-30 18:01:19
,wl-rdm,185,474653,0.0-8.67-0.67,False,,1.0,183.0,,,,,,,[],,,,,,87.9,0.0,u,0.0,True,633.8999999985099,39.0,60.0,40.0,343.09232294663303,[],"[1720, 720]",ColorTask,117.0,68.0,,,HRV,HRV_0014,2022-11-30 18:01:19
,wl-rdm,186,477820,0.0-8.68-0.68,False,,1.0,184.0,,,,,,,[],,,,,,56.4,0.0,i,1.0,False,1866.699999999255,112.0,60.0,40.0,227.15596497906193,[],"[1720, 720]",ColorTask,116.0,69.0,,,HRV,HRV_0014,2022-11-30 18:01:19
,wl-rdm,187,479903,0.0-8.69-0.69,False,,1.0,185.0,,,,,,,[],,,,,,87.9,0.0,u,0.0,True,756.3000000007451,46.0,60.0,40.0,249.1703110035354,[],"[1720, 720]",ColorTask,117.0,70.0,,,HRV,HRV_0014,2022-11-30 18:01:19
,wl-rdm,188,482203,0.0-8.70-0.70,False,,1.0,186.0,,,,,,,[],,,,,,56.4,1.0,i,1.0,True,985.8000000007451,60.0,60.0,40.0,223.1250204696039,[],"[1720, 720]",ColorTask,118.0,71.0,,,HRV,HRV_0014,2022-11-30 18:01:19
,wl-rdm,189,484970,0.0-8.71-0.71,False,,1.0,187.0,,,,,,,[],,,,,,53.2,0.0,i,1.0,False,1402.800000000745,85.0,60.0,40.0,291.0088891967806,[],"[1720, 720]",ColorTask,117.0,72.0,,,HRV,HRV_0014,2022-11-30 18:01:19
,wl-rdm,190,487020,0.0-8.72-0.72,False,,1.0,188.0,,,,,,,[],,,,,,62.5,1.0,i,1.0,True,744.1999999992549,45.0,60.0,40.0,237.12788815720913,[],"[1720, 720]",ColorTask,118.0,73.0,,,HRV,HRV_0014,2022-11-30 18:01:19
,wl-rdm,191,489086,0.0-8.73-0.73,False,,1.0,189.0,,,,,,,[],,,,,,87.9,0.0,u,0.0,True,786.0,48.0,60.0,40.0,203.20561147934262,[],"[1720, 720]",ColorTask,119.0,74.0,,,HRV,HRV_0014,2022-11-30 18:01:19
,wl-rdm,192,491370,0.0-8.74-0.74,False,,1.0,190.0,,,,,,,[],,,,,,53.2,1.0,i,1.0,True,941.8000000007451,57.0,60.0,40.0,260.03651967989344,[],"[1720, 720]",ColorTask,120.0,75.0,,,HRV,HRV_0014,2022-11-30 18:01:19
,wl-rdm,193,494169,0.0-8.75-0.75,False,,1.0,191.0,,,,,,,[],,,,,,56.4,1.0,u,0.0,False,1422.4000000022352,86.0,60.0,40.0,312.85604077550335,[],"[1720, 720]",ColorTask,119.0,76.0,,,HRV,HRV_0014,2022-11-30 18:01:19
,wl-rdm,194,496602,0.0-8.76-0.76,False,,1.0,192.0,,,,,,,[],,,,,,53.2,1.0,i,1.0,True,1046.1000000014901,63.0,60.0,40.0,314.3505899754798,[],"[1720, 720]",ColorTask,120.0,77.0,,,HRV,HRV_0014,2022-11-30 18:01:19
,wl-rdm,195,498803,0.0-8.77-0.77,False,,1.0,193.0,,,,,,,[],,,,,,53.2,1.0,i,1.0,True,755.3999999985099,46.0,60.0,40.0,377.09261574169835,[],"[1720, 720]",ColorTask,121.0,78.0,,,HRV,HRV_0014,2022-11-30 18:01:19
,wl-rdm,196,501168,0.0-8.78-0.78,False,,1.0,194.0,,,,,,,[],,,,,,62.5,0.0,u,0.0,True,918.3000000007451,56.0,60.0,40.0,376.2638102753882,[],"[1720, 720]",ColorTask,122.0,79.0,,,HRV,HRV_0014,2022-11-30 18:01:19
,wl-rdm,197,503402,0.0-8.79-0.79,False,,1.0,195.0,,,,,,,[],,,,,,62.5,1.0,i,1.0,True,942.5,57.0,60.0,40.0,209.31590153606874,[],"[1720, 720]",ColorTask,123.0,80.0,,,HRV,HRV_0014,2022-11-30 18:01:19
,wl-rdm,198,505719,0.0-8.80-0.80,False,,1.0,196.0,,,,,,,[],,,,,,87.9,0.0,u,0.0,True,1021.8000000044703,62.0,60.0,40.0,200.05570605894042,[],"[1720, 720]",ColorTask,124.0,81.0,,,HRV,HRV_0014,2022-11-30 18:01:19
,wl-rdm,199,508935,0.0-8.81-0.81,False,,1.0,197.0,,,,,,,[],,,,,,53.2,0.0,i,1.0,False,1901.8999999985099,115.0,60.0,40.0,232.3112058762226,[],"[1720, 720]",ColorTask,123.0,82.0,,,HRV,HRV_0014,2022-11-30 18:01:19
,wl-rdm,200,510869,0.0-8.82-0.82,False,,1.0,198.0,,,,,,,[],,,,,,87.9,1.0,i,1.0,True,655.6999999992549,40.0,60.0,40.0,209.69083858125853,[],"[1720, 720]",ColorTask,124.0,83.0,,,HRV,HRV_0014,2022-11-30 18:01:19
,wl-rdm,201,513818,0.0-8.83-0.83,False,,1.0,199.0,,,,,,,[],,,,,,50.0,1.0,i,1.0,True,1651.800000000745,100.0,60.0,40.0,202.27553083599008,[],"[1720, 720]",ColorTask,125.0,84.0,,,HRV,HRV_0014,2022-11-30 18:01:19
,wl-rdm,202,515969,0.0-8.84-0.84,False,,1.0,200.0,,,,,,,[],,,,,,50.0,1.0,i,1.0,True,853.8000000007451,52.0,60.0,40.0,206.0620093271772,[],"[1720, 720]",ColorTask,126.0,85.0,,,HRV,HRV_0014,2022-11-30 18:01:19
,wl-rdm,203,518436,0.0-8.85-0.85,False,,1.0,201.0,,,,,,,[],,,,,,50.0,1.0,i,1.0,True,1083.5000000037253,66.0,60.0,40.0,309.24077314291094,[],"[1720, 720]",ColorTask,127.0,86.0,,,HRV,HRV_0014,2022-11-30 18:01:19
,wl-rdm,204,520635,0.0-8.86-0.86,False,,1.0,202.0,,,,,,,[],,,,,,56.4,0.0,u,0.0,True,824.4999999962747,50.0,60.0,40.0,304.88730914445284,[],"[1720, 720]",ColorTask,128.0,87.0,,,HRV,HRV_0014,2022-11-30 18:01:19
,wl-rdm,205,523352,0.0-8.87-0.87,False,,1.0,203.0,,,,,,,[],,,,,,53.2,1.0,i,1.0,True,1337.800000000745,81.0,60.0,40.0,312.51752565540767,[],"[1720, 720]",ColorTask,129.0,88.0,,,HRV,HRV_0014,2022-11-30 18:01:19
,wl-rdm,206,525901,0.0-8.88-0.88,False,,1.0,204.0,,,,,,,[],,,,,,56.4,1.0,i,1.0,True,1273.5000000037253,77.0,60.0,40.0,205.7225752398962,[],"[1720, 720]",ColorTask,130.0,89.0,,,HRV,HRV_0014,2022-11-30 18:01:19
,wl-rdm,207,528518,0.0-8.89-0.89,False,,1.0,205.0,,,,,,,[],,,,,,73.6,0.0,u,0.0,True,1222.4000000022352,74.0,60.0,40.0,323.7379182308222,[],"[1720, 720]",ColorTask,131.0,90.0,,,HRV,HRV_0014,2022-11-30 18:01:19
,wl-rdm,208,531351,0.0-8.90-0.90,False,,1.0,206.0,,,,,,,[],,,,,,56.4,0.0,u,0.0,True,1428.2000000029802,86.0,60.0,40.0,335.8955696313508,[],"[1720, 720]",ColorTask,132.0,91.0,,,HRV,HRV_0014,2022-11-30 18:01:19
,wl-rdm,209,534551,0.0-8.91-0.91,False,,1.0,207.0,,,,,,,[],,,,,,53.2,0.0,u,0.0,True,1801.3999999985099,109.0,60.0,40.0,329.99544955211275,[],"[1720, 720]",ColorTask,133.0,92.0,,,HRV,HRV_0014,2022-11-30 18:01:19
,wl-rdm,210,536768,0.0-8.92-0.92,False,,1.0,208.0,,,,,,,[],,,,,,50.0,1.0,u,0.0,False,893.8000000007451,54.0,60.0,40.0,233.69995111306372,[],"[1720, 720]",ColorTask,132.0,93.0,,,HRV,HRV_0014,2022-11-30 18:01:19
,wl-rdm,211,541101,0.0-8.93-0.93,True,RT_timeout ,1.0,208.0,,,,,,,[],,,,,,53.2,1.0,,,,,179.0,60.0,40.0,223.92635628559782,[],"[1720, 720]",ColorTask,131.0,94.0,,,HRV,HRV_0014,2022-11-30 18:01:19
,wl-rdm,212,543300,0.0-8.94-0.94,False,,1.0,209.0,,,,,,,[],,,,,,87.9,1.0,i,1.0,True,884.3999999985099,54.0,60.0,40.0,234.29581897427448,[],"[1720, 720]",ColorTask,132.0,95.0,,,HRV,HRV_0014,2022-11-30 18:01:19
,wl-rdm,213,545834,0.0-8.95-0.95,False,,1.0,210.0,,,,,,,[],,,,,,56.4,1.0,u,0.0,False,1086.8999999985099,66.0,60.0,40.0,379.1877678502174,[],"[1720, 720]",ColorTask,131.0,96.0,,,HRV,HRV_0014,2022-11-30 18:01:19
,wl-rdm,214,547783,0.0-8.96-0.96,False,,1.0,211.0,,,,,,,[],,,,,,73.6,0.0,u,0.0,True,634.6000000014901,39.0,60.0,40.0,222.90171340435592,[],"[1720, 720]",ColorTask,132.0,97.0,,,HRV,HRV_0014,2022-11-30 18:01:19
,wl-rdm,215,549750,0.0-8.97-0.97,False,,1.0,212.0,,,,,,,[],,,,,,87.9,1.0,i,1.0,True,645.1000000014901,39.0,60.0,40.0,240.8160446816189,[],"[1720, 720]",ColorTask,133.0,98.0,,,HRV,HRV_0014,2022-11-30 18:01:19
,wl-rdm,216,552234,0.0-8.98-0.98,False,,1.0,213.0,,,,,,,[],,,,,,50.0,0.0,i,1.0,False,1123.5,68.0,60.0,40.0,297.2651864155875,[],"[1720, 720]",ColorTask,132.0,99.0,,,HRV,HRV_0014,2022-11-30 18:01:19
,wl-rdm,217,554667,0.0-8.99-0.99,False,,1.0,214.0,,,,,,,[],,,,,,56.4,0.0,u,0.0,True,1120.5,68.0,60.0,40.0,246.39754676794325,[],"[1720, 720]",ColorTask,133.0,100.0,,,HRV,HRV_0014,2022-11-30 18:01:19
,wl-rdm,218,556883,0.0-8.100-0.100,False,,1.0,215.0,,,,,,,[],,,,,,62.5,0.0,u,0.0,True,931.0999999977648,56.0,60.0,40.0,204.6691321945475,[],"[1720, 720]",ColorTask,134.0,101.0,,,HRV,HRV_0014,2022-11-30 18:01:19
,wl-rdm,219,559083,0.0-8.101-0.101,False,,1.0,216.0,,,,,,,[],,,,,,62.5,1.0,i,1.0,True,851.9000000022352,52.0,60.0,40.0,254.10670118084784,[],"[1720, 720]",ColorTask,135.0,102.0,,,HRV,HRV_0014,2022-11-30 18:01:19
,wl-rdm,220,561033,0.0-8.102-0.102,False,,1.0,217.0,,,,,,,[],,,,,,87.9,1.0,i,1.0,True,587.1000000014901,36.0,60.0,40.0,288.50615520058824,[],"[1720, 720]",ColorTask,136.0,103.0,,,HRV,HRV_0014,2022-11-30 18:01:19
,wl-rdm,221,563566,0.0-8.103-0.103,False,,1.0,218.0,,,,,,,[],,,,,,53.2,0.0,i,1.0,False,1113.4999999962747,67.0,60.0,40.0,352.9910380970647,[],"[1720, 720]",ColorTask,135.0,104.0,,,HRV,HRV_0014,2022-11-30 18:01:19
,wl-rdm,222,565583,0.0-8.104-0.104,False,,1.0,219.0,,,,,,,[],,,,,,62.5,1.0,i,1.0,True,713.2999999970198,43.0,60.0,40.0,246.64289555777674,[],"[1720, 720]",ColorTask,136.0,105.0,,,HRV,HRV_0014,2022-11-30 18:01:19
,wl-rdm,223,568150,0.0-8.105-0.105,False,,1.0,220.0,,,,,,,[],,,,,,50.0,0.0,u,0.0,True,1250.699999999255,75.0,60.0,40.0,247.3747648566229,[],"[1720, 720]",ColorTask,137.0,106.0,,,HRV,HRV_0014,2022-11-30 18:01:19
,wl-rdm,224,570450,0.0-8.106-0.106,False,,1.0,221.0,,,,,,,[],,,,,,56.4,1.0,i,1.0,True,1013.0000000037253,61.0,60.0,40.0,221.80103412856286,[],"[1720, 720]",ColorTask,138.0,107.0,,,HRV,HRV_0014,2022-11-30 18:01:19
,wl-rdm,225,572867,0.0-8.107-0.107,False,,1.0,222.0,,,,,,,[],,,,,,53.2,1.0,i,1.0,True,1063.199999999255,64.0,60.0,40.0,285.3672166918803,[],"[1720, 720]",ColorTask,139.0,108.0,,,HRV,HRV_0014,2022-11-30 18:01:19
,wl-rdm,226,575216,0.0-8.108-0.108,False,,1.0,223.0,,,,,,,[],,,,,,73.6,0.0,u,0.0,True,933.5,56.0,60.0,40.0,334.74368692798635,[],"[1720, 720]",ColorTask,140.0,109.0,,,HRV,HRV_0014,2022-11-30 18:01:19
,wl-html-button-response,227,577572,0.0-9.0-0.0,,,,,,,,,,,,2350.199999999255,,0,,,,,,,,,,,,,,,,,,<h3>End of this session. Thank you!</h3><br>,['Close window'],HRV,HRV_0014,2022-11-30 18:01:19
