trialN,stimuli,question,trialStartTime,trialStartTime_UNIX,stimulus1,rt,receivedResponse,rating,trialEndTime,trialDuration,stimulus1Loaded,exp,subjectId,date
0,"[{'imgObject': {}, 'id': 'steak', 'src': '/static/foodstim60/steak.jpg', 'key': 'NaN', 'origWidth': 410, 'origHeight': 410, 'width': 410, 'height': 410, 'widthPercent': 0.8, 'rescaleHeight': True, 'trialN': 0, 'loaded': True, 'loadedTime': 2159.300000000745, 'positionName': 'CENTER', 'positionCoords': [1515, 515]}]",Rate how much you want to eat this food from 0 (least) to 10 (most).,2255.599999997765,1669829256774,steak,2369.2000000029802,True,8.99,4624.800000000745,2369.2000000029802,True,HRV,HRV_0014,2022-11-30 17:29:05
1,"[{'imgObject': {}, 'id': 'mashed potato', 'src': '/static/foodstim60/mashed potato.jpg', 'key': 'NaN', 'origWidth': 409, 'origHeight': 409, 'width': 409, 'height': 409, 'widthPercent': 0.8, 'rescaleHeight': True, 'trialN': 1, 'loaded': True, 'loadedTime': 2160.099999997765, 'positionName': 'CENTER', 'positionCoords': [1515.5, 515.5]}]",Rate how much you want to eat this food from 0 (least) to 10 (most).,4627.5,1669829259145,mashed potato,1415.199999999255,True,4.98,6042.699999999255,1415.199999999255,True,HRV,HRV_0014,2022-11-30 17:29:05
2,"[{'imgObject': {}, 'id': 'ice cream sundae 002', 'src': '/static/foodstim60/ice cream sundae 002.jpg', 'key': 'NaN', 'origWidth': 409, 'origHeight': 409, 'width': 409, 'height': 409, 'widthPercent': 0.8, 'rescaleHeight': True, 'trialN': 2, 'loaded': True, 'loadedTime': 2164.699999999255, 'positionName': 'CENTER', 'positionCoords': [1515.5, 515.5]}]",Rate how much you want to eat this food from 0 (least) to 10 (most).,6043.599999997765,1669829260562,ice cream sundae 002,2045.2000000029802,True,6.57,8088.800000000745,2045.2000000029802,True,HRV,HRV_0014,2022-11-30 17:29:05
3,"[{'imgObject': {}, 'id': 'turkey sandwich', 'src': '/static/foodstim60/turkey sandwich.jpg', 'key': 'NaN', 'origWidth': 409, 'origHeight': 409, 'width': 409, 'height': 409, 'widthPercent': 0.8, 'rescaleHeight': True, 'trialN': 3, 'loaded': True, 'loadedTime': 2171.89999999851, 'positionName': 'CENTER', 'positionCoords': [1515.5, 515.5]}]",Rate how much you want to eat this food from 0 (least) to 10 (most).,8089.800000000745,1669829262608,turkey sandwich,1228.3999999985099,True,7.95,9318.199999999255,1228.3999999985099,True,HRV,HRV_0014,2022-11-30 17:29:05
4,"[{'imgObject': {}, 'id': 'tacos', 'src': '/static/foodstim60/tacos.jpg', 'key': 'NaN', 'origWidth': 411, 'origHeight': 411, 'width': 411, 'height': 411, 'widthPercent': 0.8, 'rescaleHeight': True, 'trialN': 4, 'loaded': True, 'loadedTime': 2171.300000000745, 'positionName': 'CENTER', 'positionCoords': [1514.5, 514.5]}]",Rate how much you want to eat this food from 0 (least) to 10 (most).,9319.0,1669829263837,tacos,1171.699999999255,True,8.620000000000001,10490.699999999255,1171.699999999255,True,HRV,HRV_0014,2022-11-30 17:29:05
5,"[{'imgObject': {}, 'id': 'pear', 'src': '/static/foodstim60/pear.jpg', 'key': 'NaN', 'origWidth': 411, 'origHeight': 410, 'width': 411, 'height': 410, 'widthPercent': 0.8, 'rescaleHeight': True, 'trialN': 5, 'loaded': True, 'loadedTime': 2175, 'positionName': 'CENTER', 'positionCoords': [1514.5, 515]}]",Rate how much you want to eat this food from 0 (least) to 10 (most).,10491.599999997765,1669829265010,pear,1100.5,True,6.94,11592.099999997765,1100.5,True,HRV,HRV_0014,2022-11-30 17:29:05
6,"[{'imgObject': {}, 'id': 'apple slices', 'src': '/static/foodstim60/apple slices.jpg', 'key': 'NaN', 'origWidth': 409, 'origHeight': 410, 'width': 409, 'height': 410, 'widthPercent': 0.8, 'rescaleHeight': True, 'trialN': 6, 'loaded': True, 'loadedTime': 2179, 'positionName': 'CENTER', 'positionCoords': [1515.5, 515]}]",Rate how much you want to eat this food from 0 (least) to 10 (most).,11593.099999997765,1669829266111,apple slices,1092.0,True,8.36,12685.099999997765,1092.0,True,HRV,HRV_0014,2022-11-30 17:29:05
7,"[{'imgObject': {}, 'id': 'mango', 'src': '/static/foodstim60/mango.jpg', 'key': 'NaN', 'origWidth': 411, 'origHeight': 411, 'width': 411, 'height': 411, 'widthPercent': 0.8, 'rescaleHeight': True, 'trialN': 7, 'loaded': True, 'loadedTime': 2179.39999999851, 'positionName': 'CENTER', 'positionCoords': [1514.5, 514.5]}]",Rate how much you want to eat this food from 0 (least) to 10 (most).,12685.800000000745,1669829267204,mango,1268.5,True,6.54,13954.300000000745,1268.5,True,HRV,HRV_0014,2022-11-30 17:29:05
8,"[{'imgObject': {}, 'id': 'sushi w_condiments', 'src': '/static/foodstim60/sushi w_condiments.jpg', 'key': 'NaN', 'origWidth': 410, 'origHeight': 410, 'width': 410, 'height': 410, 'widthPercent': 0.8, 'rescaleHeight': True, 'trialN': 8, 'loaded': True, 'loadedTime': 2182, 'positionName': 'CENTER', 'positionCoords': [1515, 515]}]",Rate how much you want to eat this food from 0 (least) to 10 (most).,13955.099999997765,1669829268473,sushi w_condiments,1890.800000000745,True,9.66,15845.89999999851,1890.800000000745,True,HRV,HRV_0014,2022-11-30 17:29:05
9,"[{'imgObject': {}, 'id': 'roastedpotatoes', 'src': '/static/foodstim60/roastedpotatoes.jpg', 'key': 'NaN', 'origWidth': 409, 'origHeight': 410, 'width': 409, 'height': 410, 'widthPercent': 0.8, 'rescaleHeight': True, 'trialN': 9, 'loaded': True, 'loadedTime': 2186.699999999255, 'positionName': 'CENTER', 'positionCoords': [1515.5, 515]}]",Rate how much you want to eat this food from 0 (least) to 10 (most).,15846.800000000745,1669829270365,roastedpotatoes,1285.0999999977648,True,6.97,17131.89999999851,1285.0999999977648,True,HRV,HRV_0014,2022-11-30 17:29:05
10,"[{'imgObject': {}, 'id': 'fruitsalad', 'src': '/static/foodstim60/fruitsalad.jpg', 'key': 'NaN', 'origWidth': 410, 'origHeight': 410, 'width': 410, 'height': 410, 'widthPercent': 0.8, 'rescaleHeight': True, 'trialN': 10, 'loaded': True, 'loadedTime': 2187.300000000745, 'positionName': 'CENTER', 'positionCoords': [1515, 515]}]",Rate how much you want to eat this food from 0 (least) to 10 (most).,17132.800000000745,1669829271651,fruitsalad,1484.0,True,5.12,18616.800000000745,1484.0,True,HRV,HRV_0014,2022-11-30 17:29:05
11,"[{'imgObject': {}, 'id': 'popsicles', 'src': '/static/foodstim60/popsicles.jpg', 'key': 'NaN', 'origWidth': 410, 'origHeight': 410, 'width': 410, 'height': 410, 'widthPercent': 0.8, 'rescaleHeight': True, 'trialN': 11, 'loaded': True, 'loadedTime': 2189.699999999255, 'positionName': 'CENTER', 'positionCoords': [1515, 515]}]",Rate how much you want to eat this food from 0 (least) to 10 (most).,18617.699999999255,1669829273136,popsicles,1261.8999999985099,True,5.01,19879.599999997765,1261.8999999985099,True,HRV,HRV_0014,2022-11-30 17:29:05
12,"[{'imgObject': {}, 'id': 'corn cob', 'src': '/static/foodstim60/corn cob.jpg', 'key': 'NaN', 'origWidth': 411, 'origHeight': 411, 'width': 411, 'height': 411, 'widthPercent': 0.8, 'rescaleHeight': True, 'trialN': 12, 'loaded': True, 'loadedTime': 2192.89999999851, 'positionName': 'CENTER', 'positionCoords': [1514.5, 514.5]}]",Rate how much you want to eat this food from 0 (least) to 10 (most).,19880.39999999851,1669829274398,corn cob,1097.4000000022352,True,6.95,20977.800000000745,1097.4000000022352,True,HRV,HRV_0014,2022-11-30 17:29:05
13,"[{'imgObject': {}, 'id': 'baked potato', 'src': '/static/foodstim60/baked potato.jpg', 'key': 'NaN', 'origWidth': 409, 'origHeight': 410, 'width': 409, 'height': 410, 'widthPercent': 0.8, 'rescaleHeight': True, 'trialN': 13, 'loaded': True, 'loadedTime': 2196.199999999255, 'positionName': 'CENTER', 'positionCoords': [1515.5, 515]}]",Rate how much you want to eat this food from 0 (least) to 10 (most).,20978.699999999255,1669829275497,baked potato,1197.300000000745,True,5.05,22176.0,1197.300000000745,True,HRV,HRV_0014,2022-11-30 17:29:05
14,"[{'imgObject': {}, 'id': 'avocado', 'src': '/static/foodstim60/avocado.jpg', 'key': 'NaN', 'origWidth': 409, 'origHeight': 409, 'width': 409, 'height': 409, 'widthPercent': 0.8, 'rescaleHeight': True, 'trialN': 14, 'loaded': True, 'loadedTime': 2196.699999999255, 'positionName': 'CENTER', 'positionCoords': [1515.5, 515.5]}]",Rate how much you want to eat this food from 0 (least) to 10 (most).,22176.800000000745,1669829276695,avocado,1723.8999999985099,True,2.87,23900.699999999255,1723.8999999985099,True,HRV,HRV_0014,2022-11-30 17:29:05
15,"[{'imgObject': {}, 'id': 'turkeysandwich', 'src': '/static/foodstim60/turkeysandwich.jpg', 'key': 'NaN', 'origWidth': 409, 'origHeight': 409, 'width': 409, 'height': 409, 'widthPercent': 0.8, 'rescaleHeight': True, 'trialN': 15, 'loaded': True, 'loadedTime': 2199.199999999255, 'positionName': 'CENTER', 'positionCoords': [1515.5, 515.5]}]",Rate how much you want to eat this food from 0 (least) to 10 (most).,23901.599999997765,1669829278420,turkeysandwich,1392.800000000745,True,8.11,25294.39999999851,1392.800000000745,True,HRV,HRV_0014,2022-11-30 17:29:05
16,"[{'imgObject': {}, 'id': 'yogurt no spoon', 'src': '/static/foodstim60/yogurt no spoon.jpg', 'key': 'NaN', 'origWidth': 411, 'origHeight': 410, 'width': 411, 'height': 410, 'widthPercent': 0.8, 'rescaleHeight': True, 'trialN': 16, 'loaded': True, 'loadedTime': 2202.300000000745, 'positionName': 'CENTER', 'positionCoords': [1514.5, 515]}]",Rate how much you want to eat this food from 0 (least) to 10 (most).,25295.39999999851,1669829279813,yogurt no spoon,1418.6000000014901,True,6.59,26714.0,1418.6000000014901,True,HRV,HRV_0014,2022-11-30 17:29:05
17,"[{'imgObject': {}, 'id': 'kiwi', 'src': '/static/foodstim60/kiwi.jpg', 'key': 'NaN', 'origWidth': 410, 'origHeight': 410, 'width': 410, 'height': 410, 'widthPercent': 0.8, 'rescaleHeight': True, 'trialN': 17, 'loaded': True, 'loadedTime': 2202.800000000745, 'positionName': 'CENTER', 'positionCoords': [1515, 515]}]",Rate how much you want to eat this food from 0 (least) to 10 (most).,26715.0,1669829281233,kiwi,1321.3999999985099,True,2.11,28036.39999999851,1321.3999999985099,True,HRV,HRV_0014,2022-11-30 17:29:05
18,"[{'imgObject': {}, 'id': 'sweetpotato', 'src': '/static/foodstim60/sweetpotato.jpg', 'key': 'NaN', 'origWidth': 410, 'origHeight': 410, 'width': 410, 'height': 410, 'widthPercent': 0.8, 'rescaleHeight': True, 'trialN': 18, 'loaded': True, 'loadedTime': 2205.800000000745, 'positionName': 'CENTER', 'positionCoords': [1515, 515]}]",Rate how much you want to eat this food from 0 (least) to 10 (most).,28037.39999999851,1669829282555,sweetpotato,1020.4000000022352,True,5.05,29057.800000000745,1020.4000000022352,True,HRV,HRV_0014,2022-11-30 17:29:05
19,"[{'imgObject': {}, 'id': 'cherries', 'src': '/static/foodstim60/cherries.jpg', 'key': 'NaN', 'origWidth': 410, 'origHeight': 411, 'width': 410, 'height': 411, 'widthPercent': 0.8, 'rescaleHeight': True, 'trialN': 19, 'loaded': True, 'loadedTime': 2206.300000000745, 'positionName': 'CENTER', 'positionCoords': [1515, 514.5]}]",Rate how much you want to eat this food from 0 (least) to 10 (most).,29058.699999999255,1669829283577,cherries,977.8000000007451,True,6.07,30036.5,977.8000000007451,True,HRV,HRV_0014,2022-11-30 17:29:05
20,"[{'imgObject': {}, 'id': 'burger', 'src': '/static/foodstim60/burger.jpg', 'key': 'NaN', 'origWidth': 409, 'origHeight': 409, 'width': 409, 'height': 409, 'widthPercent': 0.8, 'rescaleHeight': True, 'trialN': 20, 'loaded': True, 'loadedTime': 2208.699999999255, 'positionName': 'CENTER', 'positionCoords': [1515.5, 515.5]}]",Rate how much you want to eat this food from 0 (least) to 10 (most).,30037.5,1669829284555,burger,1440.5999999977648,True,8.11,31478.099999997765,1440.5999999977648,True,HRV,HRV_0014,2022-11-30 17:29:05
21,"[{'imgObject': {}, 'id': 'cheerios', 'src': '/static/foodstim60/cheerios.jpg', 'key': 'NaN', 'origWidth': 409, 'origHeight': 410, 'width': 409, 'height': 410, 'widthPercent': 0.8, 'rescaleHeight': True, 'trialN': 21, 'loaded': True, 'loadedTime': 2211.800000000745, 'positionName': 'CENTER', 'positionCoords': [1515.5, 515]}]",Rate how much you want to eat this food from 0 (least) to 10 (most).,31479.199999999255,1669829285997,cheerios,1476.6000000014901,True,5.0600000000000005,32955.800000000745,1476.6000000014901,True,HRV,HRV_0014,2022-11-30 17:29:05
22,"[{'imgObject': {}, 'id': 'rigatoni', 'src': '/static/foodstim60/rigatoni.jpg', 'key': 'NaN', 'origWidth': 411, 'origHeight': 411, 'width': 411, 'height': 411, 'widthPercent': 0.8, 'rescaleHeight': True, 'trialN': 22, 'loaded': True, 'loadedTime': 2212.300000000745, 'positionName': 'CENTER', 'positionCoords': [1514.5, 514.5]}]",Rate how much you want to eat this food from 0 (least) to 10 (most).,32956.89999999851,1669829287475,rigatoni,1054.199999999255,True,5.33,34011.099999997765,1054.199999999255,True,HRV,HRV_0014,2022-11-30 17:29:05
23,"[{'imgObject': {}, 'id': 'blueberries', 'src': '/static/foodstim60/blueberries.jpg', 'key': 'NaN', 'origWidth': 411, 'origHeight': 411, 'width': 411, 'height': 411, 'widthPercent': 0.8, 'rescaleHeight': True, 'trialN': 23, 'loaded': True, 'loadedTime': 2212.800000000745, 'positionName': 'CENTER', 'positionCoords': [1514.5, 514.5]}]",Rate how much you want to eat this food from 0 (least) to 10 (most).,34012.0,1669829288530,blueberries,1090.300000000745,True,6.23,35102.300000000745,1090.300000000745,True,HRV,HRV_0014,2022-11-30 17:29:05
24,"[{'imgObject': {}, 'id': 'bagel and cc', 'src': '/static/foodstim60/bagel and cc.jpg', 'key': 'NaN', 'origWidth': 410, 'origHeight': 410, 'width': 410, 'height': 410, 'widthPercent': 0.8, 'rescaleHeight': True, 'trialN': 24, 'loaded': True, 'loadedTime': 2213.099999997765, 'positionName': 'CENTER', 'positionCoords': [1515, 515]}]",Rate how much you want to eat this food from 0 (least) to 10 (most).,35103.300000000745,1669829289621,bagel and cc,1059.3999999985099,True,7.5,36162.699999999255,1059.3999999985099,True,HRV,HRV_0014,2022-11-30 17:29:05
25,"[{'imgObject': {}, 'id': 'lox', 'src': '/static/foodstim60/lox.jpg', 'key': 'NaN', 'origWidth': 410, 'origHeight': 411, 'width': 410, 'height': 411, 'widthPercent': 0.8, 'rescaleHeight': True, 'trialN': 25, 'loaded': True, 'loadedTime': 2213.599999997765, 'positionName': 'CENTER', 'positionCoords': [1515, 514.5]}]",Rate how much you want to eat this food from 0 (least) to 10 (most).,36163.5,1669829290682,lox,1096.5,True,4.98,37260.0,1096.5,True,HRV,HRV_0014,2022-11-30 17:29:05
26,"[{'imgObject': {}, 'id': 'shreddedwheatwithmilk', 'src': '/static/foodstim60/shreddedwheatwithmilk.jpg', 'key': 'NaN', 'origWidth': 410, 'origHeight': 410, 'width': 410, 'height': 410, 'widthPercent': 0.8, 'rescaleHeight': True, 'trialN': 26, 'loaded': True, 'loadedTime': 2214, 'positionName': 'CENTER', 'positionCoords': [1515, 515]}]",Rate how much you want to eat this food from 0 (least) to 10 (most).,37260.800000000745,1669829291779,shreddedwheatwithmilk,1012.0999999977648,True,4.84,38272.89999999851,1012.0999999977648,True,HRV,HRV_0014,2022-11-30 17:29:05
27,"[{'imgObject': {}, 'id': 'bagel plain', 'src': '/static/foodstim60/bagel plain.jpg', 'key': 'NaN', 'origWidth': 410, 'origHeight': 410, 'width': 410, 'height': 410, 'widthPercent': 0.8, 'rescaleHeight': True, 'trialN': 27, 'loaded': True, 'loadedTime': 2214.39999999851, 'positionName': 'CENTER', 'positionCoords': [1515, 515]}]",Rate how much you want to eat this food from 0 (least) to 10 (most).,38273.699999999255,1669829292792,bagel plain,1256.199999999255,True,6.7700000000000005,39529.89999999851,1256.199999999255,True,HRV,HRV_0014,2022-11-30 17:29:05
28,"[{'imgObject': {}, 'id': 'grilled chicken strips', 'src': '/static/foodstim60/grilled chicken strips.jpg', 'key': 'NaN', 'origWidth': 410, 'origHeight': 411, 'width': 410, 'height': 411, 'widthPercent': 0.8, 'rescaleHeight': True, 'trialN': 28, 'loaded': True, 'loadedTime': 2214.800000000745, 'positionName': 'CENTER', 'positionCoords': [1515, 514.5]}]",Rate how much you want to eat this food from 0 (least) to 10 (most).,39530.699999999255,1669829294049,grilled chicken strips,1581.300000000745,True,7.95,41112.0,1581.300000000745,True,HRV,HRV_0014,2022-11-30 17:29:05
29,"[{'imgObject': {}, 'id': 'cocktailshrimp', 'src': '/static/foodstim60/cocktailshrimp.jpg', 'key': 'NaN', 'origWidth': 410, 'origHeight': 410, 'width': 410, 'height': 410, 'widthPercent': 0.8, 'rescaleHeight': True, 'trialN': 29, 'loaded': True, 'loadedTime': 2215.199999999255, 'positionName': 'CENTER', 'positionCoords': [1515, 515]}]",Rate how much you want to eat this food from 0 (least) to 10 (most).,41112.800000000745,1669829295631,cocktailshrimp,1235.2999999970198,True,8.73,42348.099999997765,1235.2999999970198,True,HRV,HRV_0014,2022-11-30 17:29:05
30,"[{'imgObject': {}, 'id': 'veggieswithdip', 'src': '/static/foodstim60/veggieswithdip.jpg', 'key': 'NaN', 'origWidth': 409, 'origHeight': 409, 'width': 409, 'height': 409, 'widthPercent': 0.8, 'rescaleHeight': True, 'trialN': 30, 'loaded': True, 'loadedTime': 2215.5, 'positionName': 'CENTER', 'positionCoords': [1515.5, 515.5]}]",Rate how much you want to eat this food from 0 (least) to 10 (most).,42349.0,1669829296867,veggieswithdip,1254.0999999977648,True,5.01,43603.099999997765,1254.0999999977648,True,HRV,HRV_0014,2022-11-30 17:29:05
31,"[{'imgObject': {}, 'id': 'hashbrowns', 'src': '/static/foodstim60/hashbrowns.jpg', 'key': 'NaN', 'origWidth': 411, 'origHeight': 410, 'width': 411, 'height': 410, 'widthPercent': 0.8, 'rescaleHeight': True, 'trialN': 31, 'loaded': True, 'loadedTime': 2215.89999999851, 'positionName': 'CENTER', 'positionCoords': [1514.5, 515]}]",Rate how much you want to eat this food from 0 (least) to 10 (most).,43604.0,1669829298122,hashbrowns,1773.800000000745,True,4.99,45377.800000000745,1773.800000000745,True,HRV,HRV_0014,2022-11-30 17:29:05
32,"[{'imgObject': {}, 'id': 'raisin bran w milk', 'src': '/static/foodstim60/raisin bran w milk.jpg', 'key': 'NaN', 'origWidth': 411, 'origHeight': 411, 'width': 411, 'height': 411, 'widthPercent': 0.8, 'rescaleHeight': True, 'trialN': 32, 'loaded': True, 'loadedTime': 2216.300000000745, 'positionName': 'CENTER', 'positionCoords': [1514.5, 514.5]}]",Rate how much you want to eat this food from 0 (least) to 10 (most).,45378.800000000745,1669829299897,raisin bran w milk,1004.3999999985099,True,5.01,46383.199999999255,1004.3999999985099,True,HRV,HRV_0014,2022-11-30 17:29:05
33,"[{'imgObject': {}, 'id': 'cherry tomato', 'src': '/static/foodstim60/cherry tomato.jpg', 'key': 'NaN', 'origWidth': 410, 'origHeight': 410, 'width': 410, 'height': 410, 'widthPercent': 0.8, 'rescaleHeight': True, 'trialN': 33, 'loaded': True, 'loadedTime': 2216.699999999255, 'positionName': 'CENTER', 'positionCoords': [1515, 515]}]",Rate how much you want to eat this food from 0 (least) to 10 (most).,46384.300000000745,1669829300903,cherry tomato,1906.699999999255,True,3.04,48291.0,1906.699999999255,True,HRV,HRV_0014,2022-11-30 17:29:05
34,"[{'imgObject': {}, 'id': 'orange slices', 'src': '/static/foodstim60/orange slices.jpg', 'key': 'NaN', 'origWidth': 409, 'origHeight': 410, 'width': 409, 'height': 410, 'widthPercent': 0.8, 'rescaleHeight': True, 'trialN': 34, 'loaded': True, 'loadedTime': 2217.099999997765, 'positionName': 'CENTER', 'positionCoords': [1515.5, 515]}]",Rate how much you want to eat this food from 0 (least) to 10 (most).,48291.89999999851,1669829302810,orange slices,1214.699999999255,True,7.140000000000001,49506.599999997765,1214.699999999255,True,HRV,HRV_0014,2022-11-30 17:29:05
35,"[{'imgObject': {}, 'id': 'fried eggs', 'src': '/static/foodstim60/fried eggs.jpg', 'key': 'NaN', 'origWidth': 410, 'origHeight': 410, 'width': 410, 'height': 410, 'widthPercent': 0.8, 'rescaleHeight': True, 'trialN': 35, 'loaded': True, 'loadedTime': 2217.39999999851, 'positionName': 'CENTER', 'positionCoords': [1515, 515]}]",Rate how much you want to eat this food from 0 (least) to 10 (most).,49507.5,1669829304026,fried eggs,1077.0999999977648,True,8.4,50584.599999997765,1077.0999999977648,True,HRV,HRV_0014,2022-11-30 17:29:05
36,"[{'imgObject': {}, 'id': 'raspberries', 'src': '/static/foodstim60/raspberries.jpg', 'key': 'NaN', 'origWidth': 411, 'origHeight': 411, 'width': 411, 'height': 411, 'widthPercent': 0.8, 'rescaleHeight': True, 'trialN': 36, 'loaded': True, 'loadedTime': 2217.800000000745, 'positionName': 'CENTER', 'positionCoords': [1514.5, 514.5]}]",Rate how much you want to eat this food from 0 (least) to 10 (most).,50585.599999997765,1669829305104,raspberries,1096.1000000014901,True,6.48,51681.699999999255,1096.1000000014901,True,HRV,HRV_0014,2022-11-30 17:29:05
37,"[{'imgObject': {}, 'id': 'granola w milk', 'src': '/static/foodstim60/granola w milk.jpg', 'key': 'NaN', 'origWidth': 410, 'origHeight': 410, 'width': 410, 'height': 410, 'widthPercent': 0.8, 'rescaleHeight': True, 'trialN': 37, 'loaded': True, 'loadedTime': 2218.099999997765, 'positionName': 'CENTER', 'positionCoords': [1515, 515]}]",Rate how much you want to eat this food from 0 (least) to 10 (most).,51682.599999997765,1669829306201,granola w milk,1123.2000000029802,True,4.9,52805.800000000745,1123.2000000029802,True,HRV,HRV_0014,2022-11-30 17:29:05
38,"[{'imgObject': {}, 'id': 'salad w chicken', 'src': '/static/foodstim60/salad w chicken.jpg', 'key': 'NaN', 'origWidth': 411, 'origHeight': 411, 'width': 411, 'height': 411, 'widthPercent': 0.8, 'rescaleHeight': True, 'trialN': 38, 'loaded': True, 'loadedTime': 2218.5, 'positionName': 'CENTER', 'positionCoords': [1514.5, 514.5]}]",Rate how much you want to eat this food from 0 (least) to 10 (most).,52806.699999999255,1669829307325,salad w chicken,1445.6000000014901,True,5.0200000000000005,54252.300000000745,1445.6000000014901,True,HRV,HRV_0014,2022-11-30 17:29:05
39,"[{'imgObject': {}, 'id': 'Tribe humus pita', 'src': '/static/foodstim60/Tribe humus pita.jpg', 'key': 'NaN', 'origWidth': 411, 'origHeight': 411, 'width': 411, 'height': 411, 'widthPercent': 0.8, 'rescaleHeight': True, 'trialN': 39, 'loaded': True, 'loadedTime': 2219, 'positionName': 'CENTER', 'positionCoords': [1514.5, 514.5]}]",Rate how much you want to eat this food from 0 (least) to 10 (most).,54253.5,1669829308772,Tribe humus pita,1402.5,True,5.0,55656.0,1402.5,True,HRV,HRV_0014,2022-11-30 17:29:05
40,"[{'imgObject': {}, 'id': 'strawberries', 'src': '/static/foodstim60/strawberries.jpg', 'key': 'NaN', 'origWidth': 410, 'origHeight': 410, 'width': 410, 'height': 410, 'widthPercent': 0.8, 'rescaleHeight': True, 'trialN': 40, 'loaded': True, 'loadedTime': 2219.39999999851, 'positionName': 'CENTER', 'positionCoords': [1515, 515]}]",Rate how much you want to eat this food from 0 (least) to 10 (most).,55657.0,1669829310175,strawberries,2903.800000000745,True,9.81,58560.800000000745,2903.800000000745,True,HRV,HRV_0014,2022-11-30 17:29:05
41,"[{'imgObject': {}, 'id': 'edamame', 'src': '/static/foodstim60/edamame.jpg', 'key': 'NaN', 'origWidth': 409, 'origHeight': 410, 'width': 409, 'height': 410, 'widthPercent': 0.8, 'rescaleHeight': True, 'trialN': 41, 'loaded': True, 'loadedTime': 2219.800000000745, 'positionName': 'CENTER', 'positionCoords': [1515.5, 515]}]",Rate how much you want to eat this food from 0 (least) to 10 (most).,58561.800000000745,1669829313080,edamame,1995.699999999255,True,0.86,60557.5,1995.699999999255,True,HRV,HRV_0014,2022-11-30 17:29:05
42,"[{'imgObject': {}, 'id': 'salmon', 'src': '/static/foodstim60/salmon.jpg', 'key': 'NaN', 'origWidth': 410, 'origHeight': 409, 'width': 410, 'height': 409, 'widthPercent': 0.8, 'rescaleHeight': True, 'trialN': 42, 'loaded': True, 'loadedTime': 2220.89999999851, 'positionName': 'CENTER', 'positionCoords': [1515, 515.5]}]",Rate how much you want to eat this food from 0 (least) to 10 (most).,60558.5,1669829315077,salmon,1124.5999999977648,True,8.22,61683.099999997765,1124.5999999977648,True,HRV,HRV_0014,2022-11-30 17:29:05
43,"[{'imgObject': {}, 'id': 'banana', 'src': '/static/foodstim60/banana.jpg', 'key': 'NaN', 'origWidth': 410, 'origHeight': 410, 'width': 410, 'height': 410, 'widthPercent': 0.8, 'rescaleHeight': True, 'trialN': 43, 'loaded': True, 'loadedTime': 2221.39999999851, 'positionName': 'CENTER', 'positionCoords': [1515, 515]}]",Rate how much you want to eat this food from 0 (least) to 10 (most).,61683.89999999851,1669829316202,banana,1852.6000000014901,True,8.49,63536.5,1852.6000000014901,True,HRV,HRV_0014,2022-11-30 17:29:05
44,"[{'imgObject': {}, 'id': 'blackbeanswithrice', 'src': '/static/foodstim60/blackbeanswithrice.jpg', 'key': 'NaN', 'origWidth': 410, 'origHeight': 410, 'width': 410, 'height': 410, 'widthPercent': 0.8, 'rescaleHeight': True, 'trialN': 44, 'loaded': True, 'loadedTime': 2224, 'positionName': 'CENTER', 'positionCoords': [1515, 515]}]",Rate how much you want to eat this food from 0 (least) to 10 (most).,63537.099999997765,1669829318055,blackbeanswithrice,1777.9000000022352,True,1.98,65315.0,1777.9000000022352,True,HRV,HRV_0014,2022-11-30 17:29:05
45,"[{'imgObject': {}, 'id': 'eggsalad', 'src': '/static/foodstim60/eggsalad.jpg', 'key': 'NaN', 'origWidth': 410, 'origHeight': 409, 'width': 410, 'height': 409, 'widthPercent': 0.8, 'rescaleHeight': True, 'trialN': 45, 'loaded': True, 'loadedTime': 2224.5, 'positionName': 'CENTER', 'positionCoords': [1515, 515.5]}]",Rate how much you want to eat this food from 0 (least) to 10 (most).,65315.800000000745,1669829319834,eggsalad,1760.199999999255,True,4.97,67076.0,1760.199999999255,True,HRV,HRV_0014,2022-11-30 17:29:05
46,"[{'imgObject': {}, 'id': 'omelette', 'src': '/static/foodstim60/omelette.jpg', 'key': 'NaN', 'origWidth': 410, 'origHeight': 409, 'width': 410, 'height': 409, 'widthPercent': 0.8, 'rescaleHeight': True, 'trialN': 46, 'loaded': True, 'loadedTime': 2227.300000000745, 'positionName': 'CENTER', 'positionCoords': [1515, 515.5]}]",Rate how much you want to eat this food from 0 (least) to 10 (most).,67076.69999999925,1669829321595,omelette,1363.199999999255,True,8.33,68439.89999999851,1363.199999999255,True,HRV,HRV_0014,2022-11-30 17:29:05
47,"[{'imgObject': {}, 'id': 'hotdog w must', 'src': '/static/foodstim60/hotdog w must.jpg', 'key': 'NaN', 'origWidth': 409, 'origHeight': 409, 'width': 409, 'height': 409, 'widthPercent': 0.8, 'rescaleHeight': True, 'trialN': 47, 'loaded': True, 'loadedTime': 2227.599999997765, 'positionName': 'CENTER', 'positionCoords': [1515.5, 515.5]}]",Rate how much you want to eat this food from 0 (least) to 10 (most).,68440.69999999925,1669829322959,hotdog w must,1936.300000000745,True,7.99,70377.0,1936.300000000745,True,HRV,HRV_0014,2022-11-30 17:29:05
48,"[{'imgObject': {}, 'id': 'burrito', 'src': '/static/foodstim60/burrito.jpg', 'key': 'NaN', 'origWidth': 410, 'origHeight': 410, 'width': 410, 'height': 410, 'widthPercent': 0.8, 'rescaleHeight': True, 'trialN': 48, 'loaded': True, 'loadedTime': 2230.300000000745, 'positionName': 'CENTER', 'positionCoords': [1515, 515]}]",Rate how much you want to eat this food from 0 (least) to 10 (most).,70377.80000000075,1669829324896,burrito,1275.2999999970198,True,7.69,71653.09999999776,1275.2999999970198,True,HRV,HRV_0014,2022-11-30 17:29:05
49,"[{'imgObject': {}, 'id': 'mac & cheese', 'src': '/static/foodstim60/mac & cheese.jpg', 'key': 'NaN', 'origWidth': 410, 'origHeight': 410, 'width': 410, 'height': 410, 'widthPercent': 0.8, 'rescaleHeight': True, 'trialN': 49, 'loaded': True, 'loadedTime': 2231.199999999255, 'positionName': 'CENTER', 'positionCoords': [1515, 515]}]",Rate how much you want to eat this food from 0 (least) to 10 (most).,71654.0,1669829326172,mac & cheese,1416.3999999985099,True,5.48,73070.39999999851,1416.3999999985099,True,HRV,HRV_0014,2022-11-30 17:29:05
50,"[{'imgObject': {}, 'id': 'froot loops w milk', 'src': '/static/foodstim60/froot loops w milk.jpg', 'key': 'NaN', 'origWidth': 410, 'origHeight': 410, 'width': 410, 'height': 410, 'widthPercent': 0.8, 'rescaleHeight': True, 'trialN': 50, 'loaded': True, 'loadedTime': 2233.699999999255, 'positionName': 'CENTER', 'positionCoords': [1515, 515]}]",Rate how much you want to eat this food from 0 (least) to 10 (most).,73071.39999999851,1669829327590,froot loops w milk,1346.5,True,5.0,74417.89999999851,1346.5,True,HRV,HRV_0014,2022-11-30 17:29:05
51,"[{'imgObject': {}, 'id': 'seaweed', 'src': '/static/foodstim60/seaweed.jpg', 'key': 'NaN', 'origWidth': 410, 'origHeight': 410, 'width': 410, 'height': 410, 'widthPercent': 0.8, 'rescaleHeight': True, 'trialN': 51, 'loaded': True, 'loadedTime': 2234.099999997765, 'positionName': 'CENTER', 'positionCoords': [1515, 515]}]",Rate how much you want to eat this food from 0 (least) to 10 (most).,74419.09999999776,1669829328937,seaweed,1704.5,True,9.950000000000001,76123.59999999776,1704.5,True,HRV,HRV_0014,2022-11-30 17:29:05
52,"[{'imgObject': {}, 'id': 'chicken nuggets2', 'src': '/static/foodstim60/chicken nuggets2.jpg', 'key': 'NaN', 'origWidth': 410, 'origHeight': 409, 'width': 410, 'height': 409, 'widthPercent': 0.8, 'rescaleHeight': True, 'trialN': 52, 'loaded': True, 'loadedTime': 2236.800000000745, 'positionName': 'CENTER', 'positionCoords': [1515, 515.5]}]",Rate how much you want to eat this food from 0 (least) to 10 (most).,76124.59999999776,1669829330643,chicken nuggets2,1993.800000000745,True,8.22,78118.39999999851,1993.800000000745,True,HRV,HRV_0014,2022-11-30 17:29:05
53,"[{'imgObject': {}, 'id': 'chickenfingers', 'src': '/static/foodstim60/chickenfingers.jpg', 'key': 'NaN', 'origWidth': 410, 'origHeight': 410, 'width': 410, 'height': 410, 'widthPercent': 0.8, 'rescaleHeight': True, 'trialN': 53, 'loaded': True, 'loadedTime': 2237.300000000745, 'positionName': 'CENTER', 'positionCoords': [1515, 515]}]",Rate how much you want to eat this food from 0 (least) to 10 (most).,78119.5,1669829332638,chickenfingers,1189.699999999255,True,9.09,79309.19999999925,1189.699999999255,True,HRV,HRV_0014,2022-11-30 17:29:05
54,"[{'imgObject': {}, 'id': 'cantaloupe', 'src': '/static/foodstim60/cantaloupe.jpg', 'key': 'NaN', 'origWidth': 409, 'origHeight': 409, 'width': 409, 'height': 409, 'widthPercent': 0.8, 'rescaleHeight': True, 'trialN': 54, 'loaded': True, 'loadedTime': 2240.099999997765, 'positionName': 'CENTER', 'positionCoords': [1515.5, 515.5]}]",Rate how much you want to eat this food from 0 (least) to 10 (most).,79310.30000000075,1669829333829,cantaloupe,1362.699999999255,True,9.38,80673.0,1362.699999999255,True,HRV,HRV_0014,2022-11-30 17:29:05
55,"[{'imgObject': {}, 'id': 'olives', 'src': '/static/foodstim60/olives.jpg', 'key': 'NaN', 'origWidth': 410, 'origHeight': 410, 'width': 410, 'height': 410, 'widthPercent': 0.8, 'rescaleHeight': True, 'trialN': 55, 'loaded': True, 'loadedTime': 2243, 'positionName': 'CENTER', 'positionCoords': [1515, 515]}]",Rate how much you want to eat this food from 0 (least) to 10 (most).,80674.19999999925,1669829335192,olives,3174.699999999255,True,3.0100000000000002,83848.89999999851,3174.699999999255,True,HRV,HRV_0014,2022-11-30 17:29:05
56,"[{'imgObject': {}, 'id': 'rigatoni and sauce', 'src': '/static/foodstim60/rigatoni and sauce.jpg', 'key': 'NaN', 'origWidth': 410, 'origHeight': 411, 'width': 410, 'height': 411, 'widthPercent': 0.8, 'rescaleHeight': True, 'trialN': 56, 'loaded': True, 'loadedTime': 2243.5, 'positionName': 'CENTER', 'positionCoords': [1515, 514.5]}]",Rate how much you want to eat this food from 0 (least) to 10 (most).,83849.89999999851,1669829338368,rigatoni and sauce,1439.0,True,5.91,85288.89999999851,1439.0,True,HRV,HRV_0014,2022-11-30 17:29:05
57,"[{'imgObject': {}, 'id': 'luckycharms', 'src': '/static/foodstim60/luckycharms.jpg', 'key': 'NaN', 'origWidth': 410, 'origHeight': 409, 'width': 410, 'height': 409, 'widthPercent': 0.8, 'rescaleHeight': True, 'trialN': 57, 'loaded': True, 'loadedTime': 2246.300000000745, 'positionName': 'CENTER', 'positionCoords': [1515, 515.5]}]",Rate how much you want to eat this food from 0 (least) to 10 (most).,85290.0,1669829339808,luckycharms,1395.8999999985099,True,5.0600000000000005,86685.89999999851,1395.8999999985099,True,HRV,HRV_0014,2022-11-30 17:29:05
58,"[{'imgObject': {}, 'id': 'eggs', 'src': '/static/foodstim60/eggs.jpg', 'key': 'NaN', 'origWidth': 409, 'origHeight': 409, 'width': 409, 'height': 409, 'widthPercent': 0.8, 'rescaleHeight': True, 'trialN': 58, 'loaded': True, 'loadedTime': 2249.199999999255, 'positionName': 'CENTER', 'positionCoords': [1515.5, 515.5]}]",Rate how much you want to eat this food from 0 (least) to 10 (most).,86686.80000000075,1669829341205,eggs,1791.5,True,7.26,88478.30000000075,1791.5,True,HRV,HRV_0014,2022-11-30 17:29:05
59,"[{'imgObject': {}, 'id': 'Grapes', 'src': '/static/foodstim60/Grapes.jpg', 'key': 'NaN', 'origWidth': 411, 'origHeight': 411, 'width': 411, 'height': 411, 'widthPercent': 0.8, 'rescaleHeight': True, 'trialN': 59, 'loaded': True, 'loadedTime': 2252.5, 'positionName': 'CENTER', 'positionCoords': [1514.5, 514.5]}]",Rate how much you want to eat this food from 0 (least) to 10 (most).,88479.09999999776,1669829342997,Grapes,1171.2000000029802,True,5.04,89650.30000000075,1171.2000000029802,True,HRV,HRV_0014,2022-11-30 17:29:05
