trialN,stimuli,trialStartTime,trialStartTime_UNIX,stimulus1,stimulus2,stimulus1Bid,stimulus2Bid,delta,selected,rt,rt_UNIX,rt_perfnow,receivedResponse,rsp,trialEndTime,trialDuration,trialEndTime_UNIX,trialDuration_UNIX,exp,subjectId,date
0,"[{'imgObject': {}, 'id': 'pear', 'src': '/static/foodstim60/pear.jpg', 'key': 'u', 'origWidth': 411, 'origHeight': 410, 'width': 411, 'height': 410, 'widthPercent': 0.45, 'rescaleHeight': False, 'trialN': 0, 'loaded': True, 'loadedTime': 3072.699999999255, 'positionName': 'LEFT', 'positionCoords': [1240.2, 515], 'bid': 6.94}, {'imgObject': {}, 'id': 'yogurt no spoon', 'src': '/static/foodstim60/yogurt no spoon.jpg', 'key': 'i', 'origWidth': 411, 'origHeight': 410, 'width': 411, 'height': 410, 'widthPercent': 0.45, 'rescaleHeight': False, 'trialN': 0, 'loaded': True, 'loadedTime': 3103.10000000149, 'positionName': 'RIGHT', 'positionCoords': [1788.8, 515], 'bid': 6.59}]",3278.300000000745,1669829403939,pear,yogurt no spoon,6.94,6.59,-0.35000000000000053,yogurt no spoon,1056,1056,1056.699999999255,True,i,4851.400000002235,1573.1000000014901,1669829405512,1573,HRV,HRV_0014,2022-11-30 17:34:41
1,"[{'imgObject': {}, 'id': 'mango', 'src': '/static/foodstim60/mango.jpg', 'key': 'u', 'origWidth': 411, 'origHeight': 411, 'width': 411, 'height': 411, 'widthPercent': 0.45, 'rescaleHeight': False, 'trialN': 1, 'loaded': True, 'loadedTime': 3117.60000000149, 'positionName': 'LEFT', 'positionCoords': [1240.2, 514.5], 'bid': 6.54}, {'imgObject': {}, 'id': 'blueberries', 'src': '/static/foodstim60/blueberries.jpg', 'key': 'i', 'origWidth': 411, 'origHeight': 411, 'width': 411, 'height': 411, 'widthPercent': 0.45, 'rescaleHeight': False, 'trialN': 1, 'loaded': True, 'loadedTime': 3118.5, 'positionName': 'RIGHT', 'positionCoords': [1788.8, 514.5], 'bid': 6.23}]",4851.800000000745,1669829405512,mango,blueberries,6.54,6.23,-0.3099999999999996,mango,1157.5,1158,1158.1000000014901,True,u,6519.0,1667.199999999255,1669829407179,1667,HRV,HRV_0014,2022-11-30 17:34:41
2,"[{'imgObject': {}, 'id': 'raspberries', 'src': '/static/foodstim60/raspberries.jpg', 'key': 'u', 'origWidth': 411, 'origHeight': 411, 'width': 411, 'height': 411, 'widthPercent': 0.45, 'rescaleHeight': False, 'trialN': 2, 'loaded': True, 'loadedTime': 3118.60000000149, 'positionName': 'LEFT', 'positionCoords': [1240.2, 514.5], 'bid': 6.48}, {'imgObject': {}, 'id': 'blueberries', 'src': '/static/foodstim60/blueberries.jpg', 'key': 'i', 'origWidth': 411, 'origHeight': 411, 'width': 411, 'height': 411, 'widthPercent': 0.45, 'rescaleHeight': False, 'trialN': 2, 'loaded': True, 'loadedTime': 3117.900000002235, 'positionName': 'RIGHT', 'positionCoords': [1788.8, 514.5], 'bid': 6.23}]",6519.300000000745,1669829407180,raspberries,blueberries,6.48,6.23,-0.25,raspberries,1109.6000000014901,1109,1110.0,True,u,8140.0,1620.699999999255,1669829408800,1620,HRV,HRV_0014,2022-11-30 17:34:41
3,"[{'imgObject': {}, 'id': 'shreddedwheatwithmilk', 'src': '/static/foodstim60/shreddedwheatwithmilk.jpg', 'key': 'u', 'origWidth': 410, 'origHeight': 410, 'width': 410, 'height': 410, 'widthPercent': 0.45, 'rescaleHeight': False, 'trialN': 3, 'loaded': True, 'loadedTime': 3119.5, 'positionName': 'LEFT', 'positionCoords': [1241.2, 515], 'bid': 4.84}, {'imgObject': {}, 'id': 'roastedpotatoes', 'src': '/static/foodstim60/roastedpotatoes.jpg', 'key': 'i', 'origWidth': 409, 'origHeight': 410, 'width': 409, 'height': 410, 'widthPercent': 0.45, 'rescaleHeight': False, 'trialN': 3, 'loaded': True, 'loadedTime': 3083.10000000149, 'positionName': 'RIGHT', 'positionCoords': [1788.8, 515], 'bid': 6.97}]",8140.400000002235,1669829408801,shreddedwheatwithmilk,roastedpotatoes,4.84,6.97,2.13,roastedpotatoes,935.6999999992549,936,935.8999999985099,True,i,9590.0,1449.5999999977648,1669829410250,1449,HRV,HRV_0014,2022-11-30 17:34:41
4,"[{'imgObject': {}, 'id': 'apple slices', 'src': '/static/foodstim60/apple slices.jpg', 'key': 'u', 'origWidth': 409, 'origHeight': 410, 'width': 409, 'height': 410, 'widthPercent': 0.45, 'rescaleHeight': False, 'trialN': 4, 'loaded': True, 'loadedTime': 3093.900000002235, 'positionName': 'LEFT', 'positionCoords': [1242.2, 515], 'bid': 8.36}, {'imgObject': {}, 'id': 'banana', 'src': '/static/foodstim60/banana.jpg', 'key': 'i', 'origWidth': 410, 'origHeight': 410, 'width': 410, 'height': 410, 'widthPercent': 0.45, 'rescaleHeight': False, 'trialN': 4, 'loaded': True, 'loadedTime': 3109.5, 'positionName': 'RIGHT', 'positionCoords': [1788.8, 515], 'bid': 8.49}]",9590.400000002235,1669829410251,apple slices,banana,8.36,8.49,0.13000000000000078,apple slices,683.3999999985099,684,684.0,True,u,10787.900000002235,1197.5,1669829411448,1197,HRV,HRV_0014,2022-11-30 17:34:41
5,"[{'imgObject': {}, 'id': 'fried eggs', 'src': '/static/foodstim60/fried eggs.jpg', 'key': 'u', 'origWidth': 410, 'origHeight': 410, 'width': 410, 'height': 410, 'widthPercent': 0.45, 'rescaleHeight': False, 'trialN': 5, 'loaded': True, 'loadedTime': 3120.400000002235, 'positionName': 'LEFT', 'positionCoords': [1241.2, 515], 'bid': 8.4}, {'imgObject': {}, 'id': 'baked potato', 'src': '/static/foodstim60/baked potato.jpg', 'key': 'i', 'origWidth': 409, 'origHeight': 410, 'width': 409, 'height': 410, 'widthPercent': 0.45, 'rescaleHeight': False, 'trialN': 5, 'loaded': True, 'loadedTime': 3120.900000002235, 'positionName': 'RIGHT', 'positionCoords': [1788.8, 515], 'bid': 5.05}]",10788.300000000745,1669829411449,fried eggs,baked potato,8.4,5.05,-3.3500000000000005,fried eggs,1080.3999999985099,1081,1081.1000000014901,True,u,12379.10000000149,1590.800000000745,1669829413039,1590,HRV,HRV_0014,2022-11-30 17:34:41
6,"[{'imgObject': {}, 'id': 'chicken nuggets2', 'src': '/static/foodstim60/chicken nuggets2.jpg', 'key': 'u', 'origWidth': 410, 'origHeight': 409, 'width': 410, 'height': 409, 'widthPercent': 0.45, 'rescaleHeight': False, 'trialN': 6, 'loaded': True, 'loadedTime': 3121.5, 'positionName': 'LEFT', 'positionCoords': [1241.2, 515.5], 'bid': 8.22}, {'imgObject': {}, 'id': 'ice cream sundae 002', 'src': '/static/foodstim60/ice cream sundae 002.jpg', 'key': 'i', 'origWidth': 409, 'origHeight': 409, 'width': 409, 'height': 409, 'widthPercent': 0.45, 'rescaleHeight': False, 'trialN': 6, 'loaded': True, 'loadedTime': 3122.800000000745, 'positionName': 'RIGHT', 'positionCoords': [1788.8, 515.5], 'bid': 6.57}]",12379.60000000149,1669829413040,chicken nuggets2,ice cream sundae 002,8.22,6.57,-1.6500000000000004,chicken nuggets2,716.8000000007451,717,717.3999999985099,True,u,13611.900000002235,1232.300000000745,1669829414272,1232,HRV,HRV_0014,2022-11-30 17:34:41
7,"[{'imgObject': {}, 'id': 'popsicles', 'src': '/static/foodstim60/popsicles.jpg', 'key': 'u', 'origWidth': 410, 'origHeight': 410, 'width': 410, 'height': 410, 'widthPercent': 0.45, 'rescaleHeight': False, 'trialN': 7, 'loaded': True, 'loadedTime': 3128.699999999255, 'positionName': 'LEFT', 'positionCoords': [1241.2, 515], 'bid': 5.01}, {'imgObject': {}, 'id': 'edamame', 'src': '/static/foodstim60/edamame.jpg', 'key': 'i', 'origWidth': 409, 'origHeight': 410, 'width': 409, 'height': 410, 'widthPercent': 0.45, 'rescaleHeight': False, 'trialN': 7, 'loaded': True, 'loadedTime': 3129.800000000745, 'positionName': 'RIGHT', 'positionCoords': [1788.8, 515], 'bid': 0.86}]",13612.300000000745,1669829414273,popsicles,edamame,5.01,0.86,-4.1499999999999995,popsicles,1157.6000000014901,1158,1158.1000000014901,True,u,15279.0,1666.699999999255,1669829415939,1666,HRV,HRV_0014,2022-11-30 17:34:41
8,"[{'imgObject': {}, 'id': 'strawberries', 'src': '/static/foodstim60/strawberries.jpg', 'key': 'u', 'origWidth': 410, 'origHeight': 410, 'width': 410, 'height': 410, 'widthPercent': 0.45, 'rescaleHeight': False, 'trialN': 8, 'loaded': True, 'loadedTime': 3130.5, 'positionName': 'LEFT', 'positionCoords': [1241.2, 515], 'bid': 9.81}, {'imgObject': {}, 'id': 'blueberries', 'src': '/static/foodstim60/blueberries.jpg', 'key': 'i', 'origWidth': 411, 'origHeight': 411, 'width': 411, 'height': 411, 'widthPercent': 0.45, 'rescaleHeight': False, 'trialN': 8, 'loaded': True, 'loadedTime': 3118.5, 'positionName': 'RIGHT', 'positionCoords': [1788.8, 514.5], 'bid': 6.23}]",15279.400000002235,1669829415940,strawberries,blueberries,9.81,6.23,-3.58,strawberries,765.3999999985099,766,766.0999999977648,True,u,16561.400000002235,1282.0,1669829417222,1282,HRV,HRV_0014,2022-11-30 17:34:41
9,"[{'imgObject': {}, 'id': 'omelette', 'src': '/static/foodstim60/omelette.jpg', 'key': 'u', 'origWidth': 410, 'origHeight': 409, 'width': 410, 'height': 409, 'widthPercent': 0.45, 'rescaleHeight': False, 'trialN': 9, 'loaded': True, 'loadedTime': 3131, 'positionName': 'LEFT', 'positionCoords': [1241.2, 515.5], 'bid': 8.33}, {'imgObject': {}, 'id': 'steak', 'src': '/static/foodstim60/steak.jpg', 'key': 'i', 'origWidth': 410, 'origHeight': 410, 'width': 410, 'height': 410, 'widthPercent': 0.45, 'rescaleHeight': False, 'trialN': 9, 'loaded': True, 'loadedTime': 3131.699999999255, 'positionName': 'RIGHT', 'positionCoords': [1788.8, 515], 'bid': 8.99}]",16561.60000000149,1669829417222,omelette,steak,8.33,8.99,0.6600000000000001,omelette,951.3999999985099,952,952.0,True,u,18025.300000000745,1463.699999999255,1669829418686,1464,HRV,HRV_0014,2022-11-30 17:34:41
10,"[{'imgObject': {}, 'id': 'salad w chicken', 'src': '/static/foodstim60/salad w chicken.jpg', 'key': 'u', 'origWidth': 411, 'origHeight': 411, 'width': 411, 'height': 411, 'widthPercent': 0.45, 'rescaleHeight': False, 'trialN': 10, 'loaded': True, 'loadedTime': 3131.800000000745, 'positionName': 'LEFT', 'positionCoords': [1240.2, 514.5], 'bid': 5.0200000000000005}, {'imgObject': {}, 'id': 'salmon', 'src': '/static/foodstim60/salmon.jpg', 'key': 'i', 'origWidth': 410, 'origHeight': 409, 'width': 410, 'height': 409, 'widthPercent': 0.45, 'rescaleHeight': False, 'trialN': 10, 'loaded': True, 'loadedTime': 3132.699999999255, 'positionName': 'RIGHT', 'positionCoords': [1788.8, 515.5], 'bid': 8.22}]",18025.800000000745,1669829418686,salad w chicken,salmon,5.0200000000000005,8.22,3.2,salad w chicken,1098.300000000745,1099,1099.1000000014901,True,u,19630.699999999255,1604.8999999985099,1669829420291,1605,HRV,HRV_0014,2022-11-30 17:34:41
11,"[{'imgObject': {}, 'id': 'veggieswithdip', 'src': '/static/foodstim60/veggieswithdip.jpg', 'key': 'u', 'origWidth': 409, 'origHeight': 409, 'width': 409, 'height': 409, 'widthPercent': 0.45, 'rescaleHeight': False, 'trialN': 11, 'loaded': True, 'loadedTime': 3133.699999999255, 'positionName': 'LEFT', 'positionCoords': [1242.2, 515.5], 'bid': 5.01}, {'imgObject': {}, 'id': 'shreddedwheatwithmilk', 'src': '/static/foodstim60/shreddedwheatwithmilk.jpg', 'key': 'i', 'origWidth': 410, 'origHeight': 410, 'width': 410, 'height': 410, 'widthPercent': 0.45, 'rescaleHeight': False, 'trialN': 11, 'loaded': True, 'loadedTime': 3119.60000000149, 'positionName': 'RIGHT', 'positionCoords': [1788.8, 515], 'bid': 4.84}]",19631.0,1669829420291,veggieswithdip,shreddedwheatwithmilk,5.01,4.84,-0.16999999999999993,shreddedwheatwithmilk,943.8000000007451,945,944.3000000007451,True,i,21087.199999999255,1456.199999999255,1669829421748,1457,HRV,HRV_0014,2022-11-30 17:34:41
12,"[{'imgObject': {}, 'id': 'tacos', 'src': '/static/foodstim60/tacos.jpg', 'key': 'u', 'origWidth': 411, 'origHeight': 411, 'width': 411, 'height': 411, 'widthPercent': 0.45, 'rescaleHeight': False, 'trialN': 12, 'loaded': True, 'loadedTime': 3135.300000000745, 'positionName': 'LEFT', 'positionCoords': [1240.2, 514.5], 'bid': 8.620000000000001}, {'imgObject': {}, 'id': 'turkey sandwich', 'src': '/static/foodstim60/turkey sandwich.jpg', 'key': 'i', 'origWidth': 409, 'origHeight': 409, 'width': 409, 'height': 409, 'widthPercent': 0.45, 'rescaleHeight': False, 'trialN': 12, 'loaded': True, 'loadedTime': 3145.400000002235, 'positionName': 'RIGHT', 'positionCoords': [1788.8, 515.5], 'bid': 7.95}]",21087.699999999255,1669829421748,tacos,turkey sandwich,8.620000000000001,7.95,-0.6700000000000008,turkey sandwich,818.2000000029802,819,818.7000000029802,True,i,22410.60000000149,1322.9000000022352,1669829423071,1323,HRV,HRV_0014,2022-11-30 17:34:41
13,"[{'imgObject': {}, 'id': 'froot loops w milk', 'src': '/static/foodstim60/froot loops w milk.jpg', 'key': 'u', 'origWidth': 410, 'origHeight': 410, 'width': 410, 'height': 410, 'widthPercent': 0.45, 'rescaleHeight': False, 'trialN': 13, 'loaded': True, 'loadedTime': 3151.800000000745, 'positionName': 'LEFT', 'positionCoords': [1241.2, 515], 'bid': 5}, {'imgObject': {}, 'id': 'raisin bran w milk', 'src': '/static/foodstim60/raisin bran w milk.jpg', 'key': 'i', 'origWidth': 411, 'origHeight': 411, 'width': 411, 'height': 411, 'widthPercent': 0.45, 'rescaleHeight': False, 'trialN': 13, 'loaded': True, 'loadedTime': 3155.699999999255, 'positionName': 'RIGHT', 'positionCoords': [1788.8, 514.5], 'bid': 5.01}]",22411.0,1669829423071,froot loops w milk,raisin bran w milk,5.0,5.01,0.009999999999999787,raisin bran w milk,786,787,786.4000000022352,True,i,23706.199999999255,1295.199999999255,1669829424367,1296,HRV,HRV_0014,2022-11-30 17:34:41
14,"[{'imgObject': {}, 'id': 'rigatoni', 'src': '/static/foodstim60/rigatoni.jpg', 'key': 'u', 'origWidth': 411, 'origHeight': 411, 'width': 411, 'height': 411, 'widthPercent': 0.45, 'rescaleHeight': False, 'trialN': 14, 'loaded': True, 'loadedTime': 3161.60000000149, 'positionName': 'LEFT', 'positionCoords': [1240.2, 514.5], 'bid': 5.33}, {'imgObject': {}, 'id': 'mango', 'src': '/static/foodstim60/mango.jpg', 'key': 'i', 'origWidth': 411, 'origHeight': 411, 'width': 411, 'height': 411, 'widthPercent': 0.45, 'rescaleHeight': False, 'trialN': 14, 'loaded': True, 'loadedTime': 3117.199999999255, 'positionName': 'RIGHT', 'positionCoords': [1788.8, 514.5], 'bid': 6.54}]",23706.5,1669829424367,rigatoni,mango,5.33,6.54,1.21,rigatoni,1204.6000000014901,1205,1205.1000000014901,True,u,25423.0,1716.5,1669829426083,1716,HRV,HRV_0014,2022-11-30 17:34:41
15,"[{'imgObject': {}, 'id': 'popsicles', 'src': '/static/foodstim60/popsicles.jpg', 'key': 'u', 'origWidth': 410, 'origHeight': 410, 'width': 410, 'height': 410, 'widthPercent': 0.45, 'rescaleHeight': False, 'trialN': 15, 'loaded': True, 'loadedTime': 3127.699999999255, 'positionName': 'LEFT', 'positionCoords': [1241.2, 515], 'bid': 5.01}, {'imgObject': {}, 'id': 'turkeysandwich', 'src': '/static/foodstim60/turkeysandwich.jpg', 'key': 'i', 'origWidth': 409, 'origHeight': 409, 'width': 409, 'height': 409, 'widthPercent': 0.45, 'rescaleHeight': False, 'trialN': 15, 'loaded': True, 'loadedTime': 3164.699999999255, 'positionName': 'RIGHT', 'positionCoords': [1788.8, 515.5], 'bid': 8.11}]",25423.400000002235,1669829426084,popsicles,turkeysandwich,5.01,8.11,3.0999999999999996,turkeysandwich,723.6999999992549,724,724.1999999992549,True,i,26652.699999999255,1229.2999999970198,1669829427313,1229,HRV,HRV_0014,2022-11-30 17:34:41
16,"[{'imgObject': {}, 'id': 'pear', 'src': '/static/foodstim60/pear.jpg', 'key': 'u', 'origWidth': 411, 'origHeight': 410, 'width': 411, 'height': 410, 'widthPercent': 0.45, 'rescaleHeight': False, 'trialN': 16, 'loaded': True, 'loadedTime': 3063.10000000149, 'positionName': 'LEFT', 'positionCoords': [1240.2, 515], 'bid': 6.94}, {'imgObject': {}, 'id': 'blueberries', 'src': '/static/foodstim60/blueberries.jpg', 'key': 'i', 'origWidth': 411, 'origHeight': 411, 'width': 411, 'height': 411, 'widthPercent': 0.45, 'rescaleHeight': False, 'trialN': 16, 'loaded': True, 'loadedTime': 3118.5, 'positionName': 'RIGHT', 'positionCoords': [1788.8, 514.5], 'bid': 6.23}]",26653.800000000745,1669829427314,pear,blueberries,6.94,6.23,-0.71,blueberries,904.5,905,904.8999999985099,True,i,28071.400000002235,1417.6000000014901,1669829428732,1418,HRV,HRV_0014,2022-11-30 17:34:41
17,"[{'imgObject': {}, 'id': 'mac & cheese', 'src': '/static/foodstim60/mac & cheese.jpg', 'key': 'u', 'origWidth': 410, 'origHeight': 410, 'width': 410, 'height': 410, 'widthPercent': 0.45, 'rescaleHeight': False, 'trialN': 17, 'loaded': True, 'loadedTime': 3174, 'positionName': 'LEFT', 'positionCoords': [1241.2, 515], 'bid': 5.48}, {'imgObject': {}, 'id': 'mashed potato', 'src': '/static/foodstim60/mashed potato.jpg', 'key': 'i', 'origWidth': 409, 'origHeight': 409, 'width': 409, 'height': 409, 'widthPercent': 0.45, 'rescaleHeight': False, 'trialN': 17, 'loaded': True, 'loadedTime': 3180.300000000745, 'positionName': 'RIGHT', 'positionCoords': [1788.8, 515.5], 'bid': 4.98}]",28072.10000000149,1669829428732,mac & cheese,mashed potato,5.48,4.98,-0.5,mac & cheese,651.8000000007451,653,652.3999999985099,True,u,29240.5,1168.3999999985099,1669829429901,1169,HRV,HRV_0014,2022-11-30 17:34:41
18,"[{'imgObject': {}, 'id': 'popsicles', 'src': '/static/foodstim60/popsicles.jpg', 'key': 'u', 'origWidth': 410, 'origHeight': 410, 'width': 410, 'height': 410, 'widthPercent': 0.45, 'rescaleHeight': False, 'trialN': 18, 'loaded': True, 'loadedTime': 3128.300000000745, 'positionName': 'LEFT', 'positionCoords': [1241.2, 515], 'bid': 5.01}, {'imgObject': {}, 'id': 'Tribe humus pita', 'src': '/static/foodstim60/Tribe humus pita.jpg', 'key': 'i', 'origWidth': 411, 'origHeight': 411, 'width': 411, 'height': 411, 'widthPercent': 0.45, 'rescaleHeight': False, 'trialN': 18, 'loaded': True, 'loadedTime': 3183.400000002235, 'positionName': 'RIGHT', 'positionCoords': [1788.8, 514.5], 'bid': 5}]",29240.800000000745,1669829429901,popsicles,Tribe humus pita,5.01,5.0,-0.009999999999999787,Tribe humus pita,1427.800000000745,1429,1428.300000000745,True,i,31184.800000000745,1944.0,1669829431845,1944,HRV,HRV_0014,2022-11-30 17:34:41
19,"[{'imgObject': {}, 'id': 'cherries', 'src': '/static/foodstim60/cherries.jpg', 'key': 'u', 'origWidth': 410, 'origHeight': 411, 'width': 410, 'height': 411, 'widthPercent': 0.45, 'rescaleHeight': False, 'trialN': 19, 'loaded': True, 'loadedTime': 3190.10000000149, 'positionName': 'LEFT', 'positionCoords': [1241.2, 514.5], 'bid': 6.07}, {'imgObject': {}, 'id': 'orange slices', 'src': '/static/foodstim60/orange slices.jpg', 'key': 'i', 'origWidth': 409, 'origHeight': 410, 'width': 409, 'height': 410, 'widthPercent': 0.45, 'rescaleHeight': False, 'trialN': 19, 'loaded': True, 'loadedTime': 3199.800000000745, 'positionName': 'RIGHT', 'positionCoords': [1788.8, 515], 'bid': 7.140000000000001}]",31185.0,1669829431845,cherries,orange slices,6.07,7.140000000000001,1.0700000000000003,orange slices,1501.5,1503,1502.199999999255,True,i,33207.300000000745,2022.300000000745,1669829433868,2023,HRV,HRV_0014,2022-11-30 17:34:41
20,"[{'imgObject': {}, 'id': 'blackbeanswithrice', 'src': '/static/foodstim60/blackbeanswithrice.jpg', 'key': 'u', 'origWidth': 410, 'origHeight': 410, 'width': 410, 'height': 410, 'widthPercent': 0.45, 'rescaleHeight': False, 'trialN': 20, 'loaded': True, 'loadedTime': 3199.800000000745, 'positionName': 'LEFT', 'positionCoords': [1241.2, 515], 'bid': 1.98}, {'imgObject': {}, 'id': 'hashbrowns', 'src': '/static/foodstim60/hashbrowns.jpg', 'key': 'i', 'origWidth': 411, 'origHeight': 410, 'width': 411, 'height': 410, 'widthPercent': 0.45, 'rescaleHeight': False, 'trialN': 20, 'loaded': True, 'loadedTime': 3209.400000002235, 'positionName': 'RIGHT', 'positionCoords': [1788.8, 515], 'bid': 4.99}]",33207.5,1669829433868,blackbeanswithrice,hashbrowns,1.98,4.99,3.0100000000000002,hashbrowns,921,921,921.4000000022352,True,i,34643.0,1435.5,1669829435303,1435,HRV,HRV_0014,2022-11-30 17:34:41
21,"[{'imgObject': {}, 'id': 'eggs', 'src': '/static/foodstim60/eggs.jpg', 'key': 'u', 'origWidth': 409, 'origHeight': 409, 'width': 409, 'height': 409, 'widthPercent': 0.45, 'rescaleHeight': False, 'trialN': 21, 'loaded': True, 'loadedTime': 3212.60000000149, 'positionName': 'LEFT', 'positionCoords': [1242.2, 515.5], 'bid': 7.26}, {'imgObject': {}, 'id': 'burger', 'src': '/static/foodstim60/burger.jpg', 'key': 'i', 'origWidth': 409, 'origHeight': 409, 'width': 409, 'height': 409, 'widthPercent': 0.45, 'rescaleHeight': False, 'trialN': 21, 'loaded': True, 'loadedTime': 3216.10000000149, 'positionName': 'RIGHT', 'positionCoords': [1788.8, 515.5], 'bid': 8.11}]",34643.300000000745,1669829435304,eggs,burger,7.26,8.11,0.8499999999999996,burger,887.8000000007451,888,888.3000000007451,True,i,36037.199999999255,1393.8999999985099,1669829436698,1394,HRV,HRV_0014,2022-11-30 17:34:41
22,"[{'imgObject': {}, 'id': 'bagel plain', 'src': '/static/foodstim60/bagel plain.jpg', 'key': 'u', 'origWidth': 410, 'origHeight': 410, 'width': 410, 'height': 410, 'widthPercent': 0.45, 'rescaleHeight': False, 'trialN': 22, 'loaded': True, 'loadedTime': 3218.699999999255, 'positionName': 'LEFT', 'positionCoords': [1241.2, 515], 'bid': 6.7700000000000005}, {'imgObject': {}, 'id': 'cherries', 'src': '/static/foodstim60/cherries.jpg', 'key': 'i', 'origWidth': 410, 'origHeight': 411, 'width': 410, 'height': 411, 'widthPercent': 0.45, 'rescaleHeight': False, 'trialN': 22, 'loaded': True, 'loadedTime': 3187, 'positionName': 'RIGHT', 'positionCoords': [1788.8, 514.5], 'bid': 6.07}]",36037.400000002235,1669829436698,bagel plain,cherries,6.7700000000000005,6.07,-0.7000000000000002,bagel plain,825.5999999977648,826,826.2999999970198,True,u,37374.60000000149,1337.199999999255,1669829438035,1337,HRV,HRV_0014,2022-11-30 17:34:41
23,"[{'imgObject': {}, 'id': 'steak', 'src': '/static/foodstim60/steak.jpg', 'key': 'u', 'origWidth': 410, 'origHeight': 410, 'width': 410, 'height': 410, 'widthPercent': 0.45, 'rescaleHeight': False, 'trialN': 23, 'loaded': True, 'loadedTime': 3131.800000000745, 'positionName': 'LEFT', 'positionCoords': [1241.2, 515], 'bid': 8.99}, {'imgObject': {}, 'id': 'rigatoni', 'src': '/static/foodstim60/rigatoni.jpg', 'key': 'i', 'origWidth': 411, 'origHeight': 411, 'width': 411, 'height': 411, 'widthPercent': 0.45, 'rescaleHeight': False, 'trialN': 23, 'loaded': True, 'loadedTime': 3161.5, 'positionName': 'RIGHT', 'positionCoords': [1788.8, 514.5], 'bid': 5.33}]",37374.60000000149,1669829438035,steak,rigatoni,8.99,5.33,-3.66,steak,715.5,716,715.8999999985099,True,u,38607.699999999255,1233.0999999977648,1669829439268,1233,HRV,HRV_0014,2022-11-30 17:34:41
24,"[{'imgObject': {}, 'id': 'bagel and cc', 'src': '/static/foodstim60/bagel and cc.jpg', 'key': 'u', 'origWidth': 410, 'origHeight': 410, 'width': 410, 'height': 410, 'widthPercent': 0.45, 'rescaleHeight': False, 'trialN': 24, 'loaded': True, 'loadedTime': 3225.60000000149, 'positionName': 'LEFT', 'positionCoords': [1241.2, 515], 'bid': 7.5}, {'imgObject': {}, 'id': 'orange slices', 'src': '/static/foodstim60/orange slices.jpg', 'key': 'i', 'origWidth': 409, 'origHeight': 410, 'width': 409, 'height': 410, 'widthPercent': 0.45, 'rescaleHeight': False, 'trialN': 24, 'loaded': True, 'loadedTime': 3196.900000002235, 'positionName': 'RIGHT', 'positionCoords': [1788.8, 515], 'bid': 7.140000000000001}]",38608.10000000149,1669829439268,bagel and cc,orange slices,7.5,7.140000000000001,-0.35999999999999943,bagel and cc,772.8000000007451,773,773.0,True,u,39894.60000000149,1286.5,1669829440555,1287,HRV,HRV_0014,2022-11-30 17:34:41
25,"[{'imgObject': {}, 'id': 'shreddedwheatwithmilk', 'src': '/static/foodstim60/shreddedwheatwithmilk.jpg', 'key': 'u', 'origWidth': 410, 'origHeight': 410, 'width': 410, 'height': 410, 'widthPercent': 0.45, 'rescaleHeight': False, 'trialN': 25, 'loaded': True, 'loadedTime': 3119.400000002235, 'positionName': 'LEFT', 'positionCoords': [1241.2, 515], 'bid': 4.84}, {'imgObject': {}, 'id': 'granola w milk', 'src': '/static/foodstim60/granola w milk.jpg', 'key': 'i', 'origWidth': 410, 'origHeight': 410, 'width': 410, 'height': 410, 'widthPercent': 0.45, 'rescaleHeight': False, 'trialN': 25, 'loaded': True, 'loadedTime': 3228.60000000149, 'positionName': 'RIGHT', 'positionCoords': [1788.8, 515], 'bid': 4.9}]",39894.900000002235,1669829440555,shreddedwheatwithmilk,granola w milk,4.84,4.9,0.0600000000000005,shreddedwheatwithmilk,1519.7999999970198,1520,1520.0999999977648,True,u,41933.900000002235,2039.0,1669829442594,2039,HRV,HRV_0014,2022-11-30 17:34:41
26,"[{'imgObject': {}, 'id': 'omelette', 'src': '/static/foodstim60/omelette.jpg', 'key': 'u', 'origWidth': 410, 'origHeight': 409, 'width': 410, 'height': 409, 'widthPercent': 0.45, 'rescaleHeight': False, 'trialN': 26, 'loaded': True, 'loadedTime': 3130.800000000745, 'positionName': 'LEFT', 'positionCoords': [1241.2, 515.5], 'bid': 8.33}, {'imgObject': {}, 'id': 'strawberries', 'src': '/static/foodstim60/strawberries.jpg', 'key': 'i', 'origWidth': 410, 'origHeight': 410, 'width': 410, 'height': 410, 'widthPercent': 0.45, 'rescaleHeight': False, 'trialN': 26, 'loaded': True, 'loadedTime': 3130.60000000149, 'positionName': 'RIGHT', 'positionCoords': [1788.8, 515], 'bid': 9.81}]",41934.300000000745,1669829442595,omelette,strawberries,8.33,9.81,1.4800000000000004,omelette,964.3000000007451,965,965.1000000014901,True,u,43416.800000000745,1482.5,1669829444077,1482,HRV,HRV_0014,2022-11-30 17:34:41
27,"[{'imgObject': {}, 'id': 'hotdog w must', 'src': '/static/foodstim60/hotdog w must.jpg', 'key': 'u', 'origWidth': 409, 'origHeight': 409, 'width': 409, 'height': 409, 'widthPercent': 0.45, 'rescaleHeight': False, 'trialN': 27, 'loaded': True, 'loadedTime': 3229.199999999255, 'positionName': 'LEFT', 'positionCoords': [1242.2, 515.5], 'bid': 7.99}, {'imgObject': {}, 'id': 'grilled chicken strips', 'src': '/static/foodstim60/grilled chicken strips.jpg', 'key': 'i', 'origWidth': 410, 'origHeight': 411, 'width': 410, 'height': 411, 'widthPercent': 0.45, 'rescaleHeight': False, 'trialN': 27, 'loaded': True, 'loadedTime': 3234.900000002235, 'positionName': 'RIGHT', 'positionCoords': [1788.8, 514.5], 'bid': 7.95}]",43416.800000000745,1669829444077,hotdog w must,grilled chicken strips,7.99,7.95,-0.040000000000000036,grilled chicken strips,757.3000000007451,758,757.6999999992549,True,i,44683.10000000149,1266.300000000745,1669829445343,1266,HRV,HRV_0014,2022-11-30 17:34:41
28,"[{'imgObject': {}, 'id': 'Grapes', 'src': '/static/foodstim60/Grapes.jpg', 'key': 'u', 'origWidth': 411, 'origHeight': 411, 'width': 411, 'height': 411, 'widthPercent': 0.45, 'rescaleHeight': False, 'trialN': 28, 'loaded': True, 'loadedTime': 3235.10000000149, 'positionName': 'LEFT', 'positionCoords': [1240.2, 514.5], 'bid': 5.04}, {'imgObject': {}, 'id': 'omelette', 'src': '/static/foodstim60/omelette.jpg', 'key': 'i', 'origWidth': 410, 'origHeight': 409, 'width': 410, 'height': 409, 'widthPercent': 0.45, 'rescaleHeight': False, 'trialN': 28, 'loaded': True, 'loadedTime': 3131, 'positionName': 'RIGHT', 'positionCoords': [1788.8, 515.5], 'bid': 8.33}]",44683.199999999255,1669829445344,Grapes,omelette,5.04,8.33,3.29,omelette,878.3000000007451,878,878.8000000007451,True,i,46070.10000000149,1386.9000000022352,1669829446730,1386,HRV,HRV_0014,2022-11-30 17:34:41
29,"[{'imgObject': {}, 'id': 'cocktailshrimp', 'src': '/static/foodstim60/cocktailshrimp.jpg', 'key': 'u', 'origWidth': 410, 'origHeight': 410, 'width': 410, 'height': 410, 'widthPercent': 0.45, 'rescaleHeight': False, 'trialN': 29, 'loaded': True, 'loadedTime': 3244.60000000149, 'positionName': 'LEFT', 'positionCoords': [1241.2, 515], 'bid': 8.73}, {'imgObject': {}, 'id': 'fruitsalad', 'src': '/static/foodstim60/fruitsalad.jpg', 'key': 'i', 'origWidth': 410, 'origHeight': 410, 'width': 410, 'height': 410, 'widthPercent': 0.45, 'rescaleHeight': False, 'trialN': 29, 'loaded': True, 'loadedTime': 3247.699999999255, 'positionName': 'RIGHT', 'positionCoords': [1788.8, 515], 'bid': 5.12}]",46070.400000002235,1669829446731,cocktailshrimp,fruitsalad,8.73,5.12,-3.6100000000000003,cocktailshrimp,973.7999999970198,974,974.3999999985099,True,u,47555.10000000149,1484.699999999255,1669829448215,1484,HRV,HRV_0014,2022-11-30 17:34:41
30,"[{'imgObject': {}, 'id': 'bagel and cc', 'src': '/static/foodstim60/bagel and cc.jpg', 'key': 'u', 'origWidth': 410, 'origHeight': 410, 'width': 410, 'height': 410, 'widthPercent': 0.45, 'rescaleHeight': False, 'trialN': 30, 'loaded': True, 'loadedTime': 3225, 'positionName': 'LEFT', 'positionCoords': [1241.2, 515], 'bid': 7.5}, {'imgObject': {}, 'id': 'raspberries', 'src': '/static/foodstim60/raspberries.jpg', 'key': 'i', 'origWidth': 411, 'origHeight': 411, 'width': 411, 'height': 411, 'widthPercent': 0.45, 'rescaleHeight': False, 'trialN': 30, 'loaded': True, 'loadedTime': 3118.900000002235, 'positionName': 'RIGHT', 'positionCoords': [1788.8, 514.5], 'bid': 6.48}]",47555.60000000149,1669829448216,bagel and cc,raspberries,7.5,6.48,-1.0199999999999996,bagel and cc,938.5,939,938.8999999985099,True,u,49005.0,1449.3999999985099,1669829449665,1449,HRV,HRV_0014,2022-11-30 17:34:41
31,"[{'imgObject': {}, 'id': 'apple slices', 'src': '/static/foodstim60/apple slices.jpg', 'key': 'u', 'origWidth': 409, 'origHeight': 410, 'width': 409, 'height': 410, 'widthPercent': 0.45, 'rescaleHeight': False, 'trialN': 31, 'loaded': True, 'loadedTime': 3100.199999999255, 'positionName': 'LEFT', 'positionCoords': [1242.2, 515], 'bid': 8.36}, {'imgObject': {}, 'id': 'chickenfingers', 'src': '/static/foodstim60/chickenfingers.jpg', 'key': 'i', 'origWidth': 410, 'origHeight': 410, 'width': 410, 'height': 410, 'widthPercent': 0.45, 'rescaleHeight': False, 'trialN': 31, 'loaded': True, 'loadedTime': 3254.699999999255, 'positionName': 'RIGHT', 'positionCoords': [1788.8, 515], 'bid': 9.09}]",49005.400000002235,1669829449666,apple slices,chickenfingers,8.36,9.09,0.7300000000000004,chickenfingers,687.3999999985099,688,687.8999999985099,True,i,50208.900000002235,1203.5,1669829450869,1203,HRV,HRV_0014,2022-11-30 17:34:41
32,"[{'imgObject': {}, 'id': 'tacos', 'src': '/static/foodstim60/tacos.jpg', 'key': 'u', 'origWidth': 411, 'origHeight': 411, 'width': 411, 'height': 411, 'widthPercent': 0.45, 'rescaleHeight': False, 'trialN': 32, 'loaded': True, 'loadedTime': 3135.300000000745, 'positionName': 'LEFT', 'positionCoords': [1240.2, 514.5], 'bid': 8.620000000000001}, {'imgObject': {}, 'id': 'luckycharms', 'src': '/static/foodstim60/luckycharms.jpg', 'key': 'i', 'origWidth': 410, 'origHeight': 409, 'width': 410, 'height': 409, 'widthPercent': 0.45, 'rescaleHeight': False, 'trialN': 32, 'loaded': True, 'loadedTime': 3255, 'positionName': 'RIGHT', 'positionCoords': [1788.8, 515.5], 'bid': 5.0600000000000005}]",50209.10000000149,1669829450869,tacos,luckycharms,8.620000000000001,5.0600000000000005,-3.5600000000000005,tacos,1219.5999999977648,1221,1220.0999999977648,True,u,51937.0,1727.8999999985099,1669829452597,1728,HRV,HRV_0014,2022-11-30 17:34:41
33,"[{'imgObject': {}, 'id': 'steak', 'src': '/static/foodstim60/steak.jpg', 'key': 'u', 'origWidth': 410, 'origHeight': 410, 'width': 410, 'height': 410, 'widthPercent': 0.45, 'rescaleHeight': False, 'trialN': 33, 'loaded': True, 'loadedTime': 3131.199999999255, 'positionName': 'LEFT', 'positionCoords': [1241.2, 515], 'bid': 8.99}, {'imgObject': {}, 'id': 'chickenfingers', 'src': '/static/foodstim60/chickenfingers.jpg', 'key': 'i', 'origWidth': 410, 'origHeight': 410, 'width': 410, 'height': 410, 'widthPercent': 0.45, 'rescaleHeight': False, 'trialN': 33, 'loaded': True, 'loadedTime': 3254.699999999255, 'positionName': 'RIGHT', 'positionCoords': [1788.8, 515], 'bid': 9.09}]",51937.300000000745,1669829452598,steak,chickenfingers,8.99,9.09,0.09999999999999964,steak,800.6000000014901,801,801.1999999992549,True,u,53248.199999999255,1310.8999999985099,1669829453908,1310,HRV,HRV_0014,2022-11-30 17:34:41
34,"[{'imgObject': {}, 'id': 'banana', 'src': '/static/foodstim60/banana.jpg', 'key': 'u', 'origWidth': 410, 'origHeight': 410, 'width': 410, 'height': 410, 'widthPercent': 0.45, 'rescaleHeight': False, 'trialN': 34, 'loaded': True, 'loadedTime': 3112.5, 'positionName': 'LEFT', 'positionCoords': [1241.2, 515], 'bid': 8.49}, {'imgObject': {}, 'id': 'sushi w_condiments', 'src': '/static/foodstim60/sushi w_condiments.jpg', 'key': 'i', 'origWidth': 410, 'origHeight': 410, 'width': 410, 'height': 410, 'widthPercent': 0.45, 'rescaleHeight': False, 'trialN': 34, 'loaded': True, 'loadedTime': 3258, 'positionName': 'RIGHT', 'positionCoords': [1788.8, 515], 'bid': 9.66}]",53248.5,1669829453909,banana,sushi w_condiments,8.49,9.66,1.17,sushi w_condiments,970.5,971,970.9000000022352,True,i,54734.10000000149,1485.6000000014901,1669829455395,1486,HRV,HRV_0014,2022-11-30 17:34:41
35,"[{'imgObject': {}, 'id': 'roastedpotatoes', 'src': '/static/foodstim60/roastedpotatoes.jpg', 'key': 'u', 'origWidth': 409, 'origHeight': 410, 'width': 409, 'height': 410, 'widthPercent': 0.45, 'rescaleHeight': False, 'trialN': 35, 'loaded': True, 'loadedTime': 3086.10000000149, 'positionName': 'LEFT', 'positionCoords': [1242.2, 515], 'bid': 6.97}, {'imgObject': {}, 'id': 'eggs', 'src': '/static/foodstim60/eggs.jpg', 'key': 'i', 'origWidth': 409, 'origHeight': 409, 'width': 409, 'height': 409, 'widthPercent': 0.45, 'rescaleHeight': False, 'trialN': 35, 'loaded': True, 'loadedTime': 3212.5, 'positionName': 'RIGHT', 'positionCoords': [1788.8, 515.5], 'bid': 7.26}]",54734.400000002235,1669829455395,roastedpotatoes,eggs,6.97,7.26,0.29000000000000004,roastedpotatoes,1167.0999999977648,1167,1167.5999999977648,True,u,56403.10000000149,1668.699999999255,1669829457063,1668,HRV,HRV_0014,2022-11-30 17:34:41
36,"[{'imgObject': {}, 'id': 'salmon', 'src': '/static/foodstim60/salmon.jpg', 'key': 'u', 'origWidth': 410, 'origHeight': 409, 'width': 410, 'height': 409, 'widthPercent': 0.45, 'rescaleHeight': False, 'trialN': 36, 'loaded': True, 'loadedTime': 3133.10000000149, 'positionName': 'LEFT', 'positionCoords': [1241.2, 515.5], 'bid': 8.22}, {'imgObject': {}, 'id': 'yogurt no spoon', 'src': '/static/foodstim60/yogurt no spoon.jpg', 'key': 'i', 'origWidth': 411, 'origHeight': 410, 'width': 411, 'height': 410, 'widthPercent': 0.45, 'rescaleHeight': False, 'trialN': 36, 'loaded': True, 'loadedTime': 3103.60000000149, 'positionName': 'RIGHT', 'positionCoords': [1788.8, 515], 'bid': 6.59}]",56403.699999999255,1669829457064,salmon,yogurt no spoon,8.22,6.59,-1.6300000000000008,yogurt no spoon,751.4000000022352,752,752.2000000029802,True,i,57666.199999999255,1262.5,1669829458326,1262,HRV,HRV_0014,2022-11-30 17:34:41
37,"[{'imgObject': {}, 'id': 'fried eggs', 'src': '/static/foodstim60/fried eggs.jpg', 'key': 'u', 'origWidth': 410, 'origHeight': 410, 'width': 410, 'height': 410, 'widthPercent': 0.45, 'rescaleHeight': False, 'trialN': 37, 'loaded': True, 'loadedTime': 3120.400000002235, 'positionName': 'LEFT', 'positionCoords': [1241.2, 515], 'bid': 8.4}, {'imgObject': {}, 'id': 'burrito', 'src': '/static/foodstim60/burrito.jpg', 'key': 'i', 'origWidth': 410, 'origHeight': 410, 'width': 410, 'height': 410, 'widthPercent': 0.45, 'rescaleHeight': False, 'trialN': 37, 'loaded': True, 'loadedTime': 3258.5, 'positionName': 'RIGHT', 'positionCoords': [1788.8, 515], 'bid': 7.69}]",57666.5,1669829458327,fried eggs,burrito,8.4,7.69,-0.71,burrito,1185.699999999255,1186,1186.300000000745,True,i,59364.900000002235,1698.4000000022352,1669829460025,1698,HRV,HRV_0014,2022-11-30 17:34:41
38,"[{'imgObject': {}, 'id': 'veggieswithdip', 'src': '/static/foodstim60/veggieswithdip.jpg', 'key': 'u', 'origWidth': 409, 'origHeight': 409, 'width': 409, 'height': 409, 'widthPercent': 0.45, 'rescaleHeight': False, 'trialN': 38, 'loaded': True, 'loadedTime': 3133.199999999255, 'positionName': 'LEFT', 'positionCoords': [1242.2, 515.5], 'bid': 5.01}, {'imgObject': {}, 'id': 'salad w chicken', 'src': '/static/foodstim60/salad w chicken.jpg', 'key': 'i', 'origWidth': 411, 'origHeight': 411, 'width': 411, 'height': 411, 'widthPercent': 0.45, 'rescaleHeight': False, 'trialN': 38, 'loaded': True, 'loadedTime': 3132.60000000149, 'positionName': 'RIGHT', 'positionCoords': [1788.8, 514.5], 'bid': 5.0200000000000005}]",59365.10000000149,1669829460025,veggieswithdip,salad w chicken,5.01,5.0200000000000005,0.010000000000000675,salad w chicken,938.5999999977648,940,939.3999999985099,True,i,60812.199999999255,1447.0999999977648,1669829461473,1448,HRV,HRV_0014,2022-11-30 17:34:41
39,"[{'imgObject': {}, 'id': 'olives', 'src': '/static/foodstim60/olives.jpg', 'key': 'u', 'origWidth': 410, 'origHeight': 410, 'width': 410, 'height': 410, 'widthPercent': 0.45, 'rescaleHeight': False, 'trialN': 39, 'loaded': True, 'loadedTime': 3261.199999999255, 'positionName': 'LEFT', 'positionCoords': [1241.2, 515], 'bid': 3.01}, {'imgObject': {}, 'id': 'mashed potato', 'src': '/static/foodstim60/mashed potato.jpg', 'key': 'i', 'origWidth': 409, 'origHeight': 409, 'width': 409, 'height': 409, 'widthPercent': 0.45, 'rescaleHeight': False, 'trialN': 39, 'loaded': True, 'loadedTime': 3177, 'positionName': 'RIGHT', 'positionCoords': [1788.8, 515.5], 'bid': 4.98}]",60812.400000002235,1669829461473,olives,mashed potato,3.01,4.98,1.9700000000000006,mashed potato,916.7999999970198,917,916.8999999985099,True,i,62248.10000000149,1435.699999999255,1669829462908,1435,HRV,HRV_0014,2022-11-30 17:34:41
40,"[{'imgObject': {}, 'id': 'olives', 'src': '/static/foodstim60/olives.jpg', 'key': 'u', 'origWidth': 410, 'origHeight': 410, 'width': 410, 'height': 410, 'widthPercent': 0.45, 'rescaleHeight': False, 'trialN': 40, 'loaded': True, 'loadedTime': 3258.5, 'positionName': 'LEFT', 'positionCoords': [1241.2, 515], 'bid': 3.01}, {'imgObject': {}, 'id': 'cherry tomato', 'src': '/static/foodstim60/cherry tomato.jpg', 'key': 'i', 'origWidth': 410, 'origHeight': 410, 'width': 410, 'height': 410, 'widthPercent': 0.45, 'rescaleHeight': False, 'trialN': 40, 'loaded': True, 'loadedTime': 3264.5, 'positionName': 'RIGHT', 'positionCoords': [1788.8, 515], 'bid': 3.04}]",62248.400000002235,1669829462909,olives,cherry tomato,3.01,3.04,0.03000000000000025,cherry tomato,1482.8999999985099,1483,1483.3999999985099,True,i,64241.800000000745,1993.3999999985099,1669829464902,1993,HRV,HRV_0014,2022-11-30 17:34:41
41,"[{'imgObject': {}, 'id': 'froot loops w milk', 'src': '/static/foodstim60/froot loops w milk.jpg', 'key': 'u', 'origWidth': 410, 'origHeight': 410, 'width': 410, 'height': 410, 'widthPercent': 0.45, 'rescaleHeight': False, 'trialN': 41, 'loaded': True, 'loadedTime': 3155, 'positionName': 'LEFT', 'positionCoords': [1241.2, 515], 'bid': 5}, {'imgObject': {}, 'id': 'Grapes', 'src': '/static/foodstim60/Grapes.jpg', 'key': 'i', 'origWidth': 411, 'origHeight': 411, 'width': 411, 'height': 411, 'widthPercent': 0.45, 'rescaleHeight': False, 'trialN': 41, 'loaded': True, 'loadedTime': 3238.300000000745, 'positionName': 'RIGHT', 'positionCoords': [1788.8, 514.5], 'bid': 5.04}]",64242.10000000149,1669829464902,froot loops w milk,Grapes,5.0,5.04,0.040000000000000036,froot loops w milk,1531.699999999255,1533,1532.300000000745,True,u,66289.80000000075,2047.699999999255,1669829466950,2048,HRV,HRV_0014,2022-11-30 17:34:41
42,"[{'imgObject': {}, 'id': 'apple slices', 'src': '/static/foodstim60/apple slices.jpg', 'key': 'u', 'origWidth': 409, 'origHeight': 410, 'width': 409, 'height': 410, 'widthPercent': 0.45, 'rescaleHeight': False, 'trialN': 42, 'loaded': True, 'loadedTime': 3103, 'positionName': 'LEFT', 'positionCoords': [1242.2, 515], 'bid': 8.36}, {'imgObject': {}, 'id': 'pear', 'src': '/static/foodstim60/pear.jpg', 'key': 'i', 'origWidth': 411, 'origHeight': 410, 'width': 411, 'height': 410, 'widthPercent': 0.45, 'rescaleHeight': False, 'trialN': 42, 'loaded': True, 'loadedTime': 3068.300000000745, 'positionName': 'RIGHT', 'positionCoords': [1788.8, 515], 'bid': 6.94}]",66290.30000000075,1669829466951,apple slices,pear,8.36,6.94,-1.419999999999999,apple slices,830.1000000014901,830,830.8000000007451,True,u,67633.30000000075,1343.0,1669829468294,1343,HRV,HRV_0014,2022-11-30 17:34:41
43,"[{'imgObject': {}, 'id': 'sushi w_condiments', 'src': '/static/foodstim60/sushi w_condiments.jpg', 'key': 'u', 'origWidth': 410, 'origHeight': 410, 'width': 410, 'height': 410, 'widthPercent': 0.45, 'rescaleHeight': False, 'trialN': 43, 'loaded': True, 'loadedTime': 3257.900000002235, 'positionName': 'LEFT', 'positionCoords': [1241.2, 515], 'bid': 9.66}, {'imgObject': {}, 'id': 'turkey sandwich', 'src': '/static/foodstim60/turkey sandwich.jpg', 'key': 'i', 'origWidth': 409, 'origHeight': 409, 'width': 409, 'height': 409, 'widthPercent': 0.45, 'rescaleHeight': False, 'trialN': 43, 'loaded': True, 'loadedTime': 3142.400000002235, 'positionName': 'RIGHT', 'positionCoords': [1788.8, 515.5], 'bid': 7.95}]",67633.40000000224,1669829468294,sushi w_condiments,turkey sandwich,9.66,7.95,-1.71,turkey sandwich,1296.3999999985099,1296,1296.7999999970198,True,i,69441.10000000149,1807.699999999255,1669829470101,1807,HRV,HRV_0014,2022-11-30 17:34:41
44,"[{'imgObject': {}, 'id': 'eggsalad', 'src': '/static/foodstim60/eggsalad.jpg', 'key': 'u', 'origWidth': 410, 'origHeight': 409, 'width': 410, 'height': 409, 'widthPercent': 0.45, 'rescaleHeight': False, 'trialN': 44, 'loaded': True, 'loadedTime': 3267.699999999255, 'positionName': 'LEFT', 'positionCoords': [1241.2, 515.5], 'bid': 4.97}, {'imgObject': {}, 'id': 'fruitsalad', 'src': '/static/foodstim60/fruitsalad.jpg', 'key': 'i', 'origWidth': 410, 'origHeight': 410, 'width': 410, 'height': 410, 'widthPercent': 0.45, 'rescaleHeight': False, 'trialN': 44, 'loaded': True, 'loadedTime': 3250.900000002235, 'positionName': 'RIGHT', 'positionCoords': [1788.8, 515], 'bid': 5.12}]",69441.5,1669829470102,eggsalad,fruitsalad,4.97,5.12,0.15000000000000036,eggsalad,1100.6000000014901,1101,1101.0,True,u,71061.40000000224,1619.9000000022352,1669829471722,1620,HRV,HRV_0014,2022-11-30 17:34:41
45,"[{'imgObject': {}, 'id': 'shreddedwheatwithmilk', 'src': '/static/foodstim60/shreddedwheatwithmilk.jpg', 'key': 'u', 'origWidth': 410, 'origHeight': 410, 'width': 410, 'height': 410, 'widthPercent': 0.45, 'rescaleHeight': False, 'trialN': 45, 'loaded': True, 'loadedTime': 3119.5, 'positionName': 'LEFT', 'positionCoords': [1241.2, 515], 'bid': 4.84}, {'imgObject': {}, 'id': 'olives', 'src': '/static/foodstim60/olives.jpg', 'key': 'i', 'origWidth': 410, 'origHeight': 410, 'width': 410, 'height': 410, 'widthPercent': 0.45, 'rescaleHeight': False, 'trialN': 45, 'loaded': True, 'loadedTime': 3261.300000000745, 'positionName': 'RIGHT', 'positionCoords': [1788.8, 515], 'bid': 3.01}]",71061.69999999925,1669829471722,shreddedwheatwithmilk,olives,4.84,3.01,-1.83,shreddedwheatwithmilk,897,897,897.6000000014901,True,u,72477.30000000075,1415.6000000014901,1669829473137,1415,HRV,HRV_0014,2022-11-30 17:34:41
46,"[{'imgObject': {}, 'id': 'cocktailshrimp', 'src': '/static/foodstim60/cocktailshrimp.jpg', 'key': 'u', 'origWidth': 410, 'origHeight': 410, 'width': 410, 'height': 410, 'widthPercent': 0.45, 'rescaleHeight': False, 'trialN': 46, 'loaded': True, 'loadedTime': 3241.900000002235, 'positionName': 'LEFT', 'positionCoords': [1241.2, 515], 'bid': 8.73}, {'imgObject': {}, 'id': 'eggs', 'src': '/static/foodstim60/eggs.jpg', 'key': 'i', 'origWidth': 409, 'origHeight': 409, 'width': 409, 'height': 409, 'widthPercent': 0.45, 'rescaleHeight': False, 'trialN': 46, 'loaded': True, 'loadedTime': 3215.5, 'positionName': 'RIGHT', 'positionCoords': [1788.8, 515.5], 'bid': 7.26}]",72477.69999999925,1669829473138,cocktailshrimp,eggs,8.73,7.26,-1.4700000000000006,cocktailshrimp,891.5,892,891.7000000029802,True,u,73884.90000000224,1407.2000000029802,1669829474545,1407,HRV,HRV_0014,2022-11-30 17:34:41
47,"[{'imgObject': {}, 'id': 'chickenfingers', 'src': '/static/foodstim60/chickenfingers.jpg', 'key': 'u', 'origWidth': 410, 'origHeight': 410, 'width': 410, 'height': 410, 'widthPercent': 0.45, 'rescaleHeight': False, 'trialN': 47, 'loaded': True, 'loadedTime': 3254.10000000149, 'positionName': 'LEFT', 'positionCoords': [1241.2, 515], 'bid': 9.09}, {'imgObject': {}, 'id': 'burrito', 'src': '/static/foodstim60/burrito.jpg', 'key': 'i', 'origWidth': 410, 'origHeight': 410, 'width': 410, 'height': 410, 'widthPercent': 0.45, 'rescaleHeight': False, 'trialN': 47, 'loaded': True, 'loadedTime': 3258.400000002235, 'positionName': 'RIGHT', 'positionCoords': [1788.8, 515], 'bid': 7.69}]",73885.19999999925,1669829474545,chickenfingers,burrito,9.09,7.69,-1.3999999999999995,chickenfingers,744.4000000022352,745,744.9000000022352,True,u,75150.69999999925,1265.5,1669829475811,1266,HRV,HRV_0014,2022-11-30 17:34:41
48,"[{'imgObject': {}, 'id': 'edamame', 'src': '/static/foodstim60/edamame.jpg', 'key': 'u', 'origWidth': 409, 'origHeight': 410, 'width': 409, 'height': 410, 'widthPercent': 0.45, 'rescaleHeight': False, 'trialN': 48, 'loaded': True, 'loadedTime': 3129.800000000745, 'positionName': 'LEFT', 'positionCoords': [1242.2, 515], 'bid': 0.86}, {'imgObject': {}, 'id': 'blackbeanswithrice', 'src': '/static/foodstim60/blackbeanswithrice.jpg', 'key': 'i', 'origWidth': 410, 'origHeight': 410, 'width': 410, 'height': 410, 'widthPercent': 0.45, 'rescaleHeight': False, 'trialN': 48, 'loaded': True, 'loadedTime': 3203.10000000149, 'positionName': 'RIGHT', 'positionCoords': [1788.8, 515], 'bid': 1.98}]",75151.19999999925,1669829475811,edamame,blackbeanswithrice,0.86,1.98,1.12,blackbeanswithrice,658.3000000007451,659,658.7000000029802,True,i,76326.80000000075,1175.6000000014901,1669829476987,1176,HRV,HRV_0014,2022-11-30 17:34:41
49,"[{'imgObject': {}, 'id': 'cheerios', 'src': '/static/foodstim60/cheerios.jpg', 'key': 'u', 'origWidth': 409, 'origHeight': 410, 'width': 409, 'height': 410, 'widthPercent': 0.45, 'rescaleHeight': False, 'trialN': 49, 'loaded': True, 'loadedTime': 3267.900000002235, 'positionName': 'LEFT', 'positionCoords': [1242.2, 515], 'bid': 5.0600000000000005}, {'imgObject': {}, 'id': 'fruitsalad', 'src': '/static/foodstim60/fruitsalad.jpg', 'key': 'i', 'origWidth': 410, 'origHeight': 410, 'width': 410, 'height': 410, 'widthPercent': 0.45, 'rescaleHeight': False, 'trialN': 49, 'loaded': True, 'loadedTime': 3248.199999999255, 'positionName': 'RIGHT', 'positionCoords': [1788.8, 515], 'bid': 5.12}]",76327.10000000149,1669829476987,cheerios,fruitsalad,5.0600000000000005,5.12,0.05999999999999961,NaN,NaN,NaN,,False,NaN,80357.30000000075,4030.199999999255,1669829481017,4030,HRV,HRV_0014,2022-11-30 17:34:41
50,"[{'imgObject': {}, 'id': 'turkey sandwich', 'src': '/static/foodstim60/turkey sandwich.jpg', 'key': 'u', 'origWidth': 409, 'origHeight': 409, 'width': 409, 'height': 409, 'widthPercent': 0.45, 'rescaleHeight': False, 'trialN': 50, 'loaded': True, 'loadedTime': 3142.199999999255, 'positionName': 'LEFT', 'positionCoords': [1242.2, 515.5], 'bid': 7.95}, {'imgObject': {}, 'id': 'roastedpotatoes', 'src': '/static/foodstim60/roastedpotatoes.jpg', 'key': 'i', 'origWidth': 409, 'origHeight': 410, 'width': 409, 'height': 410, 'widthPercent': 0.45, 'rescaleHeight': False, 'trialN': 50, 'loaded': True, 'loadedTime': 3083.199999999255, 'positionName': 'RIGHT', 'positionCoords': [1788.8, 515], 'bid': 6.97}]",80357.60000000149,1669829481018,turkey sandwich,roastedpotatoes,7.95,6.97,-0.9800000000000004,roastedpotatoes,947.8999999985099,948,948.5999999977648,True,i,81821.90000000224,1464.300000000745,1669829482482,1464,HRV,HRV_0014,2022-11-30 17:34:41
51,"[{'imgObject': {}, 'id': 'eggsalad', 'src': '/static/foodstim60/eggsalad.jpg', 'key': 'u', 'origWidth': 410, 'origHeight': 409, 'width': 410, 'height': 409, 'widthPercent': 0.45, 'rescaleHeight': False, 'trialN': 51, 'loaded': True, 'loadedTime': 3267.800000000745, 'positionName': 'LEFT', 'positionCoords': [1241.2, 515.5], 'bid': 4.97}, {'imgObject': {}, 'id': 'Grapes', 'src': '/static/foodstim60/Grapes.jpg', 'key': 'i', 'origWidth': 411, 'origHeight': 411, 'width': 411, 'height': 411, 'widthPercent': 0.45, 'rescaleHeight': False, 'trialN': 51, 'loaded': True, 'loadedTime': 3238.300000000745, 'positionName': 'RIGHT', 'positionCoords': [1788.8, 514.5], 'bid': 5.04}]",81822.10000000149,1669829482482,eggsalad,Grapes,4.97,5.04,0.07000000000000028,eggsalad,877.1999999992549,878,877.8000000007451,True,u,83204.80000000075,1382.699999999255,1669829483865,1383,HRV,HRV_0014,2022-11-30 17:34:41
52,"[{'imgObject': {}, 'id': 'seaweed', 'src': '/static/foodstim60/seaweed.jpg', 'key': 'u', 'origWidth': 410, 'origHeight': 410, 'width': 410, 'height': 410, 'widthPercent': 0.45, 'rescaleHeight': False, 'trialN': 52, 'loaded': True, 'loadedTime': 3269, 'positionName': 'LEFT', 'positionCoords': [1241.2, 515], 'bid': 9.95}, {'imgObject': {}, 'id': 'cocktailshrimp', 'src': '/static/foodstim60/cocktailshrimp.jpg', 'key': 'i', 'origWidth': 410, 'origHeight': 410, 'width': 410, 'height': 410, 'widthPercent': 0.45, 'rescaleHeight': False, 'trialN': 52, 'loaded': True, 'loadedTime': 3241.300000000745, 'positionName': 'RIGHT', 'positionCoords': [1788.8, 515], 'bid': 8.73}]",83205.10000000149,1669829483865,seaweed,cocktailshrimp,9.95,8.73,-1.2199999999999989,seaweed,1389.699999999255,1390,1389.8999999985099,True,u,85104.19999999925,1899.0999999977648,1669829485764,1899,HRV,HRV_0014,2022-11-30 17:34:41
53,"[{'imgObject': {}, 'id': 'rigatoni and sauce', 'src': '/static/foodstim60/rigatoni and sauce.jpg', 'key': 'u', 'origWidth': 410, 'origHeight': 411, 'width': 410, 'height': 411, 'widthPercent': 0.45, 'rescaleHeight': False, 'trialN': 53, 'loaded': True, 'loadedTime': 3269.5, 'positionName': 'LEFT', 'positionCoords': [1241.2, 514.5], 'bid': 5.91}, {'imgObject': {}, 'id': 'rigatoni', 'src': '/static/foodstim60/rigatoni.jpg', 'key': 'i', 'origWidth': 411, 'origHeight': 411, 'width': 411, 'height': 411, 'widthPercent': 0.45, 'rescaleHeight': False, 'trialN': 53, 'loaded': True, 'loadedTime': 3161.60000000149, 'positionName': 'RIGHT', 'positionCoords': [1788.8, 514.5], 'bid': 5.33}]",85104.60000000149,1669829485765,rigatoni and sauce,rigatoni,5.91,5.33,-0.5800000000000001,rigatoni and sauce,1247.699999999255,1248,1248.300000000745,True,u,86867.30000000075,1762.699999999255,1669829487527,1762,HRV,HRV_0014,2022-11-30 17:34:41
54,"[{'imgObject': {}, 'id': 'popsicles', 'src': '/static/foodstim60/popsicles.jpg', 'key': 'u', 'origWidth': 410, 'origHeight': 410, 'width': 410, 'height': 410, 'widthPercent': 0.45, 'rescaleHeight': False, 'trialN': 54, 'loaded': True, 'loadedTime': 3128.900000002235, 'positionName': 'LEFT', 'positionCoords': [1241.2, 515], 'bid': 5.01}, {'imgObject': {}, 'id': 'cherry tomato', 'src': '/static/foodstim60/cherry tomato.jpg', 'key': 'i', 'origWidth': 410, 'origHeight': 410, 'width': 410, 'height': 410, 'widthPercent': 0.45, 'rescaleHeight': False, 'trialN': 54, 'loaded': True, 'loadedTime': 3264.5, 'positionName': 'RIGHT', 'positionCoords': [1788.8, 515], 'bid': 3.04}]",86867.5,1669829487528,popsicles,cherry tomato,5.01,3.04,-1.9699999999999998,cherry tomato,1574.1000000014901,1574,1574.6000000014901,True,i,88958.90000000224,2091.400000002235,1669829489619,2091,HRV,HRV_0014,2022-11-30 17:34:41
55,"[{'imgObject': {}, 'id': 'lox', 'src': '/static/foodstim60/lox.jpg', 'key': 'u', 'origWidth': 410, 'origHeight': 411, 'width': 410, 'height': 411, 'widthPercent': 0.45, 'rescaleHeight': False, 'trialN': 55, 'loaded': True, 'loadedTime': 3272.800000000745, 'positionName': 'LEFT', 'positionCoords': [1241.2, 514.5], 'bid': 4.98}, {'imgObject': {}, 'id': 'avocado', 'src': '/static/foodstim60/avocado.jpg', 'key': 'i', 'origWidth': 409, 'origHeight': 409, 'width': 409, 'height': 409, 'widthPercent': 0.45, 'rescaleHeight': False, 'trialN': 55, 'loaded': True, 'loadedTime': 3273.300000000745, 'positionName': 'RIGHT', 'positionCoords': [1788.8, 515.5], 'bid': 2.87}]",88959.10000000149,1669829489619,lox,avocado,4.98,2.87,-2.1100000000000003,avocado,1624,1625,1624.3999999985099,True,i,91098.5,2139.39999999851,1669829491759,2140,HRV,HRV_0014,2022-11-30 17:34:41
56,"[{'imgObject': {}, 'id': 'rigatoni', 'src': '/static/foodstim60/rigatoni.jpg', 'key': 'u', 'origWidth': 411, 'origHeight': 411, 'width': 411, 'height': 411, 'widthPercent': 0.45, 'rescaleHeight': False, 'trialN': 56, 'loaded': True, 'loadedTime': 3158.5, 'positionName': 'LEFT', 'positionCoords': [1240.2, 514.5], 'bid': 5.33}, {'imgObject': {}, 'id': 'mac & cheese', 'src': '/static/foodstim60/mac & cheese.jpg', 'key': 'i', 'origWidth': 410, 'origHeight': 410, 'width': 410, 'height': 410, 'widthPercent': 0.45, 'rescaleHeight': False, 'trialN': 56, 'loaded': True, 'loadedTime': 3176.900000002235, 'positionName': 'RIGHT', 'positionCoords': [1788.8, 515], 'bid': 5.48}]",91098.90000000224,1669829491759,rigatoni,mac & cheese,5.33,5.48,0.15000000000000036,mac & cheese,825.2999999970198,826,825.7999999970198,True,i,92437.69999999925,1338.7999999970198,1669829493098,1339,HRV,HRV_0014,2022-11-30 17:34:41
57,"[{'imgObject': {}, 'id': 'Tribe humus pita', 'src': '/static/foodstim60/Tribe humus pita.jpg', 'key': 'u', 'origWidth': 411, 'origHeight': 411, 'width': 411, 'height': 411, 'widthPercent': 0.45, 'rescaleHeight': False, 'trialN': 57, 'loaded': True, 'loadedTime': 3186.699999999255, 'positionName': 'LEFT', 'positionCoords': [1240.2, 514.5], 'bid': 5}, {'imgObject': {}, 'id': 'avocado', 'src': '/static/foodstim60/avocado.jpg', 'key': 'i', 'origWidth': 409, 'origHeight': 409, 'width': 409, 'height': 409, 'widthPercent': 0.45, 'rescaleHeight': False, 'trialN': 57, 'loaded': True, 'loadedTime': 3276.10000000149, 'positionName': 'RIGHT', 'positionCoords': [1788.8, 515.5], 'bid': 2.87}]",92438.0,1669829493098,Tribe humus pita,avocado,5.0,2.87,-2.13,Tribe humus pita,1238.9000000022352,1240,1239.6000000014901,True,u,94179.19999999925,1741.199999999255,1669829494839,1741,HRV,HRV_0014,2022-11-30 17:34:41
58,"[{'imgObject': {}, 'id': 'avocado', 'src': '/static/foodstim60/avocado.jpg', 'key': 'u', 'origWidth': 409, 'origHeight': 409, 'width': 409, 'height': 409, 'widthPercent': 0.45, 'rescaleHeight': False, 'trialN': 58, 'loaded': True, 'loadedTime': 3273.300000000745, 'positionName': 'LEFT', 'positionCoords': [1242.2, 515.5], 'bid': 2.87}, {'imgObject': {}, 'id': 'blackbeanswithrice', 'src': '/static/foodstim60/blackbeanswithrice.jpg', 'key': 'i', 'origWidth': 410, 'origHeight': 410, 'width': 410, 'height': 410, 'widthPercent': 0.45, 'rescaleHeight': False, 'trialN': 58, 'loaded': True, 'loadedTime': 3203.199999999255, 'positionName': 'RIGHT', 'positionCoords': [1788.8, 515], 'bid': 1.98}]",94179.5,1669829494840,avocado,blackbeanswithrice,2.87,1.98,-0.8900000000000001,avocado,998,998,998.8000000007451,True,u,95693.60000000149,1514.1000000014901,1669829496354,1514,HRV,HRV_0014,2022-11-30 17:34:41
59,"[{'imgObject': {}, 'id': 'sushi w_condiments', 'src': '/static/foodstim60/sushi w_condiments.jpg', 'key': 'u', 'origWidth': 410, 'origHeight': 410, 'width': 410, 'height': 410, 'widthPercent': 0.45, 'rescaleHeight': False, 'trialN': 59, 'loaded': True, 'loadedTime': 3257.900000002235, 'positionName': 'LEFT', 'positionCoords': [1241.2, 515], 'bid': 9.66}, {'imgObject': {}, 'id': 'salmon', 'src': '/static/foodstim60/salmon.jpg', 'key': 'i', 'origWidth': 410, 'origHeight': 409, 'width': 410, 'height': 409, 'widthPercent': 0.45, 'rescaleHeight': False, 'trialN': 59, 'loaded': True, 'loadedTime': 3133, 'positionName': 'RIGHT', 'positionCoords': [1788.8, 515.5], 'bid': 8.22}]",95694.0,1669829496354,sushi w_condiments,salmon,9.66,8.22,-1.4399999999999995,salmon,1117.300000000745,1118,1117.800000000745,True,i,97327.80000000075,1633.800000000745,1669829497988,1634,HRV,HRV_0014,2022-11-30 17:34:41
60,"[{'imgObject': {}, 'id': 'salmon', 'src': '/static/foodstim60/salmon.jpg', 'key': 'u', 'origWidth': 410, 'origHeight': 409, 'width': 410, 'height': 409, 'widthPercent': 0.45, 'rescaleHeight': False, 'trialN': 60, 'loaded': True, 'loadedTime': 3133.10000000149, 'positionName': 'LEFT', 'positionCoords': [1241.2, 515.5], 'bid': 8.22}, {'imgObject': {}, 'id': 'turkeysandwich', 'src': '/static/foodstim60/turkeysandwich.jpg', 'key': 'i', 'origWidth': 409, 'origHeight': 409, 'width': 409, 'height': 409, 'widthPercent': 0.45, 'rescaleHeight': False, 'trialN': 60, 'loaded': True, 'loadedTime': 3165.300000000745, 'positionName': 'RIGHT', 'positionCoords': [1788.8, 515.5], 'bid': 8.11}]",97328.19999999925,1669829497988,salmon,turkeysandwich,8.22,8.11,-0.11000000000000121,salmon,814.5,815,815.1000000014901,True,u,98664.90000000224,1336.7000000029802,1669829499325,1337,HRV,HRV_0014,2022-11-30 17:34:41
61,"[{'imgObject': {}, 'id': 'pear', 'src': '/static/foodstim60/pear.jpg', 'key': 'u', 'origWidth': 411, 'origHeight': 410, 'width': 411, 'height': 410, 'widthPercent': 0.45, 'rescaleHeight': False, 'trialN': 61, 'loaded': True, 'loadedTime': 3072.60000000149, 'positionName': 'LEFT', 'positionCoords': [1240.2, 515], 'bid': 6.94}, {'imgObject': {}, 'id': 'olives', 'src': '/static/foodstim60/olives.jpg', 'key': 'i', 'origWidth': 410, 'origHeight': 410, 'width': 410, 'height': 410, 'widthPercent': 0.45, 'rescaleHeight': False, 'trialN': 61, 'loaded': True, 'loadedTime': 3261, 'positionName': 'RIGHT', 'positionCoords': [1788.8, 515], 'bid': 3.01}]",98665.0,1669829499325,pear,olives,6.94,3.01,-3.9300000000000006,pear,992.4000000022352,993,992.6000000014901,True,u,100166.19999999925,1501.199999999255,1669829500826,1501,HRV,HRV_0014,2022-11-30 17:34:41
62,"[{'imgObject': {}, 'id': 'Grapes', 'src': '/static/foodstim60/Grapes.jpg', 'key': 'u', 'origWidth': 411, 'origHeight': 411, 'width': 411, 'height': 411, 'widthPercent': 0.45, 'rescaleHeight': False, 'trialN': 62, 'loaded': True, 'loadedTime': 3238.10000000149, 'positionName': 'LEFT', 'positionCoords': [1240.2, 514.5], 'bid': 5.04}, {'imgObject': {}, 'id': 'veggieswithdip', 'src': '/static/foodstim60/veggieswithdip.jpg', 'key': 'i', 'origWidth': 409, 'origHeight': 409, 'width': 409, 'height': 409, 'widthPercent': 0.45, 'rescaleHeight': False, 'trialN': 62, 'loaded': True, 'loadedTime': 3133.60000000149, 'positionName': 'RIGHT', 'positionCoords': [1788.8, 515.5], 'bid': 5.01}]",100166.5,1669829500827,Grapes,veggieswithdip,5.04,5.01,-0.03000000000000025,Grapes,1116.800000000745,1117,1117.1000000014901,True,u,101800.19999999925,1633.699999999255,1669829502460,1633,HRV,HRV_0014,2022-11-30 17:34:41
63,"[{'imgObject': {}, 'id': 'cherry tomato', 'src': '/static/foodstim60/cherry tomato.jpg', 'key': 'u', 'origWidth': 410, 'origHeight': 410, 'width': 410, 'height': 410, 'widthPercent': 0.45, 'rescaleHeight': False, 'trialN': 63, 'loaded': True, 'loadedTime': 3264.5, 'positionName': 'LEFT', 'positionCoords': [1241.2, 515], 'bid': 3.04}, {'imgObject': {}, 'id': 'hashbrowns', 'src': '/static/foodstim60/hashbrowns.jpg', 'key': 'i', 'origWidth': 411, 'origHeight': 410, 'width': 411, 'height': 410, 'widthPercent': 0.45, 'rescaleHeight': False, 'trialN': 63, 'loaded': True, 'loadedTime': 3203.199999999255, 'positionName': 'RIGHT', 'positionCoords': [1788.8, 515], 'bid': 4.99}]",101800.5,1669829502461,cherry tomato,hashbrowns,3.04,4.99,1.9500000000000002,hashbrowns,1756.699999999255,1757,1757.199999999255,True,i,104072.90000000224,2272.400000002235,1669829504733,2272,HRV,HRV_0014,2022-11-30 17:34:41
64,"[{'imgObject': {}, 'id': 'salad w chicken', 'src': '/static/foodstim60/salad w chicken.jpg', 'key': 'u', 'origWidth': 411, 'origHeight': 411, 'width': 411, 'height': 411, 'widthPercent': 0.45, 'rescaleHeight': False, 'trialN': 64, 'loaded': True, 'loadedTime': 3132.5, 'positionName': 'LEFT', 'positionCoords': [1240.2, 514.5], 'bid': 5.0200000000000005}, {'imgObject': {}, 'id': 'kiwi', 'src': '/static/foodstim60/kiwi.jpg', 'key': 'i', 'origWidth': 410, 'origHeight': 410, 'width': 410, 'height': 410, 'widthPercent': 0.45, 'rescaleHeight': False, 'trialN': 64, 'loaded': True, 'loadedTime': 3276.699999999255, 'positionName': 'RIGHT', 'positionCoords': [1788.8, 515], 'bid': 2.11}]",104073.30000000075,1669829504733,salad w chicken,kiwi,5.0200000000000005,2.11,-2.9100000000000006,salad w chicken,623.3999999985099,625,624.1999999992549,True,u,105206.80000000075,1133.5,1669829505867,1134,HRV,HRV_0014,2022-11-30 17:34:41
65,"[{'imgObject': {}, 'id': 'turkeysandwich', 'src': '/static/foodstim60/turkeysandwich.jpg', 'key': 'u', 'origWidth': 409, 'origHeight': 409, 'width': 409, 'height': 409, 'widthPercent': 0.45, 'rescaleHeight': False, 'trialN': 65, 'loaded': True, 'loadedTime': 3167.699999999255, 'positionName': 'LEFT', 'positionCoords': [1242.2, 515.5], 'bid': 8.11}, {'imgObject': {}, 'id': 'chickenfingers', 'src': '/static/foodstim60/chickenfingers.jpg', 'key': 'i', 'origWidth': 410, 'origHeight': 410, 'width': 410, 'height': 410, 'widthPercent': 0.45, 'rescaleHeight': False, 'trialN': 65, 'loaded': True, 'loadedTime': 3254.699999999255, 'positionName': 'RIGHT', 'positionCoords': [1788.8, 515], 'bid': 9.09}]",105207.40000000224,1669829505868,turkeysandwich,chickenfingers,8.11,9.09,0.9800000000000004,chickenfingers,908.7999999970198,909,909.3999999985099,True,i,106624.0,1416.5999999977648,1669829507284,1416,HRV,HRV_0014,2022-11-30 17:34:41
66,"[{'imgObject': {}, 'id': 'cocktailshrimp', 'src': '/static/foodstim60/cocktailshrimp.jpg', 'key': 'u', 'origWidth': 410, 'origHeight': 410, 'width': 410, 'height': 410, 'widthPercent': 0.45, 'rescaleHeight': False, 'trialN': 66, 'loaded': True, 'loadedTime': 3241.900000002235, 'positionName': 'LEFT', 'positionCoords': [1241.2, 515], 'bid': 8.73}, {'imgObject': {}, 'id': 'hotdog w must', 'src': '/static/foodstim60/hotdog w must.jpg', 'key': 'i', 'origWidth': 409, 'origHeight': 409, 'width': 409, 'height': 409, 'widthPercent': 0.45, 'rescaleHeight': False, 'trialN': 66, 'loaded': True, 'loadedTime': 3231.900000002235, 'positionName': 'RIGHT', 'positionCoords': [1788.8, 515.5], 'bid': 7.99}]",106624.30000000075,1669829507284,cocktailshrimp,hotdog w must,8.73,7.99,-0.7400000000000002,cocktailshrimp,1103.199999999255,1104,1103.8999999985099,True,u,108242.5,1618.199999999255,1669829508903,1619,HRV,HRV_0014,2022-11-30 17:34:41
67,"[{'imgObject': {}, 'id': 'chicken nuggets2', 'src': '/static/foodstim60/chicken nuggets2.jpg', 'key': 'u', 'origWidth': 410, 'origHeight': 409, 'width': 410, 'height': 409, 'widthPercent': 0.45, 'rescaleHeight': False, 'trialN': 67, 'loaded': True, 'loadedTime': 3121.10000000149, 'positionName': 'LEFT', 'positionCoords': [1241.2, 515.5], 'bid': 8.22}, {'imgObject': {}, 'id': 'burger', 'src': '/static/foodstim60/burger.jpg', 'key': 'i', 'origWidth': 409, 'origHeight': 409, 'width': 409, 'height': 409, 'widthPercent': 0.45, 'rescaleHeight': False, 'trialN': 67, 'loaded': True, 'loadedTime': 3215.60000000149, 'positionName': 'RIGHT', 'positionCoords': [1788.8, 515.5], 'bid': 8.11}]",108243.0,1669829508903,chicken nuggets2,burger,8.22,8.11,-0.11000000000000121,chicken nuggets2,664.6000000014901,665,665.0,True,u,109425.30000000075,1182.300000000745,1669829510085,1182,HRV,HRV_0014,2022-11-30 17:34:41
68,"[{'imgObject': {}, 'id': 'banana', 'src': '/static/foodstim60/banana.jpg', 'key': 'u', 'origWidth': 410, 'origHeight': 410, 'width': 410, 'height': 410, 'widthPercent': 0.45, 'rescaleHeight': False, 'trialN': 68, 'loaded': True, 'loadedTime': 3116.199999999255, 'positionName': 'LEFT', 'positionCoords': [1241.2, 515], 'bid': 8.49}, {'imgObject': {}, 'id': 'roastedpotatoes', 'src': '/static/foodstim60/roastedpotatoes.jpg', 'key': 'i', 'origWidth': 409, 'origHeight': 410, 'width': 409, 'height': 410, 'widthPercent': 0.45, 'rescaleHeight': False, 'trialN': 68, 'loaded': True, 'loadedTime': 3077.5, 'positionName': 'RIGHT', 'positionCoords': [1788.8, 515], 'bid': 6.97}]",109425.69999999925,1669829510086,banana,roastedpotatoes,8.49,6.97,-1.5200000000000005,banana,938.9000000022352,939,939.2000000029802,True,u,110873.90000000224,1448.2000000029802,1669829511534,1448,HRV,HRV_0014,2022-11-30 17:34:41
69,"[{'imgObject': {}, 'id': 'mac & cheese', 'src': '/static/foodstim60/mac & cheese.jpg', 'key': 'u', 'origWidth': 410, 'origHeight': 410, 'width': 410, 'height': 410, 'widthPercent': 0.45, 'rescaleHeight': False, 'trialN': 69, 'loaded': True, 'loadedTime': 3170.800000000745, 'positionName': 'LEFT', 'positionCoords': [1241.2, 515], 'bid': 5.48}, {'imgObject': {}, 'id': 'corn cob', 'src': '/static/foodstim60/corn cob.jpg', 'key': 'i', 'origWidth': 411, 'origHeight': 411, 'width': 411, 'height': 411, 'widthPercent': 0.45, 'rescaleHeight': False, 'trialN': 69, 'loaded': True, 'loadedTime': 3277.10000000149, 'positionName': 'RIGHT', 'positionCoords': [1788.8, 514.5], 'bid': 6.95}]",110874.10000000149,1669829511534,mac & cheese,corn cob,5.48,6.95,1.4699999999999998,mac & cheese,742.6999999992549,743,743.0999999977648,True,u,112137.5,1263.3999999985099,1669829512798,1264,HRV,HRV_0014,2022-11-30 17:34:41
70,"[{'imgObject': {}, 'id': 'kiwi', 'src': '/static/foodstim60/kiwi.jpg', 'key': 'u', 'origWidth': 410, 'origHeight': 410, 'width': 410, 'height': 410, 'widthPercent': 0.45, 'rescaleHeight': False, 'trialN': 70, 'loaded': True, 'loadedTime': 3276.699999999255, 'positionName': 'LEFT', 'positionCoords': [1241.2, 515], 'bid': 2.11}, {'imgObject': {}, 'id': 'eggsalad', 'src': '/static/foodstim60/eggsalad.jpg', 'key': 'i', 'origWidth': 410, 'origHeight': 409, 'width': 410, 'height': 409, 'widthPercent': 0.45, 'rescaleHeight': False, 'trialN': 70, 'loaded': True, 'loadedTime': 3264.900000002235, 'positionName': 'RIGHT', 'positionCoords': [1788.8, 515.5], 'bid': 4.97}]",112137.60000000149,1669829512798,kiwi,eggsalad,2.11,4.97,2.86,eggsalad,739.5999999977648,740,740.1999999992549,True,i,113380.40000000224,1242.800000000745,1669829514041,1243,HRV,HRV_0014,2022-11-30 17:34:41
71,"[{'imgObject': {}, 'id': 'bagel and cc', 'src': '/static/foodstim60/bagel and cc.jpg', 'key': 'u', 'origWidth': 410, 'origHeight': 410, 'width': 410, 'height': 410, 'widthPercent': 0.45, 'rescaleHeight': False, 'trialN': 71, 'loaded': True, 'loadedTime': 3225.5, 'positionName': 'LEFT', 'positionCoords': [1241.2, 515], 'bid': 7.5}, {'imgObject': {}, 'id': 'steak', 'src': '/static/foodstim60/steak.jpg', 'key': 'i', 'origWidth': 410, 'origHeight': 410, 'width': 410, 'height': 410, 'widthPercent': 0.45, 'rescaleHeight': False, 'trialN': 71, 'loaded': True, 'loadedTime': 3131.699999999255, 'positionName': 'RIGHT', 'positionCoords': [1788.8, 515], 'bid': 8.99}]",113380.80000000075,1669829514041,bagel and cc,steak,7.5,8.99,1.4900000000000002,steak,875.3000000007451,876,875.8999999985099,True,i,114776.90000000224,1396.1000000014901,1669829515437,1396,HRV,HRV_0014,2022-11-30 17:34:41
72,"[{'imgObject': {}, 'id': 'orange slices', 'src': '/static/foodstim60/orange slices.jpg', 'key': 'u', 'origWidth': 409, 'origHeight': 410, 'width': 409, 'height': 410, 'widthPercent': 0.45, 'rescaleHeight': False, 'trialN': 72, 'loaded': True, 'loadedTime': 3193.5, 'positionName': 'LEFT', 'positionCoords': [1242.2, 515], 'bid': 7.140000000000001}, {'imgObject': {}, 'id': 'tacos', 'src': '/static/foodstim60/tacos.jpg', 'key': 'i', 'origWidth': 411, 'origHeight': 411, 'width': 411, 'height': 411, 'widthPercent': 0.45, 'rescaleHeight': False, 'trialN': 72, 'loaded': True, 'loadedTime': 3138.60000000149, 'positionName': 'RIGHT', 'positionCoords': [1788.8, 514.5], 'bid': 8.620000000000001}]",114777.19999999925,1669829515437,orange slices,tacos,7.140000000000001,8.620000000000001,1.4800000000000004,tacos,817.8000000007451,818,817.8000000007451,True,i,116113.40000000224,1336.2000000029802,1669829516773,1336,HRV,HRV_0014,2022-11-30 17:34:41
73,"[{'imgObject': {}, 'id': 'roastedpotatoes', 'src': '/static/foodstim60/roastedpotatoes.jpg', 'key': 'u', 'origWidth': 409, 'origHeight': 410, 'width': 409, 'height': 410, 'widthPercent': 0.45, 'rescaleHeight': False, 'trialN': 73, 'loaded': True, 'loadedTime': 3077, 'positionName': 'LEFT', 'positionCoords': [1242.2, 515], 'bid': 6.97}, {'imgObject': {}, 'id': 'rigatoni and sauce', 'src': '/static/foodstim60/rigatoni and sauce.jpg', 'key': 'i', 'origWidth': 410, 'origHeight': 411, 'width': 410, 'height': 411, 'widthPercent': 0.45, 'rescaleHeight': False, 'trialN': 73, 'loaded': True, 'loadedTime': 3269.5, 'positionName': 'RIGHT', 'positionCoords': [1788.8, 514.5], 'bid': 5.91}]",116113.69999999925,1669829516774,roastedpotatoes,rigatoni and sauce,6.97,5.91,-1.0599999999999996,rigatoni and sauce,855.7000000029802,856,856.1000000014901,True,i,117479.0,1365.300000000745,1669829518139,1365,HRV,HRV_0014,2022-11-30 17:34:41
74,"[{'imgObject': {}, 'id': 'lox', 'src': '/static/foodstim60/lox.jpg', 'key': 'u', 'origWidth': 410, 'origHeight': 411, 'width': 410, 'height': 411, 'widthPercent': 0.45, 'rescaleHeight': False, 'trialN': 74, 'loaded': True, 'loadedTime': 3269.60000000149, 'positionName': 'LEFT', 'positionCoords': [1241.2, 514.5], 'bid': 4.98}, {'imgObject': {}, 'id': 'eggsalad', 'src': '/static/foodstim60/eggsalad.jpg', 'key': 'i', 'origWidth': 410, 'origHeight': 409, 'width': 410, 'height': 409, 'widthPercent': 0.45, 'rescaleHeight': False, 'trialN': 74, 'loaded': True, 'loadedTime': 3265, 'positionName': 'RIGHT', 'positionCoords': [1788.8, 515.5], 'bid': 4.97}]",117479.19999999925,1669829518139,lox,eggsalad,4.98,4.97,-0.010000000000000675,eggsalad,1043.5,1044,1044.0,True,i,119036.30000000075,1557.1000000014901,1669829519696,1557,HRV,HRV_0014,2022-11-30 17:34:41
75,"[{'imgObject': {}, 'id': 'ice cream sundae 002', 'src': '/static/foodstim60/ice cream sundae 002.jpg', 'key': 'u', 'origWidth': 409, 'origHeight': 409, 'width': 409, 'height': 409, 'widthPercent': 0.45, 'rescaleHeight': False, 'trialN': 75, 'loaded': True, 'loadedTime': 3123.300000000745, 'positionName': 'LEFT', 'positionCoords': [1242.2, 515.5], 'bid': 6.57}, {'imgObject': {}, 'id': 'mango', 'src': '/static/foodstim60/mango.jpg', 'key': 'i', 'origWidth': 411, 'origHeight': 411, 'width': 411, 'height': 411, 'widthPercent': 0.45, 'rescaleHeight': False, 'trialN': 75, 'loaded': True, 'loadedTime': 3117.300000000745, 'positionName': 'RIGHT', 'positionCoords': [1788.8, 514.5], 'bid': 6.54}]",119036.60000000149,1669829519697,ice cream sundae 002,mango,6.57,6.54,-0.03000000000000025,ice cream sundae 002,1271.0999999977648,1271,1271.5,True,u,120825.5,1788.8999999985099,1669829521486,1789,HRV,HRV_0014,2022-11-30 17:34:41
76,"[{'imgObject': {}, 'id': 'raspberries', 'src': '/static/foodstim60/raspberries.jpg', 'key': 'u', 'origWidth': 411, 'origHeight': 411, 'width': 411, 'height': 411, 'widthPercent': 0.45, 'rescaleHeight': False, 'trialN': 76, 'loaded': True, 'loadedTime': 3118.900000002235, 'positionName': 'LEFT', 'positionCoords': [1240.2, 514.5], 'bid': 6.48}, {'imgObject': {}, 'id': 'ice cream sundae 002', 'src': '/static/foodstim60/ice cream sundae 002.jpg', 'key': 'i', 'origWidth': 409, 'origHeight': 409, 'width': 409, 'height': 409, 'widthPercent': 0.45, 'rescaleHeight': False, 'trialN': 76, 'loaded': True, 'loadedTime': 3127.5, 'positionName': 'RIGHT', 'positionCoords': [1788.8, 515.5], 'bid': 6.57}]",120825.80000000075,1669829521486,raspberries,ice cream sundae 002,6.48,6.57,0.08999999999999986,ice cream sundae 002,726.8999999985099,727,727.3999999985099,True,i,122067.5,1241.699999999255,1669829522728,1242,HRV,HRV_0014,2022-11-30 17:34:41
77,"[{'imgObject': {}, 'id': 'olives', 'src': '/static/foodstim60/olives.jpg', 'key': 'u', 'origWidth': 410, 'origHeight': 410, 'width': 410, 'height': 410, 'widthPercent': 0.45, 'rescaleHeight': False, 'trialN': 77, 'loaded': True, 'loadedTime': 3261.10000000149, 'positionName': 'LEFT', 'positionCoords': [1241.2, 515], 'bid': 3.01}, {'imgObject': {}, 'id': 'sweetpotato', 'src': '/static/foodstim60/sweetpotato.jpg', 'key': 'i', 'origWidth': 410, 'origHeight': 410, 'width': 410, 'height': 410, 'widthPercent': 0.45, 'rescaleHeight': False, 'trialN': 77, 'loaded': True, 'loadedTime': 3277.5, 'positionName': 'RIGHT', 'positionCoords': [1788.8, 515], 'bid': 5.05}]",122067.80000000075,1669829522728,olives,sweetpotato,3.01,5.05,2.04,sweetpotato,1141.8999999985099,1142,1142.5,True,i,123718.30000000075,1650.5,1669829524378,1650,HRV,HRV_0014,2022-11-30 17:34:41
78,"[{'imgObject': {}, 'id': 'baked potato', 'src': '/static/foodstim60/baked potato.jpg', 'key': 'u', 'origWidth': 409, 'origHeight': 410, 'width': 409, 'height': 410, 'widthPercent': 0.45, 'rescaleHeight': False, 'trialN': 78, 'loaded': True, 'loadedTime': 3120.900000002235, 'positionName': 'LEFT', 'positionCoords': [1242.2, 515], 'bid': 5.05}, {'imgObject': {}, 'id': 'raisin bran w milk', 'src': '/static/foodstim60/raisin bran w milk.jpg', 'key': 'i', 'origWidth': 411, 'origHeight': 411, 'width': 411, 'height': 411, 'widthPercent': 0.45, 'rescaleHeight': False, 'trialN': 78, 'loaded': True, 'loadedTime': 3158.5, 'positionName': 'RIGHT', 'positionCoords': [1788.8, 514.5], 'bid': 5.01}]",123718.5,1669829524379,baked potato,raisin bran w milk,5.05,5.01,-0.040000000000000036,raisin bran w milk,910.3000000007451,911,911.0,True,i,125130.90000000224,1412.4000000022352,1669829525791,1412,HRV,HRV_0014,2022-11-30 17:34:41
79,"[{'imgObject': {}, 'id': 'chickenfingers', 'src': '/static/foodstim60/chickenfingers.jpg', 'key': 'u', 'origWidth': 410, 'origHeight': 410, 'width': 410, 'height': 410, 'widthPercent': 0.45, 'rescaleHeight': False, 'trialN': 79, 'loaded': True, 'loadedTime': 3254.60000000149, 'positionName': 'LEFT', 'positionCoords': [1241.2, 515], 'bid': 9.09}, {'imgObject': {}, 'id': 'mac & cheese', 'src': '/static/foodstim60/mac & cheese.jpg', 'key': 'i', 'origWidth': 410, 'origHeight': 410, 'width': 410, 'height': 410, 'widthPercent': 0.45, 'rescaleHeight': False, 'trialN': 79, 'loaded': True, 'loadedTime': 3167.900000002235, 'positionName': 'RIGHT', 'positionCoords': [1788.8, 515], 'bid': 5.48}]",125131.19999999925,1669829525791,chickenfingers,mac & cheese,9.09,5.48,-3.6099999999999994,chickenfingers,782.1000000014901,783,782.6000000014901,True,u,126424.30000000075,1293.1000000014901,1669829527084,1293,HRV,HRV_0014,2022-11-30 17:34:41
80,"[{'imgObject': {}, 'id': 'yogurt no spoon', 'src': '/static/foodstim60/yogurt no spoon.jpg', 'key': 'u', 'origWidth': 411, 'origHeight': 410, 'width': 411, 'height': 410, 'widthPercent': 0.45, 'rescaleHeight': False, 'trialN': 80, 'loaded': True, 'loadedTime': 3109.199999999255, 'positionName': 'LEFT', 'positionCoords': [1240.2, 515], 'bid': 6.59}, {'imgObject': {}, 'id': 'luckycharms', 'src': '/static/foodstim60/luckycharms.jpg', 'key': 'i', 'origWidth': 410, 'origHeight': 409, 'width': 410, 'height': 409, 'widthPercent': 0.45, 'rescaleHeight': False, 'trialN': 80, 'loaded': True, 'loadedTime': 3254.699999999255, 'positionName': 'RIGHT', 'positionCoords': [1788.8, 515.5], 'bid': 5.0600000000000005}]",126424.80000000075,1669829527085,yogurt no spoon,luckycharms,6.59,5.0600000000000005,-1.5299999999999994,yogurt no spoon,1177.6000000014901,1178,1177.8999999985099,True,u,128107.69999999925,1682.8999999985099,1669829528768,1683,HRV,HRV_0014,2022-11-30 17:34:41
81,"[{'imgObject': {}, 'id': 'cherries', 'src': '/static/foodstim60/cherries.jpg', 'key': 'u', 'origWidth': 410, 'origHeight': 411, 'width': 410, 'height': 411, 'widthPercent': 0.45, 'rescaleHeight': False, 'trialN': 81, 'loaded': True, 'loadedTime': 3190.199999999255, 'positionName': 'LEFT', 'positionCoords': [1241.2, 514.5], 'bid': 6.07}, {'imgObject': {}, 'id': 'sushi w_condiments', 'src': '/static/foodstim60/sushi w_condiments.jpg', 'key': 'i', 'origWidth': 410, 'origHeight': 410, 'width': 410, 'height': 410, 'widthPercent': 0.45, 'rescaleHeight': False, 'trialN': 81, 'loaded': True, 'loadedTime': 3257.900000002235, 'positionName': 'RIGHT', 'positionCoords': [1788.8, 515], 'bid': 9.66}]",128108.0,1669829528768,cherries,sushi w_condiments,6.07,9.66,3.59,sushi w_condiments,764.5,765,765.1000000014901,True,i,129381.80000000075,1273.800000000745,1669829530042,1274,HRV,HRV_0014,2022-11-30 17:34:41
82,"[{'imgObject': {}, 'id': 'froot loops w milk', 'src': '/static/foodstim60/froot loops w milk.jpg', 'key': 'u', 'origWidth': 410, 'origHeight': 410, 'width': 410, 'height': 410, 'widthPercent': 0.45, 'rescaleHeight': False, 'trialN': 82, 'loaded': True, 'loadedTime': 3145.900000002235, 'positionName': 'LEFT', 'positionCoords': [1241.2, 515], 'bid': 5}, {'imgObject': {}, 'id': 'cherries', 'src': '/static/foodstim60/cherries.jpg', 'key': 'i', 'origWidth': 410, 'origHeight': 411, 'width': 410, 'height': 411, 'widthPercent': 0.45, 'rescaleHeight': False, 'trialN': 82, 'loaded': True, 'loadedTime': 3193.400000002235, 'positionName': 'RIGHT', 'positionCoords': [1788.8, 514.5], 'bid': 6.07}]",129382.40000000224,1669829530043,froot loops w milk,cherries,5.0,6.07,1.0700000000000003,froot loops w milk,884.2999999970198,885,885.0999999977648,True,u,130780.90000000224,1398.5,1669829531442,1399,HRV,HRV_0014,2022-11-30 17:34:41
83,"[{'imgObject': {}, 'id': 'sweetpotato', 'src': '/static/foodstim60/sweetpotato.jpg', 'key': 'u', 'origWidth': 410, 'origHeight': 410, 'width': 410, 'height': 410, 'widthPercent': 0.45, 'rescaleHeight': False, 'trialN': 83, 'loaded': True, 'loadedTime': 3277.60000000149, 'positionName': 'LEFT', 'positionCoords': [1241.2, 515], 'bid': 5.05}, {'imgObject': {}, 'id': 'apple slices', 'src': '/static/foodstim60/apple slices.jpg', 'key': 'i', 'origWidth': 409, 'origHeight': 410, 'width': 409, 'height': 410, 'widthPercent': 0.45, 'rescaleHeight': False, 'trialN': 83, 'loaded': True, 'loadedTime': 3097.10000000149, 'positionName': 'RIGHT', 'positionCoords': [1788.8, 515], 'bid': 8.36}]",130781.19999999925,1669829531442,sweetpotato,apple slices,5.05,8.36,3.3099999999999996,apple slices,858,858,858.4000000022352,True,i,132156.19999999925,1375.0,1669829532817,1375,HRV,HRV_0014,2022-11-30 17:34:41
84,"[{'imgObject': {}, 'id': 'hashbrowns', 'src': '/static/foodstim60/hashbrowns.jpg', 'key': 'u', 'origWidth': 411, 'origHeight': 410, 'width': 411, 'height': 410, 'widthPercent': 0.45, 'rescaleHeight': False, 'trialN': 84, 'loaded': True, 'loadedTime': 3206.199999999255, 'positionName': 'LEFT', 'positionCoords': [1240.2, 515], 'bid': 4.99}, {'imgObject': {}, 'id': 'rigatoni and sauce', 'src': '/static/foodstim60/rigatoni and sauce.jpg', 'key': 'i', 'origWidth': 410, 'origHeight': 411, 'width': 410, 'height': 411, 'widthPercent': 0.45, 'rescaleHeight': False, 'trialN': 84, 'loaded': True, 'loadedTime': 3269.60000000149, 'positionName': 'RIGHT', 'positionCoords': [1788.8, 514.5], 'bid': 5.91}]",132156.6000000015,1669829532817,hashbrowns,rigatoni and sauce,4.99,5.91,0.9199999999999999,rigatoni and sauce,861.1999999992549,862,861.8000000007451,True,i,133528.6000000015,1372.0,1669829534189,1372,HRV,HRV_0014,2022-11-30 17:34:41
85,"[{'imgObject': {}, 'id': 'steak', 'src': '/static/foodstim60/steak.jpg', 'key': 'u', 'origWidth': 410, 'origHeight': 410, 'width': 410, 'height': 410, 'widthPercent': 0.45, 'rescaleHeight': False, 'trialN': 85, 'loaded': True, 'loadedTime': 3131.699999999255, 'positionName': 'LEFT', 'positionCoords': [1241.2, 515], 'bid': 8.99}, {'imgObject': {}, 'id': 'tacos', 'src': '/static/foodstim60/tacos.jpg', 'key': 'i', 'origWidth': 411, 'origHeight': 411, 'width': 411, 'height': 411, 'widthPercent': 0.45, 'rescaleHeight': False, 'trialN': 85, 'loaded': True, 'loadedTime': 3135.199999999255, 'positionName': 'RIGHT', 'positionCoords': [1788.8, 514.5], 'bid': 8.620000000000001}]",133528.90000000224,1669829534190,steak,tacos,8.99,8.620000000000001,-0.3699999999999992,steak,644,644,644.7999999970198,True,u,134676.0,1147.0999999977648,1669829535337,1147,HRV,HRV_0014,2022-11-30 17:34:41
86,"[{'imgObject': {}, 'id': 'popsicles', 'src': '/static/foodstim60/popsicles.jpg', 'key': 'u', 'origWidth': 410, 'origHeight': 410, 'width': 410, 'height': 410, 'widthPercent': 0.45, 'rescaleHeight': False, 'trialN': 86, 'loaded': True, 'loadedTime': 3128.5, 'positionName': 'LEFT', 'positionCoords': [1241.2, 515], 'bid': 5.01}, {'imgObject': {}, 'id': 'raisin bran w milk', 'src': '/static/foodstim60/raisin bran w milk.jpg', 'key': 'i', 'origWidth': 411, 'origHeight': 411, 'width': 411, 'height': 411, 'widthPercent': 0.45, 'rescaleHeight': False, 'trialN': 86, 'loaded': True, 'loadedTime': 3155.10000000149, 'positionName': 'RIGHT', 'positionCoords': [1788.8, 514.5], 'bid': 5.01}]",134676.30000000075,1669829535337,popsicles,raisin bran w milk,5.01,5.01,0.0,raisin bran w milk,733,733,733.3000000007451,True,i,135922.0,1245.699999999255,1669829536583,1246,HRV,HRV_0014,2022-11-30 17:34:41
87,"[{'imgObject': {}, 'id': 'froot loops w milk', 'src': '/static/foodstim60/froot loops w milk.jpg', 'key': 'u', 'origWidth': 410, 'origHeight': 410, 'width': 410, 'height': 410, 'widthPercent': 0.45, 'rescaleHeight': False, 'trialN': 87, 'loaded': True, 'loadedTime': 3148.5, 'positionName': 'LEFT', 'positionCoords': [1241.2, 515], 'bid': 5}, {'imgObject': {}, 'id': 'kiwi', 'src': '/static/foodstim60/kiwi.jpg', 'key': 'i', 'origWidth': 410, 'origHeight': 410, 'width': 410, 'height': 410, 'widthPercent': 0.45, 'rescaleHeight': False, 'trialN': 87, 'loaded': True, 'loadedTime': 3276.699999999255, 'positionName': 'RIGHT', 'positionCoords': [1788.8, 515], 'bid': 2.11}]",135922.19999999925,1669829536583,froot loops w milk,kiwi,5.0,2.11,-2.89,kiwi,1048.6000000014901,1049,1048.9000000022352,True,i,137489.40000000224,1567.2000000029802,1669829538150,1567,HRV,HRV_0014,2022-11-30 17:34:41
88,"[{'imgObject': {}, 'id': 'blueberries', 'src': '/static/foodstim60/blueberries.jpg', 'key': 'u', 'origWidth': 411, 'origHeight': 411, 'width': 411, 'height': 411, 'widthPercent': 0.45, 'rescaleHeight': False, 'trialN': 88, 'loaded': True, 'loadedTime': 3118.400000002235, 'positionName': 'LEFT', 'positionCoords': [1240.2, 514.5], 'bid': 6.23}, {'imgObject': {}, 'id': 'Tribe humus pita', 'src': '/static/foodstim60/Tribe humus pita.jpg', 'key': 'i', 'origWidth': 411, 'origHeight': 411, 'width': 411, 'height': 411, 'widthPercent': 0.45, 'rescaleHeight': False, 'trialN': 88, 'loaded': True, 'loadedTime': 3184.10000000149, 'positionName': 'RIGHT', 'positionCoords': [1788.8, 514.5], 'bid': 5}]",137489.69999999925,1669829538150,blueberries,Tribe humus pita,6.23,5.0,-1.2300000000000004,Tribe humus pita,1475.9000000022352,1477,1476.6000000014901,True,i,139481.90000000224,1992.2000000029802,1669829540143,1993,HRV,HRV_0014,2022-11-30 17:34:41
89,"[{'imgObject': {}, 'id': 'granola w milk', 'src': '/static/foodstim60/granola w milk.jpg', 'key': 'u', 'origWidth': 410, 'origHeight': 410, 'width': 410, 'height': 410, 'widthPercent': 0.45, 'rescaleHeight': False, 'trialN': 89, 'loaded': True, 'loadedTime': 3226.10000000149, 'positionName': 'LEFT', 'positionCoords': [1241.2, 515], 'bid': 4.9}, {'imgObject': {}, 'id': 'orange slices', 'src': '/static/foodstim60/orange slices.jpg', 'key': 'i', 'origWidth': 409, 'origHeight': 410, 'width': 409, 'height': 410, 'widthPercent': 0.45, 'rescaleHeight': False, 'trialN': 89, 'loaded': True, 'loadedTime': 3196.699999999255, 'positionName': 'RIGHT', 'positionCoords': [1788.8, 515], 'bid': 7.140000000000001}]",139482.19999999925,1669829540143,granola w milk,orange slices,4.9,7.140000000000001,2.24,granola w milk,876.9000000022352,877,877.1000000014901,True,u,140867.19999999925,1385.0,1669829541528,1385,HRV,HRV_0014,2022-11-30 17:34:41
90,"[{'imgObject': {}, 'id': 'cheerios', 'src': '/static/foodstim60/cheerios.jpg', 'key': 'u', 'origWidth': 409, 'origHeight': 410, 'width': 409, 'height': 410, 'widthPercent': 0.45, 'rescaleHeight': False, 'trialN': 90, 'loaded': True, 'loadedTime': 3268.400000002235, 'positionName': 'LEFT', 'positionCoords': [1242.2, 515], 'bid': 5.0600000000000005}, {'imgObject': {}, 'id': 'baked potato', 'src': '/static/foodstim60/baked potato.jpg', 'key': 'i', 'origWidth': 409, 'origHeight': 410, 'width': 409, 'height': 410, 'widthPercent': 0.45, 'rescaleHeight': False, 'trialN': 90, 'loaded': True, 'loadedTime': 3120.5, 'positionName': 'RIGHT', 'positionCoords': [1788.8, 515], 'bid': 5.05}]",143417.40000000224,1669829544078,cheerios,baked potato,5.0600000000000005,5.05,-0.010000000000000675,cheerios,1096.699999999255,1097,1097.0999999977648,True,u,145022.19999999925,1604.7999999970198,1669829545683,1605,HRV,HRV_0014,2022-11-30 17:34:41
91,"[{'imgObject': {}, 'id': 'Grapes', 'src': '/static/foodstim60/Grapes.jpg', 'key': 'u', 'origWidth': 411, 'origHeight': 411, 'width': 411, 'height': 411, 'widthPercent': 0.45, 'rescaleHeight': False, 'trialN': 91, 'loaded': True, 'loadedTime': 3238.300000000745, 'positionName': 'LEFT', 'positionCoords': [1240.2, 514.5], 'bid': 5.04}, {'imgObject': {}, 'id': 'sweetpotato', 'src': '/static/foodstim60/sweetpotato.jpg', 'key': 'i', 'origWidth': 410, 'origHeight': 410, 'width': 410, 'height': 410, 'widthPercent': 0.45, 'rescaleHeight': False, 'trialN': 91, 'loaded': True, 'loadedTime': 3277.60000000149, 'positionName': 'RIGHT', 'positionCoords': [1788.8, 515], 'bid': 5.05}]",145022.80000000075,1669829545683,Grapes,sweetpotato,5.04,5.05,0.009999999999999787,Grapes,1189.5,1191,1190.0,True,u,146719.5,1696.699999999255,1669829547380,1697,HRV,HRV_0014,2022-11-30 17:34:41
92,"[{'imgObject': {}, 'id': 'fried eggs', 'src': '/static/foodstim60/fried eggs.jpg', 'key': 'u', 'origWidth': 410, 'origHeight': 410, 'width': 410, 'height': 410, 'widthPercent': 0.45, 'rescaleHeight': False, 'trialN': 92, 'loaded': True, 'loadedTime': 3120.300000000745, 'positionName': 'LEFT', 'positionCoords': [1241.2, 515], 'bid': 8.4}, {'imgObject': {}, 'id': 'cantaloupe', 'src': '/static/foodstim60/cantaloupe.jpg', 'key': 'i', 'origWidth': 409, 'origHeight': 409, 'width': 409, 'height': 409, 'widthPercent': 0.45, 'rescaleHeight': False, 'trialN': 92, 'loaded': True, 'loadedTime': 3277.60000000149, 'positionName': 'RIGHT', 'positionCoords': [1788.8, 515.5], 'bid': 9.38}]",146719.80000000075,1669829547381,fried eggs,cantaloupe,8.4,9.38,0.9800000000000004,cantaloupe,1462.800000000745,1463,1463.699999999255,True,i,148692.69999999925,1972.8999999985099,1669829549353,1972,HRV,HRV_0014,2022-11-30 17:34:41
93,"[{'imgObject': {}, 'id': 'lox', 'src': '/static/foodstim60/lox.jpg', 'key': 'u', 'origWidth': 410, 'origHeight': 411, 'width': 410, 'height': 411, 'widthPercent': 0.45, 'rescaleHeight': False, 'trialN': 93, 'loaded': True, 'loadedTime': 3272.699999999255, 'positionName': 'LEFT', 'positionCoords': [1241.2, 514.5], 'bid': 4.98}, {'imgObject': {}, 'id': 'rigatoni', 'src': '/static/foodstim60/rigatoni.jpg', 'key': 'i', 'origWidth': 411, 'origHeight': 411, 'width': 411, 'height': 411, 'widthPercent': 0.45, 'rescaleHeight': False, 'trialN': 93, 'loaded': True, 'loadedTime': 3161.60000000149, 'positionName': 'RIGHT', 'positionCoords': [1788.8, 514.5], 'bid': 5.33}]",148693.0,1669829549354,lox,rigatoni,4.98,5.33,0.34999999999999964,rigatoni,931.8000000007451,932,932.1000000014901,True,i,150135.19999999925,1442.199999999255,1669829550796,1442,HRV,HRV_0014,2022-11-30 17:34:41
94,"[{'imgObject': {}, 'id': 'grilled chicken strips', 'src': '/static/foodstim60/grilled chicken strips.jpg', 'key': 'u', 'origWidth': 410, 'origHeight': 411, 'width': 410, 'height': 411, 'widthPercent': 0.45, 'rescaleHeight': False, 'trialN': 94, 'loaded': True, 'loadedTime': 3235.10000000149, 'positionName': 'LEFT', 'positionCoords': [1241.2, 514.5], 'bid': 7.95}, {'imgObject': {}, 'id': 'hashbrowns', 'src': '/static/foodstim60/hashbrowns.jpg', 'key': 'i', 'origWidth': 411, 'origHeight': 410, 'width': 411, 'height': 410, 'widthPercent': 0.45, 'rescaleHeight': False, 'trialN': 94, 'loaded': True, 'loadedTime': 3206.400000002235, 'positionName': 'RIGHT', 'positionCoords': [1788.8, 515], 'bid': 4.99}]",150135.80000000075,1669829550796,grilled chicken strips,hashbrowns,7.95,4.99,-2.96,grilled chicken strips,669.6999999992549,671,670.3999999985099,True,u,151314.40000000224,1178.6000000014901,1669829551975,1179,HRV,HRV_0014,2022-11-30 17:34:41
95,"[{'imgObject': {}, 'id': 'pear', 'src': '/static/foodstim60/pear.jpg', 'key': 'u', 'origWidth': 411, 'origHeight': 410, 'width': 411, 'height': 410, 'widthPercent': 0.45, 'rescaleHeight': False, 'trialN': 95, 'loaded': True, 'loadedTime': 3058.400000002235, 'positionName': 'LEFT', 'positionCoords': [1240.2, 515], 'bid': 6.94}, {'imgObject': {}, 'id': 'corn cob', 'src': '/static/foodstim60/corn cob.jpg', 'key': 'i', 'origWidth': 411, 'origHeight': 411, 'width': 411, 'height': 411, 'widthPercent': 0.45, 'rescaleHeight': False, 'trialN': 95, 'loaded': True, 'loadedTime': 3276.699999999255, 'positionName': 'RIGHT', 'positionCoords': [1788.8, 514.5], 'bid': 6.95}]",151315.0,1669829551976,pear,corn cob,6.94,6.95,0.009999999999999787,corn cob,1507.5,1508,1508.1000000014901,True,i,153332.69999999925,2017.699999999255,1669829553993,2017,HRV,HRV_0014,2022-11-30 17:34:41
96,"[{'imgObject': {}, 'id': 'blackbeanswithrice', 'src': '/static/foodstim60/blackbeanswithrice.jpg', 'key': 'u', 'origWidth': 410, 'origHeight': 410, 'width': 410, 'height': 410, 'widthPercent': 0.45, 'rescaleHeight': False, 'trialN': 96, 'loaded': True, 'loadedTime': 3203.199999999255, 'positionName': 'LEFT', 'positionCoords': [1241.2, 515], 'bid': 1.98}, {'imgObject': {}, 'id': 'veggieswithdip', 'src': '/static/foodstim60/veggieswithdip.jpg', 'key': 'i', 'origWidth': 409, 'origHeight': 409, 'width': 409, 'height': 409, 'widthPercent': 0.45, 'rescaleHeight': False, 'trialN': 96, 'loaded': True, 'loadedTime': 3133.699999999255, 'positionName': 'RIGHT', 'positionCoords': [1788.8, 515.5], 'bid': 5.01}]",153333.0,1669829553994,blackbeanswithrice,veggieswithdip,1.98,5.01,3.03,blackbeanswithrice,1331.4000000022352,1332,1332.0,True,u,155171.40000000224,1838.4000000022352,1669829555832,1838,HRV,HRV_0014,2022-11-30 17:34:41
97,"[{'imgObject': {}, 'id': 'luckycharms', 'src': '/static/foodstim60/luckycharms.jpg', 'key': 'u', 'origWidth': 410, 'origHeight': 409, 'width': 410, 'height': 409, 'widthPercent': 0.45, 'rescaleHeight': False, 'trialN': 97, 'loaded': True, 'loadedTime': 3255.10000000149, 'positionName': 'LEFT', 'positionCoords': [1241.2, 515.5], 'bid': 5.0600000000000005}, {'imgObject': {}, 'id': 'fruitsalad', 'src': '/static/foodstim60/fruitsalad.jpg', 'key': 'i', 'origWidth': 410, 'origHeight': 410, 'width': 410, 'height': 410, 'widthPercent': 0.45, 'rescaleHeight': False, 'trialN': 97, 'loaded': True, 'loadedTime': 3248.199999999255, 'positionName': 'RIGHT', 'positionCoords': [1788.8, 515], 'bid': 5.12}]",155171.69999999925,1669829555832,luckycharms,fruitsalad,5.0600000000000005,5.12,0.05999999999999961,luckycharms,975.8000000007451,977,976.3000000007451,True,u,156663.1000000015,1491.4000000022352,1669829557324,1492,HRV,HRV_0014,2022-11-30 17:34:41
98,"[{'imgObject': {}, 'id': 'burrito', 'src': '/static/foodstim60/burrito.jpg', 'key': 'u', 'origWidth': 410, 'origHeight': 410, 'width': 410, 'height': 410, 'widthPercent': 0.45, 'rescaleHeight': False, 'trialN': 98, 'loaded': True, 'loadedTime': 3258.400000002235, 'positionName': 'LEFT', 'positionCoords': [1241.2, 515], 'bid': 7.69}, {'imgObject': {}, 'id': 'turkey sandwich', 'src': '/static/foodstim60/turkey sandwich.jpg', 'key': 'i', 'origWidth': 409, 'origHeight': 409, 'width': 409, 'height': 409, 'widthPercent': 0.45, 'rescaleHeight': False, 'trialN': 98, 'loaded': True, 'loadedTime': 3142.300000000745, 'positionName': 'RIGHT', 'positionCoords': [1788.8, 515.5], 'bid': 7.95}]",156663.30000000075,1669829557324,burrito,turkey sandwich,7.69,7.95,0.2599999999999998,turkey sandwich,1238.1000000014901,1239,1238.800000000745,True,i,158422.69999999925,1759.3999999985099,1669829559083,1759,HRV,HRV_0014,2022-11-30 17:34:41
99,"[{'imgObject': {}, 'id': 'chicken nuggets2', 'src': '/static/foodstim60/chicken nuggets2.jpg', 'key': 'u', 'origWidth': 410, 'origHeight': 409, 'width': 410, 'height': 409, 'widthPercent': 0.45, 'rescaleHeight': False, 'trialN': 99, 'loaded': True, 'loadedTime': 3121.800000000745, 'positionName': 'LEFT', 'positionCoords': [1241.2, 515.5], 'bid': 8.22}, {'imgObject': {}, 'id': 'salmon', 'src': '/static/foodstim60/salmon.jpg', 'key': 'i', 'origWidth': 410, 'origHeight': 409, 'width': 410, 'height': 409, 'widthPercent': 0.45, 'rescaleHeight': False, 'trialN': 99, 'loaded': True, 'loadedTime': 3133.10000000149, 'positionName': 'RIGHT', 'positionCoords': [1788.8, 515.5], 'bid': 8.22}]",158422.90000000224,1669829559084,chicken nuggets2,salmon,8.22,8.22,0.0,chicken nuggets2,763.0999999977648,763,763.7999999970198,True,u,159694.90000000224,1272.0,1669829560356,1272,HRV,HRV_0014,2022-11-30 17:34:41
100,"[{'imgObject': {}, 'id': 'raspberries', 'src': '/static/foodstim60/raspberries.jpg', 'key': 'u', 'origWidth': 411, 'origHeight': 411, 'width': 411, 'height': 411, 'widthPercent': 0.45, 'rescaleHeight': False, 'trialN': 100, 'loaded': True, 'loadedTime': 3119, 'positionName': 'LEFT', 'positionCoords': [1240.2, 514.5], 'bid': 6.48}, {'imgObject': {}, 'id': 'corn cob', 'src': '/static/foodstim60/corn cob.jpg', 'key': 'i', 'origWidth': 411, 'origHeight': 411, 'width': 411, 'height': 411, 'widthPercent': 0.45, 'rescaleHeight': False, 'trialN': 100, 'loaded': True, 'loadedTime': 3277.10000000149, 'positionName': 'RIGHT', 'positionCoords': [1788.8, 514.5], 'bid': 6.95}]",159695.19999999925,1669829560356,raspberries,corn cob,6.48,6.95,0.46999999999999975,corn cob,1451.6000000014901,1452,1452.300000000745,True,i,161650.1000000015,1954.9000000022352,1669829562311,1955,HRV,HRV_0014,2022-11-30 17:34:41
101,"[{'imgObject': {}, 'id': 'avocado', 'src': '/static/foodstim60/avocado.jpg', 'key': 'u', 'origWidth': 409, 'origHeight': 409, 'width': 409, 'height': 409, 'widthPercent': 0.45, 'rescaleHeight': False, 'trialN': 101, 'loaded': True, 'loadedTime': 3272.900000002235, 'positionName': 'LEFT', 'positionCoords': [1242.2, 515.5], 'bid': 2.87}, {'imgObject': {}, 'id': 'Grapes', 'src': '/static/foodstim60/Grapes.jpg', 'key': 'i', 'origWidth': 411, 'origHeight': 411, 'width': 411, 'height': 411, 'widthPercent': 0.45, 'rescaleHeight': False, 'trialN': 101, 'loaded': True, 'loadedTime': 3235.60000000149, 'positionName': 'RIGHT', 'positionCoords': [1788.8, 514.5], 'bid': 5.04}]",161650.19999999925,1669829562311,avocado,Grapes,2.87,5.04,2.17,Grapes,931.8000000007451,932,932.3000000007451,True,i,163098.40000000224,1448.2000000029802,1669829563759,1448,HRV,HRV_0014,2022-11-30 17:34:41
102,"[{'imgObject': {}, 'id': 'strawberries', 'src': '/static/foodstim60/strawberries.jpg', 'key': 'u', 'origWidth': 410, 'origHeight': 410, 'width': 410, 'height': 410, 'widthPercent': 0.45, 'rescaleHeight': False, 'trialN': 102, 'loaded': True, 'loadedTime': 3130, 'positionName': 'LEFT', 'positionCoords': [1241.2, 515], 'bid': 9.81}, {'imgObject': {}, 'id': 'tacos', 'src': '/static/foodstim60/tacos.jpg', 'key': 'i', 'origWidth': 411, 'origHeight': 411, 'width': 411, 'height': 411, 'widthPercent': 0.45, 'rescaleHeight': False, 'trialN': 102, 'loaded': True, 'loadedTime': 3135.300000000745, 'positionName': 'RIGHT', 'positionCoords': [1788.8, 514.5], 'bid': 8.620000000000001}]",163098.69999999925,1669829563759,strawberries,tacos,9.81,8.620000000000001,-1.1899999999999995,strawberries,1222,1223,1222.4000000022352,True,u,164828.6000000015,1729.9000000022352,1669829565489,1730,HRV,HRV_0014,2022-11-30 17:34:41
103,"[{'imgObject': {}, 'id': 'edamame', 'src': '/static/foodstim60/edamame.jpg', 'key': 'u', 'origWidth': 409, 'origHeight': 410, 'width': 409, 'height': 410, 'widthPercent': 0.45, 'rescaleHeight': False, 'trialN': 103, 'loaded': True, 'loadedTime': 3129.800000000745, 'positionName': 'LEFT', 'positionCoords': [1242.2, 515], 'bid': 0.86}, {'imgObject': {}, 'id': 'kiwi', 'src': '/static/foodstim60/kiwi.jpg', 'key': 'i', 'origWidth': 410, 'origHeight': 410, 'width': 410, 'height': 410, 'widthPercent': 0.45, 'rescaleHeight': False, 'trialN': 103, 'loaded': True, 'loadedTime': 3276.199999999255, 'positionName': 'RIGHT', 'positionCoords': [1788.8, 515], 'bid': 2.11}]",164828.90000000224,1669829565490,edamame,kiwi,0.86,2.11,1.25,kiwi,1348.5,1349,1349.0999999977648,True,i,166695.1000000015,1866.199999999255,1669829567356,1866,HRV,HRV_0014,2022-11-30 17:34:41
104,"[{'imgObject': {}, 'id': 'eggsalad', 'src': '/static/foodstim60/eggsalad.jpg', 'key': 'u', 'origWidth': 410, 'origHeight': 409, 'width': 410, 'height': 409, 'widthPercent': 0.45, 'rescaleHeight': False, 'trialN': 104, 'loaded': True, 'loadedTime': 3264.5, 'positionName': 'LEFT', 'positionCoords': [1241.2, 515.5], 'bid': 4.97}, {'imgObject': {}, 'id': 'eggs', 'src': '/static/foodstim60/eggs.jpg', 'key': 'i', 'origWidth': 409, 'origHeight': 409, 'width': 409, 'height': 409, 'widthPercent': 0.45, 'rescaleHeight': False, 'trialN': 104, 'loaded': True, 'loadedTime': 3209.5, 'positionName': 'RIGHT', 'positionCoords': [1788.8, 515.5], 'bid': 7.26}]",166695.19999999925,1669829567356,eggsalad,eggs,4.97,7.26,2.29,eggsalad,894,894,894.4000000022352,True,u,168096.90000000224,1401.7000000029802,1669829568758,1402,HRV,HRV_0014,2022-11-30 17:34:41
105,"[{'imgObject': {}, 'id': 'yogurt no spoon', 'src': '/static/foodstim60/yogurt no spoon.jpg', 'key': 'u', 'origWidth': 411, 'origHeight': 410, 'width': 411, 'height': 410, 'widthPercent': 0.45, 'rescaleHeight': False, 'trialN': 105, 'loaded': True, 'loadedTime': 3103.5, 'positionName': 'LEFT', 'positionCoords': [1240.2, 515], 'bid': 6.59}, {'imgObject': {}, 'id': 'bagel plain', 'src': '/static/foodstim60/bagel plain.jpg', 'key': 'i', 'origWidth': 410, 'origHeight': 410, 'width': 410, 'height': 410, 'widthPercent': 0.45, 'rescaleHeight': False, 'trialN': 105, 'loaded': True, 'loadedTime': 3219.199999999255, 'positionName': 'RIGHT', 'positionCoords': [1788.8, 515], 'bid': 6.7700000000000005}]",168097.19999999925,1669829568758,yogurt no spoon,bagel plain,6.59,6.7700000000000005,0.1800000000000006,yogurt no spoon,1421.300000000745,1422,1422.1000000014901,True,u,170039.6000000015,1942.4000000022352,1669829570700,1942,HRV,HRV_0014,2022-11-30 17:34:41
106,"[{'imgObject': {}, 'id': 'omelette', 'src': '/static/foodstim60/omelette.jpg', 'key': 'u', 'origWidth': 410, 'origHeight': 409, 'width': 410, 'height': 409, 'widthPercent': 0.45, 'rescaleHeight': False, 'trialN': 106, 'loaded': True, 'loadedTime': 3130.60000000149, 'positionName': 'LEFT', 'positionCoords': [1241.2, 515.5], 'bid': 8.33}, {'imgObject': {}, 'id': 'fried eggs', 'src': '/static/foodstim60/fried eggs.jpg', 'key': 'i', 'origWidth': 410, 'origHeight': 410, 'width': 410, 'height': 410, 'widthPercent': 0.45, 'rescaleHeight': False, 'trialN': 106, 'loaded': True, 'loadedTime': 3120.400000002235, 'positionName': 'RIGHT', 'positionCoords': [1788.8, 515], 'bid': 8.4}]",170040.0,1669829570701,omelette,fried eggs,8.33,8.4,0.07000000000000028,omelette,1041.6000000014901,1042,1042.199999999255,True,u,171590.80000000075,1550.800000000745,1669829572252,1551,HRV,HRV_0014,2022-11-30 17:34:41
107,"[{'imgObject': {}, 'id': 'seaweed', 'src': '/static/foodstim60/seaweed.jpg', 'key': 'u', 'origWidth': 410, 'origHeight': 410, 'width': 410, 'height': 410, 'widthPercent': 0.45, 'rescaleHeight': False, 'trialN': 107, 'loaded': True, 'loadedTime': 3269.10000000149, 'positionName': 'LEFT', 'positionCoords': [1241.2, 515], 'bid': 9.95}, {'imgObject': {}, 'id': 'apple slices', 'src': '/static/foodstim60/apple slices.jpg', 'key': 'i', 'origWidth': 409, 'origHeight': 410, 'width': 409, 'height': 410, 'widthPercent': 0.45, 'rescaleHeight': False, 'trialN': 107, 'loaded': True, 'loadedTime': 3094.300000000745, 'positionName': 'RIGHT', 'positionCoords': [1788.8, 515], 'bid': 8.36}]",171591.1000000015,1669829572252,seaweed,apple slices,9.95,8.36,-1.5899999999999999,seaweed,774.8999999985099,776,775.8000000007451,True,u,172879.80000000075,1288.699999999255,1669829573541,1289,HRV,HRV_0014,2022-11-30 17:34:41
108,"[{'imgObject': {}, 'id': 'cherries', 'src': '/static/foodstim60/cherries.jpg', 'key': 'u', 'origWidth': 410, 'origHeight': 411, 'width': 410, 'height': 411, 'widthPercent': 0.45, 'rescaleHeight': False, 'trialN': 108, 'loaded': True, 'loadedTime': 3190, 'positionName': 'LEFT', 'positionCoords': [1241.2, 514.5], 'bid': 6.07}, {'imgObject': {}, 'id': 'mac & cheese', 'src': '/static/foodstim60/mac & cheese.jpg', 'key': 'i', 'origWidth': 410, 'origHeight': 410, 'width': 410, 'height': 410, 'widthPercent': 0.45, 'rescaleHeight': False, 'trialN': 108, 'loaded': True, 'loadedTime': 3170.900000002235, 'positionName': 'RIGHT', 'positionCoords': [1788.8, 515], 'bid': 5.48}]",172880.1000000015,1669829573541,cherries,mac & cheese,6.07,5.48,-0.5899999999999999,mac & cheese,879.0999999977648,879,879.5,True,i,174277.40000000224,1397.300000000745,1669829574938,1397,HRV,HRV_0014,2022-11-30 17:34:41
