Answer,C_Pay,Question,QuestionNum,jitter,C_Trial,C_QPresent,rsp,C_SWK,C_SWK_rt,C_TrialEnd,C_AnswerPresent,C_WorthPresent,C_Worth,C_Worth_rt,exp,subjectId,date
Antawn Jamison ,3,What Washington Wizards All-Star still bears the misplaced w in his name from a birth certificate typo?,295,1.112,0,8041.5,q,S,5713.5,15399.599999904633,,,,,HRV,HRV_0318,2022-11-30 23:15:22
Chitty Chitty Bang Bang ,3,What was the only children's story ever published by James Bond creator Ian Fleming? ,292,0.564,1,15399.900000095367,p,K,5759.899999856949,22244.799999952316,,,,,HRV,HRV_0318,2022-11-30 23:15:22
North Korea,1,"Until 2007, what was the only country in the world not to have registered it's on internet domain suffix, "".kp""?",120,0.658,2,22244.799999952316,p,K,8476.5,31907.700000047684,,,,,HRV,HRV_0318,2022-11-30 23:15:22
On Christ's crucifix ,1,"Where did the abbreviation ""INRI"" traditionally appear? ",315,0.505,3,31907.700000047684,t,W,5130.799999952316,48086.09999990463,39551.40000009537,43575.299999952316,,,HRV,HRV_0318,2022-11-30 23:15:22
"Gail Borden, Jr. ",4,Who invented condensed milk in 1856? ,414,0.948,4,48086.09999990463,q,S,4741.900000095367,54307.59999990463,,,,,HRV,HRV_0318,2022-11-30 23:15:22
cheese ,1,What item of food holds the world record for being the most stolen item of food in the world?,444,0.959,5,54307.700000047684,t,W,5198.899999856949,70277.79999995232,62032.299999952316,66042.59999990463,1,2754.4000000953674,HRV,HRV_0318,2022-11-30 23:15:22
Steamboat Geyser,4,"Which Yellowstone geyser, with eruptions 100 fee taller than Old Faithful's, is the world's tallest?",359,1.972,6,70277.79999995232,p,K,4928.900000095367,77688.70000004768,,,,,HRV,HRV_0318,2022-11-30 23:15:22
Echinoderms,1,"Starfish belong to what animal phylum, whose name means ""spiny skin""? ",85,1.697,7,77688.70000004768,q,S,4225.0,84143.79999995232,,,,,HRV,HRV_0318,2022-11-30 23:15:22
cooking,2,"If you suffer from Mageirocophobia, what are you scared of?",438,0.778,8,84143.79999995232,q,S,3344.7999999523163,88784.40000009537,,,,,HRV,HRV_0318,2022-11-30 23:15:22
Japan,2,Where is the longest suspension bridge? ,319,0.841,9,88784.5,p,K,3247.0999999046326,93385.0,,,,,HRV,HRV_0318,2022-11-30 23:15:22
Mickey Finn,2,What owner-bartender of Chicago's Lone Star Saloon was famous for his drug-laced drinks? ,241,1.99,10,93385.0,q,S,4314.700000047684,100222.90000009537,,,,,HRV,HRV_0318,2022-11-30 23:15:22
Habanero,1,What chili pepper was believed the hottest in the world until the Naga Jolokia pepper was discovered in India in 2000?,401,1.082,11,100223.0,p,K,5003.099999904633,106842.29999995232,,,,,HRV,HRV_0318,2022-11-30 23:15:22
Joeys,4,What are infant marsupials called?  ,135,1.005,12,106842.40000009537,q,S,2735.2999999523163,111105.59999990463,,,,,HRV,HRV_0318,2022-11-30 23:15:22
Bookkeeper,3,What is the only English word with three consecutive double letters?  ,209,1.599,13,111105.79999995232,t,W,3852.4000000953674,124312.20000004768,117487.70000004768,121510.09999990463,3,686.9000000953674,HRV,HRV_0318,2022-11-30 23:15:22
Gary Busey,7,What actor campaigned against helmet laws until he was almost killed in a helmetless 1988 motorcycle accident?,127,1.175,14,124312.20000004768,p,K,4939.299999952316,130942.79999995232,,,,,HRV,HRV_0318,2022-11-30 23:15:22
Grace Kelly ,6,What was the name of the American actress who was first to appear on a postage stamp?  ,288,1.704,15,130942.90000009537,q,S,4632.0,137791.0,,,,,HRV,HRV_0318,2022-11-30 23:15:22
Latex. This is known as the latex-fruit syndrome. ,7,Allergy to which material is associated with allergy to fruit such as papaya and banana? ,462,1.564,16,137791.0,p,K,4017.0999999046326,143894.90000009537,,,,,HRV,HRV_0318,2022-11-30 23:15:22
Toledo,1,"The world's first ""sister cities"" were what Spanish city and its midwestern namesake?",110,1.268,17,143895.0,q,S,3684.2999999523163,149372.5,,,,,HRV,HRV_0318,2022-11-30 23:15:22
Sudan,1,"Though an eleven-year ceasefire held from 1972 to 1983, what African country has been embroiled in a civil war since 1955?",115,1.992,18,149372.5,q,S,5008.599999904633,156905.20000004768,,,,,HRV,HRV_0318,2022-11-30 23:15:22
A soccer ball,3,What common item is usually made up of twelve pentagons and twenty hexagons?,154,1.452,19,156905.20000004768,q,S,3447.7999999523163,162320.90000009537,,,,,HRV,HRV_0318,2022-11-30 23:15:22
over 10 billion donuts. ,5,How many donuts are concumed in the US every year?,463,1.261,20,162320.90000009537,t,W,4818.599999904633,177325.40000009537,169663.29999995232,173682.70000004768,3,1851.0999999046326,HRV,HRV_0318,2022-11-30 23:15:22
citrus fruit (scurvy is caused by a lack of vitamin c),7,Sailors used to suffer from a horrible illness called scurvy. Which food prevents scurvy?,441,1.783,21,177325.40000009537,p,K,4574.399999856949,184199.40000009537,,,,,HRV,HRV_0318,2022-11-30 23:15:22
Every jar of peanut butter must be at least 90% peanuts,7,What percentage of peanuts is found in a standard jar of peanut butter?,423,1.536,22,184199.5,q,S,4177.400000095367,190425.90000009537,,,,,HRV,HRV_0318,2022-11-30 23:15:22
An ostrich egg yolk ,6,What grapefruit-sized object has been reckoned to be the largest single cell on earth? ,183,0.87,23,190425.90000009537,q,S,3845.399999856949,195664.90000009537,,,,,HRV,HRV_0318,2022-11-30 23:15:22
Mouse,4,What is the most common mammal in the U.S.? ,205,1.833,24,195664.90000009537,q,S,2401.0999999046326,200430.90000009537,,,,,HRV,HRV_0318,2022-11-30 23:15:22
South Africa,7,In what country was the largest rough diamond ever discovered?,62,1.517,25,200430.90000009537,p,K,2128.5999999046326,204596.0,,,,,HRV,HRV_0318,2022-11-30 23:15:22
NY,4,In which state was the first execution by electric chair?  ,70,1.64,26,204596.09999990463,p,K,2882.600000143051,209640.09999990463,,,,,HRV,HRV_0318,2022-11-30 23:15:22
Teeth,4,"One in every 2,000 babies is born with what? ",77,1.614,27,209640.09999990463,q,S,3791.800000190735,215578.29999995232,,,,,HRV,HRV_0318,2022-11-30 23:15:22
A truce ,7,What was put in place by the Ancient Greeks before and during all Olympic festivals? ,278,0.806,28,215578.29999995232,q,S,3850.2000000476837,220760.70000004768,,,,,HRV,HRV_0318,2022-11-30 23:15:22
Oxygen,3,"By a wide margin (more than 3:2), what's the most abundant element in the Earth's crust?",28,1.658,29,220760.70000004768,p,K,4434.099999904633,227375.90000009537,,,,,HRV,HRV_0318,2022-11-30 23:15:22
Ciabatta,6,"What sandwich bread, because of its shape, takes its name from the Italian for ""carpet slipper""? ",406,1.375,30,227375.90000009537,p,K,4389.899999856949,233664.5,,,,,HRV,HRV_0318,2022-11-30 23:15:22
popscicle,6,What food was invented by an 11 year old in 1905?,450,1.741,31,233664.59999990463,q,S,2562.2000000476837,238495.70000004768,,,,,HRV,HRV_0318,2022-11-30 23:15:22
Spiro Agnew ,7,"What vice president referred to his critics as the ""nattering nabobs of negativism""? ",274,1.732,32,238495.70000004768,q,S,2860.0,243613.5,,,,,HRV,HRV_0318,2022-11-30 23:15:22
"The code is ""SUX"" ",3,Why has Sioux Falls Regional Airport in South Dakota been trying to change its three-letter airport designation for years?,392,0.729,33,243613.5,q,S,4086.5,248944.40000009537,,,,,HRV,HRV_0318,2022-11-30 23:15:22
Silver,3,What metal was found in Nevada's famed Comstock Lode?  ,230,1.634,34,248944.40000009537,q,S,2838.699999809265,253956.90000009537,,,,,HRV,HRV_0318,2022-11-30 23:15:22
"Intercourse, Pennsylvania",5,"What Amish country village in Pennsylvania, where ""Witness"" was filmed, is a frequent victim of street-sign theft?",130,0.752,35,253956.90000009537,q,S,4373.599999904633,259612.09999990463,,,,,HRV,HRV_0318,2022-11-30 23:15:22
India,7,What's the only country outside Africa where lions still live in the wild?  ,307,1.222,36,259612.09999990463,q,S,4035.2000000476837,265391.7000000477,,,,,HRV,HRV_0318,2022-11-30 23:15:22
Haddock,4,"If you ordered an Omelet Arnold Bennett, what fish would you find in it?",429,1.633,37,265391.7000000477,t,W,4398.899999856949,279222.09999990463,272308.59999990463,276326.5,1,735.2999999523163,HRV,HRV_0318,2022-11-30 23:15:22
Germany,3,Which European country was the first to produce decaffeinated coffee? ,412,0.684,38,279222.09999990463,q,S,3278.300000190735,283715.7999999523,,,,,HRV,HRV_0318,2022-11-30 23:15:22
Honey,7,"What food, still edible, was found by archaeologists in the tombs of Egyptian pharaohs? ",402,1.404,39,283715.90000009537,p,K,4565.899999856949,290218.2000000477,,,,,HRV,HRV_0318,2022-11-30 23:15:22
Charles Babbage ,2,"What inventor of the Difference Engine once baked himself in an oven for five minutes, ""to see what would happen""?",192,1.864,40,290218.2999999523,q,S,4371.299999952316,296973.2999999523,,,,,HRV,HRV_0318,2022-11-30 23:15:22
" ""!"" ",2,"Eager to find out how his novel Les Miserables was being received, Victor Hugo sent a telegram to his publisher that read ""?"" What did his publisher reply?",35,1.828,41,296973.2999999523,q,S,4971.0,304285.7999999523,,,,,HRV,HRV_0318,2022-11-30 23:15:22
Broccoli! ,2,Whice vegeteable has more vitamin C than an orange and as much calcium as whole milk?,456,0.944,42,304285.7999999523,p,K,4738.700000047684,310494.2999999523,,,,,HRV,HRV_0318,2022-11-30 23:15:22
Monrovia,5,What African capital city is named after a U.S. president? ,128,1.013,43,310494.2999999523,p,K,4601.600000143051,316614.5,,,,,HRV,HRV_0318,2022-11-30 23:15:22
Giant squid,5,What is the largest creature without a backbone? ,203,1.754,44,316614.59999990463,q,S,2424.2000000476837,321311.40000009537,,,,,HRV,HRV_0318,2022-11-30 23:15:22
Luge,3,What sports term is the shortest word ever to decide the National Spelling Bee?   ,261,1.303,45,321311.40000009537,q,S,4586.199999809265,327722.5,,,,,HRV,HRV_0318,2022-11-30 23:15:22
chickpeas,1,What is used to make hummus?,424,0.953,46,327722.5,p,K,2741.9000000953674,331951.2999999523,,,,,HRV,HRV_0318,2022-11-30 23:15:22
"the Red Hot Chili Peppers, followed closely by Meatloaf",1,Some bands share a name with a food. Which band named after a foodstuff has sold the most records?,439,0.755,47,331951.2999999523,p,K,6060.5,339294.7000000477,,,,,HRV,HRV_0318,2022-11-30 23:15:22
Avocado,4,Pet parrots can eat most human foods except chocolate and which pitted food?  ,398,0.637,48,339294.7999999523,q,S,4394.700000047684,344855.2000000477,,,,,HRV,HRV_0318,2022-11-30 23:15:22
George H.W. Bush ,1,"Who said: ""I'm the president of the United States and I'm not going to eat any more broccoli""? ",415,1.701,49,344855.2999999523,q,S,4777.400000095367,351840.7000000477,,,,,HRV,HRV_0318,2022-11-30 23:15:22
George Marshall,1,What future secretary of state became America's first five-star general in December 1944? ,181,1.896,50,351840.7000000477,p,K,4812.5,359074.09999990463,,,,,HRV,HRV_0318,2022-11-30 23:15:22
Martin Luther King Jr. ,1,What civil rights leader did Dorothy Parker leave the bulk of her estate to?,149,1.971,51,359074.2000000477,q,S,2357.0,363931.40000009537,,,,,HRV,HRV_0318,2022-11-30 23:15:22
Aluminum,6,Bauxite ore is mined so it can be processed into what metal?,25,1.601,52,363931.40000009537,q,S,2127.7999999523163,368181.2999999523,,,,,HRV,HRV_0318,2022-11-30 23:15:22
Paris,6,"What city is home to the world's very first pet cemetery, in which Rin Tin Tin is buried?",148,1.666,53,368181.40000009537,q,S,3547.5,373913.7000000477,,,,,HRV,HRV_0318,2022-11-30 23:15:22
Espresso,6,The Italian government regulates the price of what beverage?,399,1.095,54,373913.7000000477,p,K,3488.0999999046326,379032.7000000477,,,,,HRV,HRV_0318,2022-11-30 23:15:22
Cell,1,Robert Hooke coined what scientific term after looking at a piece of cork under a microscope?,81,1.358,55,379032.7000000477,q,S,4192.200000047684,385097.2000000477,,,,,HRV,HRV_0318,2022-11-30 23:15:22
Texas,5,"In what state was the U.S.'s first ""Adopt-a-Highway"" program started?",67,1.39,56,385097.2999999523,q,S,2447.9000000953674,389448.5,,,,,HRV,HRV_0318,2022-11-30 23:15:22
Holy Roman Emperor Henry IV ,7,Who did Pope Gregory VII leave in the snow outside of his castle gates for three full days?  ,365,0.914,57,389448.5,q,S,3206.5,394094.2999999523,,,,,HRV,HRV_0318,2022-11-30 23:15:22
Captain Cook ,3,"Who christened Hawaii ""the Sandwich Islands"" in 1778?  ",363,0.954,58,394094.2999999523,q,S,3684.4000000953674,399275.0,,,,,HRV,HRV_0318,2022-11-30 23:15:22
Mice,1,"After humans, what's the worlds most abundant mammal species?",16,1.416,59,399275.0,q,S,2868.0999999046326,404080.0,,,,,HRV,HRV_0318,2022-11-30 23:15:22
South America,2,The electric eel is native only to what continent?,96,1.485,60,404080.0,t,W,3807.5,417506.2999999523,410413.59999990463,414427.2999999523,1,1065.1000001430511,HRV,HRV_0318,2022-11-30 23:15:22
Don Adams,4,Who provided the voice for cartoon character Inspector Gadget? ,372,0.874,61,417506.40000009537,p,K,3918.7999999523163,422821.0,,,,,HRV,HRV_0318,2022-11-30 23:15:22
Escape,1,"What word is the actual title of the 1979 hit usually called ""The Pina Colada Song""?   ",299,0.655,62,422821.0,p,K,4841.599999904633,428838.7999999523,,,,,HRV,HRV_0318,2022-11-30 23:15:22
Anne Hathaway,2,What was the name of William Shakespeare's wife?  ,290,1.199,63,428838.7999999523,q,S,1808.9000000953674,432370.09999990463,,,,,HRV,HRV_0318,2022-11-30 23:15:22
Mushrooms which have been exposed to light,1,What is the only non-animal natural source of vitamin D?,459,0.858,64,432370.09999990463,q,S,2660.7000000476837,436412.2999999523,,,,,HRV,HRV_0318,2022-11-30 23:15:22
Luxor,6,A causeway lined with hundreds of sphinxes once connected Karnak to what other great Egyptian temple?,8,1.482,65,436412.2999999523,q,S,3323.7999999523163,441738.2000000477,,,,,HRV,HRV_0318,2022-11-30 23:15:22
General Electric ,4,What's the only stock from the original Dow Jones Industrial Average that's still used in computing the index?,310,0.921,66,441738.2000000477,q,S,2049.0999999046326,445227.40000009537,,,,,HRV,HRV_0318,2022-11-30 23:15:22
Capitol Hill,2,"Until 1790, what was known as Jenkins Hill? ",119,1.711,67,445227.40000009537,q,S,1713.2999999523163,449168.2000000477,,,,,HRV,HRV_0318,2022-11-30 23:15:22
pastry,3,Choux and filo are two types of what food product?,446,0.733,68,449168.2000000477,q,S,2419.5,452858.7000000477,,,,,HRV,HRV_0318,2022-11-30 23:15:22
Catapult ,2,What artillery weapon was launched upon the world in 400 B.C.?  ,140,1.182,69,452858.7999999523,q,S,2265.9000000953674,456829.09999990463,,,,,HRV,HRV_0318,2022-11-30 23:15:22
Anaconda,6,Which species of snake gives birth to its young instead of laying eggs?  ,353,0.952,70,456829.09999990463,q,S,2845.100000143051,461153.5,,,,,HRV,HRV_0318,2022-11-30 23:15:22
The evacuation of Saigon,5,"""White Christmas"" playing on Armed Forces Radio was the secret signal for what event on April 30, 1975?",6,1.381,71,461153.5,q,S,4985.700000047684,468040.2000000477,,,,,HRV,HRV_0318,2022-11-30 23:15:22
Roulette,2,What game was created by French mathematician Blaise Pascal when he was experimenting with perpetual motion? ,182,1.598,72,468040.2000000477,q,S,4056.0999999046326,474216.90000009537,,,,,HRV,HRV_0318,2022-11-30 23:15:22
Condoleeza (con dolcezza) Rice ,5,"Whose unusual first name is derived from an Italian musical term for ""with sweetness""? ",390,0.712,73,474216.90000009537,q,S,3826.0999999046326,479291.5,,,,,HRV,HRV_0318,2022-11-30 23:15:22
The Netherlands,3,In 1568 the Catholic Church sentenced the entire population of which nation to death as heretics?,47,1.904,74,479291.59999990463,q,S,4402.700000047684,486130.09999990463,,,,,HRV,HRV_0318,2022-11-30 23:15:22
Pandemonium,5,"What noisy word comes from the capital of Hell in Milton's ""Paradise Lost""? ",239,1.878,75,486130.09999990463,q,S,2674.600000143051,491229.59999990463,,,,,HRV,HRV_0318,2022-11-30 23:15:22
The Atlas,3,"The U.S.'s first successful ICBM was what rocket named for a Titan of Greek myth, later used to launch John Glenn into orbit?",107,1.122,76,491229.59999990463,q,S,4833.800000190735,497705.7999999523,,,,,HRV,HRV_0318,2022-11-30 23:15:22
Frog,5,Certain types of which animal can be frozen solid and then continue living once thawed?,30,1.866,77,497705.7999999523,t,W,5603.299999952316,513002.5,505853.2999999523,509872.7000000477,1,744.0999999046326,HRV,HRV_0318,2022-11-30 23:15:22
Louisiana's,7,What U.S. state's civil law is most closely based on the Napoleonic Code?  ,272,1.045,78,513002.5,q,S,1966.5,516538.09999990463,,,,,HRV,HRV_0318,2022-11-30 23:15:22
Equal Employment Opportunity Commission ,5,"What federal agency, which targets workplace discrimination, was chaired by Clarence Thomas for most of the 1980s?",176,1.442,79,516538.09999990463,q,S,3470.300000190735,521977.2000000477,,,,,HRV,HRV_0318,2022-11-30 23:15:22
Prairie dogs,1,"In 1900, Texas biologist Vernon Bailey discovered a network of tunnels the size of the state of Maryland. What had dug them?",51,0.635,80,521977.2000000477,q,S,3922.2000000476837,527064.2999999523,,,,,HRV,HRV_0318,2022-11-30 23:15:22
Ripe cranerries bounce when dropped on the ground,6,How do farmers test whether cranberries are ripe?,452,1.047,81,527064.2999999523,q,S,2430.100000143051,531069.0999999046,,,,,HRV,HRV_0318,2022-11-30 23:15:22
Mexico ,7,"In what nation did the woven-yarn craft of ""God's eyes"" originate? ",65,1.65,82,531069.0999999046,q,S,2502.9000000953674,535750.0,,,,,HRV,HRV_0318,2022-11-30 23:15:22
Copperhead snake,1,Which poisonous snake smells like fresh cut cucumbers? ,350,1.604,83,535750.0,q,S,3092.5999999046326,540967.9000000954,,,,,HRV,HRV_0318,2022-11-30 23:15:22
Dragonflies,5,"Which insect, one of the fastest, can fly at speeds up to 60 mph? ",342,1.777,84,540967.9000000954,q,S,2911.2999999523163,546197.0,,,,,HRV,HRV_0318,2022-11-30 23:15:22
Woodrow Wilson ,6,"Which U.S. president declared the first national ""Mother's Day""?  ",355,1.748,85,546197.0,q,S,3604.0999999046326,552057.7999999523,,,,,HRV,HRV_0318,2022-11-30 23:15:22
Bolivia,3,"Of all the countries named for a person, which country is named for the person who lived most recently?",75,1.869,86,552057.7999999523,q,S,4707.0,559154.0,,,,,HRV,HRV_0318,2022-11-30 23:15:22
Belgium,2,Where were French fries invented?,437,0.893,87,559154.0,p,K,3018.0,563589.0999999046,,,,,HRV,HRV_0318,2022-11-30 23:15:22
The Missouri River ,6,"What forms the only part of the Kansas border, a seventy-five mile stretch, that's not drawn with a straight edge?",179,1.969,88,563589.0999999046,q,S,4645.200000047684,570729.0,,,,,HRV,HRV_0318,2022-11-30 23:15:22
Buck,2,"What's the name of the dog who is the hero of Jack London's ""The Call of the Wild""?   ",305,0.65,89,570729.0,q,S,3239.5,575129.5,,,,,HRV,HRV_0318,2022-11-30 23:15:22
Choking on food,2,"Each year, approximately 125 people die of what? ",417,0.849,90,575129.5,q,S,3489.7000000476837,579997.2999999523,,,,,HRV,HRV_0318,2022-11-30 23:15:22
Botany Bay,6,"What Pacific inlet was called ""Stingray Bay"" until Captain Cook renamed it for ""the great quantity of plants"" his scientists had discovered?",242,1.995,91,579997.2999999523,q,S,4094.2999999523163,586612.2000000477,,,,,HRV,HRV_0318,2022-11-30 23:15:22
Tobacco,7,"In 2005, Bhutan became the first country to entirely ban what?",57,1.169,92,586612.2999999523,t,W,4704.0,602406.7999999523,593839.5,597861.0999999046,1,2854.4000000953674,HRV,HRV_0318,2022-11-30 23:15:22
