success,trial_type,trial_index,time_elapsed,internal_node_id,Block,TrialNumber,TrialTime,trialTimeDiff,FPS_avg,FPS_med,FPS_mode,TrialDur,winResizeTime,rt,block,button_pressed,MotCoh,MotDir,ColCoh,Color,ChoiceKey,Choice,Accuracy,RT,nFrames,FPS,PPD,missTrial,missTrialMsg,onsetDelay,fullScreenExitTime,canvCenter,TrialType,Score,BlockTrial,stimulus,button_labels,exp,subjectId,date
True,fullscreen,0,3140,0.0-0.0,0.0,1.0,,,,,,,,,,,,,,,,,,,,,,,,,,,,,,,,HRV,HRV_0318,2022-11-30 23:33:44
,wl-check-fps,1,8123,0.0-1.0,0.0,2.0,"[3849.6, 3850.9, 3862.2, 3878.9, 3895.9, 3912.4, 3929, 3945.8, 3962.3, 3979.2, 3995.9, 4012.2, 4029, 4045.5, 4062.3, 4078.9, 4095.7, 4112.3, 4129, 4146, 4162.4, 4179.2, 4195.8, 4212.6, 4229, 4246.3, 4262.9, 4279, 4295.4, 4312.1, 4329.1, 4345.7, 4362.2, 4379.4, 4395.6, 4412, 4429.5, 4445.4, 4461.9, 4478.6, 4495.9, 4512.2, 4528.7, 4545.5, 4562, 4578.7, 4595.8, 4612.1, 4628.5, 4645.2, 4662.3, 4678.9, 4695.5, 4713.4, 4728.8, 4745.7, 4761.6, 4778.1, 4795.1, 4811.7, 4828.5, 4845.1, 4861.9, 4878.5, 4894.9, 4912.2, 4928.7, 4945.2, 4962.3, 4978.5, 4994.8, 5012.4, 5028.5, 5045.1, 5061.7, 5078.1, 5094.7, 5111.5, 5128.4, 5145.3, 5161.7, 5179.1, 5194.4, 5211.3, 5228.4, 5244.7, 5262, 5277.6, 5294.9, 5311.6, 5327.8, 5344.4, 5361.1, 5378.4, 5395.4, 5411.7, 5427.7, 5444.8, 5461.3, 5478.8, 5494.3, 5511.3, 5527.5, 5544.4, 5561.2, 5578.1, 5594.1, 5611, 5628.1, 5644.9, 5661.5, 5677.6, 5694.2, 5711.9, 5727.5, 5744.4, 5760.7, 5777.6, 5794.2, 5810.8, 5827.2, 5844.1, 5861.1, 5877.6, 5894.1, 5910.6, 5927.8, 5944.1, 5960.6, 5977.6, 5993.8, 6010.9, 6027.4, 6044, 6060.6, 6077.5, 6093.5, 6111.3, 6127.9, 6143.9, 6160.7, 6177.2, 6193.9, 6211.4, 6227.2, 6244.1, 6260.7, 6277.4, 6293.2, 6310.1, 6327.3, 6343.4, 6360.3, 6377.5, 6393.5, 6410.4, 6427.3, 6443.6, 6460.8, 6477.6, 6493.6, 6510.2, 6527, 6544.3, 6560.2, 6576.9, 6593.9, 6610.6, 6627.3, 6643.4, 6660, 6676.8, 6693.5, 6710.6, 6726.5, 6742.9, 6760.7, 6776.6, 6793, 6810.4, 6826.3, 6843.1, 6860.6, 6876.2, 6893.1, 6910.5, 6926.3, 6942.9, 6959.8, 6976.7, 6992.8, 7009.3, 7026.3, 7043, 7059.7, 7076.4, 7092.8, 7109.5, 7125.9, 7143, 7159.6, 7176.1, 7192.5, 7209.7, 7225.9, 7242.9, 7259.2, 7275.6, 7292.9, 7309, 7325.5, 7342.3, 7359.6, 7376.5, 7392.4, 7409.2, 7425.8, 7442.5, 7459.2, 7476.1, 7492.4, 7509.4, 7526.4, 7542.4, 7559.4, 7575.4, 7592.2, 7609.4, 7626.2, 7642.4, 7659.6, 7675.7, 7692.2, 7709.4, 7725.8, 7742.2, 7759.1, 7775.9, 7792, 7808.8, 7826.2, 7841.9, 7859.1, 7876.1, 7892.1, 7908.8, 7925.5, 7942, 7958.9, 7976, 7992.1, 8008.6, 8025.6, 8041.7, 8058.9, 8075.7, 8092.3, 8108.4, 8125.3, 8141.9, 8158.7, 8175.4, 8191.7, 8208.7, 8225.5, 8242, 8258.3, 8275.1, 8291.8, 8308.8, 8325.5, 8341.7, 8358.7, 8375.1, 8391.8, 8408.8, 8424.9, 8441.9, 8458.5, 8474.8, 8491.1, 8508.1, 8524.6, 8541.7, 8558.3, 8575, 8591.4, 8608.3, 8625.3, 8641.8, 8658.5, 8675.5, 8691.6, 8708.5, 8724.8, 8741.4, 8757.9, 8774.5, 8791.5, 8807.8]","[3.2, 1.3, 11.3, 16.7, 17, 16.5, 16.6, 16.8, 16.5, 16.9, 16.7, 16.3, 16.8, 16.5, 16.8, 16.6, 16.8, 16.6, 16.7, 17, 16.4, 16.8, 16.6, 16.8, 16.4, 17.3, 16.6, 16.1, 16.4, 16.7, 17, 16.6, 16.5, 17.2, 16.2, 16.4, 17.5, 15.9, 16.5, 16.7, 17.3, 16.3, 16.5, 16.8, 16.5, 16.7, 17.1, 16.3, 16.4, 16.7, 17.1, 16.6, 16.6, 17.9, 15.4, 16.9, 15.9, 16.5, 17, 16.6, 16.8, 16.6, 16.8, 16.6, 16.4, 17.3, 16.5, 16.5, 17.1, 16.2, 16.3, 17.6, 16.1, 16.6, 16.6, 16.4, 16.6, 16.8, 16.9, 16.9, 16.4, 17.4, 15.3, 16.9, 17.1, 16.3, 17.3, 15.6, 17.3, 16.7, 16.2, 16.6, 16.7, 17.3, 17, 16.3, 16, 17.1, 16.5, 17.5, 15.5, 17, 16.2, 16.9, 16.8, 16.9, 16, 16.9, 17.1, 16.8, 16.6, 16.1, 16.6, 17.7, 15.6, 16.9, 16.3, 16.9, 16.6, 16.6, 16.4, 16.9, 17, 16.5, 16.5, 16.5, 17.2, 16.3, 16.5, 17, 16.2, 17.1, 16.5, 16.6, 16.6, 16.9, 16, 17.8, 16.6, 16, 16.8, 16.5, 16.7, 17.5, 15.8, 16.9, 16.6, 16.7, 15.8, 16.9, 17.2, 16.1, 16.9, 17.2, 16, 16.9, 16.9, 16.3, 17.2, 16.8, 16, 16.6, 16.8, 17.3, 15.9, 16.7, 17, 16.7, 16.7, 16.1, 16.6, 16.8, 16.7, 17.1, 15.9, 16.4, 17.8, 15.9, 16.4, 17.4, 15.9, 16.8, 17.5, 15.6, 16.9, 17.4, 15.8, 16.6, 16.9, 16.9, 16.1, 16.5, 17, 16.7, 16.7, 16.7, 16.4, 16.7, 16.4, 17.1, 16.6, 16.5, 16.4, 17.2, 16.2, 17, 16.3, 16.4, 17.3, 16.1, 16.5, 16.8, 17.3, 16.9, 15.9, 16.8, 16.6, 16.7, 16.7, 16.9, 16.3, 17, 17, 16, 17, 16, 16.8, 17.2, 16.8, 16.2, 17.2, 16.1, 16.5, 17.2, 16.4, 16.4, 16.9, 16.8, 16.1, 16.8, 17.4, 15.7, 17.2, 17, 16, 16.7, 16.7, 16.5, 16.9, 17.1, 16.1, 16.5, 17, 16.1, 17.2, 16.8, 16.6, 16.1, 16.9, 16.6, 16.8, 16.7, 16.3, 17, 16.8, 16.5, 16.3, 16.8, 16.7, 17, 16.7, 16.2, 17, 16.4, 16.7, 17, 16.1, 17, 16.6, 16.3, 16.3, 17, 16.5, 17.1, 16.6, 16.7, 16.4, 16.9, 17, 16.5, 16.7, 17, 16.1, 16.9, 16.3, 16.6, 16.5, 16.6, 17, 16.3]",60.0,59.0,60.0,4978.1,[],,,,,,,,,,,,,,,,,,,,,,,,,HRV,HRV_0318,2022-11-30 23:33:44
,wl-html-keyboard-response,2,42102,0.0-2.0-0.0,0.0,3.0,,,,,,,,31965.5,0.0,0,,,,,,,,,,,,,,,,,,,,,,HRV,HRV_0318,2022-11-30 23:33:44
,wl-rdm,3,52095,0.0-3.0-0.0,0.0,4.0,,,,,,,[],,,,0.0,0.0,87.9,0.0,u,0.0,True,952.9000000953674,58.0,60.0,40.0,False,too_early ,3000.0,[],"[683, 384]",ColorTask_Demo,,,,,HRV,HRV_0318,2022-11-30 23:33:44
,wl-rdm,4,57008,0.0-3.0-1.0,0.0,5.0,,,,,,,[],,,,0.0,0.0,87.9,1.0,i,1.0,True,822.5000002384186,50.0,60.0,40.0,False,,2000.0,[],"[683, 384]",ColorTask_Demo,,,,,HRV,HRV_0318,2022-11-30 23:33:44
,wl-html-keyboard-response,5,68126,0.0-3.0-2.0,0.0,6.0,,,,,,,,9106.899999856949,0.0,1,,,,,,,,,,,,,,,,,,,,,,HRV,HRV_0318,2022-11-30 23:33:44
,wl-html-keyboard-response,6,77743,0.0-4.0-0.0,0.0,7.0,,,,,,,,7601.599999904633,0.0,0,,,,,,,,,,,,,,,,,,,,,,HRV,HRV_0318,2022-11-30 23:33:44
,wl-html-keyboard-response,7,109829,0.0-5.0-0.0,0.0,8.0,,,,,,,,30084.0,0.0,0,,,,,,,,,,,,,,,,,,,,,,HRV,HRV_0318,2022-11-30 23:33:44
,wl-rdm,8,112038,0.0-6.0-0.0,0.0,9.0,,,,,,,[],,,,,,53.2,1.0,i,1.0,True,857.6000001430511,52.0,60.0,40.0,False,,273.31605521437854,[],"[683, 384]",ColorTask,1.0,1.0,,,HRV,HRV_0318,2022-11-30 23:33:44
,wl-rdm,9,114168,0.0-6.1-0.1,0.0,10.0,,,,,,,[],,,,,,73.6,0.0,i,1.0,False,727.2999999523163,44.0,60.0,40.0,False,,318.36029471515127,[],"[683, 384]",ColorTask,0.0,2.0,,,HRV,HRV_0318,2022-11-30 23:33:44
,wl-rdm,10,116234,0.0-6.2-0.2,0.0,11.0,,,,,,,[],,,,,,56.4,1.0,i,1.0,True,708.4999997615814,43.0,60.0,40.0,False,,267.2409721433439,[],"[683, 384]",ColorTask,1.0,3.0,,,HRV,HRV_0318,2022-11-30 23:33:44
,wl-rdm,11,118564,0.0-6.3-0.3,0.0,12.0,,,,,,,[],,,,,,50.0,1.0,u,0.0,False,971.3000001907349,59.0,60.0,40.0,False,,277.98118811765085,[],"[683, 384]",ColorTask,0.0,4.0,,,HRV,HRV_0318,2022-11-30 23:33:44
,wl-rdm,12,120746,0.0-6.4-0.4,0.0,13.0,,,,,,,[],,,,,,62.5,0.0,i,1.0,False,734.5999999046326,45.0,60.0,40.0,False,,356.5942515008362,[],"[683, 384]",ColorTask,-1.0,5.0,,,HRV,HRV_0318,2022-11-30 23:33:44
,wl-rdm,13,122860,0.0-6.5-0.5,0.0,14.0,,,,,,,[],,,,,,87.9,0.0,u,0.0,True,689.0999999046326,42.0,60.0,40.0,False,,342.2515645312229,[],"[683, 384]",ColorTask,0.0,6.0,,,HRV,HRV_0318,2022-11-30 23:33:44
,wl-rdm,14,125058,0.0-6.6-0.6,0.0,15.0,,,,,,,[],,,,,,62.5,1.0,i,1.0,True,858.8000001907349,52.0,60.0,40.0,False,,256.8344394778354,[],"[683, 384]",ColorTask,1.0,7.0,,,HRV,HRV_0318,2022-11-30 23:33:44
,wl-rdm,15,127223,0.0-6.7-0.7,0.0,16.0,,,,,,,[],,,,,,87.9,0.0,i,1.0,False,850.6000001430511,52.0,60.0,40.0,False,,225.35736484649925,[],"[683, 384]",ColorTask,0.0,8.0,,,HRV,HRV_0318,2022-11-30 23:33:44
,wl-rdm,16,129354,0.0-6.8-0.8,0.0,17.0,,,,,,,[],,,,,,50.0,0.0,i,1.0,False,827.4000000953674,50.0,60.0,40.0,False,,227.42079861237042,[],"[683, 384]",ColorTask,-1.0,9.0,,,HRV,HRV_0318,2022-11-30 23:33:44
,wl-rdm,17,131535,0.0-6.9-0.9,0.0,18.0,,,,,,,[],,,,,,87.9,0.0,u,0.0,True,817.0999999046326,50.0,60.0,40.0,False,,274.7495637028806,[],"[683, 384]",ColorTask,0.0,10.0,,,HRV,HRV_0318,2022-11-30 23:33:44
,wl-rdm,18,133533,0.0-6.10-0.10,0.0,19.0,,,,,,,[],,,,,,73.6,0.0,u,0.0,True,703.7000000476837,43.0,60.0,40.0,False,,206.97709770455418,[],"[683, 384]",ColorTask,1.0,11.0,,,HRV,HRV_0318,2022-11-30 23:33:44
,wl-rdm,19,135631,0.0-6.11-0.11,0.0,20.0,,,,,,,[],,,,,,73.6,1.0,i,1.0,True,775.4000000953674,47.0,60.0,40.0,False,,236.07680793918362,[],"[683, 384]",ColorTask,2.0,12.0,,,HRV,HRV_0318,2022-11-30 23:33:44
,wl-rdm,20,137713,0.0-6.12-0.12,0.0,21.0,,,,,,,[],,,,,,87.9,1.0,i,1.0,True,686.5999999046326,42.0,60.0,40.0,False,,310.60772590152646,[],"[683, 384]",ColorTask,3.0,13.0,,,HRV,HRV_0318,2022-11-30 23:33:44
,wl-rdm,21,139694,0.0-6.13-0.13,0.0,22.0,,,,,,,[],,,,,,56.4,1.0,u,0.0,False,693.2000000476837,42.0,60.0,40.0,False,,212.78210356041612,[],"[683, 384]",ColorTask,2.0,14.0,,,HRV,HRV_0318,2022-11-30 23:33:44
,wl-rdm,22,141792,0.0-6.14-0.14,0.0,23.0,,,,,,,[],,,,,,87.9,1.0,i,1.0,True,683.7999999523163,42.0,60.0,40.0,False,,322.85836051094833,[],"[683, 384]",ColorTask,3.0,15.0,,,HRV,HRV_0318,2022-11-30 23:33:44
,wl-rdm,23,143957,0.0-6.15-0.15,0.0,24.0,,,,,,,[],,,,,,73.6,0.0,i,1.0,False,850.1000001430511,52.0,60.0,40.0,False,,219.561642422714,[],"[683, 384]",ColorTask,2.0,16.0,,,HRV,HRV_0318,2022-11-30 23:33:44
,wl-rdm,24,146454,0.0-6.16-0.16,0.0,25.0,,,,,,,[],,,,,,50.0,0.0,u,0.0,True,1069.1000001430511,65.0,60.0,40.0,False,,340.81728917289985,[],"[683, 384]",ColorTask,3.0,17.0,,,HRV,HRV_0318,2022-11-30 23:33:44
,wl-rdm,25,148902,0.0-6.17-0.17,0.0,26.0,,,,,,,[],,,,,,53.2,0.0,u,0.0,True,1054.5,64.0,60.0,40.0,False,,311.39648687924466,[],"[683, 384]",ColorTask,4.0,18.0,,,HRV,HRV_0318,2022-11-30 23:33:44
,wl-rdm,26,151200,0.0-6.18-0.18,0.0,27.0,,,,,,,[],,,,,,73.6,1.0,u,0.0,False,1010.6999998092651,61.0,60.0,40.0,False,,204.77027280042023,[],"[683, 384]",ColorTask,3.0,19.0,,,HRV,HRV_0318,2022-11-30 23:33:44
,wl-rdm,27,153198,0.0-6.19-0.19,0.0,28.0,,,,,,,[],,,,,,62.5,1.0,i,1.0,True,667.9000000953674,41.0,60.0,40.0,False,,252.30676831512451,[],"[683, 384]",ColorTask,4.0,20.0,,,HRV,HRV_0318,2022-11-30 23:33:44
,wl-rdm,28,155479,0.0-6.20-0.20,0.0,29.0,,,,,,,[],,,,,,56.4,1.0,i,1.0,True,803.5999999046326,49.0,60.0,40.0,False,,395.2278756680976,[],"[683, 384]",ColorTask,5.0,21.0,,,HRV,HRV_0318,2022-11-30 23:33:44
,wl-rdm,29,157726,0.0-6.21-0.21,0.0,30.0,,,,,,,[],,,,,,73.6,0.0,i,1.0,False,963.2000000476837,58.0,60.0,40.0,False,,210.3940817288262,[],"[683, 384]",ColorTask,4.0,22.0,,,HRV,HRV_0318,2022-11-30 23:33:44
,wl-rdm,30,160024,0.0-6.22-0.22,0.0,31.0,,,,,,,[],,,,,,87.9,0.0,u,0.0,True,902.4000000953674,55.0,60.0,40.0,False,,314.93636197868,[],"[683, 384]",ColorTask,5.0,23.0,,,HRV,HRV_0318,2022-11-30 23:33:44
,wl-rdm,31,162305,0.0-6.23-0.23,0.0,32.0,,,,,,,[],,,,,,56.4,0.0,u,0.0,True,953.5999999046326,58.0,60.0,40.0,False,,263.3056085243635,[],"[683, 384]",ColorTask,6.0,24.0,,,HRV,HRV_0318,2022-11-30 23:33:44
,wl-rdm,32,164603,0.0-6.24-0.24,0.0,33.0,,,,,,,[],,,,,,87.9,1.0,i,1.0,True,851.6999998092651,52.0,60.0,40.0,False,,355.1591927153733,[],"[683, 384]",ColorTask,7.0,25.0,,,HRV,HRV_0318,2022-11-30 23:33:44
,wl-rdm,33,167034,0.0-6.25-0.25,0.0,34.0,,,,,,,[],,,,,,62.5,0.0,u,0.0,True,1107.5999999046326,67.0,60.0,40.0,False,,243.7949257614915,[],"[683, 384]",ColorTask,8.0,26.0,,,HRV,HRV_0318,2022-11-30 23:33:44
,wl-rdm,34,169415,0.0-6.26-0.26,0.0,35.0,,,,,,,[],,,,,,50.0,0.0,u,0.0,True,1092.5,66.0,60.0,40.0,False,,231.8663102612534,[],"[683, 384]",ColorTask,9.0,27.0,,,HRV,HRV_0318,2022-11-30 23:33:44
,wl-rdm,35,171946,0.0-6.27-0.27,0.0,36.0,,,,,,,[],,,,,,53.2,0.0,u,0.0,True,1174.1999998092651,71.0,60.0,40.0,False,,271.3169225419593,[],"[683, 384]",ColorTask,10.0,28.0,,,HRV,HRV_0318,2022-11-30 23:33:44
,wl-rdm,36,174261,0.0-6.28-0.28,0.0,37.0,,,,,,,[],,,,,,87.9,0.0,u,0.0,True,985.7000000476837,60.0,60.0,40.0,False,,243.95946052819764,[],"[683, 384]",ColorTask,11.0,29.0,,,HRV,HRV_0318,2022-11-30 23:33:44
,wl-rdm,37,176742,0.0-6.29-0.29,0.0,38.0,,,,,,,[],,,,,,56.4,0.0,i,1.0,False,1122.7000002861023,68.0,60.0,40.0,False,,268.9106946494538,[],"[683, 384]",ColorTask,10.0,30.0,,,HRV,HRV_0318,2022-11-30 23:33:44
,wl-rdm,38,179306,0.0-6.30-0.30,0.0,39.0,,,,,,,[],,,,,,53.2,1.0,u,0.0,False,1109.2999999523163,67.0,60.0,40.0,False,,369.65928712220494,[],"[683, 384]",ColorTask,9.0,31.0,,,HRV,HRV_0318,2022-11-30 23:33:44
,wl-rdm,39,181737,0.0-6.31-0.31,0.0,40.0,,,,,,,[],,,,,,62.5,1.0,i,1.0,True,1140.7000000476837,69.0,60.0,40.0,False,,221.67925317295445,[],"[683, 384]",ColorTask,10.0,32.0,,,HRV,HRV_0318,2022-11-30 23:33:44
,wl-rdm,40,184434,0.0-6.32-0.32,0.0,41.0,,,,,,,[],,,,,,50.0,1.0,i,1.0,True,1225.7000000476837,74.0,60.0,40.0,False,,390.9040061140089,[],"[683, 384]",ColorTask,11.0,33.0,,,HRV,HRV_0318,2022-11-30 23:33:44
,wl-rdm,41,186865,0.0-6.33-0.33,0.0,42.0,,,,,,,[],,,,,,50.0,1.0,u,0.0,False,1023.0,62.0,60.0,40.0,False,,320.0134656818237,[],"[683, 384]",ColorTask,10.0,34.0,,,HRV,HRV_0318,2022-11-30 23:33:44
,wl-rdm,42,189362,0.0-6.34-0.34,0.0,43.0,,,,,,,[],,,,,,62.5,1.0,i,1.0,True,1084.5,66.0,60.0,40.0,False,,320.3220933729835,[],"[683, 384]",ColorTask,11.0,35.0,,,HRV,HRV_0318,2022-11-30 23:33:44
,wl-rdm,43,191577,0.0-6.35-0.35,0.0,44.0,,,,,,,[],,,,,,73.6,1.0,i,1.0,True,911.3999998569489,55.0,60.0,40.0,False,,243.27126153306398,[],"[683, 384]",ColorTask,12.0,36.0,,,HRV,HRV_0318,2022-11-30 23:33:44
,wl-rdm,44,194058,0.0-6.36-0.36,0.0,45.0,,,,,,,[],,,,,,56.4,0.0,u,0.0,True,1136.0999999046326,69.0,60.0,40.0,False,,261.66871508694624,[],"[683, 384]",ColorTask,13.0,37.0,,,HRV,HRV_0318,2022-11-30 23:33:44
,wl-rdm,45,196573,0.0-6.37-0.37,0.0,46.0,,,,,,,[],,,,,,62.5,1.0,i,1.0,True,1180.0999999046326,71.0,60.0,40.0,False,,267.31020612294316,[],"[683, 384]",ColorTask,14.0,38.0,,,HRV,HRV_0318,2022-11-30 23:33:44
,wl-rdm,46,199236,0.0-6.38-0.38,0.0,47.0,,,,,,,[],,,,,,87.9,0.0,u,0.0,True,1284.1000001430511,78.0,60.0,40.0,False,,284.1018282914512,[],"[683, 384]",ColorTask,15.0,39.0,,,HRV,HRV_0318,2022-11-30 23:33:44
,wl-rdm,47,201800,0.0-6.39-0.39,0.0,48.0,,,,,,,[],,,,,,50.0,0.0,u,0.0,True,1244.5999999046326,75.0,60.0,40.0,False,,241.48484860411583,[],"[683, 384]",ColorTask,16.0,40.0,,,HRV,HRV_0318,2022-11-30 23:33:44
,wl-rdm,48,204415,0.0-6.40-0.40,0.0,49.0,,,,,,,[],,,,,,87.9,1.0,i,1.0,True,1176.7999999523163,71.0,60.0,40.0,False,,360.73559352140404,[],"[683, 384]",ColorTask,17.0,41.0,,,HRV,HRV_0318,2022-11-30 23:33:44
,wl-rdm,49,207195,0.0-6.41-0.41,0.0,50.0,,,,,,,[],,,,,,73.6,0.0,u,0.0,True,1389.3999998569489,84.0,60.0,40.0,False,,315.64083170056267,[],"[683, 384]",ColorTask,18.0,42.0,,,HRV,HRV_0318,2022-11-30 23:33:44
,wl-rdm,50,210009,0.0-6.42-0.42,0.0,51.0,,,,,,,[],,,,,,56.4,1.0,u,0.0,False,1513.7000000476837,91.0,60.0,40.0,False,,217.1966352216509,[],"[683, 384]",ColorTask,17.0,43.0,,,HRV,HRV_0318,2022-11-30 23:33:44
,wl-rdm,51,212473,0.0-6.43-0.43,0.0,52.0,,,,,,,[],,,,,,62.5,0.0,u,0.0,True,1118.0,68.0,60.0,40.0,False,,257.12620326148874,[],"[683, 384]",ColorTask,18.0,44.0,,,HRV,HRV_0318,2022-11-30 23:33:44
,wl-rdm,52,214938,0.0-6.44-0.44,0.0,53.0,,,,,,,[],,,,,,87.9,1.0,i,1.0,True,1050.5,64.0,60.0,40.0,False,,320.9028571683754,[],"[683, 384]",ColorTask,19.0,45.0,,,HRV,HRV_0318,2022-11-30 23:33:44
,wl-rdm,53,217486,0.0-6.45-0.45,0.0,54.0,,,,,,,[],,,,,,87.9,0.0,u,0.0,True,1067.0999999046326,65.0,60.0,40.0,False,,392.5308498350023,[],"[683, 384]",ColorTask,20.0,46.0,,,HRV,HRV_0318,2022-11-30 23:33:44
,wl-rdm,54,220265,0.0-6.46-0.46,0.0,55.0,,,,,,,[],,,,,,53.2,1.0,u,0.0,False,1458.2999999523163,88.0,60.0,40.0,False,,236.74033207782614,[],"[683, 384]",ColorTask,19.0,47.0,,,HRV,HRV_0318,2022-11-30 23:33:44
,wl-rdm,55,222996,0.0-6.47-0.47,0.0,56.0,,,,,,,[],,,,,,62.5,0.0,u,0.0,True,1401.0999999046326,85.0,60.0,40.0,False,,234.2694625171175,[],"[683, 384]",ColorTask,20.0,48.0,,,HRV,HRV_0318,2022-11-30 23:33:44
,wl-rdm,56,225561,0.0-6.48-0.48,0.0,57.0,,,,,,,[],,,,,,50.0,1.0,u,0.0,False,1265.1000001430511,76.0,60.0,40.0,False,,225.85377765398894,[],"[683, 384]",ColorTask,19.0,49.0,,,HRV,HRV_0318,2022-11-30 23:33:44
,wl-rdm,57,228425,0.0-6.49-0.49,0.0,58.0,,,,,,,[],,,,,,53.2,1.0,u,0.0,False,1569.3000001907349,95.0,60.0,40.0,False,,206.73942810711677,[],"[683, 384]",ColorTask,18.0,50.0,,,HRV,HRV_0318,2022-11-30 23:33:44
,wl-rdm,58,231321,0.0-6.50-0.50,0.0,59.0,,,,,,,[],,,,,,56.4,1.0,i,1.0,True,1474.7000000476837,89.0,60.0,40.0,False,,333.140342834326,[],"[683, 384]",ColorTask,19.0,51.0,,,HRV,HRV_0318,2022-11-30 23:33:44
,wl-rdm,59,234685,0.0-6.51-0.51,0.0,60.0,,,,,,,[],,,,,,62.5,1.0,i,1.0,True,1986.5,120.0,60.0,40.0,False,,302.1660806038552,[],"[683, 384]",ColorTask,20.0,52.0,,,HRV,HRV_0318,2022-11-30 23:33:44
,wl-rdm,60,237632,0.0-6.52-0.52,0.0,61.0,,,,,,,[],,,,,,73.6,0.0,u,0.0,True,1483.4000000953674,90.0,60.0,40.0,False,,376.423170506342,[],"[683, 384]",ColorTask,21.0,53.0,,,HRV,HRV_0318,2022-11-30 23:33:44
,wl-rdm,61,240563,0.0-6.53-0.53,0.0,62.0,,,,,,,[],,,,,,53.2,1.0,u,0.0,False,1527.7999999523163,92.0,60.0,40.0,False,,342.64737091571277,[],"[683, 384]",ColorTask,20.0,54.0,,,HRV,HRV_0318,2022-11-30 23:33:44
,wl-rdm,62,243326,0.0-6.54-0.54,0.0,63.0,,,,,,,[],,,,,,53.2,1.0,i,1.0,True,1356.3999998569489,82.0,60.0,40.0,False,,339.3101053347485,[],"[683, 384]",ColorTask,21.0,55.0,,,HRV,HRV_0318,2022-11-30 23:33:44
,wl-rdm,63,245858,0.0-6.55-0.55,0.0,64.0,,,,,,,[],,,,,,73.6,0.0,i,1.0,False,1208.0999999046326,73.0,60.0,40.0,False,,233.70490182717344,[],"[683, 384]",ColorTask,20.0,56.0,,,HRV,HRV_0318,2022-11-30 23:33:44
,wl-rdm,64,248438,0.0-6.56-0.56,0.0,65.0,,,,,,,[],,,,,,56.4,0.0,u,0.0,True,1296.5,78.0,60.0,40.0,False,,219.36186028856207,[],"[683, 384]",ColorTask,21.0,57.0,,,HRV,HRV_0318,2022-11-30 23:33:44
,wl-rdm,65,250919,0.0-6.57-0.57,0.0,66.0,,,,,,,[],,,,,,53.2,1.0,i,1.0,True,1189.8999998569489,72.0,60.0,40.0,False,,210.37078231118278,[],"[683, 384]",ColorTask,22.0,58.0,,,HRV,HRV_0318,2022-11-30 23:33:44
,wl-rdm,66,253533,0.0-6.58-0.58,0.0,67.0,,,,,,,[],,,,,,73.6,1.0,i,1.0,True,1328.9999997615814,80.0,60.0,40.0,False,,201.68079001030654,[],"[683, 384]",ColorTask,23.0,59.0,,,HRV,HRV_0318,2022-11-30 23:33:44
,wl-rdm,67,256463,0.0-6.59-0.59,0.0,68.0,,,,,,,[],,,,,,73.6,0.0,u,0.0,True,1525.7000000476837,92.0,60.0,40.0,False,,330.09076318195537,[],"[683, 384]",ColorTask,24.0,60.0,,,HRV,HRV_0318,2022-11-30 23:33:44
,wl-rdm,68,259295,0.0-6.60-0.60,0.0,69.0,,,,,,,[],,,,,,87.9,0.0,u,0.0,True,1462.1000001430511,88.0,60.0,40.0,False,,286.60570067864785,[],"[683, 384]",ColorTask,25.0,61.0,,,HRV,HRV_0318,2022-11-30 23:33:44
,wl-rdm,69,261842,0.0-6.61-0.61,0.0,70.0,,,,,,,[],,,,,,73.6,1.0,i,1.0,True,1234.0,75.0,60.0,40.0,False,,248.8521831668058,[],"[683, 384]",ColorTask,26.0,62.0,,,HRV,HRV_0318,2022-11-30 23:33:44
,wl-rdm,70,264789,0.0-6.62-0.62,0.0,71.0,,,,,,,[],,,,,,50.0,1.0,i,1.0,True,1514.4000000953674,91.0,60.0,40.0,False,,376.1569803222361,[],"[683, 384]",ColorTask,27.0,63.0,,,HRV,HRV_0318,2022-11-30 23:33:44
,wl-rdm,71,267537,0.0-6.63-0.63,0.0,72.0,,,,,,,[],,,,,,73.6,1.0,i,1.0,True,1386.7999999523163,84.0,60.0,40.0,False,,278.0109029209854,[],"[683, 384]",ColorTask,28.0,64.0,,,HRV,HRV_0318,2022-11-30 23:33:44
,wl-rdm,72,270084,0.0-6.64-0.64,0.0,73.0,,,,,,,[],,,,,,87.9,1.0,i,1.0,True,1152.2999999523163,70.0,60.0,40.0,False,,317.37558047846403,[],"[683, 384]",ColorTask,29.0,65.0,,,HRV,HRV_0318,2022-11-30 23:33:44
,wl-rdm,73,273248,0.0-6.65-0.65,0.0,74.0,,,,,,,[],,,,,,56.4,0.0,u,0.0,True,1817.1000001430511,110.0,60.0,40.0,False,,255.34233493806693,[],"[683, 384]",ColorTask,30.0,66.0,,,HRV,HRV_0318,2022-11-30 23:33:44
,wl-rdm,74,276311,0.0-6.66-0.66,0.0,75.0,,,,,,,[],,,,,,56.4,0.0,i,1.0,False,1720.3000001907349,104.0,60.0,40.0,False,,249.65632120483912,[],"[683, 384]",ColorTask,29.0,67.0,,,HRV,HRV_0318,2022-11-30 23:33:44
,wl-rdm,75,279158,0.0-6.67-0.67,0.0,76.0,,,,,,,[],,,,,,53.2,0.0,u,0.0,True,1479.0,89.0,60.0,40.0,False,,286.9525428918269,[],"[683, 384]",ColorTask,30.0,68.0,,,HRV,HRV_0318,2022-11-30 23:33:44
,wl-rdm,76,282156,0.0-6.68-0.68,0.0,77.0,,,,,,,[],,,,,,50.0,1.0,u,0.0,False,1562.7999999523163,94.0,60.0,40.0,False,,364.62415625716267,[],"[683, 384]",ColorTask,29.0,69.0,,,HRV,HRV_0318,2022-11-30 23:33:44
,wl-rdm,77,285037,0.0-6.69-0.69,0.0,78.0,,,,,,,[],,,,,,53.2,0.0,u,0.0,True,1437.8999998569489,87.0,60.0,40.0,False,,369.7761483434597,[],"[683, 384]",ColorTask,30.0,70.0,,,HRV,HRV_0318,2022-11-30 23:33:44
,wl-rdm,78,287717,0.0-6.70-0.70,0.0,79.0,,,,,,,[],,,,,,73.6,1.0,i,1.0,True,1334.6000001430511,81.0,60.0,40.0,False,,263.05149801724224,[],"[683, 384]",ColorTask,31.0,71.0,,,HRV,HRV_0318,2022-11-30 23:33:44
,wl-rdm,79,290465,0.0-6.71-0.71,0.0,80.0,,,,,,,[],,,,,,62.5,0.0,u,0.0,True,1377.4000000953674,83.0,60.0,40.0,False,,286.23812262917374,[],"[683, 384]",ColorTask,32.0,72.0,,,HRV,HRV_0318,2022-11-30 23:33:44
,wl-rdm,80,293328,0.0-6.72-0.72,0.0,81.0,,,,,,,[],,,,,,53.2,0.0,u,0.0,True,1412.0,85.0,60.0,40.0,False,,382.025896671361,[],"[683, 384]",ColorTask,33.0,73.0,,,HRV,HRV_0318,2022-11-30 23:33:44
,wl-rdm,81,296275,0.0-6.73-0.73,0.0,82.0,,,,,,,[],,,,,,50.0,1.0,i,1.0,True,1543.8999998569489,93.0,60.0,40.0,False,,332.36727323597563,[],"[683, 384]",ColorTask,34.0,74.0,,,HRV,HRV_0318,2022-11-30 23:33:44
,wl-rdm,82,299056,0.0-6.74-0.74,0.0,83.0,,,,,,,[],,,,,,87.9,1.0,i,1.0,True,1460.3000001907349,88.0,60.0,40.0,False,,245.65730847218313,[],"[683, 384]",ColorTask,35.0,75.0,,,HRV,HRV_0318,2022-11-30 23:33:44
,wl-rdm,83,302436,0.0-6.75-0.75,0.0,84.0,,,,,,,[],,,,,,62.5,1.0,i,1.0,True,2037.2000000476837,123.0,60.0,40.0,False,,270.20043990251867,[],"[683, 384]",ColorTask,36.0,76.0,,,HRV,HRV_0318,2022-11-30 23:33:44
,wl-rdm,84,305716,0.0-6.76-0.76,0.0,85.0,,,,,,,[],,,,,,73.6,1.0,i,1.0,True,1983.7999997138977,120.0,60.0,40.0,False,,214.93846204859162,[],"[683, 384]",ColorTask,37.0,77.0,,,HRV,HRV_0318,2022-11-30 23:33:44
,wl-rdm,85,308680,0.0-6.77-0.77,0.0,86.0,,,,,,,[],,,,,,50.0,1.0,u,0.0,False,1569.9000000953674,95.0,60.0,40.0,False,,307.7252754850158,[],"[683, 384]",ColorTask,36.0,78.0,,,HRV,HRV_0318,2022-11-30 23:33:44
,wl-rdm,86,311810,0.0-6.78-0.78,0.0,87.0,,,,,,,[],,,,,,56.4,1.0,i,1.0,True,1734.0,105.0,60.0,40.0,False,,301.2798486220741,[],"[683, 384]",ColorTask,37.0,79.0,,,HRV,HRV_0318,2022-11-30 23:33:44
,wl-rdm,87,314741,0.0-6.79-0.79,0.0,88.0,,,,,,,[],,,,,,87.9,1.0,i,1.0,True,1536.0999999046326,93.0,60.0,40.0,False,,304.5733917829933,[],"[683, 384]",ColorTask,38.0,80.0,,,HRV,HRV_0318,2022-11-30 23:33:44
,wl-rdm,88,317488,0.0-6.80-0.80,0.0,89.0,,,,,,,[],,,,,,62.5,1.0,i,1.0,True,1409.2999999523163,85.0,60.0,40.0,False,,256.9183115982485,[],"[683, 384]",ColorTask,39.0,81.0,,,HRV,HRV_0318,2022-11-30 23:33:44
,wl-rdm,89,321118,0.0-6.81-0.81,0.0,90.0,,,,,,,[],,,,,,50.0,0.0,i,1.0,False,2301.399999856949,139.0,60.0,40.0,False,,242.78329634891762,[],"[683, 384]",ColorTask,38.0,82.0,,,HRV,HRV_0318,2022-11-30 23:33:44
,wl-rdm,90,324249,0.0-6.82-0.82,0.0,91.0,,,,,,,[],,,,,,73.6,1.0,i,1.0,True,1838.2999997138977,111.0,60.0,40.0,False,,209.42212926642603,[],"[683, 384]",ColorTask,39.0,83.0,,,HRV,HRV_0318,2022-11-30 23:33:44
,wl-rdm,91,327179,0.0-6.83-0.83,0.0,92.0,,,,,,,[],,,,,,56.4,1.0,u,0.0,False,1568.6000001430511,95.0,60.0,40.0,False,,274.6121236488534,[],"[683, 384]",ColorTask,38.0,84.0,,,HRV,HRV_0318,2022-11-30 23:33:44
,wl-rdm,92,330326,0.0-6.84-0.84,0.0,93.0,,,,,,,[],,,,,,56.4,1.0,u,0.0,False,1838.2999999523163,111.0,60.0,40.0,False,,227.40849824558967,[],"[683, 384]",ColorTask,37.0,85.0,,,HRV,HRV_0318,2022-11-30 23:33:44
,wl-rdm,93,333090,0.0-6.85-0.85,0.0,94.0,,,,,,,[],,,,,,50.0,0.0,u,0.0,True,1352.9000000953674,82.0,60.0,40.0,False,,326.81909694984995,[],"[683, 384]",ColorTask,38.0,86.0,,,HRV,HRV_0318,2022-11-30 23:33:44
,wl-rdm,94,336021,0.0-6.86-0.86,0.0,95.0,,,,,,,[],,,,,,62.5,0.0,u,0.0,True,1623.0,98.0,60.0,40.0,False,,232.70057051551422,[],"[683, 384]",ColorTask,39.0,87.0,,,HRV,HRV_0318,2022-11-30 23:33:44
,wl-rdm,95,339051,0.0-6.87-0.87,0.0,96.0,,,,,,,[],,,,,,56.4,0.0,u,0.0,True,1745.2999999523163,105.0,60.0,40.0,False,,212.36453889090393,[],"[683, 384]",ColorTask,40.0,88.0,,,HRV,HRV_0318,2022-11-30 23:33:44
,wl-rdm,96,342264,0.0-6.88-0.88,0.0,97.0,,,,,,,[],,,,,,56.4,0.0,u,0.0,True,1928.7000000476837,116.0,60.0,40.0,False,,212.02762465126156,[],"[683, 384]",ColorTask,41.0,89.0,,,HRV,HRV_0318,2022-11-30 23:33:44
,wl-rdm,97,345162,0.0-6.89-0.89,0.0,98.0,,,,,,,[],,,,,,62.5,1.0,i,1.0,True,1593.7000000476837,96.0,60.0,40.0,False,,232.1599452580671,[],"[683, 384]",ColorTask,42.0,90.0,,,HRV,HRV_0318,2022-11-30 23:33:44
,wl-rdm,98,348276,0.0-6.90-0.90,0.0,99.0,,,,,,,[],,,,,,50.0,0.0,i,1.0,False,1778.5,107.0,60.0,40.0,False,,258.035877277212,[],"[683, 384]",ColorTask,41.0,91.0,,,HRV,HRV_0318,2022-11-30 23:33:44
,wl-rdm,99,350956,0.0-6.91-0.91,0.0,100.0,,,,,,,[],,,,,,87.9,1.0,i,1.0,True,1360.3000001907349,82.0,60.0,40.0,False,,236.89317718477201,[],"[683, 384]",ColorTask,42.0,92.0,,,HRV,HRV_0318,2022-11-30 23:33:44
,wl-rdm,100,354436,0.0-6.92-0.92,0.0,101.0,,,,,,,[],,,,,,62.5,0.0,u,0.0,True,2076.899999856949,125.0,60.0,40.0,False,,346.34887205185964,[],"[683, 384]",ColorTask,43.0,93.0,,,HRV,HRV_0318,2022-11-30 23:33:44
,wl-rdm,101,357300,0.0-6.93-0.93,0.0,102.0,,,,,,,[],,,,,,73.6,0.0,u,0.0,True,1527.2000000476837,92.0,60.0,40.0,False,,253.5159236141912,[],"[683, 384]",ColorTask,44.0,94.0,,,HRV,HRV_0318,2022-11-30 23:33:44
,wl-rdm,102,360097,0.0-6.94-0.94,0.0,103.0,,,,,,,[],,,,,,53.2,0.0,u,0.0,True,1429.5,86.0,60.0,40.0,False,,290.4152756889449,[],"[683, 384]",ColorTask,45.0,95.0,,,HRV,HRV_0318,2022-11-30 23:33:44
,wl-rdm,103,363061,0.0-6.95-0.95,0.0,104.0,,,,,,,[],,,,,,53.2,0.0,u,0.0,True,1512.8999998569489,91.0,60.0,40.0,False,,379.8078131755751,[],"[683, 384]",ColorTask,46.0,96.0,,,HRV,HRV_0318,2022-11-30 23:33:44
,wl-rdm,104,366224,0.0-6.96-0.96,0.0,105.0,,,,,,,[],,,,,,50.0,0.0,i,1.0,False,1755.4000000953674,106.0,60.0,40.0,False,,329.5996288778199,[],"[683, 384]",ColorTask,45.0,97.0,,,HRV,HRV_0318,2022-11-30 23:33:44
,wl-rdm,105,369155,0.0-6.97-0.97,0.0,106.0,,,,,,,[],,,,,,50.0,1.0,u,0.0,False,1633.0999999046326,99.0,60.0,40.0,False,,203.5944855163007,[],"[683, 384]",ColorTask,44.0,98.0,,,HRV,HRV_0318,2022-11-30 23:33:44
,wl-rdm,106,371885,0.0-6.98-0.98,0.0,107.0,,,,,,,[],,,,,,53.2,0.0,i,1.0,False,1330.8999998569489,80.0,60.0,40.0,False,,320.68787047746036,[],"[683, 384]",ColorTask,43.0,99.0,,,HRV,HRV_0318,2022-11-30 23:33:44
,wl-rdm,107,375199,0.0-6.99-0.99,0.0,108.0,,,,,,,[],,,,,,56.4,1.0,u,0.0,False,1942.2999999523163,117.0,60.0,40.0,False,,290.8147976409063,[],"[683, 384]",ColorTask,42.0,100.0,,,HRV,HRV_0318,2022-11-30 23:33:44
,wl-rdm,108,378246,0.0-6.100-0.100,0.0,109.0,,,,,,,[],,,,,,50.0,0.0,u,0.0,True,1663.0,100.0,60.0,40.0,False,,303.5925249940559,[],"[683, 384]",ColorTask,43.0,101.0,,,HRV,HRV_0318,2022-11-30 23:33:44
,wl-rdm,109,381843,0.0-6.101-0.101,0.0,110.0,,,,,,,[],,,,,,62.5,0.0,u,0.0,True,2240.4000000953674,135.0,60.0,40.0,False,,280.9094144431453,[],"[683, 384]",ColorTask,44.0,102.0,,,HRV,HRV_0318,2022-11-30 23:33:44
,wl-rdm,110,385422,0.0-6.102-0.102,0.0,111.0,,,,,,,[],,,,,,62.5,0.0,u,0.0,True,2103.5999999046326,127.0,60.0,40.0,False,,392.6795743247689,[],"[683, 384]",ColorTask,45.0,103.0,,,HRV,HRV_0318,2022-11-30 23:33:44
,wl-rdm,111,389351,0.0-6.103-0.103,0.0,112.0,,,,,,,[],,,,,,53.2,1.0,i,1.0,True,2575.7000002861023,155.0,60.0,40.0,False,,278.00676417945954,[],"[683, 384]",ColorTask,46.0,104.0,,,HRV,HRV_0318,2022-11-30 23:33:44
,wl-rdm,112,392515,0.0-6.104-0.104,0.0,113.0,,,,,,,[],,,,,,87.9,0.0,u,0.0,True,1872.6000001430511,113.0,60.0,40.0,False,,202.83275286872856,[],"[683, 384]",ColorTask,47.0,105.0,,,HRV,HRV_0318,2022-11-30 23:33:44
,wl-rdm,113,395745,0.0-6.105-0.105,0.0,114.0,,,,,,,[],,,,,,53.2,1.0,i,1.0,True,1916.9000000953674,116.0,60.0,40.0,False,,239.30949472001137,[],"[683, 384]",ColorTask,48.0,106.0,,,HRV,HRV_0318,2022-11-30 23:33:44
,wl-rdm,114,399342,0.0-6.106-0.106,0.0,115.0,,,,,,,[],,,,,,53.2,0.0,i,1.0,False,2280.4000000953674,137.0,60.0,40.0,False,,257.47099755967224,[],"[683, 384]",ColorTask,47.0,107.0,,,HRV,HRV_0318,2022-11-30 23:33:44
,wl-rdm,115,402105,0.0-6.107-0.107,0.0,116.0,,,,,,,[],,,,,,56.4,0.0,u,0.0,True,1409.2999999523163,85.0,60.0,40.0,False,,269.15596907013065,[],"[683, 384]",ColorTask,48.0,108.0,,,HRV,HRV_0318,2022-11-30 23:33:44
,wl-html-keyboard-response,116,620446,0.0-7.0-0.0,1.0,117.0,,,,,,,,216334.09999990463,1.0,0,,,,,,,,,,,,,,,,,,,,,,HRV,HRV_0318,2022-11-30 23:33:44
,wl-rdm,117,623275,0.0-8.0-0.0,1.0,118.0,,,,,,,[],,,,,,62.5,0.0,u,0.0,True,1421.0000002384186,86.0,60.0,40.0,False,,326.4848326911325,[],"[683, 384]",ColorTask,49.0,1.0,,,HRV,HRV_0318,2022-11-30 23:33:44
,wl-rdm,118,626322,0.0-8.1-0.1,1.0,119.0,,,,,,,[],,,,,,50.0,1.0,u,0.0,False,1765.5,106.0,60.0,40.0,False,,201.8842158523352,[],"[683, 384]",ColorTask,48.0,2.0,,,HRV,HRV_0318,2022-11-30 23:33:44
,wl-rdm,119,628570,0.0-8.2-0.2,1.0,120.0,,,,,,,[],,,,,,50.0,1.0,i,1.0,True,946.0999999046326,57.0,60.0,40.0,False,,228.81404688816417,[],"[683, 384]",ColorTask,49.0,3.0,,,HRV,HRV_0318,2022-11-30 23:33:44
,wl-rdm,120,631068,0.0-8.3-0.3,1.0,121.0,,,,,,,[],,,,,,62.5,1.0,i,1.0,True,1111.7000000476837,67.0,60.0,40.0,False,,303.1636437804005,[],"[683, 384]",ColorTask,50.0,4.0,,,HRV,HRV_0318,2022-11-30 23:33:44
,wl-rdm,121,634348,0.0-8.4-0.4,1.0,122.0,,,,,,,[],,,,,,53.2,0.0,i,1.0,False,1979.2999999523163,119.0,60.0,40.0,False,,219.95767223215793,[],"[683, 384]",ColorTask,49.0,5.0,,,HRV,HRV_0318,2022-11-30 23:33:44
,wl-rdm,122,636979,0.0-8.5-0.5,1.0,123.0,,,,,,,[],,,,,,56.4,0.0,u,0.0,True,1346.2000000476837,81.0,60.0,40.0,False,,203.08211029548178,[],"[683, 384]",ColorTask,50.0,6.0,,,HRV,HRV_0318,2022-11-30 23:33:44
,wl-rdm,123,639826,0.0-8.6-0.6,1.0,124.0,,,,,,,[],,,,,,56.4,1.0,i,1.0,True,1416.1000001430511,86.0,60.0,40.0,False,,343.4444868202807,[],"[683, 384]",ColorTask,51.0,7.0,,,HRV,HRV_0318,2022-11-30 23:33:44
,wl-rdm,124,642523,0.0-8.7-0.7,1.0,125.0,,,,,,,[],,,,,,50.0,1.0,u,0.0,False,1371.2000000476837,83.0,60.0,40.0,False,,234.84723074719233,[],"[683, 384]",ColorTask,50.0,8.0,,,HRV,HRV_0318,2022-11-30 23:33:44
,wl-rdm,125,645337,0.0-8.8-0.8,1.0,126.0,,,,,,,[],,,,,,56.4,1.0,i,1.0,True,1337.7000002861023,81.0,60.0,40.0,False,,399.9141503898451,[],"[683, 384]",ColorTask,51.0,9.0,,,HRV,HRV_0318,2022-11-30 23:33:44
,wl-rdm,126,648201,0.0-8.9-0.9,1.0,127.0,,,,,,,[],,,,,,62.5,0.0,i,1.0,False,1472.9000000953674,89.0,60.0,40.0,False,,301.88271578111016,[],"[683, 384]",ColorTask,50.0,10.0,,,HRV,HRV_0318,2022-11-30 23:33:44
,wl-rdm,127,651647,0.0-8.10-0.10,1.0,128.0,,,,,,,[],,,,,,62.5,0.0,u,0.0,True,2017.3999998569489,122.0,60.0,40.0,False,,360.85485658316355,[],"[683, 384]",ColorTask,51.0,11.0,,,HRV,HRV_0318,2022-11-30 23:33:44
,wl-rdm,128,654229,0.0-8.11-0.11,1.0,129.0,,,,,,,[],,,,,,56.4,0.0,u,0.0,True,1245.0999999046326,75.0,60.0,40.0,False,,264.97426303079067,[],"[683, 384]",ColorTask,52.0,12.0,,,HRV,HRV_0318,2022-11-30 23:33:44
,wl-rdm,129,657158,0.0-8.12-0.12,1.0,130.0,,,,,,,[],,,,,,53.2,1.0,u,0.0,False,1634.7000000476837,99.0,60.0,40.0,False,,201.18449666918656,[],"[683, 384]",ColorTask,51.0,13.0,,,HRV,HRV_0318,2022-11-30 23:33:44
,wl-rdm,130,659758,0.0-8.13-0.13,1.0,131.0,,,,,,,[],,,,,,73.6,0.0,u,0.0,True,1304.7000000476837,79.0,60.0,40.0,False,,200.32289152523134,[],"[683, 384]",ColorTask,52.0,14.0,,,HRV,HRV_0318,2022-11-30 23:33:44
,wl-rdm,131,662187,0.0-8.14-0.14,1.0,132.0,,,,,,,[],,,,,,87.9,0.0,u,0.0,True,1164.7999999523163,70.0,60.0,40.0,False,,216.2705969468155,[],"[683, 384]",ColorTask,53.0,15.0,,,HRV,HRV_0318,2022-11-30 23:33:44
,wl-rdm,132,664552,0.0-8.15-0.15,1.0,133.0,,,,,,,[],,,,,,87.9,1.0,i,1.0,True,1045.0999999046326,63.0,60.0,40.0,False,,241.53939098121262,[],"[683, 384]",ColorTask,54.0,16.0,,,HRV,HRV_0318,2022-11-30 23:33:44
,wl-rdm,133,667166,0.0-8.16-0.16,1.0,134.0,,,,,,,[],,,,,,50.0,0.0,i,1.0,False,1279.7000000476837,77.0,60.0,40.0,False,,252.0411906907997,[],"[683, 384]",ColorTask,53.0,17.0,,,HRV,HRV_0318,2022-11-30 23:33:44
,wl-rdm,134,669447,0.0-8.17-0.17,1.0,135.0,,,,,,,[],,,,,,87.9,1.0,i,1.0,True,983.5999999046326,60.0,60.0,40.0,False,,210.92979318048583,[],"[683, 384]",ColorTask,54.0,18.0,,,HRV,HRV_0318,2022-11-30 23:33:44
,wl-rdm,135,672178,0.0-8.18-0.18,1.0,136.0,,,,,,,[],,,,,,87.9,0.0,u,0.0,True,1396.6000001430511,84.0,60.0,40.0,False,,251.65780700721487,[],"[683, 384]",ColorTask,55.0,19.0,,,HRV,HRV_0318,2022-11-30 23:33:44
,wl-rdm,136,674809,0.0-8.19-0.19,1.0,137.0,,,,,,,[],,,,,,87.9,0.0,u,0.0,True,1205.1999998092651,73.0,60.0,40.0,False,,332.9676675904178,[],"[683, 384]",ColorTask,56.0,20.0,,,HRV,HRV_0318,2022-11-30 23:33:44
,wl-rdm,137,677506,0.0-8.20-0.20,1.0,138.0,,,,,,,[],,,,,,53.2,1.0,u,0.0,False,1317.1999998092651,80.0,60.0,40.0,False,,295.8168809788822,[],"[683, 384]",ColorTask,55.0,21.0,,,HRV,HRV_0318,2022-11-30 23:33:44
,wl-rdm,138,680620,0.0-8.21-0.21,1.0,139.0,,,,,,,[],,,,,,50.0,1.0,u,0.0,False,1791.9000000953674,108.0,60.0,40.0,False,,256.39767642904184,[],"[683, 384]",ColorTask,54.0,22.0,,,HRV,HRV_0318,2022-11-30 23:33:44
,wl-rdm,139,683651,0.0-8.22-0.22,1.0,140.0,,,,,,,[],,,,,,53.2,0.0,i,1.0,False,1661.5000002384186,100.0,60.0,40.0,False,,290.8575168662591,[],"[683, 384]",ColorTask,53.0,23.0,,,HRV,HRV_0318,2022-11-30 23:33:44
,wl-rdm,140,686447,0.0-8.23-0.23,1.0,141.0,,,,,,,[],,,,,,62.5,1.0,i,1.0,True,1459.4000000953674,88.0,60.0,40.0,False,,260.7330352048246,[],"[683, 384]",ColorTask,54.0,24.0,,,HRV,HRV_0318,2022-11-30 23:33:44
,wl-rdm,141,689277,0.0-8.24-0.24,1.0,142.0,,,,,,,[],,,,,,87.9,0.0,u,0.0,True,1417.3999998569489,86.0,60.0,40.0,False,,321.9910342317794,[],"[683, 384]",ColorTask,55.0,25.0,,,HRV,HRV_0318,2022-11-30 23:33:44
,wl-rdm,142,692824,0.0-8.25-0.25,1.0,143.0,,,,,,,[],,,,,,53.2,0.0,i,1.0,False,2194.5,132.0,60.0,40.0,False,,272.5844392460436,[],"[683, 384]",ColorTask,54.0,26.0,,,HRV,HRV_0318,2022-11-30 23:33:44
,wl-rdm,143,695888,0.0-8.26-0.26,1.0,144.0,,,,,,,[],,,,,,73.6,1.0,i,1.0,True,1617.2000002861023,98.0,60.0,40.0,False,,360.6803868501304,[],"[683, 384]",ColorTask,55.0,27.0,,,HRV,HRV_0318,2022-11-30 23:33:44
,wl-rdm,144,698619,0.0-8.27-0.27,1.0,145.0,,,,,,,[],,,,,,53.2,0.0,u,0.0,True,1430.9000000953674,86.0,60.0,40.0,False,,220.61853023556228,[],"[683, 384]",ColorTask,56.0,28.0,,,HRV,HRV_0318,2022-11-30 23:33:44
,wl-rdm,145,701899,0.0-8.28-0.28,1.0,146.0,,,,,,,[],,,,,,53.2,1.0,i,1.0,True,1933.2999999523163,117.0,60.0,40.0,False,,253.97993257022202,[],"[683, 384]",ColorTask,57.0,29.0,,,HRV,HRV_0318,2022-11-30 23:33:44
,wl-rdm,146,704979,0.0-8.29-0.29,1.0,147.0,,,,,,,[],,,,,,73.6,1.0,i,1.0,True,1726.7999999523163,104.0,60.0,40.0,False,,283.00941789645253,[],"[683, 384]",ColorTask,58.0,30.0,,,HRV,HRV_0318,2022-11-30 23:33:44
,wl-rdm,147,707894,0.0-8.30-0.30,1.0,148.0,,,,,,,[],,,,,,87.9,0.0,u,0.0,True,1597.9000000953674,96.0,60.0,40.0,False,,244.19458655431959,[],"[683, 384]",ColorTask,59.0,31.0,,,HRV,HRV_0318,2022-11-30 23:33:44
,wl-rdm,148,711106,0.0-8.31-0.31,1.0,149.0,,,,,,,[],,,,,,56.4,0.0,u,0.0,True,1819.8999998569489,110.0,60.0,40.0,False,,315.18286237487143,[],"[683, 384]",ColorTask,60.0,32.0,,,HRV,HRV_0318,2022-11-30 23:33:44
,wl-rdm,149,714786,0.0-8.32-0.32,1.0,150.0,,,,,,,[],,,,,,53.2,0.0,u,0.0,True,2257.2000000476837,136.0,60.0,40.0,False,,334.31256504535816,[],"[683, 384]",ColorTask,61.0,33.0,,,HRV,HRV_0318,2022-11-30 23:33:44
,wl-rdm,150,717834,0.0-8.33-0.33,1.0,151.0,,,,,,,[],,,,,,56.4,1.0,i,1.0,True,1764.2000000476837,106.0,60.0,40.0,False,,208.82445371199262,[],"[683, 384]",ColorTask,62.0,34.0,,,HRV,HRV_0318,2022-11-30 23:33:44
,wl-rdm,151,721130,0.0-8.34-0.34,1.0,152.0,,,,,,,[],,,,,,87.9,1.0,i,1.0,True,1950.6999998092651,118.0,60.0,40.0,False,,251.3885000704629,[],"[683, 384]",ColorTask,63.0,35.0,,,HRV,HRV_0318,2022-11-30 23:33:44
,wl-rdm,152,725027,0.0-8.35-0.35,1.0,153.0,,,,,,,[],,,,,,62.5,0.0,i,1.0,False,2534.9000000953674,153.0,60.0,40.0,False,,271.4078727375952,[],"[683, 384]",ColorTask,62.0,36.0,,,HRV,HRV_0318,2022-11-30 23:33:44
,wl-rdm,153,729139,0.0-8.36-0.36,1.0,154.0,,,,,,,[],,,,,,62.5,0.0,u,0.0,True,2672.600000143051,161.0,60.0,40.0,False,,375.231346337569,[],"[683, 384]",ColorTask,63.0,37.0,,,HRV,HRV_0318,2022-11-30 23:33:44
,wl-rdm,154,732336,0.0-8.37-0.37,1.0,155.0,,,,,,,[],,,,,,73.6,0.0,u,0.0,True,1823.7999999523163,110.0,60.0,40.0,False,,292.8302541552637,[],"[683, 384]",ColorTask,64.0,38.0,,,HRV,HRV_0318,2022-11-30 23:33:44
,wl-rdm,155,735516,0.0-8.38-0.38,1.0,156.0,,,,,,,[],,,,,,73.6,1.0,i,1.0,True,1723.1999998092651,104.0,60.0,40.0,False,,377.25845969948625,[],"[683, 384]",ColorTask,65.0,39.0,,,HRV,HRV_0318,2022-11-30 23:33:44
,wl-rdm,156,738647,0.0-8.39-0.39,1.0,157.0,,,,,,,[],,,,,,53.2,1.0,i,1.0,True,1788.3999998569489,108.0,60.0,40.0,False,,261.45416752540893,[],"[683, 384]",ColorTask,66.0,40.0,,,HRV,HRV_0318,2022-11-30 23:33:44
,wl-rdm,157,741694,0.0-8.40-0.40,1.0,158.0,,,,,,,[],,,,,,73.6,1.0,i,1.0,True,1716.4000000953674,104.0,60.0,40.0,False,,234.11604668855938,[],"[683, 384]",ColorTask,67.0,41.0,,,HRV,HRV_0318,2022-11-30 23:33:44
,wl-rdm,158,744724,0.0-8.41-0.41,1.0,159.0,,,,,,,[],,,,,,50.0,0.0,i,1.0,False,1743.3999998569489,105.0,60.0,40.0,False,,203.18875777931868,[],"[683, 384]",ColorTask,66.0,42.0,,,HRV,HRV_0318,2022-11-30 23:33:44
,wl-rdm,159,747738,0.0-8.42-0.42,1.0,160.0,,,,,,,[],,,,,,73.6,1.0,i,1.0,True,1713.2999999523163,103.0,60.0,40.0,False,,220.81519387984014,[],"[683, 384]",ColorTask,67.0,43.0,,,HRV,HRV_0318,2022-11-30 23:33:44
,wl-rdm,160,750685,0.0-8.43-0.43,1.0,161.0,,,,,,,[],,,,,,62.5,0.0,u,0.0,True,1558.3000001907349,94.0,60.0,40.0,False,,313.2349094207442,[],"[683, 384]",ColorTask,68.0,44.0,,,HRV,HRV_0318,2022-11-30 23:33:44
,wl-rdm,161,754381,0.0-8.44-0.44,1.0,162.0,,,,,,,[],,,,,,53.2,1.0,i,1.0,True,2335.4000000953674,141.0,60.0,40.0,False,,270.47149500285377,[],"[683, 384]",ColorTask,69.0,45.0,,,HRV,HRV_0318,2022-11-30 23:33:44
,wl-rdm,162,758012,0.0-8.45-0.45,1.0,163.0,,,,,,,[],,,,,,53.2,1.0,u,0.0,False,2304.9999997615814,139.0,60.0,40.0,False,,234.60584699779477,[],"[683, 384]",ColorTask,68.0,46.0,,,HRV,HRV_0318,2022-11-30 23:33:44
,wl-rdm,163,761591,0.0-8.46-0.46,1.0,164.0,,,,,,,[],,,,,,50.0,0.0,i,1.0,False,2181.100000143051,131.0,60.0,40.0,False,,326.39804010464456,[],"[683, 384]",ColorTask,67.0,47.0,,,HRV,HRV_0318,2022-11-30 23:33:44
,wl-rdm,164,765454,0.0-8.47-0.47,1.0,165.0,,,,,,,[],,,,,,50.0,0.0,i,1.0,False,2543.7999999523163,153.0,60.0,40.0,False,,257.55517041353363,[],"[683, 384]",ColorTask,66.0,48.0,,,HRV,HRV_0318,2022-11-30 23:33:44
,wl-rdm,165,769067,0.0-8.48-0.48,1.0,166.0,,,,,,,[],,,,,,50.0,0.0,u,0.0,True,2170.7000000476837,131.0,60.0,40.0,False,,355.6155165302284,[],"[683, 384]",ColorTask,67.0,49.0,,,HRV,HRV_0318,2022-11-30 23:33:44
,wl-rdm,166,772497,0.0-8.49-0.49,1.0,167.0,,,,,,,[],,,,,,62.5,0.0,u,0.0,True,2140.7000000476837,129.0,60.0,40.0,False,,200.55231647944143,[],"[683, 384]",ColorTask,68.0,50.0,,,HRV,HRV_0318,2022-11-30 23:33:44
,wl-rdm,167,775544,0.0-8.50-0.50,1.0,168.0,,,,,,,[],,,,,,87.9,1.0,i,1.0,True,1683.5,102.0,60.0,40.0,False,,276.7118542935699,[],"[683, 384]",ColorTask,69.0,51.0,,,HRV,HRV_0318,2022-11-30 23:33:44
,wl-rdm,168,778841,0.0-8.51-0.51,1.0,169.0,,,,,,,[],,,,,,53.2,0.0,i,1.0,False,1913.2999999523163,115.0,60.0,40.0,False,,308.4582605120059,[],"[683, 384]",ColorTask,68.0,52.0,,,HRV,HRV_0318,2022-11-30 23:33:44
,wl-rdm,169,782321,0.0-8.52-0.52,1.0,170.0,,,,,,,[],,,,,,56.4,1.0,i,1.0,True,2046.2000002861023,123.0,60.0,40.0,False,,358.45301175702025,[],"[683, 384]",ColorTask,69.0,53.0,,,HRV,HRV_0318,2022-11-30 23:33:44
,wl-rdm,170,785385,0.0-8.53-0.53,1.0,171.0,,,,,,,[],,,,,,73.6,1.0,i,1.0,True,1685.5,102.0,60.0,40.0,False,,297.2529058245942,[],"[683, 384]",ColorTask,70.0,54.0,,,HRV,HRV_0318,2022-11-30 23:33:44
,wl-rdm,171,788881,0.0-8.54-0.54,1.0,172.0,,,,,,,[],,,,,,53.2,1.0,u,0.0,False,2135.0,129.0,60.0,40.0,False,,275.2969173583854,[],"[683, 384]",ColorTask,69.0,55.0,,,HRV,HRV_0318,2022-11-30 23:33:44
,wl-rdm,172,791994,0.0-8.55-0.55,1.0,173.0,,,,,,,[],,,,,,87.9,0.0,u,0.0,True,1713.0000002384186,103.0,60.0,40.0,False,,317.48153535205233,[],"[683, 384]",ColorTask,70.0,56.0,,,HRV,HRV_0318,2022-11-30 23:33:44
,wl-rdm,173,795141,0.0-8.56-0.56,1.0,174.0,,,,,,,[],,,,,,53.2,0.0,u,0.0,True,1851.4000000953674,112.0,60.0,40.0,False,,214.61890308829152,[],"[683, 384]",ColorTask,71.0,57.0,,,HRV,HRV_0318,2022-11-30 23:33:44
,wl-rdm,174,798555,0.0-8.57-0.57,1.0,175.0,,,,,,,[],,,,,,73.6,1.0,i,1.0,True,1968.2999999523163,119.0,60.0,40.0,False,,359.36281587756685,[],"[683, 384]",ColorTask,72.0,58.0,,,HRV,HRV_0318,2022-11-30 23:33:44
,wl-rdm,175,801819,0.0-8.58-0.58,1.0,176.0,,,,,,,[],,,,,,62.5,1.0,i,1.0,True,1962.4000000953674,118.0,60.0,40.0,False,,227.05108043045695,[],"[683, 384]",ColorTask,73.0,59.0,,,HRV,HRV_0318,2022-11-30 23:33:44
,wl-rdm,176,804650,0.0-8.59-0.59,1.0,177.0,,,,,,,[],,,,,,53.2,0.0,u,0.0,True,1526.4000000953674,92.0,60.0,40.0,False,,226.33812453087796,[],"[683, 384]",ColorTask,74.0,60.0,,,HRV,HRV_0318,2022-11-30 23:33:44
,wl-rdm,177,807580,0.0-8.60-0.60,1.0,178.0,,,,,,,[],,,,,,87.9,0.0,u,0.0,True,1633.1000001430511,99.0,60.0,40.0,False,,216.3000526762105,[],"[683, 384]",ColorTask,75.0,61.0,,,HRV,HRV_0318,2022-11-30 23:33:44
,wl-rdm,178,810960,0.0-8.61-0.61,1.0,179.0,,,,,,,[],,,,,,50.0,0.0,i,1.0,False,2030.1999998092651,122.0,60.0,40.0,False,,270.0799593469628,[],"[683, 384]",ColorTask,74.0,62.0,,,HRV,HRV_0318,2022-11-30 23:33:44
,wl-rdm,179,814423,0.0-8.62-0.62,1.0,180.0,,,,,,,[],,,,,,73.6,1.0,i,1.0,True,2011.4999997615814,121.0,60.0,40.0,False,,382.14758961093344,[],"[683, 384]",ColorTask,75.0,63.0,,,HRV,HRV_0318,2022-11-30 23:33:44
,wl-rdm,180,817387,0.0-8.63-0.63,1.0,181.0,,,,,,,[],,,,,,73.6,0.0,u,0.0,True,1681.2999999523163,101.0,60.0,40.0,False,,209.99910778467262,[],"[683, 384]",ColorTask,76.0,64.0,,,HRV,HRV_0318,2022-11-30 23:33:44
,wl-rdm,181,821100,0.0-8.64-0.64,1.0,182.0,,,,,,,[],,,,,,50.0,1.0,u,0.0,False,2334.5,141.0,60.0,40.0,False,,290.5637618147051,[],"[683, 384]",ColorTask,75.0,65.0,,,HRV,HRV_0318,2022-11-30 23:33:44
,wl-rdm,182,823831,0.0-8.65-0.65,1.0,183.0,,,,,,,[],,,,,,87.9,1.0,i,1.0,True,1385.2000000476837,84.0,60.0,40.0,False,,252.7809887620899,[],"[683, 384]",ColorTask,76.0,66.0,,,HRV,HRV_0318,2022-11-30 23:33:44
,wl-rdm,183,826678,0.0-8.66-0.66,1.0,184.0,,,,,,,[],,,,,,56.4,0.0,i,1.0,False,1432.7999999523163,87.0,60.0,40.0,False,,318.75648980033696,[],"[683, 384]",ColorTask,75.0,67.0,,,HRV,HRV_0318,2022-11-30 23:33:44
,wl-rdm,184,828876,0.0-8.67-0.67,1.0,185.0,,,,,,,[],,,,,,56.4,0.0,i,1.0,False,904.6999998092651,55.0,60.0,40.0,False,,206.70394240263403,[],"[683, 384]",ColorTask,74.0,68.0,,,HRV,HRV_0318,2022-11-30 23:33:44
,wl-rdm,185,832356,0.0-8.68-0.68,1.0,186.0,,,,,,,[],,,,,,87.9,1.0,i,1.0,True,2171.7000000476837,131.0,60.0,40.0,False,,231.8188776991979,[],"[683, 384]",ColorTask,75.0,69.0,,,HRV,HRV_0318,2022-11-30 23:33:44
,wl-rdm,186,835519,0.0-8.69-0.69,1.0,187.0,,,,,,,[],,,,,,56.4,1.0,u,0.0,False,1800.2000000476837,109.0,60.0,40.0,False,,268.98423835137675,[],"[683, 384]",ColorTask,74.0,70.0,,,HRV,HRV_0318,2022-11-30 23:33:44
,wl-rdm,187,839116,0.0-8.70-0.70,1.0,188.0,,,,,,,[],,,,,,56.4,1.0,i,1.0,True,2183.2000002861023,132.0,60.0,40.0,False,,332.322130096636,[],"[683, 384]",ColorTask,75.0,71.0,,,HRV,HRV_0318,2022-11-30 23:33:44
,wl-rdm,188,842163,0.0-8.71-0.71,1.0,189.0,,,,,,,[],,,,,,87.9,1.0,i,1.0,True,1683.6000001430511,102.0,60.0,40.0,False,,272.5338542056686,[],"[683, 384]",ColorTask,76.0,72.0,,,HRV,HRV_0318,2022-11-30 23:33:44
,wl-rdm,189,845276,0.0-8.72-0.72,1.0,190.0,,,,,,,[],,,,,,56.4,1.0,i,1.0,True,1830.3999998569489,110.0,60.0,40.0,False,,214.62587346235924,[],"[683, 384]",ColorTask,77.0,73.0,,,HRV,HRV_0318,2022-11-30 23:33:44
,wl-rdm,190,848273,0.0-8.73-0.73,1.0,191.0,,,,,,,[],,,,,,87.9,0.0,u,0.0,True,1644.1000001430511,99.0,60.0,40.0,False,,276.9712936714804,[],"[683, 384]",ColorTask,78.0,74.0,,,HRV,HRV_0318,2022-11-30 23:33:44
,wl-rdm,191,851920,0.0-8.74-0.74,1.0,192.0,,,,,,,[],,,,,,53.2,1.0,i,1.0,True,2333.7000000476837,141.0,60.0,40.0,False,,248.79041581247583,[],"[683, 384]",ColorTask,79.0,75.0,,,HRV,HRV_0318,2022-11-30 23:33:44
,wl-rdm,192,856299,0.0-8.75-0.75,1.0,193.0,,,,,,,[],,,,,,56.4,0.0,i,1.0,False,2965.300000190735,179.0,60.0,40.0,False,,319.3767147010834,[],"[683, 384]",ColorTask,78.0,76.0,,,HRV,HRV_0318,2022-11-30 23:33:44
,wl-rdm,193,859630,0.0-8.76-0.76,1.0,194.0,,,,,,,[],,,,,,73.6,0.0,u,0.0,True,1945.1000001430511,117.0,60.0,40.0,False,,307.6611110449196,[],"[683, 384]",ColorTask,79.0,77.0,,,HRV,HRV_0318,2022-11-30 23:33:44
,wl-rdm,194,863243,0.0-8.77-0.77,1.0,195.0,,,,,,,[],,,,,,56.4,0.0,u,0.0,True,2256.9000000953674,136.0,60.0,40.0,False,,287.70432210121385,[],"[683, 384]",ColorTask,80.0,78.0,,,HRV,HRV_0318,2022-11-30 23:33:44
,wl-rdm,195,866340,0.0-8.78-0.78,1.0,196.0,,,,,,,[],,,,,,87.9,0.0,u,0.0,True,1667.0999999046326,101.0,60.0,40.0,False,,341.86484450932903,[],"[683, 384]",ColorTask,81.0,79.0,,,HRV,HRV_0318,2022-11-30 23:33:44
,wl-rdm,196,869653,0.0-8.79-0.79,1.0,197.0,,,,,,,[],,,,,,73.6,0.0,u,0.0,True,1850.9999997615814,112.0,60.0,40.0,False,,378.65804911771755,[],"[683, 384]",ColorTask,82.0,80.0,,,HRV,HRV_0318,2022-11-30 23:33:44
,wl-rdm,197,873149,0.0-8.80-0.80,1.0,198.0,,,,,,,[],,,,,,50.0,1.0,u,0.0,False,2205.0,133.0,60.0,40.0,False,,222.36699997360296,[],"[683, 384]",ColorTask,81.0,81.0,,,HRV,HRV_0318,2022-11-30 23:33:44
,wl-rdm,198,876630,0.0-8.81-0.81,1.0,199.0,,,,,,,[],,,,,,62.5,0.0,u,0.0,True,2171.0,131.0,60.0,40.0,False,,228.60470998169814,[],"[683, 384]",ColorTask,82.0,82.0,,,HRV,HRV_0318,2022-11-30 23:33:44
,wl-rdm,199,879976,0.0-8.82-0.82,1.0,200.0,,,,,,,[],,,,,,53.2,1.0,i,1.0,True,1916.3000001907349,116.0,60.0,40.0,False,,339.10577816305226,[],"[683, 384]",ColorTask,83.0,83.0,,,HRV,HRV_0318,2022-11-30 23:33:44
,wl-rdm,200,882990,0.0-8.83-0.83,1.0,201.0,,,,,,,[],,,,,,73.6,0.0,u,0.0,True,1646.6999998092651,99.0,60.0,40.0,False,,293.5944784637614,[],"[683, 384]",ColorTask,84.0,84.0,,,HRV,HRV_0318,2022-11-30 23:33:44
,wl-rdm,201,886170,0.0-8.84-0.84,1.0,202.0,,,,,,,[],,,,,,62.5,1.0,i,1.0,True,1778.6000001430511,107.0,60.0,40.0,False,,327.58578836598736,[],"[683, 384]",ColorTask,85.0,85.0,,,HRV,HRV_0318,2022-11-30 23:33:44
,wl-rdm,202,888900,0.0-8.85-0.85,1.0,203.0,,,,,,,[],,,,,,87.9,1.0,i,1.0,True,1336.5,81.0,60.0,40.0,False,,312.9185895795465,[],"[683, 384]",ColorTask,86.0,86.0,,,HRV,HRV_0318,2022-11-30 23:33:44
,wl-rdm,203,891948,0.0-8.86-0.86,1.0,204.0,,,,,,,[],,,,,,62.5,0.0,u,0.0,True,1729.5999999046326,104.0,60.0,40.0,False,,238.5862713913634,[],"[683, 384]",ColorTask,87.0,87.0,,,HRV,HRV_0318,2022-11-30 23:33:44
,wl-rdm,204,895378,0.0-8.87-0.87,1.0,205.0,,,,,,,[],,,,,,50.0,0.0,i,1.0,False,2108.5,127.0,60.0,40.0,False,,235.0810752040353,[],"[683, 384]",ColorTask,86.0,88.0,,,HRV,HRV_0318,2022-11-30 23:33:44
,wl-rdm,205,898309,0.0-8.88-0.88,1.0,206.0,,,,,,,[],,,,,,56.4,1.0,u,0.0,False,1633.8000001907349,99.0,60.0,40.0,False,,211.37324413513468,[],"[683, 384]",ColorTask,85.0,89.0,,,HRV,HRV_0318,2022-11-30 23:33:44
,wl-rdm,206,901322,0.0-8.89-0.89,1.0,207.0,,,,,,,[],,,,,,62.5,1.0,i,1.0,True,1609.5,97.0,60.0,40.0,False,,348.81133878347237,[],"[683, 384]",ColorTask,86.0,90.0,,,HRV,HRV_0318,2022-11-30 23:33:44
,wl-rdm,207,904852,0.0-8.90-0.90,1.0,208.0,,,,,,,[],,,,,,56.4,0.0,i,1.0,False,2239.7000000476837,135.0,60.0,40.0,False,,211.3196861138269,[],"[683, 384]",ColorTask,85.0,91.0,,,HRV,HRV_0318,2022-11-30 23:33:44
,wl-rdm,208,907632,0.0-8.91-0.91,1.0,209.0,,,,,,,[],,,,,,73.6,1.0,i,1.0,True,1486.0,90.0,60.0,40.0,False,,207.16255149472045,[],"[683, 384]",ColorTask,86.0,92.0,,,HRV,HRV_0318,2022-11-30 23:33:44
,wl-rdm,209,910763,0.0-8.92-0.92,1.0,210.0,,,,,,,[],,,,,,50.0,0.0,u,0.0,True,1738.7999999523163,105.0,60.0,40.0,False,,306.6653141642474,[],"[683, 384]",ColorTask,87.0,93.0,,,HRV,HRV_0318,2022-11-30 23:33:44
,wl-rdm,210,913726,0.0-8.93-0.93,1.0,211.0,,,,,,,[],,,,,,62.5,1.0,i,1.0,True,1532.1999998092651,92.0,60.0,40.0,False,,356.1711247296707,[],"[683, 384]",ColorTask,88.0,94.0,,,HRV,HRV_0318,2022-11-30 23:33:44
,wl-rdm,211,917424,0.0-8.94-0.94,1.0,212.0,,,,,,,[],,,,,,62.5,1.0,u,0.0,False,2225.5999999046326,134.0,60.0,40.0,False,,391.66794693102685,[],"[683, 384]",ColorTask,87.0,95.0,,,HRV,HRV_0318,2022-11-30 23:33:44
,wl-rdm,212,920870,0.0-8.95-0.95,1.0,213.0,,,,,,,[],,,,,,53.2,0.0,u,0.0,True,2100.100000143051,127.0,60.0,40.0,False,,251.29470125955743,[],"[683, 384]",ColorTask,88.0,96.0,,,HRV,HRV_0318,2022-11-30 23:33:44
,wl-rdm,213,924183,0.0-8.96-0.96,1.0,214.0,,,,,,,[],,,,,,73.6,0.0,u,0.0,True,1879.7000000476837,113.0,60.0,40.0,False,,361.9063253427641,[],"[683, 384]",ColorTask,89.0,97.0,,,HRV,HRV_0318,2022-11-30 23:33:44
,wl-rdm,214,928212,0.0-8.97-0.97,1.0,215.0,,,,,,,[],,,,,,50.0,1.0,i,1.0,True,2728.600000143051,164.0,60.0,40.0,False,,229.81522911742684,[],"[683, 384]",ColorTask,90.0,98.0,,,HRV,HRV_0318,2022-11-30 23:33:44
,wl-rdm,215,931742,0.0-8.98-0.98,1.0,216.0,,,,,,,[],,,,,,73.6,0.0,u,0.0,True,2101.4000000953674,127.0,60.0,40.0,False,,356.84287259183975,[],"[683, 384]",ColorTask,91.0,99.0,,,HRV,HRV_0318,2022-11-30 23:33:44
,wl-rdm,216,934773,0.0-8.99-0.99,1.0,217.0,,,,,,,[],,,,,,73.6,0.0,u,0.0,True,1673.3999998569489,101.0,60.0,40.0,False,,280.3426647094642,[],"[683, 384]",ColorTask,92.0,100.0,,,HRV,HRV_0318,2022-11-30 23:33:44
,wl-rdm,217,937919,0.0-8.100-0.100,1.0,218.0,,,,,,,[],,,,,,50.0,1.0,u,0.0,False,1675.7000000476837,101.0,60.0,40.0,False,,390.80583726166435,[],"[683, 384]",ColorTask,91.0,101.0,,,HRV,HRV_0318,2022-11-30 23:33:44
,wl-rdm,218,940717,0.0-8.101-0.101,1.0,219.0,,,,,,,[],,,,,,56.4,1.0,i,1.0,True,1459.099999666214,88.0,60.0,40.0,False,,252.37377240443715,[],"[683, 384]",ColorTask,92.0,102.0,,,HRV,HRV_0318,2022-11-30 23:33:44
,wl-rdm,219,943647,0.0-8.102-0.102,1.0,220.0,,,,,,,[],,,,,,50.0,0.0,i,1.0,False,1602.1999998092651,97.0,60.0,40.0,False,,245.39899728778713,[],"[683, 384]",ColorTask,91.0,103.0,,,HRV,HRV_0318,2022-11-30 23:33:44
,wl-rdm,220,946727,0.0-8.103-0.103,1.0,221.0,,,,,,,[],,,,,,62.5,1.0,i,1.0,True,1725.7000000476837,104.0,60.0,40.0,False,,269.257805225061,[],"[683, 384]",ColorTask,92.0,104.0,,,HRV,HRV_0318,2022-11-30 23:33:44
,wl-rdm,221,949808,0.0-8.104-0.104,1.0,222.0,,,,,,,[],,,,,,87.9,1.0,i,1.0,True,1602.3999998569489,97.0,60.0,40.0,False,,391.37549160575475,[],"[683, 384]",ColorTask,93.0,105.0,,,HRV,HRV_0318,2022-11-30 23:33:44
,wl-rdm,222,952922,0.0-8.105-0.105,1.0,223.0,,,,,,,[],,,,,,62.5,1.0,i,1.0,True,1708.4000000953674,103.0,60.0,40.0,False,,325.82223072556917,[],"[683, 384]",ColorTask,94.0,106.0,,,HRV,HRV_0318,2022-11-30 23:33:44
,wl-rdm,223,956451,0.0-8.106-0.106,1.0,224.0,,,,,,,[],,,,,,50.0,1.0,i,1.0,True,2140.899999856949,129.0,60.0,40.0,False,,330.97464632857225,[],"[683, 384]",ColorTask,95.0,107.0,,,HRV,HRV_0318,2022-11-30 23:33:44
,wl-rdm,224,959448,0.0-8.107-0.107,1.0,225.0,,,,,,,[],,,,,,56.4,0.0,u,0.0,True,1616.8000001907349,98.0,60.0,40.0,False,,296.83193477477687,[],"[683, 384]",ColorTask,96.0,108.0,,,HRV,HRV_0318,2022-11-30 23:33:44
,wl-html-button-response,225,963477,0.0-9.0-0.0,,,,,,,,,,4023.7999999523163,,0,,,,,,,,,,,,,,,,,,,,<h3>End of this session. Thank you!</h3><br>,['Close window'],HRV,HRV_0318,2022-11-30 23:33:44
