trialN,stimuli,trialStartTime,trialStartTime_UNIX,stimulus1,stimulus2,stimulus1Bid,stimulus2Bid,delta,selected,rt,rt_UNIX,rt_perfnow,receivedResponse,rsp,trialEndTime,trialDuration,trialEndTime_UNIX,trialDuration_UNIX,exp,subjectId,date
0,"[{'imgObject': {}, 'id': 'baked potato', 'src': '/static/foodstim60/baked potato.jpg', 'key': 'u', 'origWidth': 409, 'origHeight': 410, 'width': 409, 'height': 410, 'widthPercent': 0.45, 'rescaleHeight': False, 'trialN': 0, 'loaded': True, 'loadedTime': 4627.799999952316, 'positionName': 'LEFT', 'positionCoords': [246.68, 179], 'bid': 8.03}, {'imgObject': {}, 'id': 'banana', 'src': '/static/foodstim60/banana.jpg', 'key': 'i', 'origWidth': 410, 'origHeight': 410, 'width': 410, 'height': 410, 'widthPercent': 0.45, 'rescaleHeight': False, 'trialN': 0, 'loaded': True, 'loadedTime': 4725.5, 'positionName': 'RIGHT', 'positionCoords': [710.32, 179], 'bid': 7.5}]",5182.299999952316,1669848856899,baked potato,banana,8.03,7.5,-0.5299999999999994,banana,1001.6000001430511,1002,1002.6000001430511,True,i,6693.799999952316,1511.5,1669848858410,1511,HRV,HRV_0318,2022-11-30 22:59:32
1,"[{'imgObject': {}, 'id': 'cocktailshrimp', 'src': '/static/foodstim60/cocktailshrimp.jpg', 'key': 'u', 'origWidth': 410, 'origHeight': 410, 'width': 410, 'height': 410, 'widthPercent': 0.45, 'rescaleHeight': False, 'trialN': 1, 'loaded': True, 'loadedTime': 4729.200000047684, 'positionName': 'LEFT', 'positionCoords': [245.68, 179], 'bid': 9.68}, {'imgObject': {}, 'id': 'chickenfingers', 'src': '/static/foodstim60/chickenfingers.jpg', 'key': 'i', 'origWidth': 410, 'origHeight': 410, 'width': 410, 'height': 410, 'widthPercent': 0.45, 'rescaleHeight': False, 'trialN': 1, 'loaded': True, 'loadedTime': 4742.299999952316, 'positionName': 'RIGHT', 'positionCoords': [710.32, 179], 'bid': 9.34}]",6694.099999904633,1669848858410,cocktailshrimp,chickenfingers,9.68,9.34,-0.33999999999999986,chickenfingers,1073.4000000953674,1074,1074.0,True,i,8282.200000047684,1588.1000001430511,1669848859998,1588,HRV,HRV_0318,2022-11-30 22:59:32
2,"[{'imgObject': {}, 'id': 'chickenfingers', 'src': '/static/foodstim60/chickenfingers.jpg', 'key': 'u', 'origWidth': 410, 'origHeight': 410, 'width': 410, 'height': 410, 'widthPercent': 0.45, 'rescaleHeight': False, 'trialN': 2, 'loaded': True, 'loadedTime': 4744.299999952316, 'positionName': 'LEFT', 'positionCoords': [245.68, 179], 'bid': 9.34}, {'imgObject': {}, 'id': 'fruitsalad', 'src': '/static/foodstim60/fruitsalad.jpg', 'key': 'i', 'origWidth': 410, 'origHeight': 410, 'width': 410, 'height': 410, 'widthPercent': 0.45, 'rescaleHeight': False, 'trialN': 2, 'loaded': True, 'loadedTime': 4758.599999904633, 'positionName': 'RIGHT', 'positionCoords': [710.32, 179], 'bid': 7.5}]",8282.599999904633,1669848859999,chickenfingers,fruitsalad,9.34,7.5,-1.8399999999999999,chickenfingers,1113.7000000476837,1114,1114.2000000476837,True,u,9901.599999904633,1619.0,1669848861618,1619,HRV,HRV_0318,2022-11-30 22:59:32
3,"[{'imgObject': {}, 'id': 'bagel plain', 'src': '/static/foodstim60/bagel plain.jpg', 'key': 'u', 'origWidth': 410, 'origHeight': 410, 'width': 410, 'height': 410, 'widthPercent': 0.45, 'rescaleHeight': False, 'trialN': 3, 'loaded': True, 'loadedTime': 4760.5, 'positionName': 'LEFT', 'positionCoords': [245.68, 179], 'bid': 8.76}, {'imgObject': {}, 'id': 'bagel and cc', 'src': '/static/foodstim60/bagel and cc.jpg', 'key': 'i', 'origWidth': 410, 'origHeight': 410, 'width': 410, 'height': 410, 'widthPercent': 0.45, 'rescaleHeight': False, 'trialN': 3, 'loaded': True, 'loadedTime': 4791.400000095367, 'positionName': 'RIGHT', 'positionCoords': [710.32, 179], 'bid': 9.2}]",9902.200000047684,1669848861618,bagel plain,bagel and cc,8.76,9.2,0.4399999999999995,bagel and cc,1097.0999999046326,1098,1097.5999999046326,True,i,11511.599999904633,1609.3999998569489,1669848863228,1610,HRV,HRV_0318,2022-11-30 22:59:32
4,"[{'imgObject': {}, 'id': 'edamame', 'src': '/static/foodstim60/edamame.jpg', 'key': 'u', 'origWidth': 409, 'origHeight': 410, 'width': 409, 'height': 410, 'widthPercent': 0.45, 'rescaleHeight': False, 'trialN': 4, 'loaded': True, 'loadedTime': 4805.5, 'positionName': 'LEFT', 'positionCoords': [246.68, 179], 'bid': 0.6900000000000001}, {'imgObject': {}, 'id': 'veggieswithdip', 'src': '/static/foodstim60/veggieswithdip.jpg', 'key': 'i', 'origWidth': 409, 'origHeight': 409, 'width': 409, 'height': 409, 'widthPercent': 0.45, 'rescaleHeight': False, 'trialN': 4, 'loaded': True, 'loadedTime': 4819.700000047684, 'positionName': 'RIGHT', 'positionCoords': [710.32, 179.5], 'bid': 3.69}]",11511.900000095367,1669848863228,edamame,veggieswithdip,0.6900000000000001,3.69,3.0,veggieswithdip,1333.6999998092651,1334,1334.0999999046326,True,i,13349.700000047684,1837.7999999523163,1669848865066,1838,HRV,HRV_0318,2022-11-30 22:59:32
5,"[{'imgObject': {}, 'id': 'kiwi', 'src': '/static/foodstim60/kiwi.jpg', 'key': 'u', 'origWidth': 410, 'origHeight': 410, 'width': 410, 'height': 410, 'widthPercent': 0.45, 'rescaleHeight': False, 'trialN': 5, 'loaded': True, 'loadedTime': 4823.200000047684, 'positionName': 'LEFT', 'positionCoords': [245.68, 179], 'bid': 1.83}, {'imgObject': {}, 'id': 'Tribe humus pita', 'src': '/static/foodstim60/Tribe humus pita.jpg', 'key': 'i', 'origWidth': 411, 'origHeight': 411, 'width': 411, 'height': 411, 'widthPercent': 0.45, 'rescaleHeight': False, 'trialN': 5, 'loaded': True, 'loadedTime': 4837.299999952316, 'positionName': 'RIGHT', 'positionCoords': [710.32, 178.5], 'bid': 4.45}]",13350.099999904633,1669848865066,kiwi,Tribe humus pita,1.83,4.45,2.62,Tribe humus pita,1261.7000000476837,1263,1262.4000000953674,True,i,15123.599999904633,1773.5,1669848866840,1774,HRV,HRV_0318,2022-11-30 22:59:32
6,"[{'imgObject': {}, 'id': 'baked potato', 'src': '/static/foodstim60/baked potato.jpg', 'key': 'u', 'origWidth': 409, 'origHeight': 410, 'width': 409, 'height': 410, 'widthPercent': 0.45, 'rescaleHeight': False, 'trialN': 6, 'loaded': True, 'loadedTime': 4669.299999952316, 'positionName': 'LEFT', 'positionCoords': [246.68, 179], 'bid': 8.03}, {'imgObject': {}, 'id': 'turkey sandwich', 'src': '/static/foodstim60/turkey sandwich.jpg', 'key': 'i', 'origWidth': 409, 'origHeight': 409, 'width': 409, 'height': 409, 'widthPercent': 0.45, 'rescaleHeight': False, 'trialN': 6, 'loaded': True, 'loadedTime': 4840.700000047684, 'positionName': 'RIGHT', 'positionCoords': [710.32, 179.5], 'bid': 8.950000000000001}]",15123.900000095367,1669848866840,baked potato,turkey sandwich,8.03,8.950000000000001,0.9200000000000017,turkey sandwich,1123.1999998092651,1124,1123.7999999523163,True,i,16762.299999952316,1638.3999998569489,1669848868479,1639,HRV,HRV_0318,2022-11-30 22:59:32
7,"[{'imgObject': {}, 'id': 'granola w milk', 'src': '/static/foodstim60/granola w milk.jpg', 'key': 'u', 'origWidth': 410, 'origHeight': 410, 'width': 410, 'height': 410, 'widthPercent': 0.45, 'rescaleHeight': False, 'trialN': 7, 'loaded': True, 'loadedTime': 4858.299999952316, 'positionName': 'LEFT', 'positionCoords': [245.68, 179], 'bid': 3.44}, {'imgObject': {}, 'id': 'cheerios', 'src': '/static/foodstim60/cheerios.jpg', 'key': 'i', 'origWidth': 409, 'origHeight': 410, 'width': 409, 'height': 410, 'widthPercent': 0.45, 'rescaleHeight': False, 'trialN': 7, 'loaded': True, 'loadedTime': 4873.400000095367, 'positionName': 'RIGHT', 'positionCoords': [710.32, 179], 'bid': 3.43}]",16762.700000047684,1669848868479,granola w milk,cheerios,3.44,3.43,-0.009999999999999787,granola w milk,1370.0999999046326,1371,1370.7000000476837,True,u,18649.0,1886.2999999523163,1669848870365,1886,HRV,HRV_0318,2022-11-30 22:59:32
8,"[{'imgObject': {}, 'id': 'orange slices', 'src': '/static/foodstim60/orange slices.jpg', 'key': 'u', 'origWidth': 409, 'origHeight': 410, 'width': 409, 'height': 410, 'widthPercent': 0.45, 'rescaleHeight': False, 'trialN': 8, 'loaded': True, 'loadedTime': 4887.599999904633, 'positionName': 'LEFT', 'positionCoords': [246.68, 179], 'bid': 7.21}, {'imgObject': {}, 'id': 'popsicles', 'src': '/static/foodstim60/popsicles.jpg', 'key': 'i', 'origWidth': 410, 'origHeight': 410, 'width': 410, 'height': 410, 'widthPercent': 0.45, 'rescaleHeight': False, 'trialN': 8, 'loaded': True, 'loadedTime': 5180.200000047684, 'positionName': 'RIGHT', 'positionCoords': [710.32, 179], 'bid': 7.43}]",18649.200000047684,1669848870365,orange slices,popsicles,7.21,7.43,0.21999999999999975,orange slices,1312,1313,1312.5,True,u,20475.0,1825.7999999523163,1669848872191,1826,HRV,HRV_0318,2022-11-30 22:59:32
9,"[{'imgObject': {}, 'id': 'cocktailshrimp', 'src': '/static/foodstim60/cocktailshrimp.jpg', 'key': 'u', 'origWidth': 410, 'origHeight': 410, 'width': 410, 'height': 410, 'widthPercent': 0.45, 'rescaleHeight': False, 'trialN': 9, 'loaded': True, 'loadedTime': 4729.5, 'positionName': 'LEFT', 'positionCoords': [245.68, 179], 'bid': 9.68}, {'imgObject': {}, 'id': 'ice cream sundae 002', 'src': '/static/foodstim60/ice cream sundae 002.jpg', 'key': 'i', 'origWidth': 409, 'origHeight': 409, 'width': 409, 'height': 409, 'widthPercent': 0.45, 'rescaleHeight': False, 'trialN': 9, 'loaded': True, 'loadedTime': 4902.599999904633, 'positionName': 'RIGHT', 'positionCoords': [710.32, 179.5], 'bid': 9.09}]",20475.400000095367,1669848872192,cocktailshrimp,ice cream sundae 002,9.68,9.09,-0.5899999999999999,cocktailshrimp,1118.0999999046326,1118,1118.6999998092651,True,u,22110.299999952316,1634.8999998569489,1669848873826,1634,HRV,HRV_0318,2022-11-30 22:59:32
10,"[{'imgObject': {}, 'id': 'orange slices', 'src': '/static/foodstim60/orange slices.jpg', 'key': 'u', 'origWidth': 409, 'origHeight': 410, 'width': 409, 'height': 410, 'widthPercent': 0.45, 'rescaleHeight': False, 'trialN': 10, 'loaded': True, 'loadedTime': 4874.5, 'positionName': 'LEFT', 'positionCoords': [246.68, 179], 'bid': 7.21}, {'imgObject': {}, 'id': 'fruitsalad', 'src': '/static/foodstim60/fruitsalad.jpg', 'key': 'i', 'origWidth': 410, 'origHeight': 410, 'width': 410, 'height': 410, 'widthPercent': 0.45, 'rescaleHeight': False, 'trialN': 10, 'loaded': True, 'loadedTime': 4744.5, 'positionName': 'RIGHT', 'positionCoords': [710.32, 179], 'bid': 7.5}]",22110.599999904633,1669848873827,orange slices,fruitsalad,7.21,7.5,0.29000000000000004,orange slices,1065.8000001907349,1066,1066.3000001907349,True,u,23678.099999904633,1567.5,1669848875394,1567,HRV,HRV_0318,2022-11-30 22:59:32
11,"[{'imgObject': {}, 'id': 'rigatoni and sauce', 'src': '/static/foodstim60/rigatoni and sauce.jpg', 'key': 'u', 'origWidth': 410, 'origHeight': 411, 'width': 410, 'height': 411, 'widthPercent': 0.45, 'rescaleHeight': False, 'trialN': 11, 'loaded': True, 'loadedTime': 4902.700000047684, 'positionName': 'LEFT', 'positionCoords': [245.68, 178.5], 'bid': 7.59}, {'imgObject': {}, 'id': 'pear', 'src': '/static/foodstim60/pear.jpg', 'key': 'i', 'origWidth': 411, 'origHeight': 410, 'width': 411, 'height': 410, 'widthPercent': 0.45, 'rescaleHeight': False, 'trialN': 11, 'loaded': True, 'loadedTime': 4916, 'positionName': 'RIGHT', 'positionCoords': [710.32, 179], 'bid': 7.54}]",23678.400000095367,1669848875395,rigatoni and sauce,pear,7.59,7.54,-0.04999999999999982,pear,1345.0999999046326,1345,1345.6999998092651,True,i,25539.400000095367,1861.0,1669848877256,1861,HRV,HRV_0318,2022-11-30 22:59:32
12,"[{'imgObject': {}, 'id': 'roastedpotatoes', 'src': '/static/foodstim60/roastedpotatoes.jpg', 'key': 'u', 'origWidth': 409, 'origHeight': 410, 'width': 409, 'height': 410, 'widthPercent': 0.45, 'rescaleHeight': False, 'trialN': 12, 'loaded': True, 'loadedTime': 4935.099999904633, 'positionName': 'LEFT', 'positionCoords': [246.68, 179], 'bid': 6.15}, {'imgObject': {}, 'id': 'salmon', 'src': '/static/foodstim60/salmon.jpg', 'key': 'i', 'origWidth': 410, 'origHeight': 409, 'width': 410, 'height': 409, 'widthPercent': 0.45, 'rescaleHeight': False, 'trialN': 12, 'loaded': True, 'loadedTime': 4935.5, 'positionName': 'RIGHT', 'positionCoords': [710.32, 179.5], 'bid': 8.83}]",25539.700000047684,1669848877256,roastedpotatoes,salmon,6.15,8.83,2.6799999999999997,salmon,1304.3999998569489,1305,1304.8999998569489,True,i,27352.0,1812.2999999523163,1669848879068,1812,HRV,HRV_0318,2022-11-30 22:59:32
13,"[{'imgObject': {}, 'id': 'turkeysandwich', 'src': '/static/foodstim60/turkeysandwich.jpg', 'key': 'u', 'origWidth': 409, 'origHeight': 409, 'width': 409, 'height': 409, 'widthPercent': 0.45, 'rescaleHeight': False, 'trialN': 13, 'loaded': True, 'loadedTime': 4954.200000047684, 'positionName': 'LEFT', 'positionCoords': [246.68, 179.5], 'bid': 8.96}, {'imgObject': {}, 'id': 'turkey sandwich', 'src': '/static/foodstim60/turkey sandwich.jpg', 'key': 'i', 'origWidth': 409, 'origHeight': 409, 'width': 409, 'height': 409, 'widthPercent': 0.45, 'rescaleHeight': False, 'trialN': 13, 'loaded': True, 'loadedTime': 4842, 'positionName': 'RIGHT', 'positionCoords': [710.32, 179.5], 'bid': 8.950000000000001}]",27352.299999952316,1669848879068,turkeysandwich,turkey sandwich,8.96,8.950000000000001,-0.009999999999999787,turkey sandwich,1187.5,1189,1188.1000001430511,True,i,29050.700000047684,1698.4000000953674,1669848880767,1699,HRV,HRV_0318,2022-11-30 22:59:32
14,"[{'imgObject': {}, 'id': 'cherry tomato', 'src': '/static/foodstim60/cherry tomato.jpg', 'key': 'u', 'origWidth': 410, 'origHeight': 410, 'width': 410, 'height': 410, 'widthPercent': 0.45, 'rescaleHeight': False, 'trialN': 14, 'loaded': True, 'loadedTime': 4959.099999904633, 'positionName': 'LEFT', 'positionCoords': [245.68, 179], 'bid': 6.44}, {'imgObject': {}, 'id': 'kiwi', 'src': '/static/foodstim60/kiwi.jpg', 'key': 'i', 'origWidth': 410, 'origHeight': 410, 'width': 410, 'height': 410, 'widthPercent': 0.45, 'rescaleHeight': False, 'trialN': 14, 'loaded': True, 'loadedTime': 4823.099999904633, 'positionName': 'RIGHT', 'positionCoords': [710.32, 179], 'bid': 1.83}]",29051.299999952316,1669848880768,cherry tomato,kiwi,6.44,1.83,-4.61,cherry tomato,849.4000000953674,849,849.9000000953674,True,u,30401.799999952316,1350.5,1669848882118,1350,HRV,HRV_0318,2022-11-30 22:59:32
15,"[{'imgObject': {}, 'id': 'luckycharms', 'src': '/static/foodstim60/luckycharms.jpg', 'key': 'u', 'origWidth': 410, 'origHeight': 409, 'width': 410, 'height': 409, 'widthPercent': 0.45, 'rescaleHeight': False, 'trialN': 15, 'loaded': True, 'loadedTime': 4959.299999952316, 'positionName': 'LEFT', 'positionCoords': [245.68, 179.5], 'bid': 2.43}, {'imgObject': {}, 'id': 'froot loops w milk', 'src': '/static/foodstim60/froot loops w milk.jpg', 'key': 'i', 'origWidth': 410, 'origHeight': 410, 'width': 410, 'height': 410, 'widthPercent': 0.45, 'rescaleHeight': False, 'trialN': 15, 'loaded': True, 'loadedTime': 4965.299999952316, 'positionName': 'RIGHT', 'positionCoords': [710.32, 179], 'bid': 2.96}]",30402.200000047684,1669848882118,luckycharms,froot loops w milk,2.43,2.96,0.5299999999999998,froot loops w milk,1080.8999998569489,1082,1081.5,True,i,31998.900000095367,1596.7000000476837,1669848883715,1597,HRV,HRV_0318,2022-11-30 22:59:32
16,"[{'imgObject': {}, 'id': 'ice cream sundae 002', 'src': '/static/foodstim60/ice cream sundae 002.jpg', 'key': 'u', 'origWidth': 409, 'origHeight': 409, 'width': 409, 'height': 409, 'widthPercent': 0.45, 'rescaleHeight': False, 'trialN': 16, 'loaded': True, 'loadedTime': 4888.900000095367, 'positionName': 'LEFT', 'positionCoords': [246.68, 179.5], 'bid': 9.09}, {'imgObject': {}, 'id': 'mango', 'src': '/static/foodstim60/mango.jpg', 'key': 'i', 'origWidth': 411, 'origHeight': 411, 'width': 411, 'height': 411, 'widthPercent': 0.45, 'rescaleHeight': False, 'trialN': 16, 'loaded': True, 'loadedTime': 4971.299999952316, 'positionName': 'RIGHT', 'positionCoords': [710.32, 178.5], 'bid': 8.33}]",31999.200000047684,1669848883715,ice cream sundae 002,mango,9.09,8.33,-0.7599999999999998,ice cream sundae 002,1145.7000000476837,1147,1146.2000000476837,True,u,33654.299999952316,1655.0999999046326,1669848885370,1655,HRV,HRV_0318,2022-11-30 22:59:32
17,"[{'imgObject': {}, 'id': 'popsicles', 'src': '/static/foodstim60/popsicles.jpg', 'key': 'u', 'origWidth': 410, 'origHeight': 410, 'width': 410, 'height': 410, 'widthPercent': 0.45, 'rescaleHeight': False, 'trialN': 17, 'loaded': True, 'loadedTime': 5180.5, 'positionName': 'LEFT', 'positionCoords': [245.68, 179], 'bid': 7.43}, {'imgObject': {}, 'id': 'veggieswithdip', 'src': '/static/foodstim60/veggieswithdip.jpg', 'key': 'i', 'origWidth': 409, 'origHeight': 409, 'width': 409, 'height': 409, 'widthPercent': 0.45, 'rescaleHeight': False, 'trialN': 17, 'loaded': True, 'loadedTime': 4820, 'positionName': 'RIGHT', 'positionCoords': [710.32, 179.5], 'bid': 3.69}]",33654.5,1669848885371,popsicles,veggieswithdip,7.43,3.69,-3.7399999999999998,veggieswithdip,1280.5999999046326,1281,1281.0,True,i,35441.700000047684,1787.2000000476837,1669848887158,1787,HRV,HRV_0318,2022-11-30 22:59:32
18,"[{'imgObject': {}, 'id': 'ice cream sundae 002', 'src': '/static/foodstim60/ice cream sundae 002.jpg', 'key': 'u', 'origWidth': 409, 'origHeight': 409, 'width': 409, 'height': 409, 'widthPercent': 0.45, 'rescaleHeight': False, 'trialN': 18, 'loaded': True, 'loadedTime': 4902.200000047684, 'positionName': 'LEFT', 'positionCoords': [246.68, 179.5], 'bid': 9.09}, {'imgObject': {}, 'id': 'bagel and cc', 'src': '/static/foodstim60/bagel and cc.jpg', 'key': 'i', 'origWidth': 410, 'origHeight': 410, 'width': 410, 'height': 410, 'widthPercent': 0.45, 'rescaleHeight': False, 'trialN': 18, 'loaded': True, 'loadedTime': 4776.400000095367, 'positionName': 'RIGHT', 'positionCoords': [710.32, 179], 'bid': 9.2}]",35442.200000047684,1669848887158,ice cream sundae 002,bagel and cc,9.09,9.2,0.10999999999999943,bagel and cc,889.2999999523163,890,889.7000000476837,True,i,36852.799999952316,1410.5999999046326,1669848888569,1411,HRV,HRV_0318,2022-11-30 22:59:32
19,"[{'imgObject': {}, 'id': 'cocktailshrimp', 'src': '/static/foodstim60/cocktailshrimp.jpg', 'key': 'u', 'origWidth': 410, 'origHeight': 410, 'width': 410, 'height': 410, 'widthPercent': 0.45, 'rescaleHeight': False, 'trialN': 19, 'loaded': True, 'loadedTime': 4728.700000047684, 'positionName': 'LEFT', 'positionCoords': [245.68, 179], 'bid': 9.68}, {'imgObject': {}, 'id': 'steak', 'src': '/static/foodstim60/steak.jpg', 'key': 'i', 'origWidth': 410, 'origHeight': 410, 'width': 410, 'height': 410, 'widthPercent': 0.45, 'rescaleHeight': False, 'trialN': 19, 'loaded': True, 'loadedTime': 4987.5, 'positionName': 'RIGHT', 'positionCoords': [710.32, 179], 'bid': 9.77}]",36853.0,1669848888569,cocktailshrimp,steak,9.68,9.77,0.08999999999999986,cocktailshrimp,939.5,940,940.2000000476837,True,u,38299.299999952316,1446.2999999523163,1669848890016,1447,HRV,HRV_0318,2022-11-30 22:59:32
20,"[{'imgObject': {}, 'id': 'raisin bran w milk', 'src': '/static/foodstim60/raisin bran w milk.jpg', 'key': 'u', 'origWidth': 411, 'origHeight': 411, 'width': 411, 'height': 411, 'widthPercent': 0.45, 'rescaleHeight': False, 'trialN': 20, 'loaded': True, 'loadedTime': 4989.900000095367, 'positionName': 'LEFT', 'positionCoords': [244.68, 178.5], 'bid': 4.13}, {'imgObject': {}, 'id': 'Tribe humus pita', 'src': '/static/foodstim60/Tribe humus pita.jpg', 'key': 'i', 'origWidth': 411, 'origHeight': 411, 'width': 411, 'height': 411, 'widthPercent': 0.45, 'rescaleHeight': False, 'trialN': 20, 'loaded': True, 'loadedTime': 4839.200000047684, 'positionName': 'RIGHT', 'positionCoords': [710.32, 178.5], 'bid': 4.45}]",38299.5,1669848890016,raisin bran w milk,Tribe humus pita,4.13,4.45,0.3200000000000003,raisin bran w milk,1202.5,1203,1203.0999999046326,True,u,40010.90000009537,1711.4000000953674,1669848891727,1711,HRV,HRV_0318,2022-11-30 22:59:32
21,"[{'imgObject': {}, 'id': 'apple slices', 'src': '/static/foodstim60/apple slices.jpg', 'key': 'u', 'origWidth': 409, 'origHeight': 410, 'width': 409, 'height': 410, 'widthPercent': 0.45, 'rescaleHeight': False, 'trialN': 21, 'loaded': True, 'loadedTime': 5007.700000047684, 'positionName': 'LEFT', 'positionCoords': [246.68, 179], 'bid': 7.15}, {'imgObject': {}, 'id': 'cheerios', 'src': '/static/foodstim60/cheerios.jpg', 'key': 'i', 'origWidth': 409, 'origHeight': 410, 'width': 409, 'height': 410, 'widthPercent': 0.45, 'rescaleHeight': False, 'trialN': 21, 'loaded': True, 'loadedTime': 4873.400000095367, 'positionName': 'RIGHT', 'positionCoords': [710.32, 179], 'bid': 3.43}]",40011.09999990463,1669848891727,apple slices,cheerios,7.15,3.43,-3.72,apple slices,1063,1064,1063.5,True,u,41590.299999952316,1579.2000000476837,1669848893307,1580,HRV,HRV_0318,2022-11-30 22:59:32
22,"[{'imgObject': {}, 'id': 'salmon', 'src': '/static/foodstim60/salmon.jpg', 'key': 'u', 'origWidth': 410, 'origHeight': 409, 'width': 410, 'height': 409, 'widthPercent': 0.45, 'rescaleHeight': False, 'trialN': 22, 'loaded': True, 'loadedTime': 4937.099999904633, 'positionName': 'LEFT', 'positionCoords': [245.68, 179.5], 'bid': 8.83}, {'imgObject': {}, 'id': 'blueberries', 'src': '/static/foodstim60/blueberries.jpg', 'key': 'i', 'origWidth': 411, 'origHeight': 411, 'width': 411, 'height': 411, 'widthPercent': 0.45, 'rescaleHeight': False, 'trialN': 22, 'loaded': True, 'loadedTime': 5012.5, 'positionName': 'RIGHT', 'positionCoords': [710.32, 178.5], 'bid': 7.72}]",41590.5,1669848893307,salmon,blueberries,8.83,7.72,-1.1100000000000003,salmon,1045.2000000476837,1046,1045.9000000953674,True,u,43142.0,1551.5,1669848894858,1551,HRV,HRV_0318,2022-11-30 22:59:32
23,"[{'imgObject': {}, 'id': 'apple slices', 'src': '/static/foodstim60/apple slices.jpg', 'key': 'u', 'origWidth': 409, 'origHeight': 410, 'width': 409, 'height': 410, 'widthPercent': 0.45, 'rescaleHeight': False, 'trialN': 23, 'loaded': True, 'loadedTime': 5006.799999952316, 'positionName': 'LEFT', 'positionCoords': [246.68, 179], 'bid': 7.15}, {'imgObject': {}, 'id': 'sweetpotato', 'src': '/static/foodstim60/sweetpotato.jpg', 'key': 'i', 'origWidth': 410, 'origHeight': 410, 'width': 410, 'height': 410, 'widthPercent': 0.45, 'rescaleHeight': False, 'trialN': 23, 'loaded': True, 'loadedTime': 5016.700000047684, 'positionName': 'RIGHT', 'positionCoords': [710.32, 179], 'bid': 6.37}]",43142.200000047684,1669848894858,apple slices,sweetpotato,7.15,6.37,-0.7800000000000002,apple slices,1219.7000000476837,1221,1220.0999999046326,True,u,44883.0,1740.7999999523163,1669848896599,1741,HRV,HRV_0318,2022-11-30 22:59:32
24,"[{'imgObject': {}, 'id': 'strawberries', 'src': '/static/foodstim60/strawberries.jpg', 'key': 'u', 'origWidth': 410, 'origHeight': 410, 'width': 410, 'height': 410, 'widthPercent': 0.45, 'rescaleHeight': False, 'trialN': 24, 'loaded': True, 'loadedTime': 5024.5, 'positionName': 'LEFT', 'positionCoords': [245.68, 179], 'bid': 9.09}, {'imgObject': {}, 'id': 'raspberries', 'src': '/static/foodstim60/raspberries.jpg', 'key': 'i', 'origWidth': 411, 'origHeight': 411, 'width': 411, 'height': 411, 'widthPercent': 0.45, 'rescaleHeight': False, 'trialN': 24, 'loaded': True, 'loadedTime': 5025.299999952316, 'positionName': 'RIGHT', 'positionCoords': [710.32, 178.5], 'bid': 8.3}]",44883.299999952316,1669848896599,strawberries,raspberries,9.09,8.3,-0.7899999999999991,strawberries,1162.7999999523163,1164,1163.4000000953674,True,u,46554.799999952316,1671.5,1669848898271,1672,HRV,HRV_0318,2022-11-30 22:59:32
25,"[{'imgObject': {}, 'id': 'Grapes', 'src': '/static/foodstim60/Grapes.jpg', 'key': 'u', 'origWidth': 411, 'origHeight': 411, 'width': 411, 'height': 411, 'widthPercent': 0.45, 'rescaleHeight': False, 'trialN': 25, 'loaded': True, 'loadedTime': 5028, 'positionName': 'LEFT', 'positionCoords': [244.68, 178.5], 'bid': 8.22}, {'imgObject': {}, 'id': 'hotdog w must', 'src': '/static/foodstim60/hotdog w must.jpg', 'key': 'i', 'origWidth': 409, 'origHeight': 409, 'width': 409, 'height': 409, 'widthPercent': 0.45, 'rescaleHeight': False, 'trialN': 25, 'loaded': True, 'loadedTime': 5043.900000095367, 'positionName': 'RIGHT', 'positionCoords': [710.32, 179.5], 'bid': 8.98}]",46555.200000047684,1669848898271,Grapes,hotdog w must,8.22,8.98,0.7599999999999998,hotdog w must,994.5999999046326,996,995.0999999046326,True,i,48068.0,1512.7999999523163,1669848899784,1513,HRV,HRV_0318,2022-11-30 22:59:32
26,"[{'imgObject': {}, 'id': 'turkey sandwich', 'src': '/static/foodstim60/turkey sandwich.jpg', 'key': 'u', 'origWidth': 409, 'origHeight': 409, 'width': 409, 'height': 409, 'widthPercent': 0.45, 'rescaleHeight': False, 'trialN': 26, 'loaded': True, 'loadedTime': 4855.400000095367, 'positionName': 'LEFT', 'positionCoords': [246.68, 179.5], 'bid': 8.950000000000001}, {'imgObject': {}, 'id': 'hotdog w must', 'src': '/static/foodstim60/hotdog w must.jpg', 'key': 'i', 'origWidth': 409, 'origHeight': 409, 'width': 409, 'height': 409, 'widthPercent': 0.45, 'rescaleHeight': False, 'trialN': 26, 'loaded': True, 'loadedTime': 5043.799999952316, 'positionName': 'RIGHT', 'positionCoords': [710.32, 179.5], 'bid': 8.98}]",48068.299999952316,1669848899785,turkey sandwich,hotdog w must,8.950000000000001,8.98,0.02999999999999936,turkey sandwich,954.6000001430511,955,955.2999999523163,True,u,49527.200000047684,1458.9000000953674,1669848901243,1458,HRV,HRV_0318,2022-11-30 22:59:32
27,"[{'imgObject': {}, 'id': 'sweetpotato', 'src': '/static/foodstim60/sweetpotato.jpg', 'key': 'u', 'origWidth': 410, 'origHeight': 410, 'width': 410, 'height': 410, 'widthPercent': 0.45, 'rescaleHeight': False, 'trialN': 27, 'loaded': True, 'loadedTime': 5016.5, 'positionName': 'LEFT', 'positionCoords': [245.68, 179], 'bid': 6.37}, {'imgObject': {}, 'id': 'froot loops w milk', 'src': '/static/foodstim60/froot loops w milk.jpg', 'key': 'i', 'origWidth': 410, 'origHeight': 410, 'width': 410, 'height': 410, 'widthPercent': 0.45, 'rescaleHeight': False, 'trialN': 27, 'loaded': True, 'loadedTime': 4966.5, 'positionName': 'RIGHT', 'positionCoords': [710.32, 179], 'bid': 2.96}]",49527.5,1669848901244,sweetpotato,froot loops w milk,6.37,2.96,-3.41,froot loops w milk,1188.2999999523163,1188,1188.7000000476837,True,i,51221.799999952316,1694.2999999523163,1669848902938,1694,HRV,HRV_0318,2022-11-30 22:59:32
28,"[{'imgObject': {}, 'id': 'cocktailshrimp', 'src': '/static/foodstim60/cocktailshrimp.jpg', 'key': 'u', 'origWidth': 410, 'origHeight': 410, 'width': 410, 'height': 410, 'widthPercent': 0.45, 'rescaleHeight': False, 'trialN': 28, 'loaded': True, 'loadedTime': 4729.099999904633, 'positionName': 'LEFT', 'positionCoords': [245.68, 179], 'bid': 9.68}, {'imgObject': {}, 'id': 'turkey sandwich', 'src': '/static/foodstim60/turkey sandwich.jpg', 'key': 'i', 'origWidth': 409, 'origHeight': 409, 'width': 409, 'height': 409, 'widthPercent': 0.45, 'rescaleHeight': False, 'trialN': 28, 'loaded': True, 'loadedTime': 4855.799999952316, 'positionName': 'RIGHT', 'positionCoords': [710.32, 179.5], 'bid': 8.950000000000001}]",51222.09999990463,1669848902938,cocktailshrimp,turkey sandwich,9.68,8.950000000000001,-0.7299999999999986,turkey sandwich,941.7000000476837,943,942.2000000476837,True,i,52676.90000009537,1454.8000001907349,1669848904393,1455,HRV,HRV_0318,2022-11-30 22:59:32
29,"[{'imgObject': {}, 'id': 'omelette', 'src': '/static/foodstim60/omelette.jpg', 'key': 'u', 'origWidth': 410, 'origHeight': 409, 'width': 410, 'height': 409, 'widthPercent': 0.45, 'rescaleHeight': False, 'trialN': 29, 'loaded': True, 'loadedTime': 5044.099999904633, 'positionName': 'LEFT', 'positionCoords': [245.68, 179.5], 'bid': 6.58}, {'imgObject': {}, 'id': 'Tribe humus pita', 'src': '/static/foodstim60/Tribe humus pita.jpg', 'key': 'i', 'origWidth': 411, 'origHeight': 411, 'width': 411, 'height': 411, 'widthPercent': 0.45, 'rescaleHeight': False, 'trialN': 29, 'loaded': True, 'loadedTime': 4839.599999904633, 'positionName': 'RIGHT', 'positionCoords': [710.32, 178.5], 'bid': 4.45}]",52677.200000047684,1669848904393,omelette,Tribe humus pita,6.58,4.45,-2.13,omelette,1316.7000000476837,1318,1317.2000000476837,True,u,54516.0,1838.7999999523163,1669848906232,1839,HRV,HRV_0318,2022-11-30 22:59:32
30,"[{'imgObject': {}, 'id': 'omelette', 'src': '/static/foodstim60/omelette.jpg', 'key': 'u', 'origWidth': 410, 'origHeight': 409, 'width': 410, 'height': 409, 'widthPercent': 0.45, 'rescaleHeight': False, 'trialN': 30, 'loaded': True, 'loadedTime': 5045.700000047684, 'positionName': 'LEFT', 'positionCoords': [245.68, 179.5], 'bid': 6.58}, {'imgObject': {}, 'id': 'turkeysandwich', 'src': '/static/foodstim60/turkeysandwich.jpg', 'key': 'i', 'origWidth': 409, 'origHeight': 409, 'width': 409, 'height': 409, 'widthPercent': 0.45, 'rescaleHeight': False, 'trialN': 30, 'loaded': True, 'loadedTime': 4954.900000095367, 'positionName': 'RIGHT', 'positionCoords': [710.32, 179.5], 'bid': 8.96}]",54516.299999952316,1669848906233,omelette,turkeysandwich,6.58,8.96,2.380000000000001,turkeysandwich,923,923,923.5,True,i,55951.799999952316,1435.5,1669848907668,1435,HRV,HRV_0318,2022-11-30 22:59:32
31,"[{'imgObject': {}, 'id': 'rigatoni', 'src': '/static/foodstim60/rigatoni.jpg', 'key': 'u', 'origWidth': 411, 'origHeight': 411, 'width': 411, 'height': 411, 'widthPercent': 0.45, 'rescaleHeight': False, 'trialN': 31, 'loaded': True, 'loadedTime': 5061.099999904633, 'positionName': 'LEFT', 'positionCoords': [244.68, 178.5], 'bid': 5.49}, {'imgObject': {}, 'id': 'fried eggs', 'src': '/static/foodstim60/fried eggs.jpg', 'key': 'i', 'origWidth': 410, 'origHeight': 410, 'width': 410, 'height': 410, 'widthPercent': 0.45, 'rescaleHeight': False, 'trialN': 31, 'loaded': True, 'loadedTime': 5063.799999952316, 'positionName': 'RIGHT', 'positionCoords': [710.32, 179], 'bid': 7.03}]",55952.0,1669848907668,rigatoni,fried eggs,5.49,7.03,1.54,fried eggs,981.2999999523163,982,981.7999999523163,True,i,57449.09999990463,1497.0999999046326,1669848909165,1497,HRV,HRV_0318,2022-11-30 22:59:32
32,"[{'imgObject': {}, 'id': 'hashbrowns', 'src': '/static/foodstim60/hashbrowns.jpg', 'key': 'u', 'origWidth': 411, 'origHeight': 410, 'width': 411, 'height': 410, 'widthPercent': 0.45, 'rescaleHeight': False, 'trialN': 32, 'loaded': True, 'loadedTime': 5064.200000047684, 'positionName': 'LEFT', 'positionCoords': [244.68, 179], 'bid': 3.75}, {'imgObject': {}, 'id': 'luckycharms', 'src': '/static/foodstim60/luckycharms.jpg', 'key': 'i', 'origWidth': 410, 'origHeight': 409, 'width': 410, 'height': 409, 'widthPercent': 0.45, 'rescaleHeight': False, 'trialN': 32, 'loaded': True, 'loadedTime': 4964.200000047684, 'positionName': 'RIGHT', 'positionCoords': [710.32, 179.5], 'bid': 2.43}]",57449.299999952316,1669848909166,hashbrowns,luckycharms,3.75,2.43,-1.3199999999999998,luckycharms,1104.7000000476837,1105,1105.2000000476837,True,i,59056.90000009537,1607.6000001430511,1669848910773,1607,HRV,HRV_0318,2022-11-30 22:59:32
33,"[{'imgObject': {}, 'id': 'chicken nuggets2', 'src': '/static/foodstim60/chicken nuggets2.jpg', 'key': 'u', 'origWidth': 410, 'origHeight': 409, 'width': 410, 'height': 409, 'widthPercent': 0.45, 'rescaleHeight': False, 'trialN': 33, 'loaded': True, 'loadedTime': 5083, 'positionName': 'LEFT', 'positionCoords': [245.68, 179.5], 'bid': 8.14}, {'imgObject': {}, 'id': 'sushi w_condiments', 'src': '/static/foodstim60/sushi w_condiments.jpg', 'key': 'i', 'origWidth': 410, 'origHeight': 410, 'width': 410, 'height': 410, 'widthPercent': 0.45, 'rescaleHeight': False, 'trialN': 33, 'loaded': True, 'loadedTime': 5083.700000047684, 'positionName': 'RIGHT', 'positionCoords': [710.32, 179], 'bid': 7.88}]",59057.200000047684,1669848910773,chicken nuggets2,sushi w_condiments,8.14,7.88,-0.2600000000000007,sushi w_condiments,1267,1268,1267.5999999046326,True,i,60837.299999952316,1780.0999999046326,1669848912554,1781,HRV,HRV_0318,2022-11-30 22:59:32
34,"[{'imgObject': {}, 'id': 'hashbrowns', 'src': '/static/foodstim60/hashbrowns.jpg', 'key': 'u', 'origWidth': 411, 'origHeight': 410, 'width': 411, 'height': 410, 'widthPercent': 0.45, 'rescaleHeight': False, 'trialN': 34, 'loaded': True, 'loadedTime': 5065.400000095367, 'positionName': 'LEFT', 'positionCoords': [244.68, 179], 'bid': 3.75}, {'imgObject': {}, 'id': 'mashed potato', 'src': '/static/foodstim60/mashed potato.jpg', 'key': 'i', 'origWidth': 409, 'origHeight': 409, 'width': 409, 'height': 409, 'widthPercent': 0.45, 'rescaleHeight': False, 'trialN': 34, 'loaded': True, 'loadedTime': 5089.599999904633, 'positionName': 'RIGHT', 'positionCoords': [710.32, 179.5], 'bid': 8.6}]",60837.59999990463,1669848912554,hashbrowns,mashed potato,3.75,8.6,4.85,mashed potato,1555.2000000476837,1556,1555.8000001907349,True,i,62916.59999990463,2079.0,1669848914633,2079,HRV,HRV_0318,2022-11-30 22:59:32
35,"[{'imgObject': {}, 'id': 'rigatoni', 'src': '/static/foodstim60/rigatoni.jpg', 'key': 'u', 'origWidth': 411, 'origHeight': 411, 'width': 411, 'height': 411, 'widthPercent': 0.45, 'rescaleHeight': False, 'trialN': 35, 'loaded': True, 'loadedTime': 5046, 'positionName': 'LEFT', 'positionCoords': [244.68, 178.5], 'bid': 5.49}, {'imgObject': {}, 'id': 'cherries', 'src': '/static/foodstim60/cherries.jpg', 'key': 'i', 'origWidth': 410, 'origHeight': 411, 'width': 410, 'height': 411, 'widthPercent': 0.45, 'rescaleHeight': False, 'trialN': 35, 'loaded': True, 'loadedTime': 5098.400000095367, 'positionName': 'RIGHT', 'positionCoords': [710.32, 178.5], 'bid': 5.64}]",62916.799999952316,1669848914634,rigatoni,cherries,5.49,5.64,0.14999999999999947,cherries,1092.1000001430511,1092,1092.9000000953674,True,i,64526.799999952316,1610.0,1669848916244,1610,HRV,HRV_0318,2022-11-30 22:59:32
36,"[{'imgObject': {}, 'id': 'banana', 'src': '/static/foodstim60/banana.jpg', 'key': 'u', 'origWidth': 410, 'origHeight': 410, 'width': 410, 'height': 410, 'widthPercent': 0.45, 'rescaleHeight': False, 'trialN': 36, 'loaded': True, 'loadedTime': 4708.900000095367, 'positionName': 'LEFT', 'positionCoords': [245.68, 179], 'bid': 7.5}, {'imgObject': {}, 'id': 'mango', 'src': '/static/foodstim60/mango.jpg', 'key': 'i', 'origWidth': 411, 'origHeight': 411, 'width': 411, 'height': 411, 'widthPercent': 0.45, 'rescaleHeight': False, 'trialN': 36, 'loaded': True, 'loadedTime': 4973, 'positionName': 'RIGHT', 'positionCoords': [710.32, 178.5], 'bid': 8.33}]",64527.09999990463,1669848916244,banana,mango,7.5,8.33,0.8300000000000001,mango,955.9000000953674,956,956.4000000953674,True,i,65996.70000004768,1469.6000001430511,1669848917714,1470,HRV,HRV_0318,2022-11-30 22:59:32
37,"[{'imgObject': {}, 'id': 'roastedpotatoes', 'src': '/static/foodstim60/roastedpotatoes.jpg', 'key': 'u', 'origWidth': 409, 'origHeight': 410, 'width': 409, 'height': 410, 'widthPercent': 0.45, 'rescaleHeight': False, 'trialN': 37, 'loaded': True, 'loadedTime': 4920.700000047684, 'positionName': 'LEFT', 'positionCoords': [246.68, 179], 'bid': 6.15}, {'imgObject': {}, 'id': 'cherry tomato', 'src': '/static/foodstim60/cherry tomato.jpg', 'key': 'i', 'origWidth': 410, 'origHeight': 410, 'width': 410, 'height': 410, 'widthPercent': 0.45, 'rescaleHeight': False, 'trialN': 37, 'loaded': True, 'loadedTime': 4957.400000095367, 'positionName': 'RIGHT', 'positionCoords': [710.32, 179], 'bid': 6.44}]",65996.90000009537,1669848917714,roastedpotatoes,cherry tomato,6.15,6.44,0.29000000000000004,cherry tomato,1125.5,1126,1126.0999999046326,True,i,67638.29999995232,1641.3999998569489,1669848919355,1641,HRV,HRV_0318,2022-11-30 22:59:32
38,"[{'imgObject': {}, 'id': 'chicken nuggets2', 'src': '/static/foodstim60/chicken nuggets2.jpg', 'key': 'u', 'origWidth': 410, 'origHeight': 409, 'width': 410, 'height': 409, 'widthPercent': 0.45, 'rescaleHeight': False, 'trialN': 38, 'loaded': True, 'loadedTime': 5083.299999952316, 'positionName': 'LEFT', 'positionCoords': [245.68, 179.5], 'bid': 8.14}, {'imgObject': {}, 'id': 'shreddedwheatwithmilk', 'src': '/static/foodstim60/shreddedwheatwithmilk.jpg', 'key': 'i', 'origWidth': 410, 'origHeight': 410, 'width': 410, 'height': 410, 'widthPercent': 0.45, 'rescaleHeight': False, 'trialN': 38, 'loaded': True, 'loadedTime': 5100.799999952316, 'positionName': 'RIGHT', 'positionCoords': [710.32, 179], 'bid': 2.11}]",67638.59999990463,1669848919355,chicken nuggets2,shreddedwheatwithmilk,8.14,2.11,-6.030000000000001,chicken nuggets2,882.8000001907349,884,883.3000001907349,True,u,69044.90000009537,1406.3000001907349,1669848920762,1407,HRV,HRV_0318,2022-11-30 22:59:32
39,"[{'imgObject': {}, 'id': 'popsicles', 'src': '/static/foodstim60/popsicles.jpg', 'key': 'u', 'origWidth': 410, 'origHeight': 410, 'width': 410, 'height': 410, 'widthPercent': 0.45, 'rescaleHeight': False, 'trialN': 39, 'loaded': True, 'loadedTime': 5179.700000047684, 'positionName': 'LEFT', 'positionCoords': [245.68, 179], 'bid': 7.43}, {'imgObject': {}, 'id': 'mac & cheese', 'src': '/static/foodstim60/mac & cheese.jpg', 'key': 'i', 'origWidth': 410, 'origHeight': 410, 'width': 410, 'height': 410, 'widthPercent': 0.45, 'rescaleHeight': False, 'trialN': 39, 'loaded': True, 'loadedTime': 5103.299999952316, 'positionName': 'RIGHT', 'positionCoords': [710.32, 179], 'bid': 9.3}]",69045.20000004768,1669848920762,popsicles,mac & cheese,7.43,9.3,1.870000000000001,mac & cheese,1198.7999999523163,1200,1199.5,True,i,70762.59999990463,1717.3999998569489,1669848922479,1717,HRV,HRV_0318,2022-11-30 22:59:32
40,"[{'imgObject': {}, 'id': 'burrito', 'src': '/static/foodstim60/burrito.jpg', 'key': 'u', 'origWidth': 410, 'origHeight': 410, 'width': 410, 'height': 410, 'widthPercent': 0.45, 'rescaleHeight': False, 'trialN': 40, 'loaded': True, 'loadedTime': 5105.299999952316, 'positionName': 'LEFT', 'positionCoords': [245.68, 179], 'bid': 7.0600000000000005}, {'imgObject': {}, 'id': 'roastedpotatoes', 'src': '/static/foodstim60/roastedpotatoes.jpg', 'key': 'i', 'origWidth': 409, 'origHeight': 410, 'width': 409, 'height': 410, 'widthPercent': 0.45, 'rescaleHeight': False, 'trialN': 40, 'loaded': True, 'loadedTime': 4934.5, 'positionName': 'RIGHT', 'positionCoords': [710.32, 179], 'bid': 6.15}]",70762.79999995232,1669848922480,burrito,roastedpotatoes,7.0600000000000005,6.15,-0.9100000000000001,burrito,1236.7999999523163,1237,1237.2999999523163,True,u,72509.79999995232,1747.0,1669848924227,1747,HRV,HRV_0318,2022-11-30 22:59:32
41,"[{'imgObject': {}, 'id': 'chicken nuggets2', 'src': '/static/foodstim60/chicken nuggets2.jpg', 'key': 'u', 'origWidth': 410, 'origHeight': 409, 'width': 410, 'height': 409, 'widthPercent': 0.45, 'rescaleHeight': False, 'trialN': 41, 'loaded': True, 'loadedTime': 5083.599999904633, 'positionName': 'LEFT', 'positionCoords': [245.68, 179.5], 'bid': 8.14}, {'imgObject': {}, 'id': 'Grapes', 'src': '/static/foodstim60/Grapes.jpg', 'key': 'i', 'origWidth': 411, 'origHeight': 411, 'width': 411, 'height': 411, 'widthPercent': 0.45, 'rescaleHeight': False, 'trialN': 41, 'loaded': True, 'loadedTime': 5041.400000095367, 'positionName': 'RIGHT', 'positionCoords': [710.32, 178.5], 'bid': 8.22}]",72510.0,1669848924227,chicken nuggets2,Grapes,8.14,8.22,0.08000000000000007,Grapes,1023.2999999523163,1024,1023.7000000476837,True,i,74040.5,1530.5,1669848925757,1530,HRV,HRV_0318,2022-11-30 22:59:32
42,"[{'imgObject': {}, 'id': 'salmon', 'src': '/static/foodstim60/salmon.jpg', 'key': 'u', 'origWidth': 410, 'origHeight': 409, 'width': 410, 'height': 409, 'widthPercent': 0.45, 'rescaleHeight': False, 'trialN': 42, 'loaded': True, 'loadedTime': 4936.799999952316, 'positionName': 'LEFT', 'positionCoords': [245.68, 179.5], 'bid': 8.83}, {'imgObject': {}, 'id': 'chickenfingers', 'src': '/static/foodstim60/chickenfingers.jpg', 'key': 'i', 'origWidth': 410, 'origHeight': 410, 'width': 410, 'height': 410, 'widthPercent': 0.45, 'rescaleHeight': False, 'trialN': 42, 'loaded': True, 'loadedTime': 4744.099999904633, 'positionName': 'RIGHT', 'positionCoords': [710.32, 179], 'bid': 9.34}]",74040.90000009537,1669848925758,salmon,chickenfingers,8.83,9.34,0.5099999999999998,salmon,1312,1312,1312.6999998092651,True,u,75864.90000009537,1824.0,1669848927582,1824,HRV,HRV_0318,2022-11-30 22:59:32
43,"[{'imgObject': {}, 'id': 'blackbeanswithrice', 'src': '/static/foodstim60/blackbeanswithrice.jpg', 'key': 'u', 'origWidth': 410, 'origHeight': 410, 'width': 410, 'height': 410, 'widthPercent': 0.45, 'rescaleHeight': False, 'trialN': 43, 'loaded': True, 'loadedTime': 5105.700000047684, 'positionName': 'LEFT', 'positionCoords': [245.68, 179], 'bid': 8.73}, {'imgObject': {}, 'id': 'mashed potato', 'src': '/static/foodstim60/mashed potato.jpg', 'key': 'i', 'origWidth': 409, 'origHeight': 409, 'width': 409, 'height': 409, 'widthPercent': 0.45, 'rescaleHeight': False, 'trialN': 43, 'loaded': True, 'loadedTime': 5089.799999952316, 'positionName': 'RIGHT', 'positionCoords': [710.32, 179.5], 'bid': 8.6}]",75865.20000004768,1669848927582,blackbeanswithrice,mashed potato,8.73,8.6,-0.13000000000000078,blackbeanswithrice,1007.7999999523163,1008,1008.2999999523163,True,u,77389.40000009537,1524.2000000476837,1669848929106,1524,HRV,HRV_0318,2022-11-30 22:59:32
44,"[{'imgObject': {}, 'id': 'grilled chicken strips', 'src': '/static/foodstim60/grilled chicken strips.jpg', 'key': 'u', 'origWidth': 410, 'origHeight': 411, 'width': 410, 'height': 411, 'widthPercent': 0.45, 'rescaleHeight': False, 'trialN': 44, 'loaded': True, 'loadedTime': 5122.900000095367, 'positionName': 'LEFT', 'positionCoords': [245.68, 178.5], 'bid': 9.4}, {'imgObject': {}, 'id': 'yogurt no spoon', 'src': '/static/foodstim60/yogurt no spoon.jpg', 'key': 'i', 'origWidth': 411, 'origHeight': 410, 'width': 411, 'height': 410, 'widthPercent': 0.45, 'rescaleHeight': False, 'trialN': 44, 'loaded': True, 'loadedTime': 5124.900000095367, 'positionName': 'RIGHT', 'positionCoords': [710.32, 179], 'bid': 8.89}]",77389.59999990463,1669848929106,grilled chicken strips,yogurt no spoon,9.4,8.89,-0.5099999999999998,yogurt no spoon,1240.7000000476837,1242,1241.2000000476837,True,i,79140.5,1750.9000000953674,1669848930857,1751,HRV,HRV_0318,2022-11-30 22:59:32
45,"[{'imgObject': {}, 'id': 'bagel plain', 'src': '/static/foodstim60/bagel plain.jpg', 'key': 'u', 'origWidth': 410, 'origHeight': 410, 'width': 410, 'height': 410, 'widthPercent': 0.45, 'rescaleHeight': False, 'trialN': 45, 'loaded': True, 'loadedTime': 4761, 'positionName': 'LEFT', 'positionCoords': [245.68, 179], 'bid': 8.76}, {'imgObject': {}, 'id': 'salmon', 'src': '/static/foodstim60/salmon.jpg', 'key': 'i', 'origWidth': 410, 'origHeight': 409, 'width': 410, 'height': 409, 'widthPercent': 0.45, 'rescaleHeight': False, 'trialN': 45, 'loaded': True, 'loadedTime': 4937, 'positionName': 'RIGHT', 'positionCoords': [710.32, 179.5], 'bid': 8.83}]",79140.90000009537,1669848930858,bagel plain,salmon,8.76,8.83,0.07000000000000028,bagel plain,1104.6999998092651,1105,1105.0999999046326,True,u,80760.5,1619.5999999046326,1669848932477,1619,HRV,HRV_0318,2022-11-30 22:59:32
46,"[{'imgObject': {}, 'id': 'rigatoni and sauce', 'src': '/static/foodstim60/rigatoni and sauce.jpg', 'key': 'u', 'origWidth': 410, 'origHeight': 411, 'width': 410, 'height': 411, 'widthPercent': 0.45, 'rescaleHeight': False, 'trialN': 46, 'loaded': True, 'loadedTime': 4905.200000047684, 'positionName': 'LEFT', 'positionCoords': [245.68, 178.5], 'bid': 7.59}, {'imgObject': {}, 'id': 'Grapes', 'src': '/static/foodstim60/Grapes.jpg', 'key': 'i', 'origWidth': 411, 'origHeight': 411, 'width': 411, 'height': 411, 'widthPercent': 0.45, 'rescaleHeight': False, 'trialN': 46, 'loaded': True, 'loadedTime': 5041.799999952316, 'positionName': 'RIGHT', 'positionCoords': [710.32, 178.5], 'bid': 8.22}]",80760.59999990463,1669848932477,rigatoni and sauce,Grapes,7.59,8.22,0.6300000000000008,NaN,NaN,NaN,,False,NaN,84780.5,4019.9000000953674,1669848936497,4020,HRV,HRV_0318,2022-11-30 22:59:32
47,"[{'imgObject': {}, 'id': 'eggsalad', 'src': '/static/foodstim60/eggsalad.jpg', 'key': 'u', 'origWidth': 410, 'origHeight': 409, 'width': 410, 'height': 409, 'widthPercent': 0.45, 'rescaleHeight': False, 'trialN': 47, 'loaded': True, 'loadedTime': 5140, 'positionName': 'LEFT', 'positionCoords': [245.68, 179.5], 'bid': 8.33}, {'imgObject': {}, 'id': 'bagel plain', 'src': '/static/foodstim60/bagel plain.jpg', 'key': 'i', 'origWidth': 410, 'origHeight': 410, 'width': 410, 'height': 410, 'widthPercent': 0.45, 'rescaleHeight': False, 'trialN': 47, 'loaded': True, 'loadedTime': 4774.700000047684, 'positionName': 'RIGHT', 'positionCoords': [710.32, 179], 'bid': 8.76}]",84780.79999995232,1669848936498,eggsalad,bagel plain,8.33,8.76,0.4299999999999997,bagel plain,665.5,666,666.1000001430511,True,i,85954.79999995232,1174.0,1669848937672,1174,HRV,HRV_0318,2022-11-30 22:59:32
48,"[{'imgObject': {}, 'id': 'rigatoni', 'src': '/static/foodstim60/rigatoni.jpg', 'key': 'u', 'origWidth': 411, 'origHeight': 411, 'width': 411, 'height': 411, 'widthPercent': 0.45, 'rescaleHeight': False, 'trialN': 48, 'loaded': True, 'loadedTime': 5061.400000095367, 'positionName': 'LEFT', 'positionCoords': [244.68, 178.5], 'bid': 5.49}, {'imgObject': {}, 'id': 'rigatoni and sauce', 'src': '/static/foodstim60/rigatoni and sauce.jpg', 'key': 'i', 'origWidth': 410, 'origHeight': 411, 'width': 410, 'height': 411, 'widthPercent': 0.45, 'rescaleHeight': False, 'trialN': 48, 'loaded': True, 'loadedTime': 4904.799999952316, 'positionName': 'RIGHT', 'positionCoords': [710.32, 178.5], 'bid': 7.59}]",85955.09999990463,1669848937672,rigatoni,rigatoni and sauce,5.49,7.59,2.0999999999999996,rigatoni and sauce,1248,1248,1248.3000001907349,True,i,87717.20000004768,1762.1000001430511,1669848939434,1762,HRV,HRV_0318,2022-11-30 22:59:32
49,"[{'imgObject': {}, 'id': 'pear', 'src': '/static/foodstim60/pear.jpg', 'key': 'u', 'origWidth': 411, 'origHeight': 410, 'width': 411, 'height': 410, 'widthPercent': 0.45, 'rescaleHeight': False, 'trialN': 49, 'loaded': True, 'loadedTime': 4917.5, 'positionName': 'LEFT', 'positionCoords': [244.68, 179], 'bid': 7.54}, {'imgObject': {}, 'id': 'Tribe humus pita', 'src': '/static/foodstim60/Tribe humus pita.jpg', 'key': 'i', 'origWidth': 411, 'origHeight': 411, 'width': 411, 'height': 411, 'widthPercent': 0.45, 'rescaleHeight': False, 'trialN': 49, 'loaded': True, 'loadedTime': 4840, 'positionName': 'RIGHT', 'positionCoords': [710.32, 178.5], 'bid': 4.45}]",87717.40000009537,1669848939434,pear,Tribe humus pita,7.54,4.45,-3.09,pear,911.2999999523163,912,911.8999998569489,True,u,89149.0,1431.5999999046326,1669848940866,1432,HRV,HRV_0318,2022-11-30 22:59:32
50,"[{'imgObject': {}, 'id': 'yogurt no spoon', 'src': '/static/foodstim60/yogurt no spoon.jpg', 'key': 'u', 'origWidth': 411, 'origHeight': 410, 'width': 411, 'height': 410, 'widthPercent': 0.45, 'rescaleHeight': False, 'trialN': 50, 'loaded': True, 'loadedTime': 5123.200000047684, 'positionName': 'LEFT', 'positionCoords': [244.68, 179], 'bid': 8.89}, {'imgObject': {}, 'id': 'salmon', 'src': '/static/foodstim60/salmon.jpg', 'key': 'i', 'origWidth': 410, 'origHeight': 409, 'width': 410, 'height': 409, 'widthPercent': 0.45, 'rescaleHeight': False, 'trialN': 50, 'loaded': True, 'loadedTime': 4937.599999904633, 'positionName': 'RIGHT', 'positionCoords': [710.32, 179.5], 'bid': 8.83}]",89149.29999995232,1669848940866,yogurt no spoon,salmon,8.89,8.83,-0.0600000000000005,salmon,858.6000001430511,859,859.0,True,i,90523.09999990463,1373.7999999523163,1669848942240,1374,HRV,HRV_0318,2022-11-30 22:59:32
51,"[{'imgObject': {}, 'id': 'pear', 'src': '/static/foodstim60/pear.jpg', 'key': 'u', 'origWidth': 411, 'origHeight': 410, 'width': 411, 'height': 410, 'widthPercent': 0.45, 'rescaleHeight': False, 'trialN': 51, 'loaded': True, 'loadedTime': 4917.799999952316, 'positionName': 'LEFT', 'positionCoords': [244.68, 179], 'bid': 7.54}, {'imgObject': {}, 'id': 'eggsalad', 'src': '/static/foodstim60/eggsalad.jpg', 'key': 'i', 'origWidth': 410, 'origHeight': 409, 'width': 410, 'height': 409, 'widthPercent': 0.45, 'rescaleHeight': False, 'trialN': 51, 'loaded': True, 'loadedTime': 5140.299999952316, 'positionName': 'RIGHT', 'positionCoords': [710.32, 179.5], 'bid': 8.33}]",90523.40000009537,1669848942240,pear,eggsalad,7.54,8.33,0.79,pear,1083.8999998569489,1085,1084.5,True,u,92115.0,1591.5999999046326,1669848943832,1592,HRV,HRV_0318,2022-11-30 22:59:32
52,"[{'imgObject': {}, 'id': 'turkey sandwich', 'src': '/static/foodstim60/turkey sandwich.jpg', 'key': 'u', 'origWidth': 409, 'origHeight': 409, 'width': 409, 'height': 409, 'widthPercent': 0.45, 'rescaleHeight': False, 'trialN': 52, 'loaded': True, 'loadedTime': 4854.900000095367, 'positionName': 'LEFT', 'positionCoords': [246.68, 179.5], 'bid': 8.950000000000001}, {'imgObject': {}, 'id': 'cherry tomato', 'src': '/static/foodstim60/cherry tomato.jpg', 'key': 'i', 'origWidth': 410, 'origHeight': 410, 'width': 410, 'height': 410, 'widthPercent': 0.45, 'rescaleHeight': False, 'trialN': 52, 'loaded': True, 'loadedTime': 4955.299999952316, 'positionName': 'RIGHT', 'positionCoords': [710.32, 179], 'bid': 6.44}]",92115.29999995232,1669848943832,turkey sandwich,cherry tomato,8.950000000000001,6.44,-2.5100000000000007,turkey sandwich,795,796,795.6000001430511,True,u,93426.5,1311.2000000476837,1669848945143,1311,HRV,HRV_0318,2022-11-30 22:59:32
53,"[{'imgObject': {}, 'id': 'luckycharms', 'src': '/static/foodstim60/luckycharms.jpg', 'key': 'u', 'origWidth': 410, 'origHeight': 409, 'width': 410, 'height': 409, 'widthPercent': 0.45, 'rescaleHeight': False, 'trialN': 53, 'loaded': True, 'loadedTime': 4962.200000047684, 'positionName': 'LEFT', 'positionCoords': [245.68, 179.5], 'bid': 2.43}, {'imgObject': {}, 'id': 'Grapes', 'src': '/static/foodstim60/Grapes.jpg', 'key': 'i', 'origWidth': 411, 'origHeight': 411, 'width': 411, 'height': 411, 'widthPercent': 0.45, 'rescaleHeight': False, 'trialN': 53, 'loaded': True, 'loadedTime': 5041.900000095367, 'positionName': 'RIGHT', 'positionCoords': [710.32, 178.5], 'bid': 8.22}]",93426.70000004768,1669848945144,luckycharms,Grapes,2.43,8.22,5.790000000000001,Grapes,662.7000000476837,663,663.2000000476837,True,i,94599.0,1172.2999999523163,1669848946316,1172,HRV,HRV_0318,2022-11-30 22:59:32
54,"[{'imgObject': {}, 'id': 'corn cob', 'src': '/static/foodstim60/corn cob.jpg', 'key': 'u', 'origWidth': 411, 'origHeight': 411, 'width': 411, 'height': 411, 'widthPercent': 0.45, 'rescaleHeight': False, 'trialN': 54, 'loaded': True, 'loadedTime': 5142.5, 'positionName': 'LEFT', 'positionCoords': [244.68, 178.5], 'bid': 8.48}, {'imgObject': {}, 'id': 'mango', 'src': '/static/foodstim60/mango.jpg', 'key': 'i', 'origWidth': 411, 'origHeight': 411, 'width': 411, 'height': 411, 'widthPercent': 0.45, 'rescaleHeight': False, 'trialN': 54, 'loaded': True, 'loadedTime': 4972.799999952316, 'positionName': 'RIGHT', 'positionCoords': [710.32, 178.5], 'bid': 8.33}]",94599.29999995232,1669848946316,corn cob,mango,8.48,8.33,-0.15000000000000036,corn cob,1040.5,1042,1041.5,True,u,96143.0,1543.7000000476837,1669848947860,1544,HRV,HRV_0318,2022-11-30 22:59:32
55,"[{'imgObject': {}, 'id': 'tacos', 'src': '/static/foodstim60/tacos.jpg', 'key': 'u', 'origWidth': 411, 'origHeight': 411, 'width': 411, 'height': 411, 'widthPercent': 0.45, 'rescaleHeight': False, 'trialN': 55, 'loaded': True, 'loadedTime': 5144, 'positionName': 'LEFT', 'positionCoords': [244.68, 178.5], 'bid': 8.83}, {'imgObject': {}, 'id': 'yogurt no spoon', 'src': '/static/foodstim60/yogurt no spoon.jpg', 'key': 'i', 'origWidth': 411, 'origHeight': 410, 'width': 411, 'height': 410, 'widthPercent': 0.45, 'rescaleHeight': False, 'trialN': 55, 'loaded': True, 'loadedTime': 5125.099999904633, 'positionName': 'RIGHT', 'positionCoords': [710.32, 179], 'bid': 8.89}]",96143.29999995232,1669848947860,tacos,yogurt no spoon,8.83,8.89,0.0600000000000005,tacos,1113.5,1114,1114.0,True,u,97781.09999990463,1637.7999999523163,1669848949498,1638,HRV,HRV_0318,2022-11-30 22:59:32
56,"[{'imgObject': {}, 'id': 'baked potato', 'src': '/static/foodstim60/baked potato.jpg', 'key': 'u', 'origWidth': 409, 'origHeight': 410, 'width': 409, 'height': 410, 'widthPercent': 0.45, 'rescaleHeight': False, 'trialN': 56, 'loaded': True, 'loadedTime': 4669, 'positionName': 'LEFT', 'positionCoords': [246.68, 179], 'bid': 8.03}, {'imgObject': {}, 'id': 'sushi w_condiments', 'src': '/static/foodstim60/sushi w_condiments.jpg', 'key': 'i', 'origWidth': 410, 'origHeight': 410, 'width': 410, 'height': 410, 'widthPercent': 0.45, 'rescaleHeight': False, 'trialN': 56, 'loaded': True, 'loadedTime': 5085, 'positionName': 'RIGHT', 'positionCoords': [710.32, 179], 'bid': 7.88}]",97781.40000009537,1669848949498,baked potato,sushi w_condiments,8.03,7.88,-0.14999999999999947,sushi w_condiments,1302.6999998092651,1303,1303.1999998092651,True,i,99591.0,1809.5999999046326,1669848951308,1810,HRV,HRV_0318,2022-11-30 22:59:32
57,"[{'imgObject': {}, 'id': 'hotdog w must', 'src': '/static/foodstim60/hotdog w must.jpg', 'key': 'u', 'origWidth': 409, 'origHeight': 409, 'width': 409, 'height': 409, 'widthPercent': 0.45, 'rescaleHeight': False, 'trialN': 57, 'loaded': True, 'loadedTime': 5042.099999904633, 'positionName': 'LEFT', 'positionCoords': [246.68, 179.5], 'bid': 8.98}, {'imgObject': {}, 'id': 'chickenfingers', 'src': '/static/foodstim60/chickenfingers.jpg', 'key': 'i', 'origWidth': 410, 'origHeight': 410, 'width': 410, 'height': 410, 'widthPercent': 0.45, 'rescaleHeight': False, 'trialN': 57, 'loaded': True, 'loadedTime': 4744, 'positionName': 'RIGHT', 'positionCoords': [710.32, 179], 'bid': 9.34}]",99591.29999995232,1669848951308,hotdog w must,chickenfingers,8.98,9.34,0.35999999999999943,chickenfingers,824,825,824.6000001430511,True,i,100922.40000009537,1331.1000001430511,1669848952639,1331,HRV,HRV_0318,2022-11-30 22:59:32
58,"[{'imgObject': {}, 'id': 'sushi w_condiments', 'src': '/static/foodstim60/sushi w_condiments.jpg', 'key': 'u', 'origWidth': 410, 'origHeight': 410, 'width': 410, 'height': 410, 'widthPercent': 0.45, 'rescaleHeight': False, 'trialN': 58, 'loaded': True, 'loadedTime': 5085.799999952316, 'positionName': 'LEFT', 'positionCoords': [245.68, 179], 'bid': 7.88}, {'imgObject': {}, 'id': 'yogurt no spoon', 'src': '/static/foodstim60/yogurt no spoon.jpg', 'key': 'i', 'origWidth': 411, 'origHeight': 410, 'width': 411, 'height': 410, 'widthPercent': 0.45, 'rescaleHeight': False, 'trialN': 58, 'loaded': True, 'loadedTime': 5124.799999952316, 'positionName': 'RIGHT', 'positionCoords': [710.32, 179], 'bid': 8.89}]",100922.70000004768,1669848952640,sushi w_condiments,yogurt no spoon,7.88,8.89,1.0100000000000007,sushi w_condiments,1117.7000000476837,1118,1118.2000000476837,True,u,102545.90000009537,1623.2000000476837,1669848954263,1623,HRV,HRV_0318,2022-11-30 22:59:32
59,"[{'imgObject': {}, 'id': 'eggs', 'src': '/static/foodstim60/eggs.jpg', 'key': 'u', 'origWidth': 409, 'origHeight': 409, 'width': 409, 'height': 409, 'widthPercent': 0.45, 'rescaleHeight': False, 'trialN': 59, 'loaded': True, 'loadedTime': 5146, 'positionName': 'LEFT', 'positionCoords': [246.68, 179.5], 'bid': 8.67}, {'imgObject': {}, 'id': 'grilled chicken strips', 'src': '/static/foodstim60/grilled chicken strips.jpg', 'key': 'i', 'origWidth': 410, 'origHeight': 411, 'width': 410, 'height': 411, 'widthPercent': 0.45, 'rescaleHeight': False, 'trialN': 59, 'loaded': True, 'loadedTime': 5121, 'positionName': 'RIGHT', 'positionCoords': [710.32, 178.5], 'bid': 9.4}]",102546.09999990463,1669848954263,eggs,grilled chicken strips,8.67,9.4,0.7300000000000004,grilled chicken strips,800.8000001907349,801,801.3000001907349,True,i,103854.70000004768,1308.6000001430511,1669848955572,1309,HRV,HRV_0318,2022-11-30 22:59:32
60,"[{'imgObject': {}, 'id': 'burger', 'src': '/static/foodstim60/burger.jpg', 'key': 'u', 'origWidth': 409, 'origHeight': 409, 'width': 409, 'height': 409, 'widthPercent': 0.45, 'rescaleHeight': False, 'trialN': 60, 'loaded': True, 'loadedTime': 5147.400000095367, 'positionName': 'LEFT', 'positionCoords': [246.68, 179.5], 'bid': 9.11}, {'imgObject': {}, 'id': 'ice cream sundae 002', 'src': '/static/foodstim60/ice cream sundae 002.jpg', 'key': 'i', 'origWidth': 409, 'origHeight': 409, 'width': 409, 'height': 409, 'widthPercent': 0.45, 'rescaleHeight': False, 'trialN': 60, 'loaded': True, 'loadedTime': 4889.200000047684, 'positionName': 'RIGHT', 'positionCoords': [710.32, 179.5], 'bid': 9.09}]",103855.0,1669848955572,burger,ice cream sundae 002,9.11,9.09,-0.019999999999999574,burger,694.4000000953674,695,694.9000000953674,True,u,105057.90000009537,1202.9000000953674,1669848956775,1203,HRV,HRV_0318,2022-11-30 22:59:32
61,"[{'imgObject': {}, 'id': 'seaweed', 'src': '/static/foodstim60/seaweed.jpg', 'key': 'u', 'origWidth': 410, 'origHeight': 410, 'width': 410, 'height': 410, 'widthPercent': 0.45, 'rescaleHeight': False, 'trialN': 61, 'loaded': True, 'loadedTime': 5165.400000095367, 'positionName': 'LEFT', 'positionCoords': [245.68, 179], 'bid': 0.79}, {'imgObject': {}, 'id': 'kiwi', 'src': '/static/foodstim60/kiwi.jpg', 'key': 'i', 'origWidth': 410, 'origHeight': 410, 'width': 410, 'height': 410, 'widthPercent': 0.45, 'rescaleHeight': False, 'trialN': 61, 'loaded': True, 'loadedTime': 4822.599999904633, 'positionName': 'RIGHT', 'positionCoords': [710.32, 179], 'bid': 1.83}]",105058.09999990463,1669848956775,seaweed,kiwi,0.79,1.83,1.04,kiwi,883.5,884,884.0,True,i,106460.20000004768,1402.1000001430511,1669848958177,1402,HRV,HRV_0318,2022-11-30 22:59:32
62,"[{'imgObject': {}, 'id': 'kiwi', 'src': '/static/foodstim60/kiwi.jpg', 'key': 'u', 'origWidth': 410, 'origHeight': 410, 'width': 410, 'height': 410, 'widthPercent': 0.45, 'rescaleHeight': False, 'trialN': 62, 'loaded': True, 'loadedTime': 4821.099999904633, 'positionName': 'LEFT', 'positionCoords': [245.68, 179], 'bid': 1.83}, {'imgObject': {}, 'id': 'baked potato', 'src': '/static/foodstim60/baked potato.jpg', 'key': 'i', 'origWidth': 409, 'origHeight': 410, 'width': 409, 'height': 410, 'widthPercent': 0.45, 'rescaleHeight': False, 'trialN': 62, 'loaded': True, 'loadedTime': 4668.799999952316, 'positionName': 'RIGHT', 'positionCoords': [710.32, 179], 'bid': 8.03}]",106460.5,1669848958177,kiwi,baked potato,1.83,8.03,6.199999999999999,baked potato,1118,1119,1118.7000000476837,True,i,108100.70000004768,1640.2000000476837,1669848959817,1640,HRV,HRV_0318,2022-11-30 22:59:32
63,"[{'imgObject': {}, 'id': 'fried eggs', 'src': '/static/foodstim60/fried eggs.jpg', 'key': 'u', 'origWidth': 410, 'origHeight': 410, 'width': 410, 'height': 410, 'widthPercent': 0.45, 'rescaleHeight': False, 'trialN': 63, 'loaded': True, 'loadedTime': 5064, 'positionName': 'LEFT', 'positionCoords': [245.68, 179], 'bid': 7.03}, {'imgObject': {}, 'id': 'burrito', 'src': '/static/foodstim60/burrito.jpg', 'key': 'i', 'origWidth': 410, 'origHeight': 410, 'width': 410, 'height': 410, 'widthPercent': 0.45, 'rescaleHeight': False, 'trialN': 63, 'loaded': True, 'loadedTime': 5103.599999904633, 'positionName': 'RIGHT', 'positionCoords': [710.32, 179], 'bid': 7.0600000000000005}]",108100.90000009537,1669848959818,fried eggs,burrito,7.03,7.0600000000000005,0.03000000000000025,fried eggs,908.3999998569489,909,908.7999999523163,True,u,109519.5,1418.5999999046326,1669848961236,1418,HRV,HRV_0318,2022-11-30 22:59:32
64,"[{'imgObject': {}, 'id': 'burger', 'src': '/static/foodstim60/burger.jpg', 'key': 'u', 'origWidth': 409, 'origHeight': 409, 'width': 409, 'height': 409, 'widthPercent': 0.45, 'rescaleHeight': False, 'trialN': 64, 'loaded': True, 'loadedTime': 5163.200000047684, 'positionName': 'LEFT', 'positionCoords': [246.68, 179.5], 'bid': 9.11}, {'imgObject': {}, 'id': 'mac & cheese', 'src': '/static/foodstim60/mac & cheese.jpg', 'key': 'i', 'origWidth': 410, 'origHeight': 410, 'width': 410, 'height': 410, 'widthPercent': 0.45, 'rescaleHeight': False, 'trialN': 64, 'loaded': True, 'loadedTime': 5102.599999904633, 'positionName': 'RIGHT', 'positionCoords': [710.32, 179], 'bid': 9.3}]",109519.59999990463,1669848961236,burger,mac & cheese,9.11,9.3,0.19000000000000128,burger,932.9000000953674,934,933.3000001907349,True,u,110966.40000009537,1446.8000001907349,1669848962683,1447,HRV,HRV_0318,2022-11-30 22:59:32
65,"[{'imgObject': {}, 'id': 'raisin bran w milk', 'src': '/static/foodstim60/raisin bran w milk.jpg', 'key': 'u', 'origWidth': 411, 'origHeight': 411, 'width': 411, 'height': 411, 'widthPercent': 0.45, 'rescaleHeight': False, 'trialN': 65, 'loaded': True, 'loadedTime': 4988.200000047684, 'positionName': 'LEFT', 'positionCoords': [244.68, 178.5], 'bid': 4.13}, {'imgObject': {}, 'id': 'cherry tomato', 'src': '/static/foodstim60/cherry tomato.jpg', 'key': 'i', 'origWidth': 410, 'origHeight': 410, 'width': 410, 'height': 410, 'widthPercent': 0.45, 'rescaleHeight': False, 'trialN': 65, 'loaded': True, 'loadedTime': 4957.5, 'positionName': 'RIGHT', 'positionCoords': [710.32, 179], 'bid': 6.44}]",110966.59999990463,1669848962683,raisin bran w milk,cherry tomato,4.13,6.44,2.3100000000000005,cherry tomato,822.3000001907349,823,822.9000000953674,True,i,112294.0,1327.4000000953674,1669848964011,1328,HRV,HRV_0318,2022-11-30 22:59:32
66,"[{'imgObject': {}, 'id': 'raspberries', 'src': '/static/foodstim60/raspberries.jpg', 'key': 'u', 'origWidth': 411, 'origHeight': 411, 'width': 411, 'height': 411, 'widthPercent': 0.45, 'rescaleHeight': False, 'trialN': 66, 'loaded': True, 'loadedTime': 5027.400000095367, 'positionName': 'LEFT', 'positionCoords': [244.68, 178.5], 'bid': 8.3}, {'imgObject': {}, 'id': 'cantaloupe', 'src': '/static/foodstim60/cantaloupe.jpg', 'key': 'i', 'origWidth': 409, 'origHeight': 409, 'width': 409, 'height': 409, 'widthPercent': 0.45, 'rescaleHeight': False, 'trialN': 66, 'loaded': True, 'loadedTime': 5166.900000095367, 'positionName': 'RIGHT', 'positionCoords': [710.32, 179.5], 'bid': 2.68}]",112294.29999995232,1669848964011,raspberries,cantaloupe,8.3,2.68,-5.620000000000001,raspberries,906.2999999523163,907,906.9000000953674,True,u,113721.70000004768,1427.4000000953674,1669848965439,1428,HRV,HRV_0318,2022-11-30 22:59:32
67,"[{'imgObject': {}, 'id': 'cocktailshrimp', 'src': '/static/foodstim60/cocktailshrimp.jpg', 'key': 'u', 'origWidth': 410, 'origHeight': 410, 'width': 410, 'height': 410, 'widthPercent': 0.45, 'rescaleHeight': False, 'trialN': 67, 'loaded': True, 'loadedTime': 4727.299999952316, 'positionName': 'LEFT', 'positionCoords': [245.68, 179], 'bid': 9.68}, {'imgObject': {}, 'id': 'pear', 'src': '/static/foodstim60/pear.jpg', 'key': 'i', 'origWidth': 411, 'origHeight': 410, 'width': 411, 'height': 410, 'widthPercent': 0.45, 'rescaleHeight': False, 'trialN': 67, 'loaded': True, 'loadedTime': 4918.400000095367, 'positionName': 'RIGHT', 'positionCoords': [710.32, 179], 'bid': 7.54}]",113722.0,1669848965439,cocktailshrimp,pear,9.68,7.54,-2.1399999999999997,pear,847.2999999523163,848,847.9000000953674,True,i,115090.09999990463,1368.0999999046326,1669848966807,1368,HRV,HRV_0318,2022-11-30 22:59:32
68,"[{'imgObject': {}, 'id': 'rigatoni', 'src': '/static/foodstim60/rigatoni.jpg', 'key': 'u', 'origWidth': 411, 'origHeight': 411, 'width': 411, 'height': 411, 'widthPercent': 0.45, 'rescaleHeight': False, 'trialN': 68, 'loaded': True, 'loadedTime': 5060.200000047684, 'positionName': 'LEFT', 'positionCoords': [244.68, 178.5], 'bid': 5.49}, {'imgObject': {}, 'id': 'raisin bran w milk', 'src': '/static/foodstim60/raisin bran w milk.jpg', 'key': 'i', 'origWidth': 411, 'origHeight': 411, 'width': 411, 'height': 411, 'widthPercent': 0.45, 'rescaleHeight': False, 'trialN': 68, 'loaded': True, 'loadedTime': 4990.599999904633, 'positionName': 'RIGHT', 'positionCoords': [710.32, 178.5], 'bid': 4.13}]",115090.40000009537,1669848966807,rigatoni,raisin bran w milk,5.49,4.13,-1.3600000000000003,raisin bran w milk,1253,1254,1253.5,True,i,116860.79999995232,1770.3999998569489,1669848968578,1771,HRV,HRV_0318,2022-11-30 22:59:32
69,"[{'imgObject': {}, 'id': 'seaweed', 'src': '/static/foodstim60/seaweed.jpg', 'key': 'u', 'origWidth': 410, 'origHeight': 410, 'width': 410, 'height': 410, 'widthPercent': 0.45, 'rescaleHeight': False, 'trialN': 69, 'loaded': True, 'loadedTime': 5163.799999952316, 'positionName': 'LEFT', 'positionCoords': [245.68, 179], 'bid': 0.79}, {'imgObject': {}, 'id': 'sushi w_condiments', 'src': '/static/foodstim60/sushi w_condiments.jpg', 'key': 'i', 'origWidth': 410, 'origHeight': 410, 'width': 410, 'height': 410, 'widthPercent': 0.45, 'rescaleHeight': False, 'trialN': 69, 'loaded': True, 'loadedTime': 5086.299999952316, 'positionName': 'RIGHT', 'positionCoords': [710.32, 179], 'bid': 7.88}]",116861.0,1669848968578,seaweed,sushi w_condiments,0.79,7.88,7.09,sushi w_condiments,1091.0999999046326,1092,1091.7000000476837,True,i,118467.0,1606.0,1669848970184,1606,HRV,HRV_0318,2022-11-30 22:59:32
70,"[{'imgObject': {}, 'id': 'tacos', 'src': '/static/foodstim60/tacos.jpg', 'key': 'u', 'origWidth': 411, 'origHeight': 411, 'width': 411, 'height': 411, 'widthPercent': 0.45, 'rescaleHeight': False, 'trialN': 70, 'loaded': True, 'loadedTime': 5142.5, 'positionName': 'LEFT', 'positionCoords': [244.68, 178.5], 'bid': 8.83}, {'imgObject': {}, 'id': 'cherries', 'src': '/static/foodstim60/cherries.jpg', 'key': 'i', 'origWidth': 410, 'origHeight': 411, 'width': 410, 'height': 411, 'widthPercent': 0.45, 'rescaleHeight': False, 'trialN': 70, 'loaded': True, 'loadedTime': 5093.299999952316, 'positionName': 'RIGHT', 'positionCoords': [710.32, 178.5], 'bid': 5.64}]",118467.20000004768,1669848970184,tacos,cherries,8.83,5.64,-3.1900000000000004,tacos,1000.5999999046326,1001,1000.8999998569489,True,u,119982.79999995232,1515.5999999046326,1669848971700,1516,HRV,HRV_0318,2022-11-30 22:59:32
71,"[{'imgObject': {}, 'id': 'banana', 'src': '/static/foodstim60/banana.jpg', 'key': 'u', 'origWidth': 410, 'origHeight': 410, 'width': 410, 'height': 410, 'widthPercent': 0.45, 'rescaleHeight': False, 'trialN': 71, 'loaded': True, 'loadedTime': 4709.900000095367, 'positionName': 'LEFT', 'positionCoords': [245.68, 179], 'bid': 7.5}, {'imgObject': {}, 'id': 'fruitsalad', 'src': '/static/foodstim60/fruitsalad.jpg', 'key': 'i', 'origWidth': 410, 'origHeight': 410, 'width': 410, 'height': 410, 'widthPercent': 0.45, 'rescaleHeight': False, 'trialN': 71, 'loaded': True, 'loadedTime': 4757.700000047684, 'positionName': 'RIGHT', 'positionCoords': [710.32, 179], 'bid': 7.5}]",119983.0,1669848971700,banana,fruitsalad,7.5,7.5,0.0,banana,1419.4000000953674,1420,1420.0,True,u,121916.09999990463,1933.0999999046326,1669848973633,1933,HRV,HRV_0318,2022-11-30 22:59:32
72,"[{'imgObject': {}, 'id': 'olives', 'src': '/static/foodstim60/olives.jpg', 'key': 'u', 'origWidth': 410, 'origHeight': 410, 'width': 410, 'height': 410, 'widthPercent': 0.45, 'rescaleHeight': False, 'trialN': 72, 'loaded': True, 'loadedTime': 5168.900000095367, 'positionName': 'LEFT', 'positionCoords': [245.68, 179], 'bid': 0.76}, {'imgObject': {}, 'id': 'roastedpotatoes', 'src': '/static/foodstim60/roastedpotatoes.jpg', 'key': 'i', 'origWidth': 409, 'origHeight': 410, 'width': 409, 'height': 410, 'widthPercent': 0.45, 'rescaleHeight': False, 'trialN': 72, 'loaded': True, 'loadedTime': 4920.299999952316, 'positionName': 'RIGHT', 'positionCoords': [710.32, 179], 'bid': 6.15}]",121916.40000009537,1669848973633,olives,roastedpotatoes,0.76,6.15,5.390000000000001,roastedpotatoes,1254.2999999523163,1255,1255.0,True,i,123682.90000009537,1766.5,1669848975399,1766,HRV,HRV_0318,2022-11-30 22:59:32
73,"[{'imgObject': {}, 'id': 'cantaloupe', 'src': '/static/foodstim60/cantaloupe.jpg', 'key': 'u', 'origWidth': 409, 'origHeight': 409, 'width': 409, 'height': 409, 'widthPercent': 0.45, 'rescaleHeight': False, 'trialN': 73, 'loaded': True, 'loadedTime': 5167.299999952316, 'positionName': 'LEFT', 'positionCoords': [246.68, 179.5], 'bid': 2.68}, {'imgObject': {}, 'id': 'roastedpotatoes', 'src': '/static/foodstim60/roastedpotatoes.jpg', 'key': 'i', 'origWidth': 409, 'origHeight': 410, 'width': 409, 'height': 410, 'widthPercent': 0.45, 'rescaleHeight': False, 'trialN': 73, 'loaded': True, 'loadedTime': 4935.299999952316, 'positionName': 'RIGHT', 'positionCoords': [710.32, 179], 'bid': 6.15}]",123683.09999990463,1669848975400,cantaloupe,roastedpotatoes,2.68,6.15,3.47,roastedpotatoes,1143.6000001430511,1144,1144.0,True,i,125347.79999995232,1664.7000000476837,1669848977064,1664,HRV,HRV_0318,2022-11-30 22:59:32
74,"[{'imgObject': {}, 'id': 'fruitsalad', 'src': '/static/foodstim60/fruitsalad.jpg', 'key': 'u', 'origWidth': 410, 'origHeight': 410, 'width': 410, 'height': 410, 'widthPercent': 0.45, 'rescaleHeight': False, 'trialN': 74, 'loaded': True, 'loadedTime': 4758.700000047684, 'positionName': 'LEFT', 'positionCoords': [245.68, 179], 'bid': 7.5}, {'imgObject': {}, 'id': 'raspberries', 'src': '/static/foodstim60/raspberries.jpg', 'key': 'i', 'origWidth': 411, 'origHeight': 411, 'width': 411, 'height': 411, 'widthPercent': 0.45, 'rescaleHeight': False, 'trialN': 74, 'loaded': True, 'loadedTime': 5027.099999904633, 'positionName': 'RIGHT', 'positionCoords': [710.32, 178.5], 'bid': 8.3}]",125347.90000009537,1669848977064,fruitsalad,raspberries,7.5,8.3,0.8000000000000007,raspberries,852.5,854,853.0999999046326,True,i,126706.40000009537,1358.5,1669848978423,1359,HRV,HRV_0318,2022-11-30 22:59:32
75,"[{'imgObject': {}, 'id': 'baked potato', 'src': '/static/foodstim60/baked potato.jpg', 'key': 'u', 'origWidth': 409, 'origHeight': 410, 'width': 409, 'height': 410, 'widthPercent': 0.45, 'rescaleHeight': False, 'trialN': 75, 'loaded': True, 'loadedTime': 4668.200000047684, 'positionName': 'LEFT', 'positionCoords': [246.68, 179], 'bid': 8.03}, {'imgObject': {}, 'id': 'Grapes', 'src': '/static/foodstim60/Grapes.jpg', 'key': 'i', 'origWidth': 411, 'origHeight': 411, 'width': 411, 'height': 411, 'widthPercent': 0.45, 'rescaleHeight': False, 'trialN': 75, 'loaded': True, 'loadedTime': 5041.099999904633, 'positionName': 'RIGHT', 'positionCoords': [710.32, 178.5], 'bid': 8.22}]",126706.59999990463,1669848978423,baked potato,Grapes,8.03,8.22,0.19000000000000128,Grapes,804,805,804.7000000476837,True,i,128018.40000009537,1311.8000001907349,1669848979735,1312,HRV,HRV_0318,2022-11-30 22:59:32
76,"[{'imgObject': {}, 'id': 'popsicles', 'src': '/static/foodstim60/popsicles.jpg', 'key': 'u', 'origWidth': 410, 'origHeight': 410, 'width': 410, 'height': 410, 'widthPercent': 0.45, 'rescaleHeight': False, 'trialN': 76, 'loaded': True, 'loadedTime': 5179.900000095367, 'positionName': 'LEFT', 'positionCoords': [245.68, 179], 'bid': 7.43}, {'imgObject': {}, 'id': 'Grapes', 'src': '/static/foodstim60/Grapes.jpg', 'key': 'i', 'origWidth': 411, 'origHeight': 411, 'width': 411, 'height': 411, 'widthPercent': 0.45, 'rescaleHeight': False, 'trialN': 76, 'loaded': True, 'loadedTime': 5042, 'positionName': 'RIGHT', 'positionCoords': [710.32, 178.5], 'bid': 8.22}]",128018.70000004768,1669848979735,popsicles,Grapes,7.43,8.22,0.7900000000000009,Grapes,994.2000000476837,995,994.7999999523163,True,i,129526.40000009537,1507.7000000476837,1669848981243,1508,HRV,HRV_0318,2022-11-30 22:59:32
77,"[{'imgObject': {}, 'id': 'banana', 'src': '/static/foodstim60/banana.jpg', 'key': 'u', 'origWidth': 410, 'origHeight': 410, 'width': 410, 'height': 410, 'widthPercent': 0.45, 'rescaleHeight': False, 'trialN': 77, 'loaded': True, 'loadedTime': 4707.900000095367, 'positionName': 'LEFT', 'positionCoords': [245.68, 179], 'bid': 7.5}, {'imgObject': {}, 'id': 'raisin bran w milk', 'src': '/static/foodstim60/raisin bran w milk.jpg', 'key': 'i', 'origWidth': 411, 'origHeight': 411, 'width': 411, 'height': 411, 'widthPercent': 0.45, 'rescaleHeight': False, 'trialN': 77, 'loaded': True, 'loadedTime': 4990.200000047684, 'positionName': 'RIGHT', 'positionCoords': [710.32, 178.5], 'bid': 4.13}]",129526.70000004768,1669848981243,banana,raisin bran w milk,7.5,4.13,-3.37,banana,1327.2000000476837,1328,1327.5999999046326,True,u,131370.40000009537,1843.7000000476837,1669848983087,1844,HRV,HRV_0318,2022-11-30 22:59:32
78,"[{'imgObject': {}, 'id': 'chicken nuggets2', 'src': '/static/foodstim60/chicken nuggets2.jpg', 'key': 'u', 'origWidth': 410, 'origHeight': 409, 'width': 410, 'height': 409, 'widthPercent': 0.45, 'rescaleHeight': False, 'trialN': 78, 'loaded': True, 'loadedTime': 5081.299999952316, 'positionName': 'LEFT', 'positionCoords': [245.68, 179.5], 'bid': 8.14}, {'imgObject': {}, 'id': 'pear', 'src': '/static/foodstim60/pear.jpg', 'key': 'i', 'origWidth': 411, 'origHeight': 410, 'width': 411, 'height': 410, 'widthPercent': 0.45, 'rescaleHeight': False, 'trialN': 78, 'loaded': True, 'loadedTime': 4918.099999904633, 'positionName': 'RIGHT', 'positionCoords': [710.32, 179], 'bid': 7.54}]",131371.0,1669848983087,chicken nuggets2,pear,8.14,7.54,-0.6000000000000005,chicken nuggets2,1243.5,1245,1244.0,True,u,133131.40000009537,1760.4000000953674,1669848984848,1761,HRV,HRV_0318,2022-11-30 22:59:32
79,"[{'imgObject': {}, 'id': 'mango', 'src': '/static/foodstim60/mango.jpg', 'key': 'u', 'origWidth': 411, 'origHeight': 411, 'width': 411, 'height': 411, 'widthPercent': 0.45, 'rescaleHeight': False, 'trialN': 79, 'loaded': True, 'loadedTime': 4985.599999904633, 'positionName': 'LEFT', 'positionCoords': [244.68, 178.5], 'bid': 8.33}, {'imgObject': {}, 'id': 'blackbeanswithrice', 'src': '/static/foodstim60/blackbeanswithrice.jpg', 'key': 'i', 'origWidth': 410, 'origHeight': 410, 'width': 410, 'height': 410, 'widthPercent': 0.45, 'rescaleHeight': False, 'trialN': 79, 'loaded': True, 'loadedTime': 5120.299999952316, 'positionName': 'RIGHT', 'positionCoords': [710.32, 179], 'bid': 8.73}]",133131.59999990463,1669848984848,mango,blackbeanswithrice,8.33,8.73,0.40000000000000036,blackbeanswithrice,838.7000000476837,839,839.3000001907349,True,i,134489.79999995232,1358.2000000476837,1669848986206,1358,HRV,HRV_0318,2022-11-30 22:59:32
80,"[{'imgObject': {}, 'id': 'veggieswithdip', 'src': '/static/foodstim60/veggieswithdip.jpg', 'key': 'u', 'origWidth': 409, 'origHeight': 409, 'width': 409, 'height': 409, 'widthPercent': 0.45, 'rescaleHeight': False, 'trialN': 80, 'loaded': True, 'loadedTime': 4806, 'positionName': 'LEFT', 'positionCoords': [246.68, 179.5], 'bid': 3.69}, {'imgObject': {}, 'id': 'shreddedwheatwithmilk', 'src': '/static/foodstim60/shreddedwheatwithmilk.jpg', 'key': 'i', 'origWidth': 410, 'origHeight': 410, 'width': 410, 'height': 410, 'widthPercent': 0.45, 'rescaleHeight': False, 'trialN': 80, 'loaded': True, 'loadedTime': 5100.400000095367, 'positionName': 'RIGHT', 'positionCoords': [710.32, 179], 'bid': 2.11}]",134490.09999990463,1669848986207,veggieswithdip,shreddedwheatwithmilk,3.69,2.11,-1.58,veggieswithdip,1227,1227,1227.5,True,u,136222.20000004768,1732.1000001430511,1669848987939,1732,HRV,HRV_0318,2022-11-30 22:59:32
81,"[{'imgObject': {}, 'id': 'bagel and cc', 'src': '/static/foodstim60/bagel and cc.jpg', 'key': 'u', 'origWidth': 410, 'origHeight': 410, 'width': 410, 'height': 410, 'widthPercent': 0.45, 'rescaleHeight': False, 'trialN': 81, 'loaded': True, 'loadedTime': 4778.099999904633, 'positionName': 'LEFT', 'positionCoords': [245.68, 179], 'bid': 9.2}, {'imgObject': {}, 'id': 'mac & cheese', 'src': '/static/foodstim60/mac & cheese.jpg', 'key': 'i', 'origWidth': 410, 'origHeight': 410, 'width': 410, 'height': 410, 'widthPercent': 0.45, 'rescaleHeight': False, 'trialN': 81, 'loaded': True, 'loadedTime': 5103.5, 'positionName': 'RIGHT', 'positionCoords': [710.32, 179], 'bid': 9.3}]",136222.5,1669848987939,bagel and cc,mac & cheese,9.2,9.3,0.10000000000000142,mac & cheese,850.9000000953674,851,851.2999999523163,True,i,137592.40000009537,1369.9000000953674,1669848989309,1370,HRV,HRV_0318,2022-11-30 22:59:32
82,"[{'imgObject': {}, 'id': 'granola w milk', 'src': '/static/foodstim60/granola w milk.jpg', 'key': 'u', 'origWidth': 410, 'origHeight': 410, 'width': 410, 'height': 410, 'widthPercent': 0.45, 'rescaleHeight': False, 'trialN': 82, 'loaded': True, 'loadedTime': 4858.099999904633, 'positionName': 'LEFT', 'positionCoords': [245.68, 179], 'bid': 3.44}, {'imgObject': {}, 'id': 'kiwi', 'src': '/static/foodstim60/kiwi.jpg', 'key': 'i', 'origWidth': 410, 'origHeight': 410, 'width': 410, 'height': 410, 'widthPercent': 0.45, 'rescaleHeight': False, 'trialN': 82, 'loaded': True, 'loadedTime': 4823.400000095367, 'positionName': 'RIGHT', 'positionCoords': [710.32, 179], 'bid': 1.83}]",137592.70000004768,1669848989309,granola w milk,kiwi,3.44,1.83,-1.6099999999999999,granola w milk,1198.2000000476837,1199,1198.7000000476837,True,u,139308.09999990463,1715.3999998569489,1669848991025,1716,HRV,HRV_0318,2022-11-30 22:59:32
83,"[{'imgObject': {}, 'id': 'edamame', 'src': '/static/foodstim60/edamame.jpg', 'key': 'u', 'origWidth': 409, 'origHeight': 410, 'width': 409, 'height': 410, 'widthPercent': 0.45, 'rescaleHeight': False, 'trialN': 83, 'loaded': True, 'loadedTime': 4805.799999952316, 'positionName': 'LEFT', 'positionCoords': [246.68, 179], 'bid': 0.6900000000000001}, {'imgObject': {}, 'id': 'seaweed', 'src': '/static/foodstim60/seaweed.jpg', 'key': 'i', 'origWidth': 410, 'origHeight': 410, 'width': 410, 'height': 410, 'widthPercent': 0.45, 'rescaleHeight': False, 'trialN': 83, 'loaded': True, 'loadedTime': 5165.799999952316, 'positionName': 'RIGHT', 'positionCoords': [710.32, 179], 'bid': 0.79}]",139308.29999995232,1669848991025,edamame,seaweed,0.6900000000000001,0.79,0.09999999999999998,edamame,1159.7999999523163,1160,1160.4000000953674,True,u,140978.40000009537,1670.1000001430511,1669848992695,1670,HRV,HRV_0318,2022-11-30 22:59:32
84,"[{'imgObject': {}, 'id': 'burrito', 'src': '/static/foodstim60/burrito.jpg', 'key': 'u', 'origWidth': 410, 'origHeight': 410, 'width': 410, 'height': 410, 'widthPercent': 0.45, 'rescaleHeight': False, 'trialN': 84, 'loaded': True, 'loadedTime': 5105.599999904633, 'positionName': 'LEFT', 'positionCoords': [245.68, 179], 'bid': 7.0600000000000005}, {'imgObject': {}, 'id': 'ice cream sundae 002', 'src': '/static/foodstim60/ice cream sundae 002.jpg', 'key': 'i', 'origWidth': 409, 'origHeight': 409, 'width': 409, 'height': 409, 'widthPercent': 0.45, 'rescaleHeight': False, 'trialN': 84, 'loaded': True, 'loadedTime': 4889.099999904633, 'positionName': 'RIGHT', 'positionCoords': [710.32, 179.5], 'bid': 9.09}]",140978.59999990463,1669848992695,burrito,ice cream sundae 002,7.0600000000000005,9.09,2.0299999999999994,ice cream sundae 002,990,991,990.5,True,i,142473.70000004768,1495.1000001430511,1669848994190,1495,HRV,HRV_0318,2022-11-30 22:59:32
85,"[{'imgObject': {}, 'id': 'yogurt no spoon', 'src': '/static/foodstim60/yogurt no spoon.jpg', 'key': 'u', 'origWidth': 411, 'origHeight': 410, 'width': 411, 'height': 410, 'widthPercent': 0.45, 'rescaleHeight': False, 'trialN': 85, 'loaded': True, 'loadedTime': 5125, 'positionName': 'LEFT', 'positionCoords': [244.68, 179], 'bid': 8.89}, {'imgObject': {}, 'id': 'mashed potato', 'src': '/static/foodstim60/mashed potato.jpg', 'key': 'i', 'origWidth': 409, 'origHeight': 409, 'width': 409, 'height': 409, 'widthPercent': 0.45, 'rescaleHeight': False, 'trialN': 85, 'loaded': True, 'loadedTime': 5091.200000047684, 'positionName': 'RIGHT', 'positionCoords': [710.32, 179.5], 'bid': 8.6}]",142474.0,1669848994191,yogurt no spoon,mashed potato,8.89,8.6,-0.2900000000000009,yogurt no spoon,1057.0999999046326,1057,1057.4000000953674,True,u,144046.70000004768,1572.7000000476837,1669848995763,1572,HRV,HRV_0318,2022-11-30 22:59:32
86,"[{'imgObject': {}, 'id': 'hotdog w must', 'src': '/static/foodstim60/hotdog w must.jpg', 'key': 'u', 'origWidth': 409, 'origHeight': 409, 'width': 409, 'height': 409, 'widthPercent': 0.45, 'rescaleHeight': False, 'trialN': 86, 'loaded': True, 'loadedTime': 5043.599999904633, 'positionName': 'LEFT', 'positionCoords': [246.68, 179.5], 'bid': 8.98}, {'imgObject': {}, 'id': 'strawberries', 'src': '/static/foodstim60/strawberries.jpg', 'key': 'i', 'origWidth': 410, 'origHeight': 410, 'width': 410, 'height': 410, 'widthPercent': 0.45, 'rescaleHeight': False, 'trialN': 86, 'loaded': True, 'loadedTime': 5023.900000095367, 'positionName': 'RIGHT', 'positionCoords': [710.32, 179], 'bid': 9.09}]",144047.09999990463,1669848995764,hotdog w must,strawberries,8.98,9.09,0.10999999999999943,strawberries,1173.6000001430511,1174,1174.1000001430511,True,i,145731.09999990463,1684.0,1669848997448,1684,HRV,HRV_0318,2022-11-30 22:59:32
87,"[{'imgObject': {}, 'id': 'mashed potato', 'src': '/static/foodstim60/mashed potato.jpg', 'key': 'u', 'origWidth': 409, 'origHeight': 409, 'width': 409, 'height': 409, 'widthPercent': 0.45, 'rescaleHeight': False, 'trialN': 87, 'loaded': True, 'loadedTime': 5087, 'positionName': 'LEFT', 'positionCoords': [246.68, 179.5], 'bid': 8.6}, {'imgObject': {}, 'id': 'strawberries', 'src': '/static/foodstim60/strawberries.jpg', 'key': 'i', 'origWidth': 410, 'origHeight': 410, 'width': 410, 'height': 410, 'widthPercent': 0.45, 'rescaleHeight': False, 'trialN': 87, 'loaded': True, 'loadedTime': 5019.5, 'positionName': 'RIGHT', 'positionCoords': [710.32, 179], 'bid': 9.09}]",145731.20000004768,1669848997448,mashed potato,strawberries,8.6,9.09,0.4900000000000002,strawberries,1515.8999998569489,1516,1516.5,True,i,147750.59999990463,2019.3999998569489,1669848999467,2019,HRV,HRV_0318,2022-11-30 22:59:32
88,"[{'imgObject': {}, 'id': 'turkey sandwich', 'src': '/static/foodstim60/turkey sandwich.jpg', 'key': 'u', 'origWidth': 409, 'origHeight': 409, 'width': 409, 'height': 409, 'widthPercent': 0.45, 'rescaleHeight': False, 'trialN': 88, 'loaded': True, 'loadedTime': 4855.599999904633, 'positionName': 'LEFT', 'positionCoords': [246.68, 179.5], 'bid': 8.950000000000001}, {'imgObject': {}, 'id': 'bagel and cc', 'src': '/static/foodstim60/bagel and cc.jpg', 'key': 'i', 'origWidth': 410, 'origHeight': 410, 'width': 410, 'height': 410, 'widthPercent': 0.45, 'rescaleHeight': False, 'trialN': 88, 'loaded': True, 'loadedTime': 4778.700000047684, 'positionName': 'RIGHT', 'positionCoords': [710.32, 179], 'bid': 9.2}]",147750.90000009537,1669848999467,turkey sandwich,bagel and cc,8.950000000000001,9.2,0.24999999999999822,turkey sandwich,1024.5999999046326,1026,1025.0999999046326,True,u,149286.90000009537,1536.0,1669849001003,1536,HRV,HRV_0318,2022-11-30 22:59:32
89,"[{'imgObject': {}, 'id': 'cherry tomato', 'src': '/static/foodstim60/cherry tomato.jpg', 'key': 'u', 'origWidth': 410, 'origHeight': 410, 'width': 410, 'height': 410, 'widthPercent': 0.45, 'rescaleHeight': False, 'trialN': 89, 'loaded': True, 'loadedTime': 4959, 'positionName': 'LEFT', 'positionCoords': [245.68, 179], 'bid': 6.44}, {'imgObject': {}, 'id': 'cheerios', 'src': '/static/foodstim60/cheerios.jpg', 'key': 'i', 'origWidth': 409, 'origHeight': 410, 'width': 409, 'height': 410, 'widthPercent': 0.45, 'rescaleHeight': False, 'trialN': 89, 'loaded': True, 'loadedTime': 4873, 'positionName': 'RIGHT', 'positionCoords': [710.32, 179], 'bid': 3.43}]",149287.40000009537,1669849001004,cherry tomato,cheerios,6.44,3.43,-3.0100000000000002,cherry tomato,1256.2999999523163,1257,1257.0,True,u,151057.90000009537,1770.5,1669849002774,1770,HRV,HRV_0318,2022-11-30 22:59:32
90,"[{'imgObject': {}, 'id': 'grilled chicken strips', 'src': '/static/foodstim60/grilled chicken strips.jpg', 'key': 'u', 'origWidth': 410, 'origHeight': 411, 'width': 410, 'height': 411, 'widthPercent': 0.45, 'rescaleHeight': False, 'trialN': 90, 'loaded': True, 'loadedTime': 5122.5, 'positionName': 'LEFT', 'positionCoords': [245.68, 178.5], 'bid': 9.4}, {'imgObject': {}, 'id': 'steak', 'src': '/static/foodstim60/steak.jpg', 'key': 'i', 'origWidth': 410, 'origHeight': 410, 'width': 410, 'height': 410, 'widthPercent': 0.45, 'rescaleHeight': False, 'trialN': 90, 'loaded': True, 'loadedTime': 4987.299999952316, 'positionName': 'RIGHT', 'positionCoords': [710.32, 179], 'bid': 9.77}]",176049.40000009537,1669849027766,grilled chicken strips,steak,9.4,9.77,0.3699999999999992,grilled chicken strips,3086.2999999523163,3087,3086.899999856949,True,u,179648.59999990463,3599.199999809265,1669849031365,3599,HRV,HRV_0318,2022-11-30 22:59:32
91,"[{'imgObject': {}, 'id': 'banana', 'src': '/static/foodstim60/banana.jpg', 'key': 'u', 'origWidth': 410, 'origHeight': 410, 'width': 410, 'height': 410, 'widthPercent': 0.45, 'rescaleHeight': False, 'trialN': 91, 'loaded': True, 'loadedTime': 4710.200000047684, 'positionName': 'LEFT', 'positionCoords': [245.68, 179], 'bid': 7.5}, {'imgObject': {}, 'id': 'popsicles', 'src': '/static/foodstim60/popsicles.jpg', 'key': 'i', 'origWidth': 410, 'origHeight': 410, 'width': 410, 'height': 410, 'widthPercent': 0.45, 'rescaleHeight': False, 'trialN': 91, 'loaded': True, 'loadedTime': 5178.400000095367, 'positionName': 'RIGHT', 'positionCoords': [710.32, 179], 'bid': 7.43}]",179648.79999995232,1669849031365,banana,popsicles,7.5,7.43,-0.07000000000000028,banana,920.9000000953674,922,921.5,True,u,181084.70000004768,1435.9000000953674,1669849032801,1436,HRV,HRV_0318,2022-11-30 22:59:32
92,"[{'imgObject': {}, 'id': 'olives', 'src': '/static/foodstim60/olives.jpg', 'key': 'u', 'origWidth': 410, 'origHeight': 410, 'width': 410, 'height': 410, 'widthPercent': 0.45, 'rescaleHeight': False, 'trialN': 92, 'loaded': True, 'loadedTime': 5169.5, 'positionName': 'LEFT', 'positionCoords': [245.68, 179], 'bid': 0.76}, {'imgObject': {}, 'id': 'blueberries', 'src': '/static/foodstim60/blueberries.jpg', 'key': 'i', 'origWidth': 411, 'origHeight': 411, 'width': 411, 'height': 411, 'widthPercent': 0.45, 'rescaleHeight': False, 'trialN': 92, 'loaded': True, 'loadedTime': 5011.400000095367, 'positionName': 'RIGHT', 'positionCoords': [710.32, 178.5], 'bid': 7.72}]",181085.09999990463,1669849032802,olives,blueberries,0.76,7.72,6.96,blueberries,901.2000000476837,901,901.7000000476837,True,i,182501.5,1416.4000000953674,1669849034218,1416,HRV,HRV_0318,2022-11-30 22:59:32
93,"[{'imgObject': {}, 'id': 'hashbrowns', 'src': '/static/foodstim60/hashbrowns.jpg', 'key': 'u', 'origWidth': 411, 'origHeight': 410, 'width': 411, 'height': 410, 'widthPercent': 0.45, 'rescaleHeight': False, 'trialN': 93, 'loaded': True, 'loadedTime': 5076.900000095367, 'positionName': 'LEFT', 'positionCoords': [244.68, 179], 'bid': 3.75}, {'imgObject': {}, 'id': 'olives', 'src': '/static/foodstim60/olives.jpg', 'key': 'i', 'origWidth': 410, 'origHeight': 410, 'width': 410, 'height': 410, 'widthPercent': 0.45, 'rescaleHeight': False, 'trialN': 93, 'loaded': True, 'loadedTime': 5167.599999904633, 'positionName': 'RIGHT', 'positionCoords': [710.32, 179], 'bid': 0.76}]",182501.79999995232,1669849034218,hashbrowns,olives,3.75,0.76,-2.99,hashbrowns,891.7000000476837,892,892.2000000476837,True,u,183904.29999995232,1402.5,1669849035621,1403,HRV,HRV_0318,2022-11-30 22:59:32
94,"[{'imgObject': {}, 'id': 'apple slices', 'src': '/static/foodstim60/apple slices.jpg', 'key': 'u', 'origWidth': 409, 'origHeight': 410, 'width': 409, 'height': 410, 'widthPercent': 0.45, 'rescaleHeight': False, 'trialN': 94, 'loaded': True, 'loadedTime': 5007.5, 'positionName': 'LEFT', 'positionCoords': [246.68, 179], 'bid': 7.15}, {'imgObject': {}, 'id': 'burger', 'src': '/static/foodstim60/burger.jpg', 'key': 'i', 'origWidth': 409, 'origHeight': 409, 'width': 409, 'height': 409, 'widthPercent': 0.45, 'rescaleHeight': False, 'trialN': 94, 'loaded': True, 'loadedTime': 5163.700000047684, 'positionName': 'RIGHT', 'positionCoords': [710.32, 179.5], 'bid': 9.11}]",183904.59999990463,1669849035621,apple slices,burger,7.15,9.11,1.959999999999999,burger,977.4000000953674,978,978.0,True,i,185399.70000004768,1495.1000001430511,1669849037116,1495,HRV,HRV_0318,2022-11-30 22:59:32
95,"[{'imgObject': {}, 'id': 'mac & cheese', 'src': '/static/foodstim60/mac & cheese.jpg', 'key': 'u', 'origWidth': 410, 'origHeight': 410, 'width': 410, 'height': 410, 'widthPercent': 0.45, 'rescaleHeight': False, 'trialN': 95, 'loaded': True, 'loadedTime': 5103, 'positionName': 'LEFT', 'positionCoords': [245.68, 179], 'bid': 9.3}, {'imgObject': {}, 'id': 'turkeysandwich', 'src': '/static/foodstim60/turkeysandwich.jpg', 'key': 'i', 'origWidth': 409, 'origHeight': 409, 'width': 409, 'height': 409, 'widthPercent': 0.45, 'rescaleHeight': False, 'trialN': 95, 'loaded': True, 'loadedTime': 4954.700000047684, 'positionName': 'RIGHT', 'positionCoords': [710.32, 179.5], 'bid': 8.96}]",185400.20000004768,1669849037117,mac & cheese,turkeysandwich,9.3,8.96,-0.33999999999999986,mac & cheese,1134.3999998569489,1135,1135.0,True,u,187039.09999990463,1638.8999998569489,1669849038755,1638,HRV,HRV_0318,2022-11-30 22:59:32
96,"[{'imgObject': {}, 'id': 'sushi w_condiments', 'src': '/static/foodstim60/sushi w_condiments.jpg', 'key': 'u', 'origWidth': 410, 'origHeight': 410, 'width': 410, 'height': 410, 'widthPercent': 0.45, 'rescaleHeight': False, 'trialN': 96, 'loaded': True, 'loadedTime': 5085.299999952316, 'positionName': 'LEFT', 'positionCoords': [245.68, 179], 'bid': 7.88}, {'imgObject': {}, 'id': 'burrito', 'src': '/static/foodstim60/burrito.jpg', 'key': 'i', 'origWidth': 410, 'origHeight': 410, 'width': 410, 'height': 410, 'widthPercent': 0.45, 'rescaleHeight': False, 'trialN': 96, 'loaded': True, 'loadedTime': 5105.099999904633, 'positionName': 'RIGHT', 'positionCoords': [710.32, 179], 'bid': 7.0600000000000005}]",187039.09999990463,1669849038756,sushi w_condiments,burrito,7.88,7.0600000000000005,-0.8199999999999994,sushi w_condiments,1125.8000001907349,1126,1126.4000000953674,True,u,188685.40000009537,1646.3000001907349,1669849040402,1646,HRV,HRV_0318,2022-11-30 22:59:32
97,"[{'imgObject': {}, 'id': 'granola w milk', 'src': '/static/foodstim60/granola w milk.jpg', 'key': 'u', 'origWidth': 410, 'origHeight': 410, 'width': 410, 'height': 410, 'widthPercent': 0.45, 'rescaleHeight': False, 'trialN': 97, 'loaded': True, 'loadedTime': 4870.400000095367, 'positionName': 'LEFT', 'positionCoords': [245.68, 179], 'bid': 3.44}, {'imgObject': {}, 'id': 'corn cob', 'src': '/static/foodstim60/corn cob.jpg', 'key': 'i', 'origWidth': 411, 'origHeight': 411, 'width': 411, 'height': 411, 'widthPercent': 0.45, 'rescaleHeight': False, 'trialN': 97, 'loaded': True, 'loadedTime': 5140.599999904633, 'positionName': 'RIGHT', 'positionCoords': [710.32, 178.5], 'bid': 8.48}]",188685.70000004768,1669849040402,granola w milk,corn cob,3.44,8.48,5.040000000000001,corn cob,1051.5,1052,1051.8999998569489,True,i,190259.79999995232,1574.0999999046326,1669849041976,1574,HRV,HRV_0318,2022-11-30 22:59:32
98,"[{'imgObject': {}, 'id': 'rigatoni and sauce', 'src': '/static/foodstim60/rigatoni and sauce.jpg', 'key': 'u', 'origWidth': 410, 'origHeight': 411, 'width': 410, 'height': 411, 'widthPercent': 0.45, 'rescaleHeight': False, 'trialN': 98, 'loaded': True, 'loadedTime': 4904.299999952316, 'positionName': 'LEFT', 'positionCoords': [245.68, 178.5], 'bid': 7.59}, {'imgObject': {}, 'id': 'steak', 'src': '/static/foodstim60/steak.jpg', 'key': 'i', 'origWidth': 410, 'origHeight': 410, 'width': 410, 'height': 410, 'widthPercent': 0.45, 'rescaleHeight': False, 'trialN': 98, 'loaded': True, 'loadedTime': 4987.700000047684, 'positionName': 'RIGHT', 'positionCoords': [710.32, 179], 'bid': 9.77}]",190259.90000009537,1669849041976,rigatoni and sauce,steak,7.59,9.77,2.1799999999999997,steak,728.2999999523163,729,728.8999998569489,True,i,191495.79999995232,1235.8999998569489,1669849043212,1236,HRV,HRV_0318,2022-11-30 22:59:32
99,"[{'imgObject': {}, 'id': 'lox', 'src': '/static/foodstim60/lox.jpg', 'key': 'u', 'origWidth': 410, 'origHeight': 411, 'width': 410, 'height': 411, 'widthPercent': 0.45, 'rescaleHeight': False, 'trialN': 99, 'loaded': True, 'loadedTime': 5173.900000095367, 'positionName': 'LEFT', 'positionCoords': [245.68, 178.5], 'bid': 7.66}, {'imgObject': {}, 'id': 'tacos', 'src': '/static/foodstim60/tacos.jpg', 'key': 'i', 'origWidth': 411, 'origHeight': 411, 'width': 411, 'height': 411, 'widthPercent': 0.45, 'rescaleHeight': False, 'trialN': 99, 'loaded': True, 'loadedTime': 5144.299999952316, 'positionName': 'RIGHT', 'positionCoords': [710.32, 178.5], 'bid': 8.83}]",191496.09999990463,1669849043213,lox,tacos,7.66,8.83,1.17,tacos,809.3000001907349,809,809.8000001907349,True,i,192818.59999990463,1322.5,1669849044535,1322,HRV,HRV_0318,2022-11-30 22:59:32
100,"[{'imgObject': {}, 'id': 'rigatoni and sauce', 'src': '/static/foodstim60/rigatoni and sauce.jpg', 'key': 'u', 'origWidth': 410, 'origHeight': 411, 'width': 410, 'height': 411, 'widthPercent': 0.45, 'rescaleHeight': False, 'trialN': 100, 'loaded': True, 'loadedTime': 4904.700000047684, 'positionName': 'LEFT', 'positionCoords': [245.68, 178.5], 'bid': 7.59}, {'imgObject': {}, 'id': 'blueberries', 'src': '/static/foodstim60/blueberries.jpg', 'key': 'i', 'origWidth': 411, 'origHeight': 411, 'width': 411, 'height': 411, 'widthPercent': 0.45, 'rescaleHeight': False, 'trialN': 100, 'loaded': True, 'loadedTime': 5010.099999904633, 'positionName': 'RIGHT', 'positionCoords': [710.32, 178.5], 'bid': 7.72}]",192818.90000009537,1669849044535,rigatoni and sauce,blueberries,7.59,7.72,0.1299999999999999,rigatoni and sauce,948,949,949.0,True,u,194282.79999995232,1463.8999998569489,1669849045999,1464,HRV,HRV_0318,2022-11-30 22:59:32
101,"[{'imgObject': {}, 'id': 'cantaloupe', 'src': '/static/foodstim60/cantaloupe.jpg', 'key': 'u', 'origWidth': 409, 'origHeight': 409, 'width': 409, 'height': 409, 'widthPercent': 0.45, 'rescaleHeight': False, 'trialN': 101, 'loaded': True, 'loadedTime': 5167.400000095367, 'positionName': 'LEFT', 'positionCoords': [246.68, 179.5], 'bid': 2.68}, {'imgObject': {}, 'id': 'froot loops w milk', 'src': '/static/foodstim60/froot loops w milk.jpg', 'key': 'i', 'origWidth': 410, 'origHeight': 410, 'width': 410, 'height': 410, 'widthPercent': 0.45, 'rescaleHeight': False, 'trialN': 101, 'loaded': True, 'loadedTime': 4971.200000047684, 'positionName': 'RIGHT', 'positionCoords': [710.32, 179], 'bid': 2.96}]",194283.09999990463,1669849046000,cantaloupe,froot loops w milk,2.68,2.96,0.2799999999999998,froot loops w milk,971.6000001430511,972,972.1000001430511,True,i,195763.20000004768,1480.1000001430511,1669849047480,1480,HRV,HRV_0318,2022-11-30 22:59:32
102,"[{'imgObject': {}, 'id': 'cherries', 'src': '/static/foodstim60/cherries.jpg', 'key': 'u', 'origWidth': 410, 'origHeight': 411, 'width': 410, 'height': 411, 'widthPercent': 0.45, 'rescaleHeight': False, 'trialN': 102, 'loaded': True, 'loadedTime': 5098.200000047684, 'positionName': 'LEFT', 'positionCoords': [245.68, 178.5], 'bid': 5.64}, {'imgObject': {}, 'id': 'luckycharms', 'src': '/static/foodstim60/luckycharms.jpg', 'key': 'i', 'origWidth': 410, 'origHeight': 409, 'width': 410, 'height': 409, 'widthPercent': 0.45, 'rescaleHeight': False, 'trialN': 102, 'loaded': True, 'loadedTime': 4963.099999904633, 'positionName': 'RIGHT', 'positionCoords': [710.32, 179.5], 'bid': 2.43}]",195763.40000009537,1669849047480,cherries,luckycharms,5.64,2.43,-3.2099999999999995,cherries,934.8999998569489,935,935.3999998569489,True,u,197205.40000009537,1442.0,1669849048922,1442,HRV,HRV_0318,2022-11-30 22:59:32
103,"[{'imgObject': {}, 'id': 'blackbeanswithrice', 'src': '/static/foodstim60/blackbeanswithrice.jpg', 'key': 'u', 'origWidth': 410, 'origHeight': 410, 'width': 410, 'height': 410, 'widthPercent': 0.45, 'rescaleHeight': False, 'trialN': 103, 'loaded': True, 'loadedTime': 5120.5, 'positionName': 'LEFT', 'positionCoords': [245.68, 179], 'bid': 8.73}, {'imgObject': {}, 'id': 'eggs', 'src': '/static/foodstim60/eggs.jpg', 'key': 'i', 'origWidth': 409, 'origHeight': 409, 'width': 409, 'height': 409, 'widthPercent': 0.45, 'rescaleHeight': False, 'trialN': 103, 'loaded': True, 'loadedTime': 5147.200000047684, 'positionName': 'RIGHT', 'positionCoords': [710.32, 179.5], 'bid': 8.67}]",197205.70000004768,1669849048922,blackbeanswithrice,eggs,8.73,8.67,-0.0600000000000005,eggs,1021.8999998569489,1023,1022.3999998569489,True,i,198742.5,1536.7999999523163,1669849050459,1537,HRV,HRV_0318,2022-11-30 22:59:32
104,"[{'imgObject': {}, 'id': 'avocado', 'src': '/static/foodstim60/avocado.jpg', 'key': 'u', 'origWidth': 409, 'origHeight': 409, 'width': 409, 'height': 409, 'widthPercent': 0.45, 'rescaleHeight': False, 'trialN': 104, 'loaded': True, 'loadedTime': 5175.700000047684, 'positionName': 'LEFT', 'positionCoords': [246.68, 179.5], 'bid': 8.48}, {'imgObject': {}, 'id': 'mac & cheese', 'src': '/static/foodstim60/mac & cheese.jpg', 'key': 'i', 'origWidth': 410, 'origHeight': 410, 'width': 410, 'height': 410, 'widthPercent': 0.45, 'rescaleHeight': False, 'trialN': 104, 'loaded': True, 'loadedTime': 5100.900000095367, 'positionName': 'RIGHT', 'positionCoords': [710.32, 179], 'bid': 9.3}]",198742.79999995232,1669849050459,avocado,mac & cheese,8.48,9.3,0.8200000000000003,mac & cheese,816.1000001430511,817,816.7000000476837,True,i,200068.0,1325.2000000476837,1669849051784,1325,HRV,HRV_0318,2022-11-30 22:59:32
105,"[{'imgObject': {}, 'id': 'hotdog w must', 'src': '/static/foodstim60/hotdog w must.jpg', 'key': 'u', 'origWidth': 409, 'origHeight': 409, 'width': 409, 'height': 409, 'widthPercent': 0.45, 'rescaleHeight': False, 'trialN': 105, 'loaded': True, 'loadedTime': 5043.400000095367, 'positionName': 'LEFT', 'positionCoords': [246.68, 179.5], 'bid': 8.98}, {'imgObject': {}, 'id': 'fried eggs', 'src': '/static/foodstim60/fried eggs.jpg', 'key': 'i', 'origWidth': 410, 'origHeight': 410, 'width': 410, 'height': 410, 'widthPercent': 0.45, 'rescaleHeight': False, 'trialN': 105, 'loaded': True, 'loadedTime': 5063.400000095367, 'positionName': 'RIGHT', 'positionCoords': [710.32, 179], 'bid': 7.03}]",200068.29999995232,1669849051785,hotdog w must,fried eggs,8.98,7.03,-1.9500000000000002,hotdog w must,1117.2000000476837,1117,1117.7000000476837,True,u,201706.40000009537,1638.1000001430511,1669849053423,1638,HRV,HRV_0318,2022-11-30 22:59:32
106,"[{'imgObject': {}, 'id': 'turkeysandwich', 'src': '/static/foodstim60/turkeysandwich.jpg', 'key': 'u', 'origWidth': 409, 'origHeight': 409, 'width': 409, 'height': 409, 'widthPercent': 0.45, 'rescaleHeight': False, 'trialN': 106, 'loaded': True, 'loadedTime': 4955, 'positionName': 'LEFT', 'positionCoords': [246.68, 179.5], 'bid': 8.96}, {'imgObject': {}, 'id': 'strawberries', 'src': '/static/foodstim60/strawberries.jpg', 'key': 'i', 'origWidth': 410, 'origHeight': 410, 'width': 410, 'height': 410, 'widthPercent': 0.45, 'rescaleHeight': False, 'trialN': 106, 'loaded': True, 'loadedTime': 5025.099999904633, 'positionName': 'RIGHT', 'positionCoords': [710.32, 179], 'bid': 9.09}]",201706.70000004768,1669849053423,turkeysandwich,strawberries,8.96,9.09,0.129999999999999,turkeysandwich,863.5999999046326,864,864.2000000476837,True,u,203082.59999990463,1375.8999998569489,1669849054799,1376,HRV,HRV_0318,2022-11-30 22:59:32
107,"[{'imgObject': {}, 'id': 'steak', 'src': '/static/foodstim60/steak.jpg', 'key': 'u', 'origWidth': 410, 'origHeight': 410, 'width': 410, 'height': 410, 'widthPercent': 0.45, 'rescaleHeight': False, 'trialN': 107, 'loaded': True, 'loadedTime': 4987.700000047684, 'positionName': 'LEFT', 'positionCoords': [245.68, 179], 'bid': 9.77}, {'imgObject': {}, 'id': 'turkeysandwich', 'src': '/static/foodstim60/turkeysandwich.jpg', 'key': 'i', 'origWidth': 409, 'origHeight': 409, 'width': 409, 'height': 409, 'widthPercent': 0.45, 'rescaleHeight': False, 'trialN': 107, 'loaded': True, 'loadedTime': 4954.5, 'positionName': 'RIGHT', 'positionCoords': [710.32, 179.5], 'bid': 8.96}]",203083.09999990463,1669849054799,steak,turkeysandwich,9.77,8.96,-0.8099999999999987,steak,851.7000000476837,853,852.3000001907349,True,u,204440.20000004768,1357.1000001430511,1669849056157,1358,HRV,HRV_0318,2022-11-30 22:59:32
108,"[{'imgObject': {}, 'id': 'seaweed', 'src': '/static/foodstim60/seaweed.jpg', 'key': 'u', 'origWidth': 410, 'origHeight': 410, 'width': 410, 'height': 410, 'widthPercent': 0.45, 'rescaleHeight': False, 'trialN': 108, 'loaded': True, 'loadedTime': 5165.799999952316, 'positionName': 'LEFT', 'positionCoords': [245.68, 179], 'bid': 0.79}, {'imgObject': {}, 'id': 'sweetpotato', 'src': '/static/foodstim60/sweetpotato.jpg', 'key': 'i', 'origWidth': 410, 'origHeight': 410, 'width': 410, 'height': 410, 'widthPercent': 0.45, 'rescaleHeight': False, 'trialN': 108, 'loaded': True, 'loadedTime': 5013.900000095367, 'positionName': 'RIGHT', 'positionCoords': [710.32, 179], 'bid': 6.37}]",204440.59999990463,1669849056157,seaweed,sweetpotato,0.79,6.37,5.58,sweetpotato,783.6000001430511,784,784.1000001430511,True,i,205735.90000009537,1295.3000001907349,1669849057452,1295,HRV,HRV_0318,2022-11-30 22:59:32
