trialN,stimuli,trialStartTime,trialStartTime_UNIX,stimulus1,stimulus2,stimulus1Bid,stimulus2Bid,delta,selected,rt,rt_UNIX,rt_perfnow,receivedResponse,rsp,trialEndTime,trialDuration,trialEndTime_UNIX,trialDuration_UNIX,exp,subjectId,date
0,"[{'imgObject': {}, 'id': 'grilled chicken strips', 'src': '/static/foodstim60/grilled chicken strips.jpg', 'key': 'u', 'origWidth': 410, 'origHeight': 411, 'width': 410, 'height': 411, 'widthPercent': 0.45, 'rescaleHeight': False, 'trialN': 0, 'loaded': True, 'loadedTime': 3068.5, 'positionName': 'LEFT', 'positionCoords': [281.2, 199.5], 'bid': 5.5200000000000005}, {'imgObject': {}, 'id': 'mashed potato', 'src': '/static/foodstim60/mashed potato.jpg', 'key': 'i', 'origWidth': 409, 'origHeight': 409, 'width': 409, 'height': 409, 'widthPercent': 0.45, 'rescaleHeight': False, 'trialN': 0, 'loaded': True, 'loadedTime': 3189.399999976158, 'positionName': 'RIGHT', 'positionCoords': [748.8, 200.5], 'bid': 4.86}]",3640.6999999284744,1669836702903,grilled chicken strips,mashed potato,5.5200000000000005,4.86,-0.6600000000000001,grilled chicken strips,2165.0,2168,2167.399999976158,True,u,6311.299999952316,2670.600000023842,1669836705574,2671,HRV,HRV_0228,2022-11-30 19:37:43
1,"[{'imgObject': {}, 'id': 'edamame', 'src': '/static/foodstim60/edamame.jpg', 'key': 'u', 'origWidth': 409, 'origHeight': 410, 'width': 409, 'height': 410, 'widthPercent': 0.45, 'rescaleHeight': False, 'trialN': 1, 'loaded': True, 'loadedTime': 3178.2999999523163, 'positionName': 'LEFT', 'positionCoords': [282.2, 200], 'bid': 0.44}, {'imgObject': {}, 'id': 'blackbeanswithrice', 'src': '/static/foodstim60/blackbeanswithrice.jpg', 'key': 'i', 'origWidth': 410, 'origHeight': 410, 'width': 410, 'height': 410, 'widthPercent': 0.45, 'rescaleHeight': False, 'trialN': 1, 'loaded': True, 'loadedTime': 3197.899999976158, 'positionName': 'RIGHT', 'positionCoords': [748.8, 200], 'bid': 0.66}]",6311.5,1669836705574,edamame,blackbeanswithrice,0.44,0.66,0.22000000000000003,edamame,1405.1999999284744,1406,1405.5999999046326,True,u,8223.199999928474,1911.6999999284744,1669836707486,1912,HRV,HRV_0228,2022-11-30 19:37:43
2,"[{'imgObject': {}, 'id': 'bagel and cc', 'src': '/static/foodstim60/bagel and cc.jpg', 'key': 'u', 'origWidth': 410, 'origHeight': 410, 'width': 410, 'height': 410, 'widthPercent': 0.45, 'rescaleHeight': False, 'trialN': 2, 'loaded': True, 'loadedTime': 3199.1999999284744, 'positionName': 'LEFT', 'positionCoords': [281.2, 200], 'bid': 5.18}, {'imgObject': {}, 'id': 'chickenfingers', 'src': '/static/foodstim60/chickenfingers.jpg', 'key': 'i', 'origWidth': 410, 'origHeight': 410, 'width': 410, 'height': 410, 'widthPercent': 0.45, 'rescaleHeight': False, 'trialN': 2, 'loaded': True, 'loadedTime': 3200.2999999523163, 'positionName': 'RIGHT', 'positionCoords': [748.8, 200], 'bid': 7.87}]",8223.5,1669836707486,bagel and cc,chickenfingers,5.18,7.87,2.6900000000000004,chickenfingers,1131.7999999523163,1132,1132.0999999046326,True,i,9862.199999928474,1638.6999999284744,1669836709125,1639,HRV,HRV_0228,2022-11-30 19:37:43
3,"[{'imgObject': {}, 'id': 'cocktailshrimp', 'src': '/static/foodstim60/cocktailshrimp.jpg', 'key': 'u', 'origWidth': 410, 'origHeight': 410, 'width': 410, 'height': 410, 'widthPercent': 0.45, 'rescaleHeight': False, 'trialN': 3, 'loaded': True, 'loadedTime': 3205, 'positionName': 'LEFT', 'positionCoords': [281.2, 200], 'bid': 6.15}, {'imgObject': {}, 'id': 'avocado', 'src': '/static/foodstim60/avocado.jpg', 'key': 'i', 'origWidth': 409, 'origHeight': 409, 'width': 409, 'height': 409, 'widthPercent': 0.45, 'rescaleHeight': False, 'trialN': 3, 'loaded': True, 'loadedTime': 3206.1999999284744, 'positionName': 'RIGHT', 'positionCoords': [748.8, 200.5], 'bid': 1.4}]",9862.5,1669836709125,cocktailshrimp,avocado,6.15,1.4,-4.75,cocktailshrimp,920.5,921,920.8999999761581,True,u,11286.399999976158,1423.8999999761581,1669836710549,1424,HRV,HRV_0228,2022-11-30 19:37:43
4,"[{'imgObject': {}, 'id': 'chickenfingers', 'src': '/static/foodstim60/chickenfingers.jpg', 'key': 'u', 'origWidth': 410, 'origHeight': 410, 'width': 410, 'height': 410, 'widthPercent': 0.45, 'rescaleHeight': False, 'trialN': 4, 'loaded': True, 'loadedTime': 3201.6999999284744, 'positionName': 'LEFT', 'positionCoords': [281.2, 200], 'bid': 7.87}, {'imgObject': {}, 'id': 'luckycharms', 'src': '/static/foodstim60/luckycharms.jpg', 'key': 'i', 'origWidth': 410, 'origHeight': 409, 'width': 410, 'height': 409, 'widthPercent': 0.45, 'rescaleHeight': False, 'trialN': 4, 'loaded': True, 'loadedTime': 3209.0999999046326, 'positionName': 'RIGHT', 'positionCoords': [748.8, 200.5], 'bid': 6.9}]",11286.5,1669836710549,chickenfingers,luckycharms,7.87,6.9,-0.9699999999999998,chickenfingers,991.7999999523163,992,992.0,True,u,12783.299999952316,1496.7999999523163,1669836712046,1497,HRV,HRV_0228,2022-11-30 19:37:43
5,"[{'imgObject': {}, 'id': 'baked potato', 'src': '/static/foodstim60/baked potato.jpg', 'key': 'u', 'origWidth': 409, 'origHeight': 410, 'width': 409, 'height': 410, 'widthPercent': 0.45, 'rescaleHeight': False, 'trialN': 5, 'loaded': True, 'loadedTime': 3212.5, 'positionName': 'LEFT', 'positionCoords': [282.2, 200], 'bid': 5.13}, {'imgObject': {}, 'id': 'burger', 'src': '/static/foodstim60/burger.jpg', 'key': 'i', 'origWidth': 409, 'origHeight': 409, 'width': 409, 'height': 409, 'widthPercent': 0.45, 'rescaleHeight': False, 'trialN': 5, 'loaded': True, 'loadedTime': 3214.2999999523163, 'positionName': 'RIGHT', 'positionCoords': [748.8, 200.5], 'bid': 5.08}]",12783.399999976158,1669836712046,baked potato,burger,5.13,5.08,-0.04999999999999982,burger,1326.0,1326,1326.5,True,i,14615.199999928474,1831.7999999523163,1669836713878,1832,HRV,HRV_0228,2022-11-30 19:37:43
6,"[{'imgObject': {}, 'id': 'turkey sandwich', 'src': '/static/foodstim60/turkey sandwich.jpg', 'key': 'u', 'origWidth': 409, 'origHeight': 409, 'width': 409, 'height': 409, 'widthPercent': 0.45, 'rescaleHeight': False, 'trialN': 6, 'loaded': True, 'loadedTime': 3218.6999999284744, 'positionName': 'LEFT', 'positionCoords': [282.2, 200.5], 'bid': 5.69}, {'imgObject': {}, 'id': 'cherries', 'src': '/static/foodstim60/cherries.jpg', 'key': 'i', 'origWidth': 410, 'origHeight': 411, 'width': 410, 'height': 411, 'widthPercent': 0.45, 'rescaleHeight': False, 'trialN': 6, 'loaded': True, 'loadedTime': 3222.1999999284744, 'positionName': 'RIGHT', 'positionCoords': [748.8, 199.5], 'bid': 5.7}]",14615.699999928474,1669836713878,turkey sandwich,cherries,5.69,5.7,0.009999999999999787,turkey sandwich,1377.5,1378,1378.0,True,u,16495.299999952316,1879.6000000238419,1669836715758,1880,HRV,HRV_0228,2022-11-30 19:37:43
7,"[{'imgObject': {}, 'id': 'kiwi', 'src': '/static/foodstim60/kiwi.jpg', 'key': 'u', 'origWidth': 410, 'origHeight': 410, 'width': 410, 'height': 410, 'widthPercent': 0.45, 'rescaleHeight': False, 'trialN': 7, 'loaded': True, 'loadedTime': 3224.5, 'positionName': 'LEFT', 'positionCoords': [281.2, 200], 'bid': 1.94}, {'imgObject': {}, 'id': 'rigatoni and sauce', 'src': '/static/foodstim60/rigatoni and sauce.jpg', 'key': 'i', 'origWidth': 410, 'origHeight': 411, 'width': 410, 'height': 411, 'widthPercent': 0.45, 'rescaleHeight': False, 'trialN': 7, 'loaded': True, 'loadedTime': 3227, 'positionName': 'RIGHT', 'positionCoords': [748.8, 199.5], 'bid': 4.5200000000000005}]",16495.399999976158,1669836715758,kiwi,rigatoni and sauce,1.94,4.5200000000000005,2.5800000000000005,rigatoni and sauce,922.1000000238419,922,922.6000000238419,True,i,17918.299999952316,1422.8999999761581,1669836717181,1423,HRV,HRV_0228,2022-11-30 19:37:43
8,"[{'imgObject': {}, 'id': 'mac & cheese', 'src': '/static/foodstim60/mac & cheese.jpg', 'key': 'u', 'origWidth': 410, 'origHeight': 410, 'width': 410, 'height': 410, 'widthPercent': 0.45, 'rescaleHeight': False, 'trialN': 8, 'loaded': True, 'loadedTime': 3230, 'positionName': 'LEFT', 'positionCoords': [281.2, 200], 'bid': 6}, {'imgObject': {}, 'id': 'tacos', 'src': '/static/foodstim60/tacos.jpg', 'key': 'i', 'origWidth': 411, 'origHeight': 411, 'width': 411, 'height': 411, 'widthPercent': 0.45, 'rescaleHeight': False, 'trialN': 8, 'loaded': True, 'loadedTime': 3232.399999976158, 'positionName': 'RIGHT', 'positionCoords': [748.8, 199.5], 'bid': 6.38}]",17918.399999976158,1669836717181,mac & cheese,tacos,6.0,6.38,0.3799999999999999,tacos,1174.7999999523163,1175,1175.1000000238419,True,i,19598.299999952316,1679.8999999761581,1669836718861,1680,HRV,HRV_0228,2022-11-30 19:37:43
9,"[{'imgObject': {}, 'id': 'mac & cheese', 'src': '/static/foodstim60/mac & cheese.jpg', 'key': 'u', 'origWidth': 410, 'origHeight': 410, 'width': 410, 'height': 410, 'widthPercent': 0.45, 'rescaleHeight': False, 'trialN': 9, 'loaded': True, 'loadedTime': 3229.6999999284744, 'positionName': 'LEFT', 'positionCoords': [281.2, 200], 'bid': 6}, {'imgObject': {}, 'id': 'banana', 'src': '/static/foodstim60/banana.jpg', 'key': 'i', 'origWidth': 410, 'origHeight': 410, 'width': 410, 'height': 410, 'widthPercent': 0.45, 'rescaleHeight': False, 'trialN': 9, 'loaded': True, 'loadedTime': 3233.899999976158, 'positionName': 'RIGHT', 'positionCoords': [748.8, 200], 'bid': 7.16}]",19598.5,1669836718861,mac & cheese,banana,6.0,7.16,1.1600000000000001,mac & cheese,1094.2999999523163,1095,1095.1999999284744,True,u,21199.299999952316,1600.7999999523163,1669836720462,1601,HRV,HRV_0228,2022-11-30 19:37:43
10,"[{'imgObject': {}, 'id': 'bagel and cc', 'src': '/static/foodstim60/bagel and cc.jpg', 'key': 'u', 'origWidth': 410, 'origHeight': 410, 'width': 410, 'height': 410, 'widthPercent': 0.45, 'rescaleHeight': False, 'trialN': 10, 'loaded': True, 'loadedTime': 3198.0999999046326, 'positionName': 'LEFT', 'positionCoords': [281.2, 200], 'bid': 5.18}, {'imgObject': {}, 'id': 'pear', 'src': '/static/foodstim60/pear.jpg', 'key': 'i', 'origWidth': 411, 'origHeight': 410, 'width': 411, 'height': 410, 'widthPercent': 0.45, 'rescaleHeight': False, 'trialN': 10, 'loaded': True, 'loadedTime': 3237.1999999284744, 'positionName': 'RIGHT', 'positionCoords': [748.8, 200], 'bid': 2.87}]",21199.599999904633,1669836720462,bagel and cc,pear,5.18,2.87,-2.3099999999999996,bagel and cc,1155.1000000238419,1155,1155.3000000715256,True,u,22863.799999952316,1664.2000000476837,1669836722126,1664,HRV,HRV_0228,2022-11-30 19:37:43
11,"[{'imgObject': {}, 'id': 'blackbeanswithrice', 'src': '/static/foodstim60/blackbeanswithrice.jpg', 'key': 'u', 'origWidth': 410, 'origHeight': 410, 'width': 410, 'height': 410, 'widthPercent': 0.45, 'rescaleHeight': False, 'trialN': 11, 'loaded': True, 'loadedTime': 3195.399999976158, 'positionName': 'LEFT', 'positionCoords': [281.2, 200], 'bid': 0.66}, {'imgObject': {}, 'id': 'popsicles', 'src': '/static/foodstim60/popsicles.jpg', 'key': 'i', 'origWidth': 410, 'origHeight': 410, 'width': 410, 'height': 410, 'widthPercent': 0.45, 'rescaleHeight': False, 'trialN': 11, 'loaded': True, 'loadedTime': 3240.1999999284744, 'positionName': 'RIGHT', 'positionCoords': [748.8, 200], 'bid': 0.8}]",22864.299999952316,1669836722126,blackbeanswithrice,popsicles,0.66,0.8,0.14,popsicles,811.1000000238419,812,811.6000000238419,True,i,24183.199999928474,1318.8999999761581,1669836723445,1319,HRV,HRV_0228,2022-11-30 19:37:43
12,"[{'imgObject': {}, 'id': 'rigatoni', 'src': '/static/foodstim60/rigatoni.jpg', 'key': 'u', 'origWidth': 411, 'origHeight': 411, 'width': 411, 'height': 411, 'widthPercent': 0.45, 'rescaleHeight': False, 'trialN': 12, 'loaded': True, 'loadedTime': 3241.5999999046326, 'positionName': 'LEFT', 'positionCoords': [280.2, 199.5], 'bid': 0.66}, {'imgObject': {}, 'id': 'kiwi', 'src': '/static/foodstim60/kiwi.jpg', 'key': 'i', 'origWidth': 410, 'origHeight': 410, 'width': 410, 'height': 410, 'widthPercent': 0.45, 'rescaleHeight': False, 'trialN': 12, 'loaded': True, 'loadedTime': 3224.6999999284744, 'positionName': 'RIGHT', 'positionCoords': [748.8, 200], 'bid': 1.94}]",24183.299999952316,1669836723445,rigatoni,kiwi,0.66,1.94,1.2799999999999998,kiwi,1755.8999999761581,1757,1756.2000000476837,True,i,26447.299999952316,2264.0,1669836725709,2264,HRV,HRV_0228,2022-11-30 19:37:43
13,"[{'imgObject': {}, 'id': 'blueberries', 'src': '/static/foodstim60/blueberries.jpg', 'key': 'u', 'origWidth': 411, 'origHeight': 411, 'width': 411, 'height': 411, 'widthPercent': 0.45, 'rescaleHeight': False, 'trialN': 13, 'loaded': True, 'loadedTime': 3243, 'positionName': 'LEFT', 'positionCoords': [280.2, 199.5], 'bid': 4.61}, {'imgObject': {}, 'id': 'lox', 'src': '/static/foodstim60/lox.jpg', 'key': 'i', 'origWidth': 410, 'origHeight': 411, 'width': 410, 'height': 411, 'widthPercent': 0.45, 'rescaleHeight': False, 'trialN': 13, 'loaded': True, 'loadedTime': 3244.5999999046326, 'positionName': 'RIGHT', 'positionCoords': [748.8, 199.5], 'bid': 3.66}]",26447.5,1669836725710,blueberries,lox,4.61,3.66,-0.9500000000000002,blueberries,1645.6999999284744,1646,1646.0,True,u,28599.5,2152.0,1669836727862,2152,HRV,HRV_0228,2022-11-30 19:37:43
14,"[{'imgObject': {}, 'id': 'strawberries', 'src': '/static/foodstim60/strawberries.jpg', 'key': 'u', 'origWidth': 410, 'origHeight': 410, 'width': 410, 'height': 410, 'widthPercent': 0.45, 'rescaleHeight': False, 'trialN': 14, 'loaded': True, 'loadedTime': 3283.5999999046326, 'positionName': 'LEFT', 'positionCoords': [281.2, 200], 'bid': 5.88}, {'imgObject': {}, 'id': 'cheerios', 'src': '/static/foodstim60/cheerios.jpg', 'key': 'i', 'origWidth': 409, 'origHeight': 410, 'width': 409, 'height': 410, 'widthPercent': 0.45, 'rescaleHeight': False, 'trialN': 14, 'loaded': True, 'loadedTime': 3352.6999999284744, 'positionName': 'RIGHT', 'positionCoords': [748.8, 200], 'bid': 5.45}]",28600.0,1669836727862,strawberries,cheerios,5.88,5.45,-0.4299999999999997,strawberries,1677.1999999284744,1678,1677.3999999761581,True,u,30783.0,2183.0,1669836730045,2183,HRV,HRV_0228,2022-11-30 19:37:43
15,"[{'imgObject': {}, 'id': 'mashed potato', 'src': '/static/foodstim60/mashed potato.jpg', 'key': 'u', 'origWidth': 409, 'origHeight': 409, 'width': 409, 'height': 409, 'widthPercent': 0.45, 'rescaleHeight': False, 'trialN': 15, 'loaded': True, 'loadedTime': 3189.5, 'positionName': 'LEFT', 'positionCoords': [282.2, 200.5], 'bid': 4.86}, {'imgObject': {}, 'id': 'sushi w_condiments', 'src': '/static/foodstim60/sushi w_condiments.jpg', 'key': 'i', 'origWidth': 410, 'origHeight': 410, 'width': 410, 'height': 410, 'widthPercent': 0.45, 'rescaleHeight': False, 'trialN': 15, 'loaded': True, 'loadedTime': 3367.2999999523163, 'positionName': 'RIGHT', 'positionCoords': [748.8, 200], 'bid': 1.25}]",30783.099999904633,1669836730045,mashed potato,sushi w_condiments,4.86,1.25,-3.6100000000000003,mashed potato,1400.7000000476837,1401,1401.0,True,u,32687.299999952316,1904.2000000476837,1669836731949,1904,HRV,HRV_0228,2022-11-30 19:37:43
16,"[{'imgObject': {}, 'id': 'burrito', 'src': '/static/foodstim60/burrito.jpg', 'key': 'u', 'origWidth': 410, 'origHeight': 410, 'width': 410, 'height': 410, 'widthPercent': 0.45, 'rescaleHeight': False, 'trialN': 16, 'loaded': True, 'loadedTime': 3369.899999976158, 'positionName': 'LEFT', 'positionCoords': [281.2, 200], 'bid': 5.41}, {'imgObject': {}, 'id': 'cheerios', 'src': '/static/foodstim60/cheerios.jpg', 'key': 'i', 'origWidth': 409, 'origHeight': 410, 'width': 409, 'height': 410, 'widthPercent': 0.45, 'rescaleHeight': False, 'trialN': 16, 'loaded': True, 'loadedTime': 3351.6999999284744, 'positionName': 'RIGHT', 'positionCoords': [748.8, 200], 'bid': 5.45}]",32687.399999976158,1669836731949,burrito,cheerios,5.41,5.45,0.040000000000000036,burrito,1041.1999999284744,1042,1041.6999999284744,True,u,34230.299999952316,1542.8999999761581,1669836733492,1543,HRV,HRV_0228,2022-11-30 19:37:43
17,"[{'imgObject': {}, 'id': 'eggs', 'src': '/static/foodstim60/eggs.jpg', 'key': 'u', 'origWidth': 409, 'origHeight': 409, 'width': 409, 'height': 409, 'widthPercent': 0.45, 'rescaleHeight': False, 'trialN': 17, 'loaded': True, 'loadedTime': 3375.399999976158, 'positionName': 'LEFT', 'positionCoords': [282.2, 200.5], 'bid': 5.36}, {'imgObject': {}, 'id': 'shreddedwheatwithmilk', 'src': '/static/foodstim60/shreddedwheatwithmilk.jpg', 'key': 'i', 'origWidth': 410, 'origHeight': 410, 'width': 410, 'height': 410, 'widthPercent': 0.45, 'rescaleHeight': False, 'trialN': 17, 'loaded': True, 'loadedTime': 3377.2999999523163, 'positionName': 'RIGHT', 'positionCoords': [748.8, 200], 'bid': 5.2700000000000005}]",34230.59999990463,1669836733493,eggs,shreddedwheatwithmilk,5.36,5.2700000000000005,-0.08999999999999986,shreddedwheatwithmilk,1646.7000000476837,1647,1647.1000000238419,True,i,36382.299999952316,2151.7000000476837,1669836735644,2151,HRV,HRV_0228,2022-11-30 19:37:43
18,"[{'imgObject': {}, 'id': 'raisin bran w milk', 'src': '/static/foodstim60/raisin bran w milk.jpg', 'key': 'u', 'origWidth': 411, 'origHeight': 411, 'width': 411, 'height': 411, 'widthPercent': 0.45, 'rescaleHeight': False, 'trialN': 18, 'loaded': True, 'loadedTime': 3435, 'positionName': 'LEFT', 'positionCoords': [280.2, 199.5], 'bid': 7.43}, {'imgObject': {}, 'id': 'cocktailshrimp', 'src': '/static/foodstim60/cocktailshrimp.jpg', 'key': 'i', 'origWidth': 410, 'origHeight': 410, 'width': 410, 'height': 410, 'widthPercent': 0.45, 'rescaleHeight': False, 'trialN': 18, 'loaded': True, 'loadedTime': 3202.7999999523163, 'positionName': 'RIGHT', 'positionCoords': [748.8, 200], 'bid': 6.15}]",36382.5,1669836735645,raisin bran w milk,cocktailshrimp,7.43,6.15,-1.2799999999999994,raisin bran w milk,1702.6999999284744,1703,1703.0,True,u,38590.199999928474,2207.6999999284744,1669836737852,2207,HRV,HRV_0228,2022-11-30 19:37:43
19,"[{'imgObject': {}, 'id': 'bagel plain', 'src': '/static/foodstim60/bagel plain.jpg', 'key': 'u', 'origWidth': 410, 'origHeight': 410, 'width': 410, 'height': 410, 'widthPercent': 0.45, 'rescaleHeight': False, 'trialN': 19, 'loaded': True, 'loadedTime': 3437.0999999046326, 'positionName': 'LEFT', 'positionCoords': [281.2, 200], 'bid': 2.33}, {'imgObject': {}, 'id': 'kiwi', 'src': '/static/foodstim60/kiwi.jpg', 'key': 'i', 'origWidth': 410, 'origHeight': 410, 'width': 410, 'height': 410, 'widthPercent': 0.45, 'rescaleHeight': False, 'trialN': 19, 'loaded': True, 'loadedTime': 3222.5999999046326, 'positionName': 'RIGHT', 'positionCoords': [748.8, 200], 'bid': 1.94}]",38590.39999997616,1669836737852,bagel plain,kiwi,2.33,1.94,-0.3900000000000001,bagel plain,1151.0,1152,1151.2999999523163,True,u,40247.299999952316,1656.8999999761581,1669836739509,1657,HRV,HRV_0228,2022-11-30 19:37:43
20,"[{'imgObject': {}, 'id': 'steak', 'src': '/static/foodstim60/steak.jpg', 'key': 'u', 'origWidth': 410, 'origHeight': 410, 'width': 410, 'height': 410, 'widthPercent': 0.45, 'rescaleHeight': False, 'trialN': 20, 'loaded': True, 'loadedTime': 3501, 'positionName': 'LEFT', 'positionCoords': [281.2, 200], 'bid': 9.11}, {'imgObject': {}, 'id': 'mango', 'src': '/static/foodstim60/mango.jpg', 'key': 'i', 'origWidth': 411, 'origHeight': 411, 'width': 411, 'height': 411, 'widthPercent': 0.45, 'rescaleHeight': False, 'trialN': 20, 'loaded': True, 'loadedTime': 3516.399999976158, 'positionName': 'RIGHT', 'positionCoords': [748.8, 199.5], 'bid': 6.58}]",40247.5,1669836739510,steak,mango,9.11,6.58,-2.5299999999999994,steak,856.8999999761581,857,857.0999999046326,True,u,41615.59999990463,1368.0999999046326,1669836740878,1368,HRV,HRV_0228,2022-11-30 19:37:43
21,"[{'imgObject': {}, 'id': 'avocado', 'src': '/static/foodstim60/avocado.jpg', 'key': 'u', 'origWidth': 409, 'origHeight': 409, 'width': 409, 'height': 409, 'widthPercent': 0.45, 'rescaleHeight': False, 'trialN': 21, 'loaded': True, 'loadedTime': 3205.0999999046326, 'positionName': 'LEFT', 'positionCoords': [282.2, 200.5], 'bid': 1.4}, {'imgObject': {}, 'id': 'sushi w_condiments', 'src': '/static/foodstim60/sushi w_condiments.jpg', 'key': 'i', 'origWidth': 410, 'origHeight': 410, 'width': 410, 'height': 410, 'widthPercent': 0.45, 'rescaleHeight': False, 'trialN': 21, 'loaded': True, 'loadedTime': 3367.0999999046326, 'positionName': 'RIGHT', 'positionCoords': [748.8, 200], 'bid': 1.25}]",41616.199999928474,1669836740878,avocado,sushi w_condiments,1.4,1.25,-0.1499999999999999,sushi w_condiments,1037.1000000238419,1038,1037.3999999761581,True,i,43159.299999952316,1543.1000000238419,1669836742421,1543,HRV,HRV_0228,2022-11-30 19:37:43
22,"[{'imgObject': {}, 'id': 'cherry tomato', 'src': '/static/foodstim60/cherry tomato.jpg', 'key': 'u', 'origWidth': 410, 'origHeight': 410, 'width': 410, 'height': 410, 'widthPercent': 0.45, 'rescaleHeight': False, 'trialN': 22, 'loaded': True, 'loadedTime': 3518.6999999284744, 'positionName': 'LEFT', 'positionCoords': [281.2, 200], 'bid': 3.88}, {'imgObject': {}, 'id': 'seaweed', 'src': '/static/foodstim60/seaweed.jpg', 'key': 'i', 'origWidth': 410, 'origHeight': 410, 'width': 410, 'height': 410, 'widthPercent': 0.45, 'rescaleHeight': False, 'trialN': 22, 'loaded': True, 'loadedTime': 3520.2999999523163, 'positionName': 'RIGHT', 'positionCoords': [748.8, 200], 'bid': 1.09}]",43159.39999997616,1669836742421,cherry tomato,seaweed,3.88,1.09,-2.79,cherry tomato,984.2999999523163,985,984.5,True,u,44646.89999997616,1487.5,1669836743909,1488,HRV,HRV_0228,2022-11-30 19:37:43
23,"[{'imgObject': {}, 'id': 'olives', 'src': '/static/foodstim60/olives.jpg', 'key': 'u', 'origWidth': 410, 'origHeight': 410, 'width': 410, 'height': 410, 'widthPercent': 0.45, 'rescaleHeight': False, 'trialN': 23, 'loaded': True, 'loadedTime': 3527.2999999523163, 'positionName': 'LEFT', 'positionCoords': [281.2, 200], 'bid': 4.25}, {'imgObject': {}, 'id': 'yogurt no spoon', 'src': '/static/foodstim60/yogurt no spoon.jpg', 'key': 'i', 'origWidth': 411, 'origHeight': 410, 'width': 411, 'height': 410, 'widthPercent': 0.45, 'rescaleHeight': False, 'trialN': 23, 'loaded': True, 'loadedTime': 3534.899999976158, 'positionName': 'RIGHT', 'positionCoords': [748.8, 200], 'bid': 6.88}]",44647.09999990463,1669836743909,olives,yogurt no spoon,4.25,6.88,2.63,yogurt no spoon,899.2000000476837,900,899.7000000476837,True,i,46055.39999997616,1408.3000000715256,1669836745317,1408,HRV,HRV_0228,2022-11-30 19:37:43
24,"[{'imgObject': {}, 'id': 'chicken nuggets2', 'src': '/static/foodstim60/chicken nuggets2.jpg', 'key': 'u', 'origWidth': 410, 'origHeight': 409, 'width': 410, 'height': 409, 'widthPercent': 0.45, 'rescaleHeight': False, 'trialN': 24, 'loaded': True, 'loadedTime': 3538.5999999046326, 'positionName': 'LEFT', 'positionCoords': [281.2, 200.5], 'bid': 8.23}, {'imgObject': {}, 'id': 'banana', 'src': '/static/foodstim60/banana.jpg', 'key': 'i', 'origWidth': 410, 'origHeight': 410, 'width': 410, 'height': 410, 'widthPercent': 0.45, 'rescaleHeight': False, 'trialN': 24, 'loaded': True, 'loadedTime': 3232.6999999284744, 'positionName': 'RIGHT', 'positionCoords': [748.8, 200], 'bid': 7.16}]",46055.39999997616,1669836745318,chicken nuggets2,banana,8.23,7.16,-1.0700000000000003,chicken nuggets2,577.1999999284744,577,577.5,True,u,47135.299999952316,1079.8999999761581,1669836746397,1079,HRV,HRV_0228,2022-11-30 19:37:43
25,"[{'imgObject': {}, 'id': 'salad w chicken', 'src': '/static/foodstim60/salad w chicken.jpg', 'key': 'u', 'origWidth': 411, 'origHeight': 411, 'width': 411, 'height': 411, 'widthPercent': 0.45, 'rescaleHeight': False, 'trialN': 25, 'loaded': True, 'loadedTime': 3542, 'positionName': 'LEFT', 'positionCoords': [280.2, 199.5], 'bid': 6.62}, {'imgObject': {}, 'id': 'fruitsalad', 'src': '/static/foodstim60/fruitsalad.jpg', 'key': 'i', 'origWidth': 410, 'origHeight': 410, 'width': 410, 'height': 410, 'widthPercent': 0.45, 'rescaleHeight': False, 'trialN': 25, 'loaded': True, 'loadedTime': 3545.0999999046326, 'positionName': 'RIGHT', 'positionCoords': [748.8, 200], 'bid': 6.26}]",47135.39999997616,1669836746397,salad w chicken,fruitsalad,6.62,6.26,-0.3600000000000003,salad w chicken,1516.8999999761581,1518,1517.1000000238419,True,u,49158.199999928474,2022.7999999523163,1669836748420,2023,HRV,HRV_0228,2022-11-30 19:37:43
26,"[{'imgObject': {}, 'id': 'seaweed', 'src': '/static/foodstim60/seaweed.jpg', 'key': 'u', 'origWidth': 410, 'origHeight': 410, 'width': 410, 'height': 410, 'widthPercent': 0.45, 'rescaleHeight': False, 'trialN': 26, 'loaded': True, 'loadedTime': 3522.7999999523163, 'positionName': 'LEFT', 'positionCoords': [281.2, 200], 'bid': 1.09}, {'imgObject': {}, 'id': 'apple slices', 'src': '/static/foodstim60/apple slices.jpg', 'key': 'i', 'origWidth': 409, 'origHeight': 410, 'width': 409, 'height': 410, 'widthPercent': 0.45, 'rescaleHeight': False, 'trialN': 26, 'loaded': True, 'loadedTime': 3584.0999999046326, 'positionName': 'RIGHT', 'positionCoords': [748.8, 200], 'bid': 3.08}]",49158.39999997616,1669836748421,seaweed,apple slices,1.09,3.08,1.99,apple slices,986.0,986,986.5,True,i,50646.299999952316,1487.8999999761581,1669836749908,1487,HRV,HRV_0228,2022-11-30 19:37:43
27,"[{'imgObject': {}, 'id': 'popsicles', 'src': '/static/foodstim60/popsicles.jpg', 'key': 'u', 'origWidth': 410, 'origHeight': 410, 'width': 410, 'height': 410, 'widthPercent': 0.45, 'rescaleHeight': False, 'trialN': 27, 'loaded': True, 'loadedTime': 3239.899999976158, 'positionName': 'LEFT', 'positionCoords': [281.2, 200], 'bid': 0.8}, {'imgObject': {}, 'id': 'rigatoni and sauce', 'src': '/static/foodstim60/rigatoni and sauce.jpg', 'key': 'i', 'origWidth': 410, 'origHeight': 411, 'width': 410, 'height': 411, 'widthPercent': 0.45, 'rescaleHeight': False, 'trialN': 27, 'loaded': True, 'loadedTime': 3227.6999999284744, 'positionName': 'RIGHT', 'positionCoords': [748.8, 199.5], 'bid': 4.5200000000000005}]",50646.59999990463,1669836749909,popsicles,rigatoni and sauce,0.8,4.5200000000000005,3.7200000000000006,rigatoni and sauce,800.7000000476837,801,801.0,True,i,51950.199999928474,1303.6000000238419,1669836751212,1303,HRV,HRV_0228,2022-11-30 19:37:43
28,"[{'imgObject': {}, 'id': 'raspberries', 'src': '/static/foodstim60/raspberries.jpg', 'key': 'u', 'origWidth': 411, 'origHeight': 411, 'width': 411, 'height': 411, 'widthPercent': 0.45, 'rescaleHeight': False, 'trialN': 28, 'loaded': True, 'loadedTime': 3584.5999999046326, 'positionName': 'LEFT', 'positionCoords': [280.2, 199.5], 'bid': 6.3100000000000005}, {'imgObject': {}, 'id': 'yogurt no spoon', 'src': '/static/foodstim60/yogurt no spoon.jpg', 'key': 'i', 'origWidth': 411, 'origHeight': 410, 'width': 411, 'height': 410, 'widthPercent': 0.45, 'rescaleHeight': False, 'trialN': 28, 'loaded': True, 'loadedTime': 3536.1999999284744, 'positionName': 'RIGHT', 'positionCoords': [748.8, 200], 'bid': 6.88}]",51950.39999997616,1669836751212,raspberries,yogurt no spoon,6.3100000000000005,6.88,0.5699999999999994,yogurt no spoon,1048.0,1049,1048.5,True,i,53502.39999997616,1552.0,1669836752764,1552,HRV,HRV_0228,2022-11-30 19:37:43
29,"[{'imgObject': {}, 'id': 'popsicles', 'src': '/static/foodstim60/popsicles.jpg', 'key': 'u', 'origWidth': 410, 'origHeight': 410, 'width': 410, 'height': 410, 'widthPercent': 0.45, 'rescaleHeight': False, 'trialN': 29, 'loaded': True, 'loadedTime': 3238.399999976158, 'positionName': 'LEFT', 'positionCoords': [281.2, 200], 'bid': 0.8}, {'imgObject': {}, 'id': 'cherries', 'src': '/static/foodstim60/cherries.jpg', 'key': 'i', 'origWidth': 410, 'origHeight': 411, 'width': 410, 'height': 411, 'widthPercent': 0.45, 'rescaleHeight': False, 'trialN': 29, 'loaded': True, 'loadedTime': 3221.899999976158, 'positionName': 'RIGHT', 'positionCoords': [748.8, 199.5], 'bid': 5.7}]",53502.5,1669836752765,popsicles,cherries,0.8,5.7,4.9,cherries,1080.5,1081,1081.0,True,i,55086.39999997616,1583.8999999761581,1669836754348,1583,HRV,HRV_0228,2022-11-30 19:37:43
30,"[{'imgObject': {}, 'id': 'veggieswithdip', 'src': '/static/foodstim60/veggieswithdip.jpg', 'key': 'u', 'origWidth': 409, 'origHeight': 409, 'width': 409, 'height': 409, 'widthPercent': 0.45, 'rescaleHeight': False, 'trialN': 30, 'loaded': True, 'loadedTime': 3586.6999999284744, 'positionName': 'LEFT', 'positionCoords': [282.2, 200.5], 'bid': 6.66}, {'imgObject': {}, 'id': 'yogurt no spoon', 'src': '/static/foodstim60/yogurt no spoon.jpg', 'key': 'i', 'origWidth': 411, 'origHeight': 410, 'width': 411, 'height': 410, 'widthPercent': 0.45, 'rescaleHeight': False, 'trialN': 30, 'loaded': True, 'loadedTime': 3535.1999999284744, 'positionName': 'RIGHT', 'positionCoords': [748.8, 200], 'bid': 6.88}]",55086.59999990463,1669836754349,veggieswithdip,yogurt no spoon,6.66,6.88,0.21999999999999975,yogurt no spoon,1504.6000000238419,1504,1504.9000000953674,True,i,57094.299999952316,2007.7000000476837,1669836756356,2007,HRV,HRV_0228,2022-11-30 19:37:43
31,"[{'imgObject': {}, 'id': 'salmon', 'src': '/static/foodstim60/salmon.jpg', 'key': 'u', 'origWidth': 410, 'origHeight': 409, 'width': 410, 'height': 409, 'widthPercent': 0.45, 'rescaleHeight': False, 'trialN': 31, 'loaded': True, 'loadedTime': 3604.0999999046326, 'positionName': 'LEFT', 'positionCoords': [281.2, 200.5], 'bid': 4.54}, {'imgObject': {}, 'id': 'luckycharms', 'src': '/static/foodstim60/luckycharms.jpg', 'key': 'i', 'origWidth': 410, 'origHeight': 409, 'width': 410, 'height': 409, 'widthPercent': 0.45, 'rescaleHeight': False, 'trialN': 31, 'loaded': True, 'loadedTime': 3208.7999999523163, 'positionName': 'RIGHT', 'positionCoords': [748.8, 200.5], 'bid': 6.9}]",57094.39999997616,1669836756357,salmon,luckycharms,4.54,6.9,2.3600000000000003,salmon,901.0,901,901.2999999523163,True,u,58502.0,1407.6000000238419,1669836757764,1407,HRV,HRV_0228,2022-11-30 19:37:43
32,"[{'imgObject': {}, 'id': 'lox', 'src': '/static/foodstim60/lox.jpg', 'key': 'u', 'origWidth': 410, 'origHeight': 411, 'width': 410, 'height': 411, 'widthPercent': 0.45, 'rescaleHeight': False, 'trialN': 32, 'loaded': True, 'loadedTime': 3243.6999999284744, 'positionName': 'LEFT', 'positionCoords': [281.2, 199.5], 'bid': 3.66}, {'imgObject': {}, 'id': 'mango', 'src': '/static/foodstim60/mango.jpg', 'key': 'i', 'origWidth': 411, 'origHeight': 411, 'width': 411, 'height': 411, 'widthPercent': 0.45, 'rescaleHeight': False, 'trialN': 32, 'loaded': True, 'loadedTime': 3515.6999999284744, 'positionName': 'RIGHT', 'positionCoords': [748.8, 199.5], 'bid': 6.58}]",58502.09999990463,1669836757764,lox,mango,3.66,6.58,2.92,mango,1323.2000000476837,1324,1323.6000000238419,True,i,60326.39999997616,1824.3000000715256,1669836759588,1824,HRV,HRV_0228,2022-11-30 19:37:43
33,"[{'imgObject': {}, 'id': 'froot loops w milk', 'src': '/static/foodstim60/froot loops w milk.jpg', 'key': 'u', 'origWidth': 410, 'origHeight': 410, 'width': 410, 'height': 410, 'widthPercent': 0.45, 'rescaleHeight': False, 'trialN': 33, 'loaded': True, 'loadedTime': 3609.899999976158, 'positionName': 'LEFT', 'positionCoords': [281.2, 200], 'bid': 7.63}, {'imgObject': {}, 'id': 'fruitsalad', 'src': '/static/foodstim60/fruitsalad.jpg', 'key': 'i', 'origWidth': 410, 'origHeight': 410, 'width': 410, 'height': 410, 'widthPercent': 0.45, 'rescaleHeight': False, 'trialN': 33, 'loaded': True, 'loadedTime': 3544, 'positionName': 'RIGHT', 'positionCoords': [748.8, 200], 'bid': 6.26}]",60326.59999990463,1669836759589,froot loops w milk,fruitsalad,7.63,6.26,-1.37,fruitsalad,1019.6000000238419,1020,1020.0,True,i,61847.299999952316,1520.7000000476837,1669836761109,1520,HRV,HRV_0228,2022-11-30 19:37:43
34,"[{'imgObject': {}, 'id': 'burger', 'src': '/static/foodstim60/burger.jpg', 'key': 'u', 'origWidth': 409, 'origHeight': 409, 'width': 409, 'height': 409, 'widthPercent': 0.45, 'rescaleHeight': False, 'trialN': 34, 'loaded': True, 'loadedTime': 3215.2999999523163, 'positionName': 'LEFT', 'positionCoords': [282.2, 200.5], 'bid': 5.08}, {'imgObject': {}, 'id': 'hotdog w must', 'src': '/static/foodstim60/hotdog w must.jpg', 'key': 'i', 'origWidth': 409, 'origHeight': 409, 'width': 409, 'height': 409, 'widthPercent': 0.45, 'rescaleHeight': False, 'trialN': 34, 'loaded': True, 'loadedTime': 3610.7999999523163, 'positionName': 'RIGHT', 'positionCoords': [748.8, 200.5], 'bid': 3.91}]",61847.39999997616,1669836761109,burger,hotdog w must,5.08,3.91,-1.17,burger,920.7999999523163,921,921.0,True,u,63270.299999952316,1422.8999999761581,1669836762532,1423,HRV,HRV_0228,2022-11-30 19:37:43
35,"[{'imgObject': {}, 'id': 'strawberries', 'src': '/static/foodstim60/strawberries.jpg', 'key': 'u', 'origWidth': 410, 'origHeight': 410, 'width': 410, 'height': 410, 'widthPercent': 0.45, 'rescaleHeight': False, 'trialN': 35, 'loaded': True, 'loadedTime': 3350.1999999284744, 'positionName': 'LEFT', 'positionCoords': [281.2, 200], 'bid': 5.88}, {'imgObject': {}, 'id': 'seaweed', 'src': '/static/foodstim60/seaweed.jpg', 'key': 'i', 'origWidth': 410, 'origHeight': 410, 'width': 410, 'height': 410, 'widthPercent': 0.45, 'rescaleHeight': False, 'trialN': 35, 'loaded': True, 'loadedTime': 3522.5999999046326, 'positionName': 'RIGHT', 'positionCoords': [748.8, 200], 'bid': 1.09}]",63270.39999997616,1669836762532,strawberries,seaweed,5.88,1.09,-4.79,strawberries,904.6999999284744,906,905.2999999523163,True,u,64678.39999997616,1408.0,1669836763940,1408,HRV,HRV_0228,2022-11-30 19:37:43
36,"[{'imgObject': {}, 'id': 'cheerios', 'src': '/static/foodstim60/cheerios.jpg', 'key': 'u', 'origWidth': 409, 'origHeight': 410, 'width': 409, 'height': 410, 'widthPercent': 0.45, 'rescaleHeight': False, 'trialN': 36, 'loaded': True, 'loadedTime': 3353, 'positionName': 'LEFT', 'positionCoords': [282.2, 200], 'bid': 5.45}, {'imgObject': {}, 'id': 'lox', 'src': '/static/foodstim60/lox.jpg', 'key': 'i', 'origWidth': 410, 'origHeight': 411, 'width': 410, 'height': 411, 'widthPercent': 0.45, 'rescaleHeight': False, 'trialN': 36, 'loaded': True, 'loadedTime': 3280.1999999284744, 'positionName': 'RIGHT', 'positionCoords': [748.8, 199.5], 'bid': 3.66}]",64678.59999990463,1669836763941,cheerios,lox,5.45,3.66,-1.79,cheerios,801.0,801,801.3000000715256,True,u,65982.5,1303.9000000953674,1669836765245,1304,HRV,HRV_0228,2022-11-30 19:37:43
37,"[{'imgObject': {}, 'id': 'turkeysandwich', 'src': '/static/foodstim60/turkeysandwich.jpg', 'key': 'u', 'origWidth': 409, 'origHeight': 409, 'width': 409, 'height': 409, 'widthPercent': 0.45, 'rescaleHeight': False, 'trialN': 37, 'loaded': True, 'loadedTime': 3613.6999999284744, 'positionName': 'LEFT', 'positionCoords': [282.2, 200.5], 'bid': 7.87}, {'imgObject': {}, 'id': 'shreddedwheatwithmilk', 'src': '/static/foodstim60/shreddedwheatwithmilk.jpg', 'key': 'i', 'origWidth': 410, 'origHeight': 410, 'width': 410, 'height': 410, 'widthPercent': 0.45, 'rescaleHeight': False, 'trialN': 37, 'loaded': True, 'loadedTime': 3378.0999999046326, 'positionName': 'RIGHT', 'positionCoords': [748.8, 200], 'bid': 5.2700000000000005}]",65982.69999992847,1669836765245,turkeysandwich,shreddedwheatwithmilk,7.87,5.2700000000000005,-2.5999999999999996,turkeysandwich,747.5,747,747.8000000715256,True,u,67238.39999997616,1255.7000000476837,1669836766500,1255,HRV,HRV_0228,2022-11-30 19:37:43
38,"[{'imgObject': {}, 'id': 'rigatoni and sauce', 'src': '/static/foodstim60/rigatoni and sauce.jpg', 'key': 'u', 'origWidth': 410, 'origHeight': 411, 'width': 410, 'height': 411, 'widthPercent': 0.45, 'rescaleHeight': False, 'trialN': 38, 'loaded': True, 'loadedTime': 3227.899999976158, 'positionName': 'LEFT', 'positionCoords': [281.2, 199.5], 'bid': 4.5200000000000005}, {'imgObject': {}, 'id': 'hotdog w must', 'src': '/static/foodstim60/hotdog w must.jpg', 'key': 'i', 'origWidth': 409, 'origHeight': 409, 'width': 409, 'height': 409, 'widthPercent': 0.45, 'rescaleHeight': False, 'trialN': 38, 'loaded': True, 'loadedTime': 3612.5, 'positionName': 'RIGHT', 'positionCoords': [748.8, 200.5], 'bid': 3.91}]",67238.5,1669836766501,rigatoni and sauce,hotdog w must,4.5200000000000005,3.91,-0.6100000000000003,rigatoni and sauce,979.7999999523163,980,980.0,True,u,68726.19999992847,1487.6999999284744,1669836767988,1487,HRV,HRV_0228,2022-11-30 19:37:43
39,"[{'imgObject': {}, 'id': 'shreddedwheatwithmilk', 'src': '/static/foodstim60/shreddedwheatwithmilk.jpg', 'key': 'u', 'origWidth': 410, 'origHeight': 410, 'width': 410, 'height': 410, 'widthPercent': 0.45, 'rescaleHeight': False, 'trialN': 39, 'loaded': True, 'loadedTime': 3379.1999999284744, 'positionName': 'LEFT', 'positionCoords': [281.2, 200], 'bid': 5.2700000000000005}, {'imgObject': {}, 'id': 'mac & cheese', 'src': '/static/foodstim60/mac & cheese.jpg', 'key': 'i', 'origWidth': 410, 'origHeight': 410, 'width': 410, 'height': 410, 'widthPercent': 0.45, 'rescaleHeight': False, 'trialN': 39, 'loaded': True, 'loadedTime': 3228.0999999046326, 'positionName': 'RIGHT', 'positionCoords': [748.8, 200], 'bid': 6}]",68726.29999995232,1669836767988,shreddedwheatwithmilk,mac & cheese,5.2700000000000005,6.0,0.7299999999999995,shreddedwheatwithmilk,1916.1000000238419,1917,1916.5,True,u,71143.29999995232,2417.0,1669836770405,2417,HRV,HRV_0228,2022-11-30 19:37:43
40,"[{'imgObject': {}, 'id': 'rigatoni', 'src': '/static/foodstim60/rigatoni.jpg', 'key': 'u', 'origWidth': 411, 'origHeight': 411, 'width': 411, 'height': 411, 'widthPercent': 0.45, 'rescaleHeight': False, 'trialN': 40, 'loaded': True, 'loadedTime': 3241.899999976158, 'positionName': 'LEFT', 'positionCoords': [280.2, 199.5], 'bid': 0.66}, {'imgObject': {}, 'id': 'popsicles', 'src': '/static/foodstim60/popsicles.jpg', 'key': 'i', 'origWidth': 410, 'origHeight': 410, 'width': 410, 'height': 410, 'widthPercent': 0.45, 'rescaleHeight': False, 'trialN': 40, 'loaded': True, 'loadedTime': 3240, 'positionName': 'RIGHT', 'positionCoords': [748.8, 200], 'bid': 0.8}]",71143.59999990463,1669836770406,rigatoni,popsicles,0.66,0.8,0.14,rigatoni,640.9000000953674,641,641.4000000953674,True,u,72286.29999995232,1142.7000000476837,1669836771548,1142,HRV,HRV_0228,2022-11-30 19:37:43
41,"[{'imgObject': {}, 'id': 'ice cream sundae 002', 'src': '/static/foodstim60/ice cream sundae 002.jpg', 'key': 'u', 'origWidth': 409, 'origHeight': 409, 'width': 409, 'height': 409, 'widthPercent': 0.45, 'rescaleHeight': False, 'trialN': 41, 'loaded': True, 'loadedTime': 3615.2999999523163, 'positionName': 'LEFT', 'positionCoords': [282.2, 200.5], 'bid': 9.04}, {'imgObject': {}, 'id': 'burrito', 'src': '/static/foodstim60/burrito.jpg', 'key': 'i', 'origWidth': 410, 'origHeight': 410, 'width': 410, 'height': 410, 'widthPercent': 0.45, 'rescaleHeight': False, 'trialN': 41, 'loaded': True, 'loadedTime': 3367.399999976158, 'positionName': 'RIGHT', 'positionCoords': [748.8, 200], 'bid': 5.41}]",72286.39999997616,1669836771548,ice cream sundae 002,burrito,9.04,5.41,-3.629999999999999,ice cream sundae 002,1423.2999999523163,1424,1424.1000000238419,True,u,74214.19999992847,1927.7999999523163,1669836773476,1928,HRV,HRV_0228,2022-11-30 19:37:43
42,"[{'imgObject': {}, 'id': 'lox', 'src': '/static/foodstim60/lox.jpg', 'key': 'u', 'origWidth': 410, 'origHeight': 411, 'width': 410, 'height': 411, 'widthPercent': 0.45, 'rescaleHeight': False, 'trialN': 42, 'loaded': True, 'loadedTime': 3244.5, 'positionName': 'LEFT', 'positionCoords': [281.2, 199.5], 'bid': 3.66}, {'imgObject': {}, 'id': 'cherry tomato', 'src': '/static/foodstim60/cherry tomato.jpg', 'key': 'i', 'origWidth': 410, 'origHeight': 410, 'width': 410, 'height': 410, 'widthPercent': 0.45, 'rescaleHeight': False, 'trialN': 42, 'loaded': True, 'loadedTime': 3520.0999999046326, 'positionName': 'RIGHT', 'positionCoords': [748.8, 200], 'bid': 3.88}]",74214.39999997616,1669836773477,lox,cherry tomato,3.66,3.88,0.21999999999999975,cherry tomato,778.8999999761581,779,779.1999999284744,True,i,75495.5,1281.1000000238419,1669836774757,1280,HRV,HRV_0228,2022-11-30 19:37:43
43,"[{'imgObject': {}, 'id': 'burrito', 'src': '/static/foodstim60/burrito.jpg', 'key': 'u', 'origWidth': 410, 'origHeight': 410, 'width': 410, 'height': 410, 'widthPercent': 0.45, 'rescaleHeight': False, 'trialN': 43, 'loaded': True, 'loadedTime': 3372.1999999284744, 'positionName': 'LEFT', 'positionCoords': [281.2, 200], 'bid': 5.41}, {'imgObject': {}, 'id': 'fried eggs', 'src': '/static/foodstim60/fried eggs.jpg', 'key': 'i', 'origWidth': 410, 'origHeight': 410, 'width': 410, 'height': 410, 'widthPercent': 0.45, 'rescaleHeight': False, 'trialN': 43, 'loaded': True, 'loadedTime': 3620.0999999046326, 'positionName': 'RIGHT', 'positionCoords': [748.8, 200], 'bid': 5.75}]",75495.69999992847,1669836774758,burrito,fried eggs,5.41,5.75,0.33999999999999986,burrito,940.8000000715256,941,941.1000000238419,True,u,76943.19999992847,1447.5,1669836776205,1447,HRV,HRV_0228,2022-11-30 19:37:43
44,"[{'imgObject': {}, 'id': 'chickenfingers', 'src': '/static/foodstim60/chickenfingers.jpg', 'key': 'u', 'origWidth': 410, 'origHeight': 410, 'width': 410, 'height': 410, 'widthPercent': 0.45, 'rescaleHeight': False, 'trialN': 44, 'loaded': True, 'loadedTime': 3202.1999999284744, 'positionName': 'LEFT', 'positionCoords': [281.2, 200], 'bid': 7.87}, {'imgObject': {}, 'id': 'froot loops w milk', 'src': '/static/foodstim60/froot loops w milk.jpg', 'key': 'i', 'origWidth': 410, 'origHeight': 410, 'width': 410, 'height': 410, 'widthPercent': 0.45, 'rescaleHeight': False, 'trialN': 44, 'loaded': True, 'loadedTime': 3609.6999999284744, 'positionName': 'RIGHT', 'positionCoords': [748.8, 200], 'bid': 7.63}]",76943.39999997616,1669836776205,chickenfingers,froot loops w milk,7.87,7.63,-0.2400000000000002,chickenfingers,638.6000000238419,639,638.8999999761581,True,u,78087.39999997616,1144.0,1669836777349,1144,HRV,HRV_0228,2022-11-30 19:37:43
45,"[{'imgObject': {}, 'id': 'omelette', 'src': '/static/foodstim60/omelette.jpg', 'key': 'u', 'origWidth': 410, 'origHeight': 409, 'width': 410, 'height': 409, 'widthPercent': 0.45, 'rescaleHeight': False, 'trialN': 45, 'loaded': True, 'loadedTime': 3622.2999999523163, 'positionName': 'LEFT', 'positionCoords': [281.2, 200.5], 'bid': 6.29}, {'imgObject': {}, 'id': 'chickenfingers', 'src': '/static/foodstim60/chickenfingers.jpg', 'key': 'i', 'origWidth': 410, 'origHeight': 410, 'width': 410, 'height': 410, 'widthPercent': 0.45, 'rescaleHeight': False, 'trialN': 45, 'loaded': True, 'loadedTime': 3202.5, 'positionName': 'RIGHT', 'positionCoords': [748.8, 200], 'bid': 7.87}]",78087.59999990463,1669836777350,omelette,chickenfingers,6.29,7.87,1.58,chickenfingers,570.7000000476837,571,571.4000000953674,True,i,79166.39999997616,1078.8000000715256,1669836778428,1078,HRV,HRV_0228,2022-11-30 19:37:43
46,"[{'imgObject': {}, 'id': 'omelette', 'src': '/static/foodstim60/omelette.jpg', 'key': 'u', 'origWidth': 410, 'origHeight': 409, 'width': 410, 'height': 409, 'widthPercent': 0.45, 'rescaleHeight': False, 'trialN': 46, 'loaded': True, 'loadedTime': 3620.399999976158, 'positionName': 'LEFT', 'positionCoords': [281.2, 200.5], 'bid': 6.29}, {'imgObject': {}, 'id': 'raspberries', 'src': '/static/foodstim60/raspberries.jpg', 'key': 'i', 'origWidth': 411, 'origHeight': 411, 'width': 411, 'height': 411, 'widthPercent': 0.45, 'rescaleHeight': False, 'trialN': 46, 'loaded': True, 'loadedTime': 3586.399999976158, 'positionName': 'RIGHT', 'positionCoords': [748.8, 199.5], 'bid': 6.3100000000000005}]",79166.59999990463,1669836778429,omelette,raspberries,6.29,6.3100000000000005,0.020000000000000462,omelette,1057.7000000476837,1058,1058.3000000715256,True,u,80727.5,1560.9000000953674,1669836779989,1560,HRV,HRV_0228,2022-11-30 19:37:43
47,"[{'imgObject': {}, 'id': 'eggsalad', 'src': '/static/foodstim60/eggsalad.jpg', 'key': 'u', 'origWidth': 410, 'origHeight': 409, 'width': 410, 'height': 409, 'widthPercent': 0.45, 'rescaleHeight': False, 'trialN': 47, 'loaded': True, 'loadedTime': 3624.5, 'positionName': 'LEFT', 'positionCoords': [281.2, 200.5], 'bid': 6.9}, {'imgObject': {}, 'id': 'rigatoni and sauce', 'src': '/static/foodstim60/rigatoni and sauce.jpg', 'key': 'i', 'origWidth': 410, 'origHeight': 411, 'width': 410, 'height': 411, 'widthPercent': 0.45, 'rescaleHeight': False, 'trialN': 47, 'loaded': True, 'loadedTime': 3227.399999976158, 'positionName': 'RIGHT', 'positionCoords': [748.8, 199.5], 'bid': 4.5200000000000005}]",80727.79999995232,1669836779990,eggsalad,rigatoni and sauce,6.9,4.5200000000000005,-2.38,rigatoni and sauce,1904.0,1905,1905.0,True,i,83134.39999997616,2406.600000023842,1669836782397,2407,HRV,HRV_0228,2022-11-30 19:37:43
48,"[{'imgObject': {}, 'id': 'blueberries', 'src': '/static/foodstim60/blueberries.jpg', 'key': 'u', 'origWidth': 411, 'origHeight': 411, 'width': 411, 'height': 411, 'widthPercent': 0.45, 'rescaleHeight': False, 'trialN': 48, 'loaded': True, 'loadedTime': 3242, 'positionName': 'LEFT', 'positionCoords': [280.2, 199.5], 'bid': 4.61}, {'imgObject': {}, 'id': 'orange slices', 'src': '/static/foodstim60/orange slices.jpg', 'key': 'i', 'origWidth': 409, 'origHeight': 410, 'width': 409, 'height': 410, 'widthPercent': 0.45, 'rescaleHeight': False, 'trialN': 48, 'loaded': True, 'loadedTime': 3624.6999999284744, 'positionName': 'RIGHT', 'positionCoords': [748.8, 200], 'bid': 5.47}]",83134.69999992847,1669836782397,blueberries,orange slices,4.61,5.47,0.8599999999999994,blueberries,2025.8000000715256,2027,2026.5,True,u,85662.39999997616,2527.7000000476837,1669836784925,2528,HRV,HRV_0228,2022-11-30 19:37:43
49,"[{'imgObject': {}, 'id': 'corn cob', 'src': '/static/foodstim60/corn cob.jpg', 'key': 'u', 'origWidth': 411, 'origHeight': 411, 'width': 411, 'height': 411, 'widthPercent': 0.45, 'rescaleHeight': False, 'trialN': 49, 'loaded': True, 'loadedTime': 3629.399999976158, 'positionName': 'LEFT', 'positionCoords': [280.2, 199.5], 'bid': 3.62}, {'imgObject': {}, 'id': 'Tribe humus pita', 'src': '/static/foodstim60/Tribe humus pita.jpg', 'key': 'i', 'origWidth': 411, 'origHeight': 411, 'width': 411, 'height': 411, 'widthPercent': 0.45, 'rescaleHeight': False, 'trialN': 49, 'loaded': True, 'loadedTime': 3632.6999999284744, 'positionName': 'RIGHT', 'positionCoords': [748.8, 199.5], 'bid': 6.44}]",85662.69999992847,1669836784925,corn cob,Tribe humus pita,3.62,6.44,2.8200000000000003,Tribe humus pita,1455.7000000476837,1456,1456.0,True,i,87622.39999997616,1959.7000000476837,1669836786885,1960,HRV,HRV_0228,2022-11-30 19:37:43
50,"[{'imgObject': {}, 'id': 'Tribe humus pita', 'src': '/static/foodstim60/Tribe humus pita.jpg', 'key': 'u', 'origWidth': 411, 'origHeight': 411, 'width': 411, 'height': 411, 'widthPercent': 0.45, 'rescaleHeight': False, 'trialN': 50, 'loaded': True, 'loadedTime': 3632.7999999523163, 'positionName': 'LEFT', 'positionCoords': [280.2, 199.5], 'bid': 6.44}, {'imgObject': {}, 'id': 'raspberries', 'src': '/static/foodstim60/raspberries.jpg', 'key': 'i', 'origWidth': 411, 'origHeight': 411, 'width': 411, 'height': 411, 'widthPercent': 0.45, 'rescaleHeight': False, 'trialN': 50, 'loaded': True, 'loadedTime': 3586.0999999046326, 'positionName': 'RIGHT', 'positionCoords': [748.8, 199.5], 'bid': 6.3100000000000005}]",87622.69999992847,1669836786885,Tribe humus pita,raspberries,6.44,6.3100000000000005,-0.1299999999999999,Tribe humus pita,897.3999999761581,898,897.7000000476837,True,u,89022.19999992847,1399.5,1669836788285,1400,HRV,HRV_0228,2022-11-30 19:37:43
51,"[{'imgObject': {}, 'id': 'apple slices', 'src': '/static/foodstim60/apple slices.jpg', 'key': 'u', 'origWidth': 409, 'origHeight': 410, 'width': 409, 'height': 410, 'widthPercent': 0.45, 'rescaleHeight': False, 'trialN': 51, 'loaded': True, 'loadedTime': 3583.6999999284744, 'positionName': 'LEFT', 'positionCoords': [282.2, 200], 'bid': 3.08}, {'imgObject': {}, 'id': 'pear', 'src': '/static/foodstim60/pear.jpg', 'key': 'i', 'origWidth': 411, 'origHeight': 410, 'width': 411, 'height': 410, 'widthPercent': 0.45, 'rescaleHeight': False, 'trialN': 51, 'loaded': True, 'loadedTime': 3235, 'positionName': 'RIGHT', 'positionCoords': [748.8, 200], 'bid': 2.87}]",89022.39999997616,1669836788285,apple slices,pear,3.08,2.87,-0.20999999999999996,pear,1771.1000000238419,1772,1771.7999999523163,True,i,91303.0,2280.600000023842,1669836790565,2280,HRV,HRV_0228,2022-11-30 19:37:43
52,"[{'imgObject': {}, 'id': 'luckycharms', 'src': '/static/foodstim60/luckycharms.jpg', 'key': 'u', 'origWidth': 410, 'origHeight': 409, 'width': 410, 'height': 409, 'widthPercent': 0.45, 'rescaleHeight': False, 'trialN': 52, 'loaded': True, 'loadedTime': 3208.1999999284744, 'positionName': 'LEFT', 'positionCoords': [281.2, 200.5], 'bid': 6.9}, {'imgObject': {}, 'id': 'steak', 'src': '/static/foodstim60/steak.jpg', 'key': 'i', 'origWidth': 410, 'origHeight': 410, 'width': 410, 'height': 410, 'widthPercent': 0.45, 'rescaleHeight': False, 'trialN': 52, 'loaded': True, 'loadedTime': 3512.5, 'positionName': 'RIGHT', 'positionCoords': [748.8, 200], 'bid': 9.11}]",91303.19999992847,1669836790565,luckycharms,steak,6.9,9.11,2.209999999999999,steak,646.8999999761581,648,647.2000000476837,True,i,92454.29999995232,1151.1000000238419,1669836791717,1152,HRV,HRV_0228,2022-11-30 19:37:43
53,"[{'imgObject': {}, 'id': 'sushi w_condiments', 'src': '/static/foodstim60/sushi w_condiments.jpg', 'key': 'u', 'origWidth': 410, 'origHeight': 410, 'width': 410, 'height': 410, 'widthPercent': 0.45, 'rescaleHeight': False, 'trialN': 53, 'loaded': True, 'loadedTime': 3367.2999999523163, 'positionName': 'LEFT', 'positionCoords': [281.2, 200], 'bid': 1.25}, {'imgObject': {}, 'id': 'mac & cheese', 'src': '/static/foodstim60/mac & cheese.jpg', 'key': 'i', 'origWidth': 410, 'origHeight': 410, 'width': 410, 'height': 410, 'widthPercent': 0.45, 'rescaleHeight': False, 'trialN': 53, 'loaded': True, 'loadedTime': 3229.1999999284744, 'positionName': 'RIGHT', 'positionCoords': [748.8, 200], 'bid': 6}]",92454.39999997616,1669836791717,sushi w_condiments,mac & cheese,1.25,6.0,4.75,mac & cheese,1328.6999999284744,1329,1329.1000000238419,True,i,94286.19999992847,1831.7999999523163,1669836793549,1832,HRV,HRV_0228,2022-11-30 19:37:43
54,"[{'imgObject': {}, 'id': 'cantaloupe', 'src': '/static/foodstim60/cantaloupe.jpg', 'key': 'u', 'origWidth': 409, 'origHeight': 409, 'width': 409, 'height': 409, 'widthPercent': 0.45, 'rescaleHeight': False, 'trialN': 54, 'loaded': True, 'loadedTime': 3634.0999999046326, 'positionName': 'LEFT', 'positionCoords': [282.2, 200.5], 'bid': 5.18}, {'imgObject': {}, 'id': 'fried eggs', 'src': '/static/foodstim60/fried eggs.jpg', 'key': 'i', 'origWidth': 410, 'origHeight': 410, 'width': 410, 'height': 410, 'widthPercent': 0.45, 'rescaleHeight': False, 'trialN': 54, 'loaded': True, 'loadedTime': 3619.5, 'positionName': 'RIGHT', 'positionCoords': [748.8, 200], 'bid': 5.75}]",94286.39999997616,1669836793549,cantaloupe,fried eggs,5.18,5.75,0.5700000000000003,cantaloupe,720.6999999284744,721,720.8999999761581,True,u,95511.5,1225.1000000238419,1669836794774,1225,HRV,HRV_0228,2022-11-30 19:37:43
55,"[{'imgObject': {}, 'id': 'chicken nuggets2', 'src': '/static/foodstim60/chicken nuggets2.jpg', 'key': 'u', 'origWidth': 410, 'origHeight': 409, 'width': 410, 'height': 409, 'widthPercent': 0.45, 'rescaleHeight': False, 'trialN': 55, 'loaded': True, 'loadedTime': 3538.7999999523163, 'positionName': 'LEFT', 'positionCoords': [281.2, 200.5], 'bid': 8.23}, {'imgObject': {}, 'id': 'yogurt no spoon', 'src': '/static/foodstim60/yogurt no spoon.jpg', 'key': 'i', 'origWidth': 411, 'origHeight': 410, 'width': 411, 'height': 410, 'widthPercent': 0.45, 'rescaleHeight': False, 'trialN': 55, 'loaded': True, 'loadedTime': 3531.5, 'positionName': 'RIGHT', 'positionCoords': [748.8, 200], 'bid': 6.88}]",95511.69999992847,1669836794774,chicken nuggets2,yogurt no spoon,8.23,6.88,-1.3500000000000005,chicken nuggets2,629.5,630,629.8000000715256,True,u,96647.29999995232,1135.6000000238419,1669836795910,1136,HRV,HRV_0228,2022-11-30 19:37:43
56,"[{'imgObject': {}, 'id': 'orange slices', 'src': '/static/foodstim60/orange slices.jpg', 'key': 'u', 'origWidth': 409, 'origHeight': 410, 'width': 409, 'height': 410, 'widthPercent': 0.45, 'rescaleHeight': False, 'trialN': 56, 'loaded': True, 'loadedTime': 3627.5, 'positionName': 'LEFT', 'positionCoords': [282.2, 200], 'bid': 5.47}, {'imgObject': {}, 'id': 'grilled chicken strips', 'src': '/static/foodstim60/grilled chicken strips.jpg', 'key': 'i', 'origWidth': 410, 'origHeight': 411, 'width': 410, 'height': 411, 'widthPercent': 0.45, 'rescaleHeight': False, 'trialN': 56, 'loaded': True, 'loadedTime': 3069.2999999523163, 'positionName': 'RIGHT', 'positionCoords': [748.8, 199.5], 'bid': 5.5200000000000005}]",96647.39999997616,1669836795910,orange slices,grilled chicken strips,5.47,5.5200000000000005,0.05000000000000071,grilled chicken strips,910.2999999523163,910,910.6999999284744,True,i,98063.29999995232,1415.8999999761581,1669836797326,1416,HRV,HRV_0228,2022-11-30 19:37:43
57,"[{'imgObject': {}, 'id': 'omelette', 'src': '/static/foodstim60/omelette.jpg', 'key': 'u', 'origWidth': 410, 'origHeight': 409, 'width': 410, 'height': 409, 'widthPercent': 0.45, 'rescaleHeight': False, 'trialN': 57, 'loaded': True, 'loadedTime': 3621.399999976158, 'positionName': 'LEFT', 'positionCoords': [281.2, 200.5], 'bid': 6.29}, {'imgObject': {}, 'id': 'pear', 'src': '/static/foodstim60/pear.jpg', 'key': 'i', 'origWidth': 411, 'origHeight': 410, 'width': 411, 'height': 410, 'widthPercent': 0.45, 'rescaleHeight': False, 'trialN': 57, 'loaded': True, 'loadedTime': 3237.5999999046326, 'positionName': 'RIGHT', 'positionCoords': [748.8, 200], 'bid': 2.87}]",98063.59999990463,1669836797326,omelette,pear,6.29,2.87,-3.42,omelette,921.8000000715256,922,922.2000000476837,True,u,99487.29999995232,1423.7000000476837,1669836798750,1424,HRV,HRV_0228,2022-11-30 19:37:43
58,"[{'imgObject': {}, 'id': 'ice cream sundae 002', 'src': '/static/foodstim60/ice cream sundae 002.jpg', 'key': 'u', 'origWidth': 409, 'origHeight': 409, 'width': 409, 'height': 409, 'widthPercent': 0.45, 'rescaleHeight': False, 'trialN': 58, 'loaded': True, 'loadedTime': 3616.399999976158, 'positionName': 'LEFT', 'positionCoords': [282.2, 200.5], 'bid': 9.04}, {'imgObject': {}, 'id': 'Tribe humus pita', 'src': '/static/foodstim60/Tribe humus pita.jpg', 'key': 'i', 'origWidth': 411, 'origHeight': 411, 'width': 411, 'height': 411, 'widthPercent': 0.45, 'rescaleHeight': False, 'trialN': 58, 'loaded': True, 'loadedTime': 3633, 'positionName': 'RIGHT', 'positionCoords': [748.8, 199.5], 'bid': 6.44}]",99487.5,1669836798750,ice cream sundae 002,Tribe humus pita,9.04,6.44,-2.5999999999999988,ice cream sundae 002,1603.5999999046326,1604,1604.0,True,u,101599.29999995232,2111.7999999523163,1669836800862,2112,HRV,HRV_0228,2022-11-30 19:37:43
59,"[{'imgObject': {}, 'id': 'rigatoni and sauce', 'src': '/static/foodstim60/rigatoni and sauce.jpg', 'key': 'u', 'origWidth': 410, 'origHeight': 411, 'width': 410, 'height': 411, 'widthPercent': 0.45, 'rescaleHeight': False, 'trialN': 59, 'loaded': True, 'loadedTime': 3227.0999999046326, 'positionName': 'LEFT', 'positionCoords': [281.2, 199.5], 'bid': 4.5200000000000005}, {'imgObject': {}, 'id': 'salmon', 'src': '/static/foodstim60/salmon.jpg', 'key': 'i', 'origWidth': 410, 'origHeight': 409, 'width': 410, 'height': 409, 'widthPercent': 0.45, 'rescaleHeight': False, 'trialN': 59, 'loaded': True, 'loadedTime': 3600.7999999523163, 'positionName': 'RIGHT', 'positionCoords': [748.8, 200.5], 'bid': 4.54}]",101599.39999997616,1669836800862,rigatoni and sauce,salmon,4.5200000000000005,4.54,0.019999999999999574,rigatoni and sauce,889.7999999523163,890,890.1000000238419,True,u,102990.29999995232,1390.8999999761581,1669836802253,1391,HRV,HRV_0228,2022-11-30 19:37:43
60,"[{'imgObject': {}, 'id': 'granola w milk', 'src': '/static/foodstim60/granola w milk.jpg', 'key': 'u', 'origWidth': 410, 'origHeight': 410, 'width': 410, 'height': 410, 'widthPercent': 0.45, 'rescaleHeight': False, 'trialN': 60, 'loaded': True, 'loadedTime': 3635.2999999523163, 'positionName': 'LEFT', 'positionCoords': [281.2, 200], 'bid': 7.11}, {'imgObject': {}, 'id': 'omelette', 'src': '/static/foodstim60/omelette.jpg', 'key': 'i', 'origWidth': 410, 'origHeight': 409, 'width': 410, 'height': 409, 'widthPercent': 0.45, 'rescaleHeight': False, 'trialN': 60, 'loaded': True, 'loadedTime': 3621.5999999046326, 'positionName': 'RIGHT', 'positionCoords': [748.8, 200.5], 'bid': 6.29}]",102990.5,1669836802253,granola w milk,omelette,7.11,6.29,-0.8200000000000003,omelette,689.6999999284744,690,690.1999999284744,True,i,104183.19999992847,1192.6999999284744,1669836803446,1193,HRV,HRV_0228,2022-11-30 19:37:43
61,"[{'imgObject': {}, 'id': 'edamame', 'src': '/static/foodstim60/edamame.jpg', 'key': 'u', 'origWidth': 409, 'origHeight': 410, 'width': 409, 'height': 410, 'widthPercent': 0.45, 'rescaleHeight': False, 'trialN': 61, 'loaded': True, 'loadedTime': 3179.5999999046326, 'positionName': 'LEFT', 'positionCoords': [282.2, 200], 'bid': 0.44}, {'imgObject': {}, 'id': 'rigatoni', 'src': '/static/foodstim60/rigatoni.jpg', 'key': 'i', 'origWidth': 411, 'origHeight': 411, 'width': 411, 'height': 411, 'widthPercent': 0.45, 'rescaleHeight': False, 'trialN': 61, 'loaded': True, 'loadedTime': 3241.399999976158, 'positionName': 'RIGHT', 'positionCoords': [748.8, 199.5], 'bid': 0.66}]",104183.39999997616,1669836803446,edamame,rigatoni,0.44,0.66,0.22000000000000003,edamame,935.7999999523163,936,936.1000000238419,True,u,105623.59999990463,1440.1999999284744,1669836804886,1440,HRV,HRV_0228,2022-11-30 19:37:43
62,"[{'imgObject': {}, 'id': 'froot loops w milk', 'src': '/static/foodstim60/froot loops w milk.jpg', 'key': 'u', 'origWidth': 410, 'origHeight': 410, 'width': 410, 'height': 410, 'widthPercent': 0.45, 'rescaleHeight': False, 'trialN': 62, 'loaded': True, 'loadedTime': 3609.399999976158, 'positionName': 'LEFT', 'positionCoords': [281.2, 200], 'bid': 7.63}, {'imgObject': {}, 'id': 'mango', 'src': '/static/foodstim60/mango.jpg', 'key': 'i', 'origWidth': 411, 'origHeight': 411, 'width': 411, 'height': 411, 'widthPercent': 0.45, 'rescaleHeight': False, 'trialN': 62, 'loaded': True, 'loadedTime': 3515, 'positionName': 'RIGHT', 'positionCoords': [748.8, 199.5], 'bid': 6.58}]",105623.79999995232,1669836804886,froot loops w milk,mango,7.63,6.58,-1.0499999999999998,froot loops w milk,2216.5,2217,2216.7999999523163,True,u,108343.0,2719.2000000476837,1669836807605,2719,HRV,HRV_0228,2022-11-30 19:37:43
63,"[{'imgObject': {}, 'id': 'steak', 'src': '/static/foodstim60/steak.jpg', 'key': 'u', 'origWidth': 410, 'origHeight': 410, 'width': 410, 'height': 410, 'widthPercent': 0.45, 'rescaleHeight': False, 'trialN': 63, 'loaded': True, 'loadedTime': 3501.399999976158, 'positionName': 'LEFT', 'positionCoords': [281.2, 200], 'bid': 9.11}, {'imgObject': {}, 'id': 'cheerios', 'src': '/static/foodstim60/cheerios.jpg', 'key': 'i', 'origWidth': 409, 'origHeight': 410, 'width': 409, 'height': 410, 'widthPercent': 0.45, 'rescaleHeight': False, 'trialN': 63, 'loaded': True, 'loadedTime': 3352.7999999523163, 'positionName': 'RIGHT', 'positionCoords': [748.8, 200], 'bid': 5.45}]",108343.59999990463,1669836807606,steak,cheerios,9.11,5.45,-3.6599999999999993,steak,862.6000000238419,863,863.1000000238419,True,u,109711.39999997616,1367.8000000715256,1669836808974,1368,HRV,HRV_0228,2022-11-30 19:37:43
64,"[{'imgObject': {}, 'id': 'turkey sandwich', 'src': '/static/foodstim60/turkey sandwich.jpg', 'key': 'u', 'origWidth': 409, 'origHeight': 409, 'width': 409, 'height': 409, 'widthPercent': 0.45, 'rescaleHeight': False, 'trialN': 64, 'loaded': True, 'loadedTime': 3219.0999999046326, 'positionName': 'LEFT', 'positionCoords': [282.2, 200.5], 'bid': 5.69}, {'imgObject': {}, 'id': 'shreddedwheatwithmilk', 'src': '/static/foodstim60/shreddedwheatwithmilk.jpg', 'key': 'i', 'origWidth': 410, 'origHeight': 410, 'width': 410, 'height': 410, 'widthPercent': 0.45, 'rescaleHeight': False, 'trialN': 64, 'loaded': True, 'loadedTime': 3376.1999999284744, 'positionName': 'RIGHT', 'positionCoords': [748.8, 200], 'bid': 5.2700000000000005}]",109711.59999990463,1669836808974,turkey sandwich,shreddedwheatwithmilk,5.69,5.2700000000000005,-0.41999999999999993,turkey sandwich,1184.4000000953674,1185,1184.9000000953674,True,u,111399.19999992847,1687.6000000238419,1669836810662,1688,HRV,HRV_0228,2022-11-30 19:37:43
65,"[{'imgObject': {}, 'id': 'burger', 'src': '/static/foodstim60/burger.jpg', 'key': 'u', 'origWidth': 409, 'origHeight': 409, 'width': 409, 'height': 409, 'widthPercent': 0.45, 'rescaleHeight': False, 'trialN': 65, 'loaded': True, 'loadedTime': 3213, 'positionName': 'LEFT', 'positionCoords': [282.2, 200.5], 'bid': 5.08}, {'imgObject': {}, 'id': 'blueberries', 'src': '/static/foodstim60/blueberries.jpg', 'key': 'i', 'origWidth': 411, 'origHeight': 411, 'width': 411, 'height': 411, 'widthPercent': 0.45, 'rescaleHeight': False, 'trialN': 65, 'loaded': True, 'loadedTime': 3242.7999999523163, 'positionName': 'RIGHT', 'positionCoords': [748.8, 199.5], 'bid': 4.61}]",111399.39999997616,1669836810662,burger,blueberries,5.08,4.61,-0.46999999999999975,burger,1291.6999999284744,1292,1292.0,True,u,113198.19999992847,1798.7999999523163,1669836812461,1799,HRV,HRV_0228,2022-11-30 19:37:43
66,"[{'imgObject': {}, 'id': 'blueberries', 'src': '/static/foodstim60/blueberries.jpg', 'key': 'u', 'origWidth': 411, 'origHeight': 411, 'width': 411, 'height': 411, 'widthPercent': 0.45, 'rescaleHeight': False, 'trialN': 66, 'loaded': True, 'loadedTime': 3243.2999999523163, 'positionName': 'LEFT', 'positionCoords': [280.2, 199.5], 'bid': 4.61}, {'imgObject': {}, 'id': 'seaweed', 'src': '/static/foodstim60/seaweed.jpg', 'key': 'i', 'origWidth': 410, 'origHeight': 410, 'width': 410, 'height': 410, 'widthPercent': 0.45, 'rescaleHeight': False, 'trialN': 66, 'loaded': True, 'loadedTime': 3523.6999999284744, 'positionName': 'RIGHT', 'positionCoords': [748.8, 200], 'bid': 1.09}]",113198.39999997616,1669836812461,blueberries,seaweed,4.61,1.09,-3.5200000000000005,blueberries,1055.7999999523163,1056,1056.2999999523163,True,u,114759.39999997616,1561.0,1669836814022,1561,HRV,HRV_0228,2022-11-30 19:37:43
67,"[{'imgObject': {}, 'id': 'mac & cheese', 'src': '/static/foodstim60/mac & cheese.jpg', 'key': 'u', 'origWidth': 410, 'origHeight': 410, 'width': 410, 'height': 410, 'widthPercent': 0.45, 'rescaleHeight': False, 'trialN': 67, 'loaded': True, 'loadedTime': 3229.7999999523163, 'positionName': 'LEFT', 'positionCoords': [281.2, 200], 'bid': 6}, {'imgObject': {}, 'id': 'cocktailshrimp', 'src': '/static/foodstim60/cocktailshrimp.jpg', 'key': 'i', 'origWidth': 410, 'origHeight': 410, 'width': 410, 'height': 410, 'widthPercent': 0.45, 'rescaleHeight': False, 'trialN': 67, 'loaded': True, 'loadedTime': 3203.899999976158, 'positionName': 'RIGHT', 'positionCoords': [748.8, 200], 'bid': 6.15}]",114759.59999990463,1669836814022,mac & cheese,cocktailshrimp,6.0,6.15,0.15000000000000036,cocktailshrimp,1187.4000000953674,1188,1187.6000000238419,True,i,116454.19999992847,1694.6000000238419,1669836815717,1695,HRV,HRV_0228,2022-11-30 19:37:43
68,"[{'imgObject': {}, 'id': 'turkeysandwich', 'src': '/static/foodstim60/turkeysandwich.jpg', 'key': 'u', 'origWidth': 409, 'origHeight': 409, 'width': 409, 'height': 409, 'widthPercent': 0.45, 'rescaleHeight': False, 'trialN': 68, 'loaded': True, 'loadedTime': 3614.5999999046326, 'positionName': 'LEFT', 'positionCoords': [282.2, 200.5], 'bid': 7.87}, {'imgObject': {}, 'id': 'chicken nuggets2', 'src': '/static/foodstim60/chicken nuggets2.jpg', 'key': 'i', 'origWidth': 410, 'origHeight': 409, 'width': 410, 'height': 409, 'widthPercent': 0.45, 'rescaleHeight': False, 'trialN': 68, 'loaded': True, 'loadedTime': 3539, 'positionName': 'RIGHT', 'positionCoords': [748.8, 200.5], 'bid': 8.23}]",116454.29999995232,1669836815717,turkeysandwich,chicken nuggets2,7.87,8.23,0.3600000000000003,chicken nuggets2,1620.8999999761581,1621,1621.2999999523163,True,i,118583.29999995232,2129.0,1669836817846,2129,HRV,HRV_0228,2022-11-30 19:37:43
69,"[{'imgObject': {}, 'id': 'hashbrowns', 'src': '/static/foodstim60/hashbrowns.jpg', 'key': 'u', 'origWidth': 411, 'origHeight': 410, 'width': 411, 'height': 410, 'widthPercent': 0.45, 'rescaleHeight': False, 'trialN': 69, 'loaded': True, 'loadedTime': 3636.6999999284744, 'positionName': 'LEFT', 'positionCoords': [280.2, 200], 'bid': 0.95}, {'imgObject': {}, 'id': 'seaweed', 'src': '/static/foodstim60/seaweed.jpg', 'key': 'i', 'origWidth': 410, 'origHeight': 410, 'width': 410, 'height': 410, 'widthPercent': 0.45, 'rescaleHeight': False, 'trialN': 69, 'loaded': True, 'loadedTime': 3523.899999976158, 'positionName': 'RIGHT', 'positionCoords': [748.8, 200], 'bid': 1.09}]",118583.39999997616,1669836817846,hashbrowns,seaweed,0.95,1.09,0.14000000000000012,hashbrowns,884.6999999284744,885,885.0,True,u,119974.89999997616,1391.5,1669836819237,1391,HRV,HRV_0228,2022-11-30 19:37:43
70,"[{'imgObject': {}, 'id': 'Grapes', 'src': '/static/foodstim60/Grapes.jpg', 'key': 'u', 'origWidth': 411, 'origHeight': 411, 'width': 411, 'height': 411, 'widthPercent': 0.45, 'rescaleHeight': False, 'trialN': 70, 'loaded': True, 'loadedTime': 3636.899999976158, 'positionName': 'LEFT', 'positionCoords': [280.2, 199.5], 'bid': 6.2}, {'imgObject': {}, 'id': 'fruitsalad', 'src': '/static/foodstim60/fruitsalad.jpg', 'key': 'i', 'origWidth': 410, 'origHeight': 410, 'width': 410, 'height': 410, 'widthPercent': 0.45, 'rescaleHeight': False, 'trialN': 70, 'loaded': True, 'loadedTime': 3544.5999999046326, 'positionName': 'RIGHT', 'positionCoords': [748.8, 200], 'bid': 6.26}]",119975.0,1669836819237,Grapes,fruitsalad,6.2,6.26,0.05999999999999961,fruitsalad,1114.0,1115,1114.2999999523163,True,i,121591.69999992847,1616.6999999284744,1669836820854,1617,HRV,HRV_0228,2022-11-30 19:37:43
71,"[{'imgObject': {}, 'id': 'raisin bran w milk', 'src': '/static/foodstim60/raisin bran w milk.jpg', 'key': 'u', 'origWidth': 411, 'origHeight': 411, 'width': 411, 'height': 411, 'widthPercent': 0.45, 'rescaleHeight': False, 'trialN': 71, 'loaded': True, 'loadedTime': 3436.2999999523163, 'positionName': 'LEFT', 'positionCoords': [280.2, 199.5], 'bid': 7.43}, {'imgObject': {}, 'id': 'froot loops w milk', 'src': '/static/foodstim60/froot loops w milk.jpg', 'key': 'i', 'origWidth': 410, 'origHeight': 410, 'width': 410, 'height': 410, 'widthPercent': 0.45, 'rescaleHeight': False, 'trialN': 71, 'loaded': True, 'loadedTime': 3609.899999976158, 'positionName': 'RIGHT', 'positionCoords': [748.8, 200], 'bid': 7.63}]",121591.79999995232,1669836820854,raisin bran w milk,froot loops w milk,7.43,7.63,0.20000000000000018,raisin bran w milk,1122.5,1123,1122.8999999761581,True,u,123215.39999997616,1623.6000000238419,1669836822478,1624,HRV,HRV_0228,2022-11-30 19:37:43
72,"[{'imgObject': {}, 'id': 'orange slices', 'src': '/static/foodstim60/orange slices.jpg', 'key': 'u', 'origWidth': 409, 'origHeight': 410, 'width': 409, 'height': 410, 'widthPercent': 0.45, 'rescaleHeight': False, 'trialN': 72, 'loaded': True, 'loadedTime': 3626.0999999046326, 'positionName': 'LEFT', 'positionCoords': [282.2, 200], 'bid': 5.47}, {'imgObject': {}, 'id': 'edamame', 'src': '/static/foodstim60/edamame.jpg', 'key': 'i', 'origWidth': 409, 'origHeight': 410, 'width': 409, 'height': 410, 'widthPercent': 0.45, 'rescaleHeight': False, 'trialN': 72, 'loaded': True, 'loadedTime': 3180.1999999284744, 'positionName': 'RIGHT', 'positionCoords': [748.8, 200], 'bid': 0.44}]",123215.59999990463,1669836822478,orange slices,edamame,5.47,0.44,-5.029999999999999,orange slices,898.4000000953674,899,898.7000000476837,True,u,124623.29999995232,1407.7000000476837,1669836823886,1408,HRV,HRV_0228,2022-11-30 19:37:43
73,"[{'imgObject': {}, 'id': 'Grapes', 'src': '/static/foodstim60/Grapes.jpg', 'key': 'u', 'origWidth': 411, 'origHeight': 411, 'width': 411, 'height': 411, 'widthPercent': 0.45, 'rescaleHeight': False, 'trialN': 73, 'loaded': True, 'loadedTime': 3637.5, 'positionName': 'LEFT', 'positionCoords': [280.2, 199.5], 'bid': 6.2}, {'imgObject': {}, 'id': 'mac & cheese', 'src': '/static/foodstim60/mac & cheese.jpg', 'key': 'i', 'origWidth': 410, 'origHeight': 410, 'width': 410, 'height': 410, 'widthPercent': 0.45, 'rescaleHeight': False, 'trialN': 73, 'loaded': True, 'loadedTime': 3229.5, 'positionName': 'RIGHT', 'positionCoords': [748.8, 200], 'bid': 6}]",124623.5,1669836823886,Grapes,mac & cheese,6.2,6.0,-0.20000000000000018,Grapes,1523.5999999046326,1524,1523.8999999761581,True,u,126654.19999992847,2030.6999999284744,1669836825917,2031,HRV,HRV_0228,2022-11-30 19:37:43
74,"[{'imgObject': {}, 'id': 'baked potato', 'src': '/static/foodstim60/baked potato.jpg', 'key': 'u', 'origWidth': 409, 'origHeight': 410, 'width': 409, 'height': 410, 'widthPercent': 0.45, 'rescaleHeight': False, 'trialN': 74, 'loaded': True, 'loadedTime': 3212, 'positionName': 'LEFT', 'positionCoords': [282.2, 200], 'bid': 5.13}, {'imgObject': {}, 'id': 'roastedpotatoes', 'src': '/static/foodstim60/roastedpotatoes.jpg', 'key': 'i', 'origWidth': 409, 'origHeight': 410, 'width': 409, 'height': 410, 'widthPercent': 0.45, 'rescaleHeight': False, 'trialN': 74, 'loaded': True, 'loadedTime': 3638.899999976158, 'positionName': 'RIGHT', 'positionCoords': [748.8, 200], 'bid': 7.5}]",126654.39999997616,1669836825917,baked potato,roastedpotatoes,5.13,7.5,2.37,roastedpotatoes,1315.6999999284744,1316,1315.8999999761581,True,i,128471.19999992847,1816.7999999523163,1669836827734,1817,HRV,HRV_0228,2022-11-30 19:37:43
75,"[{'imgObject': {}, 'id': 'chicken nuggets2', 'src': '/static/foodstim60/chicken nuggets2.jpg', 'key': 'u', 'origWidth': 410, 'origHeight': 409, 'width': 410, 'height': 409, 'widthPercent': 0.45, 'rescaleHeight': False, 'trialN': 75, 'loaded': True, 'loadedTime': 3538.399999976158, 'positionName': 'LEFT', 'positionCoords': [281.2, 200.5], 'bid': 8.23}, {'imgObject': {}, 'id': 'tacos', 'src': '/static/foodstim60/tacos.jpg', 'key': 'i', 'origWidth': 411, 'origHeight': 411, 'width': 411, 'height': 411, 'widthPercent': 0.45, 'rescaleHeight': False, 'trialN': 75, 'loaded': True, 'loadedTime': 3230.0999999046326, 'positionName': 'RIGHT', 'positionCoords': [748.8, 199.5], 'bid': 6.38}]",128471.29999995232,1669836827734,chicken nuggets2,tacos,8.23,6.38,-1.8500000000000005,chicken nuggets2,1312.0,1312,1312.2000000476837,True,u,130287.29999995232,1816.0,1669836829550,1816,HRV,HRV_0228,2022-11-30 19:37:43
76,"[{'imgObject': {}, 'id': 'sushi w_condiments', 'src': '/static/foodstim60/sushi w_condiments.jpg', 'key': 'u', 'origWidth': 410, 'origHeight': 410, 'width': 410, 'height': 410, 'widthPercent': 0.45, 'rescaleHeight': False, 'trialN': 76, 'loaded': True, 'loadedTime': 3366.1999999284744, 'positionName': 'LEFT', 'positionCoords': [281.2, 200], 'bid': 1.25}, {'imgObject': {}, 'id': 'edamame', 'src': '/static/foodstim60/edamame.jpg', 'key': 'i', 'origWidth': 409, 'origHeight': 410, 'width': 409, 'height': 410, 'widthPercent': 0.45, 'rescaleHeight': False, 'trialN': 76, 'loaded': True, 'loadedTime': 3180, 'positionName': 'RIGHT', 'positionCoords': [748.8, 200], 'bid': 0.44}]",130287.5,1669836829550,sushi w_condiments,edamame,1.25,0.44,-0.81,sushi w_condiments,1124.5,1125,1124.6999999284744,True,u,131919.19999992847,1631.6999999284744,1669836831182,1632,HRV,HRV_0228,2022-11-30 19:37:43
77,"[{'imgObject': {}, 'id': 'mashed potato', 'src': '/static/foodstim60/mashed potato.jpg', 'key': 'u', 'origWidth': 409, 'origHeight': 409, 'width': 409, 'height': 409, 'widthPercent': 0.45, 'rescaleHeight': False, 'trialN': 77, 'loaded': True, 'loadedTime': 3194.6999999284744, 'positionName': 'LEFT', 'positionCoords': [282.2, 200.5], 'bid': 4.86}, {'imgObject': {}, 'id': 'blueberries', 'src': '/static/foodstim60/blueberries.jpg', 'key': 'i', 'origWidth': 411, 'origHeight': 411, 'width': 411, 'height': 411, 'widthPercent': 0.45, 'rescaleHeight': False, 'trialN': 77, 'loaded': True, 'loadedTime': 3243.5, 'positionName': 'RIGHT', 'positionCoords': [748.8, 199.5], 'bid': 4.61}]",131919.29999995232,1669836831182,mashed potato,blueberries,4.86,4.61,-0.25,blueberries,1580.7999999523163,1581,1581.0,True,i,134006.29999995232,2087.0,1669836833269,2087,HRV,HRV_0228,2022-11-30 19:37:43
78,"[{'imgObject': {}, 'id': 'rigatoni', 'src': '/static/foodstim60/rigatoni.jpg', 'key': 'u', 'origWidth': 411, 'origHeight': 411, 'width': 411, 'height': 411, 'widthPercent': 0.45, 'rescaleHeight': False, 'trialN': 78, 'loaded': True, 'loadedTime': 3241.5, 'positionName': 'LEFT', 'positionCoords': [280.2, 199.5], 'bid': 0.66}, {'imgObject': {}, 'id': 'olives', 'src': '/static/foodstim60/olives.jpg', 'key': 'i', 'origWidth': 410, 'origHeight': 410, 'width': 410, 'height': 410, 'widthPercent': 0.45, 'rescaleHeight': False, 'trialN': 78, 'loaded': True, 'loadedTime': 3527.0999999046326, 'positionName': 'RIGHT', 'positionCoords': [748.8, 200], 'bid': 4.25}]",134006.5,1669836833269,rigatoni,olives,0.66,4.25,3.59,rigatoni,1475.5,1475,1475.6999999284744,True,u,135982.59999990463,1976.0999999046326,1669836835245,1976,HRV,HRV_0228,2022-11-30 19:37:43
79,"[{'imgObject': {}, 'id': 'mango', 'src': '/static/foodstim60/mango.jpg', 'key': 'u', 'origWidth': 411, 'origHeight': 411, 'width': 411, 'height': 411, 'widthPercent': 0.45, 'rescaleHeight': False, 'trialN': 79, 'loaded': True, 'loadedTime': 3515.7999999523163, 'positionName': 'LEFT', 'positionCoords': [280.2, 199.5], 'bid': 6.58}, {'imgObject': {}, 'id': 'veggieswithdip', 'src': '/static/foodstim60/veggieswithdip.jpg', 'key': 'i', 'origWidth': 409, 'origHeight': 409, 'width': 409, 'height': 409, 'widthPercent': 0.45, 'rescaleHeight': False, 'trialN': 79, 'loaded': True, 'loadedTime': 3588, 'positionName': 'RIGHT', 'positionCoords': [748.8, 200.5], 'bid': 6.66}]",135982.79999995232,1669836835245,mango,veggieswithdip,6.58,6.66,0.08000000000000007,veggieswithdip,1290.0,1290,1290.2000000476837,True,i,137774.19999992847,1791.3999999761581,1669836837037,1792,HRV,HRV_0228,2022-11-30 19:37:43
80,"[{'imgObject': {}, 'id': 'ice cream sundae 002', 'src': '/static/foodstim60/ice cream sundae 002.jpg', 'key': 'u', 'origWidth': 409, 'origHeight': 409, 'width': 409, 'height': 409, 'widthPercent': 0.45, 'rescaleHeight': False, 'trialN': 80, 'loaded': True, 'loadedTime': 3617.6999999284744, 'positionName': 'LEFT', 'positionCoords': [282.2, 200.5], 'bid': 9.04}, {'imgObject': {}, 'id': 'turkeysandwich', 'src': '/static/foodstim60/turkeysandwich.jpg', 'key': 'i', 'origWidth': 409, 'origHeight': 409, 'width': 409, 'height': 409, 'widthPercent': 0.45, 'rescaleHeight': False, 'trialN': 80, 'loaded': True, 'loadedTime': 3613.899999976158, 'positionName': 'RIGHT', 'positionCoords': [748.8, 200.5], 'bid': 7.87}]",137774.39999997616,1669836837037,ice cream sundae 002,turkeysandwich,9.04,7.87,-1.169999999999999,turkeysandwich,974.5,974,974.6999999284744,True,i,139254.19999992847,1479.7999999523163,1669836838517,1480,HRV,HRV_0228,2022-11-30 19:37:43
81,"[{'imgObject': {}, 'id': 'eggs', 'src': '/static/foodstim60/eggs.jpg', 'key': 'u', 'origWidth': 409, 'origHeight': 409, 'width': 409, 'height': 409, 'widthPercent': 0.45, 'rescaleHeight': False, 'trialN': 81, 'loaded': True, 'loadedTime': 3372.899999976158, 'positionName': 'LEFT', 'positionCoords': [282.2, 200.5], 'bid': 5.36}, {'imgObject': {}, 'id': 'chicken nuggets2', 'src': '/static/foodstim60/chicken nuggets2.jpg', 'key': 'i', 'origWidth': 410, 'origHeight': 409, 'width': 410, 'height': 409, 'widthPercent': 0.45, 'rescaleHeight': False, 'trialN': 81, 'loaded': True, 'loadedTime': 3539.5999999046326, 'positionName': 'RIGHT', 'positionCoords': [748.8, 200.5], 'bid': 8.23}]",139254.39999997616,1669836838517,eggs,chicken nuggets2,5.36,8.23,2.87,chicken nuggets2,1044.8999999761581,1045,1045.1999999284744,True,i,140807.29999995232,1552.8999999761581,1669836840070,1553,HRV,HRV_0228,2022-11-30 19:37:43
82,"[{'imgObject': {}, 'id': 'luckycharms', 'src': '/static/foodstim60/luckycharms.jpg', 'key': 'u', 'origWidth': 410, 'origHeight': 409, 'width': 410, 'height': 409, 'widthPercent': 0.45, 'rescaleHeight': False, 'trialN': 82, 'loaded': True, 'loadedTime': 3209.2999999523163, 'positionName': 'LEFT', 'positionCoords': [281.2, 200.5], 'bid': 6.9}, {'imgObject': {}, 'id': 'fried eggs', 'src': '/static/foodstim60/fried eggs.jpg', 'key': 'i', 'origWidth': 410, 'origHeight': 410, 'width': 410, 'height': 410, 'widthPercent': 0.45, 'rescaleHeight': False, 'trialN': 82, 'loaded': True, 'loadedTime': 3620.2999999523163, 'positionName': 'RIGHT', 'positionCoords': [748.8, 200], 'bid': 5.75}]",140807.39999997616,1669836840070,luckycharms,fried eggs,6.9,5.75,-1.1500000000000004,fried eggs,1744.6000000238419,1745,1744.8999999761581,True,i,143054.19999992847,2246.7999999523163,1669836842317,2247,HRV,HRV_0228,2022-11-30 19:37:43
83,"[{'imgObject': {}, 'id': 'Grapes', 'src': '/static/foodstim60/Grapes.jpg', 'key': 'u', 'origWidth': 411, 'origHeight': 411, 'width': 411, 'height': 411, 'widthPercent': 0.45, 'rescaleHeight': False, 'trialN': 83, 'loaded': True, 'loadedTime': 3637.899999976158, 'positionName': 'LEFT', 'positionCoords': [280.2, 199.5], 'bid': 6.2}, {'imgObject': {}, 'id': 'roastedpotatoes', 'src': '/static/foodstim60/roastedpotatoes.jpg', 'key': 'i', 'origWidth': 409, 'origHeight': 410, 'width': 409, 'height': 410, 'widthPercent': 0.45, 'rescaleHeight': False, 'trialN': 83, 'loaded': True, 'loadedTime': 3639, 'positionName': 'RIGHT', 'positionCoords': [748.8, 200], 'bid': 7.5}]",143054.29999995232,1669836842317,Grapes,roastedpotatoes,6.2,7.5,1.2999999999999998,Grapes,2407.0,2408,2407.5,True,u,145967.29999995232,2913.0,1669836845230,2913,HRV,HRV_0228,2022-11-30 19:37:43
84,"[{'imgObject': {}, 'id': 'eggsalad', 'src': '/static/foodstim60/eggsalad.jpg', 'key': 'u', 'origWidth': 410, 'origHeight': 409, 'width': 410, 'height': 409, 'widthPercent': 0.45, 'rescaleHeight': False, 'trialN': 84, 'loaded': True, 'loadedTime': 3623.6999999284744, 'positionName': 'LEFT', 'positionCoords': [281.2, 200.5], 'bid': 6.9}, {'imgObject': {}, 'id': 'granola w milk', 'src': '/static/foodstim60/granola w milk.jpg', 'key': 'i', 'origWidth': 410, 'origHeight': 410, 'width': 410, 'height': 410, 'widthPercent': 0.45, 'rescaleHeight': False, 'trialN': 84, 'loaded': True, 'loadedTime': 3635.5, 'positionName': 'RIGHT', 'positionCoords': [748.8, 200], 'bid': 7.11}]",145967.5,1669836845230,eggsalad,granola w milk,6.9,7.11,0.20999999999999996,granola w milk,1230.5,1231,1230.6999999284744,True,i,147702.19999992847,1734.6999999284744,1669836846965,1735,HRV,HRV_0228,2022-11-30 19:37:43
85,"[{'imgObject': {}, 'id': 'burrito', 'src': '/static/foodstim60/burrito.jpg', 'key': 'u', 'origWidth': 410, 'origHeight': 410, 'width': 410, 'height': 410, 'widthPercent': 0.45, 'rescaleHeight': False, 'trialN': 85, 'loaded': True, 'loadedTime': 3370.7999999523163, 'positionName': 'LEFT', 'positionCoords': [281.2, 200], 'bid': 5.41}, {'imgObject': {}, 'id': 'orange slices', 'src': '/static/foodstim60/orange slices.jpg', 'key': 'i', 'origWidth': 409, 'origHeight': 410, 'width': 409, 'height': 410, 'widthPercent': 0.45, 'rescaleHeight': False, 'trialN': 85, 'loaded': True, 'loadedTime': 3625.7999999523163, 'positionName': 'RIGHT', 'positionCoords': [748.8, 200], 'bid': 5.47}]",147702.39999997616,1669836846965,burrito,orange slices,5.41,5.47,0.05999999999999961,burrito,890.8999999761581,892,891.7999999523163,True,u,149095.5,1393.1000000238419,1669836848358,1393,HRV,HRV_0228,2022-11-30 19:37:43
86,"[{'imgObject': {}, 'id': 'froot loops w milk', 'src': '/static/foodstim60/froot loops w milk.jpg', 'key': 'u', 'origWidth': 410, 'origHeight': 410, 'width': 410, 'height': 410, 'widthPercent': 0.45, 'rescaleHeight': False, 'trialN': 86, 'loaded': True, 'loadedTime': 3607.7999999523163, 'positionName': 'LEFT', 'positionCoords': [281.2, 200], 'bid': 7.63}, {'imgObject': {}, 'id': 'cantaloupe', 'src': '/static/foodstim60/cantaloupe.jpg', 'key': 'i', 'origWidth': 409, 'origHeight': 409, 'width': 409, 'height': 409, 'widthPercent': 0.45, 'rescaleHeight': False, 'trialN': 86, 'loaded': True, 'loadedTime': 3633.399999976158, 'positionName': 'RIGHT', 'positionCoords': [748.8, 200.5], 'bid': 5.18}]",149095.69999992847,1669836848359,froot loops w milk,cantaloupe,7.63,5.18,-2.45,cantaloupe,1456.5,1456,1456.7000000476837,True,i,151054.19999992847,1958.5,1669836850317,1958,HRV,HRV_0228,2022-11-30 19:37:43
87,"[{'imgObject': {}, 'id': 'salad w chicken', 'src': '/static/foodstim60/salad w chicken.jpg', 'key': 'u', 'origWidth': 411, 'origHeight': 411, 'width': 411, 'height': 411, 'widthPercent': 0.45, 'rescaleHeight': False, 'trialN': 87, 'loaded': True, 'loadedTime': 3541.1999999284744, 'positionName': 'LEFT', 'positionCoords': [280.2, 199.5], 'bid': 6.62}, {'imgObject': {}, 'id': 'yogurt no spoon', 'src': '/static/foodstim60/yogurt no spoon.jpg', 'key': 'i', 'origWidth': 411, 'origHeight': 410, 'width': 411, 'height': 410, 'widthPercent': 0.45, 'rescaleHeight': False, 'trialN': 87, 'loaded': True, 'loadedTime': 3528.399999976158, 'positionName': 'RIGHT', 'positionCoords': [748.8, 200], 'bid': 6.88}]",151054.39999997616,1669836850317,salad w chicken,yogurt no spoon,6.62,6.88,0.2599999999999998,yogurt no spoon,2272.5,2273,2272.899999976158,True,i,153830.19999992847,2775.7999999523163,1669836853093,2776,HRV,HRV_0228,2022-11-30 19:37:43
88,"[{'imgObject': {}, 'id': 'cantaloupe', 'src': '/static/foodstim60/cantaloupe.jpg', 'key': 'u', 'origWidth': 409, 'origHeight': 409, 'width': 409, 'height': 409, 'widthPercent': 0.45, 'rescaleHeight': False, 'trialN': 88, 'loaded': True, 'loadedTime': 3634.399999976158, 'positionName': 'LEFT', 'positionCoords': [282.2, 200.5], 'bid': 5.18}, {'imgObject': {}, 'id': 'bagel and cc', 'src': '/static/foodstim60/bagel and cc.jpg', 'key': 'i', 'origWidth': 410, 'origHeight': 410, 'width': 410, 'height': 410, 'widthPercent': 0.45, 'rescaleHeight': False, 'trialN': 88, 'loaded': True, 'loadedTime': 3199.899999976158, 'positionName': 'RIGHT', 'positionCoords': [748.8, 200], 'bid': 5.18}]",153830.39999997616,1669836853093,cantaloupe,bagel and cc,5.18,5.18,0.0,bagel and cc,1390.6000000238419,1391,1390.7999999523163,True,i,155726.5,1896.1000000238419,1669836854989,1896,HRV,HRV_0228,2022-11-30 19:37:43
89,"[{'imgObject': {}, 'id': 'turkey sandwich', 'src': '/static/foodstim60/turkey sandwich.jpg', 'key': 'u', 'origWidth': 409, 'origHeight': 409, 'width': 409, 'height': 409, 'widthPercent': 0.45, 'rescaleHeight': False, 'trialN': 89, 'loaded': True, 'loadedTime': 3216.1999999284744, 'positionName': 'LEFT', 'positionCoords': [282.2, 200.5], 'bid': 5.69}, {'imgObject': {}, 'id': 'fried eggs', 'src': '/static/foodstim60/fried eggs.jpg', 'key': 'i', 'origWidth': 410, 'origHeight': 410, 'width': 410, 'height': 410, 'widthPercent': 0.45, 'rescaleHeight': False, 'trialN': 89, 'loaded': True, 'loadedTime': 3619.2999999523163, 'positionName': 'RIGHT', 'positionCoords': [748.8, 200], 'bid': 5.75}]",155726.69999992847,1669836854989,turkey sandwich,fried eggs,5.69,5.75,0.05999999999999961,turkey sandwich,1252.1000000238419,1253,1252.6000000238419,True,u,157486.29999995232,1759.6000000238419,1669836856749,1760,HRV,HRV_0228,2022-11-30 19:37:43
90,"[{'imgObject': {}, 'id': 'roastedpotatoes', 'src': '/static/foodstim60/roastedpotatoes.jpg', 'key': 'u', 'origWidth': 409, 'origHeight': 410, 'width': 409, 'height': 410, 'widthPercent': 0.45, 'rescaleHeight': False, 'trialN': 90, 'loaded': True, 'loadedTime': 3638.0999999046326, 'positionName': 'LEFT', 'positionCoords': [282.2, 200], 'bid': 7.5}, {'imgObject': {}, 'id': 'steak', 'src': '/static/foodstim60/steak.jpg', 'key': 'i', 'origWidth': 410, 'origHeight': 410, 'width': 410, 'height': 410, 'widthPercent': 0.45, 'rescaleHeight': False, 'trialN': 90, 'loaded': True, 'loadedTime': 3512.6999999284744, 'positionName': 'RIGHT', 'positionCoords': [748.8, 200], 'bid': 9.11}]",161286.29999995232,1669836860549,roastedpotatoes,steak,7.5,9.11,1.6099999999999994,steak,1254.7000000476837,1255,1255.2000000476837,True,i,163046.39999997616,1760.1000000238419,1669836862309,1760,HRV,HRV_0228,2022-11-30 19:37:43
91,"[{'imgObject': {}, 'id': 'strawberries', 'src': '/static/foodstim60/strawberries.jpg', 'key': 'u', 'origWidth': 410, 'origHeight': 410, 'width': 410, 'height': 410, 'widthPercent': 0.45, 'rescaleHeight': False, 'trialN': 91, 'loaded': True, 'loadedTime': 3351.0999999046326, 'positionName': 'LEFT', 'positionCoords': [281.2, 200], 'bid': 5.88}, {'imgObject': {}, 'id': 'fried eggs', 'src': '/static/foodstim60/fried eggs.jpg', 'key': 'i', 'origWidth': 410, 'origHeight': 410, 'width': 410, 'height': 410, 'widthPercent': 0.45, 'rescaleHeight': False, 'trialN': 91, 'loaded': True, 'loadedTime': 3620, 'positionName': 'RIGHT', 'positionCoords': [748.8, 200], 'bid': 5.75}]",163046.5,1669836862309,strawberries,fried eggs,5.88,5.75,-0.1299999999999999,fried eggs,739.2999999523163,740,739.5999999046326,True,i,164294.59999990463,1248.0999999046326,1669836863557,1248,HRV,HRV_0228,2022-11-30 19:37:43
92,"[{'imgObject': {}, 'id': 'avocado', 'src': '/static/foodstim60/avocado.jpg', 'key': 'u', 'origWidth': 409, 'origHeight': 409, 'width': 409, 'height': 409, 'widthPercent': 0.45, 'rescaleHeight': False, 'trialN': 92, 'loaded': True, 'loadedTime': 3206.6999999284744, 'positionName': 'LEFT', 'positionCoords': [282.2, 200.5], 'bid': 1.4}, {'imgObject': {}, 'id': 'blackbeanswithrice', 'src': '/static/foodstim60/blackbeanswithrice.jpg', 'key': 'i', 'origWidth': 410, 'origHeight': 410, 'width': 410, 'height': 410, 'widthPercent': 0.45, 'rescaleHeight': False, 'trialN': 92, 'loaded': True, 'loadedTime': 3196.899999976158, 'positionName': 'RIGHT', 'positionCoords': [748.8, 200], 'bid': 0.66}]",164294.79999995232,1669836863558,avocado,blackbeanswithrice,1.4,0.66,-0.7399999999999999,avocado,772.1000000238419,772,772.5,True,u,165574.39999997616,1279.6000000238419,1669836864837,1279,HRV,HRV_0228,2022-11-30 19:37:43
93,"[{'imgObject': {}, 'id': 'Tribe humus pita', 'src': '/static/foodstim60/Tribe humus pita.jpg', 'key': 'u', 'origWidth': 411, 'origHeight': 411, 'width': 411, 'height': 411, 'widthPercent': 0.45, 'rescaleHeight': False, 'trialN': 93, 'loaded': True, 'loadedTime': 3633.1999999284744, 'positionName': 'LEFT', 'positionCoords': [280.2, 199.5], 'bid': 6.44}, {'imgObject': {}, 'id': 'cocktailshrimp', 'src': '/static/foodstim60/cocktailshrimp.jpg', 'key': 'i', 'origWidth': 410, 'origHeight': 410, 'width': 410, 'height': 410, 'widthPercent': 0.45, 'rescaleHeight': False, 'trialN': 93, 'loaded': True, 'loadedTime': 3204.1999999284744, 'positionName': 'RIGHT', 'positionCoords': [748.8, 200], 'bid': 6.15}]",165574.5,1669836864837,Tribe humus pita,cocktailshrimp,6.44,6.15,-0.29000000000000004,cocktailshrimp,1187.2999999523163,1188,1187.6999999284744,True,i,167263.29999995232,1688.7999999523163,1669836866526,1689,HRV,HRV_0228,2022-11-30 19:37:43
94,"[{'imgObject': {}, 'id': 'cherry tomato', 'src': '/static/foodstim60/cherry tomato.jpg', 'key': 'u', 'origWidth': 410, 'origHeight': 410, 'width': 410, 'height': 410, 'widthPercent': 0.45, 'rescaleHeight': False, 'trialN': 94, 'loaded': True, 'loadedTime': 3519.5, 'positionName': 'LEFT', 'positionCoords': [281.2, 200], 'bid': 3.88}, {'imgObject': {}, 'id': 'salad w chicken', 'src': '/static/foodstim60/salad w chicken.jpg', 'key': 'i', 'origWidth': 411, 'origHeight': 411, 'width': 411, 'height': 411, 'widthPercent': 0.45, 'rescaleHeight': False, 'trialN': 94, 'loaded': True, 'loadedTime': 3541.0999999046326, 'positionName': 'RIGHT', 'positionCoords': [748.8, 199.5], 'bid': 6.62}]",167263.59999990463,1669836866526,cherry tomato,salad w chicken,3.88,6.62,2.74,salad w chicken,1123.3000000715256,1124,1123.5,True,i,168895.19999992847,1631.6000000238419,1669836868158,1632,HRV,HRV_0228,2022-11-30 19:37:43
95,"[{'imgObject': {}, 'id': 'Grapes', 'src': '/static/foodstim60/Grapes.jpg', 'key': 'u', 'origWidth': 411, 'origHeight': 411, 'width': 411, 'height': 411, 'widthPercent': 0.45, 'rescaleHeight': False, 'trialN': 95, 'loaded': True, 'loadedTime': 3637.7999999523163, 'positionName': 'LEFT', 'positionCoords': [280.2, 199.5], 'bid': 6.2}, {'imgObject': {}, 'id': 'burrito', 'src': '/static/foodstim60/burrito.jpg', 'key': 'i', 'origWidth': 410, 'origHeight': 410, 'width': 410, 'height': 410, 'widthPercent': 0.45, 'rescaleHeight': False, 'trialN': 95, 'loaded': True, 'loadedTime': 3371.399999976158, 'positionName': 'RIGHT', 'positionCoords': [748.8, 200], 'bid': 5.41}]",168895.39999997616,1669836868158,Grapes,burrito,6.2,5.41,-0.79,burrito,852.7999999523163,853,853.1999999284744,True,i,170254.19999992847,1358.7999999523163,1669836869517,1359,HRV,HRV_0228,2022-11-30 19:37:43
96,"[{'imgObject': {}, 'id': 'popsicles', 'src': '/static/foodstim60/popsicles.jpg', 'key': 'u', 'origWidth': 410, 'origHeight': 410, 'width': 410, 'height': 410, 'widthPercent': 0.45, 'rescaleHeight': False, 'trialN': 96, 'loaded': True, 'loadedTime': 3239.5999999046326, 'positionName': 'LEFT', 'positionCoords': [281.2, 200], 'bid': 0.8}, {'imgObject': {}, 'id': 'bagel plain', 'src': '/static/foodstim60/bagel plain.jpg', 'key': 'i', 'origWidth': 410, 'origHeight': 410, 'width': 410, 'height': 410, 'widthPercent': 0.45, 'rescaleHeight': False, 'trialN': 96, 'loaded': True, 'loadedTime': 3437.7999999523163, 'positionName': 'RIGHT', 'positionCoords': [748.8, 200], 'bid': 2.33}]",170254.29999995232,1669836869517,popsicles,bagel plain,0.8,2.33,1.53,bagel plain,1037.8999999761581,1038,1038.2999999523163,True,i,171798.79999995232,1544.5,1669836871062,1545,HRV,HRV_0228,2022-11-30 19:37:43
97,"[{'imgObject': {}, 'id': 'cantaloupe', 'src': '/static/foodstim60/cantaloupe.jpg', 'key': 'u', 'origWidth': 409, 'origHeight': 409, 'width': 409, 'height': 409, 'widthPercent': 0.45, 'rescaleHeight': False, 'trialN': 97, 'loaded': True, 'loadedTime': 3634.5, 'positionName': 'LEFT', 'positionCoords': [282.2, 200.5], 'bid': 5.18}, {'imgObject': {}, 'id': 'orange slices', 'src': '/static/foodstim60/orange slices.jpg', 'key': 'i', 'origWidth': 409, 'origHeight': 410, 'width': 409, 'height': 410, 'widthPercent': 0.45, 'rescaleHeight': False, 'trialN': 97, 'loaded': True, 'loadedTime': 3626.399999976158, 'positionName': 'RIGHT', 'positionCoords': [748.8, 200], 'bid': 5.47}]",171799.0,1669836871062,cantaloupe,orange slices,5.18,5.47,0.29000000000000004,cantaloupe,1668.7999999523163,1669,1669.0999999046326,True,u,173974.79999995232,2175.7999999523163,1669836873238,2176,HRV,HRV_0228,2022-11-30 19:37:43
98,"[{'imgObject': {}, 'id': 'fruitsalad', 'src': '/static/foodstim60/fruitsalad.jpg', 'key': 'u', 'origWidth': 410, 'origHeight': 410, 'width': 410, 'height': 410, 'widthPercent': 0.45, 'rescaleHeight': False, 'trialN': 98, 'loaded': True, 'loadedTime': 3542.7999999523163, 'positionName': 'LEFT', 'positionCoords': [281.2, 200], 'bid': 6.26}, {'imgObject': {}, 'id': 'cheerios', 'src': '/static/foodstim60/cheerios.jpg', 'key': 'i', 'origWidth': 409, 'origHeight': 410, 'width': 409, 'height': 410, 'widthPercent': 0.45, 'rescaleHeight': False, 'trialN': 98, 'loaded': True, 'loadedTime': 3353.1999999284744, 'positionName': 'RIGHT', 'positionCoords': [748.8, 200], 'bid': 5.45}]",173975.09999990463,1669836873238,fruitsalad,cheerios,6.26,5.45,-0.8099999999999996,fruitsalad,1173.9000000953674,1174,1174.6000000238419,True,u,175655.29999995232,1680.2000000476837,1669836874918,1680,HRV,HRV_0228,2022-11-30 19:37:43
99,"[{'imgObject': {}, 'id': 'blackbeanswithrice', 'src': '/static/foodstim60/blackbeanswithrice.jpg', 'key': 'u', 'origWidth': 410, 'origHeight': 410, 'width': 410, 'height': 410, 'widthPercent': 0.45, 'rescaleHeight': False, 'trialN': 99, 'loaded': True, 'loadedTime': 3197.6999999284744, 'positionName': 'LEFT', 'positionCoords': [281.2, 200], 'bid': 0.66}, {'imgObject': {}, 'id': 'apple slices', 'src': '/static/foodstim60/apple slices.jpg', 'key': 'i', 'origWidth': 409, 'origHeight': 410, 'width': 409, 'height': 410, 'widthPercent': 0.45, 'rescaleHeight': False, 'trialN': 99, 'loaded': True, 'loadedTime': 3584.1999999284744, 'positionName': 'RIGHT', 'positionCoords': [748.8, 200], 'bid': 3.08}]",175655.39999997616,1669836874918,blackbeanswithrice,apple slices,0.66,3.08,2.42,apple slices,743.3999999761581,744,743.6000000238419,True,i,176903.09999990463,1247.6999999284744,1669836876166,1248,HRV,HRV_0228,2022-11-30 19:37:43
100,"[{'imgObject': {}, 'id': 'salmon', 'src': '/static/foodstim60/salmon.jpg', 'key': 'u', 'origWidth': 410, 'origHeight': 409, 'width': 410, 'height': 409, 'widthPercent': 0.45, 'rescaleHeight': False, 'trialN': 100, 'loaded': True, 'loadedTime': 3607.5999999046326, 'positionName': 'LEFT', 'positionCoords': [281.2, 200.5], 'bid': 4.54}, {'imgObject': {}, 'id': 'bagel plain', 'src': '/static/foodstim60/bagel plain.jpg', 'key': 'i', 'origWidth': 410, 'origHeight': 410, 'width': 410, 'height': 410, 'widthPercent': 0.45, 'rescaleHeight': False, 'trialN': 100, 'loaded': True, 'loadedTime': 3438, 'positionName': 'RIGHT', 'positionCoords': [748.8, 200], 'bid': 2.33}]",176903.29999995232,1669836876166,salmon,bagel plain,4.54,2.33,-2.21,salmon,1574.8999999761581,1575,1575.2999999523163,True,u,178982.29999995232,2079.0,1669836878245,2079,HRV,HRV_0228,2022-11-30 19:37:43
101,"[{'imgObject': {}, 'id': 'raisin bran w milk', 'src': '/static/foodstim60/raisin bran w milk.jpg', 'key': 'u', 'origWidth': 411, 'origHeight': 411, 'width': 411, 'height': 411, 'widthPercent': 0.45, 'rescaleHeight': False, 'trialN': 101, 'loaded': True, 'loadedTime': 3436.6999999284744, 'positionName': 'LEFT', 'positionCoords': [280.2, 199.5], 'bid': 7.43}, {'imgObject': {}, 'id': 'tacos', 'src': '/static/foodstim60/tacos.jpg', 'key': 'i', 'origWidth': 411, 'origHeight': 411, 'width': 411, 'height': 411, 'widthPercent': 0.45, 'rescaleHeight': False, 'trialN': 101, 'loaded': True, 'loadedTime': 3231.6999999284744, 'positionName': 'RIGHT', 'positionCoords': [748.8, 199.5], 'bid': 6.38}]",178982.5,1669836878245,raisin bran w milk,tacos,7.43,6.38,-1.0499999999999998,tacos,1124.5,1125,1124.8999999761581,True,i,180615.19999992847,1632.6999999284744,1669836879878,1633,HRV,HRV_0228,2022-11-30 19:37:43
102,"[{'imgObject': {}, 'id': 'corn cob', 'src': '/static/foodstim60/corn cob.jpg', 'key': 'u', 'origWidth': 411, 'origHeight': 411, 'width': 411, 'height': 411, 'widthPercent': 0.45, 'rescaleHeight': False, 'trialN': 102, 'loaded': True, 'loadedTime': 3628.7999999523163, 'positionName': 'LEFT', 'positionCoords': [280.2, 199.5], 'bid': 3.62}, {'imgObject': {}, 'id': 'sweetpotato', 'src': '/static/foodstim60/sweetpotato.jpg', 'key': 'i', 'origWidth': 410, 'origHeight': 410, 'width': 410, 'height': 410, 'widthPercent': 0.45, 'rescaleHeight': False, 'trialN': 102, 'loaded': True, 'loadedTime': 3639.899999976158, 'positionName': 'RIGHT', 'positionCoords': [748.8, 200], 'bid': 3.25}]",180615.29999995232,1669836879878,corn cob,sweetpotato,3.62,3.25,-0.3700000000000001,corn cob,1173.2000000476837,1174,1173.7999999523163,True,u,182295.29999995232,1680.0,1669836881558,1680,HRV,HRV_0228,2022-11-30 19:37:43
103,"[{'imgObject': {}, 'id': 'omelette', 'src': '/static/foodstim60/omelette.jpg', 'key': 'u', 'origWidth': 410, 'origHeight': 409, 'width': 410, 'height': 409, 'widthPercent': 0.45, 'rescaleHeight': False, 'trialN': 103, 'loaded': True, 'loadedTime': 3622.5, 'positionName': 'LEFT', 'positionCoords': [281.2, 200.5], 'bid': 6.29}, {'imgObject': {}, 'id': 'tacos', 'src': '/static/foodstim60/tacos.jpg', 'key': 'i', 'origWidth': 411, 'origHeight': 411, 'width': 411, 'height': 411, 'widthPercent': 0.45, 'rescaleHeight': False, 'trialN': 103, 'loaded': True, 'loadedTime': 3232.5, 'positionName': 'RIGHT', 'positionCoords': [748.8, 199.5], 'bid': 6.38}]",182295.59999990463,1669836881558,omelette,tacos,6.29,6.38,0.08999999999999986,tacos,1290.1000000238419,1291,1290.3000000715256,True,i,184086.69999992847,1791.1000000238419,1669836883349,1791,HRV,HRV_0228,2022-11-30 19:37:43
104,"[{'imgObject': {}, 'id': 'burger', 'src': '/static/foodstim60/burger.jpg', 'key': 'u', 'origWidth': 409, 'origHeight': 409, 'width': 409, 'height': 409, 'widthPercent': 0.45, 'rescaleHeight': False, 'trialN': 104, 'loaded': True, 'loadedTime': 3216, 'positionName': 'LEFT', 'positionCoords': [282.2, 200.5], 'bid': 5.08}, {'imgObject': {}, 'id': 'avocado', 'src': '/static/foodstim60/avocado.jpg', 'key': 'i', 'origWidth': 409, 'origHeight': 409, 'width': 409, 'height': 409, 'widthPercent': 0.45, 'rescaleHeight': False, 'trialN': 104, 'loaded': True, 'loadedTime': 3206.7999999523163, 'positionName': 'RIGHT', 'positionCoords': [748.8, 200.5], 'bid': 1.4}]",184086.79999995232,1669836883350,burger,avocado,5.08,1.4,-3.68,burger,751.1000000238419,751,751.6000000238419,True,u,185343.39999997616,1256.6000000238419,1669836884606,1256,HRV,HRV_0228,2022-11-30 19:37:43
105,"[{'imgObject': {}, 'id': 'lox', 'src': '/static/foodstim60/lox.jpg', 'key': 'u', 'origWidth': 410, 'origHeight': 411, 'width': 410, 'height': 411, 'widthPercent': 0.45, 'rescaleHeight': False, 'trialN': 105, 'loaded': True, 'loadedTime': 3277.6999999284744, 'positionName': 'LEFT', 'positionCoords': [281.2, 199.5], 'bid': 3.66}, {'imgObject': {}, 'id': 'hashbrowns', 'src': '/static/foodstim60/hashbrowns.jpg', 'key': 'i', 'origWidth': 411, 'origHeight': 410, 'width': 411, 'height': 410, 'widthPercent': 0.45, 'rescaleHeight': False, 'trialN': 105, 'loaded': True, 'loadedTime': 3636.399999976158, 'positionName': 'RIGHT', 'positionCoords': [748.8, 200], 'bid': 0.95}]",185343.5,1669836884606,lox,hashbrowns,3.66,0.95,-2.71,lox,2911.2999999523163,2912,2911.5999999046326,True,u,188759.29999995232,3415.7999999523163,1669836888022,3416,HRV,HRV_0228,2022-11-30 19:37:43
106,"[{'imgObject': {}, 'id': 'hashbrowns', 'src': '/static/foodstim60/hashbrowns.jpg', 'key': 'u', 'origWidth': 411, 'origHeight': 410, 'width': 411, 'height': 410, 'widthPercent': 0.45, 'rescaleHeight': False, 'trialN': 106, 'loaded': True, 'loadedTime': 3635.6999999284744, 'positionName': 'LEFT', 'positionCoords': [280.2, 200], 'bid': 0.95}, {'imgObject': {}, 'id': 'salmon', 'src': '/static/foodstim60/salmon.jpg', 'key': 'i', 'origWidth': 410, 'origHeight': 409, 'width': 410, 'height': 409, 'widthPercent': 0.45, 'rescaleHeight': False, 'trialN': 106, 'loaded': True, 'loadedTime': 3606.0999999046326, 'positionName': 'RIGHT', 'positionCoords': [748.8, 200.5], 'bid': 4.54}]",188759.39999997616,1669836888022,hashbrowns,salmon,0.95,4.54,3.59,salmon,1365.5,1366,1366.0,True,i,190627.19999992847,1867.7999999523163,1669836889890,1868,HRV,HRV_0228,2022-11-30 19:37:43
107,"[{'imgObject': {}, 'id': 'bagel plain', 'src': '/static/foodstim60/bagel plain.jpg', 'key': 'u', 'origWidth': 410, 'origHeight': 410, 'width': 410, 'height': 410, 'widthPercent': 0.45, 'rescaleHeight': False, 'trialN': 107, 'loaded': True, 'loadedTime': 3437.899999976158, 'positionName': 'LEFT', 'positionCoords': [281.2, 200], 'bid': 2.33}, {'imgObject': {}, 'id': 'cantaloupe', 'src': '/static/foodstim60/cantaloupe.jpg', 'key': 'i', 'origWidth': 409, 'origHeight': 409, 'width': 409, 'height': 409, 'widthPercent': 0.45, 'rescaleHeight': False, 'trialN': 107, 'loaded': True, 'loadedTime': 3634.2999999523163, 'positionName': 'RIGHT', 'positionCoords': [748.8, 200.5], 'bid': 5.18}]",190627.39999997616,1669836889890,bagel plain,cantaloupe,2.33,5.18,2.8499999999999996,cantaloupe,1708.2999999523163,1709,1708.6999999284744,True,i,192838.5,2211.100000023842,1669836892101,2211,HRV,HRV_0228,2022-11-30 19:37:43
108,"[{'imgObject': {}, 'id': 'kiwi', 'src': '/static/foodstim60/kiwi.jpg', 'key': 'u', 'origWidth': 410, 'origHeight': 410, 'width': 410, 'height': 410, 'widthPercent': 0.45, 'rescaleHeight': False, 'trialN': 108, 'loaded': True, 'loadedTime': 3224.7999999523163, 'positionName': 'LEFT', 'positionCoords': [281.2, 200], 'bid': 1.94}, {'imgObject': {}, 'id': 'Grapes', 'src': '/static/foodstim60/Grapes.jpg', 'key': 'i', 'origWidth': 411, 'origHeight': 411, 'width': 411, 'height': 411, 'widthPercent': 0.45, 'rescaleHeight': False, 'trialN': 108, 'loaded': True, 'loadedTime': 3637.6999999284744, 'positionName': 'RIGHT', 'positionCoords': [748.8, 199.5], 'bid': 6.2}]",192839.0,1669836892102,kiwi,Grapes,1.94,6.2,4.26,Grapes,912.8999999761581,913,913.3999999761581,True,i,194254.29999995232,1415.2999999523163,1669836893517,1415,HRV,HRV_0228,2022-11-30 19:37:43
