success,trial_type,trial_index,time_elapsed,internal_node_id,missTrial,missTrialMsg,Block,TrialNumber,TrialTime,trialTimeDiff,FPS_avg,FPS_med,FPS_mode,TrialDur,winResizeTime,rt,block,button_pressed,MotCoh,MotDir,ColCoh,Color,ChoiceKey,Choice,Accuracy,RT,nFrames,FPS,PPD,onsetDelay,fullScreenExitTime,canvCenter,TrialType,Score,BlockTrial,stimulus,button_labels,exp,subjectId,date
True,fullscreen,0,12394,0.0-0.0,True,undefinedblurEvent ,0.0,0.0,,,,,,,,,,,,,,,,,,,,,,,,,,,,,,HRV,HRV_0228,2022-11-30 19:59:56
,wl-check-fps,1,17401,0.0-1.0,,,0.0,1.0,"[12815.6, 12829.8, 12846, 12864, 12879.7, 12896.8, 12912.5, 12929.3, 12946.8, 12962.8, 12979.8, 12996.1, 13012.9, 13030.6, 13047, 13063.4, 13079.9, 13096.2, 13113.6, 13129.8, 13146.9, 13165.3, 13179.7, 13195.6, 13213.7, 13229.7, 13247.1, 13263, 13280.1, 13297.7, 13313.8, 13331.2, 13347, 13363.1, 13381.2, 13396.1, 13413.9, 13429.9, 13446.7, 13463.8, 13480.9, 13496.8, 13513.3, 13529.3, 13546.2, 13562.5, 13579.6, 13596.5, 13612.7, 13629.7, 13645.7, 13664, 13679.7, 13696.8, 13712.7, 13729.7, 13745.8, 13764.2, 13779.7, 13796.9, 13813.7, 13829.7, 13845.7, 13863.9, 13879.6, 13896.7, 13913.6, 13930.8, 13946.8, 13963.8, 13979.6, 13996.9, 14012.9, 14029.7, 14045.9, 14063.8, 14080.6, 14096.8, 14112.7, 14129.9, 14146.8, 14163.3, 14180.4, 14197.5, 14213.9, 14229.9, 14246.9, 14264, 14279.8, 14296.8, 14312.7, 14329.7, 14345.8, 14363.6, 14379.8, 14395.8, 14413, 14429.8, 14445.9, 14464, 14480.2, 14496.1, 14512.9, 14529.8, 14545.9, 14563.1, 14579.2, 14596.7, 14612.7, 14628.8, 14646.7, 14662.7, 14680.8, 14695.7, 14712.8, 14729.8, 14746.8, 14762.8, 14778.9, 14796.8, 14813.9, 14828.9, 14845.9, 14864.1, 14878.8, 14896, 14912.9, 14928.9, 14945.9, 14962.9, 14978.9, 14997.3, 15014.1, 15029.8, 15047, 15064, 15082.5, 15095.8, 15113, 15128.9, 15145.9, 15163.7, 15180.9, 15196.8, 15213.9, 15228.9, 15246.9, 15263.9, 15279.7, 15296.7, 15312.7, 15329.7, 15346.7, 15363.6, 15379.7, 15397.1, 15413.7, 15429.7, 15445.7, 15462.8, 15479.7, 15496.8, 15513.7, 15530.6, 15546.6, 15562.6, 15579.6, 15596.5, 15612.7, 15629.7, 15646.8, 15663.6, 15679.7, 15695.7, 15713.1, 15729.8, 15745.7, 15762.1, 15779, 15796.2, 15812.7, 15829.6, 15845.8, 15863.9, 15879.6, 15895.7, 15913.8, 15928.8, 15945.7, 15963, 15979.7, 15996.9, 16012.7, 16029.7, 16046.8, 16063.8, 16079.8, 16096.8, 16112.7, 16129.6, 16145.9, 16163.1, 16179.7, 16195.7, 16213.2, 16230.1, 16245.6, 16263.3, 16280.3, 16296.2, 16312.3, 16330.2, 16346.1, 16362.3, 16380.3, 16397.4, 16412.9, 16430.6, 16445.5, 16462.5, 16479.5, 16495.8, 16513.2, 16530.2, 16546.7, 16563.5, 16580.6, 16596.5, 16612.7, 16629.8, 16645.7, 16662.7, 16678.8, 16696.7, 16712.7, 16729.8, 16746.7, 16762.8, 16778.9, 16797.4, 16813.9, 16828.7, 16845.7, 16863.8, 16878.8, 16895.7, 16912.5, 16929.6, 16945.5, 16963.6, 16979.4, 16996.1, 17013, 17029, 17047.1, 17063.9, 17080.9, 17095.9, 17112.9, 17129.7, 17146.4, 17162.5, 17179.7, 17196.7, 17212.7, 17229.8, 17246.5, 17263.8, 17280.9, 17296.8, 17312.5, 17329.7, 17345.8, 17362.7, 17378.7, 17396.7, 17412.7, 17428.8, 17445.9, 17462.8, 17478.8, 17496.6, 17513.1, 17529.1, 17547.1, 17563.5, 17579.6, 17595.8, 17612.9, 17630.3, 17646, 17663, 17679.7, 17695.6, 17713, 17729.7, 17745.6, 17763.8, 17779.6, 17796.6]","[5.6, 14.2, 16.2, 18, 15.7, 17.1, 15.7, 16.8, 17.5, 16, 17, 16.3, 16.8, 17.7, 16.4, 16.4, 16.5, 16.3, 17.4, 16.2, 17.1, 18.4, 14.4, 15.9, 18.1, 16, 17.4, 15.9, 17.1, 17.6, 16.1, 17.4, 15.8, 16.1, 18.1, 14.9, 17.8, 16, 16.8, 17.1, 17.1, 15.9, 16.5, 16, 16.9, 16.3, 17.1, 16.9, 16.2, 17, 16, 18.3, 15.7, 17.1, 15.9, 17, 16.1, 18.4, 15.5, 17.2, 16.8, 16, 16, 18.2, 15.7, 17.1, 16.9, 17.2, 16, 17, 15.8, 17.3, 16, 16.8, 16.2, 17.9, 16.8, 16.2, 15.9, 17.2, 16.9, 16.5, 17.1, 17.1, 16.4, 16, 17, 17.1, 15.8, 17, 15.9, 17, 16.1, 17.8, 16.2, 16, 17.2, 16.8, 16.1, 18.1, 16.2, 15.9, 16.8, 16.9, 16.1, 17.2, 16.1, 17.5, 16, 16.1, 17.9, 16, 18.1, 14.9, 17.1, 17, 17, 16, 16.1, 17.9, 17.1, 15, 17, 18.2, 14.7, 17.2, 16.9, 16, 17, 17, 16, 18.4, 16.8, 15.7, 17.2, 17, 18.5, 13.3, 17.2, 15.9, 17, 17.8, 17.2, 15.9, 17.1, 15, 18, 17, 15.8, 17, 16, 17, 17, 16.9, 16.1, 17.4, 16.6, 16, 16, 17.1, 16.9, 17.1, 16.9, 16.9, 16, 16, 17, 16.9, 16.2, 17, 17.1, 16.8, 16.1, 16, 17.4, 16.7, 15.9, 16.4, 16.9, 17.2, 16.5, 16.9, 16.2, 18.1, 15.7, 16.1, 18.1, 15, 16.9, 17.3, 16.7, 17.2, 15.8, 17, 17.1, 17, 16, 17, 15.9, 16.9, 16.3, 17.2, 16.6, 16, 17.5, 16.9, 15.5, 17.7, 17, 15.9, 16.1, 17.9, 15.9, 16.2, 18, 17.1, 15.5, 17.7, 14.9, 17, 17, 16.3, 17.4, 17, 16.5, 16.8, 17.1, 15.9, 16.2, 17.1, 15.9, 17, 16.1, 17.9, 16, 17.1, 16.9, 16.1, 16.1, 18.5, 16.5, 14.8, 17, 18.1, 15, 16.9, 16.8, 17.1, 15.9, 18.1, 15.8, 16.7, 16.9, 16, 18.1, 16.8, 17, 15, 17, 16.8, 16.7, 16.1, 17.2, 17, 16, 17.1, 16.7, 17.3, 17.1, 15.9, 15.7, 17.2, 16.1, 16.9, 16, 18, 16, 16.1, 17.1, 16.9, 16, 17.8, 16.5, 16, 18, 16.4, 16.1, 16.2, 17.1, 17.4, 15.7, 17, 16.7, 15.9, 17.4, 16.7, 15.9, 18.2, 15.8, 17]",60.0,61.0,59.0,5003.8,[],,,,,,,,,,,,,,,,,,,,,,,HRV,HRV_0228,2022-11-30 19:59:56
,wl-html-keyboard-response,2,30156,0.0-2.0-0.0,,,0.0,2.0,,,,,,,,10743.399999976158,0.0,0,,,,,,,,,,,,,,,,,,,,HRV,HRV_0228,2022-11-30 19:59:56
,wl-rdm,3,37049,0.0-3.0-0.0,False,,0.0,3.0,,,,,,,[],,,,0.0,0.0,87.9,0.0,u,0.0,True,1318.1999999284744,79.0,59.0,40.0,3000.0,[],"[720, 405]",ColorTask_Demo,,,,,HRV,HRV_0228,2022-11-30 19:59:56
,wl-rdm,4,41782,0.0-3.0-1.0,False,,0.0,4.0,,,,,,,[],,,,0.0,0.0,87.9,1.0,i,1.0,True,639.0,39.0,59.0,40.0,2000.0,[],"[720, 405]",ColorTask_Demo,,,,,HRV,HRV_0228,2022-11-30 19:59:56
,wl-html-keyboard-response,5,45756,0.0-3.0-2.0,,,0.0,5.0,,,,,,,,1964.3999999761581,0.0,1,,,,,,,,,,,,,,,,,,,,HRV,HRV_0228,2022-11-30 19:59:56
,wl-html-keyboard-response,6,53427,0.0-4.0-0.0,,,0.0,6.0,,,,,,,,5667.700000047684,0.0,0,,,,,,,,,,,,,,,,,,,,HRV,HRV_0228,2022-11-30 19:59:56
,wl-html-keyboard-response,7,60827,0.0-5.0-0.0,,,0.0,7.0,,,,,,,,5395.0,0.0,0,,,,,,,,,,,,,,,,,,,,HRV,HRV_0228,2022-11-30 19:59:56
,wl-rdm,8,62948,0.0-6.0-0.0,False,,0.0,8.0,,,,,,,[],,,,,,50.0,1.0,i,1.0,True,841.7999999523163,51.0,59.0,40.0,222.4133572050817,[],"[720, 405]",ColorTask,1.0,1.0,,,HRV,HRV_0228,2022-11-30 19:59:56
,wl-rdm,9,65448,0.0-6.1-0.1,False,,0.0,9.0,,,,,,,[],,,,,,62.5,0.0,i,1.0,False,1099.7999999523163,66.0,59.0,40.0,332.36145759060435,[],"[720, 405]",ColorTask,0.0,2.0,,,HRV,HRV_0228,2022-11-30 19:59:56
,wl-rdm,10,68182,0.0-6.2-0.2,False,,0.0,10.0,,,,,,,[],,,,,,50.0,0.0,u,0.0,True,1349.8999999761581,81.0,59.0,40.0,312.03293292755,[],"[720, 405]",ColorTask,1.0,3.0,,,HRV,HRV_0228,2022-11-30 19:59:56
,wl-rdm,11,70332,0.0-6.3-0.3,False,,0.0,11.0,,,,,,,[],,,,,,56.4,0.0,u,0.0,True,844.5,51.0,59.0,40.0,242.4447994177657,[],"[720, 405]",ColorTask,2.0,4.0,,,HRV,HRV_0228,2022-11-30 19:59:56
,wl-rdm,12,72631,0.0-6.4-0.4,False,,0.0,12.0,,,,,,,[],,,,,,50.0,0.0,i,1.0,False,960.3999999761581,58.0,59.0,40.0,259.7153356652344,[],"[720, 405]",ColorTask,1.0,5.0,,,HRV,HRV_0228,2022-11-30 19:59:56
,wl-rdm,13,75048,0.0-6.5-0.5,False,,0.0,13.0,,,,,,,[],,,,,,50.0,0.0,u,0.0,True,988.0,60.0,59.0,40.0,357.4433500048656,[],"[720, 405]",ColorTask,2.0,6.0,,,HRV,HRV_0228,2022-11-30 19:59:56
,wl-rdm,14,77464,0.0-6.6-0.6,False,,0.0,14.0,,,,,,,[],,,,,,56.4,0.0,u,0.0,True,991.4000000953674,60.0,59.0,40.0,356.83904556000857,[],"[720, 405]",ColorTask,3.0,7.0,,,HRV,HRV_0228,2022-11-30 19:59:56
,wl-rdm,15,79531,0.0-6.7-0.7,False,,0.0,15.0,,,,,,,[],,,,,,53.2,1.0,i,1.0,True,673.3999999761581,41.0,59.0,40.0,307.03819966619403,[],"[720, 405]",ColorTask,4.0,8.0,,,HRV,HRV_0228,2022-11-30 19:59:56
,wl-rdm,16,81881,0.0-6.8-0.8,False,,0.0,16.0,,,,,,,[],,,,,,62.5,0.0,u,0.0,True,1008.2999999523163,61.0,59.0,40.0,271.50572963405625,[],"[720, 405]",ColorTask,5.0,9.0,,,HRV,HRV_0228,2022-11-30 19:59:56
,wl-rdm,17,83931,0.0-6.9-0.9,False,,0.0,17.0,,,,,,,[],,,,,,56.4,0.0,i,1.0,False,675.7999999523163,41.0,59.0,40.0,300.21987405310233,[],"[720, 405]",ColorTask,4.0,10.0,,,HRV,HRV_0228,2022-11-30 19:59:56
,wl-rdm,18,86131,0.0-6.10-0.10,False,,0.0,18.0,,,,,,,[],,,,,,53.2,0.0,u,0.0,True,751.5,46.0,59.0,40.0,353.4962840639621,[],"[720, 405]",ColorTask,5.0,11.0,,,HRV,HRV_0228,2022-11-30 19:59:56
,wl-rdm,19,88164,0.0-6.11-0.11,False,,0.0,19.0,,,,,,,[],,,,,,56.4,1.0,i,1.0,True,707.7999999523163,43.0,59.0,40.0,234.336131283692,[],"[720, 405]",ColorTask,6.0,12.0,,,HRV,HRV_0228,2022-11-30 19:59:56
,wl-rdm,20,90448,0.0-6.12-0.12,False,,0.0,20.0,,,,,,,[],,,,,,62.5,0.0,u,0.0,True,908.2999999523163,55.0,59.0,40.0,311.7762137440749,[],"[720, 405]",ColorTask,7.0,13.0,,,HRV,HRV_0228,2022-11-30 19:59:56
,wl-rdm,21,92614,0.0-6.13-0.13,False,,0.0,21.0,,,,,,,[],,,,,,50.0,0.0,i,1.0,False,803.7000000476837,49.0,59.0,40.0,299.3127780974218,[],"[720, 405]",ColorTask,6.0,14.0,,,HRV,HRV_0228,2022-11-30 19:59:56
,wl-rdm,22,94714,0.0-6.14-0.14,False,,0.0,22.0,,,,,,,[],,,,,,50.0,1.0,i,1.0,True,788.5,48.0,59.0,40.0,237.93296332336848,[],"[720, 405]",ColorTask,7.0,15.0,,,HRV,HRV_0228,2022-11-30 19:59:56
,wl-rdm,23,96797,0.0-6.15-0.15,False,,0.0,23.0,,,,,,,[],,,,,,62.5,0.0,i,1.0,False,781.4000000953674,47.0,59.0,40.0,235.9135243983149,[],"[720, 405]",ColorTask,6.0,16.0,,,HRV,HRV_0228,2022-11-30 19:59:56
,wl-rdm,24,98830,0.0-6.16-0.16,False,,0.0,24.0,,,,,,,[],,,,,,62.5,1.0,i,1.0,True,643.6000000238419,39.0,59.0,40.0,312.50055479172374,[],"[720, 405]",ColorTask,7.0,17.0,,,HRV,HRV_0228,2022-11-30 19:59:56
,wl-rdm,25,101096,0.0-6.17-0.17,False,,0.0,25.0,,,,,,,[],,,,,,73.6,1.0,i,1.0,True,852.3999999761581,52.0,59.0,40.0,346.4749666634033,[],"[720, 405]",ColorTask,8.0,18.0,,,HRV,HRV_0228,2022-11-30 19:59:56
,wl-rdm,26,103064,0.0-6.18-0.18,False,,0.0,26.0,,,,,,,[],,,,,,87.9,0.0,u,0.0,True,659.3999998569489,40.0,59.0,40.0,219.37215143644244,[],"[720, 405]",ColorTask,9.0,19.0,,,HRV,HRV_0228,2022-11-30 19:59:56
,wl-rdm,27,104896,0.0-6.19-0.19,False,,0.0,27.0,,,,,,,[],,,,,,73.6,0.0,u,0.0,True,559.6000000238419,34.0,59.0,40.0,205.8112607342416,[],"[720, 405]",ColorTask,10.0,20.0,,,HRV,HRV_0228,2022-11-30 19:59:56
,wl-rdm,28,106847,0.0-6.20-0.20,False,,0.0,28.0,,,,,,,[],,,,,,53.2,1.0,i,1.0,True,594.7000000476837,36.0,59.0,40.0,294.4078859463357,[],"[720, 405]",ColorTask,11.0,21.0,,,HRV,HRV_0228,2022-11-30 19:59:56
,wl-rdm,29,108813,0.0-6.21-0.21,False,,0.0,29.0,,,,,,,[],,,,,,50.0,1.0,i,1.0,True,656.2999999523163,40.0,59.0,40.0,236.0438429913657,[],"[720, 405]",ColorTask,12.0,22.0,,,HRV,HRV_0228,2022-11-30 19:59:56
,wl-rdm,30,110697,0.0-6.22-0.22,False,,0.0,30.0,,,,,,,[],,,,,,87.9,1.0,i,1.0,True,580.3999998569489,35.0,59.0,40.0,219.8460138267977,[],"[720, 405]",ColorTask,13.0,23.0,,,HRV,HRV_0228,2022-11-30 19:59:56
,wl-rdm,31,112829,0.0-6.23-0.23,False,,0.0,31.0,,,,,,,[],,,,,,73.6,0.0,u,0.0,True,702.1999999284744,43.0,59.0,40.0,335.567012426204,[],"[720, 405]",ColorTask,14.0,24.0,,,HRV,HRV_0228,2022-11-30 19:59:56
,wl-rdm,32,114763,0.0-6.24-0.24,False,,0.0,32.0,,,,,,,[],,,,,,56.4,0.0,u,0.0,True,605.5,37.0,59.0,40.0,245.7402146995105,[],"[720, 405]",ColorTask,15.0,25.0,,,HRV,HRV_0228,2022-11-30 19:59:56
,wl-rdm,33,116829,0.0-6.25-0.25,False,,0.0,33.0,,,,,,,[],,,,,,62.5,0.0,u,0.0,True,651.8999999761581,39.0,59.0,40.0,335.2440447828585,[],"[720, 405]",ColorTask,16.0,26.0,,,HRV,HRV_0228,2022-11-30 19:59:56
,wl-rdm,34,118730,0.0-6.26-0.26,False,,0.0,34.0,,,,,,,[],,,,,,62.5,1.0,i,1.0,True,546.1000000238419,33.0,59.0,40.0,287.7662846115557,[],"[720, 405]",ColorTask,17.0,27.0,,,HRV,HRV_0228,2022-11-30 19:59:56
,wl-rdm,35,121013,0.0-6.27-0.27,False,,0.0,35.0,,,,,,,[],,,,,,53.2,0.0,u,0.0,True,912.6000000238419,54.0,59.0,40.0,309.355084826966,[],"[720, 405]",ColorTask,18.0,28.0,,,HRV,HRV_0228,2022-11-30 19:59:56
,wl-rdm,36,123080,0.0-6.28-0.28,False,,0.0,36.0,,,,,,,[],,,,,,56.4,1.0,i,1.0,True,781.0000001192093,47.0,59.0,40.0,229.21091683882798,[],"[720, 405]",ColorTask,19.0,29.0,,,HRV,HRV_0228,2022-11-30 19:59:56
,wl-rdm,37,125197,0.0-6.29-0.29,False,,0.0,37.0,,,,,,,[],,,,,,53.2,1.0,i,1.0,True,751.2999999523163,46.0,59.0,40.0,268.42539437624856,[],"[720, 405]",ColorTask,20.0,30.0,,,HRV,HRV_0228,2022-11-30 19:59:56
,wl-rdm,38,127430,0.0-6.30-0.30,False,,0.0,38.0,,,,,,,[],,,,,,56.4,1.0,u,0.0,False,927.0000001192093,56.0,59.0,40.0,236.11758579813173,[],"[720, 405]",ColorTask,19.0,31.0,,,HRV,HRV_0228,2022-11-30 19:59:56
,wl-rdm,39,129746,0.0-6.31-0.31,False,,0.0,39.0,,,,,,,[],,,,,,56.4,1.0,i,1.0,True,970.3999999761581,59.0,59.0,40.0,276.77653308998606,[],"[720, 405]",ColorTask,20.0,32.0,,,HRV,HRV_0228,2022-11-30 19:59:56
,wl-rdm,40,131779,0.0-6.32-0.32,False,,0.0,40.0,,,,,,,[],,,,,,50.0,1.0,i,1.0,True,699.6999999284744,42.0,59.0,40.0,254.77705522810277,[],"[720, 405]",ColorTask,21.0,33.0,,,HRV,HRV_0228,2022-11-30 19:59:56
,wl-rdm,41,133846,0.0-6.33-0.33,False,,0.0,41.0,,,,,,,[],,,,,,53.2,0.0,i,1.0,False,776.5,47.0,59.0,40.0,223.83940431711014,[],"[720, 405]",ColorTask,20.0,34.0,,,HRV,HRV_0228,2022-11-30 19:59:56
,wl-rdm,42,135829,0.0-6.34-0.34,False,,0.0,42.0,,,,,,,[],,,,,,73.6,0.0,u,0.0,True,547.0,33.0,59.0,40.0,352.307036633651,[],"[720, 405]",ColorTask,21.0,35.0,,,HRV,HRV_0228,2022-11-30 19:59:56
,wl-rdm,43,137713,0.0-6.35-0.35,False,,0.0,43.0,,,,,,,[],,,,,,50.0,0.0,i,1.0,False,581.2000000476837,35.0,59.0,40.0,243.56935689606394,[],"[720, 405]",ColorTask,20.0,36.0,,,HRV,HRV_0228,2022-11-30 19:59:56
,wl-rdm,44,140012,0.0-6.36-0.36,False,,0.0,44.0,,,,,,,[],,,,,,56.4,0.0,u,0.0,True,1017.4999998807907,62.0,59.0,40.0,208.63223690207712,[],"[720, 405]",ColorTask,21.0,37.0,,,HRV,HRV_0228,2022-11-30 19:59:56
,wl-rdm,45,142046,0.0-6.37-0.37,False,,0.0,45.0,,,,,,,[],,,,,,87.9,1.0,i,1.0,True,683.0,41.0,59.0,40.0,276.70613639753236,[],"[720, 405]",ColorTask,22.0,38.0,,,HRV,HRV_0228,2022-11-30 19:59:56
,wl-rdm,46,143963,0.0-6.38-0.38,False,,0.0,46.0,,,,,,,[],,,,,,87.9,0.0,u,0.0,True,563.7999999523163,34.0,59.0,40.0,276.1093366232405,[],"[720, 405]",ColorTask,23.0,39.0,,,HRV,HRV_0228,2022-11-30 19:59:56
,wl-rdm,47,146112,0.0-6.39-0.39,False,,0.0,47.0,,,,,,,[],,,,,,50.0,0.0,i,1.0,False,856.6999999284744,52.0,59.0,40.0,215.02895645474078,[],"[720, 405]",ColorTask,22.0,40.0,,,HRV,HRV_0228,2022-11-30 19:59:56
,wl-rdm,48,148029,0.0-6.40-0.40,False,,0.0,48.0,,,,,,,[],,,,,,87.9,0.0,u,0.0,True,560.9000000953674,34.0,59.0,40.0,283.292806244757,[],"[720, 405]",ColorTask,23.0,41.0,,,HRV,HRV_0228,2022-11-30 19:59:56
,wl-rdm,49,150096,0.0-6.41-0.41,False,,0.0,49.0,,,,,,,[],,,,,,73.6,1.0,i,1.0,True,604.8000000715256,37.0,59.0,40.0,377.53701504562275,[],"[720, 405]",ColorTask,24.0,42.0,,,HRV,HRV_0228,2022-11-30 19:59:56
,wl-rdm,50,152395,0.0-6.42-0.42,False,,0.0,50.0,,,,,,,[],,,,,,56.4,0.0,u,0.0,True,905.0,55.0,59.0,40.0,326.63327753323586,[],"[720, 405]",ColorTask,25.0,43.0,,,HRV,HRV_0228,2022-11-30 19:59:56
,wl-rdm,51,154446,0.0-6.43-0.43,False,,0.0,51.0,,,,,,,[],,,,,,62.5,1.0,i,1.0,True,675.6000000238419,41.0,59.0,40.0,307.40899293116456,[],"[720, 405]",ColorTask,26.0,44.0,,,HRV,HRV_0228,2022-11-30 19:59:56
,wl-rdm,52,156478,0.0-6.44-0.44,False,,0.0,52.0,,,,,,,[],,,,,,62.5,1.0,i,1.0,True,676.3000000715256,41.0,59.0,40.0,282.54595099038715,[],"[720, 405]",ColorTask,27.0,45.0,,,HRV,HRV_0228,2022-11-30 19:59:56
,wl-rdm,53,158363,0.0-6.45-0.45,False,,0.0,53.0,,,,,,,[],,,,,,73.6,0.0,u,0.0,True,573.2999999523163,35.0,59.0,40.0,250.28207134907885,[],"[720, 405]",ColorTask,28.0,46.0,,,HRV,HRV_0228,2022-11-30 19:59:56
,wl-rdm,54,160812,0.0-6.46-0.46,False,,0.0,54.0,,,,,,,[],,,,,,56.4,0.0,u,0.0,True,1027.1000000238419,62.0,59.0,40.0,349.08796404038526,[],"[720, 405]",ColorTask,29.0,47.0,,,HRV,HRV_0228,2022-11-30 19:59:56
,wl-rdm,55,162778,0.0-6.47-0.47,False,,0.0,55.0,,,,,,,[],,,,,,50.0,1.0,i,1.0,True,614.8999999761581,37.0,59.0,40.0,288.2786623834228,[],"[720, 405]",ColorTask,30.0,48.0,,,HRV,HRV_0228,2022-11-30 19:59:56
,wl-rdm,56,165211,0.0-6.48-0.48,False,,0.0,56.0,,,,,,,[],,,,,,50.0,0.0,i,1.0,False,1154.0,70.0,59.0,40.0,202.0142298487922,[],"[720, 405]",ColorTask,29.0,49.0,,,HRV,HRV_0228,2022-11-30 19:59:56
,wl-rdm,57,167144,0.0-6.49-0.49,False,,0.0,57.0,,,,,,,[],,,,,,62.5,0.0,u,0.0,True,589.0,36.0,59.0,40.0,262.2182877192664,[],"[720, 405]",ColorTask,30.0,50.0,,,HRV,HRV_0228,2022-11-30 19:59:56
,wl-rdm,58,169462,0.0-6.50-0.50,False,,0.0,58.0,,,,,,,[],,,,,,50.0,1.0,u,0.0,False,1030.7999999523163,62.0,59.0,40.0,207.25412943156246,[],"[720, 405]",ColorTask,29.0,51.0,,,HRV,HRV_0228,2022-11-30 19:59:56
,wl-rdm,59,171462,0.0-6.51-0.51,False,,0.0,59.0,,,,,,,[],,,,,,73.6,1.0,i,1.0,True,592.1000000238419,36.0,59.0,40.0,322.1996952636458,[],"[720, 405]",ColorTask,30.0,52.0,,,HRV,HRV_0228,2022-11-30 19:59:56
,wl-rdm,60,173694,0.0-6.52-0.52,False,,0.0,60.0,,,,,,,[],,,,,,53.2,0.0,u,0.0,True,947.7000000476837,57.0,59.0,40.0,230.09595909956818,[],"[720, 405]",ColorTask,31.0,53.0,,,HRV,HRV_0228,2022-11-30 19:59:56
,wl-rdm,61,175729,0.0-6.53-0.53,False,,0.0,61.0,,,,,,,[],,,,,,53.2,1.0,i,1.0,True,688.3999999761581,42.0,59.0,40.0,251.8773647359518,[],"[720, 405]",ColorTask,32.0,54.0,,,HRV,HRV_0228,2022-11-30 19:59:56
,wl-rdm,62,178261,0.0-6.54-0.54,False,,0.0,62.0,,,,,,,[],,,,,,53.2,1.0,i,1.0,True,1152.0,70.0,59.0,40.0,317.7236161446209,[],"[720, 405]",ColorTask,33.0,55.0,,,HRV,HRV_0228,2022-11-30 19:59:56
,wl-rdm,63,180678,0.0-6.55-0.55,False,,0.0,63.0,,,,,,,[],,,,,,53.2,1.0,u,0.0,False,1004.8000000715256,61.0,59.0,40.0,338.92069969913933,[],"[720, 405]",ColorTask,32.0,56.0,,,HRV,HRV_0228,2022-11-30 19:59:56
,wl-rdm,64,183245,0.0-6.56-0.56,False,,0.0,64.0,,,,,,,[],,,,,,56.4,1.0,u,0.0,False,1167.2999999523163,71.0,59.0,40.0,324.17253629803406,[],"[720, 405]",ColorTask,31.0,57.0,,,HRV,HRV_0228,2022-11-30 19:59:56
,wl-rdm,65,185378,0.0-6.57-0.57,False,,0.0,65.0,,,,,,,[],,,,,,56.4,0.0,i,1.0,False,671.1000000238419,41.0,59.0,40.0,372.35683510997376,[],"[720, 405]",ColorTask,30.0,58.0,,,HRV,HRV_0228,2022-11-30 19:59:56
,wl-rdm,66,187494,0.0-6.58-0.58,False,,0.0,66.0,,,,,,,[],,,,,,87.9,0.0,u,0.0,True,815.2000000476837,49.0,59.0,40.0,225.75891263908343,[],"[720, 405]",ColorTask,31.0,59.0,,,HRV,HRV_0228,2022-11-30 19:59:56
,wl-rdm,67,189495,0.0-6.59-0.59,False,,0.0,67.0,,,,,,,[],,,,,,87.9,1.0,i,1.0,True,573.0,35.0,59.0,40.0,349.110110893626,[],"[720, 405]",ColorTask,32.0,60.0,,,HRV,HRV_0228,2022-11-30 19:59:56
,wl-rdm,68,191477,0.0-6.60-0.60,False,,0.0,68.0,,,,,,,[],,,,,,62.5,0.0,u,0.0,True,696.8999999761581,42.0,59.0,40.0,225.77477216082613,[],"[720, 405]",ColorTask,33.0,61.0,,,HRV,HRV_0228,2022-11-30 19:59:56
,wl-rdm,69,193711,0.0-6.61-0.61,False,,0.0,69.0,,,,,,,[],,,,,,56.4,1.0,u,0.0,False,872.9999998807907,53.0,59.0,40.0,287.64458766467203,[],"[720, 405]",ColorTask,32.0,62.0,,,HRV,HRV_0228,2022-11-30 19:59:56
,wl-rdm,70,196027,0.0-6.62-0.62,False,,0.0,70.0,,,,,,,[],,,,,,56.4,1.0,i,1.0,True,872.7000000476837,53.0,59.0,40.0,379.65535893656397,[],"[720, 405]",ColorTask,33.0,63.0,,,HRV,HRV_0228,2022-11-30 19:59:56
,wl-rdm,71,198894,0.0-6.63-0.63,False,,0.0,71.0,,,,,,,[],,,,,,56.4,0.0,i,1.0,False,1417.3000000715256,86.0,59.0,40.0,354.78391760371744,[],"[720, 405]",ColorTask,32.0,64.0,,,HRV,HRV_0228,2022-11-30 19:59:56
,wl-rdm,72,201227,0.0-6.64-0.64,False,,0.0,72.0,,,,,,,[],,,,,,56.4,1.0,i,1.0,True,856.9999998807907,52.0,59.0,40.0,395.22571223535624,[],"[720, 405]",ColorTask,33.0,65.0,,,HRV,HRV_0228,2022-11-30 19:59:56
,wl-rdm,73,204095,0.0-6.65-0.65,False,,0.0,73.0,,,,,,,[],,,,,,53.2,0.0,i,1.0,False,1441.3999999761581,87.0,59.0,40.0,363.1594015178181,[],"[720, 405]",ColorTask,32.0,66.0,,,HRV,HRV_0228,2022-11-30 19:59:56
,wl-rdm,74,206111,0.0-6.66-0.66,False,,0.0,74.0,,,,,,,[],,,,,,73.6,1.0,i,1.0,True,673.1999999284744,41.0,59.0,40.0,255.0555984005304,[],"[720, 405]",ColorTask,33.0,67.0,,,HRV,HRV_0228,2022-11-30 19:59:56
,wl-rdm,75,208443,0.0-6.67-0.67,False,,0.0,75.0,,,,,,,[],,,,,,62.5,1.0,u,0.0,False,904.0,55.0,59.0,40.0,340.58979040306383,[],"[720, 405]",ColorTask,32.0,68.0,,,HRV,HRV_0228,2022-11-30 19:59:56
,wl-rdm,76,210343,0.0-6.68-0.68,False,,0.0,76.0,,,,,,,[],,,,,,87.9,1.0,i,1.0,True,593.1000000238419,36.0,59.0,40.0,219.68651617041763,[],"[720, 405]",ColorTask,33.0,69.0,,,HRV,HRV_0228,2022-11-30 19:59:56
,wl-rdm,77,212343,0.0-6.69-0.69,False,,0.0,77.0,,,,,,,[],,,,,,87.9,1.0,i,1.0,True,615.5,37.0,59.0,40.0,301.5561420957368,[],"[720, 405]",ColorTask,34.0,70.0,,,HRV,HRV_0228,2022-11-30 19:59:56
,wl-rdm,78,214944,0.0-6.70-0.70,False,,0.0,78.0,,,,,,,[],,,,,,62.5,1.0,i,1.0,True,1288.7000000476837,78.0,59.0,40.0,225.77063817848602,[],"[720, 405]",ColorTask,35.0,71.0,,,HRV,HRV_0228,2022-11-30 19:59:56
,wl-rdm,79,217294,0.0-6.71-0.71,False,,0.0,79.0,,,,,,,[],,,,,,50.0,1.0,u,0.0,False,989.8999999761581,60.0,59.0,40.0,286.3634222333464,[],"[720, 405]",ColorTask,34.0,72.0,,,HRV,HRV_0228,2022-11-30 19:59:56
,wl-rdm,80,220061,0.0-6.72-0.72,False,,0.0,80.0,,,,,,,[],,,,,,53.2,0.0,u,0.0,True,1440.1000000238419,87.0,59.0,40.0,243.28378800020948,[],"[720, 405]",ColorTask,35.0,73.0,,,HRV,HRV_0228,2022-11-30 19:59:56
,wl-rdm,81,222109,0.0-6.73-0.73,False,,0.0,81.0,,,,,,,[],,,,,,87.9,1.0,i,1.0,True,767.8999999761581,47.0,59.0,40.0,207.8401235096581,[],"[720, 405]",ColorTask,36.0,74.0,,,HRV,HRV_0228,2022-11-30 19:59:56
,wl-rdm,82,224643,0.0-6.74-0.74,False,,0.0,82.0,,,,,,,[],,,,,,73.6,1.0,i,1.0,True,1077.8999999761581,65.0,59.0,40.0,373.6005582022254,[],"[720, 405]",ColorTask,37.0,75.0,,,HRV,HRV_0228,2022-11-30 19:59:56
,wl-rdm,83,227561,0.0-6.75-0.75,False,,0.0,83.0,,,,,,,[],,,,,,53.2,0.0,u,0.0,True,1608.7000000476837,97.0,59.0,40.0,226.00155789180548,[],"[720, 405]",ColorTask,38.0,76.0,,,HRV,HRV_0228,2022-11-30 19:59:56
,wl-rdm,84,230160,0.0-6.76-0.76,False,,0.0,84.0,,,,,,,[],,,,,,53.2,1.0,u,0.0,False,1153.1000000238419,70.0,59.0,40.0,360.2581095010188,[],"[720, 405]",ColorTask,37.0,77.0,,,HRV,HRV_0228,2022-11-30 19:59:56
,wl-rdm,85,232377,0.0-6.77-0.77,False,,0.0,85.0,,,,,,,[],,,,,,73.6,0.0,u,0.0,True,772.6999999284744,47.0,59.0,40.0,363.9025960490087,[],"[720, 405]",ColorTask,38.0,78.0,,,HRV,HRV_0228,2022-11-30 19:59:56
,wl-rdm,86,234977,0.0-6.78-0.78,False,,0.0,86.0,,,,,,,[],,,,,,53.2,1.0,u,0.0,False,1256.5000001192093,76.0,59.0,40.0,255.5864763544911,[],"[720, 405]",ColorTask,37.0,79.0,,,HRV,HRV_0228,2022-11-30 19:59:56
,wl-rdm,87,237027,0.0-6.79-0.79,False,,0.0,87.0,,,,,,,[],,,,,,50.0,0.0,i,1.0,False,709.9999998807907,43.0,59.0,40.0,261.2560504243529,[],"[720, 405]",ColorTask,36.0,80.0,,,HRV,HRV_0228,2022-11-30 19:59:56
,wl-rdm,88,239143,0.0-6.80-0.80,False,,0.0,88.0,,,,,,,[],,,,,,87.9,1.0,i,1.0,True,720.0,44.0,59.0,40.0,302.0144756264422,[],"[720, 405]",ColorTask,37.0,81.0,,,HRV,HRV_0228,2022-11-30 19:59:56
,wl-rdm,89,241360,0.0-6.81-0.81,False,,0.0,89.0,,,,,,,[],,,,,,73.6,0.0,u,0.0,True,778.6999999284744,47.0,59.0,40.0,381.9432510065499,[],"[720, 405]",ColorTask,38.0,82.0,,,HRV,HRV_0228,2022-11-30 19:59:56
,wl-rdm,90,243576,0.0-6.82-0.82,False,,0.0,90.0,,,,,,,[],,,,,,62.5,1.0,u,0.0,False,931.2999999523163,56.0,59.0,40.0,202.8433361006802,[],"[720, 405]",ColorTask,37.0,83.0,,,HRV,HRV_0228,2022-11-30 19:59:56
,wl-rdm,91,245643,0.0-6.83-0.83,False,,0.0,91.0,,,,,,,[],,,,,,73.6,0.0,u,0.0,True,720.0,44.0,59.0,40.0,266.09139655274794,[],"[720, 405]",ColorTask,38.0,84.0,,,HRV,HRV_0228,2022-11-30 19:59:56
,wl-rdm,92,247659,0.0-6.84-0.84,False,,0.0,92.0,,,,,,,[],,,,,,73.6,1.0,i,1.0,True,632.6000000238419,38.0,59.0,40.0,320.9191850015343,[],"[720, 405]",ColorTask,39.0,85.0,,,HRV,HRV_0228,2022-11-30 19:59:56
,wl-rdm,93,249892,0.0-6.85-0.85,False,,0.0,93.0,,,,,,,[],,,,,,62.5,0.0,u,0.0,True,910.0,55.0,59.0,40.0,238.43795634173193,[],"[720, 405]",ColorTask,40.0,86.0,,,HRV,HRV_0228,2022-11-30 19:59:56
,wl-rdm,94,252177,0.0-6.86-0.86,False,,0.0,94.0,,,,,,,[],,,,,,53.2,0.0,u,0.0,True,967.7999999523163,59.0,59.0,40.0,245.85674694762295,[],"[720, 405]",ColorTask,41.0,87.0,,,HRV,HRV_0228,2022-11-30 19:59:56
,wl-rdm,95,254309,0.0-6.87-0.87,False,,0.0,95.0,,,,,,,[],,,,,,62.5,1.0,i,1.0,True,705.7000000476837,43.0,59.0,40.0,336.8835574973456,[],"[720, 405]",ColorTask,42.0,88.0,,,HRV,HRV_0228,2022-11-30 19:59:56
,wl-rdm,96,256425,0.0-6.88-0.88,False,,0.0,96.0,,,,,,,[],,,,,,73.6,1.0,i,1.0,True,807.7999999523163,49.0,59.0,40.0,223.1829941833447,[],"[720, 405]",ColorTask,43.0,89.0,,,HRV,HRV_0228,2022-11-30 19:59:56
,wl-rdm,97,258426,0.0-6.89-0.89,False,,0.0,97.0,,,,,,,[],,,,,,87.9,0.0,u,0.0,True,673.8999999761581,41.0,59.0,40.0,240.75936895624415,[],"[720, 405]",ColorTask,44.0,90.0,,,HRV,HRV_0228,2022-11-30 19:59:56
,wl-rdm,98,260760,0.0-6.90-0.90,False,,0.0,98.0,,,,,,,[],,,,,,50.0,1.0,u,0.0,False,994.8999999761581,60.0,59.0,40.0,280.92717585541163,[],"[720, 405]",ColorTask,43.0,91.0,,,HRV,HRV_0228,2022-11-30 19:59:56
,wl-rdm,99,262892,0.0-6.91-0.91,False,,0.0,99.0,,,,,,,[],,,,,,87.9,0.0,u,0.0,True,678.1000000238419,41.0,59.0,40.0,378.9284500502075,[],"[720, 405]",ColorTask,44.0,92.0,,,HRV,HRV_0228,2022-11-30 19:59:56
,wl-rdm,100,265176,0.0-6.92-0.92,False,,0.0,100.0,,,,,,,[],,,,,,53.2,0.0,i,1.0,False,971.6999999284744,59.0,59.0,40.0,242.36599139384725,[],"[720, 405]",ColorTask,43.0,93.0,,,HRV,HRV_0228,2022-11-30 19:59:56
,wl-rdm,101,267243,0.0-6.93-0.93,False,,0.0,101.0,,,,,,,[],,,,,,87.9,0.0,i,1.0,False,649.8999999761581,40.0,59.0,40.0,338.83513982824854,[],"[720, 405]",ColorTask,42.0,94.0,,,HRV,HRV_0228,2022-11-30 19:59:56
,wl-rdm,102,269609,0.0-6.94-0.94,False,,0.0,102.0,,,,,,,[],,,,,,62.5,0.0,u,0.0,True,1083.8999999761581,65.0,59.0,40.0,229.3584458881439,[],"[720, 405]",ColorTask,43.0,95.0,,,HRV,HRV_0228,2022-11-30 19:59:56
,wl-rdm,103,271592,0.0-6.95-0.95,False,,0.0,103.0,,,,,,,[],,,,,,73.6,1.0,i,1.0,True,660.8999999761581,39.0,59.0,40.0,253.82740213532588,[],"[720, 405]",ColorTask,44.0,96.0,,,HRV,HRV_0228,2022-11-30 19:59:56
,wl-rdm,104,274193,0.0-6.96-0.96,False,,0.0,104.0,,,,,,,[],,,,,,62.5,1.0,u,0.0,False,1170.1999999284744,71.0,59.0,40.0,351.9788118419219,[],"[720, 405]",ColorTask,43.0,97.0,,,HRV,HRV_0228,2022-11-30 19:59:56
,wl-rdm,105,276444,0.0-6.97-0.97,False,,0.0,105.0,,,,,,,[],,,,,,73.6,1.0,i,1.0,True,860.7000000476837,52.0,59.0,40.0,312.1389202718998,[],"[720, 405]",ColorTask,44.0,98.0,,,HRV,HRV_0228,2022-11-30 19:59:56
,wl-rdm,106,278544,0.0-6.98-0.98,False,,0.0,106.0,,,,,,,[],,,,,,50.0,1.0,u,0.0,False,729.3000000715256,44.0,59.0,40.0,293.0143658109194,[],"[720, 405]",ColorTask,43.0,99.0,,,HRV,HRV_0228,2022-11-30 19:59:56
,wl-rdm,107,280676,0.0-6.99-0.99,False,,0.0,107.0,,,,,,,[],,,,,,87.9,1.0,i,1.0,True,669.9999998807907,41.0,59.0,40.0,387.096932125191,[],"[720, 405]",ColorTask,44.0,100.0,,,HRV,HRV_0228,2022-11-30 19:59:56
,wl-rdm,108,283108,0.0-6.100-0.100,False,,0.0,108.0,,,,,,,[],,,,,,53.2,1.0,u,0.0,False,1037.4000000953674,63.0,59.0,40.0,327.2203329733495,[],"[720, 405]",ColorTask,43.0,101.0,,,HRV,HRV_0228,2022-11-30 19:59:56
,wl-rdm,109,285076,0.0-6.101-0.101,False,,0.0,109.0,,,,,,,[],,,,,,73.6,0.0,u,0.0,True,680.5,41.0,59.0,40.0,223.26268716803034,[],"[720, 405]",ColorTask,44.0,102.0,,,HRV,HRV_0228,2022-11-30 19:59:56
,wl-rdm,110,287342,0.0-6.102-0.102,False,,0.0,110.0,,,,,,,[],,,,,,87.9,1.0,i,1.0,True,988.8999999761581,60.0,59.0,40.0,208.8417076841135,[],"[720, 405]",ColorTask,45.0,103.0,,,HRV,HRV_0228,2022-11-30 19:59:56
,wl-rdm,111,289643,0.0-6.103-0.103,False,,0.0,111.0,,,,,,,[],,,,,,87.9,0.0,u,0.0,True,862.7999999523163,52.0,59.0,40.0,361.0346112611776,[],"[720, 405]",ColorTask,46.0,104.0,,,HRV,HRV_0228,2022-11-30 19:59:56
,wl-rdm,112,291774,0.0-6.104-0.104,False,,0.0,112.0,,,,,,,[],,,,,,87.9,0.0,u,0.0,True,742.7000000476837,45.0,59.0,40.0,300.5180994732068,[],"[720, 405]",ColorTask,47.0,105.0,,,HRV,HRV_0228,2022-11-30 19:59:56
,wl-rdm,113,295409,0.0-6.105-0.105,False,,0.0,113.0,,,,,,,[],,,,,,50.0,0.0,u,0.0,True,2299.0,138.0,59.0,40.0,274.58760865067615,[],"[720, 405]",ColorTask,48.0,106.0,,,HRV,HRV_0228,2022-11-30 19:59:56
,wl-rdm,114,298158,0.0-6.106-0.106,False,,0.0,114.0,,,,,,,[],,,,,,73.6,0.0,u,0.0,True,1431.5,86.0,59.0,40.0,248.83359606829455,[],"[720, 405]",ColorTask,49.0,107.0,,,HRV,HRV_0228,2022-11-30 19:59:56
,wl-rdm,115,300325,0.0-6.107-0.107,False,,0.0,115.0,,,,,,,[],,,,,,56.4,1.0,i,1.0,True,726.5999999046326,44.0,59.0,40.0,351.91664760507217,[],"[720, 405]",ColorTask,50.0,108.0,,,HRV,HRV_0228,2022-11-30 19:59:56
,wl-html-keyboard-response,116,307651,0.0-7.0-0.0,,,1.0,116.0,,,,,,,,5316.100000023842,1.0,0,,,,,,,,,,,,,,,,,,,,HRV,HRV_0228,2022-11-30 19:59:56
,wl-rdm,117,309825,0.0-8.0-0.0,False,,1.0,117.0,,,,,,,[],,,,,,87.9,0.0,u,0.0,True,750.6000000238419,46.0,59.0,40.0,363.9580072622754,[],"[720, 405]",ColorTask,51.0,1.0,,,HRV,HRV_0228,2022-11-30 19:59:56
,wl-rdm,118,312158,0.0-8.1-0.1,False,,1.0,118.0,,,,,,,[],,,,,,56.4,0.0,u,0.0,True,1014.7000000476837,61.0,59.0,40.0,251.1624944068076,[],"[720, 405]",ColorTask,52.0,2.0,,,HRV,HRV_0228,2022-11-30 19:59:56
,wl-rdm,119,314374,0.0-8.2-0.2,False,,1.0,119.0,,,,,,,[],,,,,,53.2,1.0,i,1.0,True,896.7999999523163,54.0,59.0,40.0,248.94026732827018,[],"[720, 405]",ColorTask,53.0,3.0,,,HRV,HRV_0228,2022-11-30 19:59:56
,wl-rdm,120,316891,0.0-8.3-0.3,False,,1.0,120.0,,,,,,,[],,,,,,53.2,0.0,u,0.0,True,1213.8999999761581,73.0,59.0,40.0,233.21118184976933,[],"[720, 405]",ColorTask,54.0,4.0,,,HRV,HRV_0228,2022-11-30 19:59:56
,wl-rdm,121,319891,0.0-8.4-0.4,False,,1.0,121.0,,,,,,,[],,,,,,50.0,1.0,u,0.0,False,1689.5,102.0,59.0,40.0,233.88971496843305,[],"[720, 405]",ColorTask,53.0,5.0,,,HRV,HRV_0228,2022-11-30 19:59:56
,wl-rdm,122,322276,0.0-8.5-0.5,False,,1.0,122.0,,,,,,,[],,,,,,53.2,0.0,u,0.0,True,973.3999999761581,59.0,59.0,40.0,329.46297073017195,[],"[720, 405]",ColorTask,54.0,6.0,,,HRV,HRV_0228,2022-11-30 19:59:56
,wl-rdm,123,324858,0.0-8.6-0.6,False,,1.0,123.0,,,,,,,[],,,,,,53.2,0.0,u,0.0,True,1242.7000000476837,75.0,59.0,40.0,263.05638087487284,[],"[720, 405]",ColorTask,55.0,7.0,,,HRV,HRV_0228,2022-11-30 19:59:56
,wl-rdm,124,326858,0.0-8.7-0.7,False,,1.0,124.0,,,,,,,[],,,,,,87.9,0.0,u,0.0,True,706.5,43.0,59.0,40.0,213.9275290251809,[],"[720, 405]",ColorTask,56.0,8.0,,,HRV,HRV_0228,2022-11-30 19:59:56
,wl-rdm,125,328758,0.0-8.8-0.8,False,,1.0,125.0,,,,,,,[],,,,,,62.5,1.0,i,1.0,True,621.2000000476837,38.0,59.0,40.0,216.780547890743,[],"[720, 405]",ColorTask,57.0,9.0,,,HRV,HRV_0228,2022-11-30 19:59:56
,wl-rdm,126,331274,0.0-8.9-0.9,False,,1.0,126.0,,,,,,,[],,,,,,53.2,1.0,i,1.0,True,1069.3000000715256,65.0,59.0,40.0,352.7038449094333,[],"[720, 405]",ColorTask,58.0,10.0,,,HRV,HRV_0228,2022-11-30 19:59:56
,wl-rdm,127,333390,0.0-8.10-0.10,False,,1.0,127.0,,,,,,,[],,,,,,53.2,0.0,u,0.0,True,752.6000000238419,46.0,59.0,40.0,279.1648731876206,[],"[720, 405]",ColorTask,59.0,11.0,,,HRV,HRV_0228,2022-11-30 19:59:56
,wl-rdm,128,335640,0.0-8.11-0.11,False,,1.0,128.0,,,,,,,[],,,,,,87.9,0.0,u,0.0,True,900.0,54.0,59.0,40.0,271.0418142335543,[],"[720, 405]",ColorTask,60.0,12.0,,,HRV,HRV_0228,2022-11-30 19:59:56
,wl-rdm,129,337607,0.0-8.12-0.12,False,,1.0,129.0,,,,,,,[],,,,,,73.6,0.0,u,0.0,True,648.6000000238419,39.0,59.0,40.0,247.4892335441706,[],"[720, 405]",ColorTask,61.0,13.0,,,HRV,HRV_0228,2022-11-30 19:59:56
,wl-rdm,130,340041,0.0-8.13-0.13,False,,1.0,130.0,,,,,,,[],,,,,,56.4,1.0,u,0.0,False,971.2999999523163,59.0,59.0,40.0,385.20816237389687,[],"[720, 405]",ColorTask,60.0,14.0,,,HRV,HRV_0228,2022-11-30 19:59:56
,wl-rdm,131,341923,0.0-8.14-0.14,False,,1.0,131.0,,,,,,,[],,,,,,87.9,1.0,i,1.0,True,584.8999998569489,36.0,59.0,40.0,205.63451818154292,[],"[720, 405]",ColorTask,61.0,15.0,,,HRV,HRV_0228,2022-11-30 19:59:56
,wl-rdm,132,344607,0.0-8.15-0.15,False,,1.0,132.0,,,,,,,[],,,,,,56.4,0.0,i,1.0,False,1393.6000000238419,84.0,59.0,40.0,226.22152627590643,[],"[720, 405]",ColorTask,60.0,16.0,,,HRV,HRV_0228,2022-11-30 19:59:56
,wl-rdm,133,346757,0.0-8.16-0.16,False,,1.0,133.0,,,,,,,[],,,,,,62.5,1.0,i,1.0,True,725.2000000476837,44.0,59.0,40.0,337.9177575892742,[],"[720, 405]",ColorTask,61.0,17.0,,,HRV,HRV_0228,2022-11-30 19:59:56
,wl-rdm,134,348824,0.0-8.17-0.17,False,,1.0,134.0,,,,,,,[],,,,,,73.6,1.0,i,1.0,True,647.0,39.0,59.0,40.0,362.9197202179557,[],"[720, 405]",ColorTask,62.0,18.0,,,HRV,HRV_0228,2022-11-30 19:59:56
,wl-rdm,135,350907,0.0-8.18-0.18,False,,1.0,135.0,,,,,,,[],,,,,,53.2,0.0,u,0.0,True,757.7999999523163,46.0,59.0,40.0,233.12815470627984,[],"[720, 405]",ColorTask,63.0,19.0,,,HRV,HRV_0228,2022-11-30 19:59:56
,wl-rdm,136,353274,0.0-8.19-0.19,False,,1.0,136.0,,,,,,,[],,,,,,56.4,1.0,u,0.0,False,956.6999999284744,58.0,59.0,40.0,334.23698520142307,[],"[720, 405]",ColorTask,62.0,20.0,,,HRV,HRV_0228,2022-11-30 19:59:56
,wl-rdm,137,355407,0.0-8.20-0.20,False,,1.0,137.0,,,,,,,[],,,,,,87.9,0.0,u,0.0,True,712.6000000238419,43.0,59.0,40.0,362.8588554648848,[],"[720, 405]",ColorTask,63.0,21.0,,,HRV,HRV_0228,2022-11-30 19:59:56
,wl-rdm,138,357724,0.0-8.21-0.21,False,,1.0,138.0,,,,,,,[],,,,,,53.2,1.0,i,1.0,True,910.8000000715256,55.0,59.0,40.0,336.0699968617052,[],"[720, 405]",ColorTask,64.0,22.0,,,HRV,HRV_0228,2022-11-30 19:59:56
,wl-rdm,139,359723,0.0-8.22-0.22,False,,1.0,139.0,,,,,,,[],,,,,,56.4,0.0,i,1.0,False,701.5,43.0,59.0,40.0,213.77601388913172,[],"[720, 405]",ColorTask,63.0,23.0,,,HRV,HRV_0228,2022-11-30 19:59:56
,wl-rdm,140,362705,0.0-8.23-0.23,False,,1.0,140.0,,,,,,,[],,,,,,62.5,1.0,i,1.0,True,1538.1000000238419,93.0,59.0,40.0,383.2299836731629,[],"[720, 405]",ColorTask,64.0,24.0,,,HRV,HRV_0228,2022-11-30 19:59:56
,wl-rdm,141,364973,0.0-8.24-0.24,False,,1.0,141.0,,,,,,,[],,,,,,53.2,0.0,u,0.0,True,965.5,58.0,59.0,40.0,229.98134058171797,[],"[720, 405]",ColorTask,65.0,25.0,,,HRV,HRV_0228,2022-11-30 19:59:56
,wl-rdm,142,367306,0.0-8.25-0.25,False,,1.0,142.0,,,,,,,[],,,,,,53.2,0.0,u,0.0,True,1040.6000000238419,63.0,59.0,40.0,215.97510069457852,[],"[720, 405]",ColorTask,66.0,26.0,,,HRV,HRV_0228,2022-11-30 19:59:56
,wl-rdm,143,369406,0.0-8.26-0.26,False,,1.0,143.0,,,,,,,[],,,,,,87.9,1.0,i,1.0,True,670.2999999523163,41.0,59.0,40.0,343.42528301111247,[],"[720, 405]",ColorTask,67.0,27.0,,,HRV,HRV_0228,2022-11-30 19:59:56
,wl-rdm,144,371539,0.0-8.27-0.27,False,,1.0,144.0,,,,,,,[],,,,,,56.4,1.0,i,1.0,True,810.1999999284744,49.0,59.0,40.0,262.0956324476413,[],"[720, 405]",ColorTask,68.0,28.0,,,HRV,HRV_0228,2022-11-30 19:59:56
,wl-rdm,145,373972,0.0-8.28-0.28,False,,1.0,145.0,,,,,,,[],,,,,,50.0,1.0,i,1.0,True,974.6000000238419,59.0,59.0,40.0,389.9550066060894,[],"[720, 405]",ColorTask,69.0,29.0,,,HRV,HRV_0228,2022-11-30 19:59:56
,wl-rdm,146,376589,0.0-8.29-0.29,False,,1.0,146.0,,,,,,,[],,,,,,62.5,0.0,u,0.0,True,1185.6000000238419,72.0,59.0,40.0,335.5496814069291,[],"[720, 405]",ColorTask,70.0,30.0,,,HRV,HRV_0228,2022-11-30 19:59:56
,wl-rdm,147,378839,0.0-8.30-0.30,False,,1.0,147.0,,,,,,,[],,,,,,56.4,0.0,u,0.0,True,945.8999999761581,57.0,59.0,40.0,217.11374480762046,[],"[720, 405]",ColorTask,71.0,31.0,,,HRV,HRV_0228,2022-11-30 19:59:56
,wl-rdm,148,381156,0.0-8.31-0.31,False,,1.0,148.0,,,,,,,[],,,,,,56.4,1.0,i,1.0,True,965.6999999284744,58.0,59.0,40.0,300.0261491932936,[],"[720, 405]",ColorTask,72.0,32.0,,,HRV,HRV_0228,2022-11-30 19:59:56
,wl-rdm,149,383222,0.0-8.32-0.32,False,,1.0,149.0,,,,,,,[],,,,,,73.6,1.0,i,1.0,True,743.2999999523163,45.0,59.0,40.0,245.66554140431475,[],"[720, 405]",ColorTask,73.0,33.0,,,HRV,HRV_0228,2022-11-30 19:59:56
,wl-rdm,150,385455,0.0-8.33-0.33,False,,1.0,150.0,,,,,,,[],,,,,,62.5,1.0,u,0.0,False,875.5999999046326,53.0,59.0,40.0,283.4107725996139,[],"[720, 405]",ColorTask,72.0,34.0,,,HRV,HRV_0228,2022-11-30 19:59:56
,wl-rdm,151,387639,0.0-8.34-0.34,False,,1.0,151.0,,,,,,,[],,,,,,56.4,0.0,i,1.0,False,803.3000000715256,49.0,59.0,40.0,298.9388090567212,[],"[720, 405]",ColorTask,71.0,35.0,,,HRV,HRV_0228,2022-11-30 19:59:56
,wl-rdm,152,390756,0.0-8.35-0.35,False,,1.0,152.0,,,,,,,[],,,,,,56.4,1.0,i,1.0,True,1745.1000000238419,105.0,59.0,40.0,305.01510578778397,[],"[720, 405]",ColorTask,72.0,36.0,,,HRV,HRV_0228,2022-11-30 19:59:56
,wl-rdm,153,392838,0.0-8.36-0.36,False,,1.0,153.0,,,,,,,[],,,,,,62.5,0.0,u,0.0,True,797.1999999284744,48.0,59.0,40.0,224.57741944718114,[],"[720, 405]",ColorTask,73.0,37.0,,,HRV,HRV_0228,2022-11-30 19:59:56
,wl-rdm,154,395324,0.0-8.37-0.37,False,,1.0,154.0,,,,,,,[],,,,,,50.0,0.0,u,0.0,True,1113.2999999523163,67.0,59.0,40.0,299.5094149032106,[],"[720, 405]",ColorTask,74.0,38.0,,,HRV,HRV_0228,2022-11-30 19:59:56
,wl-rdm,155,397755,0.0-8.38-0.38,False,,1.0,155.0,,,,,,,[],,,,,,62.5,0.0,u,0.0,True,1085.1999998092651,65.0,59.0,40.0,276.96040728019824,[],"[720, 405]",ColorTask,75.0,39.0,,,HRV,HRV_0228,2022-11-30 19:59:56
,wl-rdm,156,400155,0.0-8.39-0.39,False,,1.0,156.0,,,,,,,[],,,,,,73.6,0.0,u,0.0,True,922.5,56.0,59.0,40.0,385.83189625440843,[],"[720, 405]",ColorTask,76.0,40.0,,,HRV,HRV_0228,2022-11-30 19:59:56
,wl-rdm,157,402139,0.0-8.40-0.40,False,,1.0,157.0,,,,,,,[],,,,,,50.0,1.0,i,1.0,True,579.1999999284744,35.0,59.0,40.0,346.2875796904882,[],"[720, 405]",ColorTask,77.0,41.0,,,HRV,HRV_0228,2022-11-30 19:59:56
,wl-rdm,158,404607,0.0-8.41-0.41,False,,1.0,158.0,,,,,,,[],,,,,,62.5,1.0,u,0.0,False,1080.9000000953674,65.0,59.0,40.0,315.61801168582383,[],"[720, 405]",ColorTask,76.0,42.0,,,HRV,HRV_0228,2022-11-30 19:59:56
,wl-rdm,159,406605,0.0-8.42-0.42,False,,1.0,159.0,,,,,,,[],,,,,,87.9,0.0,u,0.0,True,586.5,36.0,59.0,40.0,323.5839996931999,[],"[720, 405]",ColorTask,77.0,43.0,,,HRV,HRV_0228,2022-11-30 19:59:56
,wl-rdm,160,408671,0.0-8.43-0.43,False,,1.0,160.0,,,,,,,[],,,,,,50.0,0.0,i,1.0,False,691.8999999761581,42.0,59.0,40.0,302.7656923431761,[],"[720, 405]",ColorTask,76.0,44.0,,,HRV,HRV_0228,2022-11-30 19:59:56
,wl-rdm,161,411105,0.0-8.44-0.44,False,,1.0,161.0,,,,,,,[],,,,,,50.0,1.0,i,1.0,True,991.1999999284744,60.0,59.0,40.0,379.38967336532767,[],"[720, 405]",ColorTask,77.0,45.0,,,HRV,HRV_0228,2022-11-30 19:59:56
,wl-rdm,162,413121,0.0-8.45-0.45,False,,1.0,162.0,,,,,,,[],,,,,,73.6,0.0,u,0.0,True,713.7999999523163,43.0,59.0,40.0,231.76884348346533,[],"[720, 405]",ColorTask,78.0,46.0,,,HRV,HRV_0228,2022-11-30 19:59:56
,wl-rdm,163,415489,0.0-8.46-0.46,False,,1.0,163.0,,,,,,,[],,,,,,53.2,1.0,i,1.0,True,1017.8999999761581,62.0,59.0,40.0,268.06628087569413,[],"[720, 405]",ColorTask,79.0,47.0,,,HRV,HRV_0228,2022-11-30 19:59:56
,wl-rdm,164,417471,0.0-8.47-0.47,False,,1.0,164.0,,,,,,,[],,,,,,87.9,1.0,u,0.0,False,551.1000000238419,34.0,59.0,40.0,361.18992413429635,[],"[720, 405]",ColorTask,78.0,48.0,,,HRV,HRV_0228,2022-11-30 19:59:56
,wl-rdm,165,419939,0.0-8.48-0.48,False,,1.0,165.0,,,,,,,[],,,,,,50.0,1.0,i,1.0,True,1025.9000000953674,62.0,59.0,40.0,356.98881968122157,[],"[720, 405]",ColorTask,79.0,49.0,,,HRV,HRV_0228,2022-11-30 19:59:56
,wl-rdm,166,422021,0.0-8.49-0.49,False,,1.0,166.0,,,,,,,[],,,,,,87.9,0.0,u,0.0,True,641.3999999761581,39.0,59.0,40.0,357.16366169135085,[],"[720, 405]",ColorTask,80.0,50.0,,,HRV,HRV_0228,2022-11-30 19:59:56
,wl-rdm,167,424455,0.0-8.50-0.50,False,,1.0,167.0,,,,,,,[],,,,,,62.5,0.0,u,0.0,True,1118.1000000238419,68.0,59.0,40.0,231.8093893518347,[],"[720, 405]",ColorTask,81.0,51.0,,,HRV,HRV_0228,2022-11-30 19:59:56
,wl-rdm,168,426887,0.0-8.51-0.51,False,,1.0,168.0,,,,,,,[],,,,,,62.5,0.0,u,0.0,True,1090.7999999523163,66.0,59.0,40.0,268.91780786485316,[],"[720, 405]",ColorTask,82.0,52.0,,,HRV,HRV_0228,2022-11-30 19:59:56
,wl-rdm,169,429138,0.0-8.52-0.52,False,,1.0,169.0,,,,,,,[],,,,,,73.6,0.0,i,1.0,False,854.3999999761581,52.0,59.0,40.0,319.7011677601297,[],"[720, 405]",ColorTask,81.0,53.0,,,HRV,HRV_0228,2022-11-30 19:59:56
,wl-rdm,170,431322,0.0-8.53-0.53,False,,1.0,170.0,,,,,,,[],,,,,,56.4,1.0,i,1.0,True,837.3999999761581,51.0,59.0,40.0,254.96371697637363,[],"[720, 405]",ColorTask,82.0,54.0,,,HRV,HRV_0228,2022-11-30 19:59:56
,wl-rdm,171,433488,0.0-8.54-0.54,False,,1.0,171.0,,,,,,,[],,,,,,62.5,0.0,u,0.0,True,761.2999999523163,46.0,59.0,40.0,344.9274474307034,[],"[720, 405]",ColorTask,83.0,55.0,,,HRV,HRV_0228,2022-11-30 19:59:56
,wl-rdm,172,435987,0.0-8.55-0.55,False,,1.0,172.0,,,,,,,[],,,,,,50.0,1.0,u,0.0,False,1197.7000000476837,72.0,59.0,40.0,237.79341857554252,[],"[720, 405]",ColorTask,82.0,56.0,,,HRV,HRV_0228,2022-11-30 19:59:56
,wl-rdm,173,437971,0.0-8.56-0.56,False,,1.0,173.0,,,,,,,[],,,,,,53.2,1.0,u,0.0,False,634.7999999523163,39.0,59.0,40.0,280.94263350068957,[],"[720, 405]",ColorTask,81.0,57.0,,,HRV,HRV_0228,2022-11-30 19:59:56
,wl-rdm,174,440771,0.0-8.57-0.57,False,,1.0,174.0,,,,,,,[],,,,,,50.0,1.0,i,1.0,True,1386.1000000238419,84.0,59.0,40.0,333.4827679032916,[],"[720, 405]",ColorTask,82.0,58.0,,,HRV,HRV_0228,2022-11-30 19:59:56
,wl-rdm,175,443221,0.0-8.58-0.58,False,,1.0,175.0,,,,,,,[],,,,,,56.4,0.0,u,0.0,True,1013.8999999761581,61.0,59.0,40.0,353.1021166134486,[],"[720, 405]",ColorTask,83.0,59.0,,,HRV,HRV_0228,2022-11-30 19:59:56
,wl-rdm,176,445387,0.0-8.59-0.59,False,,1.0,176.0,,,,,,,[],,,,,,73.6,0.0,u,0.0,True,756.299999833107,46.0,59.0,40.0,320.7842693317256,[],"[720, 405]",ColorTask,84.0,60.0,,,HRV,HRV_0228,2022-11-30 19:59:56
,wl-rdm,177,447338,0.0-8.60-0.60,False,,1.0,177.0,,,,,,,[],,,,,,56.4,1.0,i,1.0,True,650.0999999046326,39.0,59.0,40.0,218.4102475691898,[],"[720, 405]",ColorTask,85.0,61.0,,,HRV,HRV_0228,2022-11-30 19:59:56
,wl-rdm,178,449205,0.0-8.61-0.61,False,,1.0,178.0,,,,,,,[],,,,,,56.4,1.0,i,1.0,True,587.6000000238419,36.0,59.0,40.0,214.08587399625327,[],"[720, 405]",ColorTask,86.0,62.0,,,HRV,HRV_0228,2022-11-30 19:59:56
,wl-rdm,179,451204,0.0-8.62-0.62,False,,1.0,179.0,,,,,,,[],,,,,,73.6,1.0,i,1.0,True,544.9999998807907,33.0,59.0,40.0,359.80191310074747,[],"[720, 405]",ColorTask,87.0,63.0,,,HRV,HRV_0228,2022-11-30 19:59:56
,wl-rdm,180,453404,0.0-8.63-0.63,False,,1.0,180.0,,,,,,,[],,,,,,56.4,0.0,i,1.0,False,837.7999999523163,51.0,59.0,40.0,290.36627774269664,[],"[720, 405]",ColorTask,86.0,64.0,,,HRV,HRV_0228,2022-11-30 19:59:56
,wl-rdm,181,455288,0.0-8.64-0.64,False,,1.0,181.0,,,,,,,[],,,,,,87.9,1.0,i,1.0,True,581.0000001192093,35.0,59.0,40.0,217.80946930346434,[],"[720, 405]",ColorTask,87.0,65.0,,,HRV,HRV_0228,2022-11-30 19:59:56
,wl-rdm,182,457371,0.0-8.65-0.65,False,,1.0,182.0,,,,,,,[],,,,,,53.2,0.0,u,0.0,True,740.5000001192093,45.0,59.0,40.0,277.29243781504226,[],"[720, 405]",ColorTask,88.0,66.0,,,HRV,HRV_0228,2022-11-30 19:59:56
,wl-rdm,183,460020,0.0-8.66-0.66,False,,1.0,183.0,,,,,,,[],,,,,,56.4,0.0,u,0.0,True,1369.4000000953674,83.0,59.0,40.0,201.2390155728037,[],"[720, 405]",ColorTask,89.0,67.0,,,HRV,HRV_0228,2022-11-30 19:59:56
,wl-rdm,184,462037,0.0-8.67-0.67,False,,1.0,184.0,,,,,,,[],,,,,,87.9,1.0,i,1.0,True,559.9999998807907,34.0,59.0,40.0,386.33389628024867,[],"[720, 405]",ColorTask,90.0,68.0,,,HRV,HRV_0228,2022-11-30 19:59:56
,wl-rdm,185,464186,0.0-8.68-0.68,False,,1.0,185.0,,,,,,,[],,,,,,62.5,0.0,u,0.0,True,838.1000000238419,51.0,59.0,40.0,226.53075317945377,[],"[720, 405]",ColorTask,91.0,69.0,,,HRV,HRV_0228,2022-11-30 19:59:56
,wl-rdm,186,466487,0.0-8.69-0.69,False,,1.0,186.0,,,,,,,[],,,,,,50.0,0.0,i,1.0,False,900.7999999523163,55.0,59.0,40.0,319.57600382475505,[],"[720, 405]",ColorTask,90.0,70.0,,,HRV,HRV_0228,2022-11-30 19:59:56
,wl-rdm,187,468488,0.0-8.70-0.70,False,,1.0,187.0,,,,,,,[],,,,,,87.9,0.0,u,0.0,True,532.3999999761581,32.0,59.0,40.0,397.8883421825906,[],"[720, 405]",ColorTask,91.0,71.0,,,HRV,HRV_0228,2022-11-30 19:59:56
,wl-rdm,188,470520,0.0-8.71-0.71,False,,1.0,188.0,,,,,,,[],,,,,,53.2,1.0,i,1.0,True,724.8000000715256,44.0,59.0,40.0,224.6272376348533,[],"[720, 405]",ColorTask,92.0,72.0,,,HRV,HRV_0228,2022-11-30 19:59:56
,wl-rdm,189,472455,0.0-8.72-0.72,False,,1.0,189.0,,,,,,,[],,,,,,73.6,0.0,u,0.0,True,656.1000000238419,40.0,59.0,40.0,212.61926650357177,[],"[720, 405]",ColorTask,93.0,73.0,,,HRV,HRV_0228,2022-11-30 19:59:56
,wl-rdm,190,474471,0.0-8.73-0.73,False,,1.0,190.0,,,,,,,[],,,,,,62.5,1.0,i,1.0,True,620.8000000715256,38.0,59.0,40.0,301.11136167489286,[],"[720, 405]",ColorTask,94.0,74.0,,,HRV,HRV_0228,2022-11-30 19:59:56
,wl-rdm,191,476636,0.0-8.74-0.74,False,,1.0,191.0,,,,,,,[],,,,,,87.9,0.0,u,0.0,True,724.6000000238419,44.0,59.0,40.0,374.7190070480443,[],"[720, 405]",ColorTask,95.0,75.0,,,HRV,HRV_0228,2022-11-30 19:59:56
,wl-rdm,192,478821,0.0-8.75-0.75,False,,1.0,192.0,,,,,,,[],,,,,,73.6,1.0,i,1.0,True,730.9000000953674,43.0,59.0,40.0,383.79915362051185,[],"[720, 405]",ColorTask,96.0,76.0,,,HRV,HRV_0228,2022-11-30 19:59:56
,wl-rdm,193,481271,0.0-8.76-0.76,False,,1.0,193.0,,,,,,,[],,,,,,73.6,1.0,i,1.0,True,1030.0,62.0,59.0,40.0,333.28633461505314,[],"[720, 405]",ColorTask,97.0,77.0,,,HRV,HRV_0228,2022-11-30 19:59:56
,wl-rdm,194,483138,0.0-8.77-0.77,False,,1.0,194.0,,,,,,,[],,,,,,73.6,1.0,i,1.0,True,537.3999999761581,33.0,59.0,40.0,238.5507482847269,[],"[720, 405]",ColorTask,98.0,78.0,,,HRV,HRV_0228,2022-11-30 19:59:56
,wl-rdm,195,485104,0.0-8.78-0.78,False,,1.0,195.0,,,,,,,[],,,,,,50.0,0.0,i,1.0,False,634.0999999046326,39.0,59.0,40.0,243.22030054047175,[],"[720, 405]",ColorTask,97.0,79.0,,,HRV,HRV_0228,2022-11-30 19:59:56
,wl-rdm,196,487521,0.0-8.79-0.79,False,,1.0,196.0,,,,,,,[],,,,,,62.5,1.0,u,0.0,False,1069.2999999523163,65.0,59.0,40.0,257.68286037080287,[],"[720, 405]",ColorTask,96.0,80.0,,,HRV,HRV_0228,2022-11-30 19:59:56
,wl-rdm,197,489953,0.0-8.80-0.80,False,,1.0,197.0,,,,,,,[],,,,,,53.2,1.0,i,1.0,True,1070.2000000476837,65.0,59.0,40.0,295.4354700935546,[],"[720, 405]",ColorTask,97.0,81.0,,,HRV,HRV_0228,2022-11-30 19:59:56
,wl-rdm,198,492070,0.0-8.81-0.81,False,,1.0,198.0,,,,,,,[],,,,,,53.2,1.0,i,1.0,True,766.4000000953674,46.0,59.0,40.0,279.46484268504145,[],"[720, 405]",ColorTask,98.0,82.0,,,HRV,HRV_0228,2022-11-30 19:59:56
,wl-rdm,199,494637,0.0-8.82-0.82,False,,1.0,199.0,,,,,,,[],,,,,,53.2,0.0,u,0.0,True,1213.7999999523163,73.0,59.0,40.0,286.5154470003882,[],"[720, 405]",ColorTask,99.0,83.0,,,HRV,HRV_0228,2022-11-30 19:59:56
,wl-rdm,200,496569,0.0-8.83-0.83,False,,1.0,200.0,,,,,,,[],,,,,,73.6,0.0,u,0.0,True,593.3999998569489,36.0,59.0,40.0,260.5842328929097,[],"[720, 405]",ColorTask,100.0,84.0,,,HRV,HRV_0228,2022-11-30 19:59:56
,wl-rdm,201,498436,0.0-8.84-0.84,False,,1.0,201.0,,,,,,,[],,,,,,50.0,0.0,i,1.0,False,579.2000000476837,35.0,59.0,40.0,207.64523435345438,[],"[720, 405]",ColorTask,99.0,85.0,,,HRV,HRV_0228,2022-11-30 19:59:56
,wl-rdm,202,500753,0.0-8.85-0.85,False,,1.0,202.0,,,,,,,[],,,,,,53.2,1.0,u,0.0,False,950.5,58.0,59.0,40.0,283.8980880291724,[],"[720, 405]",ColorTask,98.0,86.0,,,HRV,HRV_0228,2022-11-30 19:59:56
,wl-rdm,203,502653,0.0-8.86-0.86,False,,1.0,203.0,,,,,,,[],,,,,,87.9,1.0,i,1.0,True,532.1999999284744,32.0,59.0,40.0,290.98803138887575,[],"[720, 405]",ColorTask,99.0,87.0,,,HRV,HRV_0228,2022-11-30 19:59:56
,wl-rdm,204,504686,0.0-8.87-0.87,False,,1.0,204.0,,,,,,,[],,,,,,62.5,0.0,u,0.0,True,740.2999999523163,45.0,59.0,40.0,201.76611241335627,[],"[720, 405]",ColorTask,100.0,88.0,,,HRV,HRV_0228,2022-11-30 19:59:56
,wl-rdm,205,506586,0.0-8.88-0.88,False,,1.0,205.0,,,,,,,[],,,,,,73.6,1.0,i,1.0,True,610.2999999523163,36.0,59.0,40.0,217.84741325529004,[],"[720, 405]",ColorTask,101.0,89.0,,,HRV,HRV_0228,2022-11-30 19:59:56
,wl-rdm,206,509020,0.0-8.89-0.89,False,,1.0,206.0,,,,,,,[],,,,,,56.4,0.0,u,0.0,True,1133.0,68.0,59.0,40.0,225.80002938653197,[],"[720, 405]",ColorTask,102.0,90.0,,,HRV,HRV_0228,2022-11-30 19:59:56
,wl-rdm,207,511353,0.0-8.90-0.90,False,,1.0,207.0,,,,,,,[],,,,,,73.6,0.0,u,0.0,True,974.6000000238419,59.0,59.0,40.0,278.3417661693255,[],"[720, 405]",ColorTask,103.0,91.0,,,HRV,HRV_0228,2022-11-30 19:59:56
,wl-rdm,208,513335,0.0-8.91-0.91,False,,1.0,208.0,,,,,,,[],,,,,,73.6,1.0,i,1.0,True,637.6000000238419,39.0,59.0,40.0,263.47054870525625,[],"[720, 405]",ColorTask,104.0,92.0,,,HRV,HRV_0228,2022-11-30 19:59:56
,wl-rdm,209,515452,0.0-8.92-0.92,False,,1.0,209.0,,,,,,,[],,,,,,50.0,0.0,i,1.0,False,738.1999999284744,45.0,59.0,40.0,297.20678765300534,[],"[720, 405]",ColorTask,103.0,93.0,,,HRV,HRV_0228,2022-11-30 19:59:56
,wl-rdm,210,517685,0.0-8.93-0.93,False,,1.0,210.0,,,,,,,[],,,,,,50.0,1.0,i,1.0,True,826.8999998569489,50.0,59.0,40.0,329.45236108371387,[],"[720, 405]",ColorTask,104.0,94.0,,,HRV,HRV_0228,2022-11-30 19:59:56
,wl-rdm,211,519685,0.0-8.94-0.94,False,,1.0,211.0,,,,,,,[],,,,,,62.5,1.0,i,1.0,True,622.1000000238419,38.0,59.0,40.0,284.6028210216192,[],"[720, 405]",ColorTask,105.0,95.0,,,HRV,HRV_0228,2022-11-30 19:59:56
,wl-rdm,212,521602,0.0-8.95-0.95,False,,1.0,212.0,,,,,,,[],,,,,,87.9,1.0,i,1.0,True,601.6999999284744,37.0,59.0,40.0,217.88909952911916,[],"[720, 405]",ColorTask,106.0,96.0,,,HRV,HRV_0228,2022-11-30 19:59:56
,wl-rdm,213,523719,0.0-8.96-0.96,False,,1.0,213.0,,,,,,,[],,,,,,50.0,0.0,u,0.0,True,781.0,47.0,59.0,40.0,269.5185469286828,[],"[720, 405]",ColorTask,107.0,97.0,,,HRV,HRV_0228,2022-11-30 19:59:56
,wl-rdm,214,525952,0.0-8.97-0.97,False,,1.0,214.0,,,,,,,[],,,,,,62.5,1.0,i,1.0,True,903.8999998569489,55.0,59.0,40.0,244.0611896225898,[],"[720, 405]",ColorTask,108.0,98.0,,,HRV,HRV_0228,2022-11-30 19:59:56
,wl-rdm,215,527919,0.0-8.98-0.98,False,,1.0,215.0,,,,,,,[],,,,,,73.6,0.0,u,0.0,True,619.3999998569489,38.0,59.0,40.0,277.4126578301016,[],"[720, 405]",ColorTask,109.0,99.0,,,HRV,HRV_0228,2022-11-30 19:59:56
,wl-rdm,216,529851,0.0-8.99-0.99,False,,1.0,216.0,,,,,,,[],,,,,,87.9,1.0,i,1.0,True,657.8999998569489,40.0,59.0,40.0,212.43826640733434,[],"[720, 405]",ColorTask,110.0,100.0,,,HRV,HRV_0228,2022-11-30 19:59:56
,wl-rdm,217,531868,0.0-8.100-0.100,False,,1.0,217.0,,,,,,,[],,,,,,50.0,1.0,i,1.0,True,702.7999999523163,43.0,59.0,40.0,243.4147202761919,[],"[720, 405]",ColorTask,111.0,101.0,,,HRV,HRV_0228,2022-11-30 19:59:56
,wl-rdm,218,533735,0.0-8.101-0.101,False,,1.0,218.0,,,,,,,[],,,,,,73.6,1.0,i,1.0,True,559.7000000476837,34.0,59.0,40.0,243.10813372936178,[],"[720, 405]",ColorTask,112.0,102.0,,,HRV,HRV_0228,2022-11-30 19:59:56
,wl-rdm,219,535784,0.0-8.102-0.102,False,,1.0,219.0,,,,,,,[],,,,,,56.4,1.0,u,0.0,False,758.2999999523163,46.0,59.0,40.0,210.99844858676494,[],"[720, 405]",ColorTask,111.0,103.0,,,HRV,HRV_0228,2022-11-30 19:59:56
,wl-rdm,220,537885,0.0-8.103-0.103,False,,1.0,220.0,,,,,,,[],,,,,,87.9,0.0,u,0.0,True,636.8999999761581,39.0,59.0,40.0,380.40595300311685,[],"[720, 405]",ColorTask,112.0,104.0,,,HRV,HRV_0228,2022-11-30 19:59:56
,wl-rdm,221,539801,0.0-8.104-0.104,False,,1.0,221.0,,,,,,,[],,,,,,87.9,1.0,i,1.0,True,541.6000000238419,33.0,59.0,40.0,290.94983919130175,[],"[720, 405]",ColorTask,113.0,105.0,,,HRV,HRV_0228,2022-11-30 19:59:56
,wl-rdm,222,541867,0.0-8.105-0.105,False,,1.0,222.0,,,,,,,[],,,,,,50.0,0.0,u,0.0,True,794.8999999761581,48.0,59.0,40.0,216.27199347315303,[],"[720, 405]",ColorTask,114.0,106.0,,,HRV,HRV_0228,2022-11-30 19:59:56
,wl-rdm,223,544052,0.0-8.106-0.106,False,,1.0,223.0,,,,,,,[],,,,,,50.0,0.0,u,0.0,True,885.0,54.0,59.0,40.0,232.0098120777484,[],"[720, 405]",ColorTask,115.0,107.0,,,HRV,HRV_0228,2022-11-30 19:59:56
,wl-rdm,224,546784,0.0-8.107-0.107,False,,1.0,224.0,,,,,,,[],,,,,,62.5,0.0,i,1.0,False,1366.1000000238419,82.0,59.0,40.0,283.1634208277045,[],"[720, 405]",ColorTask,114.0,108.0,,,HRV,HRV_0228,2022-11-30 19:59:56
,wl-html-button-response,225,550062,0.0-9.0-0.0,,,,,,,,,,,,3269.0,,0,,,,,,,,,,,,,,,,,,<h3>End of this session. Thank you!</h3><br>,['Close window'],HRV,HRV_0228,2022-11-30 19:59:56
