trialN,stimuli,trialStartTime,trialStartTime_UNIX,stimulus1,stimulus2,stimulus1Bid,stimulus2Bid,delta,selected,rt,rt_UNIX,rt_perfnow,receivedResponse,rsp,trialEndTime,trialDuration,trialEndTime_UNIX,trialDuration_UNIX,exp,subjectId,date
0,"[{'imgObject': {}, 'id': 'blackbeanswithrice', 'src': '/static/foodstim60/blackbeanswithrice.jpg', 'key': 'u', 'origWidth': 410, 'origHeight': 410, 'width': 410, 'height': 410, 'widthPercent': 0.45, 'rescaleHeight': False, 'trialN': 0, 'loaded': True, 'loadedTime': 4813.100000023842, 'positionName': 'LEFT', 'positionCoords': [511.6, 335], 'bid': 1.66}, {'imgObject': {}, 'id': 'luckycharms', 'src': '/static/foodstim60/luckycharms.jpg', 'key': 'i', 'origWidth': 410, 'origHeight': 409, 'width': 410, 'height': 409, 'widthPercent': 0.45, 'rescaleHeight': False, 'trialN': 0, 'loaded': True, 'loadedTime': 4842.800000011921, 'positionName': 'RIGHT', 'positionCoords': [998.4, 335.5], 'bid': 4.75}]",5490.300000011921,1669829340085,blackbeanswithrice,luckycharms,1.66,4.75,3.09,luckycharms,1699.199999988079,1700,1699.5,True,i,7696.0,2205.699999988079,1669829342291,2206,HRV,HRV_0046,2022-11-30 17:33:58
1,"[{'imgObject': {}, 'id': 'mashed potato', 'src': '/static/foodstim60/mashed potato.jpg', 'key': 'u', 'origWidth': 409, 'origHeight': 409, 'width': 409, 'height': 409, 'widthPercent': 0.45, 'rescaleHeight': False, 'trialN': 1, 'loaded': True, 'loadedTime': 4843.5, 'positionName': 'LEFT', 'positionCoords': [512.6, 335.5], 'bid': 7.27}, {'imgObject': {}, 'id': 'avocado', 'src': '/static/foodstim60/avocado.jpg', 'key': 'i', 'origWidth': 409, 'origHeight': 409, 'width': 409, 'height': 409, 'widthPercent': 0.45, 'rescaleHeight': False, 'trialN': 1, 'loaded': True, 'loadedTime': 4858.600000023842, 'positionName': 'RIGHT', 'positionCoords': [998.4, 335.5], 'bid': 5.23}]",7696.199999988079,1669829342291,mashed potato,avocado,7.27,5.23,-2.039999999999999,avocado,2397.900000035763,2398,2398.0,True,i,10602.600000023842,2906.400000035763,1669829345197,2906,HRV,HRV_0046,2022-11-30 17:33:58
2,"[{'imgObject': {}, 'id': 'bagel and cc', 'src': '/static/foodstim60/bagel and cc.jpg', 'key': 'u', 'origWidth': 410, 'origHeight': 410, 'width': 410, 'height': 410, 'widthPercent': 0.45, 'rescaleHeight': False, 'trialN': 2, 'loaded': True, 'loadedTime': 4876.400000035763, 'positionName': 'LEFT', 'positionCoords': [511.6, 335], 'bid': 4.23}, {'imgObject': {}, 'id': 'banana', 'src': '/static/foodstim60/banana.jpg', 'key': 'i', 'origWidth': 410, 'origHeight': 410, 'width': 410, 'height': 410, 'widthPercent': 0.45, 'rescaleHeight': False, 'trialN': 2, 'loaded': True, 'loadedTime': 4895.400000035763, 'positionName': 'RIGHT', 'positionCoords': [998.4, 335], 'bid': 4.29}]",10602.600000023842,1669829345198,bagel and cc,banana,4.23,4.29,0.05999999999999961,bagel and cc,1907.3999999761581,1907,1907.800000011921,True,u,13020.800000011921,2418.199999988079,1669829347616,2418,HRV,HRV_0046,2022-11-30 17:33:58
3,"[{'imgObject': {}, 'id': 'cantaloupe', 'src': '/static/foodstim60/cantaloupe.jpg', 'key': 'u', 'origWidth': 409, 'origHeight': 409, 'width': 409, 'height': 409, 'widthPercent': 0.45, 'rescaleHeight': False, 'trialN': 3, 'loaded': True, 'loadedTime': 4901, 'positionName': 'LEFT', 'positionCoords': [512.6, 335.5], 'bid': 4.5}, {'imgObject': {}, 'id': 'popsicles', 'src': '/static/foodstim60/popsicles.jpg', 'key': 'i', 'origWidth': 410, 'origHeight': 410, 'width': 410, 'height': 410, 'widthPercent': 0.45, 'rescaleHeight': False, 'trialN': 3, 'loaded': True, 'loadedTime': 4924.300000011921, 'positionName': 'RIGHT', 'positionCoords': [998.4, 335], 'bid': 0.28}]",13021.0,1669829347616,cantaloupe,popsicles,4.5,0.28,-4.22,cantaloupe,1569.0,1569,1569.199999988079,True,u,15105.100000023842,2084.100000023842,1669829349700,2084,HRV,HRV_0046,2022-11-30 17:33:58
4,"[{'imgObject': {}, 'id': 'yogurt no spoon', 'src': '/static/foodstim60/yogurt no spoon.jpg', 'key': 'u', 'origWidth': 411, 'origHeight': 410, 'width': 411, 'height': 410, 'widthPercent': 0.45, 'rescaleHeight': False, 'trialN': 4, 'loaded': True, 'loadedTime': 4932.400000035763, 'positionName': 'LEFT', 'positionCoords': [510.6, 335], 'bid': 2.89}, {'imgObject': {}, 'id': 'banana', 'src': '/static/foodstim60/banana.jpg', 'key': 'i', 'origWidth': 410, 'origHeight': 410, 'width': 410, 'height': 410, 'widthPercent': 0.45, 'rescaleHeight': False, 'trialN': 4, 'loaded': True, 'loadedTime': 4889.400000035763, 'positionName': 'RIGHT', 'positionCoords': [998.4, 335], 'bid': 4.29}]",15105.300000011921,1669829349700,yogurt no spoon,banana,2.89,4.29,1.4,yogurt no spoon,1405.0,1406,1405.300000011921,True,u,17021.100000023842,1915.800000011921,1669829351616,1916,HRV,HRV_0046,2022-11-30 17:33:58
5,"[{'imgObject': {}, 'id': 'eggs', 'src': '/static/foodstim60/eggs.jpg', 'key': 'u', 'origWidth': 409, 'origHeight': 409, 'width': 409, 'height': 409, 'widthPercent': 0.45, 'rescaleHeight': False, 'trialN': 5, 'loaded': True, 'loadedTime': 4956.100000023842, 'positionName': 'LEFT', 'positionCoords': [512.6, 335.5], 'bid': 7.58}, {'imgObject': {}, 'id': 'fried eggs', 'src': '/static/foodstim60/fried eggs.jpg', 'key': 'i', 'origWidth': 410, 'origHeight': 410, 'width': 410, 'height': 410, 'widthPercent': 0.45, 'rescaleHeight': False, 'trialN': 5, 'loaded': True, 'loadedTime': 4967.800000011921, 'positionName': 'RIGHT', 'positionCoords': [998.4, 335], 'bid': 5.63}]",17021.19999998808,1669829351616,eggs,fried eggs,7.58,5.63,-1.9500000000000002,eggs,1753.4000000357628,1754,1753.5,True,u,19278.0,2256.800000011921,1669829353873,2257,HRV,HRV_0046,2022-11-30 17:33:58
6,"[{'imgObject': {}, 'id': 'cocktailshrimp', 'src': '/static/foodstim60/cocktailshrimp.jpg', 'key': 'u', 'origWidth': 410, 'origHeight': 410, 'width': 410, 'height': 410, 'widthPercent': 0.45, 'rescaleHeight': False, 'trialN': 6, 'loaded': True, 'loadedTime': 4982.199999988079, 'positionName': 'LEFT', 'positionCoords': [511.6, 335], 'bid': 6.48}, {'imgObject': {}, 'id': 'Tribe humus pita', 'src': '/static/foodstim60/Tribe humus pita.jpg', 'key': 'i', 'origWidth': 411, 'origHeight': 411, 'width': 411, 'height': 411, 'widthPercent': 0.45, 'rescaleHeight': False, 'trialN': 6, 'loaded': True, 'loadedTime': 4996.5, 'positionName': 'RIGHT', 'positionCoords': [998.4, 334.5], 'bid': 8.23}]",19278.0,1669829353873,cocktailshrimp,Tribe humus pita,6.48,8.23,1.75,Tribe humus pita,1184.800000011921,1185,1185.1000000238419,True,i,20976.69999998808,1698.699999988079,1669829355572,1699,HRV,HRV_0046,2022-11-30 17:33:58
7,"[{'imgObject': {}, 'id': 'blackbeanswithrice', 'src': '/static/foodstim60/blackbeanswithrice.jpg', 'key': 'u', 'origWidth': 410, 'origHeight': 410, 'width': 410, 'height': 410, 'widthPercent': 0.45, 'rescaleHeight': False, 'trialN': 7, 'loaded': True, 'loadedTime': 4818.600000023842, 'positionName': 'LEFT', 'positionCoords': [511.6, 335], 'bid': 1.66}, {'imgObject': {}, 'id': 'kiwi', 'src': '/static/foodstim60/kiwi.jpg', 'key': 'i', 'origWidth': 410, 'origHeight': 410, 'width': 410, 'height': 410, 'widthPercent': 0.45, 'rescaleHeight': False, 'trialN': 7, 'loaded': True, 'loadedTime': 5019.199999988079, 'positionName': 'RIGHT', 'positionCoords': [998.4, 335], 'bid': 3.33}]",20976.80000001192,1669829355572,blackbeanswithrice,kiwi,1.66,3.33,1.6700000000000002,kiwi,1814.300000011921,1814,1814.6000000238419,True,i,23301.80000001192,2325.0,1669829357897,2325,HRV,HRV_0046,2022-11-30 17:33:58
8,"[{'imgObject': {}, 'id': 'burrito', 'src': '/static/foodstim60/burrito.jpg', 'key': 'u', 'origWidth': 410, 'origHeight': 410, 'width': 410, 'height': 410, 'widthPercent': 0.45, 'rescaleHeight': False, 'trialN': 8, 'loaded': True, 'loadedTime': 5039, 'positionName': 'LEFT', 'positionCoords': [511.6, 335], 'bid': 6.76}, {'imgObject': {}, 'id': 'baked potato', 'src': '/static/foodstim60/baked potato.jpg', 'key': 'i', 'origWidth': 409, 'origHeight': 410, 'width': 409, 'height': 410, 'widthPercent': 0.45, 'rescaleHeight': False, 'trialN': 8, 'loaded': True, 'loadedTime': 5050.400000035763, 'positionName': 'RIGHT', 'positionCoords': [998.4, 335], 'bid': 3.42}]",23301.900000035763,1669829357897,burrito,baked potato,6.76,3.42,-3.34,burrito,1657.2999999523163,1657,1657.5999999642372,True,u,25474.69999998808,2172.7999999523163,1669829360070,2173,HRV,HRV_0046,2022-11-30 17:33:58
9,"[{'imgObject': {}, 'id': 'fruitsalad', 'src': '/static/foodstim60/fruitsalad.jpg', 'key': 'u', 'origWidth': 410, 'origHeight': 410, 'width': 410, 'height': 410, 'widthPercent': 0.45, 'rescaleHeight': False, 'trialN': 9, 'loaded': True, 'loadedTime': 5072.900000035763, 'positionName': 'LEFT', 'positionCoords': [511.6, 335], 'bid': 4.03}, {'imgObject': {}, 'id': 'baked potato', 'src': '/static/foodstim60/baked potato.jpg', 'key': 'i', 'origWidth': 409, 'origHeight': 410, 'width': 409, 'height': 410, 'widthPercent': 0.45, 'rescaleHeight': False, 'trialN': 9, 'loaded': True, 'loadedTime': 5047.900000035763, 'positionName': 'RIGHT', 'positionCoords': [998.4, 335], 'bid': 3.42}]",25474.80000001192,1669829360070,fruitsalad,baked potato,4.03,3.42,-0.6100000000000003,baked potato,1516.6000000238419,1517,1516.8999999761581,True,i,27503.100000023842,2028.300000011921,1669829362098,2028,HRV,HRV_0046,2022-11-30 17:33:58
10,"[{'imgObject': {}, 'id': 'omelette', 'src': '/static/foodstim60/omelette.jpg', 'key': 'u', 'origWidth': 410, 'origHeight': 409, 'width': 410, 'height': 409, 'widthPercent': 0.45, 'rescaleHeight': False, 'trialN': 10, 'loaded': True, 'loadedTime': 5075.600000023842, 'positionName': 'LEFT', 'positionCoords': [511.6, 335.5], 'bid': 1.78}, {'imgObject': {}, 'id': 'fruitsalad', 'src': '/static/foodstim60/fruitsalad.jpg', 'key': 'i', 'origWidth': 410, 'origHeight': 410, 'width': 410, 'height': 410, 'widthPercent': 0.45, 'rescaleHeight': False, 'trialN': 10, 'loaded': True, 'loadedTime': 5055.900000035763, 'positionName': 'RIGHT', 'positionCoords': [998.4, 335], 'bid': 4.03}]",27503.30000001192,1669829362098,omelette,fruitsalad,1.78,4.03,2.25,fruitsalad,2336.5,2337,2336.800000011921,True,i,30353.0,2849.699999988079,1669829364948,2850,HRV,HRV_0046,2022-11-30 17:33:58
11,"[{'imgObject': {}, 'id': 'avocado', 'src': '/static/foodstim60/avocado.jpg', 'key': 'u', 'origWidth': 409, 'origHeight': 409, 'width': 409, 'height': 409, 'widthPercent': 0.45, 'rescaleHeight': False, 'trialN': 11, 'loaded': True, 'loadedTime': 4865.100000023842, 'positionName': 'LEFT', 'positionCoords': [512.6, 335.5], 'bid': 5.23}, {'imgObject': {}, 'id': 'turkey sandwich', 'src': '/static/foodstim60/turkey sandwich.jpg', 'key': 'i', 'origWidth': 409, 'origHeight': 409, 'width': 409, 'height': 409, 'widthPercent': 0.45, 'rescaleHeight': False, 'trialN': 11, 'loaded': True, 'loadedTime': 5091.300000011921, 'positionName': 'RIGHT', 'positionCoords': [998.4, 335.5], 'bid': 8.28}]",30353.100000023842,1669829364948,avocado,turkey sandwich,5.23,8.28,3.049999999999999,turkey sandwich,1015.3000000119209,1016,1015.5,True,i,31881.0,1527.8999999761581,1669829366476,1528,HRV,HRV_0046,2022-11-30 17:33:58
12,"[{'imgObject': {}, 'id': 'luckycharms', 'src': '/static/foodstim60/luckycharms.jpg', 'key': 'u', 'origWidth': 410, 'origHeight': 409, 'width': 410, 'height': 409, 'widthPercent': 0.45, 'rescaleHeight': False, 'trialN': 12, 'loaded': True, 'loadedTime': 4830.400000035763, 'positionName': 'LEFT', 'positionCoords': [511.6, 335.5], 'bid': 4.75}, {'imgObject': {}, 'id': 'cherry tomato', 'src': '/static/foodstim60/cherry tomato.jpg', 'key': 'i', 'origWidth': 410, 'origHeight': 410, 'width': 410, 'height': 410, 'widthPercent': 0.45, 'rescaleHeight': False, 'trialN': 12, 'loaded': True, 'loadedTime': 5102.199999988079, 'positionName': 'RIGHT', 'positionCoords': [998.4, 335], 'bid': 4.65}]",31881.0,1669829366476,luckycharms,cherry tomato,4.75,4.65,-0.09999999999999964,cherry tomato,2127.300000011921,2128,2127.600000023842,True,i,34522.0,2641.0,1669829369117,2641,HRV,HRV_0046,2022-11-30 17:33:58
13,"[{'imgObject': {}, 'id': 'raspberries', 'src': '/static/foodstim60/raspberries.jpg', 'key': 'u', 'origWidth': 411, 'origHeight': 411, 'width': 411, 'height': 411, 'widthPercent': 0.45, 'rescaleHeight': False, 'trialN': 13, 'loaded': True, 'loadedTime': 5120.100000023842, 'positionName': 'LEFT', 'positionCoords': [510.6, 334.5], 'bid': 1.51}, {'imgObject': {}, 'id': 'pear', 'src': '/static/foodstim60/pear.jpg', 'key': 'i', 'origWidth': 411, 'origHeight': 410, 'width': 411, 'height': 410, 'widthPercent': 0.45, 'rescaleHeight': False, 'trialN': 13, 'loaded': True, 'loadedTime': 5144.600000023842, 'positionName': 'RIGHT', 'positionCoords': [998.4, 335], 'bid': 1.46}]",34522.10000002384,1669829369117,raspberries,pear,1.51,1.46,-0.050000000000000044,pear,1326.3999999761581,1327,1326.5999999642372,True,i,36357.69999998808,1835.5999999642372,1669829370953,1836,HRV,HRV_0046,2022-11-30 17:33:58
14,"[{'imgObject': {}, 'id': 'edamame', 'src': '/static/foodstim60/edamame.jpg', 'key': 'u', 'origWidth': 409, 'origHeight': 410, 'width': 409, 'height': 410, 'widthPercent': 0.45, 'rescaleHeight': False, 'trialN': 14, 'loaded': True, 'loadedTime': 5153.600000023842, 'positionName': 'LEFT', 'positionCoords': [512.6, 335], 'bid': 2.19}, {'imgObject': {}, 'id': 'strawberries', 'src': '/static/foodstim60/strawberries.jpg', 'key': 'i', 'origWidth': 410, 'origHeight': 410, 'width': 410, 'height': 410, 'widthPercent': 0.45, 'rescaleHeight': False, 'trialN': 14, 'loaded': True, 'loadedTime': 5164.199999988079, 'positionName': 'RIGHT', 'positionCoords': [998.4, 335], 'bid': 2.93}]",36357.80000001192,1669829370953,edamame,strawberries,2.19,2.93,0.7400000000000002,strawberries,1226.800000011921,1227,1227.1000000238419,True,i,38100.30000001192,1742.5,1669829372695,1742,HRV,HRV_0046,2022-11-30 17:33:58
15,"[{'imgObject': {}, 'id': 'Tribe humus pita', 'src': '/static/foodstim60/Tribe humus pita.jpg', 'key': 'u', 'origWidth': 411, 'origHeight': 411, 'width': 411, 'height': 411, 'widthPercent': 0.45, 'rescaleHeight': False, 'trialN': 15, 'loaded': True, 'loadedTime': 5007.5, 'positionName': 'LEFT', 'positionCoords': [510.6, 334.5], 'bid': 8.23}, {'imgObject': {}, 'id': 'seaweed', 'src': '/static/foodstim60/seaweed.jpg', 'key': 'i', 'origWidth': 410, 'origHeight': 410, 'width': 410, 'height': 410, 'widthPercent': 0.45, 'rescaleHeight': False, 'trialN': 15, 'loaded': True, 'loadedTime': 5174.800000011921, 'positionName': 'RIGHT', 'positionCoords': [998.4, 335], 'bid': 7.95}]",38100.5,1669829372695,Tribe humus pita,seaweed,8.23,7.95,-0.28000000000000025,seaweed,1180.300000011921,1181,1180.5,True,i,39799.60000002384,1699.1000000238419,1669829374395,1700,HRV,HRV_0046,2022-11-30 17:33:58
16,"[{'imgObject': {}, 'id': 'luckycharms', 'src': '/static/foodstim60/luckycharms.jpg', 'key': 'u', 'origWidth': 410, 'origHeight': 409, 'width': 410, 'height': 409, 'widthPercent': 0.45, 'rescaleHeight': False, 'trialN': 16, 'loaded': True, 'loadedTime': 4836.800000011921, 'positionName': 'LEFT', 'positionCoords': [511.6, 335.5], 'bid': 4.75}, {'imgObject': {}, 'id': 'mashed potato', 'src': '/static/foodstim60/mashed potato.jpg', 'key': 'i', 'origWidth': 409, 'origHeight': 409, 'width': 409, 'height': 409, 'widthPercent': 0.45, 'rescaleHeight': False, 'trialN': 16, 'loaded': True, 'loadedTime': 4847.300000011921, 'positionName': 'RIGHT', 'positionCoords': [998.4, 335.5], 'bid': 7.27}]",39799.90000003576,1669829374395,luckycharms,mashed potato,4.75,7.27,2.5199999999999996,mashed potato,1081.199999988079,1081,1081.699999988079,True,i,41391.69999998808,1591.7999999523163,1669829375987,1592,HRV,HRV_0046,2022-11-30 17:33:58
17,"[{'imgObject': {}, 'id': 'chickenfingers', 'src': '/static/foodstim60/chickenfingers.jpg', 'key': 'u', 'origWidth': 410, 'origHeight': 410, 'width': 410, 'height': 410, 'widthPercent': 0.45, 'rescaleHeight': False, 'trialN': 17, 'loaded': True, 'loadedTime': 5189.100000023842, 'positionName': 'LEFT', 'positionCoords': [511.6, 335], 'bid': 4.83}, {'imgObject': {}, 'id': 'seaweed', 'src': '/static/foodstim60/seaweed.jpg', 'key': 'i', 'origWidth': 410, 'origHeight': 410, 'width': 410, 'height': 410, 'widthPercent': 0.45, 'rescaleHeight': False, 'trialN': 17, 'loaded': True, 'loadedTime': 5170.800000011921, 'positionName': 'RIGHT', 'positionCoords': [998.4, 335], 'bid': 7.95}]",41391.80000001192,1669829375987,chickenfingers,seaweed,4.83,7.95,3.12,chickenfingers,1329.3999999761581,1329,1329.699999988079,True,u,43229.0,1837.199999988079,1669829377824,1837,HRV,HRV_0046,2022-11-30 17:33:58
18,"[{'imgObject': {}, 'id': 'banana', 'src': '/static/foodstim60/banana.jpg', 'key': 'u', 'origWidth': 410, 'origHeight': 410, 'width': 410, 'height': 410, 'widthPercent': 0.45, 'rescaleHeight': False, 'trialN': 18, 'loaded': True, 'loadedTime': 4898.199999988079, 'positionName': 'LEFT', 'positionCoords': [511.6, 335], 'bid': 4.29}, {'imgObject': {}, 'id': 'turkey sandwich', 'src': '/static/foodstim60/turkey sandwich.jpg', 'key': 'i', 'origWidth': 409, 'origHeight': 409, 'width': 409, 'height': 409, 'widthPercent': 0.45, 'rescaleHeight': False, 'trialN': 18, 'loaded': True, 'loadedTime': 5101.900000035763, 'positionName': 'RIGHT', 'positionCoords': [998.4, 335.5], 'bid': 8.28}]",43229.10000002384,1669829377824,banana,turkey sandwich,4.29,8.28,3.9899999999999993,turkey sandwich,836.5,837,836.6999999880791,True,i,44576.60000002384,1347.5,1669829379172,1348,HRV,HRV_0046,2022-11-30 17:33:58
19,"[{'imgObject': {}, 'id': 'hashbrowns', 'src': '/static/foodstim60/hashbrowns.jpg', 'key': 'u', 'origWidth': 411, 'origHeight': 410, 'width': 411, 'height': 410, 'widthPercent': 0.45, 'rescaleHeight': False, 'trialN': 19, 'loaded': True, 'loadedTime': 5200.199999988079, 'positionName': 'LEFT', 'positionCoords': [510.6, 335], 'bid': 5.63}, {'imgObject': {}, 'id': 'roastedpotatoes', 'src': '/static/foodstim60/roastedpotatoes.jpg', 'key': 'i', 'origWidth': 409, 'origHeight': 410, 'width': 409, 'height': 410, 'widthPercent': 0.45, 'rescaleHeight': False, 'trialN': 19, 'loaded': True, 'loadedTime': 5224.100000023842, 'positionName': 'RIGHT', 'positionCoords': [998.4, 335], 'bid': 5.63}]",44576.80000001192,1669829379172,hashbrowns,roastedpotatoes,5.63,5.63,0.0,roastedpotatoes,1152.6000000238419,1153,1153.1000000238419,True,i,46248.90000003576,1672.1000000238419,1669829380844,1672,HRV,HRV_0046,2022-11-30 17:33:58
20,"[{'imgObject': {}, 'id': 'cherry tomato', 'src': '/static/foodstim60/cherry tomato.jpg', 'key': 'u', 'origWidth': 410, 'origHeight': 410, 'width': 410, 'height': 410, 'widthPercent': 0.45, 'rescaleHeight': False, 'trialN': 20, 'loaded': True, 'loadedTime': 5103.100000023842, 'positionName': 'LEFT', 'positionCoords': [511.6, 335], 'bid': 4.65}, {'imgObject': {}, 'id': 'rigatoni', 'src': '/static/foodstim60/rigatoni.jpg', 'key': 'i', 'origWidth': 411, 'origHeight': 411, 'width': 411, 'height': 411, 'widthPercent': 0.45, 'rescaleHeight': False, 'trialN': 20, 'loaded': True, 'loadedTime': 5239.5, 'positionName': 'RIGHT', 'positionCoords': [998.4, 334.5], 'bid': 4.59}]",46249.10000002384,1669829380844,cherry tomato,rigatoni,4.65,4.59,-0.0600000000000005,cherry tomato,992.5,993,992.8000000119209,True,u,47761.10000002384,1512.0,1669829382356,1512,HRV,HRV_0046,2022-11-30 17:33:58
21,"[{'imgObject': {}, 'id': 'seaweed', 'src': '/static/foodstim60/seaweed.jpg', 'key': 'u', 'origWidth': 410, 'origHeight': 410, 'width': 410, 'height': 410, 'widthPercent': 0.45, 'rescaleHeight': False, 'trialN': 21, 'loaded': True, 'loadedTime': 5177.600000023842, 'positionName': 'LEFT', 'positionCoords': [511.6, 335], 'bid': 7.95}, {'imgObject': {}, 'id': 'turkeysandwich', 'src': '/static/foodstim60/turkeysandwich.jpg', 'key': 'i', 'origWidth': 409, 'origHeight': 409, 'width': 409, 'height': 409, 'widthPercent': 0.45, 'rescaleHeight': False, 'trialN': 21, 'loaded': True, 'loadedTime': 5239.5, 'positionName': 'RIGHT', 'positionCoords': [998.4, 335.5], 'bid': 8.02}]",47761.10000002384,1669829382356,seaweed,turkeysandwich,7.95,8.02,0.0699999999999994,turkeysandwich,1272.800000011921,1273,1273.0,True,i,49545.80000001192,1784.699999988079,1669829384141,1785,HRV,HRV_0046,2022-11-30 17:33:58
22,"[{'imgObject': {}, 'id': 'strawberries', 'src': '/static/foodstim60/strawberries.jpg', 'key': 'u', 'origWidth': 410, 'origHeight': 410, 'width': 410, 'height': 410, 'widthPercent': 0.45, 'rescaleHeight': False, 'trialN': 22, 'loaded': True, 'loadedTime': 5167.900000035763, 'positionName': 'LEFT', 'positionCoords': [511.6, 335], 'bid': 2.93}, {'imgObject': {}, 'id': 'fried eggs', 'src': '/static/foodstim60/fried eggs.jpg', 'key': 'i', 'origWidth': 410, 'origHeight': 410, 'width': 410, 'height': 410, 'widthPercent': 0.45, 'rescaleHeight': False, 'trialN': 22, 'loaded': True, 'loadedTime': 4968.100000023842, 'positionName': 'RIGHT', 'positionCoords': [998.4, 335], 'bid': 5.63}]",49546.0,1669829384141,strawberries,fried eggs,2.93,5.63,2.6999999999999997,fried eggs,1136.4000000357628,1137,1136.699999988079,True,i,51202.80000001192,1656.800000011921,1669829385798,1657,HRV,HRV_0046,2022-11-30 17:33:58
23,"[{'imgObject': {}, 'id': 'cantaloupe', 'src': '/static/foodstim60/cantaloupe.jpg', 'key': 'u', 'origWidth': 409, 'origHeight': 409, 'width': 409, 'height': 409, 'widthPercent': 0.45, 'rescaleHeight': False, 'trialN': 23, 'loaded': True, 'loadedTime': 4907.800000011921, 'positionName': 'LEFT', 'positionCoords': [512.6, 335.5], 'bid': 4.5}, {'imgObject': {}, 'id': 'shreddedwheatwithmilk', 'src': '/static/foodstim60/shreddedwheatwithmilk.jpg', 'key': 'i', 'origWidth': 410, 'origHeight': 410, 'width': 410, 'height': 410, 'widthPercent': 0.45, 'rescaleHeight': False, 'trialN': 23, 'loaded': True, 'loadedTime': 5251.400000035763, 'positionName': 'RIGHT', 'positionCoords': [998.4, 335], 'bid': 4.57}]",51202.80000001192,1669829385798,cantaloupe,shreddedwheatwithmilk,4.5,4.57,0.07000000000000028,shreddedwheatwithmilk,1047.300000011921,1047,1047.5,True,i,52763.5,1560.699999988079,1669829387358,1560,HRV,HRV_0046,2022-11-30 17:33:58
24,"[{'imgObject': {}, 'id': 'blackbeanswithrice', 'src': '/static/foodstim60/blackbeanswithrice.jpg', 'key': 'u', 'origWidth': 410, 'origHeight': 410, 'width': 410, 'height': 410, 'widthPercent': 0.45, 'rescaleHeight': False, 'trialN': 24, 'loaded': True, 'loadedTime': 4809.699999988079, 'positionName': 'LEFT', 'positionCoords': [511.6, 335], 'bid': 1.66}, {'imgObject': {}, 'id': 'cherries', 'src': '/static/foodstim60/cherries.jpg', 'key': 'i', 'origWidth': 410, 'origHeight': 411, 'width': 410, 'height': 411, 'widthPercent': 0.45, 'rescaleHeight': False, 'trialN': 24, 'loaded': True, 'loadedTime': 5279.699999988079, 'positionName': 'RIGHT', 'positionCoords': [998.4, 334.5], 'bid': 1.65}]",52763.5,1669829387358,blackbeanswithrice,cherries,1.66,1.65,-0.010000000000000009,cherries,1150.9000000357628,1152,1151.300000011921,True,i,54420.90000003576,1657.4000000357628,1669829389016,1658,HRV,HRV_0046,2022-11-30 17:33:58
25,"[{'imgObject': {}, 'id': 'lox', 'src': '/static/foodstim60/lox.jpg', 'key': 'u', 'origWidth': 410, 'origHeight': 411, 'width': 410, 'height': 411, 'widthPercent': 0.45, 'rescaleHeight': False, 'trialN': 25, 'loaded': True, 'loadedTime': 5280.900000035763, 'positionName': 'LEFT', 'positionCoords': [511.6, 334.5], 'bid': 3.46}, {'imgObject': {}, 'id': 'apple slices', 'src': '/static/foodstim60/apple slices.jpg', 'key': 'i', 'origWidth': 409, 'origHeight': 410, 'width': 409, 'height': 410, 'widthPercent': 0.45, 'rescaleHeight': False, 'trialN': 25, 'loaded': True, 'loadedTime': 5298.100000023842, 'positionName': 'RIGHT', 'positionCoords': [998.4, 335], 'bid': 3.6}]",54421.0,1669829389016,lox,apple slices,3.46,3.6,0.14000000000000012,lox,1981.800000011921,1982,1982.1000000238419,True,u,56912.60000002384,2491.600000023842,1669829391508,2492,HRV,HRV_0046,2022-11-30 17:33:58
26,"[{'imgObject': {}, 'id': 'blueberries', 'src': '/static/foodstim60/blueberries.jpg', 'key': 'u', 'origWidth': 411, 'origHeight': 411, 'width': 411, 'height': 411, 'widthPercent': 0.45, 'rescaleHeight': False, 'trialN': 26, 'loaded': True, 'loadedTime': 5310.800000011921, 'positionName': 'LEFT', 'positionCoords': [510.6, 334.5], 'bid': 4.43}, {'imgObject': {}, 'id': 'cherry tomato', 'src': '/static/foodstim60/cherry tomato.jpg', 'key': 'i', 'origWidth': 410, 'origHeight': 410, 'width': 410, 'height': 410, 'widthPercent': 0.45, 'rescaleHeight': False, 'trialN': 26, 'loaded': True, 'loadedTime': 5113.5, 'positionName': 'RIGHT', 'positionCoords': [998.4, 335], 'bid': 4.65}]",56912.80000001192,1669829391508,blueberries,cherry tomato,4.43,4.65,0.22000000000000064,cherry tomato,1178.0,1178,1178.300000011921,True,i,58609.30000001192,1696.5,1669829393205,1697,HRV,HRV_0046,2022-11-30 17:33:58
27,"[{'imgObject': {}, 'id': 'tacos', 'src': '/static/foodstim60/tacos.jpg', 'key': 'u', 'origWidth': 411, 'origHeight': 411, 'width': 411, 'height': 411, 'widthPercent': 0.45, 'rescaleHeight': False, 'trialN': 27, 'loaded': True, 'loadedTime': 5318.900000035763, 'positionName': 'LEFT', 'positionCoords': [510.6, 334.5], 'bid': 8.41}, {'imgObject': {}, 'id': 'sushi w_condiments', 'src': '/static/foodstim60/sushi w_condiments.jpg', 'key': 'i', 'origWidth': 410, 'origHeight': 410, 'width': 410, 'height': 410, 'widthPercent': 0.45, 'rescaleHeight': False, 'trialN': 27, 'loaded': True, 'loadedTime': 5336.600000023842, 'positionName': 'RIGHT', 'positionCoords': [998.4, 335], 'bid': 8.8}]",58609.5,1669829393205,tacos,sushi w_condiments,8.41,8.8,0.39000000000000057,tacos,817.4000000357628,817,817.6999999880791,True,u,59935.80000001192,1326.300000011921,1669829394531,1326,HRV,HRV_0046,2022-11-30 17:33:58
28,"[{'imgObject': {}, 'id': 'strawberries', 'src': '/static/foodstim60/strawberries.jpg', 'key': 'u', 'origWidth': 410, 'origHeight': 410, 'width': 410, 'height': 410, 'widthPercent': 0.45, 'rescaleHeight': False, 'trialN': 28, 'loaded': True, 'loadedTime': 5168.100000023842, 'positionName': 'LEFT', 'positionCoords': [511.6, 335], 'bid': 2.93}, {'imgObject': {}, 'id': 'yogurt no spoon', 'src': '/static/foodstim60/yogurt no spoon.jpg', 'key': 'i', 'origWidth': 411, 'origHeight': 410, 'width': 411, 'height': 410, 'widthPercent': 0.45, 'rescaleHeight': False, 'trialN': 28, 'loaded': True, 'loadedTime': 4944.300000011921, 'positionName': 'RIGHT', 'positionCoords': [998.4, 335], 'bid': 2.89}]",59935.90000003576,1669829394531,strawberries,yogurt no spoon,2.93,2.89,-0.040000000000000036,yogurt no spoon,1483.2999999523163,1484,1483.5,True,i,61937.40000003576,2001.5,1669829396533,2002,HRV,HRV_0046,2022-11-30 17:33:58
29,"[{'imgObject': {}, 'id': 'raspberries', 'src': '/static/foodstim60/raspberries.jpg', 'key': 'u', 'origWidth': 411, 'origHeight': 411, 'width': 411, 'height': 411, 'widthPercent': 0.45, 'rescaleHeight': False, 'trialN': 29, 'loaded': True, 'loadedTime': 5122.699999988079, 'positionName': 'LEFT', 'positionCoords': [510.6, 334.5], 'bid': 1.51}, {'imgObject': {}, 'id': 'corn cob', 'src': '/static/foodstim60/corn cob.jpg', 'key': 'i', 'origWidth': 411, 'origHeight': 411, 'width': 411, 'height': 411, 'widthPercent': 0.45, 'rescaleHeight': False, 'trialN': 29, 'loaded': True, 'loadedTime': 5345.800000011921, 'positionName': 'RIGHT', 'positionCoords': [998.4, 334.5], 'bid': 3.52}]",61937.5,1669829396533,raspberries,corn cob,1.51,3.52,2.01,corn cob,1305.9000000357628,1306,1306.199999988079,True,i,63752.10000002384,1814.6000000238419,1669829398347,1814,HRV,HRV_0046,2022-11-30 17:33:58
30,"[{'imgObject': {}, 'id': 'bagel and cc', 'src': '/static/foodstim60/bagel and cc.jpg', 'key': 'u', 'origWidth': 410, 'origHeight': 410, 'width': 410, 'height': 410, 'widthPercent': 0.45, 'rescaleHeight': False, 'trialN': 30, 'loaded': True, 'loadedTime': 4887, 'positionName': 'LEFT', 'positionCoords': [511.6, 335], 'bid': 4.23}, {'imgObject': {}, 'id': 'granola w milk', 'src': '/static/foodstim60/granola w milk.jpg', 'key': 'i', 'origWidth': 410, 'origHeight': 410, 'width': 410, 'height': 410, 'widthPercent': 0.45, 'rescaleHeight': False, 'trialN': 30, 'loaded': True, 'loadedTime': 5352.199999988079, 'positionName': 'RIGHT', 'positionCoords': [998.4, 335], 'bid': 4.38}]",63752.10000002384,1669829398347,bagel and cc,granola w milk,4.23,4.38,0.14999999999999947,granola w milk,1091.5,1092,1091.699999988079,True,i,65352.40000003576,1600.300000011921,1669829399948,1601,HRV,HRV_0046,2022-11-30 17:33:58
31,"[{'imgObject': {}, 'id': 'omelette', 'src': '/static/foodstim60/omelette.jpg', 'key': 'u', 'origWidth': 410, 'origHeight': 409, 'width': 410, 'height': 409, 'widthPercent': 0.45, 'rescaleHeight': False, 'trialN': 31, 'loaded': True, 'loadedTime': 5079.199999988079, 'positionName': 'LEFT', 'positionCoords': [511.6, 335.5], 'bid': 1.78}, {'imgObject': {}, 'id': 'blackbeanswithrice', 'src': '/static/foodstim60/blackbeanswithrice.jpg', 'key': 'i', 'origWidth': 410, 'origHeight': 410, 'width': 410, 'height': 410, 'widthPercent': 0.45, 'rescaleHeight': False, 'trialN': 31, 'loaded': True, 'loadedTime': 4824, 'positionName': 'RIGHT', 'positionCoords': [998.4, 335], 'bid': 1.66}]",65352.5,1669829399948,omelette,blackbeanswithrice,1.78,1.66,-0.1200000000000001,omelette,1219.300000011921,1219,1219.5,True,u,67087.40000003576,1734.9000000357628,1669829401683,1735,HRV,HRV_0046,2022-11-30 17:33:58
32,"[{'imgObject': {}, 'id': 'luckycharms', 'src': '/static/foodstim60/luckycharms.jpg', 'key': 'u', 'origWidth': 410, 'origHeight': 409, 'width': 410, 'height': 409, 'widthPercent': 0.45, 'rescaleHeight': False, 'trialN': 32, 'loaded': True, 'loadedTime': 4840, 'positionName': 'LEFT', 'positionCoords': [511.6, 335.5], 'bid': 4.75}, {'imgObject': {}, 'id': 'banana', 'src': '/static/foodstim60/banana.jpg', 'key': 'i', 'origWidth': 410, 'origHeight': 410, 'width': 410, 'height': 410, 'widthPercent': 0.45, 'rescaleHeight': False, 'trialN': 32, 'loaded': True, 'loadedTime': 4898.100000023842, 'positionName': 'RIGHT', 'positionCoords': [998.4, 335], 'bid': 4.29}]",67087.5,1669829401683,luckycharms,banana,4.75,4.29,-0.45999999999999996,luckycharms,1268.4000000357628,1269,1269.1000000238419,True,u,68864.69999998808,1777.199999988079,1669829403460,1777,HRV,HRV_0046,2022-11-30 17:33:58
33,"[{'imgObject': {}, 'id': 'chickenfingers', 'src': '/static/foodstim60/chickenfingers.jpg', 'key': 'u', 'origWidth': 410, 'origHeight': 410, 'width': 410, 'height': 410, 'widthPercent': 0.45, 'rescaleHeight': False, 'trialN': 33, 'loaded': True, 'loadedTime': 5182.900000035763, 'positionName': 'LEFT', 'positionCoords': [511.6, 335], 'bid': 4.83}, {'imgObject': {}, 'id': 'raisin bran w milk', 'src': '/static/foodstim60/raisin bran w milk.jpg', 'key': 'i', 'origWidth': 411, 'origHeight': 411, 'width': 411, 'height': 411, 'widthPercent': 0.45, 'rescaleHeight': False, 'trialN': 33, 'loaded': True, 'loadedTime': 5361.100000023842, 'positionName': 'RIGHT', 'positionCoords': [998.4, 334.5], 'bid': 4.7700000000000005}]",68864.69999998808,1669829403460,chickenfingers,raisin bran w milk,4.83,4.7700000000000005,-0.05999999999999961,chickenfingers,1435.6000000238419,1436,1435.9000000357628,True,u,70807.60000002384,1942.9000000357628,1669829405403,1943,HRV,HRV_0046,2022-11-30 17:33:58
34,"[{'imgObject': {}, 'id': 'hashbrowns', 'src': '/static/foodstim60/hashbrowns.jpg', 'key': 'u', 'origWidth': 411, 'origHeight': 410, 'width': 411, 'height': 410, 'widthPercent': 0.45, 'rescaleHeight': False, 'trialN': 34, 'loaded': True, 'loadedTime': 5204, 'positionName': 'LEFT', 'positionCoords': [510.6, 335], 'bid': 5.63}, {'imgObject': {}, 'id': 'chickenfingers', 'src': '/static/foodstim60/chickenfingers.jpg', 'key': 'i', 'origWidth': 410, 'origHeight': 410, 'width': 410, 'height': 410, 'widthPercent': 0.45, 'rescaleHeight': False, 'trialN': 34, 'loaded': True, 'loadedTime': 5186.400000035763, 'positionName': 'RIGHT', 'positionCoords': [998.4, 335], 'bid': 4.83}]",70807.69999998808,1669829405403,hashbrowns,chickenfingers,5.63,4.83,-0.7999999999999998,chickenfingers,868.6000000238419,869,868.8000000119209,True,i,72182.90000003576,1375.2000000476837,1669829406778,1375,HRV,HRV_0046,2022-11-30 17:33:58
35,"[{'imgObject': {}, 'id': 'steak', 'src': '/static/foodstim60/steak.jpg', 'key': 'u', 'origWidth': 410, 'origHeight': 410, 'width': 410, 'height': 410, 'widthPercent': 0.45, 'rescaleHeight': False, 'trialN': 35, 'loaded': True, 'loadedTime': 5371.800000011921, 'positionName': 'LEFT', 'positionCoords': [511.6, 335], 'bid': 7.16}, {'imgObject': {}, 'id': 'eggs', 'src': '/static/foodstim60/eggs.jpg', 'key': 'i', 'origWidth': 409, 'origHeight': 409, 'width': 409, 'height': 409, 'widthPercent': 0.45, 'rescaleHeight': False, 'trialN': 35, 'loaded': True, 'loadedTime': 4958.900000035763, 'positionName': 'RIGHT', 'positionCoords': [998.4, 335.5], 'bid': 7.58}]",72183.0,1669829406778,steak,eggs,7.16,7.58,0.41999999999999993,steak,709.5,710,709.8000000119209,True,u,73408.69999998808,1225.699999988079,1669829408004,1226,HRV,HRV_0046,2022-11-30 17:33:58
36,"[{'imgObject': {}, 'id': 'fried eggs', 'src': '/static/foodstim60/fried eggs.jpg', 'key': 'u', 'origWidth': 410, 'origHeight': 410, 'width': 410, 'height': 410, 'widthPercent': 0.45, 'rescaleHeight': False, 'trialN': 36, 'loaded': True, 'loadedTime': 4968, 'positionName': 'LEFT', 'positionCoords': [511.6, 335], 'bid': 5.63}, {'imgObject': {}, 'id': 'avocado', 'src': '/static/foodstim60/avocado.jpg', 'key': 'i', 'origWidth': 409, 'origHeight': 409, 'width': 409, 'height': 409, 'widthPercent': 0.45, 'rescaleHeight': False, 'trialN': 36, 'loaded': True, 'loadedTime': 4859.5, 'positionName': 'RIGHT', 'positionCoords': [998.4, 335.5], 'bid': 5.23}]",73408.80000001192,1669829408004,fried eggs,avocado,5.63,5.23,-0.39999999999999947,fried eggs,931.8000000119209,932,932.1999999880791,True,u,74844.10000002384,1435.300000011921,1669829409439,1435,HRV,HRV_0046,2022-11-30 17:33:58
37,"[{'imgObject': {}, 'id': 'granola w milk', 'src': '/static/foodstim60/granola w milk.jpg', 'key': 'u', 'origWidth': 410, 'origHeight': 410, 'width': 410, 'height': 410, 'widthPercent': 0.45, 'rescaleHeight': False, 'trialN': 37, 'loaded': True, 'loadedTime': 5353.600000023842, 'positionName': 'LEFT', 'positionCoords': [511.6, 335], 'bid': 4.38}, {'imgObject': {}, 'id': 'rigatoni', 'src': '/static/foodstim60/rigatoni.jpg', 'key': 'i', 'origWidth': 411, 'origHeight': 411, 'width': 411, 'height': 411, 'widthPercent': 0.45, 'rescaleHeight': False, 'trialN': 37, 'loaded': True, 'loadedTime': 5232.800000011921, 'positionName': 'RIGHT', 'positionCoords': [998.4, 334.5], 'bid': 4.59}]",74844.19999998808,1669829409439,granola w milk,rigatoni,4.38,4.59,0.20999999999999996,granola w milk,840.5,841,840.8000000119209,True,u,76192.69999998808,1348.5,1669829410788,1349,HRV,HRV_0046,2022-11-30 17:33:58
38,"[{'imgObject': {}, 'id': 'cherries', 'src': '/static/foodstim60/cherries.jpg', 'key': 'u', 'origWidth': 410, 'origHeight': 411, 'width': 410, 'height': 411, 'widthPercent': 0.45, 'rescaleHeight': False, 'trialN': 38, 'loaded': True, 'loadedTime': 5270, 'positionName': 'LEFT', 'positionCoords': [511.6, 334.5], 'bid': 1.65}, {'imgObject': {}, 'id': 'veggieswithdip', 'src': '/static/foodstim60/veggieswithdip.jpg', 'key': 'i', 'origWidth': 409, 'origHeight': 409, 'width': 409, 'height': 409, 'widthPercent': 0.45, 'rescaleHeight': False, 'trialN': 38, 'loaded': True, 'loadedTime': 5387, 'positionName': 'RIGHT', 'positionCoords': [998.4, 335.5], 'bid': 3.2}]",76192.80000001192,1669829410788,cherries,veggieswithdip,1.65,3.2,1.5500000000000003,cherries,1236.300000011921,1236,1236.3999999761581,True,u,77936.69999998808,1743.8999999761581,1669829412532,1744,HRV,HRV_0046,2022-11-30 17:33:58
39,"[{'imgObject': {}, 'id': 'raspberries', 'src': '/static/foodstim60/raspberries.jpg', 'key': 'u', 'origWidth': 411, 'origHeight': 411, 'width': 411, 'height': 411, 'widthPercent': 0.45, 'rescaleHeight': False, 'trialN': 39, 'loaded': True, 'loadedTime': 5125.100000023842, 'positionName': 'LEFT', 'positionCoords': [510.6, 334.5], 'bid': 1.51}, {'imgObject': {}, 'id': 'cherry tomato', 'src': '/static/foodstim60/cherry tomato.jpg', 'key': 'i', 'origWidth': 410, 'origHeight': 410, 'width': 410, 'height': 410, 'widthPercent': 0.45, 'rescaleHeight': False, 'trialN': 39, 'loaded': True, 'loadedTime': 5108.300000011921, 'positionName': 'RIGHT', 'positionCoords': [998.4, 335], 'bid': 4.65}]",77936.69999998808,1669829412532,raspberries,cherry tomato,1.51,4.65,3.1400000000000006,cherry tomato,764.4000000357628,765,764.6000000238419,True,i,79213.80000001192,1277.1000000238419,1669829413809,1277,HRV,HRV_0046,2022-11-30 17:33:58
40,"[{'imgObject': {}, 'id': 'steak', 'src': '/static/foodstim60/steak.jpg', 'key': 'u', 'origWidth': 410, 'origHeight': 410, 'width': 410, 'height': 410, 'widthPercent': 0.45, 'rescaleHeight': False, 'trialN': 40, 'loaded': True, 'loadedTime': 5364.5, 'positionName': 'LEFT', 'positionCoords': [511.6, 335], 'bid': 7.16}, {'imgObject': {}, 'id': 'mac & cheese', 'src': '/static/foodstim60/mac & cheese.jpg', 'key': 'i', 'origWidth': 410, 'origHeight': 410, 'width': 410, 'height': 410, 'widthPercent': 0.45, 'rescaleHeight': False, 'trialN': 40, 'loaded': True, 'loadedTime': 5390.600000023842, 'positionName': 'RIGHT', 'positionCoords': [998.4, 335], 'bid': 8.93}]",79213.90000003576,1669829413809,steak,mac & cheese,7.16,8.93,1.7699999999999996,steak,783.3999999761581,784,783.8999999761581,True,u,80500.19999998808,1286.2999999523163,1669829415095,1286,HRV,HRV_0046,2022-11-30 17:33:58
41,"[{'imgObject': {}, 'id': 'cheerios', 'src': '/static/foodstim60/cheerios.jpg', 'key': 'u', 'origWidth': 409, 'origHeight': 410, 'width': 409, 'height': 410, 'widthPercent': 0.45, 'rescaleHeight': False, 'trialN': 41, 'loaded': True, 'loadedTime': 5398.5, 'positionName': 'LEFT', 'positionCoords': [512.6, 335], 'bid': 3.87}, {'imgObject': {}, 'id': 'bagel plain', 'src': '/static/foodstim60/bagel plain.jpg', 'key': 'i', 'origWidth': 410, 'origHeight': 410, 'width': 410, 'height': 410, 'widthPercent': 0.45, 'rescaleHeight': False, 'trialN': 41, 'loaded': True, 'loadedTime': 5409.5, 'positionName': 'RIGHT', 'positionCoords': [998.4, 335], 'bid': 3.8}]",80500.19999998808,1669829415095,cheerios,bagel plain,3.87,3.8,-0.07000000000000028,cheerios,1481.5,1482,1481.7000000476837,True,u,82484.10000002384,1983.9000000357628,1669829417079,1984,HRV,HRV_0046,2022-11-30 17:33:58
42,"[{'imgObject': {}, 'id': 'sweetpotato', 'src': '/static/foodstim60/sweetpotato.jpg', 'key': 'u', 'origWidth': 410, 'origHeight': 410, 'width': 410, 'height': 410, 'widthPercent': 0.45, 'rescaleHeight': False, 'trialN': 42, 'loaded': True, 'loadedTime': 5411.900000035763, 'positionName': 'LEFT', 'positionCoords': [511.6, 335], 'bid': 1.94}, {'imgObject': {}, 'id': 'corn cob', 'src': '/static/foodstim60/corn cob.jpg', 'key': 'i', 'origWidth': 411, 'origHeight': 411, 'width': 411, 'height': 411, 'widthPercent': 0.45, 'rescaleHeight': False, 'trialN': 42, 'loaded': True, 'loadedTime': 5345.900000035763, 'positionName': 'RIGHT', 'positionCoords': [998.4, 334.5], 'bid': 3.52}]",82484.10000002384,1669829417079,sweetpotato,corn cob,1.94,3.52,1.58,corn cob,1505.5,1506,1505.699999988079,True,i,84497.0,2012.8999999761581,1669829419092,2013,HRV,HRV_0046,2022-11-30 17:33:58
43,"[{'imgObject': {}, 'id': 'ice cream sundae 002', 'src': '/static/foodstim60/ice cream sundae 002.jpg', 'key': 'u', 'origWidth': 409, 'origHeight': 409, 'width': 409, 'height': 409, 'widthPercent': 0.45, 'rescaleHeight': False, 'trialN': 43, 'loaded': True, 'loadedTime': 5424.400000035763, 'positionName': 'LEFT', 'positionCoords': [512.6, 335.5], 'bid': 4.47}, {'imgObject': {}, 'id': 'mac & cheese', 'src': '/static/foodstim60/mac & cheese.jpg', 'key': 'i', 'origWidth': 410, 'origHeight': 410, 'width': 410, 'height': 410, 'widthPercent': 0.45, 'rescaleHeight': False, 'trialN': 43, 'loaded': True, 'loadedTime': 5392, 'positionName': 'RIGHT', 'positionCoords': [998.4, 335], 'bid': 8.93}]",84497.10000002384,1669829419092,ice cream sundae 002,mac & cheese,4.47,8.93,4.46,mac & cheese,1308.800000011921,1310,1309.199999988079,True,i,86311.90000003576,1814.800000011921,1669829420907,1815,HRV,HRV_0046,2022-11-30 17:33:58
44,"[{'imgObject': {}, 'id': 'mango', 'src': '/static/foodstim60/mango.jpg', 'key': 'u', 'origWidth': 411, 'origHeight': 411, 'width': 411, 'height': 411, 'widthPercent': 0.45, 'rescaleHeight': False, 'trialN': 44, 'loaded': True, 'loadedTime': 5433, 'positionName': 'LEFT', 'positionCoords': [510.6, 334.5], 'bid': 1.68}, {'imgObject': {}, 'id': 'baked potato', 'src': '/static/foodstim60/baked potato.jpg', 'key': 'i', 'origWidth': 409, 'origHeight': 410, 'width': 409, 'height': 410, 'widthPercent': 0.45, 'rescaleHeight': False, 'trialN': 44, 'loaded': True, 'loadedTime': 5050.600000023842, 'positionName': 'RIGHT', 'positionCoords': [998.4, 335], 'bid': 3.42}]",86312.0,1669829420907,mango,baked potato,1.68,3.42,1.74,baked potato,1190.1000000238419,1191,1191.0,True,i,88013.10000002384,1701.1000000238419,1669829422608,1701,HRV,HRV_0046,2022-11-30 17:33:58
45,"[{'imgObject': {}, 'id': 'bagel and cc', 'src': '/static/foodstim60/bagel and cc.jpg', 'key': 'u', 'origWidth': 410, 'origHeight': 410, 'width': 410, 'height': 410, 'widthPercent': 0.45, 'rescaleHeight': False, 'trialN': 45, 'loaded': True, 'loadedTime': 4879, 'positionName': 'LEFT', 'positionCoords': [511.6, 335], 'bid': 4.23}, {'imgObject': {}, 'id': 'edamame', 'src': '/static/foodstim60/edamame.jpg', 'key': 'i', 'origWidth': 409, 'origHeight': 410, 'width': 409, 'height': 410, 'widthPercent': 0.45, 'rescaleHeight': False, 'trialN': 45, 'loaded': True, 'loadedTime': 5156.300000011921, 'positionName': 'RIGHT', 'positionCoords': [998.4, 335], 'bid': 2.19}]",88013.19999998808,1669829422608,bagel and cc,edamame,4.23,2.19,-2.0400000000000005,edamame,777.0,778,777.2000000476837,True,i,89302.0,1288.800000011921,1669829423897,1289,HRV,HRV_0046,2022-11-30 17:33:58
46,"[{'imgObject': {}, 'id': 'corn cob', 'src': '/static/foodstim60/corn cob.jpg', 'key': 'u', 'origWidth': 411, 'origHeight': 411, 'width': 411, 'height': 411, 'widthPercent': 0.45, 'rescaleHeight': False, 'trialN': 46, 'loaded': True, 'loadedTime': 5336.699999988079, 'positionName': 'LEFT', 'positionCoords': [510.6, 334.5], 'bid': 3.52}, {'imgObject': {}, 'id': 'Grapes', 'src': '/static/foodstim60/Grapes.jpg', 'key': 'i', 'origWidth': 411, 'origHeight': 411, 'width': 411, 'height': 411, 'widthPercent': 0.45, 'rescaleHeight': False, 'trialN': 46, 'loaded': True, 'loadedTime': 5438.199999988079, 'positionName': 'RIGHT', 'positionCoords': [998.4, 334.5], 'bid': 3.15}]",89302.0,1669829423897,corn cob,Grapes,3.52,3.15,-0.3700000000000001,corn cob,1816.6000000238419,1817,1816.800000011921,True,u,91632.69999998808,2330.699999988079,1669829426228,2331,HRV,HRV_0046,2022-11-30 17:33:58
47,"[{'imgObject': {}, 'id': 'omelette', 'src': '/static/foodstim60/omelette.jpg', 'key': 'u', 'origWidth': 410, 'origHeight': 409, 'width': 410, 'height': 409, 'widthPercent': 0.45, 'rescaleHeight': False, 'trialN': 47, 'loaded': True, 'loadedTime': 5076.5, 'positionName': 'LEFT', 'positionCoords': [511.6, 335.5], 'bid': 1.78}, {'imgObject': {}, 'id': 'mango', 'src': '/static/foodstim60/mango.jpg', 'key': 'i', 'origWidth': 411, 'origHeight': 411, 'width': 411, 'height': 411, 'widthPercent': 0.45, 'rescaleHeight': False, 'trialN': 47, 'loaded': True, 'loadedTime': 5433.300000011921, 'positionName': 'RIGHT', 'positionCoords': [998.4, 334.5], 'bid': 1.68}]",91632.80000001192,1669829426228,omelette,mango,1.78,1.68,-0.10000000000000009,omelette,1269.8999999761581,1270,1270.199999988079,True,u,93425.90000003576,1793.1000000238419,1669829428021,1793,HRV,HRV_0046,2022-11-30 17:33:58
48,"[{'imgObject': {}, 'id': 'turkey sandwich', 'src': '/static/foodstim60/turkey sandwich.jpg', 'key': 'u', 'origWidth': 409, 'origHeight': 409, 'width': 409, 'height': 409, 'widthPercent': 0.45, 'rescaleHeight': False, 'trialN': 48, 'loaded': True, 'loadedTime': 5091.199999988079, 'positionName': 'LEFT', 'positionCoords': [512.6, 335.5], 'bid': 8.28}, {'imgObject': {}, 'id': 'Tribe humus pita', 'src': '/static/foodstim60/Tribe humus pita.jpg', 'key': 'i', 'origWidth': 411, 'origHeight': 411, 'width': 411, 'height': 411, 'widthPercent': 0.45, 'rescaleHeight': False, 'trialN': 48, 'loaded': True, 'loadedTime': 4999.300000011921, 'positionName': 'RIGHT', 'positionCoords': [998.4, 334.5], 'bid': 8.23}]",93426.0,1669829428021,turkey sandwich,Tribe humus pita,8.28,8.23,-0.049999999999998934,turkey sandwich,628.6999999880791,629,629.1000000238419,True,u,94572.69999998808,1146.699999988079,1669829429168,1147,HRV,HRV_0046,2022-11-30 17:33:58
49,"[{'imgObject': {}, 'id': 'tacos', 'src': '/static/foodstim60/tacos.jpg', 'key': 'u', 'origWidth': 411, 'origHeight': 411, 'width': 411, 'height': 411, 'widthPercent': 0.45, 'rescaleHeight': False, 'trialN': 49, 'loaded': True, 'loadedTime': 5325.400000035763, 'positionName': 'LEFT', 'positionCoords': [510.6, 334.5], 'bid': 8.41}, {'imgObject': {}, 'id': 'burger', 'src': '/static/foodstim60/burger.jpg', 'key': 'i', 'origWidth': 409, 'origHeight': 409, 'width': 409, 'height': 409, 'widthPercent': 0.45, 'rescaleHeight': False, 'trialN': 49, 'loaded': True, 'loadedTime': 5438.300000011921, 'positionName': 'RIGHT', 'positionCoords': [998.4, 335.5], 'bid': 8.91}]",94572.80000001192,1669829429168,tacos,burger,8.41,8.91,0.5,burger,1090.199999988079,1090,1090.300000011921,True,i,96175.69999998808,1602.8999999761581,1669829430771,1603,HRV,HRV_0046,2022-11-30 17:33:58
50,"[{'imgObject': {}, 'id': 'salmon', 'src': '/static/foodstim60/salmon.jpg', 'key': 'u', 'origWidth': 410, 'origHeight': 409, 'width': 410, 'height': 409, 'widthPercent': 0.45, 'rescaleHeight': False, 'trialN': 50, 'loaded': True, 'loadedTime': 5446.900000035763, 'positionName': 'LEFT', 'positionCoords': [511.6, 335.5], 'bid': 4.75}, {'imgObject': {}, 'id': 'rigatoni', 'src': '/static/foodstim60/rigatoni.jpg', 'key': 'i', 'origWidth': 411, 'origHeight': 411, 'width': 411, 'height': 411, 'widthPercent': 0.45, 'rescaleHeight': False, 'trialN': 50, 'loaded': True, 'loadedTime': 5236.300000011921, 'positionName': 'RIGHT', 'positionCoords': [998.4, 334.5], 'bid': 4.59}]",96175.80000001192,1669829430771,salmon,rigatoni,4.75,4.59,-0.16000000000000014,salmon,1151.300000011921,1152,1151.6000000238419,True,u,97835.30000001192,1659.5,1669829432431,1660,HRV,HRV_0046,2022-11-30 17:33:58
51,"[{'imgObject': {}, 'id': 'bagel plain', 'src': '/static/foodstim60/bagel plain.jpg', 'key': 'u', 'origWidth': 410, 'origHeight': 410, 'width': 410, 'height': 410, 'widthPercent': 0.45, 'rescaleHeight': False, 'trialN': 51, 'loaded': True, 'loadedTime': 5411, 'positionName': 'LEFT', 'positionCoords': [511.6, 335], 'bid': 3.8}, {'imgObject': {}, 'id': 'veggieswithdip', 'src': '/static/foodstim60/veggieswithdip.jpg', 'key': 'i', 'origWidth': 409, 'origHeight': 409, 'width': 409, 'height': 409, 'widthPercent': 0.45, 'rescaleHeight': False, 'trialN': 51, 'loaded': True, 'loadedTime': 5375.300000011921, 'positionName': 'RIGHT', 'positionCoords': [998.4, 335.5], 'bid': 3.2}]",97835.40000003576,1669829432431,bagel plain,veggieswithdip,3.8,3.2,-0.5999999999999996,veggieswithdip,2348.199999988079,2348,2348.399999976158,True,i,100704.69999998808,2869.2999999523163,1669829435300,2869,HRV,HRV_0046,2022-11-30 17:33:58
52,"[{'imgObject': {}, 'id': 'shreddedwheatwithmilk', 'src': '/static/foodstim60/shreddedwheatwithmilk.jpg', 'key': 'u', 'origWidth': 410, 'origHeight': 410, 'width': 410, 'height': 410, 'widthPercent': 0.45, 'rescaleHeight': False, 'trialN': 52, 'loaded': True, 'loadedTime': 5250.300000011921, 'positionName': 'LEFT', 'positionCoords': [511.6, 335], 'bid': 4.57}, {'imgObject': {}, 'id': 'banana', 'src': '/static/foodstim60/banana.jpg', 'key': 'i', 'origWidth': 410, 'origHeight': 410, 'width': 410, 'height': 410, 'widthPercent': 0.45, 'rescaleHeight': False, 'trialN': 52, 'loaded': True, 'loadedTime': 4895.600000023842, 'positionName': 'RIGHT', 'positionCoords': [998.4, 335], 'bid': 4.29}]",100704.80000001192,1669829435300,shreddedwheatwithmilk,banana,4.57,4.29,-0.28000000000000025,shreddedwheatwithmilk,1014.8000000119209,1015,1015.1000000238419,True,u,102233.19999998808,1528.3999999761581,1669829436828,1528,HRV,HRV_0046,2022-11-30 17:33:58
53,"[{'imgObject': {}, 'id': 'eggsalad', 'src': '/static/foodstim60/eggsalad.jpg', 'key': 'u', 'origWidth': 410, 'origHeight': 409, 'width': 410, 'height': 409, 'widthPercent': 0.45, 'rescaleHeight': False, 'trialN': 53, 'loaded': True, 'loadedTime': 5454.699999988079, 'positionName': 'LEFT', 'positionCoords': [511.6, 335.5], 'bid': 6.57}, {'imgObject': {}, 'id': 'grilled chicken strips', 'src': '/static/foodstim60/grilled chicken strips.jpg', 'key': 'i', 'origWidth': 410, 'origHeight': 411, 'width': 410, 'height': 411, 'widthPercent': 0.45, 'rescaleHeight': False, 'trialN': 53, 'loaded': True, 'loadedTime': 5459.300000011921, 'positionName': 'RIGHT', 'positionCoords': [998.4, 334.5], 'bid': 6.7700000000000005}]",102233.19999998808,1669829436828,eggsalad,grilled chicken strips,6.57,6.7700000000000005,0.20000000000000018,grilled chicken strips,1094.5,1095,1094.800000011921,True,i,103842.10000002384,1608.9000000357628,1669829438437,1609,HRV,HRV_0046,2022-11-30 17:33:58
54,"[{'imgObject': {}, 'id': 'avocado', 'src': '/static/foodstim60/avocado.jpg', 'key': 'u', 'origWidth': 409, 'origHeight': 409, 'width': 409, 'height': 409, 'widthPercent': 0.45, 'rescaleHeight': False, 'trialN': 54, 'loaded': True, 'loadedTime': 4870.400000035763, 'positionName': 'LEFT', 'positionCoords': [512.6, 335.5], 'bid': 5.23}, {'imgObject': {}, 'id': 'roastedpotatoes', 'src': '/static/foodstim60/roastedpotatoes.jpg', 'key': 'i', 'origWidth': 409, 'origHeight': 410, 'width': 409, 'height': 410, 'widthPercent': 0.45, 'rescaleHeight': False, 'trialN': 54, 'loaded': True, 'loadedTime': 5217.5, 'positionName': 'RIGHT', 'positionCoords': [998.4, 335], 'bid': 5.63}]",103842.19999998808,1669829438437,avocado,roastedpotatoes,5.23,5.63,0.39999999999999947,roastedpotatoes,949.7000000476837,950,950.0,True,i,105309.10000002384,1466.9000000357628,1669829439904,1467,HRV,HRV_0046,2022-11-30 17:33:58
55,"[{'imgObject': {}, 'id': 'apple slices', 'src': '/static/foodstim60/apple slices.jpg', 'key': 'u', 'origWidth': 409, 'origHeight': 410, 'width': 409, 'height': 410, 'widthPercent': 0.45, 'rescaleHeight': False, 'trialN': 55, 'loaded': True, 'loadedTime': 5291.600000023842, 'positionName': 'LEFT', 'positionCoords': [512.6, 335], 'bid': 3.6}, {'imgObject': {}, 'id': 'steak', 'src': '/static/foodstim60/steak.jpg', 'key': 'i', 'origWidth': 410, 'origHeight': 410, 'width': 410, 'height': 410, 'widthPercent': 0.45, 'rescaleHeight': False, 'trialN': 55, 'loaded': True, 'loadedTime': 5371.900000035763, 'positionName': 'RIGHT', 'positionCoords': [998.4, 335], 'bid': 7.16}]",105309.10000002384,1669829439904,apple slices,steak,3.6,7.16,3.56,steak,762.8999999761581,764,763.1999999880791,True,i,106585.5,1276.3999999761581,1669829441181,1277,HRV,HRV_0046,2022-11-30 17:33:58
56,"[{'imgObject': {}, 'id': 'orange slices', 'src': '/static/foodstim60/orange slices.jpg', 'key': 'u', 'origWidth': 409, 'origHeight': 410, 'width': 409, 'height': 410, 'widthPercent': 0.45, 'rescaleHeight': False, 'trialN': 56, 'loaded': True, 'loadedTime': 5461, 'positionName': 'LEFT', 'positionCoords': [512.6, 335], 'bid': 3.18}, {'imgObject': {}, 'id': 'froot loops w milk', 'src': '/static/foodstim60/froot loops w milk.jpg', 'key': 'i', 'origWidth': 410, 'origHeight': 410, 'width': 410, 'height': 410, 'widthPercent': 0.45, 'rescaleHeight': False, 'trialN': 56, 'loaded': True, 'loadedTime': 5474.199999988079, 'positionName': 'RIGHT', 'positionCoords': [998.4, 335], 'bid': 4.45}]",106585.60000002384,1669829441181,orange slices,froot loops w milk,3.18,4.45,1.27,froot loops w milk,1406.800000011921,1407,1407.0,True,i,108500.10000002384,1914.5,1669829443095,1914,HRV,HRV_0046,2022-11-30 17:33:58
57,"[{'imgObject': {}, 'id': 'raisin bran w milk', 'src': '/static/foodstim60/raisin bran w milk.jpg', 'key': 'u', 'origWidth': 411, 'origHeight': 411, 'width': 411, 'height': 411, 'widthPercent': 0.45, 'rescaleHeight': False, 'trialN': 57, 'loaded': True, 'loadedTime': 5356.900000035763, 'positionName': 'LEFT', 'positionCoords': [510.6, 334.5], 'bid': 4.7700000000000005}, {'imgObject': {}, 'id': 'hotdog w must', 'src': '/static/foodstim60/hotdog w must.jpg', 'key': 'i', 'origWidth': 409, 'origHeight': 409, 'width': 409, 'height': 409, 'widthPercent': 0.45, 'rescaleHeight': False, 'trialN': 57, 'loaded': True, 'loadedTime': 5474.699999988079, 'positionName': 'RIGHT', 'positionCoords': [998.4, 335.5], 'bid': 5.03}]",108500.19999998808,1669829443095,raisin bran w milk,hotdog w must,4.7700000000000005,5.03,0.2599999999999998,raisin bran w milk,1956.4000000357628,1957,1956.7000000476837,True,u,110972.40000003576,2472.2000000476837,1669829445568,2473,HRV,HRV_0046,2022-11-30 17:33:58
58,"[{'imgObject': {}, 'id': 'salmon', 'src': '/static/foodstim60/salmon.jpg', 'key': 'u', 'origWidth': 410, 'origHeight': 409, 'width': 410, 'height': 409, 'widthPercent': 0.45, 'rescaleHeight': False, 'trialN': 58, 'loaded': True, 'loadedTime': 5447.300000011921, 'positionName': 'LEFT', 'positionCoords': [511.6, 335.5], 'bid': 4.75}, {'imgObject': {}, 'id': 'froot loops w milk', 'src': '/static/foodstim60/froot loops w milk.jpg', 'key': 'i', 'origWidth': 410, 'origHeight': 410, 'width': 410, 'height': 410, 'widthPercent': 0.45, 'rescaleHeight': False, 'trialN': 58, 'loaded': True, 'loadedTime': 5474.400000035763, 'positionName': 'RIGHT', 'positionCoords': [998.4, 335], 'bid': 4.45}]",110972.40000003576,1669829445568,salmon,froot loops w milk,4.75,4.45,-0.2999999999999998,froot loops w milk,1252.2999999523163,1252,1252.5,True,i,112741.60000002384,1769.199999988079,1669829447337,1769,HRV,HRV_0046,2022-11-30 17:33:58
59,"[{'imgObject': {}, 'id': 'salmon', 'src': '/static/foodstim60/salmon.jpg', 'key': 'u', 'origWidth': 410, 'origHeight': 409, 'width': 410, 'height': 409, 'widthPercent': 0.45, 'rescaleHeight': False, 'trialN': 59, 'loaded': True, 'loadedTime': 5446.699999988079, 'positionName': 'LEFT', 'positionCoords': [511.6, 335.5], 'bid': 4.75}, {'imgObject': {}, 'id': 'cherries', 'src': '/static/foodstim60/cherries.jpg', 'key': 'i', 'origWidth': 410, 'origHeight': 411, 'width': 410, 'height': 411, 'widthPercent': 0.45, 'rescaleHeight': False, 'trialN': 59, 'loaded': True, 'loadedTime': 5276.5, 'positionName': 'RIGHT', 'positionCoords': [998.4, 334.5], 'bid': 1.65}]",112741.80000001192,1669829447337,salmon,cherries,4.75,1.65,-3.1,salmon,771.0,771,771.3000000119209,True,u,114032.90000003576,1291.1000000238419,1669829448628,1291,HRV,HRV_0046,2022-11-30 17:33:58
60,"[{'imgObject': {}, 'id': 'granola w milk', 'src': '/static/foodstim60/granola w milk.jpg', 'key': 'u', 'origWidth': 410, 'origHeight': 410, 'width': 410, 'height': 410, 'widthPercent': 0.45, 'rescaleHeight': False, 'trialN': 60, 'loaded': True, 'loadedTime': 5353.199999988079, 'positionName': 'LEFT', 'positionCoords': [511.6, 335], 'bid': 4.38}, {'imgObject': {}, 'id': 'strawberries', 'src': '/static/foodstim60/strawberries.jpg', 'key': 'i', 'origWidth': 410, 'origHeight': 410, 'width': 410, 'height': 410, 'widthPercent': 0.45, 'rescaleHeight': False, 'trialN': 60, 'loaded': True, 'loadedTime': 5168.300000011921, 'positionName': 'RIGHT', 'positionCoords': [998.4, 335], 'bid': 2.93}]",114032.90000003576,1669829448628,granola w milk,strawberries,4.38,2.93,-1.4499999999999997,granola w milk,984.2999999523163,985,984.5,True,u,115530.30000001192,1497.3999999761581,1669829450125,1497,HRV,HRV_0046,2022-11-30 17:33:58
61,"[{'imgObject': {}, 'id': 'corn cob', 'src': '/static/foodstim60/corn cob.jpg', 'key': 'u', 'origWidth': 411, 'origHeight': 411, 'width': 411, 'height': 411, 'widthPercent': 0.45, 'rescaleHeight': False, 'trialN': 61, 'loaded': True, 'loadedTime': 5352.199999988079, 'positionName': 'LEFT', 'positionCoords': [510.6, 334.5], 'bid': 3.52}, {'imgObject': {}, 'id': 'baked potato', 'src': '/static/foodstim60/baked potato.jpg', 'key': 'i', 'origWidth': 409, 'origHeight': 410, 'width': 409, 'height': 410, 'widthPercent': 0.45, 'rescaleHeight': False, 'trialN': 61, 'loaded': True, 'loadedTime': 5045.300000011921, 'positionName': 'RIGHT', 'positionCoords': [998.4, 335], 'bid': 3.42}]",115530.40000003576,1669829450126,corn cob,baked potato,3.52,3.42,-0.10000000000000009,corn cob,910.6999999880791,911,910.8999999761581,True,u,116959.10000002384,1428.699999988079,1669829451554,1428,HRV,HRV_0046,2022-11-30 17:33:58
62,"[{'imgObject': {}, 'id': 'turkeysandwich', 'src': '/static/foodstim60/turkeysandwich.jpg', 'key': 'u', 'origWidth': 409, 'origHeight': 409, 'width': 409, 'height': 409, 'widthPercent': 0.45, 'rescaleHeight': False, 'trialN': 62, 'loaded': True, 'loadedTime': 5246.800000011921, 'positionName': 'LEFT', 'positionCoords': [512.6, 335.5], 'bid': 8.02}, {'imgObject': {}, 'id': 'hashbrowns', 'src': '/static/foodstim60/hashbrowns.jpg', 'key': 'i', 'origWidth': 411, 'origHeight': 410, 'width': 411, 'height': 410, 'widthPercent': 0.45, 'rescaleHeight': False, 'trialN': 62, 'loaded': True, 'loadedTime': 5204.199999988079, 'positionName': 'RIGHT', 'positionCoords': [998.4, 335], 'bid': 5.63}]",116959.19999998808,1669829451554,turkeysandwich,hashbrowns,8.02,5.63,-2.3899999999999997,turkeysandwich,746.1000000238419,747,746.4000000357628,True,u,118215.10000002384,1255.9000000357628,1669829452811,1257,HRV,HRV_0046,2022-11-30 17:33:58
63,"[{'imgObject': {}, 'id': 'hotdog w must', 'src': '/static/foodstim60/hotdog w must.jpg', 'key': 'u', 'origWidth': 409, 'origHeight': 409, 'width': 409, 'height': 409, 'widthPercent': 0.45, 'rescaleHeight': False, 'trialN': 63, 'loaded': True, 'loadedTime': 5475.600000023842, 'positionName': 'LEFT', 'positionCoords': [512.6, 335.5], 'bid': 5.03}, {'imgObject': {}, 'id': 'chicken nuggets2', 'src': '/static/foodstim60/chicken nuggets2.jpg', 'key': 'i', 'origWidth': 410, 'origHeight': 409, 'width': 410, 'height': 409, 'widthPercent': 0.45, 'rescaleHeight': False, 'trialN': 63, 'loaded': True, 'loadedTime': 5480.199999988079, 'positionName': 'RIGHT', 'positionCoords': [998.4, 335.5], 'bid': 5.21}]",118215.30000001192,1669829452811,hotdog w must,chicken nuggets2,5.03,5.21,0.17999999999999972,chicken nuggets2,1106.1000000238419,1106,1106.3999999761581,True,i,119822.40000003576,1607.1000000238419,1669829454418,1607,HRV,HRV_0046,2022-11-30 17:33:58
64,"[{'imgObject': {}, 'id': 'blackbeanswithrice', 'src': '/static/foodstim60/blackbeanswithrice.jpg', 'key': 'u', 'origWidth': 410, 'origHeight': 410, 'width': 410, 'height': 410, 'widthPercent': 0.45, 'rescaleHeight': False, 'trialN': 64, 'loaded': True, 'loadedTime': 4821.600000023842, 'positionName': 'LEFT', 'positionCoords': [511.6, 335], 'bid': 1.66}, {'imgObject': {}, 'id': 'bagel plain', 'src': '/static/foodstim60/bagel plain.jpg', 'key': 'i', 'origWidth': 410, 'origHeight': 410, 'width': 410, 'height': 410, 'widthPercent': 0.45, 'rescaleHeight': False, 'trialN': 64, 'loaded': True, 'loadedTime': 5410.800000011921, 'positionName': 'RIGHT', 'positionCoords': [998.4, 335], 'bid': 3.8}]",119822.5,1669829454418,blackbeanswithrice,bagel plain,1.66,3.8,2.1399999999999997,bagel plain,1299.4000000357628,1300,1299.6000000238419,True,i,121637.0,1814.5,1669829456233,1815,HRV,HRV_0046,2022-11-30 17:33:58
65,"[{'imgObject': {}, 'id': 'burger', 'src': '/static/foodstim60/burger.jpg', 'key': 'u', 'origWidth': 409, 'origHeight': 409, 'width': 409, 'height': 409, 'widthPercent': 0.45, 'rescaleHeight': False, 'trialN': 65, 'loaded': True, 'loadedTime': 5442.699999988079, 'positionName': 'LEFT', 'positionCoords': [512.6, 335.5], 'bid': 8.91}, {'imgObject': {}, 'id': 'mac & cheese', 'src': '/static/foodstim60/mac & cheese.jpg', 'key': 'i', 'origWidth': 410, 'origHeight': 410, 'width': 410, 'height': 410, 'widthPercent': 0.45, 'rescaleHeight': False, 'trialN': 65, 'loaded': True, 'loadedTime': 5395.400000035763, 'positionName': 'RIGHT', 'positionCoords': [998.4, 335], 'bid': 8.93}]",121637.0,1669829456233,burger,mac & cheese,8.91,8.93,0.019999999999999574,burger,629.4000000357628,629,629.6000000238419,True,u,122776.0,1139.0,1669829457372,1139,HRV,HRV_0046,2022-11-30 17:33:58
66,"[{'imgObject': {}, 'id': 'froot loops w milk', 'src': '/static/foodstim60/froot loops w milk.jpg', 'key': 'u', 'origWidth': 410, 'origHeight': 410, 'width': 410, 'height': 410, 'widthPercent': 0.45, 'rescaleHeight': False, 'trialN': 66, 'loaded': True, 'loadedTime': 5474.5, 'positionName': 'LEFT', 'positionCoords': [511.6, 335], 'bid': 4.45}, {'imgObject': {}, 'id': 'burger', 'src': '/static/foodstim60/burger.jpg', 'key': 'i', 'origWidth': 409, 'origHeight': 409, 'width': 409, 'height': 409, 'widthPercent': 0.45, 'rescaleHeight': False, 'trialN': 66, 'loaded': True, 'loadedTime': 5442.699999988079, 'positionName': 'RIGHT', 'positionCoords': [998.4, 335.5], 'bid': 8.91}]",122776.10000002384,1669829457372,froot loops w milk,burger,4.45,8.91,4.46,burger,874.0,874,874.1999999880791,True,i,124157.10000002384,1381.0,1669829458753,1381,HRV,HRV_0046,2022-11-30 17:33:58
67,"[{'imgObject': {}, 'id': 'salad w chicken', 'src': '/static/foodstim60/salad w chicken.jpg', 'key': 'u', 'origWidth': 411, 'origHeight': 411, 'width': 411, 'height': 411, 'widthPercent': 0.45, 'rescaleHeight': False, 'trialN': 67, 'loaded': True, 'loadedTime': 5481.699999988079, 'positionName': 'LEFT', 'positionCoords': [510.6, 334.5], 'bid': 7.11}, {'imgObject': {}, 'id': 'cherry tomato', 'src': '/static/foodstim60/cherry tomato.jpg', 'key': 'i', 'origWidth': 410, 'origHeight': 410, 'width': 410, 'height': 410, 'widthPercent': 0.45, 'rescaleHeight': False, 'trialN': 67, 'loaded': True, 'loadedTime': 5110.900000035763, 'positionName': 'RIGHT', 'positionCoords': [998.4, 335], 'bid': 4.65}]",124157.19999998808,1669829458753,salad w chicken,cherry tomato,7.11,4.65,-2.46,salad w chicken,892.9000000357628,893,893.2000000476837,True,u,125565.30000001192,1408.1000000238419,1669829460161,1408,HRV,HRV_0046,2022-11-30 17:33:58
68,"[{'imgObject': {}, 'id': 'bagel plain', 'src': '/static/foodstim60/bagel plain.jpg', 'key': 'u', 'origWidth': 410, 'origHeight': 410, 'width': 410, 'height': 410, 'widthPercent': 0.45, 'rescaleHeight': False, 'trialN': 68, 'loaded': True, 'loadedTime': 5410.699999988079, 'positionName': 'LEFT', 'positionCoords': [511.6, 335], 'bid': 3.8}, {'imgObject': {}, 'id': 'fruitsalad', 'src': '/static/foodstim60/fruitsalad.jpg', 'key': 'i', 'origWidth': 410, 'origHeight': 410, 'width': 410, 'height': 410, 'widthPercent': 0.45, 'rescaleHeight': False, 'trialN': 68, 'loaded': True, 'loadedTime': 5059.300000011921, 'positionName': 'RIGHT', 'positionCoords': [998.4, 335], 'bid': 4.03}]",125565.5,1669829460161,bagel plain,fruitsalad,3.8,4.03,0.23000000000000043,fruitsalad,1412.699999988079,1413,1413.1000000238419,True,i,127490.80000001192,1925.300000011921,1669829462086,1925,HRV,HRV_0046,2022-11-30 17:33:58
69,"[{'imgObject': {}, 'id': 'sweetpotato', 'src': '/static/foodstim60/sweetpotato.jpg', 'key': 'u', 'origWidth': 410, 'origHeight': 410, 'width': 410, 'height': 410, 'widthPercent': 0.45, 'rescaleHeight': False, 'trialN': 69, 'loaded': True, 'loadedTime': 5411.100000023842, 'positionName': 'LEFT', 'positionCoords': [511.6, 335], 'bid': 1.94}, {'imgObject': {}, 'id': 'edamame', 'src': '/static/foodstim60/edamame.jpg', 'key': 'i', 'origWidth': 409, 'origHeight': 410, 'width': 409, 'height': 410, 'widthPercent': 0.45, 'rescaleHeight': False, 'trialN': 69, 'loaded': True, 'loadedTime': 5156.5, 'positionName': 'RIGHT', 'positionCoords': [998.4, 335], 'bid': 2.19}]",127490.80000001192,1669829462086,sweetpotato,edamame,1.94,2.19,0.25,sweetpotato,967.6999999880791,968,968.0,True,u,128970.10000002384,1479.300000011921,1669829463566,1480,HRV,HRV_0046,2022-11-30 17:33:58
70,"[{'imgObject': {}, 'id': 'veggieswithdip', 'src': '/static/foodstim60/veggieswithdip.jpg', 'key': 'u', 'origWidth': 409, 'origHeight': 409, 'width': 409, 'height': 409, 'widthPercent': 0.45, 'rescaleHeight': False, 'trialN': 70, 'loaded': True, 'loadedTime': 5387.300000011921, 'positionName': 'LEFT', 'positionCoords': [512.6, 335.5], 'bid': 3.2}, {'imgObject': {}, 'id': 'kiwi', 'src': '/static/foodstim60/kiwi.jpg', 'key': 'i', 'origWidth': 410, 'origHeight': 410, 'width': 410, 'height': 410, 'widthPercent': 0.45, 'rescaleHeight': False, 'trialN': 70, 'loaded': True, 'loadedTime': 5022, 'positionName': 'RIGHT', 'positionCoords': [998.4, 335], 'bid': 3.33}]",128970.30000001192,1669829463566,veggieswithdip,kiwi,3.2,3.33,0.1299999999999999,veggieswithdip,1208.8999999761581,1209,1209.1000000238419,True,u,130688.69999998808,1718.3999999761581,1669829465284,1718,HRV,HRV_0046,2022-11-30 17:33:58
71,"[{'imgObject': {}, 'id': 'tacos', 'src': '/static/foodstim60/tacos.jpg', 'key': 'u', 'origWidth': 411, 'origHeight': 411, 'width': 411, 'height': 411, 'widthPercent': 0.45, 'rescaleHeight': False, 'trialN': 71, 'loaded': True, 'loadedTime': 5322.100000023842, 'positionName': 'LEFT', 'positionCoords': [510.6, 334.5], 'bid': 8.41}, {'imgObject': {}, 'id': 'granola w milk', 'src': '/static/foodstim60/granola w milk.jpg', 'key': 'i', 'origWidth': 410, 'origHeight': 410, 'width': 410, 'height': 410, 'widthPercent': 0.45, 'rescaleHeight': False, 'trialN': 71, 'loaded': True, 'loadedTime': 5353.300000011921, 'positionName': 'RIGHT', 'positionCoords': [998.4, 335], 'bid': 4.38}]",130688.69999998808,1669829465284,tacos,granola w milk,8.41,4.38,-4.03,tacos,955.3000000119209,956,955.6000000238419,True,u,132157.19999998808,1468.5,1669829466753,1469,HRV,HRV_0046,2022-11-30 17:33:58
72,"[{'imgObject': {}, 'id': 'bagel and cc', 'src': '/static/foodstim60/bagel and cc.jpg', 'key': 'u', 'origWidth': 410, 'origHeight': 410, 'width': 410, 'height': 410, 'widthPercent': 0.45, 'rescaleHeight': False, 'trialN': 72, 'loaded': True, 'loadedTime': 4872.900000035763, 'positionName': 'LEFT', 'positionCoords': [511.6, 335], 'bid': 4.23}, {'imgObject': {}, 'id': 'Tribe humus pita', 'src': '/static/foodstim60/Tribe humus pita.jpg', 'key': 'i', 'origWidth': 411, 'origHeight': 411, 'width': 411, 'height': 411, 'widthPercent': 0.45, 'rescaleHeight': False, 'trialN': 72, 'loaded': True, 'loadedTime': 4995.300000011921, 'positionName': 'RIGHT', 'positionCoords': [998.4, 334.5], 'bid': 8.23}]",132157.19999998808,1669829466753,bagel and cc,Tribe humus pita,4.23,8.23,4.0,bagel and cc,813.7000000476837,814,814.0,True,u,133476.30000001192,1319.1000000238419,1669829468072,1319,HRV,HRV_0046,2022-11-30 17:33:58
73,"[{'imgObject': {}, 'id': 'eggs', 'src': '/static/foodstim60/eggs.jpg', 'key': 'u', 'origWidth': 409, 'origHeight': 409, 'width': 409, 'height': 409, 'widthPercent': 0.45, 'rescaleHeight': False, 'trialN': 73, 'loaded': True, 'loadedTime': 4953.300000011921, 'positionName': 'LEFT', 'positionCoords': [512.6, 335.5], 'bid': 7.58}, {'imgObject': {}, 'id': 'cheerios', 'src': '/static/foodstim60/cheerios.jpg', 'key': 'i', 'origWidth': 409, 'origHeight': 410, 'width': 409, 'height': 410, 'widthPercent': 0.45, 'rescaleHeight': False, 'trialN': 73, 'loaded': True, 'loadedTime': 5409.400000035763, 'positionName': 'RIGHT', 'positionCoords': [998.4, 335], 'bid': 3.87}]",133476.40000003576,1669829468072,eggs,cheerios,7.58,3.87,-3.71,eggs,950.7999999523163,951,951.0,True,u,134940.80000001192,1464.3999999761581,1669829469536,1464,HRV,HRV_0046,2022-11-30 17:33:58
74,"[{'imgObject': {}, 'id': 'sushi w_condiments', 'src': '/static/foodstim60/sushi w_condiments.jpg', 'key': 'u', 'origWidth': 410, 'origHeight': 410, 'width': 410, 'height': 410, 'widthPercent': 0.45, 'rescaleHeight': False, 'trialN': 74, 'loaded': True, 'loadedTime': 5336.300000011921, 'positionName': 'LEFT', 'positionCoords': [511.6, 335], 'bid': 8.8}, {'imgObject': {}, 'id': 'blueberries', 'src': '/static/foodstim60/blueberries.jpg', 'key': 'i', 'origWidth': 411, 'origHeight': 411, 'width': 411, 'height': 411, 'widthPercent': 0.45, 'rescaleHeight': False, 'trialN': 74, 'loaded': True, 'loadedTime': 5314.400000035763, 'positionName': 'RIGHT', 'positionCoords': [998.4, 334.5], 'bid': 4.43}]",134940.90000003576,1669829469536,sushi w_condiments,blueberries,8.8,4.43,-4.370000000000001,sushi w_condiments,870.3999999761581,871,870.6999999880791,True,u,136320.90000003576,1380.0,1669829470916,1380,HRV,HRV_0046,2022-11-30 17:33:58
75,"[{'imgObject': {}, 'id': 'yogurt no spoon', 'src': '/static/foodstim60/yogurt no spoon.jpg', 'key': 'u', 'origWidth': 411, 'origHeight': 410, 'width': 411, 'height': 410, 'widthPercent': 0.45, 'rescaleHeight': False, 'trialN': 75, 'loaded': True, 'loadedTime': 4933.300000011921, 'positionName': 'LEFT', 'positionCoords': [510.6, 335], 'bid': 2.89}, {'imgObject': {}, 'id': 'sweetpotato', 'src': '/static/foodstim60/sweetpotato.jpg', 'key': 'i', 'origWidth': 410, 'origHeight': 410, 'width': 410, 'height': 410, 'widthPercent': 0.45, 'rescaleHeight': False, 'trialN': 75, 'loaded': True, 'loadedTime': 5415.600000023842, 'positionName': 'RIGHT', 'positionCoords': [998.4, 335], 'bid': 1.94}]",136321.0,1669829470917,yogurt no spoon,sweetpotato,2.89,1.94,-0.9500000000000002,yogurt no spoon,946.5,946,946.8000000119209,True,u,137782.0,1461.0,1669829472378,1461,HRV,HRV_0046,2022-11-30 17:33:58
76,"[{'imgObject': {}, 'id': 'roastedpotatoes', 'src': '/static/foodstim60/roastedpotatoes.jpg', 'key': 'u', 'origWidth': 409, 'origHeight': 410, 'width': 409, 'height': 410, 'widthPercent': 0.45, 'rescaleHeight': False, 'trialN': 76, 'loaded': True, 'loadedTime': 5213.699999988079, 'positionName': 'LEFT', 'positionCoords': [512.6, 335], 'bid': 5.63}, {'imgObject': {}, 'id': 'raisin bran w milk', 'src': '/static/foodstim60/raisin bran w milk.jpg', 'key': 'i', 'origWidth': 411, 'origHeight': 411, 'width': 411, 'height': 411, 'widthPercent': 0.45, 'rescaleHeight': False, 'trialN': 76, 'loaded': True, 'loadedTime': 5361.300000011921, 'positionName': 'RIGHT', 'positionCoords': [998.4, 334.5], 'bid': 4.7700000000000005}]",137782.10000002384,1669829472378,roastedpotatoes,raisin bran w milk,5.63,4.7700000000000005,-0.8599999999999994,roastedpotatoes,1437.5,1437,1437.800000011921,True,u,139737.19999998808,1955.0999999642372,1669829474333,1955,HRV,HRV_0046,2022-11-30 17:33:58
77,"[{'imgObject': {}, 'id': 'pear', 'src': '/static/foodstim60/pear.jpg', 'key': 'u', 'origWidth': 411, 'origHeight': 410, 'width': 411, 'height': 410, 'widthPercent': 0.45, 'rescaleHeight': False, 'trialN': 77, 'loaded': True, 'loadedTime': 5136.100000023842, 'positionName': 'LEFT', 'positionCoords': [510.6, 335], 'bid': 1.46}, {'imgObject': {}, 'id': 'sweetpotato', 'src': '/static/foodstim60/sweetpotato.jpg', 'key': 'i', 'origWidth': 410, 'origHeight': 410, 'width': 410, 'height': 410, 'widthPercent': 0.45, 'rescaleHeight': False, 'trialN': 77, 'loaded': True, 'loadedTime': 5412.100000023842, 'positionName': 'RIGHT', 'positionCoords': [998.4, 335], 'bid': 1.94}]",139737.30000001192,1669829474333,pear,sweetpotato,1.46,1.94,0.48,pear,850.5,851,850.8999999761581,True,u,141095.19999998808,1357.8999999761581,1669829475691,1358,HRV,HRV_0046,2022-11-30 17:33:58
78,"[{'imgObject': {}, 'id': 'raspberries', 'src': '/static/foodstim60/raspberries.jpg', 'key': 'u', 'origWidth': 411, 'origHeight': 411, 'width': 411, 'height': 411, 'widthPercent': 0.45, 'rescaleHeight': False, 'trialN': 78, 'loaded': True, 'loadedTime': 5125.300000011921, 'positionName': 'LEFT', 'positionCoords': [510.6, 334.5], 'bid': 1.51}, {'imgObject': {}, 'id': 'orange slices', 'src': '/static/foodstim60/orange slices.jpg', 'key': 'i', 'origWidth': 409, 'origHeight': 410, 'width': 409, 'height': 410, 'widthPercent': 0.45, 'rescaleHeight': False, 'trialN': 78, 'loaded': True, 'loadedTime': 5469.600000023842, 'positionName': 'RIGHT', 'positionCoords': [998.4, 335], 'bid': 3.18}]",141095.19999998808,1669829475691,raspberries,orange slices,1.51,3.18,1.6700000000000002,orange slices,757.0,757,757.2000000476837,True,i,142367.69999998808,1272.5,1669829476963,1272,HRV,HRV_0046,2022-11-30 17:33:58
79,"[{'imgObject': {}, 'id': 'rigatoni and sauce', 'src': '/static/foodstim60/rigatoni and sauce.jpg', 'key': 'u', 'origWidth': 410, 'origHeight': 411, 'width': 410, 'height': 411, 'widthPercent': 0.45, 'rescaleHeight': False, 'trialN': 79, 'loaded': True, 'loadedTime': 5483.699999988079, 'positionName': 'LEFT', 'positionCoords': [511.6, 334.5], 'bid': 4.03}, {'imgObject': {}, 'id': 'sweetpotato', 'src': '/static/foodstim60/sweetpotato.jpg', 'key': 'i', 'origWidth': 410, 'origHeight': 410, 'width': 410, 'height': 410, 'widthPercent': 0.45, 'rescaleHeight': False, 'trialN': 79, 'loaded': True, 'loadedTime': 5412.199999988079, 'positionName': 'RIGHT', 'positionCoords': [998.4, 335], 'bid': 1.94}]",142367.80000001192,1669829476963,rigatoni and sauce,sweetpotato,4.03,1.94,-2.0900000000000003,rigatoni and sauce,1420.300000011921,1421,1420.6000000238419,True,u,144297.10000002384,1929.300000011921,1669829478893,1930,HRV,HRV_0046,2022-11-30 17:33:58
80,"[{'imgObject': {}, 'id': 'burrito', 'src': '/static/foodstim60/burrito.jpg', 'key': 'u', 'origWidth': 410, 'origHeight': 410, 'width': 410, 'height': 410, 'widthPercent': 0.45, 'rescaleHeight': False, 'trialN': 80, 'loaded': True, 'loadedTime': 5030.900000035763, 'positionName': 'LEFT', 'positionCoords': [511.6, 335], 'bid': 6.76}, {'imgObject': {}, 'id': 'grilled chicken strips', 'src': '/static/foodstim60/grilled chicken strips.jpg', 'key': 'i', 'origWidth': 410, 'origHeight': 411, 'width': 410, 'height': 411, 'widthPercent': 0.45, 'rescaleHeight': False, 'trialN': 80, 'loaded': True, 'loadedTime': 5459.400000035763, 'positionName': 'RIGHT', 'positionCoords': [998.4, 334.5], 'bid': 6.7700000000000005}]",144297.10000002384,1669829478893,burrito,grilled chicken strips,6.76,6.7700000000000005,0.010000000000000675,burrito,795.1999999880791,795,795.5999999642372,True,u,145607.19999998808,1310.0999999642372,1669829480203,1310,HRV,HRV_0046,2022-11-30 17:33:58
81,"[{'imgObject': {}, 'id': 'roastedpotatoes', 'src': '/static/foodstim60/roastedpotatoes.jpg', 'key': 'u', 'origWidth': 409, 'origHeight': 410, 'width': 409, 'height': 410, 'widthPercent': 0.45, 'rescaleHeight': False, 'trialN': 81, 'loaded': True, 'loadedTime': 5220.800000011921, 'positionName': 'LEFT', 'positionCoords': [512.6, 335], 'bid': 5.63}, {'imgObject': {}, 'id': 'sushi w_condiments', 'src': '/static/foodstim60/sushi w_condiments.jpg', 'key': 'i', 'origWidth': 410, 'origHeight': 410, 'width': 410, 'height': 410, 'widthPercent': 0.45, 'rescaleHeight': False, 'trialN': 81, 'loaded': True, 'loadedTime': 5328.699999988079, 'positionName': 'RIGHT', 'positionCoords': [998.4, 335], 'bid': 8.8}]",145607.30000001192,1669829480203,roastedpotatoes,sushi w_condiments,5.63,8.8,3.170000000000001,roastedpotatoes,725.1000000238419,725,725.3999999761581,True,u,146847.30000001192,1240.0,1669829481443,1240,HRV,HRV_0046,2022-11-30 17:33:58
82,"[{'imgObject': {}, 'id': 'luckycharms', 'src': '/static/foodstim60/luckycharms.jpg', 'key': 'u', 'origWidth': 410, 'origHeight': 409, 'width': 410, 'height': 409, 'widthPercent': 0.45, 'rescaleHeight': False, 'trialN': 82, 'loaded': True, 'loadedTime': 4833.600000023842, 'positionName': 'LEFT', 'positionCoords': [511.6, 335.5], 'bid': 4.75}, {'imgObject': {}, 'id': 'salmon', 'src': '/static/foodstim60/salmon.jpg', 'key': 'i', 'origWidth': 410, 'origHeight': 409, 'width': 410, 'height': 409, 'widthPercent': 0.45, 'rescaleHeight': False, 'trialN': 82, 'loaded': True, 'loadedTime': 5447, 'positionName': 'RIGHT', 'positionCoords': [998.4, 335.5], 'bid': 4.75}]",146847.30000001192,1669829481443,luckycharms,salmon,4.75,4.75,0.0,luckycharms,1517.3999999761581,1518,1517.8999999761581,True,u,148880.80000001192,2033.5,1669829483476,2033,HRV,HRV_0046,2022-11-30 17:33:58
83,"[{'imgObject': {}, 'id': 'orange slices', 'src': '/static/foodstim60/orange slices.jpg', 'key': 'u', 'origWidth': 409, 'origHeight': 410, 'width': 409, 'height': 410, 'widthPercent': 0.45, 'rescaleHeight': False, 'trialN': 83, 'loaded': True, 'loadedTime': 5460.699999988079, 'positionName': 'LEFT', 'positionCoords': [512.6, 335], 'bid': 3.18}, {'imgObject': {}, 'id': 'apple slices', 'src': '/static/foodstim60/apple slices.jpg', 'key': 'i', 'origWidth': 409, 'origHeight': 410, 'width': 409, 'height': 410, 'widthPercent': 0.45, 'rescaleHeight': False, 'trialN': 83, 'loaded': True, 'loadedTime': 5298.300000011921, 'positionName': 'RIGHT', 'positionCoords': [998.4, 335], 'bid': 3.6}]",148880.90000003576,1669829483476,orange slices,apple slices,3.18,3.6,0.41999999999999993,orange slices,963.8999999761581,965,964.0999999642372,True,u,150349.40000003576,1468.5,1669829484945,1469,HRV,HRV_0046,2022-11-30 17:33:58
84,"[{'imgObject': {}, 'id': 'lox', 'src': '/static/foodstim60/lox.jpg', 'key': 'u', 'origWidth': 410, 'origHeight': 411, 'width': 410, 'height': 411, 'widthPercent': 0.45, 'rescaleHeight': False, 'trialN': 84, 'loaded': True, 'loadedTime': 5279.900000035763, 'positionName': 'LEFT', 'positionCoords': [511.6, 334.5], 'bid': 3.46}, {'imgObject': {}, 'id': 'pear', 'src': '/static/foodstim60/pear.jpg', 'key': 'i', 'origWidth': 411, 'origHeight': 410, 'width': 411, 'height': 410, 'widthPercent': 0.45, 'rescaleHeight': False, 'trialN': 84, 'loaded': True, 'loadedTime': 5144.699999988079, 'positionName': 'RIGHT', 'positionCoords': [998.4, 335], 'bid': 1.46}]",150349.40000003576,1669829484945,lox,pear,3.46,1.46,-2.0,lox,1128.0999999642372,1128,1128.2999999523163,True,u,151988.19999998808,1638.7999999523163,1669829486584,1639,HRV,HRV_0046,2022-11-30 17:33:58
85,"[{'imgObject': {}, 'id': 'hotdog w must', 'src': '/static/foodstim60/hotdog w must.jpg', 'key': 'u', 'origWidth': 409, 'origHeight': 409, 'width': 409, 'height': 409, 'widthPercent': 0.45, 'rescaleHeight': False, 'trialN': 85, 'loaded': True, 'loadedTime': 5478.699999988079, 'positionName': 'LEFT', 'positionCoords': [512.6, 335.5], 'bid': 5.03}, {'imgObject': {}, 'id': 'sweetpotato', 'src': '/static/foodstim60/sweetpotato.jpg', 'key': 'i', 'origWidth': 410, 'origHeight': 410, 'width': 410, 'height': 410, 'widthPercent': 0.45, 'rescaleHeight': False, 'trialN': 85, 'loaded': True, 'loadedTime': 5415.800000011921, 'positionName': 'RIGHT', 'positionCoords': [998.4, 335], 'bid': 1.94}]",151988.40000003576,1669829486584,hotdog w must,sweetpotato,5.03,1.94,-3.0900000000000003,hotdog w must,904.7999999523163,905,905.1999999880791,True,u,153408.60000002384,1420.199999988079,1669829488004,1420,HRV,HRV_0046,2022-11-30 17:33:58
86,"[{'imgObject': {}, 'id': 'orange slices', 'src': '/static/foodstim60/orange slices.jpg', 'key': 'u', 'origWidth': 409, 'origHeight': 410, 'width': 409, 'height': 410, 'widthPercent': 0.45, 'rescaleHeight': False, 'trialN': 86, 'loaded': True, 'loadedTime': 5469.800000011921, 'positionName': 'LEFT', 'positionCoords': [512.6, 335], 'bid': 3.18}, {'imgObject': {}, 'id': 'Grapes', 'src': '/static/foodstim60/Grapes.jpg', 'key': 'i', 'origWidth': 411, 'origHeight': 411, 'width': 411, 'height': 411, 'widthPercent': 0.45, 'rescaleHeight': False, 'trialN': 86, 'loaded': True, 'loadedTime': 5434.800000011921, 'positionName': 'RIGHT', 'positionCoords': [998.4, 334.5], 'bid': 3.15}]",153408.80000001192,1669829488004,orange slices,Grapes,3.18,3.15,-0.03000000000000025,orange slices,820.3999999761581,821,820.8999999761581,True,u,154747.10000002384,1338.300000011921,1669829489343,1339,HRV,HRV_0046,2022-11-30 17:33:58
87,"[{'imgObject': {}, 'id': 'olives', 'src': '/static/foodstim60/olives.jpg', 'key': 'u', 'origWidth': 410, 'origHeight': 410, 'width': 410, 'height': 410, 'widthPercent': 0.45, 'rescaleHeight': False, 'trialN': 87, 'loaded': True, 'loadedTime': 5486.100000023842, 'positionName': 'LEFT', 'positionCoords': [511.6, 335], 'bid': 0.5}, {'imgObject': {}, 'id': 'raspberries', 'src': '/static/foodstim60/raspberries.jpg', 'key': 'i', 'origWidth': 411, 'origHeight': 411, 'width': 411, 'height': 411, 'widthPercent': 0.45, 'rescaleHeight': False, 'trialN': 87, 'loaded': True, 'loadedTime': 5116.400000035763, 'positionName': 'RIGHT', 'positionCoords': [998.4, 334.5], 'bid': 1.51}]",154747.10000002384,1669829489343,olives,raspberries,0.5,1.51,1.01,raspberries,802.3000000119209,802,802.5999999642372,True,i,156064.30000001192,1317.199999988079,1669829490660,1317,HRV,HRV_0046,2022-11-30 17:33:58
88,"[{'imgObject': {}, 'id': 'bagel plain', 'src': '/static/foodstim60/bagel plain.jpg', 'key': 'u', 'origWidth': 410, 'origHeight': 410, 'width': 410, 'height': 410, 'widthPercent': 0.45, 'rescaleHeight': False, 'trialN': 88, 'loaded': True, 'loadedTime': 5410.400000035763, 'positionName': 'LEFT', 'positionCoords': [511.6, 335], 'bid': 3.8}, {'imgObject': {}, 'id': 'cantaloupe', 'src': '/static/foodstim60/cantaloupe.jpg', 'key': 'i', 'origWidth': 409, 'origHeight': 409, 'width': 409, 'height': 409, 'widthPercent': 0.45, 'rescaleHeight': False, 'trialN': 88, 'loaded': True, 'loadedTime': 4916, 'positionName': 'RIGHT', 'positionCoords': [998.4, 335.5], 'bid': 4.5}]",156064.40000003576,1669829490660,bagel plain,cantaloupe,3.8,4.5,0.7000000000000002,cantaloupe,1373.199999988079,1373,1373.3999999761581,True,i,157953.0,1888.5999999642372,1669829492549,1889,HRV,HRV_0046,2022-11-30 17:33:58
89,"[{'imgObject': {}, 'id': 'veggieswithdip', 'src': '/static/foodstim60/veggieswithdip.jpg', 'key': 'u', 'origWidth': 409, 'origHeight': 409, 'width': 409, 'height': 409, 'widthPercent': 0.45, 'rescaleHeight': False, 'trialN': 89, 'loaded': True, 'loadedTime': 5383.900000035763, 'positionName': 'LEFT', 'positionCoords': [512.6, 335.5], 'bid': 3.2}, {'imgObject': {}, 'id': 'ice cream sundae 002', 'src': '/static/foodstim60/ice cream sundae 002.jpg', 'key': 'i', 'origWidth': 409, 'origHeight': 409, 'width': 409, 'height': 409, 'widthPercent': 0.45, 'rescaleHeight': False, 'trialN': 89, 'loaded': True, 'loadedTime': 5431.699999988079, 'positionName': 'RIGHT', 'positionCoords': [998.4, 335.5], 'bid': 4.47}]",157953.19999998808,1669829492549,veggieswithdip,ice cream sundae 002,3.2,4.47,1.2699999999999996,ice cream sundae 002,1228.6000000238419,1229,1228.800000011921,True,i,159695.10000002384,1741.9000000357628,1669829494291,1742,HRV,HRV_0046,2022-11-30 17:33:58
90,"[{'imgObject': {}, 'id': 'froot loops w milk', 'src': '/static/foodstim60/froot loops w milk.jpg', 'key': 'u', 'origWidth': 410, 'origHeight': 410, 'width': 410, 'height': 410, 'widthPercent': 0.45, 'rescaleHeight': False, 'trialN': 90, 'loaded': True, 'loadedTime': 5469.900000035763, 'positionName': 'LEFT', 'positionCoords': [511.6, 335], 'bid': 4.45}, {'imgObject': {}, 'id': 'hotdog w must', 'src': '/static/foodstim60/hotdog w must.jpg', 'key': 'i', 'origWidth': 409, 'origHeight': 409, 'width': 409, 'height': 409, 'widthPercent': 0.45, 'rescaleHeight': False, 'trialN': 90, 'loaded': True, 'loadedTime': 5475.600000023842, 'positionName': 'RIGHT', 'positionCoords': [998.4, 335.5], 'bid': 5.03}]",163313.0,1669829497909,froot loops w milk,hotdog w must,4.45,5.03,0.5800000000000001,froot loops w milk,2357.699999988079,2357,2357.900000035763,True,u,166172.0,2859.0,1669829500768,2859,HRV,HRV_0046,2022-11-30 17:33:58
91,"[{'imgObject': {}, 'id': 'apple slices', 'src': '/static/foodstim60/apple slices.jpg', 'key': 'u', 'origWidth': 409, 'origHeight': 410, 'width': 409, 'height': 410, 'widthPercent': 0.45, 'rescaleHeight': False, 'trialN': 91, 'loaded': True, 'loadedTime': 5294.900000035763, 'positionName': 'LEFT', 'positionCoords': [512.6, 335], 'bid': 3.6}, {'imgObject': {}, 'id': 'corn cob', 'src': '/static/foodstim60/corn cob.jpg', 'key': 'i', 'origWidth': 411, 'origHeight': 411, 'width': 411, 'height': 411, 'widthPercent': 0.45, 'rescaleHeight': False, 'trialN': 91, 'loaded': True, 'loadedTime': 5345.600000023842, 'positionName': 'RIGHT', 'positionCoords': [998.4, 334.5], 'bid': 3.52}]",166172.10000002384,1669829500768,apple slices,corn cob,3.6,3.52,-0.08000000000000007,corn cob,1106.5999999642372,1106,1106.8999999761581,True,i,167792.69999998808,1620.5999999642372,1669829502388,1620,HRV,HRV_0046,2022-11-30 17:33:58
92,"[{'imgObject': {}, 'id': 'chicken nuggets2', 'src': '/static/foodstim60/chicken nuggets2.jpg', 'key': 'u', 'origWidth': 410, 'origHeight': 409, 'width': 410, 'height': 409, 'widthPercent': 0.45, 'rescaleHeight': False, 'trialN': 92, 'loaded': True, 'loadedTime': 5479.100000023842, 'positionName': 'LEFT', 'positionCoords': [511.6, 335.5], 'bid': 5.21}, {'imgObject': {}, 'id': 'chickenfingers', 'src': '/static/foodstim60/chickenfingers.jpg', 'key': 'i', 'origWidth': 410, 'origHeight': 410, 'width': 410, 'height': 410, 'widthPercent': 0.45, 'rescaleHeight': False, 'trialN': 92, 'loaded': True, 'loadedTime': 5197.100000023842, 'positionName': 'RIGHT', 'positionCoords': [998.4, 335], 'bid': 4.83}]",167792.80000001192,1669829502388,chicken nuggets2,chickenfingers,5.21,4.83,-0.3799999999999999,chicken nuggets2,1406.1000000238419,1407,1406.300000011921,True,u,169721.80000001192,1929.0,1669829504317,1929,HRV,HRV_0046,2022-11-30 17:33:58
93,"[{'imgObject': {}, 'id': 'ice cream sundae 002', 'src': '/static/foodstim60/ice cream sundae 002.jpg', 'key': 'u', 'origWidth': 409, 'origHeight': 409, 'width': 409, 'height': 409, 'widthPercent': 0.45, 'rescaleHeight': False, 'trialN': 93, 'loaded': True, 'loadedTime': 5431.5, 'positionName': 'LEFT', 'positionCoords': [512.6, 335.5], 'bid': 4.47}, {'imgObject': {}, 'id': 'luckycharms', 'src': '/static/foodstim60/luckycharms.jpg', 'key': 'i', 'origWidth': 410, 'origHeight': 409, 'width': 410, 'height': 409, 'widthPercent': 0.45, 'rescaleHeight': False, 'trialN': 93, 'loaded': True, 'loadedTime': 4827.100000023842, 'positionName': 'RIGHT', 'positionCoords': [998.4, 335.5], 'bid': 4.75}]",169721.90000003576,1669829504317,ice cream sundae 002,luckycharms,4.47,4.75,0.28000000000000025,ice cream sundae 002,1341.8999999761581,1343,1342.0999999642372,True,u,171584.69999998808,1862.7999999523163,1669829506180,1863,HRV,HRV_0046,2022-11-30 17:33:58
94,"[{'imgObject': {}, 'id': 'hashbrowns', 'src': '/static/foodstim60/hashbrowns.jpg', 'key': 'u', 'origWidth': 411, 'origHeight': 410, 'width': 411, 'height': 410, 'widthPercent': 0.45, 'rescaleHeight': False, 'trialN': 94, 'loaded': True, 'loadedTime': 5207.400000035763, 'positionName': 'LEFT', 'positionCoords': [510.6, 335], 'bid': 5.63}, {'imgObject': {}, 'id': 'orange slices', 'src': '/static/foodstim60/orange slices.jpg', 'key': 'i', 'origWidth': 409, 'origHeight': 410, 'width': 409, 'height': 410, 'widthPercent': 0.45, 'rescaleHeight': False, 'trialN': 94, 'loaded': True, 'loadedTime': 5459.800000011921, 'positionName': 'RIGHT', 'positionCoords': [998.4, 335], 'bid': 3.18}]",171584.80000001192,1669829506180,hashbrowns,orange slices,5.63,3.18,-2.4499999999999997,hashbrowns,950.3999999761581,951,950.6999999880791,True,u,173051.30000001192,1466.5,1669829507647,1467,HRV,HRV_0046,2022-11-30 17:33:58
95,"[{'imgObject': {}, 'id': 'cherries', 'src': '/static/foodstim60/cherries.jpg', 'key': 'u', 'origWidth': 410, 'origHeight': 411, 'width': 410, 'height': 411, 'widthPercent': 0.45, 'rescaleHeight': False, 'trialN': 95, 'loaded': True, 'loadedTime': 5279.800000011921, 'positionName': 'LEFT', 'positionCoords': [511.6, 334.5], 'bid': 1.65}, {'imgObject': {}, 'id': 'yogurt no spoon', 'src': '/static/foodstim60/yogurt no spoon.jpg', 'key': 'i', 'origWidth': 411, 'origHeight': 410, 'width': 411, 'height': 410, 'widthPercent': 0.45, 'rescaleHeight': False, 'trialN': 95, 'loaded': True, 'loadedTime': 4935.699999988079, 'positionName': 'RIGHT', 'positionCoords': [998.4, 335], 'bid': 2.89}]",173051.40000003576,1669829507647,cherries,yogurt no spoon,1.65,2.89,1.2400000000000002,yogurt no spoon,1076.0,1076,1076.2999999523163,True,i,174638.30000001192,1586.8999999761581,1669829509234,1587,HRV,HRV_0046,2022-11-30 17:33:58
96,"[{'imgObject': {}, 'id': 'hashbrowns', 'src': '/static/foodstim60/hashbrowns.jpg', 'key': 'u', 'origWidth': 411, 'origHeight': 410, 'width': 411, 'height': 410, 'widthPercent': 0.45, 'rescaleHeight': False, 'trialN': 96, 'loaded': True, 'loadedTime': 5210.5, 'positionName': 'LEFT', 'positionCoords': [510.6, 335], 'bid': 5.63}, {'imgObject': {}, 'id': 'burger', 'src': '/static/foodstim60/burger.jpg', 'key': 'i', 'origWidth': 409, 'origHeight': 409, 'width': 409, 'height': 409, 'widthPercent': 0.45, 'rescaleHeight': False, 'trialN': 96, 'loaded': True, 'loadedTime': 5442.300000011921, 'positionName': 'RIGHT', 'positionCoords': [998.4, 335.5], 'bid': 8.91}]",174638.40000003576,1669829509234,hashbrowns,burger,5.63,8.91,3.2800000000000002,burger,785.1999999880791,785,785.5,True,i,175945.0,1306.5999999642372,1669829510541,1307,HRV,HRV_0046,2022-11-30 17:33:58
97,"[{'imgObject': {}, 'id': 'mashed potato', 'src': '/static/foodstim60/mashed potato.jpg', 'key': 'u', 'origWidth': 409, 'origHeight': 409, 'width': 409, 'height': 409, 'widthPercent': 0.45, 'rescaleHeight': False, 'trialN': 97, 'loaded': True, 'loadedTime': 4850.100000023842, 'positionName': 'LEFT', 'positionCoords': [512.6, 335.5], 'bid': 7.27}, {'imgObject': {}, 'id': 'eggs', 'src': '/static/foodstim60/eggs.jpg', 'key': 'i', 'origWidth': 409, 'origHeight': 409, 'width': 409, 'height': 409, 'widthPercent': 0.45, 'rescaleHeight': False, 'trialN': 97, 'loaded': True, 'loadedTime': 4953.199999988079, 'positionName': 'RIGHT', 'positionCoords': [998.4, 335.5], 'bid': 7.58}]",175945.10000002384,1669829510541,mashed potato,eggs,7.27,7.58,0.3100000000000005,mashed potato,1278.800000011921,1279,1279.0999999642372,True,u,177740.90000003576,1795.800000011921,1669829512336,1795,HRV,HRV_0046,2022-11-30 17:33:58
98,"[{'imgObject': {}, 'id': 'froot loops w milk', 'src': '/static/foodstim60/froot loops w milk.jpg', 'key': 'u', 'origWidth': 410, 'origHeight': 410, 'width': 410, 'height': 410, 'widthPercent': 0.45, 'rescaleHeight': False, 'trialN': 98, 'loaded': True, 'loadedTime': 5474, 'positionName': 'LEFT', 'positionCoords': [511.6, 335], 'bid': 4.45}, {'imgObject': {}, 'id': 'ice cream sundae 002', 'src': '/static/foodstim60/ice cream sundae 002.jpg', 'key': 'i', 'origWidth': 409, 'origHeight': 409, 'width': 409, 'height': 409, 'widthPercent': 0.45, 'rescaleHeight': False, 'trialN': 98, 'loaded': True, 'loadedTime': 5425.400000035763, 'positionName': 'RIGHT', 'positionCoords': [998.4, 335.5], 'bid': 4.47}]",177741.0,1669829512337,froot loops w milk,ice cream sundae 002,4.45,4.47,0.019999999999999574,ice cream sundae 002,1187.0,1186,1187.300000011921,True,i,179440.69999998808,1699.699999988079,1669829514036,1699,HRV,HRV_0046,2022-11-30 17:33:58
99,"[{'imgObject': {}, 'id': 'popsicles', 'src': '/static/foodstim60/popsicles.jpg', 'key': 'u', 'origWidth': 410, 'origHeight': 410, 'width': 410, 'height': 410, 'widthPercent': 0.45, 'rescaleHeight': False, 'trialN': 99, 'loaded': True, 'loadedTime': 4929.600000023842, 'positionName': 'LEFT', 'positionCoords': [511.6, 335], 'bid': 0.28}, {'imgObject': {}, 'id': 'yogurt no spoon', 'src': '/static/foodstim60/yogurt no spoon.jpg', 'key': 'i', 'origWidth': 411, 'origHeight': 410, 'width': 411, 'height': 410, 'widthPercent': 0.45, 'rescaleHeight': False, 'trialN': 99, 'loaded': True, 'loadedTime': 4947, 'positionName': 'RIGHT', 'positionCoords': [998.4, 335], 'bid': 2.89}]",179440.80000001192,1669829514036,popsicles,yogurt no spoon,0.28,2.89,2.6100000000000003,yogurt no spoon,1407.3999999761581,1408,1407.699999988079,True,i,181362.0,1921.199999988079,1669829515957,1921,HRV,HRV_0046,2022-11-30 17:33:58
100,"[{'imgObject': {}, 'id': 'raisin bran w milk', 'src': '/static/foodstim60/raisin bran w milk.jpg', 'key': 'u', 'origWidth': 411, 'origHeight': 411, 'width': 411, 'height': 411, 'widthPercent': 0.45, 'rescaleHeight': False, 'trialN': 100, 'loaded': True, 'loadedTime': 5361, 'positionName': 'LEFT', 'positionCoords': [510.6, 334.5], 'bid': 4.7700000000000005}, {'imgObject': {}, 'id': 'granola w milk', 'src': '/static/foodstim60/granola w milk.jpg', 'key': 'i', 'origWidth': 410, 'origHeight': 410, 'width': 410, 'height': 410, 'widthPercent': 0.45, 'rescaleHeight': False, 'trialN': 100, 'loaded': True, 'loadedTime': 5353.699999988079, 'positionName': 'RIGHT', 'positionCoords': [998.4, 335], 'bid': 4.38}]",181362.10000002384,1669829515957,raisin bran w milk,granola w milk,4.7700000000000005,4.38,-0.39000000000000057,raisin bran w milk,942.1999999880791,943,942.5,True,u,182822.30000001192,1460.199999988079,1669829517417,1460,HRV,HRV_0046,2022-11-30 17:33:58
101,"[{'imgObject': {}, 'id': 'hotdog w must', 'src': '/static/foodstim60/hotdog w must.jpg', 'key': 'u', 'origWidth': 409, 'origHeight': 409, 'width': 409, 'height': 409, 'widthPercent': 0.45, 'rescaleHeight': False, 'trialN': 101, 'loaded': True, 'loadedTime': 5478.800000011921, 'positionName': 'LEFT', 'positionCoords': [512.6, 335.5], 'bid': 5.03}, {'imgObject': {}, 'id': 'cocktailshrimp', 'src': '/static/foodstim60/cocktailshrimp.jpg', 'key': 'i', 'origWidth': 410, 'origHeight': 410, 'width': 410, 'height': 410, 'widthPercent': 0.45, 'rescaleHeight': False, 'trialN': 101, 'loaded': True, 'loadedTime': 4990, 'positionName': 'RIGHT', 'positionCoords': [998.4, 335], 'bid': 6.48}]",182822.30000001192,1669829517417,hotdog w must,cocktailshrimp,5.03,6.48,1.4500000000000002,cocktailshrimp,1922.300000011921,1923,1922.6000000238419,True,i,185258.69999998808,2436.399999976158,1669829519854,2437,HRV,HRV_0046,2022-11-30 17:33:58
102,"[{'imgObject': {}, 'id': 'burrito', 'src': '/static/foodstim60/burrito.jpg', 'key': 'u', 'origWidth': 410, 'origHeight': 410, 'width': 410, 'height': 410, 'widthPercent': 0.45, 'rescaleHeight': False, 'trialN': 102, 'loaded': True, 'loadedTime': 5041.800000011921, 'positionName': 'LEFT', 'positionCoords': [511.6, 335], 'bid': 6.76}, {'imgObject': {}, 'id': 'avocado', 'src': '/static/foodstim60/avocado.jpg', 'key': 'i', 'origWidth': 409, 'origHeight': 409, 'width': 409, 'height': 409, 'widthPercent': 0.45, 'rescaleHeight': False, 'trialN': 102, 'loaded': True, 'loadedTime': 4862.100000023842, 'positionName': 'RIGHT', 'positionCoords': [998.4, 335.5], 'bid': 5.23}]",185258.90000003576,1669829519854,burrito,avocado,6.76,5.23,-1.5299999999999994,burrito,765.7999999523163,766,766.0999999642372,True,u,186531.10000002384,1272.199999988079,1669829521126,1272,HRV,HRV_0046,2022-11-30 17:33:58
103,"[{'imgObject': {}, 'id': 'olives', 'src': '/static/foodstim60/olives.jpg', 'key': 'u', 'origWidth': 410, 'origHeight': 410, 'width': 410, 'height': 410, 'widthPercent': 0.45, 'rescaleHeight': False, 'trialN': 103, 'loaded': True, 'loadedTime': 5486.400000035763, 'positionName': 'LEFT', 'positionCoords': [511.6, 335], 'bid': 0.5}, {'imgObject': {}, 'id': 'popsicles', 'src': '/static/foodstim60/popsicles.jpg', 'key': 'i', 'origWidth': 410, 'origHeight': 410, 'width': 410, 'height': 410, 'widthPercent': 0.45, 'rescaleHeight': False, 'trialN': 103, 'loaded': True, 'loadedTime': 4921.800000011921, 'positionName': 'RIGHT', 'positionCoords': [998.4, 335], 'bid': 0.28}]",186531.19999998808,1669829521126,olives,popsicles,0.5,0.28,-0.21999999999999997,olives,813.8000000119209,814,814.1000000238419,True,u,187853.40000003576,1322.2000000476837,1669829522448,1322,HRV,HRV_0046,2022-11-30 17:33:58
104,"[{'imgObject': {}, 'id': 'orange slices', 'src': '/static/foodstim60/orange slices.jpg', 'key': 'u', 'origWidth': 409, 'origHeight': 410, 'width': 409, 'height': 410, 'widthPercent': 0.45, 'rescaleHeight': False, 'trialN': 104, 'loaded': True, 'loadedTime': 5460.800000011921, 'positionName': 'LEFT', 'positionCoords': [512.6, 335], 'bid': 3.18}, {'imgObject': {}, 'id': 'kiwi', 'src': '/static/foodstim60/kiwi.jpg', 'key': 'i', 'origWidth': 410, 'origHeight': 410, 'width': 410, 'height': 410, 'widthPercent': 0.45, 'rescaleHeight': False, 'trialN': 104, 'loaded': True, 'loadedTime': 5016.5, 'positionName': 'RIGHT', 'positionCoords': [998.4, 335], 'bid': 3.33}]",187853.5,1669829522449,orange slices,kiwi,3.18,3.33,0.1499999999999999,orange slices,1659.6000000238419,1659,1659.9000000357628,True,u,190029.0,2175.5,1669829524624,2175,HRV,HRV_0046,2022-11-30 17:33:58
105,"[{'imgObject': {}, 'id': 'shreddedwheatwithmilk', 'src': '/static/foodstim60/shreddedwheatwithmilk.jpg', 'key': 'u', 'origWidth': 410, 'origHeight': 410, 'width': 410, 'height': 410, 'widthPercent': 0.45, 'rescaleHeight': False, 'trialN': 105, 'loaded': True, 'loadedTime': 5251.5, 'positionName': 'LEFT', 'positionCoords': [511.6, 335], 'bid': 4.57}, {'imgObject': {}, 'id': 'ice cream sundae 002', 'src': '/static/foodstim60/ice cream sundae 002.jpg', 'key': 'i', 'origWidth': 409, 'origHeight': 409, 'width': 409, 'height': 409, 'widthPercent': 0.45, 'rescaleHeight': False, 'trialN': 105, 'loaded': True, 'loadedTime': 5431.800000011921, 'positionName': 'RIGHT', 'positionCoords': [998.4, 335.5], 'bid': 4.47}]",190029.0,1669829524624,shreddedwheatwithmilk,ice cream sundae 002,4.57,4.47,-0.10000000000000053,ice cream sundae 002,1244.4000000357628,1245,1244.6000000238419,True,i,191793.69999998808,1764.699999988079,1669829526389,1765,HRV,HRV_0046,2022-11-30 17:33:58
106,"[{'imgObject': {}, 'id': 'eggs', 'src': '/static/foodstim60/eggs.jpg', 'key': 'u', 'origWidth': 409, 'origHeight': 409, 'width': 409, 'height': 409, 'widthPercent': 0.45, 'rescaleHeight': False, 'trialN': 106, 'loaded': True, 'loadedTime': 4947.199999988079, 'positionName': 'LEFT', 'positionCoords': [512.6, 335.5], 'bid': 7.58}, {'imgObject': {}, 'id': 'sushi w_condiments', 'src': '/static/foodstim60/sushi w_condiments.jpg', 'key': 'i', 'origWidth': 410, 'origHeight': 410, 'width': 410, 'height': 410, 'widthPercent': 0.45, 'rescaleHeight': False, 'trialN': 106, 'loaded': True, 'loadedTime': 5336.400000035763, 'positionName': 'RIGHT', 'positionCoords': [998.4, 335], 'bid': 8.8}]",191793.80000001192,1669829526389,eggs,sushi w_condiments,7.58,8.8,1.2200000000000006,sushi w_condiments,743.6000000238419,744,743.8999999761581,True,i,193049.5,1255.699999988079,1669829527645,1256,HRV,HRV_0046,2022-11-30 17:33:58
107,"[{'imgObject': {}, 'id': 'shreddedwheatwithmilk', 'src': '/static/foodstim60/shreddedwheatwithmilk.jpg', 'key': 'u', 'origWidth': 410, 'origHeight': 410, 'width': 410, 'height': 410, 'widthPercent': 0.45, 'rescaleHeight': False, 'trialN': 107, 'loaded': True, 'loadedTime': 5257.900000035763, 'positionName': 'LEFT', 'positionCoords': [511.6, 335], 'bid': 4.57}, {'imgObject': {}, 'id': 'cheerios', 'src': '/static/foodstim60/cheerios.jpg', 'key': 'i', 'origWidth': 409, 'origHeight': 410, 'width': 409, 'height': 410, 'widthPercent': 0.45, 'rescaleHeight': False, 'trialN': 107, 'loaded': True, 'loadedTime': 5402.5, 'positionName': 'RIGHT', 'positionCoords': [998.4, 335], 'bid': 3.87}]",193049.69999998808,1669829527645,shreddedwheatwithmilk,cheerios,4.57,3.87,-0.7000000000000002,shreddedwheatwithmilk,951.9000000357628,952,952.3000000119209,True,u,194513.40000003576,1463.7000000476837,1669829529108,1463,HRV,HRV_0046,2022-11-30 17:33:58
108,"[{'imgObject': {}, 'id': 'rigatoni and sauce', 'src': '/static/foodstim60/rigatoni and sauce.jpg', 'key': 'u', 'origWidth': 410, 'origHeight': 411, 'width': 410, 'height': 411, 'widthPercent': 0.45, 'rescaleHeight': False, 'trialN': 108, 'loaded': True, 'loadedTime': 5482.300000011921, 'positionName': 'LEFT', 'positionCoords': [511.6, 334.5], 'bid': 4.03}, {'imgObject': {}, 'id': 'cherry tomato', 'src': '/static/foodstim60/cherry tomato.jpg', 'key': 'i', 'origWidth': 410, 'origHeight': 410, 'width': 410, 'height': 410, 'widthPercent': 0.45, 'rescaleHeight': False, 'trialN': 108, 'loaded': True, 'loadedTime': 5105.699999988079, 'positionName': 'RIGHT', 'positionCoords': [998.4, 335], 'bid': 4.65}]",194513.5,1669829529109,rigatoni and sauce,cherry tomato,4.03,4.65,0.6200000000000001,cherry tomato,1168.300000011921,1168,1168.6000000238419,True,i,196191.90000003576,1678.4000000357628,1669829530787,1678,HRV,HRV_0046,2022-11-30 17:33:58
