success,trial_type,trial_index,time_elapsed,internal_node_id,Block,TrialNumber,TrialTime,trialTimeDiff,FPS_avg,FPS_med,FPS_mode,TrialDur,winResizeTime,rt,block,button_pressed,MotCoh,MotDir,ColCoh,Color,ChoiceKey,Choice,Accuracy,RT,nFrames,FPS,PPD,missTrial,missTrialMsg,onsetDelay,fullScreenExitTime,canvCenter,TrialType,Score,BlockTrial,stimulus,button_labels,exp,subjectId,date
True,fullscreen,0,4145,0.0-0.0,0.0,1.0,,,,,,,,,,,,,,,,,,,,,,,,,,,,,,,,HRV,HRV_0046,2022-11-30 18:05:46
,wl-check-fps,1,9142,0.0-1.0,0.0,2.0,"[5117.2, 5123.1, 5137, 5154.1, 5171.1, 5187.1, 5204.2, 5221.1, 5237.3, 5254.3, 5270.5, 5287.3, 5305.3, 5320.3, 5338.3, 5354.3, 5370.3, 5387.4, 5404.4, 5421.4, 5437.5, 5454.5, 5470.5, 5487.5, 5504.5, 5521.2, 5537.2, 5554.3, 5571.2, 5588.2, 5604.3, 5621.3, 5638.3, 5654.4, 5672.3, 5687.7, 5705.7, 5721.7, 5738.4, 5754.1, 5771.7, 5787.7, 5804.7, 5821.7, 5838.1, 5855, 5871.1, 5888.1, 5905.1, 5921.1, 5938.2, 5955.1, 5972.3, 5988.1, 6005.1, 6021.3, 6038.4, 6054.9, 6072.4, 6088.4, 6105.4, 6121.5, 6138.6, 6155.6, 6171.5, 6188.5, 6205.5, 6221.5, 6238.5, 6255.5, 6271.6, 6288.5, 6305.6, 6321.6, 6338.6, 6355.6, 6371.7, 6388.7, 6405.3, 6423.3, 6439.3, 6455.5, 6472.4, 6488.3, 6505.4, 6522.3, 6538.4, 6555.4, 6572.3, 6588.4, 6605.5, 6622.5, 6638.6, 6655.6, 6672.6, 6688.5, 6705.5, 6722.6, 6738.5, 6755.6, 6772.6, 6788.7, 6805.8, 6822.7, 6839.4, 6855.4, 6872.4, 6889.3, 6906.4, 6923.4, 6939.4, 6955.5, 6973.6, 6989.4, 7005.5, 7022.5, 7040.5, 7055.5, 7072.5, 7089.6, 7105.6, 7122.5, 7139.6, 7155.6, 7172.7, 7190.4, 7206, 7222.4, 7240.4, 7256.4, 7273.4, 7289.4, 7306.5, 7322.6, 7339.1, 7356, 7373, 7390.1, 7406.7, 7423.7, 7439.7, 7456.7, 7473.4, 7490.5, 7506.4, 7523.4, 7539.4, 7557.4, 7573.1, 7589.4, 7607.4, 7623.4, 7640.4, 7657.4, 7673.4, 7690.4, 7706.5, 7723.6, 7740.6, 7757, 7773, 7791, 7807.1, 7823, 7840.1, 7857.1, 7873.1, 7890.1, 7907.1, 7924.1, 7940.1, 7958.2, 7974.3, 7990.5, 8007.3, 8023.4, 8040.4, 8056.5, 8074.5, 8090.5, 8107.5, 8123.6, 8140.5, 8157.5, 8173.5, 8190.5, 8206.7, 8224.6, 8241.6, 8257.7, 8274.7, 8290.6, 8307.8, 8323.9, 8341.8, 8357.3, 8374.2, 8391.2, 8407.2, 8424.2, 8441.2, 8458.2, 8474.2, 8491.2, 8507.2, 8524.2, 8541.2, 8558.2, 8574.2, 8591.2, 8607.8, 8624.4, 8640.4, 8657.4, 8675.4, 8691.4, 8708.3, 8724.4, 8740.8, 8757.8, 8774.3, 8792.3, 8807.6, 8824.6, 8840.6, 8857.5, 8874.8, 8891.9, 8907.9, 8924.9, 8941.8, 8957.9, 8975, 8991.9, 9007.9, 9024.9, 9040.9, 9058.4, 9075.4, 9092.4, 9108.4, 9125.4, 9141.5, 9158.4, 9174.4, 9192.4, 9207.7, 9225, 9241.5, 9258.4, 9274.4, 9291.4, 9308.4, 9325.4, 9341.5, 9358.4, 9374.4, 9391.5, 9408.5, 9424.6, 9442.5, 9458.5, 9475, 9492, 9508.9, 9524.8, 9542.3, 9558.3, 9575.3, 9592.4, 9608.7, 9624.6, 9641.7, 9658.4, 9675.4, 9692.4, 9709.4, 9726.4, 9742.4, 9758.3, 9775.3, 9792.3, 9808.9, 9825.8, 9842.8, 9858.4, 9876.4, 9892.4, 9908.4, 9925.5, 9942.4, 9959.4, 9976.7, 9992.3, 10008.7, 10025.9, 10041.8, 10059.3, 10075.4, 10093.3]","[4.2, 5.9, 13.9, 17.1, 17, 16, 17.1, 16.9, 16.2, 17, 16.2, 16.8, 18, 15, 18, 16, 16, 17.1, 17, 17, 16.1, 17, 16, 17, 17, 16.7, 16, 17.1, 16.9, 17, 16.1, 17, 17, 16.1, 17.9, 15.4, 18, 16, 16.7, 15.7, 17.6, 16, 17, 17, 16.4, 16.9, 16.1, 17, 17, 16, 17.1, 16.9, 17.2, 15.8, 17, 16.2, 17.1, 16.5, 17.5, 16, 17, 16.1, 17.1, 17, 15.9, 17, 17, 16, 17, 17, 16.1, 16.9, 17.1, 16, 17, 17, 16.1, 17, 16.6, 18, 16, 16.2, 16.9, 15.9, 17.1, 16.9, 16.1, 17, 16.9, 16.1, 17.1, 17, 16.1, 17, 17, 15.9, 17, 17.1, 15.9, 17.1, 17, 16.1, 17.1, 16.9, 16.7, 16, 17, 16.9, 17.1, 17, 16, 16.1, 18.1, 15.8, 16.1, 17, 18, 15, 17, 17.1, 16, 16.9, 17.1, 16, 17.1, 17.7, 15.6, 16.4, 18, 16, 17, 16, 17.1, 16.1, 16.5, 16.9, 17, 17.1, 16.6, 17, 16, 17, 16.7, 17.1, 15.9, 17, 16, 18, 15.7, 16.3, 18, 16, 17, 17, 16, 17, 16.1, 17.1, 17, 16.4, 16, 18, 16.1, 15.9, 17.1, 17, 16, 17, 17, 17, 16, 18.1, 16.1, 16.2, 16.8, 16.1, 17, 16.1, 18, 16, 17, 16.1, 16.9, 17, 16, 17, 16.2, 17.9, 17, 16.1, 17, 15.9, 17.2, 16.1, 17.9, 15.5, 16.9, 17, 16, 17, 17, 17, 16, 17, 16, 17, 17, 17, 16, 17, 16.6, 16.6, 16, 17, 18, 16, 16.9, 16.1, 16.4, 17, 16.5, 18, 15.3, 17, 16, 16.9, 17.3, 17.1, 16, 17, 16.9, 16.1, 17.1, 16.9, 16, 17, 16, 17.5, 17, 17, 16, 17, 16.1, 16.9, 16, 18, 15.3, 17.3, 16.5, 16.9, 16, 17, 17, 17, 16.1, 16.9, 16, 17.1, 17, 16.1, 17.9, 16, 16.5, 17, 16.9, 15.9, 17.5, 16, 17, 17.1, 16.3, 15.9, 17.1, 16.7, 17, 17, 17, 17, 16, 15.9, 17, 17, 16.6, 16.9, 17, 15.6, 18, 16, 16, 17.1, 16.9, 17, 17.3, 15.6, 16.4, 17.2, 15.9, 17.5, 16.1, 17.9]",60.0,58.0,59.0,4995.4,[],,,,,,,,,,,,,,,,,,,,,,,,,HRV,HRV_0046,2022-11-30 18:05:46
,wl-html-keyboard-response,2,467681,0.0-2.0-0.0,0.0,3.0,,,,,,,,456530.7000000477,0.0,0,,,,,,,,,,,,,,,,,,,,,,HRV,HRV_0046,2022-11-30 18:05:46
,wl-rdm,3,474201,0.0-3.0-0.0,0.0,4.0,,,,,,,[],,,,0.0,0.0,87.9,0.0,u,0.0,True,2916.100000023842,58.0,59.0,40.0,False,,3000.0,[],"[960, 540]",ColorTask_Demo,,,,,HRV,HRV_0046,2022-11-30 18:05:46
,wl-rdm,4,479007,0.0-3.0-1.0,0.0,5.0,,,,,,,[],,,,0.0,0.0,87.9,1.0,i,1.0,True,1713.8999999761581,45.0,59.0,40.0,False,,2000.0,[],"[960, 540]",ColorTask_Demo,,,,,HRV,HRV_0046,2022-11-30 18:05:46
,wl-html-keyboard-response,5,482913,0.0-3.0-2.0,0.0,6.0,,,,,,,,1899.699999988079,0.0,1,,,,,,,,,,,,,,,,,,,,,,HRV,HRV_0046,2022-11-30 18:05:46
,wl-html-keyboard-response,6,490673,0.0-4.0-0.0,0.0,7.0,,,,,,,,5754.800000011921,0.0,0,,,,,,,,,,,,,,,,,,,,,,HRV,HRV_0046,2022-11-30 18:05:46
,wl-html-keyboard-response,7,508169,0.0-5.0-0.0,0.0,8.0,,,,,,,,15492.699999988079,0.0,0,,,,,,,,,,,,,,,,,,,,,,HRV,HRV_0046,2022-11-30 18:05:46
,wl-rdm,8,510237,0.0-6.0-0.0,0.0,9.0,,,,,,,[],,,,,,87.9,1.0,i,1.0,True,700.2999999523163,42.0,59.0,40.0,False,,296.98055724909284,[],"[960, 540]",ColorTask,1.0,1.0,,,HRV,HRV_0046,2022-11-30 18:05:46
,wl-rdm,9,512488,0.0-6.1-0.1,0.0,10.0,,,,,,,[],,,,,,50.0,0.0,u,0.0,True,920.8000000119209,56.0,59.0,40.0,False,,251.04401858570017,[],"[960, 540]",ColorTask,2.0,2.0,,,HRV,HRV_0046,2022-11-30 18:05:46
,wl-rdm,10,514925,0.0-6.2-0.2,0.0,11.0,,,,,,,[],,,,,,53.2,0.0,u,0.0,True,1042.699999988079,63.0,59.0,40.0,False,,325.9477206183059,[],"[960, 540]",ColorTask,3.0,3.0,,,HRV,HRV_0046,2022-11-30 18:05:46
,wl-rdm,11,517260,0.0-6.3-0.3,0.0,12.0,,,,,,,[],,,,,,50.0,1.0,u,0.0,False,909.6999999880791,55.0,59.0,40.0,False,,350.5844792297976,[],"[960, 540]",ColorTask,2.0,4.0,,,HRV,HRV_0046,2022-11-30 18:05:46
,wl-rdm,12,519312,0.0-6.4-0.4,0.0,13.0,,,,,,,[],,,,,,73.6,0.0,u,0.0,True,780.2999999523163,47.0,59.0,40.0,False,,207.04038193825147,[],"[960, 540]",ColorTask,3.0,5.0,,,HRV,HRV_0046,2022-11-30 18:05:46
,wl-rdm,13,521264,0.0-6.5-0.5,0.0,14.0,,,,,,,[],,,,,,73.6,0.0,u,0.0,True,612.9000000357628,37.0,59.0,40.0,False,,282.87459144797197,[],"[960, 540]",ColorTask,4.0,6.0,,,HRV,HRV_0046,2022-11-30 18:05:46
,wl-rdm,14,523266,0.0-6.6-0.6,0.0,15.0,,,,,,,[],,,,,,73.6,1.0,i,1.0,True,636.9000000357628,39.0,59.0,40.0,False,,292.4233069566038,[],"[960, 540]",ColorTask,5.0,7.0,,,HRV,HRV_0046,2022-11-30 18:05:46
,wl-rdm,15,525235,0.0-6.7-0.7,0.0,16.0,,,,,,,[],,,,,,73.6,1.0,i,1.0,True,561.6000000238419,34.0,59.0,40.0,False,,349.0981430289346,[],"[960, 540]",ColorTask,6.0,8.0,,,HRV,HRV_0046,2022-11-30 18:05:46
,wl-rdm,16,527187,0.0-6.8-0.8,0.0,17.0,,,,,,,[],,,,,,62.5,0.0,u,0.0,True,636.4000000357628,39.0,59.0,40.0,False,,243.09481554278682,[],"[960, 540]",ColorTask,7.0,9.0,,,HRV,HRV_0046,2022-11-30 18:05:46
,wl-rdm,17,529423,0.0-6.9-0.9,0.0,18.0,,,,,,,[],,,,,,56.4,1.0,i,1.0,True,799.5,48.0,59.0,40.0,False,,380.43700972195956,[],"[960, 540]",ColorTask,8.0,10.0,,,HRV,HRV_0046,2022-11-30 18:05:46
,wl-rdm,18,531508,0.0-6.10-0.10,0.0,19.0,,,,,,,[],,,,,,62.5,1.0,i,1.0,True,736.6000000238419,45.0,59.0,40.0,False,,277.0117401368213,[],"[960, 540]",ColorTask,9.0,11.0,,,HRV,HRV_0046,2022-11-30 18:05:46
,wl-rdm,19,533710,0.0-6.11-0.11,0.0,20.0,,,,,,,[],,,,,,53.2,1.0,i,1.0,True,768.1000000238419,46.0,59.0,40.0,False,,377.62869103780463,[],"[960, 540]",ColorTask,10.0,12.0,,,HRV,HRV_0046,2022-11-30 18:05:46
,wl-rdm,20,535629,0.0-6.12-0.12,0.0,21.0,,,,,,,[],,,,,,56.4,0.0,i,1.0,False,544.6000000238419,33.0,59.0,40.0,False,,292.1451052441573,[],"[960, 540]",ColorTask,9.0,13.0,,,HRV,HRV_0046,2022-11-30 18:05:46
,wl-rdm,21,537647,0.0-6.13-0.13,0.0,22.0,,,,,,,[],,,,,,62.5,0.0,u,0.0,True,741.8000000119209,45.0,59.0,40.0,False,,206.45774094647086,[],"[960, 540]",ColorTask,10.0,14.0,,,HRV,HRV_0046,2022-11-30 18:05:46
,wl-rdm,22,540000,0.0-6.14-0.14,0.0,23.0,,,,,,,[],,,,,,50.0,1.0,i,1.0,True,970.9000000357628,59.0,59.0,40.0,False,,301.9204972352382,[],"[960, 540]",ColorTask,11.0,15.0,,,HRV,HRV_0046,2022-11-30 18:05:46
,wl-rdm,23,542102,0.0-6.15-0.15,0.0,24.0,,,,,,,[],,,,,,56.4,0.0,i,1.0,False,737.3000000119209,45.0,59.0,40.0,False,,283.46124462511693,[],"[960, 540]",ColorTask,10.0,16.0,,,HRV,HRV_0046,2022-11-30 18:05:46
,wl-rdm,24,544104,0.0-6.16-0.16,0.0,25.0,,,,,,,[],,,,,,50.0,1.0,u,0.0,False,553.2999999523163,34.0,59.0,40.0,False,,379.2575167485991,[],"[960, 540]",ColorTask,9.0,17.0,,,HRV,HRV_0046,2022-11-30 18:05:46
,wl-rdm,25,546155,0.0-6.17-0.17,0.0,26.0,,,,,,,[],,,,,,87.9,1.0,i,1.0,True,663.5,40.0,59.0,40.0,False,,301.998189454831,[],"[960, 540]",ColorTask,10.0,18.0,,,HRV,HRV_0046,2022-11-30 18:05:46
,wl-rdm,26,548441,0.0-6.18-0.18,0.0,27.0,,,,,,,[],,,,,,73.6,1.0,i,1.0,True,882.3999999761581,53.0,59.0,40.0,False,,339.87803112232314,[],"[960, 540]",ColorTask,11.0,19.0,,,HRV,HRV_0046,2022-11-30 18:05:46
,wl-rdm,27,550359,0.0-6.19-0.19,0.0,28.0,,,,,,,[],,,,,,87.9,0.0,u,0.0,True,633.6000000238419,38.0,59.0,40.0,False,,220.51853116045052,[],"[960, 540]",ColorTask,12.0,20.0,,,HRV,HRV_0046,2022-11-30 18:05:46
,wl-rdm,28,552262,0.0-6.20-0.20,0.0,29.0,,,,,,,[],,,,,,87.9,0.0,u,0.0,True,612.1000000238419,37.0,59.0,40.0,False,,225.09223956230716,[],"[960, 540]",ColorTask,13.0,21.0,,,HRV,HRV_0046,2022-11-30 18:05:46
,wl-rdm,29,554313,0.0-6.21-0.21,0.0,30.0,,,,,,,[],,,,,,56.4,1.0,i,1.0,True,667.1000000238419,40.0,59.0,40.0,False,,304.6962036063017,[],"[960, 540]",ColorTask,14.0,22.0,,,HRV,HRV_0046,2022-11-30 18:05:46
,wl-rdm,30,556198,0.0-6.22-0.22,0.0,31.0,,,,,,,[],,,,,,62.5,1.0,i,1.0,True,561.2999999523163,34.0,59.0,40.0,False,,256.7143978264228,[],"[960, 540]",ColorTask,15.0,23.0,,,HRV,HRV_0046,2022-11-30 18:05:46
,wl-rdm,31,558401,0.0-6.23-0.23,0.0,32.0,,,,,,,[],,,,,,87.9,0.0,u,0.0,True,866.8999999761581,52.0,59.0,40.0,False,,280.41960917760593,[],"[960, 540]",ColorTask,16.0,24.0,,,HRV,HRV_0046,2022-11-30 18:05:46
,wl-rdm,32,560303,0.0-6.24-0.24,0.0,33.0,,,,,,,[],,,,,,87.9,1.0,i,1.0,True,619.7000000476837,38.0,59.0,40.0,False,,202.77329393540836,[],"[960, 540]",ColorTask,17.0,25.0,,,HRV,HRV_0046,2022-11-30 18:05:46
,wl-rdm,33,562254,0.0-6.25-0.25,0.0,34.0,,,,,,,[],,,,,,87.9,0.0,u,0.0,True,612.2000000476837,37.0,59.0,40.0,False,,265.2297723301501,[],"[960, 540]",ColorTask,18.0,26.0,,,HRV,HRV_0046,2022-11-30 18:05:46
,wl-rdm,34,564357,0.0-6.26-0.26,0.0,35.0,,,,,,,[],,,,,,53.2,1.0,i,1.0,True,763.5,46.0,59.0,40.0,False,,269.81750912691626,[],"[960, 540]",ColorTask,19.0,27.0,,,HRV,HRV_0046,2022-11-30 18:05:46
,wl-rdm,35,566341,0.0-6.27-0.27,0.0,36.0,,,,,,,[],,,,,,73.6,1.0,i,1.0,True,579.6000000238419,35.0,59.0,40.0,False,,325.53252533708906,[],"[960, 540]",ColorTask,20.0,28.0,,,HRV,HRV_0046,2022-11-30 18:05:46
,wl-rdm,36,568210,0.0-6.28-0.28,0.0,37.0,,,,,,,[],,,,,,87.9,0.0,u,0.0,True,566.4000000357628,34.0,59.0,40.0,False,,243.10566869062512,[],"[960, 540]",ColorTask,21.0,29.0,,,HRV,HRV_0046,2022-11-30 18:05:46
,wl-rdm,37,570346,0.0-6.29-0.29,0.0,38.0,,,,,,,[],,,,,,50.0,1.0,u,0.0,False,838.0,51.0,59.0,40.0,False,,218.4850901652187,[],"[960, 540]",ColorTask,20.0,30.0,,,HRV,HRV_0046,2022-11-30 18:05:46
,wl-rdm,38,572414,0.0-6.30-0.30,0.0,39.0,,,,,,,[],,,,,,53.2,0.0,u,0.0,True,621.5,38.0,59.0,40.0,False,,370.9913564210344,[],"[960, 540]",ColorTask,21.0,31.0,,,HRV,HRV_0046,2022-11-30 18:05:46
,wl-rdm,39,574267,0.0-6.31-0.31,0.0,40.0,,,,,,,[],,,,,,53.2,1.0,i,1.0,True,533.3999999761581,32.0,59.0,40.0,False,,266.41621485544937,[],"[960, 540]",ColorTask,22.0,32.0,,,HRV,HRV_0046,2022-11-30 18:05:46
,wl-rdm,40,576518,0.0-6.32-0.32,0.0,41.0,,,,,,,[],,,,,,50.0,1.0,u,0.0,False,855.9000000357628,52.0,59.0,40.0,False,,321.51893776924334,[],"[960, 540]",ColorTask,21.0,33.0,,,HRV,HRV_0046,2022-11-30 18:05:46
,wl-rdm,41,578487,0.0-6.33-0.33,0.0,42.0,,,,,,,[],,,,,,62.5,1.0,i,1.0,True,629.7999999523163,38.0,59.0,40.0,False,,282.3741205561503,[],"[960, 540]",ColorTask,22.0,34.0,,,HRV,HRV_0046,2022-11-30 18:05:46
,wl-rdm,42,580773,0.0-6.34-0.34,0.0,43.0,,,,,,,[],,,,,,50.0,1.0,i,1.0,True,941.2000000476837,57.0,59.0,40.0,False,,281.84617594879853,[],"[960, 540]",ColorTask,23.0,35.0,,,HRV,HRV_0046,2022-11-30 18:05:46
,wl-rdm,43,582858,0.0-6.35-0.35,0.0,44.0,,,,,,,[],,,,,,50.0,0.0,i,1.0,False,787.6000000238419,48.0,59.0,40.0,False,,216.21155925944367,[],"[960, 540]",ColorTask,22.0,36.0,,,HRV,HRV_0046,2022-11-30 18:05:46
,wl-rdm,44,585161,0.0-6.36-0.36,0.0,45.0,,,,,,,[],,,,,,53.2,0.0,u,0.0,True,870.8000000119209,53.0,59.0,40.0,False,,353.3645520137401,[],"[960, 540]",ColorTask,23.0,37.0,,,HRV,HRV_0046,2022-11-30 18:05:46
,wl-rdm,45,587079,0.0-6.37-0.37,0.0,46.0,,,,,,,[],,,,,,62.5,0.0,u,0.0,True,605.5999999642372,37.0,59.0,40.0,False,,241.973000371176,[],"[960, 540]",ColorTask,24.0,38.0,,,HRV,HRV_0046,2022-11-30 18:05:46
,wl-rdm,46,588998,0.0-6.38-0.38,0.0,47.0,,,,,,,[],,,,,,62.5,0.0,u,0.0,True,608.1000000238419,37.0,59.0,40.0,False,,238.60321680093955,[],"[960, 540]",ColorTask,25.0,39.0,,,HRV,HRV_0046,2022-11-30 18:05:46
,wl-rdm,47,590816,0.0-6.39-0.39,0.0,48.0,,,,,,,[],,,,,,73.6,0.0,u,0.0,True,546.0,33.0,59.0,40.0,False,,210.04973050169855,[],"[960, 540]",ColorTask,26.0,40.0,,,HRV,HRV_0046,2022-11-30 18:05:46
,wl-rdm,48,592901,0.0-6.40-0.40,0.0,49.0,,,,,,,[],,,,,,73.6,0.0,u,0.0,True,649.8999999761581,39.0,59.0,40.0,False,,371.21753335801145,[],"[960, 540]",ColorTask,27.0,41.0,,,HRV,HRV_0046,2022-11-30 18:05:46
,wl-rdm,49,594837,0.0-6.41-0.41,0.0,50.0,,,,,,,[],,,,,,56.4,0.0,u,0.0,True,475.80000001192093,29.0,59.0,40.0,False,,395.5212575178337,[],"[960, 540]",ColorTask,28.0,42.0,,,HRV,HRV_0046,2022-11-30 18:05:46
,wl-rdm,50,596588,0.0-6.42-0.42,0.0,51.0,,,,,,,[],,,,,,73.6,0.0,u,0.0,True,458.69999998807907,28.0,59.0,40.0,False,,222.27665469490725,[],"[960, 540]",ColorTask,29.0,43.0,,,HRV,HRV_0046,2022-11-30 18:05:46
,wl-rdm,51,598490,0.0-6.43-0.43,0.0,52.0,,,,,,,[],,,,,,53.2,0.0,u,0.0,True,445.0,27.0,59.0,40.0,False,,394.62699959676354,[],"[960, 540]",ColorTask,30.0,44.0,,,HRV,HRV_0046,2022-11-30 18:05:46
,wl-rdm,52,600676,0.0-6.44-0.44,0.0,53.0,,,,,,,[],,,,,,56.4,0.0,u,0.0,True,727.1999999880791,44.0,59.0,40.0,False,,397.40733062566426,[],"[960, 540]",ColorTask,31.0,45.0,,,HRV,HRV_0046,2022-11-30 18:05:46
,wl-rdm,53,602412,0.0-6.45-0.45,0.0,54.0,,,,,,,[],,,,,,53.2,0.0,u,0.0,True,453.89999997615814,28.0,59.0,40.0,False,,206.87492281972314,[],"[960, 540]",ColorTask,32.0,46.0,,,HRV,HRV_0046,2022-11-30 18:05:46
,wl-rdm,54,604113,0.0-6.46-0.46,0.0,55.0,,,,,,,[],,,,,,50.0,0.0,u,0.0,True,406.39999997615814,25.0,59.0,40.0,False,,227.77198322717396,[],"[960, 540]",ColorTask,33.0,47.0,,,HRV,HRV_0046,2022-11-30 18:05:46
,wl-rdm,55,605998,0.0-6.47-0.47,0.0,56.0,,,,,,,[],,,,,,56.4,1.0,u,0.0,False,576.0,35.0,59.0,40.0,False,,238.4259069294129,[],"[960, 540]",ColorTask,32.0,48.0,,,HRV,HRV_0046,2022-11-30 18:05:46
,wl-rdm,56,607883,0.0-6.48-0.48,0.0,57.0,,,,,,,[],,,,,,53.2,1.0,u,0.0,False,437.4000000357628,27.0,59.0,40.0,False,,367.83266510414956,[],"[960, 540]",ColorTask,31.0,49.0,,,HRV,HRV_0046,2022-11-30 18:05:46
,wl-rdm,57,609802,0.0-6.49-0.49,0.0,58.0,,,,,,,[],,,,,,62.5,0.0,u,0.0,True,547.3000000119209,33.0,59.0,40.0,False,,298.69780841131376,[],"[960, 540]",ColorTask,32.0,50.0,,,HRV,HRV_0046,2022-11-30 18:05:46
,wl-rdm,58,611870,0.0-6.50-0.50,0.0,59.0,,,,,,,[],,,,,,56.4,0.0,u,0.0,True,626.6000000238419,38.0,59.0,40.0,False,,361.7563914501643,[],"[960, 540]",ColorTask,33.0,51.0,,,HRV,HRV_0046,2022-11-30 18:05:46
,wl-rdm,59,614205,0.0-6.51-0.51,0.0,60.0,,,,,,,[],,,,,,73.6,1.0,i,1.0,True,960.8000000119209,58.0,59.0,40.0,False,,312.9175042396273,[],"[960, 540]",ColorTask,34.0,52.0,,,HRV,HRV_0046,2022-11-30 18:05:46
,wl-rdm,60,616157,0.0-6.52-0.52,0.0,61.0,,,,,,,[],,,,,,73.6,1.0,i,1.0,True,643.5,39.0,59.0,40.0,False,,237.7575949432538,[],"[960, 540]",ColorTask,35.0,53.0,,,HRV,HRV_0046,2022-11-30 18:05:46
,wl-rdm,61,618444,0.0-6.53-0.53,0.0,62.0,,,,,,,[],,,,,,50.0,0.0,i,1.0,False,930.2000000476837,56.0,59.0,40.0,False,,296.8472607076004,[],"[960, 540]",ColorTask,34.0,54.0,,,HRV,HRV_0046,2022-11-30 18:05:46
,wl-rdm,62,620729,0.0-6.54-0.54,0.0,63.0,,,,,,,[],,,,,,62.5,1.0,u,0.0,False,948.4000000357628,57.0,59.0,40.0,False,,280.49528793210413,[],"[960, 540]",ColorTask,33.0,55.0,,,HRV,HRV_0046,2022-11-30 18:05:46
,wl-rdm,63,623031,0.0-6.55-0.55,0.0,64.0,,,,,,,[],,,,,,56.4,1.0,i,1.0,True,826.8000000119209,50.0,59.0,40.0,False,,386.65044155754464,[],"[960, 540]",ColorTask,34.0,56.0,,,HRV,HRV_0046,2022-11-30 18:05:46
,wl-rdm,64,625618,0.0-6.56-0.56,0.0,65.0,,,,,,,[],,,,,,50.0,1.0,i,1.0,True,1301.1000000238419,78.0,59.0,40.0,False,,207.81801294616116,[],"[960, 540]",ColorTask,35.0,57.0,,,HRV,HRV_0046,2022-11-30 18:05:46
,wl-rdm,65,627519,0.0-6.57-0.57,0.0,66.0,,,,,,,[],,,,,,50.0,0.0,i,1.0,False,610.2000000476837,37.0,59.0,40.0,False,,232.02565845380207,[],"[960, 540]",ColorTask,34.0,58.0,,,HRV,HRV_0046,2022-11-30 18:05:46
,wl-rdm,66,629839,0.0-6.58-0.58,0.0,67.0,,,,,,,[],,,,,,56.4,1.0,u,0.0,False,945.5,57.0,59.0,40.0,False,,295.2556514897629,[],"[960, 540]",ColorTask,33.0,59.0,,,HRV,HRV_0046,2022-11-30 18:05:46
,wl-rdm,67,631874,0.0-6.59-0.59,0.0,68.0,,,,,,,[],,,,,,87.9,0.0,u,0.0,True,650.7000000476837,39.0,59.0,40.0,False,,303.8829062636397,[],"[960, 540]",ColorTask,34.0,60.0,,,HRV,HRV_0046,2022-11-30 18:05:46
,wl-rdm,68,634093,0.0-6.60-0.60,0.0,69.0,,,,,,,[],,,,,,56.4,0.0,u,0.0,True,855.6999999880791,52.0,59.0,40.0,False,,299.3228680252035,[],"[960, 540]",ColorTask,35.0,61.0,,,HRV,HRV_0046,2022-11-30 18:05:46
,wl-rdm,69,636295,0.0-6.61-0.61,0.0,70.0,,,,,,,[],,,,,,53.2,0.0,i,1.0,False,772.2999999523163,47.0,59.0,40.0,False,,348.0388342327331,[],"[960, 540]",ColorTask,34.0,62.0,,,HRV,HRV_0046,2022-11-30 18:05:46
,wl-rdm,70,638097,0.0-6.62-0.62,0.0,71.0,,,,,,,[],,,,,,56.4,1.0,i,1.0,True,537.4000000357628,33.0,59.0,40.0,False,,200.24827981436115,[],"[960, 540]",ColorTask,35.0,63.0,,,HRV,HRV_0046,2022-11-30 18:05:46
,wl-rdm,71,640032,0.0-6.63-0.63,0.0,72.0,,,,,,,[],,,,,,56.4,1.0,i,1.0,True,611.6999999880791,37.0,59.0,40.0,False,,253.1567463346141,[],"[960, 540]",ColorTask,36.0,64.0,,,HRV,HRV_0046,2022-11-30 18:05:46
,wl-rdm,72,642318,0.0-6.64-0.64,0.0,73.0,,,,,,,[],,,,,,56.4,1.0,i,1.0,True,1013.8000000119209,61.0,59.0,40.0,False,,216.24635502757246,[],"[960, 540]",ColorTask,37.0,65.0,,,HRV,HRV_0046,2022-11-30 18:05:46
,wl-rdm,73,644619,0.0-6.65-0.65,0.0,74.0,,,,,,,[],,,,,,50.0,0.0,u,0.0,True,858.1999999880791,52.0,59.0,40.0,False,,379.63572331629206,[],"[960, 540]",ColorTask,38.0,66.0,,,HRV,HRV_0046,2022-11-30 18:05:46
,wl-rdm,74,646539,0.0-6.66-0.66,0.0,75.0,,,,,,,[],,,,,,87.9,1.0,u,0.0,False,603.6999999880791,37.0,59.0,40.0,False,,243.0255805973319,[],"[960, 540]",ColorTask,37.0,67.0,,,HRV,HRV_0046,2022-11-30 18:05:46
,wl-rdm,75,648473,0.0-6.67-0.67,0.0,76.0,,,,,,,[],,,,,,53.2,1.0,u,0.0,False,653.0,40.0,59.0,40.0,False,,205.0208367463422,[],"[960, 540]",ColorTask,36.0,68.0,,,HRV,HRV_0046,2022-11-30 18:05:46
,wl-rdm,76,650392,0.0-6.68-0.68,0.0,77.0,,,,,,,[],,,,,,62.5,0.0,u,0.0,True,579.1000000238419,35.0,59.0,40.0,False,,289.13997893872784,[],"[960, 540]",ColorTask,37.0,69.0,,,HRV,HRV_0046,2022-11-30 18:05:46
,wl-rdm,77,652344,0.0-6.69-0.69,0.0,78.0,,,,,,,[],,,,,,73.6,0.0,u,0.0,True,628.8999999761581,38.0,59.0,40.0,False,,264.7114354517483,[],"[960, 540]",ColorTask,38.0,70.0,,,HRV,HRV_0046,2022-11-30 18:05:46
,wl-rdm,78,654797,0.0-6.70-0.70,0.0,79.0,,,,,,,[],,,,,,62.5,1.0,i,1.0,True,1183.9999999403954,71.0,59.0,40.0,False,,216.38396830604174,[],"[960, 540]",ColorTask,39.0,71.0,,,HRV,HRV_0046,2022-11-30 18:05:46
,wl-rdm,79,657048,0.0-6.71-0.71,0.0,80.0,,,,,,,[],,,,,,50.0,0.0,u,0.0,True,962.2999999523163,58.0,59.0,40.0,False,,221.48787965037116,[],"[960, 540]",ColorTask,40.0,72.0,,,HRV,HRV_0046,2022-11-30 18:05:46
,wl-rdm,80,659201,0.0-6.72-0.72,0.0,81.0,,,,,,,[],,,,,,87.9,1.0,i,1.0,True,762.4999999403954,46.0,59.0,40.0,False,,321.7473655391949,[],"[960, 540]",ColorTask,41.0,73.0,,,HRV,HRV_0046,2022-11-30 18:05:46
,wl-rdm,81,661320,0.0-6.73-0.73,0.0,82.0,,,,,,,[],,,,,,87.9,0.0,u,0.0,True,796.9000000357628,48.0,59.0,40.0,False,,260.24183889188333,[],"[960, 540]",ColorTask,42.0,74.0,,,HRV,HRV_0046,2022-11-30 18:05:46
,wl-rdm,82,663188,0.0-6.74-0.74,0.0,83.0,,,,,,,[],,,,,,73.6,0.0,u,0.0,True,560.0,34.0,59.0,40.0,False,,224.79744240099828,[],"[960, 540]",ColorTask,43.0,75.0,,,HRV,HRV_0046,2022-11-30 18:05:46
,wl-rdm,83,665307,0.0-6.75-0.75,0.0,84.0,,,,,,,[],,,,,,56.4,0.0,u,0.0,True,728.1000000238419,44.0,59.0,40.0,False,,327.06009190735625,[],"[960, 540]",ColorTask,44.0,76.0,,,HRV,HRV_0046,2022-11-30 18:05:46
,wl-rdm,84,667459,0.0-6.76-0.76,0.0,85.0,,,,,,,[],,,,,,53.2,1.0,u,0.0,False,804.8000000119209,49.0,59.0,40.0,False,,267.752727199245,[],"[960, 540]",ColorTask,43.0,77.0,,,HRV,HRV_0046,2022-11-30 18:05:46
,wl-rdm,85,669545,0.0-6.77-0.77,0.0,86.0,,,,,,,[],,,,,,53.2,0.0,u,0.0,True,814.3999999761581,49.0,59.0,40.0,False,,201.81924791741818,[],"[960, 540]",ColorTask,44.0,78.0,,,HRV,HRV_0046,2022-11-30 18:05:46
,wl-rdm,86,671580,0.0-6.78-0.78,0.0,87.0,,,,,,,[],,,,,,62.5,0.0,u,0.0,True,754.1000000238419,46.0,59.0,40.0,False,,215.55638171439188,[],"[960, 540]",ColorTask,45.0,79.0,,,HRV,HRV_0046,2022-11-30 18:05:46
,wl-rdm,87,673582,0.0-6.79-0.79,0.0,88.0,,,,,,,[],,,,,,62.5,1.0,i,1.0,True,686.9000000357628,42.0,59.0,40.0,False,,219.34572559985438,[],"[960, 540]",ColorTask,46.0,80.0,,,HRV,HRV_0046,2022-11-30 18:05:46
,wl-rdm,88,675784,0.0-6.80-0.80,0.0,89.0,,,,,,,[],,,,,,53.2,1.0,u,0.0,False,782.3000000119209,47.0,59.0,40.0,False,,361.5093478588372,[],"[960, 540]",ColorTask,45.0,81.0,,,HRV,HRV_0046,2022-11-30 18:05:46
,wl-rdm,89,677903,0.0-6.81-0.81,0.0,90.0,,,,,,,[],,,,,,56.4,1.0,u,0.0,False,725.7999999523163,44.0,59.0,40.0,False,,308.76696846944645,[],"[960, 540]",ColorTask,44.0,82.0,,,HRV,HRV_0046,2022-11-30 18:05:46
,wl-rdm,90,679838,0.0-6.82-0.82,0.0,91.0,,,,,,,[],,,,,,62.5,0.0,u,0.0,True,642.6999999880791,39.0,59.0,40.0,False,,227.26979784352199,[],"[960, 540]",ColorTask,45.0,83.0,,,HRV,HRV_0046,2022-11-30 18:05:46
,wl-rdm,91,681823,0.0-6.83-0.83,0.0,92.0,,,,,,,[],,,,,,87.9,0.0,u,0.0,True,574.9000000357628,35.0,59.0,40.0,False,,338.2173196545844,[],"[960, 540]",ColorTask,46.0,84.0,,,HRV,HRV_0046,2022-11-30 18:05:46
,wl-rdm,92,683892,0.0-6.84-0.84,0.0,93.0,,,,,,,[],,,,,,73.6,1.0,i,1.0,True,628.8000000119209,38.0,59.0,40.0,False,,377.2709439875695,[],"[960, 540]",ColorTask,47.0,85.0,,,HRV,HRV_0046,2022-11-30 18:05:46
,wl-rdm,93,686161,0.0-6.85-0.85,0.0,94.0,,,,,,,[],,,,,,87.9,1.0,i,1.0,True,958.5,58.0,59.0,40.0,False,,216.31263655869904,[],"[960, 540]",ColorTask,48.0,86.0,,,HRV,HRV_0046,2022-11-30 18:05:46
,wl-rdm,94,688213,0.0-6.86-0.86,0.0,95.0,,,,,,,[],,,,,,56.4,0.0,u,0.0,True,704.0,43.0,59.0,40.0,False,,267.91544640679615,[],"[960, 540]",ColorTask,49.0,87.0,,,HRV,HRV_0046,2022-11-30 18:05:46
,wl-rdm,95,690565,0.0-6.87-0.87,0.0,96.0,,,,,,,[],,,,,,62.5,1.0,u,0.0,False,961.8999999761581,58.0,59.0,40.0,False,,330.75870673262324,[],"[960, 540]",ColorTask,48.0,88.0,,,HRV,HRV_0046,2022-11-30 18:05:46
,wl-rdm,96,692433,0.0-6.88-0.88,0.0,97.0,,,,,,,[],,,,,,50.0,1.0,u,0.0,False,557.5,34.0,59.0,40.0,False,,237.6389873227411,[],"[960, 540]",ColorTask,47.0,89.0,,,HRV,HRV_0046,2022-11-30 18:05:46
,wl-rdm,97,694386,0.0-6.89-0.89,0.0,98.0,,,,,,,[],,,,,,56.4,0.0,u,0.0,True,632.3999999761581,38.0,59.0,40.0,False,,261.9268357943195,[],"[960, 540]",ColorTask,48.0,90.0,,,HRV,HRV_0046,2022-11-30 18:05:46
,wl-rdm,98,696287,0.0-6.90-0.90,0.0,99.0,,,,,,,[],,,,,,53.2,1.0,u,0.0,False,603.6999999880791,37.0,59.0,40.0,False,,231.9253582944721,[],"[960, 540]",ColorTask,47.0,91.0,,,HRV,HRV_0046,2022-11-30 18:05:46
,wl-rdm,99,698106,0.0-6.91-0.91,0.0,100.0,,,,,,,[],,,,,,73.6,1.0,i,1.0,True,557.6999999880791,34.0,59.0,40.0,False,,214.62479555233077,[],"[960, 540]",ColorTask,48.0,92.0,,,HRV,HRV_0046,2022-11-30 18:05:46
,wl-rdm,100,700275,0.0-6.92-0.92,0.0,101.0,,,,,,,[],,,,,,62.5,0.0,u,0.0,True,841.2000000476837,51.0,59.0,40.0,False,,256.5166884080077,[],"[960, 540]",ColorTask,49.0,93.0,,,HRV,HRV_0046,2022-11-30 18:05:46
,wl-rdm,101,702360,0.0-6.93-0.93,0.0,102.0,,,,,,,[],,,,,,73.6,1.0,i,1.0,True,737.3999999761581,45.0,59.0,40.0,False,,270.0029013090901,[],"[960, 540]",ColorTask,50.0,94.0,,,HRV,HRV_0046,2022-11-30 18:05:46
,wl-rdm,102,704446,0.0-6.94-0.94,0.0,103.0,,,,,,,[],,,,,,53.2,0.0,u,0.0,True,621.6000000238419,38.0,59.0,40.0,False,,384.26211401961103,[],"[960, 540]",ColorTask,51.0,95.0,,,HRV,HRV_0046,2022-11-30 18:05:46
,wl-rdm,103,706514,0.0-6.95-0.95,0.0,104.0,,,,,,,[],,,,,,73.6,0.0,u,0.0,True,699.2999999523163,42.0,59.0,40.0,False,,308.0562326306379,[],"[960, 540]",ColorTask,52.0,96.0,,,HRV,HRV_0046,2022-11-30 18:05:46
,wl-rdm,104,708967,0.0-6.96-0.96,0.0,105.0,,,,,,,[],,,,,,87.9,1.0,i,1.0,True,1161.8999999761581,70.0,59.0,40.0,False,,246.5575830867841,[],"[960, 540]",ColorTask,53.0,97.0,,,HRV,HRV_0046,2022-11-30 18:05:46
,wl-rdm,105,711219,0.0-6.97-0.97,0.0,106.0,,,,,,,[],,,,,,50.0,0.0,i,1.0,False,937.0999999642372,57.0,59.0,40.0,False,,225.2296988598441,[],"[960, 540]",ColorTask,52.0,98.0,,,HRV,HRV_0046,2022-11-30 18:05:46
,wl-rdm,106,713171,0.0-6.98-0.98,0.0,107.0,,,,,,,[],,,,,,62.5,1.0,i,1.0,True,566.3999999761581,34.0,59.0,40.0,False,,332.53904118633136,[],"[960, 540]",ColorTask,53.0,99.0,,,HRV,HRV_0046,2022-11-30 18:05:46
,wl-rdm,107,715373,0.0-6.99-0.99,0.0,108.0,,,,,,,[],,,,,,87.9,0.0,u,0.0,True,740.0,45.0,59.0,40.0,False,,395.99532035978325,[],"[960, 540]",ColorTask,54.0,100.0,,,HRV,HRV_0046,2022-11-30 18:05:46
,wl-rdm,108,717892,0.0-6.100-0.100,0.0,109.0,,,,,,,[],,,,,,53.2,1.0,u,0.0,False,1108.1000000238419,67.0,59.0,40.0,False,,347.9299731403015,[],"[960, 540]",ColorTask,53.0,101.0,,,HRV,HRV_0046,2022-11-30 18:05:46
,wl-rdm,109,719877,0.0-6.101-0.101,0.0,110.0,,,,,,,[],,,,,,73.6,0.0,u,0.0,True,640.3000000119209,39.0,59.0,40.0,False,,254.59424565287762,[],"[960, 540]",ColorTask,54.0,102.0,,,HRV,HRV_0046,2022-11-30 18:05:46
,wl-rdm,110,721863,0.0-6.102-0.102,0.0,111.0,,,,,,,[],,,,,,87.9,1.0,i,1.0,True,622.9000000357628,38.0,59.0,40.0,False,,307.5261156920092,[],"[960, 540]",ColorTask,55.0,103.0,,,HRV,HRV_0046,2022-11-30 18:05:46
,wl-rdm,111,724132,0.0-6.103-0.103,0.0,112.0,,,,,,,[],,,,,,50.0,1.0,i,1.0,True,925.6999999880791,56.0,59.0,40.0,False,,266.92958964337373,[],"[960, 540]",ColorTask,56.0,104.0,,,HRV,HRV_0046,2022-11-30 18:05:46
,wl-rdm,112,726351,0.0-6.104-0.104,0.0,113.0,,,,,,,[],,,,,,62.5,1.0,i,1.0,True,797.8999999761581,48.0,59.0,40.0,False,,362.81627324361966,[],"[960, 540]",ColorTask,57.0,105.0,,,HRV,HRV_0046,2022-11-30 18:05:46
,wl-rdm,113,728636,0.0-6.105-0.105,0.0,114.0,,,,,,,[],,,,,,50.0,0.0,u,0.0,True,969.3000000119209,59.0,59.0,40.0,False,,237.94915940125856,[],"[960, 540]",ColorTask,58.0,106.0,,,HRV,HRV_0046,2022-11-30 18:05:46
,wl-rdm,114,730938,0.0-6.106-0.106,0.0,115.0,,,,,,,[],,,,,,53.2,0.0,u,0.0,True,911.5,55.0,59.0,40.0,False,,309.3501035256859,[],"[960, 540]",ColorTask,59.0,107.0,,,HRV,HRV_0046,2022-11-30 18:05:46
,wl-rdm,115,732940,0.0-6.107-0.107,0.0,116.0,,,,,,,[],,,,,,87.9,1.0,i,1.0,True,733.8000000119209,44.0,59.0,40.0,False,,215.5047105482714,[],"[960, 540]",ColorTask,60.0,108.0,,,HRV,HRV_0046,2022-11-30 18:05:46
,wl-html-keyboard-response,116,900520,0.0-7.0-0.0,1.0,117.0,,,,,,,,165571.19999998808,1.0,0,,,,,,,,,,,,,,,,,,,,,,HRV,HRV_0046,2022-11-30 18:05:46
,wl-rdm,117,903008,0.0-8.0-0.0,1.0,118.0,,,,,,,[],,,,,,53.2,0.0,i,1.0,False,1190.699999988079,72.0,59.0,40.0,False,,240.13824620066072,[],"[960, 540]",ColorTask,59.0,1.0,,,HRV,HRV_0046,2022-11-30 18:05:46
,wl-rdm,118,904977,0.0-8.1-0.1,1.0,119.0,,,,,,,[],,,,,,50.0,1.0,i,1.0,True,564.5,34.0,59.0,40.0,False,,342.35129014004633,[],"[960, 540]",ColorTask,60.0,2.0,,,HRV,HRV_0046,2022-11-30 18:05:46
,wl-rdm,119,907012,0.0-8.2-0.2,1.0,120.0,,,,,,,[],,,,,,56.4,0.0,i,1.0,False,721.3000000119209,44.0,59.0,40.0,False,,239.16078425519663,[],"[960, 540]",ColorTask,59.0,3.0,,,HRV,HRV_0046,2022-11-30 18:05:46
,wl-rdm,120,909098,0.0-8.3-0.3,1.0,121.0,,,,,,,[],,,,,,56.4,1.0,u,0.0,False,781.5,47.0,59.0,40.0,False,,244.9885955769993,[],"[960, 540]",ColorTask,58.0,4.0,,,HRV,HRV_0046,2022-11-30 18:05:46
,wl-rdm,121,911200,0.0-8.4-0.4,1.0,122.0,,,,,,,[],,,,,,50.0,1.0,i,1.0,True,703.9000000357628,43.0,59.0,40.0,False,,328.2488191334962,[],"[960, 540]",ColorTask,59.0,5.0,,,HRV,HRV_0046,2022-11-30 18:05:46
,wl-rdm,122,913536,0.0-8.5-0.5,1.0,123.0,,,,,,,[],,,,,,53.2,0.0,u,0.0,True,904.5,55.0,59.0,40.0,False,,349.36684557248066,[],"[960, 540]",ColorTask,60.0,6.0,,,HRV,HRV_0046,2022-11-30 18:05:46
,wl-rdm,123,915471,0.0-8.6-0.6,1.0,124.0,,,,,,,[],,,,,,50.0,0.0,u,0.0,True,610.0,37.0,59.0,40.0,False,,255.52576660603714,[],"[960, 540]",ColorTask,61.0,7.0,,,HRV,HRV_0046,2022-11-30 18:05:46
,wl-rdm,124,917439,0.0-8.7-0.7,1.0,125.0,,,,,,,[],,,,,,50.0,1.0,u,0.0,False,594.1000000238419,36.0,59.0,40.0,False,,298.8865068720148,[],"[960, 540]",ColorTask,60.0,8.0,,,HRV,HRV_0046,2022-11-30 18:05:46
,wl-rdm,125,919391,0.0-8.8-0.8,1.0,126.0,,,,,,,[],,,,,,73.6,1.0,i,1.0,True,637.0999999642372,39.0,59.0,40.0,False,,234.3073258885373,[],"[960, 540]",ColorTask,61.0,9.0,,,HRV,HRV_0046,2022-11-30 18:05:46
,wl-rdm,126,921543,0.0-8.9-0.9,1.0,127.0,,,,,,,[],,,,,,50.0,0.0,i,1.0,False,720.9000000357628,44.0,59.0,40.0,False,,353.3453509837203,[],"[960, 540]",ColorTask,60.0,10.0,,,HRV,HRV_0046,2022-11-30 18:05:46
,wl-rdm,127,923629,0.0-8.10-0.10,1.0,128.0,,,,,,,[],,,,,,50.0,1.0,u,0.0,False,812.6999999880791,49.0,59.0,40.0,False,,210.2993782652522,[],"[960, 540]",ColorTask,59.0,11.0,,,HRV,HRV_0046,2022-11-30 18:05:46
,wl-rdm,128,925531,0.0-8.11-0.11,1.0,129.0,,,,,,,[],,,,,,56.4,1.0,i,1.0,True,598.6999999880791,36.0,59.0,40.0,False,,240.357335050789,[],"[960, 540]",ColorTask,60.0,12.0,,,HRV,HRV_0046,2022-11-30 18:05:46
,wl-rdm,129,927466,0.0-8.12-0.12,1.0,130.0,,,,,,,[],,,,,,73.6,1.0,i,1.0,True,616.5,37.0,59.0,40.0,False,,254.70053137585563,[],"[960, 540]",ColorTask,61.0,13.0,,,HRV,HRV_0046,2022-11-30 18:05:46
,wl-rdm,130,929835,0.0-8.13-0.13,1.0,131.0,,,,,,,[],,,,,,62.5,0.0,u,0.0,True,924.2000000476837,56.0,59.0,40.0,False,,370.4560531741605,[],"[960, 540]",ColorTask,62.0,14.0,,,HRV,HRV_0046,2022-11-30 18:05:46
,wl-rdm,131,932521,0.0-8.14-0.14,1.0,132.0,,,,,,,[],,,,,,56.4,0.0,u,0.0,True,1287.9000000357628,78.0,59.0,40.0,False,,332.83855183040953,[],"[960, 540]",ColorTask,63.0,15.0,,,HRV,HRV_0046,2022-11-30 18:05:46
,wl-rdm,132,934973,0.0-8.15-0.15,1.0,133.0,,,,,,,[],,,,,,50.0,1.0,u,0.0,False,1030.699999988079,62.0,59.0,40.0,False,,359.15332279956306,[],"[960, 540]",ColorTask,62.0,16.0,,,HRV,HRV_0046,2022-11-30 18:05:46
,wl-rdm,133,937392,0.0-8.16-0.16,1.0,134.0,,,,,,,[],,,,,,62.5,0.0,u,0.0,True,1111.7999999523163,67.0,59.0,40.0,False,,244.61728098721522,[],"[960, 540]",ColorTask,63.0,17.0,,,HRV,HRV_0046,2022-11-30 18:05:46
,wl-rdm,134,939595,0.0-8.17-0.17,1.0,135.0,,,,,,,[],,,,,,62.5,1.0,i,1.0,True,784.1999999880791,47.0,59.0,40.0,False,,359.25957130250197,[],"[960, 540]",ColorTask,64.0,18.0,,,HRV,HRV_0046,2022-11-30 18:05:46
,wl-rdm,135,942029,0.0-8.18-0.18,1.0,136.0,,,,,,,[],,,,,,87.9,1.0,i,1.0,True,972.5,59.0,59.0,40.0,False,,393.5168297847111,[],"[960, 540]",ColorTask,65.0,19.0,,,HRV,HRV_0046,2022-11-30 18:05:46
,wl-rdm,136,944416,0.0-8.19-0.19,1.0,137.0,,,,,,,[],,,,,,56.4,0.0,u,0.0,True,971.5,59.0,59.0,40.0,False,,343.2324531374019,[],"[960, 540]",ColorTask,66.0,20.0,,,HRV,HRV_0046,2022-11-30 18:05:46
,wl-rdm,137,946485,0.0-8.20-0.20,1.0,138.0,,,,,,,[],,,,,,73.6,0.0,u,0.0,True,631.9999999403954,38.0,59.0,40.0,False,,382.51701833711786,[],"[960, 540]",ColorTask,67.0,21.0,,,HRV,HRV_0046,2022-11-30 18:05:46
,wl-rdm,138,948520,0.0-8.21-0.21,1.0,139.0,,,,,,,[],,,,,,73.6,0.0,u,0.0,True,605.6000000238419,37.0,59.0,40.0,False,,345.1853815566235,[],"[960, 540]",ColorTask,68.0,22.0,,,HRV,HRV_0046,2022-11-30 18:05:46
,wl-rdm,139,950338,0.0-8.22-0.22,1.0,140.0,,,,,,,[],,,,,,56.4,0.0,u,0.0,True,510.5,31.0,59.0,40.0,False,,233.53150998910132,[],"[960, 540]",ColorTask,69.0,23.0,,,HRV,HRV_0046,2022-11-30 18:05:46
,wl-rdm,140,952240,0.0-8.23-0.23,1.0,141.0,,,,,,,[],,,,,,87.9,0.0,u,0.0,True,488.10000002384186,30.0,59.0,40.0,False,,340.83374842555315,[],"[960, 540]",ColorTask,70.0,24.0,,,HRV,HRV_0046,2022-11-30 18:05:46
,wl-rdm,141,954159,0.0-8.24-0.24,1.0,142.0,,,,,,,[],,,,,,53.2,1.0,u,0.0,False,489.69999998807907,30.0,59.0,40.0,False,,358.9013157834128,[],"[960, 540]",ColorTask,69.0,25.0,,,HRV,HRV_0046,2022-11-30 18:05:46
,wl-rdm,142,955961,0.0-8.25-0.25,1.0,143.0,,,,,,,[],,,,,,87.9,0.0,u,0.0,True,488.5999999642372,30.0,59.0,40.0,False,,226.28546157927033,[],"[960, 540]",ColorTask,70.0,26.0,,,HRV,HRV_0046,2022-11-30 18:05:46
,wl-rdm,143,957896,0.0-8.26-0.26,1.0,144.0,,,,,,,[],,,,,,56.4,0.0,u,0.0,True,596.5,36.0,59.0,40.0,False,,274.51120894960263,[],"[960, 540]",ColorTask,71.0,27.0,,,HRV,HRV_0046,2022-11-30 18:05:46
,wl-rdm,144,960082,0.0-8.27-0.27,1.0,145.0,,,,,,,[],,,,,,62.5,0.0,i,1.0,False,854.2999999523163,52.0,59.0,40.0,False,,259.4214171954764,[],"[960, 540]",ColorTask,70.0,28.0,,,HRV,HRV_0046,2022-11-30 18:05:46
,wl-rdm,145,962033,0.0-8.28-0.28,1.0,146.0,,,,,,,[],,,,,,87.9,0.0,u,0.0,True,671.8999999761581,41.0,59.0,40.0,False,,211.2883515484405,[],"[960, 540]",ColorTask,71.0,29.0,,,HRV,HRV_0046,2022-11-30 18:05:46
,wl-rdm,146,964102,0.0-8.29-0.29,1.0,147.0,,,,,,,[],,,,,,73.6,1.0,i,1.0,True,724.8999999761581,44.0,59.0,40.0,False,,271.18042758533943,[],"[960, 540]",ColorTask,72.0,30.0,,,HRV,HRV_0046,2022-11-30 18:05:46
,wl-rdm,147,966354,0.0-8.30-0.30,1.0,148.0,,,,,,,[],,,,,,73.6,0.0,u,0.0,True,921.3999999761581,56.0,59.0,40.0,False,,264.31998131127807,[],"[960, 540]",ColorTask,73.0,31.0,,,HRV,HRV_0046,2022-11-30 18:05:46
,wl-rdm,148,968523,0.0-8.31-0.31,1.0,149.0,,,,,,,[],,,,,,62.5,0.0,i,1.0,False,895.1999999880791,54.0,59.0,40.0,False,,204.5795334001227,[],"[960, 540]",ColorTask,72.0,32.0,,,HRV,HRV_0046,2022-11-30 18:05:46
,wl-rdm,149,970475,0.0-8.32-0.32,1.0,150.0,,,,,,,[],,,,,,87.9,0.0,u,0.0,True,578.5,35.0,59.0,40.0,False,,311.0265636310078,[],"[960, 540]",ColorTask,73.0,33.0,,,HRV,HRV_0046,2022-11-30 18:05:46
,wl-rdm,150,972460,0.0-8.33-0.33,1.0,151.0,,,,,,,[],,,,,,56.4,1.0,i,1.0,True,643.8999999761581,39.0,59.0,40.0,False,,279.8189009427069,[],"[960, 540]",ColorTask,74.0,34.0,,,HRV,HRV_0046,2022-11-30 18:05:46
,wl-rdm,151,974612,0.0-8.34-0.34,1.0,152.0,,,,,,,[],,,,,,53.2,1.0,u,0.0,False,828.6000000238419,50.0,59.0,40.0,False,,234.96757823231374,[],"[960, 540]",ColorTask,73.0,35.0,,,HRV,HRV_0046,2022-11-30 18:05:46
,wl-rdm,152,977048,0.0-8.35-0.35,1.0,153.0,,,,,,,[],,,,,,73.6,1.0,i,1.0,True,1142.0,69.0,59.0,40.0,False,,211.0428777338123,[],"[960, 540]",ColorTask,74.0,36.0,,,HRV,HRV_0046,2022-11-30 18:05:46
,wl-rdm,153,979334,0.0-8.36-0.36,1.0,154.0,,,,,,,[],,,,,,56.4,0.0,u,0.0,True,903.7999999523163,55.0,59.0,40.0,False,,300.9237945160208,[],"[960, 540]",ColorTask,75.0,37.0,,,HRV,HRV_0046,2022-11-30 18:05:46
,wl-rdm,154,981570,0.0-8.37-0.37,1.0,155.0,,,,,,,[],,,,,,50.0,0.0,i,1.0,False,964.6999999880791,58.0,59.0,40.0,False,,201.06002897342927,[],"[960, 540]",ColorTask,74.0,38.0,,,HRV,HRV_0046,2022-11-30 18:05:46
,wl-rdm,155,983554,0.0-8.38-0.38,1.0,156.0,,,,,,,[],,,,,,62.5,0.0,u,0.0,True,629.6999999880791,38.0,59.0,40.0,False,,299.3463967846428,[],"[960, 540]",ColorTask,75.0,39.0,,,HRV,HRV_0046,2022-11-30 18:05:46
,wl-rdm,156,985773,0.0-8.39-0.39,1.0,157.0,,,,,,,[],,,,,,62.5,1.0,i,1.0,True,777.9000000357628,47.0,59.0,40.0,False,,382.5136081700674,[],"[960, 540]",ColorTask,76.0,40.0,,,HRV,HRV_0046,2022-11-30 18:05:46
,wl-rdm,157,988093,0.0-8.40-0.40,1.0,158.0,,,,,,,[],,,,,,56.4,1.0,u,0.0,False,1012.7999999523163,61.0,59.0,40.0,False,,237.03831300831476,[],"[960, 540]",ColorTask,75.0,41.0,,,HRV,HRV_0046,2022-11-30 18:05:46
,wl-rdm,158,990295,0.0-8.41-0.41,1.0,159.0,,,,,,,[],,,,,,53.2,1.0,i,1.0,True,860.1000000238419,52.0,59.0,40.0,False,,268.2118647212519,[],"[960, 540]",ColorTask,76.0,42.0,,,HRV,HRV_0046,2022-11-30 18:05:46
,wl-rdm,159,992464,0.0-8.42-0.42,1.0,160.0,,,,,,,[],,,,,,53.2,0.0,i,1.0,False,721.4000000357628,44.0,59.0,40.0,False,,363.68022290130375,[],"[960, 540]",ColorTask,75.0,43.0,,,HRV,HRV_0046,2022-11-30 18:05:46
,wl-rdm,160,994399,0.0-8.43-0.43,1.0,161.0,,,,,,,[],,,,,,53.2,1.0,u,0.0,False,620.8999999761581,38.0,59.0,40.0,False,,238.6582602504763,[],"[960, 540]",ColorTask,74.0,44.0,,,HRV,HRV_0046,2022-11-30 18:05:46
,wl-rdm,161,996601,0.0-8.44-0.44,1.0,162.0,,,,,,,[],,,,,,62.5,0.0,u,0.0,True,843.3000000119209,51.0,59.0,40.0,False,,282.775978600902,[],"[960, 540]",ColorTask,75.0,45.0,,,HRV,HRV_0046,2022-11-30 18:05:46
,wl-rdm,162,998903,0.0-8.45-0.45,1.0,163.0,,,,,,,[],,,,,,56.4,1.0,u,0.0,False,944.8000000119209,57.0,59.0,40.0,False,,292.56904712009543,[],"[960, 540]",ColorTask,74.0,46.0,,,HRV,HRV_0046,2022-11-30 18:05:46
,wl-rdm,163,1000939,0.0-8.46-0.46,1.0,164.0,,,,,,,[],,,,,,62.5,0.0,u,0.0,True,673.8000000119209,41.0,59.0,40.0,False,,293.18040167692743,[],"[960, 540]",ColorTask,75.0,47.0,,,HRV,HRV_0046,2022-11-30 18:05:46
,wl-rdm,164,1002757,0.0-8.47-0.47,1.0,165.0,,,,,,,[],,,,,,73.6,0.0,u,0.0,True,546.0,33.0,59.0,40.0,False,,215.16044912601586,[],"[960, 540]",ColorTask,76.0,48.0,,,HRV,HRV_0046,2022-11-30 18:05:46
,wl-rdm,165,1004976,0.0-8.48-0.48,1.0,166.0,,,,,,,[],,,,,,62.5,1.0,u,0.0,False,887.0,54.0,59.0,40.0,False,,252.42340830556464,[],"[960, 540]",ColorTask,75.0,49.0,,,HRV,HRV_0046,2022-11-30 18:05:46
,wl-rdm,166,1007078,0.0-8.49-0.49,1.0,167.0,,,,,,,[],,,,,,87.9,1.0,i,1.0,True,679.6000000238419,41.0,59.0,40.0,False,,359.6193156682889,[],"[960, 540]",ColorTask,76.0,50.0,,,HRV,HRV_0046,2022-11-30 18:05:46
,wl-rdm,167,1009014,0.0-8.50-0.50,1.0,168.0,,,,,,,[],,,,,,50.0,1.0,u,0.0,False,647.8000000119209,39.0,59.0,40.0,False,,222.28517220396057,[],"[960, 540]",ColorTask,75.0,51.0,,,HRV,HRV_0046,2022-11-30 18:05:46
,wl-rdm,168,1011182,0.0-8.51-0.51,1.0,169.0,,,,,,,[],,,,,,73.6,0.0,u,0.0,True,797.0999999642372,48.0,59.0,40.0,False,,302.6813755437079,[],"[960, 540]",ColorTask,76.0,52.0,,,HRV,HRV_0046,2022-11-30 18:05:46
,wl-rdm,169,1013267,0.0-8.52-0.52,1.0,170.0,,,,,,,[],,,,,,53.2,0.0,i,1.0,False,741.1000000238419,45.0,59.0,40.0,False,,274.8333267789244,[],"[960, 540]",ColorTask,75.0,53.0,,,HRV,HRV_0046,2022-11-30 18:05:46
,wl-rdm,170,1015402,0.0-8.53-0.53,1.0,171.0,,,,,,,[],,,,,,87.9,1.0,i,1.0,True,687.4000000357628,42.0,59.0,40.0,False,,367.31901905971813,[],"[960, 540]",ColorTask,76.0,54.0,,,HRV,HRV_0046,2022-11-30 18:05:46
,wl-rdm,171,1017789,0.0-8.54-0.54,1.0,172.0,,,,,,,[],,,,,,53.2,0.0,u,0.0,True,1115.699999988079,67.0,59.0,40.0,False,,202.62252845153202,[],"[960, 540]",ColorTask,77.0,55.0,,,HRV,HRV_0046,2022-11-30 18:05:46
,wl-rdm,172,1019841,0.0-8.55-0.55,1.0,173.0,,,,,,,[],,,,,,73.6,1.0,i,1.0,True,755.1000000238419,46.0,59.0,40.0,False,,201.74230433588053,[],"[960, 540]",ColorTask,78.0,56.0,,,HRV,HRV_0046,2022-11-30 18:05:46
,wl-rdm,173,1021843,0.0-8.56-0.56,1.0,174.0,,,,,,,[],,,,,,73.6,0.0,u,0.0,True,704.1000000238419,43.0,59.0,40.0,False,,230.2295093700491,[],"[960, 540]",ColorTask,79.0,57.0,,,HRV,HRV_0046,2022-11-30 18:05:46
,wl-rdm,174,1024045,0.0-8.57-0.57,1.0,175.0,,,,,,,[],,,,,,56.4,1.0,i,1.0,True,900.3000000119209,54.0,59.0,40.0,False,,223.05024342764088,[],"[960, 540]",ColorTask,80.0,58.0,,,HRV,HRV_0046,2022-11-30 18:05:46
,wl-rdm,175,1026164,0.0-8.58-0.58,1.0,176.0,,,,,,,[],,,,,,50.0,0.0,i,1.0,False,720.8999999761581,44.0,59.0,40.0,False,,333.26712484623647,[],"[960, 540]",ColorTask,79.0,59.0,,,HRV,HRV_0046,2022-11-30 18:05:46
,wl-rdm,176,1028366,0.0-8.59-0.59,1.0,177.0,,,,,,,[],,,,,,56.4,1.0,u,0.0,False,749.0999999642372,45.0,59.0,40.0,False,,388.8689080167135,[],"[960, 540]",ColorTask,78.0,60.0,,,HRV,HRV_0046,2022-11-30 18:05:46
,wl-rdm,177,1030317,0.0-8.60-0.60,1.0,178.0,,,,,,,[],,,,,,50.0,0.0,i,1.0,False,582.0,35.0,59.0,40.0,False,,305.55420492920734,[],"[960, 540]",ColorTask,77.0,61.0,,,HRV,HRV_0046,2022-11-30 18:05:46
,wl-rdm,178,1032853,0.0-8.61-0.61,1.0,179.0,,,,,,,[],,,,,,62.5,1.0,i,1.0,True,1192.3999999761581,72.0,59.0,40.0,False,,276.9687979763083,[],"[960, 540]",ColorTask,78.0,62.0,,,HRV,HRV_0046,2022-11-30 18:05:46
,wl-rdm,179,1034872,0.0-8.62-0.62,1.0,180.0,,,,,,,[],,,,,,73.6,0.0,u,0.0,True,656.0999999642372,40.0,59.0,40.0,False,,284.5773176218497,[],"[960, 540]",ColorTask,79.0,63.0,,,HRV,HRV_0046,2022-11-30 18:05:46
,wl-rdm,180,1037174,0.0-8.63-0.63,1.0,181.0,,,,,,,[],,,,,,53.2,1.0,u,0.0,False,899.1999999880791,54.0,59.0,40.0,False,,341.3617792998808,[],"[960, 540]",ColorTask,78.0,64.0,,,HRV,HRV_0046,2022-11-30 18:05:46
,wl-rdm,181,1039360,0.0-8.64-0.64,1.0,182.0,,,,,,,[],,,,,,87.9,0.0,u,0.0,True,890.6000000238419,54.0,59.0,40.0,False,,227.6528640230605,[],"[960, 540]",ColorTask,79.0,65.0,,,HRV,HRV_0046,2022-11-30 18:05:46
,wl-rdm,182,1041912,0.0-8.65-0.65,1.0,183.0,,,,,,,[],,,,,,56.4,0.0,i,1.0,False,1107.3999999761581,67.0,59.0,40.0,False,,370.057633480283,[],"[960, 540]",ColorTask,78.0,66.0,,,HRV,HRV_0046,2022-11-30 18:05:46
,wl-rdm,183,1043998,0.0-8.66-0.66,1.0,184.0,,,,,,,[],,,,,,56.4,1.0,u,0.0,False,809.6999999880791,49.0,59.0,40.0,False,,213.2132564879514,[],"[960, 540]",ColorTask,77.0,67.0,,,HRV,HRV_0046,2022-11-30 18:05:46
,wl-rdm,184,1045833,0.0-8.67-0.67,1.0,185.0,,,,,,,[],,,,,,87.9,0.0,u,0.0,True,490.19999998807907,30.0,59.0,40.0,False,,282.576694413422,[],"[960, 540]",ColorTask,78.0,68.0,,,HRV,HRV_0046,2022-11-30 18:05:46
,wl-rdm,185,1047885,0.0-8.68-0.68,1.0,186.0,,,,,,,[],,,,,,50.0,0.0,u,0.0,True,777.5999999642372,47.0,59.0,40.0,False,,205.88704410550253,[],"[960, 540]",ColorTask,79.0,69.0,,,HRV,HRV_0046,2022-11-30 18:05:46
,wl-rdm,186,1050020,0.0-8.69-0.69,1.0,187.0,,,,,,,[],,,,,,53.2,1.0,u,0.0,False,778.0,47.0,59.0,40.0,False,,287.8221676387523,[],"[960, 540]",ColorTask,78.0,70.0,,,HRV,HRV_0046,2022-11-30 18:05:46
,wl-rdm,187,1051823,0.0-8.70-0.70,1.0,188.0,,,,,,,[],,,,,,87.9,0.0,u,0.0,True,526.3000000119209,32.0,59.0,40.0,False,,203.92455089960507,[],"[960, 540]",ColorTask,79.0,71.0,,,HRV,HRV_0046,2022-11-30 18:05:46
,wl-rdm,188,1053841,0.0-8.71-0.71,1.0,189.0,,,,,,,[],,,,,,56.4,0.0,u,0.0,True,665.5,40.0,59.0,40.0,False,,299.56837309432973,[],"[960, 540]",ColorTask,80.0,72.0,,,HRV,HRV_0046,2022-11-30 18:05:46
,wl-rdm,189,1056360,0.0-8.72-0.72,1.0,190.0,,,,,,,[],,,,,,73.6,1.0,i,1.0,True,1158.9000000357628,70.0,59.0,40.0,False,,286.9714173965196,[],"[960, 540]",ColorTask,81.0,73.0,,,HRV,HRV_0046,2022-11-30 18:05:46
,wl-rdm,190,1059046,0.0-8.73-0.73,1.0,191.0,,,,,,,[],,,,,,87.9,1.0,i,1.0,True,1345.1000000238419,81.0,59.0,40.0,False,,271.0108503772314,[],"[960, 540]",ColorTask,82.0,74.0,,,HRV,HRV_0046,2022-11-30 18:05:46
,wl-rdm,191,1061032,0.0-8.74-0.74,1.0,192.0,,,,,,,[],,,,,,53.2,0.0,u,0.0,True,609.3999999761581,37.0,59.0,40.0,False,,300.34656103189053,[],"[960, 540]",ColorTask,83.0,75.0,,,HRV,HRV_0046,2022-11-30 18:05:46
,wl-rdm,192,1063134,0.0-8.75-0.75,1.0,193.0,,,,,,,[],,,,,,50.0,0.0,i,1.0,False,795.1999999880791,48.0,59.0,40.0,False,,241.2341960522706,[],"[960, 540]",ColorTask,82.0,76.0,,,HRV,HRV_0046,2022-11-30 18:05:46
,wl-rdm,193,1065219,0.0-8.76-0.76,1.0,194.0,,,,,,,[],,,,,,87.9,1.0,i,1.0,True,814.8000000119209,49.0,59.0,40.0,False,,212.79459422758097,[],"[960, 540]",ColorTask,83.0,77.0,,,HRV,HRV_0046,2022-11-30 18:05:46
,wl-rdm,194,1067304,0.0-8.77-0.77,1.0,195.0,,,,,,,[],,,,,,87.9,1.0,i,1.0,True,687.8000000119209,42.0,59.0,40.0,False,,304.39561136666464,[],"[960, 540]",ColorTask,84.0,78.0,,,HRV,HRV_0046,2022-11-30 18:05:46
,wl-rdm,195,1069390,0.0-8.78-0.78,1.0,196.0,,,,,,,[],,,,,,62.5,0.0,u,0.0,True,771.7999999523163,47.0,59.0,40.0,False,,238.8696592409368,[],"[960, 540]",ColorTask,85.0,79.0,,,HRV,HRV_0046,2022-11-30 18:05:46
,wl-rdm,196,1072192,0.0-8.79-0.79,1.0,197.0,,,,,,,[],,,,,,73.6,0.0,u,0.0,True,1405.0999999642372,85.0,59.0,40.0,False,,331.15623890009067,[],"[960, 540]",ColorTask,86.0,80.0,,,HRV,HRV_0046,2022-11-30 18:05:46
,wl-rdm,197,1074362,0.0-8.80-0.80,1.0,198.0,,,,,,,[],,,,,,62.5,0.0,u,0.0,True,759.3999999761581,46.0,59.0,40.0,False,,345.3722105983294,[],"[960, 540]",ColorTask,87.0,81.0,,,HRV,HRV_0046,2022-11-30 18:05:46
,wl-rdm,198,1076346,0.0-8.81-0.81,1.0,199.0,,,,,,,[],,,,,,73.6,1.0,i,1.0,True,675.0,41.0,59.0,40.0,False,,236.9398038718783,[],"[960, 540]",ColorTask,88.0,82.0,,,HRV,HRV_0046,2022-11-30 18:05:46
,wl-rdm,199,1078666,0.0-8.82-0.82,1.0,200.0,,,,,,,[],,,,,,50.0,0.0,i,1.0,False,959.3999999761581,58.0,59.0,40.0,False,,292.86742614696607,[],"[960, 540]",ColorTask,87.0,83.0,,,HRV,HRV_0046,2022-11-30 18:05:46
,wl-rdm,200,1080818,0.0-8.83-0.83,1.0,201.0,,,,,,,[],,,,,,56.4,1.0,i,1.0,True,872.1999999880791,53.0,59.0,40.0,False,,210.44680560846595,[],"[960, 540]",ColorTask,88.0,84.0,,,HRV,HRV_0046,2022-11-30 18:05:46
,wl-rdm,201,1082970,0.0-8.84-0.84,1.0,202.0,,,,,,,[],,,,,,87.9,0.0,u,0.0,True,859.8999999761581,52.0,59.0,40.0,False,,228.6686467739055,[],"[960, 540]",ColorTask,89.0,85.0,,,HRV,HRV_0046,2022-11-30 18:05:46
,wl-rdm,202,1085022,0.0-8.85-0.85,1.0,203.0,,,,,,,[],,,,,,62.5,1.0,i,1.0,True,663.1999999880791,40.0,59.0,40.0,False,,326.74299270539717,[],"[960, 540]",ColorTask,90.0,86.0,,,HRV,HRV_0046,2022-11-30 18:05:46
,wl-rdm,203,1087075,0.0-8.86-0.86,1.0,204.0,,,,,,,[],,,,,,62.5,1.0,i,1.0,True,704.5,43.0,59.0,40.0,False,,276.851613984177,[],"[960, 540]",ColorTask,91.0,87.0,,,HRV,HRV_0046,2022-11-30 18:05:46
,wl-rdm,204,1089259,0.0-8.87-0.87,1.0,205.0,,,,,,,[],,,,,,53.2,1.0,i,1.0,True,908.3999999761581,55.0,59.0,40.0,False,,216.3857765396716,[],"[960, 540]",ColorTask,92.0,88.0,,,HRV,HRV_0046,2022-11-30 18:05:46
,wl-rdm,205,1091162,0.0-8.88-0.88,1.0,206.0,,,,,,,[],,,,,,62.5,1.0,i,1.0,True,561.3999999761581,34.0,59.0,40.0,False,,266.8596444412465,[],"[960, 540]",ColorTask,93.0,89.0,,,HRV,HRV_0046,2022-11-30 18:05:46
,wl-rdm,206,1093264,0.0-8.89-0.89,1.0,207.0,,,,,,,[],,,,,,62.5,1.0,i,1.0,True,663.0,40.0,59.0,40.0,False,,380.04979868511583,[],"[960, 540]",ColorTask,94.0,90.0,,,HRV,HRV_0046,2022-11-30 18:05:46
,wl-rdm,207,1095866,0.0-8.90-0.90,1.0,208.0,,,,,,,[],,,,,,56.4,0.0,u,0.0,True,1287.8999999761581,78.0,59.0,40.0,False,,229.55677240288628,[],"[960, 540]",ColorTask,95.0,91.0,,,HRV,HRV_0046,2022-11-30 18:05:46
,wl-rdm,208,1097951,0.0-8.91-0.91,1.0,209.0,,,,,,,[],,,,,,73.6,0.0,u,0.0,True,705.3999999761581,43.0,59.0,40.0,False,,312.06572634122494,[],"[960, 540]",ColorTask,96.0,92.0,,,HRV,HRV_0046,2022-11-30 18:05:46
,wl-rdm,209,1099970,0.0-8.92-0.92,1.0,210.0,,,,,,,[],,,,,,87.9,1.0,i,1.0,True,654.7000000476837,40.0,59.0,40.0,False,,286.1492729177337,[],"[960, 540]",ColorTask,97.0,93.0,,,HRV,HRV_0046,2022-11-30 18:05:46
,wl-rdm,210,1102205,0.0-8.93-0.93,1.0,211.0,,,,,,,[],,,,,,73.6,1.0,i,1.0,True,924.8000000119209,56.0,59.0,40.0,False,,236.82895760650746,[],"[960, 540]",ColorTask,98.0,94.0,,,HRV,HRV_0046,2022-11-30 18:05:46
,wl-rdm,211,1104308,0.0-8.94-0.94,1.0,212.0,,,,,,,[],,,,,,87.9,0.0,u,0.0,True,755.0,46.0,59.0,40.0,False,,270.11907197958465,[],"[960, 540]",ColorTask,99.0,95.0,,,HRV,HRV_0046,2022-11-30 18:05:46
,wl-rdm,212,1106309,0.0-8.95-0.95,1.0,213.0,,,,,,,[],,,,,,53.2,0.0,i,1.0,False,587.8000000119209,36.0,59.0,40.0,False,,346.45577024041455,[],"[960, 540]",ColorTask,98.0,96.0,,,HRV,HRV_0046,2022-11-30 18:05:46
,wl-rdm,213,1108044,0.0-8.96-0.96,1.0,214.0,,,,,,,[],,,,,,53.2,1.0,i,1.0,True,420.10000002384186,26.0,59.0,40.0,False,,248.32981421280743,[],"[960, 540]",ColorTask,99.0,97.0,,,HRV,HRV_0046,2022-11-30 18:05:46
,wl-rdm,214,1110030,0.0-8.97-0.97,1.0,215.0,,,,,,,[],,,,,,53.2,0.0,i,1.0,False,616.8000000119209,37.0,59.0,40.0,False,,291.5166201233382,[],"[960, 540]",ColorTask,98.0,98.0,,,HRV,HRV_0046,2022-11-30 18:05:46
,wl-rdm,215,1111965,0.0-8.98-0.98,1.0,216.0,,,,,,,[],,,,,,50.0,1.0,i,1.0,True,500.89999997615814,30.0,59.0,40.0,False,,373.74712981034213,[],"[960, 540]",ColorTask,99.0,99.0,,,HRV,HRV_0046,2022-11-30 18:05:46
,wl-rdm,216,1114001,0.0-8.99-0.99,1.0,217.0,,,,,,,[],,,,,,50.0,1.0,i,1.0,True,639.3000000119209,39.0,59.0,40.0,False,,317.6264824590379,[],"[960, 540]",ColorTask,100.0,100.0,,,HRV,HRV_0046,2022-11-30 18:05:46
,wl-rdm,217,1115969,0.0-8.100-0.100,1.0,218.0,,,,,,,[],,,,,,73.6,1.0,i,1.0,True,696.6000000238419,42.0,59.0,40.0,False,,205.01407065637545,[],"[960, 540]",ColorTask,101.0,101.0,,,HRV,HRV_0046,2022-11-30 18:05:46
,wl-rdm,218,1118738,0.0-8.101-0.101,1.0,219.0,,,,,,,[],,,,,,50.0,1.0,u,0.0,False,1313.6000000238419,79.0,59.0,40.0,False,,386.660842311122,[],"[960, 540]",ColorTask,100.0,102.0,,,HRV,HRV_0046,2022-11-30 18:05:46
,wl-rdm,219,1120774,0.0-8.102-0.102,1.0,220.0,,,,,,,[],,,,,,50.0,0.0,u,0.0,True,704.1000000238419,43.0,59.0,40.0,False,,241.0315976176032,[],"[960, 540]",ColorTask,101.0,103.0,,,HRV,HRV_0046,2022-11-30 18:05:46
,wl-rdm,220,1122809,0.0-8.103-0.103,1.0,221.0,,,,,,,[],,,,,,87.9,1.0,i,1.0,True,689.3999999761581,42.0,59.0,40.0,False,,269.92642055779504,[],"[960, 540]",ColorTask,102.0,104.0,,,HRV,HRV_0046,2022-11-30 18:05:46
,wl-rdm,221,1124778,0.0-8.104-0.104,1.0,222.0,,,,,,,[],,,,,,53.2,0.0,u,0.0,True,664.2999999523163,40.0,59.0,40.0,False,,234.5831504810111,[],"[960, 540]",ColorTask,103.0,105.0,,,HRV,HRV_0046,2022-11-30 18:05:46
,wl-rdm,222,1126846,0.0-8.105-0.105,1.0,223.0,,,,,,,[],,,,,,62.5,1.0,i,1.0,True,676.1000000238419,41.0,59.0,40.0,False,,328.1798780357132,[],"[960, 540]",ColorTask,104.0,106.0,,,HRV,HRV_0046,2022-11-30 18:05:46
,wl-rdm,223,1129149,0.0-8.106-0.106,1.0,224.0,,,,,,,[],,,,,,53.2,1.0,i,1.0,True,838.0999999642372,51.0,59.0,40.0,False,,386.1917364624908,[],"[960, 540]",ColorTask,105.0,107.0,,,HRV,HRV_0046,2022-11-30 18:05:46
,wl-rdm,224,1130984,0.0-8.107-0.107,1.0,225.0,,,,,,,[],,,,,,87.9,1.0,i,1.0,True,566.7999999523163,34.0,59.0,40.0,False,,214.79717443116374,[],"[960, 540]",ColorTask,106.0,108.0,,,HRV,HRV_0046,2022-11-30 18:05:46
,wl-html-button-response,225,1134108,0.0-9.0-0.0,,,,,,,,,,3122.0,,0,,,,,,,,,,,,,,,,,,,,<h3>End of this session. Thank you!</h3><br>,['Close window'],HRV,HRV_0046,2022-11-30 18:05:46
