success,trial_type,trial_index,time_elapsed,internal_node_id,Block,TrialNumber,TrialTime,trialTimeDiff,FPS_avg,FPS_med,FPS_mode,TrialDur,winResizeTime,rt,block,button_pressed,MotCoh,MotDir,ColCoh,Color,ChoiceKey,Choice,Accuracy,RT,nFrames,FPS,PPD,missTrial,missTrialMsg,onsetDelay,fullScreenExitTime,canvCenter,TrialType,Score,BlockTrial,stimulus,button_labels,exp,subjectId,date
True,fullscreen,0,4084,0.0-0.0,0.0,1.0,,,,,,,,,,,,,,,,,,,,,,,,,,,,,,,,HRV,HRV_0068,2022-11-30 18:07:17
,wl-check-fps,1,9086,0.0-1.0,0.0,2.0,"[4645.3, 4656.8, 4674.7, 4691.6, 4707.9, 4724.4, 4741.2, 4757.5, 4774.2, 4791, 4807.7, 4824, 4841.1, 4857, 4873.7, 4890.7, 4908.2, 4924.9, 4941.5, 4957.4, 4974.8, 4991, 5007.4, 5024.4, 5041.6, 5057.5, 5074.3, 5091.4, 5107.7, 5124.1, 5140.6, 5157.1, 5173.8, 5190.1, 5208.2, 5224.5, 5241.1, 5257.5, 5274.6, 5290.6, 5307.7, 5324.2, 5340.4, 5357.4, 5374.9, 5390.8, 5408, 5424.1, 5440.9, 5458, 5474.2, 5490.1, 5508, 5524.1, 5540.3, 5556.8, 5574.2, 5590, 5607.8, 5624.5, 5640.3, 5657.5, 5674.6, 5690.8, 5707.4, 5725.1, 5741.5, 5757.5, 5774.8, 5790.3, 5807.7, 5824.8, 5840.9, 5858.2, 5873.9, 5890.5, 5907.7, 5927.7, 5940.8, 5957.8, 5974.5, 5991.4, 6008.4, 6024.4, 6040.7, 6057.6, 6073.9, 6090.4, 6107.3, 6123.7, 6141.1, 6158, 6174.3, 6190.7, 6207.6, 6224.9, 6240.2, 6257.5, 6274, 6291.2, 6307.4, 6325, 6341.2, 6358.4, 6374.9, 6391.3, 6408, 6424.1, 6441, 6458.4, 6474.8, 6490.8, 6507, 6523.7, 6540.4, 6558, 6574.4, 6591.6, 6608.2, 6624.3, 6640, 6657.8, 6674.1, 6691.4, 6708.2, 6723.9, 6741.5, 6757.4, 6773.7, 6791.4, 6807.9, 6824.3, 6841.8, 6858, 6873.7, 6891.2, 6907.6, 6925.1, 6941.4, 6957.7, 6974.9, 6991.5, 7007.7, 7024.9, 7041, 7057, 7074.6, 7091.2, 7108.3, 7124.5, 7140.8, 7157.6, 7174.2, 7190.7, 7207.6, 7224.9, 7241, 7258.1, 7274.3, 7291.1, 7308.3, 7324.4, 7341, 7358, 7374.1, 7390.9, 7408, 7423.6, 7441.1, 7456.6, 7474.8, 7491.5, 7507.1, 7524.1, 7540.2, 7557.6, 7575, 7591.1, 7608, 7624.9, 7640.3, 7657.2, 7674.4, 7692.2, 7707.7, 7723.5, 7741, 7757.9, 7774.7, 7791.5, 7808.6, 7824.8, 7840.5, 7857.6, 7874.8, 7890.8, 7907.8, 7924.9, 7940.7, 7957.4, 7974, 7991.2, 8007.1, 8024.2, 8041.4, 8057.7, 8074.4, 8091.2, 8108.4, 8123.7, 8141.6, 8157.4, 8174.4, 8191.4, 8207.7, 8225, 8240.8, 8256.9, 8274, 8291.1, 8308.4, 8323.7, 8341.7, 8357.8, 8375, 8391.7, 8408.2, 8424.2, 8440.4, 8458, 8474.5, 8491.3, 8507.5, 8525, 8541.2, 8557.1, 8573.9, 8591.6, 8608, 8625, 8641.3, 8657.7, 8673.7, 8691.1, 8708.7, 8725.3, 8741.4, 8757.1, 8774.6, 8791.3, 8808.2, 8824.3, 8840.4, 8857.1, 8873.9, 8890.8, 8907.5, 8924.9, 8941.1, 8957.4, 8974.5, 8991, 9007.5, 9023.8, 9040.8, 9058, 9073.3, 9090.5, 9107.8, 9124.9, 9140.4, 9157.9, 9174.2, 9191.4, 9207.8, 9223.7, 9241, 9256.8, 9274.1, 9291.3, 9308.5, 9324.1, 9341, 9357.1, 9374.5, 9390.3, 9408.1, 9425, 9440.4, 9457.8, 9473.3, 9490.8, 9507.6, 9523.9, 9541.3, 9557.3, 9574.1, 9591.2, 9607.2, 9624]","[2.2, 11.5, 17.9, 16.9, 16.3, 16.5, 16.8, 16.3, 16.7, 16.8, 16.7, 16.3, 17.1, 15.9, 16.7, 17, 17.5, 16.7, 16.6, 15.9, 17.4, 16.2, 16.4, 17, 17.2, 15.9, 16.8, 17.1, 16.3, 16.4, 16.5, 16.5, 16.7, 16.3, 18.1, 16.3, 16.6, 16.4, 17.1, 16, 17.1, 16.5, 16.2, 17, 17.5, 15.9, 17.2, 16.1, 16.8, 17.1, 16.2, 15.9, 17.9, 16.1, 16.2, 16.5, 17.4, 15.8, 17.8, 16.7, 15.8, 17.2, 17.1, 16.2, 16.6, 17.7, 16.4, 16, 17.3, 15.5, 17.4, 17.1, 16.1, 17.3, 15.7, 16.6, 17.2, 20, 13.1, 17, 16.7, 16.9, 17, 16, 16.3, 16.9, 16.3, 16.5, 16.9, 16.4, 17.4, 16.9, 16.3, 16.4, 16.9, 17.3, 15.3, 17.3, 16.5, 17.2, 16.2, 17.6, 16.2, 17.2, 16.5, 16.4, 16.7, 16.1, 16.9, 17.4, 16.4, 16, 16.2, 16.7, 16.7, 17.6, 16.4, 17.2, 16.6, 16.1, 15.7, 17.8, 16.3, 17.3, 16.8, 15.7, 17.6, 15.9, 16.3, 17.7, 16.5, 16.4, 17.5, 16.2, 15.7, 17.5, 16.4, 17.5, 16.3, 16.3, 17.2, 16.6, 16.2, 17.2, 16.1, 16, 17.6, 16.6, 17.1, 16.2, 16.3, 16.8, 16.6, 16.5, 16.9, 17.3, 16.1, 17.1, 16.2, 16.8, 17.2, 16.1, 16.6, 17, 16.1, 16.8, 17.1, 15.6, 17.5, 15.5, 18.2, 16.7, 15.6, 17, 16.1, 17.4, 17.4, 16.1, 16.9, 16.9, 15.4, 16.9, 17.2, 17.8, 15.5, 15.8, 17.5, 16.9, 16.8, 16.8, 17.1, 16.2, 15.7, 17.1, 17.2, 16, 17, 17.1, 15.8, 16.7, 16.6, 17.2, 15.9, 17.1, 17.2, 16.3, 16.7, 16.8, 17.2, 15.3, 17.9, 15.8, 17, 17, 16.3, 17.3, 15.8, 16.1, 17.1, 17.1, 17.3, 15.3, 18, 16.1, 17.2, 16.7, 16.5, 16, 16.2, 17.6, 16.5, 16.8, 16.2, 17.5, 16.2, 15.9, 16.8, 17.7, 16.4, 17, 16.3, 16.4, 16, 17.4, 17.6, 16.6, 16.1, 15.7, 17.5, 16.7, 16.9, 16.1, 16.1, 16.7, 16.8, 16.9, 16.7, 17.4, 16.2, 16.3, 17.1, 16.5, 16.5, 16.3, 17, 17.2, 15.3, 17.2, 17.3, 17.1, 15.5, 17.5, 16.3, 17.2, 16.4, 15.9, 17.3, 15.8, 17.3, 17.2, 17.2, 15.6, 16.9, 16.1, 17.4, 15.8, 17.8, 16.9, 15.4, 17.4, 15.5, 17.5, 16.8, 16.3, 17.4, 16, 16.8, 17.1, 16, 16.8]",60.0,62.0,60.0,4997.9,[],,,,,,,,,,,,,,,,,,,,,,,,,HRV,HRV_0068,2022-11-30 18:07:17
,wl-html-keyboard-response,2,30423,0.0-2.0-0.0,0.0,3.0,,,,,,,,19332.5,0.0,0,,,,,,,,,,,,,,,,,,,,,,HRV,HRV_0068,2022-11-30 18:07:17
,wl-rdm,3,36952,0.0-3.0-0.0,0.0,4.0,,,,,,,[],,,,0.0,0.0,87.9,0.0,u,0.0,True,940.0999999642372,57.0,60.0,40.0,False,,3000.0,[],"[720, 450]",ColorTask_Demo,,,,,HRV,HRV_0068,2022-11-30 18:07:17
,wl-rdm,4,41868,0.0-3.0-1.0,0.0,5.0,,,,,,,[],,,,0.0,0.0,87.9,1.0,i,1.0,True,822.6999999880791,50.0,60.0,40.0,False,,2000.0,[],"[720, 450]",ColorTask_Demo,,,,,HRV,HRV_0068,2022-11-30 18:07:17
,wl-html-keyboard-response,5,73396,0.0-3.0-2.0,0.0,6.0,,,,,,,,29521.200000047684,0.0,1,,,,,,,,,,,,,,,,,,,,,,HRV,HRV_0068,2022-11-30 18:07:17
,wl-html-keyboard-response,6,85812,0.0-4.0-0.0,0.0,7.0,,,,,,,,10403.900000035763,0.0,0,,,,,,,,,,,,,,,,,,,,,,HRV,HRV_0068,2022-11-30 18:07:17
,wl-html-keyboard-response,7,102739,0.0-5.0-0.0,0.0,8.0,,,,,,,,14918.399999976158,0.0,0,,,,,,,,,,,,,,,,,,,,,,HRV,HRV_0068,2022-11-30 18:07:17
,wl-rdm,8,104868,0.0-6.0-0.0,0.0,9.0,,,,,,,[],,,,,,50.0,0.0,u,0.0,True,740.3999999761581,45.0,60.0,40.0,False,,325.7850407542955,[],"[720, 450]",ColorTask,1.0,1.0,,,HRV,HRV_0068,2022-11-30 18:07:17
,wl-rdm,9,107318,0.0-6.1-0.1,0.0,10.0,,,,,,,[],,,,,,50.0,1.0,i,1.0,True,1077.800000011921,65.0,60.0,40.0,False,,301.0269846304028,[],"[720, 450]",ColorTask,2.0,2.0,,,HRV,HRV_0068,2022-11-30 18:07:17
,wl-rdm,10,109717,0.0-6.2-0.2,0.0,11.0,,,,,,,[],,,,,,50.0,1.0,u,0.0,False,1089.0999999642372,66.0,60.0,40.0,False,,242.14659147825452,[],"[720, 450]",ColorTask,1.0,3.0,,,HRV,HRV_0068,2022-11-30 18:07:17
,wl-rdm,11,111767,0.0-6.3-0.3,0.0,12.0,,,,,,,[],,,,,,87.9,0.0,u,0.0,True,731.2000000476837,44.0,60.0,40.0,False,,246.93409777258748,[],"[720, 450]",ColorTask,2.0,4.0,,,HRV,HRV_0068,2022-11-30 18:07:17
,wl-rdm,12,114151,0.0-6.4-0.4,0.0,13.0,,,,,,,[],,,,,,62.5,0.0,u,0.0,True,1096.0,66.0,60.0,40.0,False,,208.7643273173317,[],"[720, 450]",ColorTask,3.0,5.0,,,HRV,HRV_0068,2022-11-30 18:07:17
,wl-rdm,13,116385,0.0-6.5-0.5,0.0,14.0,,,,,,,[],,,,,,62.5,0.0,u,0.0,True,940.6000000238419,57.0,60.0,40.0,False,,228.96825891624394,[],"[720, 450]",ColorTask,4.0,6.0,,,HRV,HRV_0068,2022-11-30 18:07:17
,wl-rdm,14,118434,0.0-6.6-0.6,0.0,15.0,,,,,,,[],,,,,,62.5,1.0,i,1.0,True,754.9999999403954,46.0,60.0,40.0,False,,208.24166180935978,[],"[720, 450]",ColorTask,5.0,7.0,,,HRV,HRV_0068,2022-11-30 18:07:17
,wl-rdm,15,120451,0.0-6.7-0.7,0.0,16.0,,,,,,,[],,,,,,73.6,0.0,u,0.0,True,737.8999999761581,45.0,60.0,40.0,False,,210.18757535894895,[],"[720, 450]",ColorTask,6.0,8.0,,,HRV,HRV_0068,2022-11-30 18:07:17
,wl-rdm,16,122884,0.0-6.8-0.8,0.0,17.0,,,,,,,[],,,,,,50.0,1.0,u,0.0,False,1101.3999999761581,67.0,60.0,40.0,False,,235.3671345463192,[],"[720, 450]",ColorTask,5.0,9.0,,,HRV,HRV_0068,2022-11-30 18:07:17
,wl-rdm,17,125201,0.0-6.9-0.9,0.0,18.0,,,,,,,[],,,,,,56.4,0.0,i,1.0,False,953.8999999761581,58.0,60.0,40.0,False,,299.64710921205346,[],"[720, 450]",ColorTask,4.0,10.0,,,HRV,HRV_0068,2022-11-30 18:07:17
,wl-rdm,18,127201,0.0-6.10-0.10,0.0,19.0,,,,,,,[],,,,,,62.5,1.0,i,1.0,True,672.5000000596046,41.0,60.0,40.0,False,,262.38495897572864,[],"[720, 450]",ColorTask,5.0,11.0,,,HRV,HRV_0068,2022-11-30 18:07:17
,wl-rdm,19,129517,0.0-6.11-0.11,0.0,20.0,,,,,,,[],,,,,,87.9,1.0,i,1.0,True,864.4000000357628,52.0,60.0,40.0,False,,373.79842745737074,[],"[720, 450]",ColorTask,6.0,12.0,,,HRV,HRV_0068,2022-11-30 18:07:17
,wl-rdm,20,131601,0.0-6.12-0.12,0.0,21.0,,,,,,,[],,,,,,50.0,1.0,u,0.0,False,782.4000000357628,47.0,60.0,40.0,False,,225.28184857861316,[],"[720, 450]",ColorTask,5.0,13.0,,,HRV,HRV_0068,2022-11-30 18:07:17
,wl-rdm,21,134117,0.0-6.13-0.13,0.0,22.0,,,,,,,[],,,,,,62.5,0.0,u,0.0,True,1120.199999988079,68.0,60.0,40.0,False,,317.9598345440388,[],"[720, 450]",ColorTask,6.0,14.0,,,HRV,HRV_0068,2022-11-30 18:07:17
,wl-rdm,22,136435,0.0-6.14-0.14,0.0,23.0,,,,,,,[],,,,,,87.9,0.0,u,0.0,True,988.0999999642372,60.0,60.0,40.0,False,,255.98715167879953,[],"[720, 450]",ColorTask,7.0,15.0,,,HRV,HRV_0068,2022-11-30 18:07:17
,wl-rdm,23,138551,0.0-6.15-0.15,0.0,24.0,,,,,,,[],,,,,,62.5,1.0,i,1.0,True,785.3000000715256,48.0,60.0,40.0,False,,234.67565099684725,[],"[720, 450]",ColorTask,8.0,16.0,,,HRV,HRV_0068,2022-11-30 18:07:17
,wl-rdm,24,140735,0.0-6.16-0.16,0.0,25.0,,,,,,,[],,,,,,87.9,0.0,u,0.0,True,866.6000000238419,52.0,60.0,40.0,False,,238.22686496509522,[],"[720, 450]",ColorTask,9.0,17.0,,,HRV,HRV_0068,2022-11-30 18:07:17
,wl-rdm,25,142735,0.0-6.17-0.17,0.0,26.0,,,,,,,[],,,,,,87.9,0.0,u,0.0,True,704.0000000596046,43.0,60.0,40.0,False,,216.1195500161535,[],"[720, 450]",ColorTask,10.0,18.0,,,HRV,HRV_0068,2022-11-30 18:07:17
,wl-rdm,26,145517,0.0-6.18-0.18,0.0,27.0,,,,,,,[],,,,,,50.0,1.0,u,0.0,False,1486.5,90.0,60.0,40.0,False,,218.26035703785251,[],"[720, 450]",ColorTask,9.0,19.0,,,HRV,HRV_0068,2022-11-30 18:07:17
,wl-rdm,27,147868,0.0-6.19-0.19,0.0,28.0,,,,,,,[],,,,,,56.4,1.0,i,1.0,True,1059.6000000238419,64.0,60.0,40.0,False,,226.21433631032002,[],"[720, 450]",ColorTask,10.0,20.0,,,HRV,HRV_0068,2022-11-30 18:07:17
,wl-rdm,28,150435,0.0-6.20-0.20,0.0,29.0,,,,,,,[],,,,,,53.2,1.0,u,0.0,False,1229.8999999761581,74.0,60.0,40.0,False,,252.56215493227657,[],"[720, 450]",ColorTask,9.0,21.0,,,HRV,HRV_0068,2022-11-30 18:07:17
,wl-rdm,29,152601,0.0-6.21-0.21,0.0,30.0,,,,,,,[],,,,,,87.9,1.0,i,1.0,True,748.6999999880791,45.0,60.0,40.0,False,,362.7660322685823,[],"[720, 450]",ColorTask,10.0,22.0,,,HRV,HRV_0068,2022-11-30 18:07:17
,wl-rdm,30,154718,0.0-6.22-0.22,0.0,31.0,,,,,,,[],,,,,,62.5,0.0,u,0.0,True,820.6999999880791,50.0,60.0,40.0,False,,223.8068494669476,[],"[720, 450]",ColorTask,11.0,23.0,,,HRV,HRV_0068,2022-11-30 18:07:17
,wl-rdm,31,156835,0.0-6.23-0.23,0.0,32.0,,,,,,,[],,,,,,53.2,0.0,i,1.0,False,785.1000000238419,48.0,60.0,40.0,False,,237.7637649282941,[],"[720, 450]",ColorTask,10.0,24.0,,,HRV,HRV_0068,2022-11-30 18:07:17
,wl-rdm,32,158934,0.0-6.24-0.24,0.0,33.0,,,,,,,[],,,,,,87.9,1.0,i,1.0,True,741.0,45.0,60.0,40.0,False,,269.3448943122409,[],"[720, 450]",ColorTask,11.0,25.0,,,HRV,HRV_0068,2022-11-30 18:07:17
,wl-rdm,33,161235,0.0-6.25-0.25,0.0,34.0,,,,,,,[],,,,,,50.0,0.0,u,0.0,True,955.8000000119209,58.0,60.0,40.0,False,,268.1674859295205,[],"[720, 450]",ColorTask,12.0,26.0,,,HRV,HRV_0068,2022-11-30 18:07:17
,wl-rdm,34,163435,0.0-6.26-0.26,0.0,35.0,,,,,,,[],,,,,,56.4,1.0,i,1.0,True,775.3999999761581,47.0,60.0,40.0,False,,343.7855654091149,[],"[720, 450]",ColorTask,13.0,27.0,,,HRV,HRV_0068,2022-11-30 18:07:17
,wl-rdm,35,166135,0.0-6.27-0.27,0.0,36.0,,,,,,,[],,,,,,50.0,0.0,u,0.0,True,1325.5,80.0,60.0,40.0,False,,293.26724031931565,[],"[720, 450]",ColorTask,14.0,28.0,,,HRV,HRV_0068,2022-11-30 18:07:17
,wl-rdm,36,168201,0.0-6.28-0.28,0.0,37.0,,,,,,,[],,,,,,87.9,0.0,u,0.0,True,779.9000000357628,47.0,60.0,40.0,False,,209.63171810386456,[],"[720, 450]",ColorTask,15.0,29.0,,,HRV,HRV_0068,2022-11-30 18:07:17
,wl-rdm,37,170368,0.0-6.29-0.29,0.0,38.0,,,,,,,[],,,,,,73.6,1.0,i,1.0,True,821.6000000238419,50.0,60.0,40.0,False,,277.2089895568139,[],"[720, 450]",ColorTask,16.0,30.0,,,HRV,HRV_0068,2022-11-30 18:07:17
,wl-rdm,38,172601,0.0-6.30-0.30,0.0,39.0,,,,,,,[],,,,,,73.6,1.0,i,1.0,True,931.1000000834465,56.0,60.0,40.0,False,,231.36291687035893,[],"[720, 450]",ColorTask,17.0,31.0,,,HRV,HRV_0068,2022-11-30 18:07:17
,wl-rdm,39,174851,0.0-6.31-0.31,0.0,40.0,,,,,,,[],,,,,,62.5,1.0,i,1.0,True,940.3000000119209,57.0,60.0,40.0,False,,232.39631776550772,[],"[720, 450]",ColorTask,18.0,32.0,,,HRV,HRV_0068,2022-11-30 18:07:17
,wl-rdm,40,177351,0.0-6.32-0.32,0.0,41.0,,,,,,,[],,,,,,62.5,1.0,i,1.0,True,1224.7000000476837,74.0,60.0,40.0,False,,206.41125219495086,[],"[720, 450]",ColorTask,19.0,33.0,,,HRV,HRV_0068,2022-11-30 18:07:17
,wl-rdm,41,179485,0.0-6.33-0.33,0.0,42.0,,,,,,,[],,,,,,87.9,0.0,u,0.0,True,771.5,47.0,60.0,40.0,False,,281.6582281651959,[],"[720, 450]",ColorTask,20.0,34.0,,,HRV,HRV_0068,2022-11-30 18:07:17
,wl-rdm,42,182068,0.0-6.34-0.34,0.0,43.0,,,,,,,[],,,,,,56.4,1.0,u,0.0,False,1206.9000000357628,73.0,60.0,40.0,False,,310.07593191786367,[],"[720, 450]",ColorTask,19.0,35.0,,,HRV,HRV_0068,2022-11-30 18:07:17
,wl-rdm,43,184101,0.0-6.35-0.35,0.0,44.0,,,,,,,[],,,,,,87.9,0.0,u,0.0,True,727.1000000238419,44.0,60.0,40.0,False,,238.41422229435855,[],"[720, 450]",ColorTask,20.0,36.0,,,HRV,HRV_0068,2022-11-30 18:07:17
,wl-rdm,44,186368,0.0-6.36-0.36,0.0,45.0,,,,,,,[],,,,,,73.6,1.0,i,1.0,True,889.8999999761581,54.0,60.0,40.0,False,,284.7017565395865,[],"[720, 450]",ColorTask,21.0,37.0,,,HRV,HRV_0068,2022-11-30 18:07:17
,wl-rdm,45,188551,0.0-6.37-0.37,0.0,46.0,,,,,,,[],,,,,,62.5,1.0,u,0.0,False,754.1000000238419,46.0,60.0,40.0,False,,358.18231311035447,[],"[720, 450]",ColorTask,20.0,38.0,,,HRV,HRV_0068,2022-11-30 18:07:17
,wl-rdm,46,190651,0.0-6.38-0.38,0.0,47.0,,,,,,,[],,,,,,62.5,0.0,u,0.0,True,824.9000000357628,50.0,60.0,40.0,False,,204.32101720489976,[],"[720, 450]",ColorTask,21.0,39.0,,,HRV,HRV_0068,2022-11-30 18:07:17
,wl-rdm,47,193151,0.0-6.39-0.39,0.0,48.0,,,,,,,[],,,,,,53.2,1.0,i,1.0,True,1222.5,74.0,60.0,40.0,False,,210.19264348644154,[],"[720, 450]",ColorTask,22.0,40.0,,,HRV,HRV_0068,2022-11-30 18:07:17
,wl-rdm,48,195500,0.0-6.40-0.40,0.0,49.0,,,,,,,[],,,,,,56.4,1.0,i,1.0,True,967.6000000238419,59.0,60.0,40.0,False,,310.3172823481352,[],"[720, 450]",ColorTask,23.0,41.0,,,HRV,HRV_0068,2022-11-30 18:07:17
,wl-rdm,49,197768,0.0-6.41-0.41,0.0,50.0,,,,,,,[],,,,,,56.4,0.0,u,0.0,True,911.6000000238419,55.0,60.0,40.0,False,,283.14573530342005,[],"[720, 450]",ColorTask,24.0,42.0,,,HRV,HRV_0068,2022-11-30 18:07:17
,wl-rdm,50,200018,0.0-6.42-0.42,0.0,51.0,,,,,,,[],,,,,,50.0,1.0,u,0.0,False,980.4000000357628,59.0,60.0,40.0,False,,204.0964288397073,[],"[720, 450]",ColorTask,23.0,43.0,,,HRV,HRV_0068,2022-11-30 18:07:17
,wl-rdm,51,202734,0.0-6.43-0.43,0.0,52.0,,,,,,,[],,,,,,62.5,1.0,i,1.0,True,1307.199999988079,79.0,60.0,40.0,False,,326.9434717961366,[],"[720, 450]",ColorTask,24.0,44.0,,,HRV,HRV_0068,2022-11-30 18:07:17
,wl-rdm,52,205484,0.0-6.44-0.44,0.0,53.0,,,,,,,[],,,,,,53.2,1.0,i,1.0,True,1441.0,87.0,60.0,40.0,False,,227.83062051694722,[],"[720, 450]",ColorTask,25.0,45.0,,,HRV,HRV_0068,2022-11-30 18:07:17
,wl-rdm,53,208201,0.0-6.45-0.45,0.0,54.0,,,,,,,[],,,,,,50.0,1.0,u,0.0,False,1271.0999999642372,77.0,60.0,40.0,False,,375.2678363699166,[],"[720, 450]",ColorTask,24.0,46.0,,,HRV,HRV_0068,2022-11-30 18:07:17
,wl-rdm,54,210635,0.0-6.46-0.46,0.0,55.0,,,,,,,[],,,,,,53.2,0.0,u,0.0,True,987.1999999880791,60.0,60.0,40.0,False,,376.56478461198697,[],"[720, 450]",ColorTask,25.0,47.0,,,HRV,HRV_0068,2022-11-30 18:07:17
,wl-rdm,55,213034,0.0-6.47-0.47,0.0,56.0,,,,,,,[],,,,,,56.4,0.0,u,0.0,True,1062.1000000238419,64.0,60.0,40.0,False,,280.01074661853244,[],"[720, 450]",ColorTask,26.0,48.0,,,HRV,HRV_0068,2022-11-30 18:07:17
,wl-rdm,56,215068,0.0-6.48-0.48,0.0,57.0,,,,,,,[],,,,,,56.4,0.0,u,0.0,True,673.3000000119209,41.0,60.0,40.0,False,,268.3268006374209,[],"[720, 450]",ColorTask,27.0,49.0,,,HRV,HRV_0068,2022-11-30 18:07:17
,wl-rdm,57,217385,0.0-6.49-0.49,0.0,58.0,,,,,,,[],,,,,,73.6,0.0,u,0.0,True,941.6999999880791,57.0,60.0,40.0,False,,309.7740509658777,[],"[720, 450]",ColorTask,28.0,50.0,,,HRV,HRV_0068,2022-11-30 18:07:17
,wl-rdm,58,219350,0.0-6.50-0.50,0.0,59.0,,,,,,,[],,,,,,87.9,1.0,i,1.0,True,655.5,40.0,60.0,40.0,False,,233.13584602242872,[],"[720, 450]",ColorTask,29.0,51.0,,,HRV,HRV_0068,2022-11-30 18:07:17
,wl-rdm,59,221634,0.0-6.51-0.51,0.0,60.0,,,,,,,[],,,,,,50.0,0.0,i,1.0,False,866.6000000238419,52.0,60.0,40.0,False,,365.70151065489097,[],"[720, 450]",ColorTask,28.0,52.0,,,HRV,HRV_0068,2022-11-30 18:07:17
,wl-rdm,60,223768,0.0-6.52-0.52,0.0,61.0,,,,,,,[],,,,,,87.9,0.0,u,0.0,True,767.6999999880791,47.0,60.0,40.0,False,,288.2864819814617,[],"[720, 450]",ColorTask,29.0,53.0,,,HRV,HRV_0068,2022-11-30 18:07:17
,wl-rdm,61,226200,0.0-6.53-0.53,0.0,62.0,,,,,,,[],,,,,,73.6,1.0,i,1.0,True,1078.9000000357628,65.0,60.0,40.0,False,,293.06557101662014,[],"[720, 450]",ColorTask,30.0,54.0,,,HRV,HRV_0068,2022-11-30 18:07:17
,wl-rdm,62,228868,0.0-6.54-0.54,0.0,63.0,,,,,,,[],,,,,,62.5,0.0,u,0.0,True,1286.7000000476837,78.0,60.0,40.0,False,,309.7190406944977,[],"[720, 450]",ColorTask,31.0,55.0,,,HRV,HRV_0068,2022-11-30 18:07:17
,wl-rdm,63,231168,0.0-6.55-0.55,0.0,64.0,,,,,,,[],,,,,,56.4,1.0,u,0.0,False,972.4000000357628,59.0,60.0,40.0,False,,248.07730522048337,[],"[720, 450]",ColorTask,30.0,56.0,,,HRV,HRV_0068,2022-11-30 18:07:17
,wl-rdm,64,233901,0.0-6.56-0.56,0.0,65.0,,,,,,,[],,,,,,56.4,0.0,u,0.0,True,1341.0,81.0,60.0,40.0,False,,323.1906801750173,[],"[720, 450]",ColorTask,31.0,57.0,,,HRV,HRV_0068,2022-11-30 18:07:17
,wl-rdm,65,236568,0.0-6.57-0.57,0.0,66.0,,,,,,,[],,,,,,73.6,1.0,i,1.0,True,1321.5,80.0,60.0,40.0,False,,275.7522838716161,[],"[720, 450]",ColorTask,32.0,58.0,,,HRV,HRV_0068,2022-11-30 18:07:17
,wl-rdm,66,238934,0.0-6.58-0.58,0.0,67.0,,,,,,,[],,,,,,53.2,1.0,i,1.0,True,925.6999999880791,56.0,60.0,40.0,False,,376.5723724388433,[],"[720, 450]",ColorTask,33.0,59.0,,,HRV,HRV_0068,2022-11-30 18:07:17
,wl-rdm,67,241435,0.0-6.59-0.59,0.0,68.0,,,,,,,[],,,,,,56.4,1.0,u,0.0,False,1087.9000000357628,66.0,60.0,40.0,False,,335.6163251531623,[],"[720, 450]",ColorTask,32.0,60.0,,,HRV,HRV_0068,2022-11-30 18:07:17
,wl-rdm,68,244268,0.0-6.60-0.60,0.0,69.0,,,,,,,[],,,,,,53.2,1.0,i,1.0,True,1372.300000011921,83.0,60.0,40.0,False,,399.3952581332176,[],"[720, 450]",ColorTask,33.0,61.0,,,HRV,HRV_0068,2022-11-30 18:07:17
,wl-rdm,69,246718,0.0-6.61-0.61,0.0,70.0,,,,,,,[],,,,,,53.2,0.0,u,0.0,True,1038.6000000238419,63.0,60.0,40.0,False,,343.5286593780802,[],"[720, 450]",ColorTask,34.0,62.0,,,HRV,HRV_0068,2022-11-30 18:07:17
,wl-rdm,70,248834,0.0-6.62-0.62,0.0,71.0,,,,,,,[],,,,,,87.9,1.0,i,1.0,True,738.8999999761581,45.0,60.0,40.0,False,,287.64005000957445,[],"[720, 450]",ColorTask,35.0,63.0,,,HRV,HRV_0068,2022-11-30 18:07:17
,wl-rdm,71,251051,0.0-6.63-0.63,0.0,72.0,,,,,,,[],,,,,,62.5,0.0,u,0.0,True,748.0999999642372,45.0,60.0,40.0,False,,392.46651091135425,[],"[720, 450]",ColorTask,36.0,64.0,,,HRV,HRV_0068,2022-11-30 18:07:17
,wl-rdm,72,253284,0.0-6.64-0.64,0.0,73.0,,,,,,,[],,,,,,62.5,0.0,u,0.0,True,845.0,51.0,60.0,40.0,False,,325.6622357469014,[],"[720, 450]",ColorTask,37.0,65.0,,,HRV,HRV_0068,2022-11-30 18:07:17
,wl-rdm,73,255517,0.0-6.65-0.65,0.0,74.0,,,,,,,[],,,,,,53.2,0.0,u,0.0,True,776.8000000119209,47.0,60.0,40.0,False,,371.3728011116449,[],"[720, 450]",ColorTask,38.0,66.0,,,HRV,HRV_0068,2022-11-30 18:07:17
,wl-rdm,74,257684,0.0-6.66-0.66,0.0,75.0,,,,,,,[],,,,,,73.6,0.0,u,0.0,True,745.5999999642372,45.0,60.0,40.0,False,,365.3119952801555,[],"[720, 450]",ColorTask,39.0,67.0,,,HRV,HRV_0068,2022-11-30 18:07:17
,wl-rdm,75,259801,0.0-6.67-0.67,0.0,76.0,,,,,,,[],,,,,,73.6,0.0,u,0.0,True,688.8000000715256,42.0,60.0,40.0,False,,357.5225971395986,[],"[720, 450]",ColorTask,40.0,68.0,,,HRV,HRV_0068,2022-11-30 18:07:17
,wl-rdm,76,261934,0.0-6.68-0.68,0.0,77.0,,,,,,,[],,,,,,73.6,0.0,u,0.0,True,822.0000000596046,50.0,60.0,40.0,False,,246.954239976216,[],"[720, 450]",ColorTask,41.0,69.0,,,HRV,HRV_0068,2022-11-30 18:07:17
,wl-rdm,77,264434,0.0-6.69-0.69,0.0,78.0,,,,,,,[],,,,,,56.4,1.0,i,1.0,True,1034.9000000357628,62.0,60.0,40.0,False,,395.51783591240155,[],"[720, 450]",ColorTask,42.0,70.0,,,HRV,HRV_0068,2022-11-30 18:07:17
,wl-rdm,78,266401,0.0-6.70-0.70,0.0,79.0,,,,,,,[],,,,,,56.4,0.0,u,0.0,True,667.0999999642372,40.0,60.0,40.0,False,,244.22147826199537,[],"[720, 450]",ColorTask,43.0,71.0,,,HRV,HRV_0068,2022-11-30 18:07:17
,wl-rdm,79,268451,0.0-6.71-0.71,0.0,80.0,,,,,,,[],,,,,,87.9,0.0,u,0.0,True,655.1000000238419,40.0,60.0,40.0,False,,303.33733102150904,[],"[720, 450]",ColorTask,44.0,72.0,,,HRV,HRV_0068,2022-11-30 18:07:17
,wl-rdm,80,271135,0.0-6.72-0.72,0.0,81.0,,,,,,,[],,,,,,53.2,0.0,u,0.0,True,1372.8999999761581,83.0,60.0,40.0,False,,217.85552511925545,[],"[720, 450]",ColorTask,45.0,73.0,,,HRV,HRV_0068,2022-11-30 18:07:17
,wl-rdm,81,273351,0.0-6.73-0.73,0.0,82.0,,,,,,,[],,,,,,56.4,0.0,u,0.0,True,797.1999999880791,48.0,60.0,40.0,False,,359.3831418157082,[],"[720, 450]",ColorTask,46.0,74.0,,,HRV,HRV_0068,2022-11-30 18:07:17
,wl-rdm,82,275985,0.0-6.74-0.74,0.0,83.0,,,,,,,[],,,,,,53.2,1.0,i,1.0,True,1305.199999988079,79.0,60.0,40.0,False,,249.02444932105152,[],"[720, 450]",ColorTask,47.0,75.0,,,HRV,HRV_0068,2022-11-30 18:07:17
,wl-rdm,83,278251,0.0-6.75-0.75,0.0,84.0,,,,,,,[],,,,,,53.2,0.0,u,0.0,True,988.6000000238419,60.0,60.0,40.0,False,,216.17281895814241,[],"[720, 450]",ColorTask,48.0,76.0,,,HRV,HRV_0068,2022-11-30 18:07:17
,wl-rdm,84,280734,0.0-6.76-0.76,0.0,85.0,,,,,,,[],,,,,,50.0,0.0,i,1.0,False,1054.699999988079,64.0,60.0,40.0,False,,337.48322880891124,[],"[720, 450]",ColorTask,47.0,77.0,,,HRV,HRV_0068,2022-11-30 18:07:17
,wl-rdm,85,282751,0.0-6.77-0.77,0.0,86.0,,,,,,,[],,,,,,73.6,0.0,u,0.0,True,727.8000000119209,44.0,60.0,40.0,False,,201.12004281659895,[],"[720, 450]",ColorTask,48.0,78.0,,,HRV,HRV_0068,2022-11-30 18:07:17
,wl-rdm,86,284850,0.0-6.78-0.78,0.0,87.0,,,,,,,[],,,,,,53.2,0.0,i,1.0,False,722.6000000238419,44.0,60.0,40.0,False,,283.2233863512729,[],"[720, 450]",ColorTask,47.0,79.0,,,HRV,HRV_0068,2022-11-30 18:07:17
,wl-rdm,87,287434,0.0-6.79-0.79,0.0,88.0,,,,,,,[],,,,,,53.2,0.0,i,1.0,False,1228.0000000596046,74.0,60.0,40.0,False,,287.6437308123707,[],"[720, 450]",ColorTask,46.0,80.0,,,HRV,HRV_0068,2022-11-30 18:07:17
,wl-rdm,88,290284,0.0-6.80-0.80,0.0,89.0,,,,,,,[],,,,,,62.5,1.0,i,1.0,True,1426.7000000476837,86.0,60.0,40.0,False,,337.35514817026103,[],"[720, 450]",ColorTask,47.0,81.0,,,HRV,HRV_0068,2022-11-30 18:07:17
,wl-rdm,89,292751,0.0-6.81-0.81,0.0,90.0,,,,,,,[],,,,,,56.4,1.0,u,0.0,False,1058.300000011921,64.0,60.0,40.0,False,,348.3999129795349,[],"[720, 450]",ColorTask,46.0,82.0,,,HRV,HRV_0068,2022-11-30 18:07:17
,wl-rdm,90,295334,0.0-6.82-0.82,0.0,91.0,,,,,,,[],,,,,,50.0,0.0,u,0.0,True,1239.5,75.0,60.0,40.0,False,,252.2593405234707,[],"[720, 450]",ColorTask,47.0,83.0,,,HRV,HRV_0068,2022-11-30 18:07:17
,wl-rdm,91,297401,0.0-6.83-0.83,0.0,92.0,,,,,,,[],,,,,,73.6,0.0,u,0.0,True,744.9000000357628,45.0,60.0,40.0,False,,244.66119137609377,[],"[720, 450]",ColorTask,48.0,84.0,,,HRV,HRV_0068,2022-11-30 18:07:17
,wl-rdm,92,299784,0.0-6.84-0.84,0.0,93.0,,,,,,,[],,,,,,50.0,1.0,i,1.0,True,1107.199999988079,67.0,60.0,40.0,False,,203.39462161560627,[],"[720, 450]",ColorTask,49.0,85.0,,,HRV,HRV_0068,2022-11-30 18:07:17
,wl-rdm,93,302700,0.0-6.85-0.85,0.0,94.0,,,,,,,[],,,,,,87.9,1.0,i,1.0,True,1457.9000000357628,88.0,60.0,40.0,False,,396.6461017034131,[],"[720, 450]",ColorTask,50.0,86.0,,,HRV,HRV_0068,2022-11-30 18:07:17
,wl-rdm,94,304768,0.0-6.86-0.86,0.0,95.0,,,,,,,[],,,,,,87.9,1.0,i,1.0,True,778.6999999880791,47.0,60.0,40.0,False,,201.0596169099571,[],"[720, 450]",ColorTask,51.0,87.0,,,HRV,HRV_0068,2022-11-30 18:07:17
,wl-rdm,95,307035,0.0-6.87-0.87,0.0,96.0,,,,,,,[],,,,,,73.6,1.0,i,1.0,True,934.5000000596046,56.0,60.0,40.0,False,,260.2315257435377,[],"[720, 450]",ColorTask,52.0,88.0,,,HRV,HRV_0068,2022-11-30 18:07:17
,wl-rdm,96,309218,0.0-6.88-0.88,0.0,97.0,,,,,,,[],,,,,,53.2,1.0,u,0.0,False,738.9000000357628,45.0,60.0,40.0,False,,354.8741849267881,[],"[720, 450]",ColorTask,51.0,89.0,,,HRV,HRV_0068,2022-11-30 18:07:17
,wl-rdm,97,311951,0.0-6.89-0.89,0.0,98.0,,,,,,,[],,,,,,73.6,1.0,u,0.0,False,1364.0,82.0,60.0,40.0,False,,304.175487138356,[],"[720, 450]",ColorTask,50.0,90.0,,,HRV,HRV_0068,2022-11-30 18:07:17
,wl-rdm,98,314401,0.0-6.90-0.90,0.0,99.0,,,,,,,[],,,,,,56.4,1.0,u,0.0,False,1082.9000000357628,65.0,60.0,40.0,False,,291.43253348115627,[],"[720, 450]",ColorTask,49.0,91.0,,,HRV,HRV_0068,2022-11-30 18:07:17
,wl-rdm,99,317084,0.0-6.91-0.91,0.0,100.0,,,,,,,[],,,,,,50.0,0.0,i,1.0,False,1290.0,78.0,60.0,40.0,False,,308.6744512342481,[],"[720, 450]",ColorTask,48.0,92.0,,,HRV,HRV_0068,2022-11-30 18:07:17
,wl-rdm,100,319468,0.0-6.92-0.92,0.0,101.0,,,,,,,[],,,,,,56.4,0.0,u,0.0,True,999.4999999403954,60.0,60.0,40.0,False,,303.1005811543138,[],"[720, 450]",ColorTask,49.0,93.0,,,HRV,HRV_0068,2022-11-30 18:07:17
,wl-rdm,101,321551,0.0-6.93-0.93,0.0,102.0,,,,,,,[],,,,,,73.6,0.0,u,0.0,True,738.2999999523163,45.0,60.0,40.0,False,,253.36966830427582,[],"[720, 450]",ColorTask,50.0,94.0,,,HRV,HRV_0068,2022-11-30 18:07:17
,wl-rdm,102,323784,0.0-6.94-0.94,0.0,103.0,,,,,,,[],,,,,,62.5,0.0,u,0.0,True,904.1999999880791,55.0,60.0,40.0,False,,250.76842973478534,[],"[720, 450]",ColorTask,51.0,95.0,,,HRV,HRV_0068,2022-11-30 18:07:17
,wl-rdm,103,326317,0.0-6.95-0.95,0.0,104.0,,,,,,,[],,,,,,53.2,0.0,u,0.0,True,1152.0,70.0,60.0,40.0,False,,301.9058760552756,[],"[720, 450]",ColorTask,52.0,96.0,,,HRV,HRV_0068,2022-11-30 18:07:17
,wl-rdm,104,328901,0.0-6.96-0.96,0.0,105.0,,,,,,,[],,,,,,53.2,1.0,u,0.0,False,1191.4000000357628,72.0,60.0,40.0,False,,307.82619723360517,[],"[720, 450]",ColorTask,51.0,97.0,,,HRV,HRV_0068,2022-11-30 18:07:17
,wl-rdm,105,331417,0.0-6.97-0.97,0.0,106.0,,,,,,,[],,,,,,50.0,0.0,u,0.0,True,1121.5,68.0,60.0,40.0,False,,302.3891635119246,[],"[720, 450]",ColorTask,52.0,98.0,,,HRV,HRV_0068,2022-11-30 18:07:17
,wl-rdm,106,333784,0.0-6.98-0.98,0.0,107.0,,,,,,,[],,,,,,73.6,1.0,i,1.0,True,996.0,60.0,60.0,40.0,False,,291.92573441371195,[],"[720, 450]",ColorTask,53.0,99.0,,,HRV,HRV_0068,2022-11-30 18:07:17
,wl-rdm,107,336251,0.0-6.99-0.99,0.0,108.0,,,,,,,[],,,,,,73.6,0.0,u,0.0,True,1123.5999999642372,68.0,60.0,40.0,False,,253.45699136309713,[],"[720, 450]",ColorTask,54.0,100.0,,,HRV,HRV_0068,2022-11-30 18:07:17
,wl-rdm,108,338668,0.0-6.100-0.100,0.0,109.0,,,,,,,[],,,,,,56.4,0.0,u,0.0,True,1123.7000000476837,68.0,60.0,40.0,False,,226.9596160688139,[],"[720, 450]",ColorTask,55.0,101.0,,,HRV,HRV_0068,2022-11-30 18:07:17
,wl-rdm,109,340952,0.0-6.101-0.101,0.0,110.0,,,,,,,[],,,,,,87.9,1.0,i,1.0,True,984.0,59.0,60.0,40.0,False,,231.22009419289847,[],"[720, 450]",ColorTask,56.0,102.0,,,HRV,HRV_0068,2022-11-30 18:07:17
,wl-rdm,110,343284,0.0-6.102-0.102,0.0,111.0,,,,,,,[],,,,,,73.6,1.0,i,1.0,True,949.1000000238419,57.0,60.0,40.0,False,,311.10583498540535,[],"[720, 450]",ColorTask,57.0,103.0,,,HRV,HRV_0068,2022-11-30 18:07:17
,wl-rdm,111,345485,0.0-6.103-0.103,0.0,112.0,,,,,,,[],,,,,,50.0,1.0,u,0.0,False,873.2999999523163,53.0,60.0,40.0,False,,241.80343282837725,[],"[720, 450]",ColorTask,56.0,104.0,,,HRV,HRV_0068,2022-11-30 18:07:17
,wl-rdm,112,347817,0.0-6.104-0.104,0.0,113.0,,,,,,,[],,,,,,62.5,1.0,u,0.0,False,1066.2000000476837,64.0,60.0,40.0,False,,207.45751559043373,[],"[720, 450]",ColorTask,55.0,105.0,,,HRV,HRV_0068,2022-11-30 18:07:17
,wl-rdm,113,350034,0.0-6.105-0.105,0.0,114.0,,,,,,,[],,,,,,50.0,0.0,i,1.0,False,744.4000000357628,45.0,60.0,40.0,False,,384.5924656866832,[],"[720, 450]",ColorTask,54.0,106.0,,,HRV,HRV_0068,2022-11-30 18:07:17
,wl-rdm,114,352251,0.0-6.106-0.106,0.0,115.0,,,,,,,[],,,,,,53.2,1.0,u,0.0,False,855.3000000119209,52.0,60.0,40.0,False,,276.9055156435255,[],"[720, 450]",ColorTask,53.0,107.0,,,HRV,HRV_0068,2022-11-30 18:07:17
,wl-rdm,115,354269,0.0-6.107-0.107,0.0,116.0,,,,,,,[],,,,,,87.9,1.0,i,1.0,True,743.1999999284744,45.0,60.0,40.0,False,,201.94553933862755,[],"[720, 450]",ColorTask,54.0,108.0,,,HRV,HRV_0068,2022-11-30 18:07:17
,wl-html-keyboard-response,116,364688,0.0-7.0-0.0,1.0,117.0,,,,,,,,8410.199999988079,1.0,0,,,,,,,,,,,,,,,,,,,,,,HRV,HRV_0068,2022-11-30 18:07:17
,wl-rdm,117,367684,0.0-8.0-0.0,1.0,118.0,,,,,,,[],,,,,,56.4,1.0,i,1.0,True,1715.699999988079,103.0,60.0,40.0,False,,213.68126747175785,[],"[720, 450]",ColorTask,55.0,1.0,,,HRV,HRV_0068,2022-11-30 18:07:17
,wl-rdm,118,370018,0.0-8.1-0.1,1.0,119.0,,,,,,,[],,,,,,62.5,1.0,u,0.0,False,989.7999999523163,60.0,60.0,40.0,False,,253.91643265079523,[],"[720, 450]",ColorTask,54.0,2.0,,,HRV,HRV_0068,2022-11-30 18:07:17
,wl-rdm,119,372184,0.0-8.2-0.2,1.0,120.0,,,,,,,[],,,,,,50.0,0.0,u,0.0,True,882.0,53.0,60.0,40.0,False,,207.22705877801752,[],"[720, 450]",ColorTask,55.0,3.0,,,HRV,HRV_0068,2022-11-30 18:07:17
,wl-rdm,120,374418,0.0-8.3-0.3,1.0,121.0,,,,,,,[],,,,,,50.0,1.0,u,0.0,False,939.1000000238419,57.0,60.0,40.0,False,,223.3084542596926,[],"[720, 450]",ColorTask,54.0,4.0,,,HRV,HRV_0068,2022-11-30 18:07:17
,wl-rdm,121,376501,0.0-8.4-0.4,1.0,122.0,,,,,,,[],,,,,,56.4,0.0,u,0.0,True,690.7999999523163,42.0,60.0,40.0,False,,328.1302599240494,[],"[720, 450]",ColorTask,55.0,5.0,,,HRV,HRV_0068,2022-11-30 18:07:17
,wl-rdm,122,378751,0.0-8.5-0.5,1.0,123.0,,,,,,,[],,,,,,56.4,1.0,u,0.0,False,809.8999999761581,49.0,60.0,40.0,False,,381.94852867456285,[],"[720, 450]",ColorTask,54.0,6.0,,,HRV,HRV_0068,2022-11-30 18:07:17
,wl-rdm,123,381234,0.0-8.6-0.6,1.0,124.0,,,,,,,[],,,,,,62.5,1.0,i,1.0,True,1038.6000000238419,63.0,60.0,40.0,False,,355.0800854782492,[],"[720, 450]",ColorTask,55.0,7.0,,,HRV,HRV_0068,2022-11-30 18:07:17
,wl-rdm,124,383518,0.0-8.7-0.7,1.0,125.0,,,,,,,[],,,,,,53.2,1.0,u,0.0,False,989.1000000238419,60.0,60.0,40.0,False,,222.16305542280756,[],"[720, 450]",ColorTask,54.0,8.0,,,HRV,HRV_0068,2022-11-30 18:07:17
,wl-rdm,125,385617,0.0-8.8-0.8,1.0,126.0,,,,,,,[],,,,,,73.6,0.0,u,0.0,True,729.5,44.0,60.0,40.0,False,,306.86891831654765,[],"[720, 450]",ColorTask,55.0,9.0,,,HRV,HRV_0068,2022-11-30 18:07:17
,wl-rdm,126,387600,0.0-8.9-0.9,1.0,127.0,,,,,,,[],,,,,,87.9,1.0,i,1.0,True,672.3000000119209,41.0,60.0,40.0,False,,223.25993520713862,[],"[720, 450]",ColorTask,56.0,10.0,,,HRV,HRV_0068,2022-11-30 18:07:17
,wl-rdm,127,389617,0.0-8.10-0.10,1.0,128.0,,,,,,,[],,,,,,73.6,0.0,u,0.0,True,570.7999999523163,35.0,60.0,40.0,False,,354.048510817584,[],"[720, 450]",ColorTask,57.0,11.0,,,HRV,HRV_0068,2022-11-30 18:07:17
,wl-rdm,128,392201,0.0-8.11-0.11,1.0,129.0,,,,,,,[],,,,,,62.5,0.0,u,0.0,True,1154.1000000238419,70.0,60.0,40.0,False,,354.51320347664137,[],"[720, 450]",ColorTask,58.0,12.0,,,HRV,HRV_0068,2022-11-30 18:07:17
,wl-rdm,129,394784,0.0-8.12-0.12,1.0,130.0,,,,,,,[],,,,,,56.4,0.0,u,0.0,True,1123.6000000238419,68.0,60.0,40.0,False,,386.9184701157219,[],"[720, 450]",ColorTask,59.0,13.0,,,HRV,HRV_0068,2022-11-30 18:07:17
,wl-rdm,130,397017,0.0-8.13-0.13,1.0,131.0,,,,,,,[],,,,,,53.2,0.0,u,0.0,True,871.8000000119209,53.0,60.0,40.0,False,,289.4776834382481,[],"[720, 450]",ColorTask,60.0,14.0,,,HRV,HRV_0068,2022-11-30 18:07:17
,wl-rdm,131,399784,0.0-8.14-0.14,1.0,132.0,,,,,,,[],,,,,,50.0,0.0,i,1.0,False,1372.2999999523163,83.0,60.0,40.0,False,,312.510233988572,[],"[720, 450]",ColorTask,59.0,15.0,,,HRV,HRV_0068,2022-11-30 18:07:17
,wl-rdm,132,401868,0.0-8.15-0.15,1.0,133.0,,,,,,,[],,,,,,73.6,1.0,i,1.0,True,733.3000000119209,44.0,60.0,40.0,False,,269.7423332864135,[],"[720, 450]",ColorTask,60.0,16.0,,,HRV,HRV_0068,2022-11-30 18:07:17
,wl-rdm,133,403884,0.0-8.16-0.16,1.0,134.0,,,,,,,[],,,,,,87.9,0.0,u,0.0,True,738.8999999761581,45.0,60.0,40.0,False,,205.0732772712907,[],"[720, 450]",ColorTask,61.0,17.0,,,HRV,HRV_0068,2022-11-30 18:07:17
,wl-rdm,134,406134,0.0-8.17-0.17,1.0,135.0,,,,,,,[],,,,,,73.6,1.0,i,1.0,True,919.5,56.0,60.0,40.0,False,,267.06232482910013,[],"[720, 450]",ColorTask,62.0,18.0,,,HRV,HRV_0068,2022-11-30 18:07:17
,wl-rdm,135,408400,0.0-8.18-0.18,1.0,136.0,,,,,,,[],,,,,,56.4,0.0,u,0.0,True,988.2999999523163,60.0,60.0,40.0,False,,216.3574022660738,[],"[720, 450]",ColorTask,63.0,19.0,,,HRV,HRV_0068,2022-11-30 18:07:17
,wl-rdm,136,410785,0.0-8.19-0.19,1.0,137.0,,,,,,,[],,,,,,50.0,0.0,u,0.0,True,998.5,60.0,60.0,40.0,False,,301.7765964636518,[],"[720, 450]",ColorTask,64.0,20.0,,,HRV,HRV_0068,2022-11-30 18:07:17
,wl-rdm,137,413283,0.0-8.20-0.20,1.0,138.0,,,,,,,[],,,,,,50.0,0.0,i,1.0,False,1200.5999999642372,72.0,60.0,40.0,False,,226.27620842374256,[],"[720, 450]",ColorTask,63.0,21.0,,,HRV,HRV_0068,2022-11-30 18:07:17
,wl-rdm,138,415267,0.0-8.21-0.21,1.0,139.0,,,,,,,[],,,,,,87.9,1.0,i,1.0,True,615.5,37.0,60.0,40.0,False,,306.19136968609007,[],"[720, 450]",ColorTask,64.0,22.0,,,HRV,HRV_0068,2022-11-30 18:07:17
,wl-rdm,139,417368,0.0-8.22-0.22,1.0,140.0,,,,,,,[],,,,,,73.6,1.0,i,1.0,True,731.8000000119209,44.0,60.0,40.0,False,,313.95353494735093,[],"[720, 450]",ColorTask,65.0,23.0,,,HRV,HRV_0068,2022-11-30 18:07:17
,wl-rdm,140,419668,0.0-8.23-0.23,1.0,141.0,,,,,,,[],,,,,,53.2,0.0,u,0.0,True,839.0,51.0,60.0,40.0,False,,368.3080358210924,[],"[720, 450]",ColorTask,66.0,24.0,,,HRV,HRV_0068,2022-11-30 18:07:17
,wl-rdm,141,422218,0.0-8.24-0.24,1.0,142.0,,,,,,,[],,,,,,50.0,1.0,i,1.0,True,1206.2000000476837,73.0,60.0,40.0,False,,253.08754800764595,[],"[720, 450]",ColorTask,67.0,25.0,,,HRV,HRV_0068,2022-11-30 18:07:17
,wl-rdm,142,424201,0.0-8.25-0.25,1.0,143.0,,,,,,,[],,,,,,73.6,0.0,u,0.0,True,696.2999999523163,42.0,60.0,40.0,False,,225.58343834503492,[],"[720, 450]",ColorTask,68.0,26.0,,,HRV,HRV_0068,2022-11-30 18:07:17
,wl-rdm,143,426285,0.0-8.26-0.26,1.0,144.0,,,,,,,[],,,,,,62.5,0.0,u,0.0,True,748.6000000238419,45.0,60.0,40.0,False,,277.58256638206575,[],"[720, 450]",ColorTask,69.0,27.0,,,HRV,HRV_0068,2022-11-30 18:07:17
,wl-rdm,144,428301,0.0-8.27-0.27,1.0,145.0,,,,,,,[],,,,,,73.6,1.0,i,1.0,True,680.1999999880791,41.0,60.0,40.0,False,,272.02531541142673,[],"[720, 450]",ColorTask,70.0,28.0,,,HRV,HRV_0068,2022-11-30 18:07:17
,wl-rdm,145,430551,0.0-8.28-0.28,1.0,146.0,,,,,,,[],,,,,,53.2,1.0,i,1.0,True,892.8999999761581,54.0,60.0,40.0,False,,291.4425196142426,[],"[720, 450]",ColorTask,71.0,29.0,,,HRV,HRV_0068,2022-11-30 18:07:17
,wl-rdm,146,433101,0.0-8.29-0.29,1.0,147.0,,,,,,,[],,,,,,50.0,1.0,i,1.0,True,1122.4999999403954,68.0,60.0,40.0,False,,336.49476997914167,[],"[720, 450]",ColorTask,72.0,30.0,,,HRV,HRV_0068,2022-11-30 18:07:17
,wl-rdm,147,435134,0.0-8.30-0.30,1.0,148.0,,,,,,,[],,,,,,62.5,1.0,i,1.0,True,673.1999999880791,41.0,60.0,40.0,False,,294.88207251297524,[],"[720, 450]",ColorTask,73.0,31.0,,,HRV,HRV_0068,2022-11-30 18:07:17
,wl-rdm,148,437384,0.0-8.31-0.31,1.0,149.0,,,,,,,[],,,,,,56.4,0.0,u,0.0,True,874.5,53.0,60.0,40.0,False,,308.60479902635785,[],"[720, 450]",ColorTask,74.0,32.0,,,HRV,HRV_0068,2022-11-30 18:07:17
,wl-rdm,149,439668,0.0-8.32-0.32,1.0,150.0,,,,,,,[],,,,,,56.4,0.0,i,1.0,False,931.3999999761581,56.0,60.0,40.0,False,,288.9864617230013,[],"[720, 450]",ColorTask,73.0,33.0,,,HRV,HRV_0068,2022-11-30 18:07:17
,wl-rdm,150,441617,0.0-8.33-0.33,1.0,151.0,,,,,,,[],,,,,,62.5,1.0,i,1.0,True,640.2000000476837,39.0,60.0,40.0,False,,225.38707421954211,[],"[720, 450]",ColorTask,74.0,34.0,,,HRV,HRV_0068,2022-11-30 18:07:17
,wl-rdm,151,443618,0.0-8.34-0.34,1.0,152.0,,,,,,,[],,,,,,87.9,1.0,i,1.0,True,620.4999999403954,38.0,60.0,40.0,False,,305.43146329776425,[],"[720, 450]",ColorTask,75.0,35.0,,,HRV,HRV_0068,2022-11-30 18:07:17
,wl-rdm,152,445551,0.0-8.35-0.35,1.0,153.0,,,,,,,[],,,,,,73.6,1.0,i,1.0,True,644.5,39.0,60.0,40.0,False,,216.9880501683047,[],"[720, 450]",ColorTask,76.0,36.0,,,HRV,HRV_0068,2022-11-30 18:07:17
,wl-rdm,153,447584,0.0-8.36-0.36,1.0,154.0,,,,,,,[],,,,,,53.2,1.0,i,1.0,True,604.6999999880791,37.0,60.0,40.0,False,,343.03279520144946,[],"[720, 450]",ColorTask,77.0,37.0,,,HRV,HRV_0068,2022-11-30 18:07:17
,wl-rdm,154,449867,0.0-8.37-0.37,1.0,155.0,,,,,,,[],,,,,,56.4,1.0,u,0.0,False,941.6000000238419,57.0,60.0,40.0,False,,272.82181718639833,[],"[720, 450]",ColorTask,76.0,38.0,,,HRV,HRV_0068,2022-11-30 18:07:17
,wl-rdm,155,452134,0.0-8.38-0.38,1.0,156.0,,,,,,,[],,,,,,56.4,1.0,u,0.0,False,905.1999999880791,55.0,60.0,40.0,False,,283.64149442996137,[],"[720, 450]",ColorTask,75.0,39.0,,,HRV,HRV_0068,2022-11-30 18:07:17
,wl-rdm,156,454917,0.0-8.39-0.39,1.0,157.0,,,,,,,[],,,,,,53.2,1.0,i,1.0,True,1413.2999999523163,85.0,60.0,40.0,False,,294.26176305146004,[],"[720, 450]",ColorTask,76.0,40.0,,,HRV,HRV_0068,2022-11-30 18:07:17
,wl-rdm,157,457751,0.0-8.40-0.40,1.0,158.0,,,,,,,[],,,,,,53.2,1.0,i,1.0,True,1464.5999999642372,88.0,60.0,40.0,False,,315.8337738003529,[],"[720, 450]",ColorTask,77.0,41.0,,,HRV,HRV_0068,2022-11-30 18:07:17
,wl-rdm,158,460201,0.0-8.41-0.41,1.0,159.0,,,,,,,[],,,,,,62.5,0.0,u,0.0,True,1077.6000000238419,65.0,60.0,40.0,False,,313.3496838932921,[],"[720, 450]",ColorTask,78.0,42.0,,,HRV,HRV_0068,2022-11-30 18:07:17
,wl-rdm,159,462117,0.0-8.42-0.42,1.0,160.0,,,,,,,[],,,,,,87.9,0.0,u,0.0,True,633.8999999761581,39.0,60.0,40.0,False,,214.40448598634757,[],"[720, 450]",ColorTask,79.0,43.0,,,HRV,HRV_0068,2022-11-30 18:07:17
,wl-rdm,160,464117,0.0-8.43-0.43,1.0,161.0,,,,,,,[],,,,,,62.5,1.0,i,1.0,True,639.8999999761581,39.0,60.0,40.0,False,,288.46752098467675,[],"[720, 450]",ColorTask,80.0,44.0,,,HRV,HRV_0068,2022-11-30 18:07:17
,wl-rdm,161,466667,0.0-8.44-0.44,1.0,162.0,,,,,,,[],,,,,,62.5,1.0,u,0.0,False,1103.5,67.0,60.0,40.0,False,,381.24640724916094,[],"[720, 450]",ColorTask,79.0,45.0,,,HRV,HRV_0068,2022-11-30 18:07:17
,wl-rdm,162,468868,0.0-8.45-0.45,1.0,163.0,,,,,,,[],,,,,,53.2,0.0,u,0.0,True,774.1999999880791,47.0,60.0,40.0,False,,342.07394085478325,[],"[720, 450]",ColorTask,80.0,46.0,,,HRV,HRV_0068,2022-11-30 18:07:17
,wl-rdm,163,471000,0.0-8.46-0.46,1.0,164.0,,,,,,,[],,,,,,73.6,0.0,u,0.0,True,708.0999999642372,43.0,60.0,40.0,False,,353.4755575422979,[],"[720, 450]",ColorTask,81.0,47.0,,,HRV,HRV_0068,2022-11-30 18:07:17
,wl-rdm,164,473650,0.0-8.47-0.47,1.0,165.0,,,,,,,[],,,,,,56.4,0.0,i,1.0,False,1331.7000000476837,80.0,60.0,40.0,False,,261.4683233253087,[],"[720, 450]",ColorTask,80.0,48.0,,,HRV,HRV_0068,2022-11-30 18:07:17
,wl-rdm,165,475734,0.0-8.48-0.48,1.0,166.0,,,,,,,[],,,,,,87.9,0.0,u,0.0,True,640.7999999523163,39.0,60.0,40.0,False,,379.6461613646506,[],"[720, 450]",ColorTask,81.0,49.0,,,HRV,HRV_0068,2022-11-30 18:07:17
,wl-rdm,166,478168,0.0-8.49-0.49,1.0,167.0,,,,,,,[],,,,,,73.6,0.0,u,0.0,True,1034.6000000238419,62.0,60.0,40.0,False,,332.0505664128543,[],"[720, 450]",ColorTask,82.0,50.0,,,HRV,HRV_0068,2022-11-30 18:07:17
,wl-rdm,167,480418,0.0-8.50-0.50,1.0,168.0,,,,,,,[],,,,,,53.2,0.0,u,0.0,True,836.5,51.0,60.0,40.0,False,,341.9705476841026,[],"[720, 450]",ColorTask,83.0,51.0,,,HRV,HRV_0068,2022-11-30 18:07:17
,wl-rdm,168,482451,0.0-8.51-0.51,1.0,169.0,,,,,,,[],,,,,,62.5,0.0,u,0.0,True,705.4999999403954,43.0,60.0,40.0,False,,251.61666280127014,[],"[720, 450]",ColorTask,84.0,52.0,,,HRV,HRV_0068,2022-11-30 18:07:17
,wl-rdm,169,484600,0.0-8.52-0.52,1.0,170.0,,,,,,,[],,,,,,53.2,0.0,u,0.0,True,824.1999999880791,50.0,60.0,40.0,False,,234.67156232905285,[],"[720, 450]",ColorTask,85.0,53.0,,,HRV,HRV_0068,2022-11-30 18:07:17
,wl-rdm,170,486935,0.0-8.53-0.53,1.0,171.0,,,,,,,[],,,,,,62.5,0.0,u,0.0,True,1024.4999999403954,62.0,60.0,40.0,False,,225.72516820280015,[],"[720, 450]",ColorTask,86.0,54.0,,,HRV,HRV_0068,2022-11-30 18:07:17
,wl-rdm,171,489017,0.0-8.54-0.54,1.0,172.0,,,,,,,[],,,,,,62.5,0.0,u,0.0,True,723.1999999284744,44.0,60.0,40.0,False,,266.5887090225789,[],"[720, 450]",ColorTask,87.0,55.0,,,HRV,HRV_0068,2022-11-30 18:07:17
,wl-rdm,172,491983,0.0-8.55-0.55,1.0,173.0,,,,,,,[],,,,,,56.4,1.0,i,1.0,True,1589.3999999761581,96.0,60.0,40.0,False,,308.90130052446875,[],"[720, 450]",ColorTask,88.0,56.0,,,HRV,HRV_0068,2022-11-30 18:07:17
,wl-rdm,173,494383,0.0-8.56-0.56,1.0,174.0,,,,,,,[],,,,,,50.0,1.0,u,0.0,False,1040.4000000357628,63.0,60.0,40.0,False,,281.936497942604,[],"[720, 450]",ColorTask,87.0,57.0,,,HRV,HRV_0068,2022-11-30 18:07:17
,wl-rdm,174,497569,0.0-8.57-0.57,1.0,175.0,,,,,,,[],,,,,,56.4,1.0,i,1.0,True,1884.6000000238419,114.0,60.0,40.0,False,,229.93350348055077,[],"[720, 450]",ColorTask,88.0,58.0,,,HRV,HRV_0068,2022-11-30 18:07:17
,wl-rdm,175,499902,0.0-8.58-0.58,1.0,176.0,,,,,,,[],,,,,,87.9,0.0,u,0.0,True,955.1000000238419,58.0,60.0,40.0,False,,316.7078407848846,[],"[720, 450]",ColorTask,89.0,59.0,,,HRV,HRV_0068,2022-11-30 18:07:17
,wl-rdm,176,502401,0.0-8.59-0.59,1.0,177.0,,,,,,,[],,,,,,62.5,0.0,u,0.0,True,1138.5999999642372,69.0,60.0,40.0,False,,268.22610265081397,[],"[720, 450]",ColorTask,90.0,60.0,,,HRV,HRV_0068,2022-11-30 18:07:17
,wl-rdm,177,504668,0.0-8.60-0.60,1.0,178.0,,,,,,,[],,,,,,56.4,1.0,i,1.0,True,931.1000000238419,56.0,60.0,40.0,False,,272.59823780456793,[],"[720, 450]",ColorTask,91.0,61.0,,,HRV,HRV_0068,2022-11-30 18:07:17
,wl-rdm,178,506835,0.0-8.61-0.61,1.0,179.0,,,,,,,[],,,,,,53.2,0.0,u,0.0,True,794.7000000476837,48.0,60.0,40.0,False,,291.8058457794368,[],"[720, 450]",ColorTask,92.0,62.0,,,HRV,HRV_0068,2022-11-30 18:07:17
,wl-rdm,179,509268,0.0-8.62-0.62,1.0,180.0,,,,,,,[],,,,,,50.0,0.0,i,1.0,False,1056.5,64.0,60.0,40.0,False,,286.9620571996552,[],"[720, 450]",ColorTask,91.0,63.0,,,HRV,HRV_0068,2022-11-30 18:07:17
,wl-rdm,180,511984,0.0-8.63-0.63,1.0,181.0,,,,,,,[],,,,,,50.0,1.0,u,0.0,False,1432.300000011921,86.0,60.0,40.0,False,,227.58227196074884,[],"[720, 450]",ColorTask,90.0,64.0,,,HRV,HRV_0068,2022-11-30 18:07:17
,wl-rdm,181,514050,0.0-8.64-0.64,1.0,182.0,,,,,,,[],,,,,,87.9,0.0,u,0.0,True,660.1000000238419,40.0,60.0,40.0,False,,326.9439015198519,[],"[720, 450]",ColorTask,91.0,65.0,,,HRV,HRV_0068,2022-11-30 18:07:17
,wl-rdm,182,516650,0.0-8.65-0.65,1.0,183.0,,,,,,,[],,,,,,53.2,1.0,u,0.0,False,1273.800000011921,77.0,60.0,40.0,False,,238.31570585500495,[],"[720, 450]",ColorTask,90.0,66.0,,,HRV,HRV_0068,2022-11-30 18:07:17
,wl-rdm,183,518701,0.0-8.66-0.66,1.0,184.0,,,,,,,[],,,,,,87.9,1.0,i,1.0,True,709.0999999642372,43.0,60.0,40.0,False,,270.55967610876985,[],"[720, 450]",ColorTask,91.0,67.0,,,HRV,HRV_0068,2022-11-30 18:07:17
,wl-rdm,184,520734,0.0-8.67-0.67,1.0,185.0,,,,,,,[],,,,,,87.9,0.0,u,0.0,True,610.8000000119209,37.0,60.0,40.0,False,,352.91231622884084,[],"[720, 450]",ColorTask,92.0,68.0,,,HRV,HRV_0068,2022-11-30 18:07:17
,wl-rdm,185,522851,0.0-8.68-0.68,1.0,186.0,,,,,,,[],,,,,,73.6,0.0,u,0.0,True,774.3000000715256,47.0,60.0,40.0,False,,261.4906737821885,[],"[720, 450]",ColorTask,93.0,69.0,,,HRV,HRV_0068,2022-11-30 18:07:17
,wl-rdm,186,524901,0.0-8.69-0.69,1.0,187.0,,,,,,,[],,,,,,87.9,1.0,i,1.0,True,609.3999999761581,37.0,60.0,40.0,False,,350.71860407271913,[],"[720, 450]",ColorTask,94.0,70.0,,,HRV,HRV_0068,2022-11-30 18:07:17
,wl-rdm,187,527967,0.0-8.70-0.70,1.0,188.0,,,,,,,[],,,,,,53.2,1.0,i,1.0,True,1694.8000000715256,102.0,60.0,40.0,False,,290.9246564673595,[],"[720, 450]",ColorTask,95.0,71.0,,,HRV,HRV_0068,2022-11-30 18:07:17
,wl-rdm,188,530118,0.0-8.71-0.71,1.0,189.0,,,,,,,[],,,,,,56.4,0.0,u,0.0,True,793.9999999403954,48.0,60.0,40.0,False,,294.63013142833273,[],"[720, 450]",ColorTask,96.0,72.0,,,HRV,HRV_0068,2022-11-30 18:07:17
,wl-rdm,189,532767,0.0-8.72-0.72,1.0,190.0,,,,,,,[],,,,,,62.5,1.0,i,1.0,True,1245.300000011921,75.0,60.0,40.0,False,,322.402647747882,[],"[720, 450]",ColorTask,97.0,73.0,,,HRV,HRV_0068,2022-11-30 18:07:17
,wl-rdm,190,535400,0.0-8.73-0.73,1.0,191.0,,,,,,,[],,,,,,50.0,1.0,i,1.0,True,1338.0,81.0,60.0,40.0,False,,220.0984994320296,[],"[720, 450]",ColorTask,98.0,74.0,,,HRV,HRV_0068,2022-11-30 18:07:17
,wl-rdm,191,537717,0.0-8.74-0.74,1.0,192.0,,,,,,,[],,,,,,50.0,1.0,u,0.0,False,857.5,52.0,60.0,40.0,False,,373.07714049095006,[],"[720, 450]",ColorTask,97.0,75.0,,,HRV,HRV_0068,2022-11-30 18:07:17
,wl-rdm,192,540601,0.0-8.75-0.75,1.0,193.0,,,,,,,[],,,,,,56.4,0.0,u,0.0,True,1545.9999999403954,93.0,60.0,40.0,False,,254.85309833270802,[],"[720, 450]",ColorTask,98.0,76.0,,,HRV,HRV_0068,2022-11-30 18:07:17
,wl-rdm,193,542683,0.0-8.76-0.76,1.0,194.0,,,,,,,[],,,,,,73.6,0.0,u,0.0,True,716.3000000119209,43.0,60.0,40.0,False,,292.50573341079786,[],"[720, 450]",ColorTask,99.0,77.0,,,HRV,HRV_0068,2022-11-30 18:07:17
,wl-rdm,194,544868,0.0-8.77-0.77,1.0,195.0,,,,,,,[],,,,,,62.5,0.0,u,0.0,True,889.3999999761581,54.0,60.0,40.0,False,,207.8656155408727,[],"[720, 450]",ColorTask,100.0,78.0,,,HRV,HRV_0068,2022-11-30 18:07:17
,wl-rdm,195,547150,0.0-8.78-0.78,1.0,196.0,,,,,,,[],,,,,,73.6,1.0,i,1.0,True,839.3000000119209,51.0,60.0,40.0,False,,378.75834285501014,[],"[720, 450]",ColorTask,101.0,79.0,,,HRV,HRV_0068,2022-11-30 18:07:17
,wl-rdm,196,549418,0.0-8.79-0.79,1.0,197.0,,,,,,,[],,,,,,62.5,1.0,i,1.0,True,954.5999999642372,58.0,60.0,40.0,False,,227.15572766147233,[],"[720, 450]",ColorTask,102.0,80.0,,,HRV,HRV_0068,2022-11-30 18:07:17
,wl-rdm,197,551800,0.0-8.80-0.80,1.0,198.0,,,,,,,[],,,,,,56.4,1.0,u,0.0,False,1004.6000000238419,61.0,60.0,40.0,False,,289.8723852604694,[],"[720, 450]",ColorTask,101.0,81.0,,,HRV,HRV_0068,2022-11-30 18:07:17
,wl-rdm,198,553851,0.0-8.81-0.81,1.0,199.0,,,,,,,[],,,,,,87.9,1.0,i,1.0,True,701.8999999761581,43.0,60.0,40.0,False,,278.0076064273474,[],"[720, 450]",ColorTask,102.0,82.0,,,HRV,HRV_0068,2022-11-30 18:07:17
,wl-rdm,199,555851,0.0-8.82-0.82,1.0,200.0,,,,,,,[],,,,,,87.9,1.0,i,1.0,True,583.1000000238419,35.0,60.0,40.0,False,,346.5145267658451,[],"[720, 450]",ColorTask,103.0,83.0,,,HRV,HRV_0068,2022-11-30 18:07:17
,wl-rdm,200,557751,0.0-8.83-0.83,1.0,201.0,,,,,,,[],,,,,,73.6,1.0,i,1.0,True,585.8000000119209,36.0,60.0,40.0,False,,229.90090679258347,[],"[720, 450]",ColorTask,104.0,84.0,,,HRV,HRV_0068,2022-11-30 18:07:17
,wl-rdm,201,559918,0.0-8.84-0.84,1.0,202.0,,,,,,,[],,,,,,53.2,1.0,u,0.0,False,793.3999999761581,48.0,60.0,40.0,False,,285.77560111623586,[],"[720, 450]",ColorTask,103.0,85.0,,,HRV,HRV_0068,2022-11-30 18:07:17
,wl-rdm,202,562400,0.0-8.85-0.85,1.0,203.0,,,,,,,[],,,,,,62.5,0.0,u,0.0,True,1189.0,72.0,60.0,40.0,False,,230.16573460304016,[],"[720, 450]",ColorTask,104.0,86.0,,,HRV,HRV_0068,2022-11-30 18:07:17
,wl-rdm,203,564685,0.0-8.86-0.86,1.0,204.0,,,,,,,[],,,,,,56.4,1.0,i,1.0,True,974.3999999761581,59.0,60.0,40.0,False,,249.70497596656287,[],"[720, 450]",ColorTask,105.0,87.0,,,HRV,HRV_0068,2022-11-30 18:07:17
,wl-rdm,204,567118,0.0-8.87-0.87,1.0,205.0,,,,,,,[],,,,,,50.0,0.0,u,0.0,True,957.5,58.0,60.0,40.0,False,,386.61476564428136,[],"[720, 450]",ColorTask,106.0,88.0,,,HRV,HRV_0068,2022-11-30 18:07:17
,wl-rdm,205,569385,0.0-8.88-0.88,1.0,206.0,,,,,,,[],,,,,,53.2,0.0,u,0.0,True,904.7000000476837,55.0,60.0,40.0,False,,269.0829330130581,[],"[720, 450]",ColorTask,107.0,89.0,,,HRV,HRV_0068,2022-11-30 18:07:17
,wl-rdm,206,571783,0.0-8.89-0.89,1.0,207.0,,,,,,,[],,,,,,50.0,1.0,i,1.0,True,1023.7999999523163,62.0,60.0,40.0,False,,306.02548030147256,[],"[720, 450]",ColorTask,108.0,90.0,,,HRV,HRV_0068,2022-11-30 18:07:17
,wl-rdm,207,574284,0.0-8.90-0.90,1.0,208.0,,,,,,,[],,,,,,53.2,0.0,u,0.0,True,1205.0000000596046,73.0,60.0,40.0,False,,231.78287596121964,[],"[720, 450]",ColorTask,109.0,91.0,,,HRV,HRV_0068,2022-11-30 18:07:17
,wl-rdm,208,576252,0.0-8.91-0.91,1.0,209.0,,,,,,,[],,,,,,87.9,1.0,i,1.0,True,671.1000000238419,41.0,60.0,40.0,False,,208.83074755141476,[],"[720, 450]",ColorTask,110.0,92.0,,,HRV,HRV_0068,2022-11-30 18:07:17
,wl-rdm,209,578350,0.0-8.92-0.92,1.0,210.0,,,,,,,[],,,,,,53.2,0.0,u,0.0,True,740.3999999761581,45.0,60.0,40.0,False,,292.21766517150246,[],"[720, 450]",ColorTask,111.0,93.0,,,HRV,HRV_0068,2022-11-30 18:07:17
,wl-rdm,210,580467,0.0-8.93-0.93,1.0,211.0,,,,,,,[],,,,,,73.6,0.0,u,0.0,True,686.1999999880791,42.0,60.0,40.0,False,,352.7817777914415,[],"[720, 450]",ColorTask,112.0,94.0,,,HRV,HRV_0068,2022-11-30 18:07:17
,wl-rdm,211,582550,0.0-8.94-0.94,1.0,212.0,,,,,,,[],,,,,,73.6,0.0,u,0.0,True,711.5999999642372,43.0,60.0,40.0,False,,284.7634987227283,[],"[720, 450]",ColorTask,113.0,95.0,,,HRV,HRV_0068,2022-11-30 18:07:17
,wl-rdm,212,584751,0.0-8.95-0.95,1.0,213.0,,,,,,,[],,,,,,50.0,0.0,i,1.0,False,804.8000000715256,49.0,60.0,40.0,False,,317.8495936047212,[],"[720, 450]",ColorTask,112.0,96.0,,,HRV,HRV_0068,2022-11-30 18:07:17
,wl-rdm,213,586818,0.0-8.96-0.96,1.0,214.0,,,,,,,[],,,,,,87.9,0.0,u,0.0,True,747.2000000476837,45.0,60.0,40.0,False,,237.7431800579506,[],"[720, 450]",ColorTask,113.0,97.0,,,HRV,HRV_0068,2022-11-30 18:07:17
,wl-rdm,214,588835,0.0-8.97-0.97,1.0,215.0,,,,,,,[],,,,,,87.9,0.0,u,0.0,True,660.1999999880791,40.0,60.0,40.0,False,,274.8250366705982,[],"[720, 450]",ColorTask,114.0,98.0,,,HRV,HRV_0068,2022-11-30 18:07:17
,wl-rdm,215,590851,0.0-8.98-0.98,1.0,216.0,,,,,,,[],,,,,,73.6,1.0,i,1.0,True,625.9000000357628,38.0,60.0,40.0,False,,323.5042425659274,[],"[720, 450]",ColorTask,115.0,99.0,,,HRV,HRV_0068,2022-11-30 18:07:17
,wl-rdm,216,593801,0.0-8.99-0.99,1.0,217.0,,,,,,,[],,,,,,50.0,0.0,u,0.0,True,1574.300000011921,95.0,60.0,40.0,False,,289.78972998254324,[],"[720, 450]",ColorTask,116.0,100.0,,,HRV,HRV_0068,2022-11-30 18:07:17
,wl-rdm,217,596118,0.0-8.100-0.100,1.0,218.0,,,,,,,[],,,,,,56.4,0.0,u,0.0,True,988.8000000119209,60.0,60.0,40.0,False,,239.8759008914429,[],"[720, 450]",ColorTask,117.0,101.0,,,HRV,HRV_0068,2022-11-30 18:07:17
,wl-rdm,218,598151,0.0-8.101-0.101,1.0,219.0,,,,,,,[],,,,,,87.9,0.0,u,0.0,True,620.1999999284744,38.0,60.0,40.0,False,,318.6470333691419,[],"[720, 450]",ColorTask,118.0,102.0,,,HRV,HRV_0068,2022-11-30 18:07:17
,wl-rdm,219,600267,0.0-8.102-0.102,1.0,220.0,,,,,,,[],,,,,,53.2,1.0,i,1.0,True,767.1999999880791,47.0,60.0,40.0,False,,280.8377584819767,[],"[720, 450]",ColorTask,119.0,103.0,,,HRV,HRV_0068,2022-11-30 18:07:17
,wl-rdm,220,602335,0.0-8.103-0.103,1.0,221.0,,,,,,,[],,,,,,62.5,1.0,i,1.0,True,739.8999999761581,45.0,60.0,40.0,False,,264.33279571827256,[],"[720, 450]",ColorTask,120.0,104.0,,,HRV,HRV_0068,2022-11-30 18:07:17
,wl-rdm,221,605268,0.0-8.104-0.104,1.0,222.0,,,,,,,[],,,,,,73.6,1.0,i,1.0,True,1556.8999999761581,94.0,60.0,40.0,False,,315.9780854507439,[],"[720, 450]",ColorTask,121.0,105.0,,,HRV,HRV_0068,2022-11-30 18:07:17
,wl-rdm,222,607350,0.0-8.105-0.105,1.0,223.0,,,,,,,[],,,,,,87.9,1.0,i,1.0,True,664.8999999761581,40.0,60.0,40.0,False,,349.64658089284416,[],"[720, 450]",ColorTask,122.0,106.0,,,HRV,HRV_0068,2022-11-30 18:07:17
,wl-rdm,223,609552,0.0-8.106-0.106,1.0,224.0,,,,,,,[],,,,,,50.0,0.0,u,0.0,True,775.8999999761581,47.0,60.0,40.0,False,,353.5379963384514,[],"[720, 450]",ColorTask,123.0,107.0,,,HRV,HRV_0068,2022-11-30 18:07:17
,wl-rdm,224,611568,0.0-8.107-0.107,1.0,225.0,,,,,,,[],,,,,,50.0,1.0,u,0.0,False,754.6000000238419,46.0,60.0,40.0,False,,200.37469608426423,[],"[720, 450]",ColorTask,122.0,108.0,,,HRV,HRV_0068,2022-11-30 18:07:17
,wl-html-button-response,225,613644,0.0-9.0-0.0,,,,,,,,,,2069.899999976158,,0,,,,,,,,,,,,,,,,,,,,<h3>End of this session. Thank you!</h3><br>,['Close window'],HRV,HRV_0068,2022-11-30 18:07:17
