trialN,stimuli,trialStartTime,trialStartTime_UNIX,stimulus1,stimulus2,stimulus1Bid,stimulus2Bid,delta,selected,rt,rt_UNIX,rt_perfnow,receivedResponse,rsp,trialEndTime,trialDuration,trialEndTime_UNIX,trialDuration_UNIX,exp,subjectId,date
0,"[{'imgObject': {}, 'id': 'eggs', 'src': '/static/foodstim60/eggs.jpg', 'key': 'u', 'origWidth': 409, 'origHeight': 409, 'width': 409, 'height': 409, 'widthPercent': 0.45, 'rescaleHeight': False, 'trialN': 0, 'loaded': True, 'loadedTime': 2758.699999988079, 'positionName': 'LEFT', 'positionCoords': [282.2, 245.5], 'bid': 4.7700000000000005}, {'imgObject': {}, 'id': 'kiwi', 'src': '/static/foodstim60/kiwi.jpg', 'key': 'i', 'origWidth': 410, 'origHeight': 410, 'width': 410, 'height': 410, 'widthPercent': 0.45, 'rescaleHeight': False, 'trialN': 0, 'loaded': True, 'loadedTime': 2772.699999988079, 'positionName': 'RIGHT', 'positionCoords': [748.8, 245], 'bid': 4.8}]",2934.199999988079,1669829606391,eggs,kiwi,4.7700000000000005,4.8,0.02999999999999936,eggs,2463.699999988079,2469,2469.099999964237,True,u,5908.899999976158,2974.699999988079,1669829609365,2974,HRV,HRV_0068,2022-11-30 17:41:01
1,"[{'imgObject': {}, 'id': 'seaweed', 'src': '/static/foodstim60/seaweed.jpg', 'key': 'u', 'origWidth': 410, 'origHeight': 410, 'width': 410, 'height': 410, 'widthPercent': 0.45, 'rescaleHeight': False, 'trialN': 1, 'loaded': True, 'loadedTime': 2784.899999976158, 'positionName': 'LEFT', 'positionCoords': [281.2, 245], 'bid': 5}, {'imgObject': {}, 'id': 'luckycharms', 'src': '/static/foodstim60/luckycharms.jpg', 'key': 'i', 'origWidth': 410, 'origHeight': 409, 'width': 410, 'height': 409, 'widthPercent': 0.45, 'rescaleHeight': False, 'trialN': 1, 'loaded': True, 'loadedTime': 2801.7999999523163, 'positionName': 'RIGHT', 'positionCoords': [748.8, 245.5], 'bid': 6.16}]",5909.299999952316,1669829609366,seaweed,luckycharms,5.0,6.16,1.1600000000000001,luckycharms,1582.300000011921,1586,1586.800000011921,True,i,8000.199999988079,2090.900000035763,1669829611457,2091,HRV,HRV_0068,2022-11-30 17:41:01
2,"[{'imgObject': {}, 'id': 'turkeysandwich', 'src': '/static/foodstim60/turkeysandwich.jpg', 'key': 'u', 'origWidth': 409, 'origHeight': 409, 'width': 409, 'height': 409, 'widthPercent': 0.45, 'rescaleHeight': False, 'trialN': 2, 'loaded': True, 'loadedTime': 2802.5, 'positionName': 'LEFT', 'positionCoords': [282.2, 245.5], 'bid': 7.55}, {'imgObject': {}, 'id': 'salad w chicken', 'src': '/static/foodstim60/salad w chicken.jpg', 'key': 'i', 'origWidth': 411, 'origHeight': 411, 'width': 411, 'height': 411, 'widthPercent': 0.45, 'rescaleHeight': False, 'trialN': 2, 'loaded': True, 'loadedTime': 2803.2999999523163, 'positionName': 'RIGHT', 'positionCoords': [748.8, 244.5], 'bid': 8.76}]",8000.599999964237,1669829611457,turkeysandwich,salad w chicken,7.55,8.76,1.21,salad w chicken,1164.9000000357628,1169,1169.6000000238419,True,i,9676.399999976158,1675.800000011921,1669829613133,1676,HRV,HRV_0068,2022-11-30 17:41:01
3,"[{'imgObject': {}, 'id': 'roastedpotatoes', 'src': '/static/foodstim60/roastedpotatoes.jpg', 'key': 'u', 'origWidth': 409, 'origHeight': 410, 'width': 409, 'height': 410, 'widthPercent': 0.45, 'rescaleHeight': False, 'trialN': 3, 'loaded': True, 'loadedTime': 2805.899999976158, 'positionName': 'LEFT', 'positionCoords': [282.2, 245], 'bid': 7.75}, {'imgObject': {}, 'id': 'ice cream sundae 002', 'src': '/static/foodstim60/ice cream sundae 002.jpg', 'key': 'i', 'origWidth': 409, 'origHeight': 409, 'width': 409, 'height': 409, 'widthPercent': 0.45, 'rescaleHeight': False, 'trialN': 3, 'loaded': True, 'loadedTime': 2806.899999976158, 'positionName': 'RIGHT', 'positionCoords': [748.8, 245.5], 'bid': 7.43}]",9676.699999988079,1669829613133,roastedpotatoes,ice cream sundae 002,7.75,7.43,-0.3200000000000003,roastedpotatoes,1414.300000011921,1418,1417.800000011921,True,u,11601.299999952316,1924.5999999642372,1669829615057,1924,HRV,HRV_0068,2022-11-30 17:41:01
4,"[{'imgObject': {}, 'id': 'rigatoni and sauce', 'src': '/static/foodstim60/rigatoni and sauce.jpg', 'key': 'u', 'origWidth': 410, 'origHeight': 411, 'width': 410, 'height': 411, 'widthPercent': 0.45, 'rescaleHeight': False, 'trialN': 4, 'loaded': True, 'loadedTime': 2808, 'positionName': 'LEFT', 'positionCoords': [281.2, 244.5], 'bid': 7.69}, {'imgObject': {}, 'id': 'roastedpotatoes', 'src': '/static/foodstim60/roastedpotatoes.jpg', 'key': 'i', 'origWidth': 409, 'origHeight': 410, 'width': 409, 'height': 410, 'widthPercent': 0.45, 'rescaleHeight': False, 'trialN': 4, 'loaded': True, 'loadedTime': 2806.199999988079, 'positionName': 'RIGHT', 'positionCoords': [748.8, 245], 'bid': 7.75}]",11601.799999952316,1669829615058,rigatoni and sauce,roastedpotatoes,7.69,7.75,0.05999999999999961,rigatoni and sauce,1241.300000011921,1246,1246.2000000476837,True,u,13356.299999952316,1754.5,1669829616812,1754,HRV,HRV_0068,2022-11-30 17:41:01
5,"[{'imgObject': {}, 'id': 'cantaloupe', 'src': '/static/foodstim60/cantaloupe.jpg', 'key': 'u', 'origWidth': 409, 'origHeight': 409, 'width': 409, 'height': 409, 'widthPercent': 0.45, 'rescaleHeight': False, 'trialN': 5, 'loaded': True, 'loadedTime': 2808.699999988079, 'positionName': 'LEFT', 'positionCoords': [282.2, 245.5], 'bid': 5.45}, {'imgObject': {}, 'id': 'olives', 'src': '/static/foodstim60/olives.jpg', 'key': 'i', 'origWidth': 410, 'origHeight': 410, 'width': 410, 'height': 410, 'widthPercent': 0.45, 'rescaleHeight': False, 'trialN': 5, 'loaded': True, 'loadedTime': 2809.199999988079, 'positionName': 'RIGHT', 'positionCoords': [748.8, 245], 'bid': 4.79}]",13356.599999964237,1669829616813,cantaloupe,olives,5.45,4.79,-0.6600000000000001,cantaloupe,1377.6000000238419,1382,1382.4000000357628,True,u,15244.299999952316,1887.699999988079,1669829618700,1887,HRV,HRV_0068,2022-11-30 17:41:01
6,"[{'imgObject': {}, 'id': 'pear', 'src': '/static/foodstim60/pear.jpg', 'key': 'u', 'origWidth': 411, 'origHeight': 410, 'width': 411, 'height': 410, 'widthPercent': 0.45, 'rescaleHeight': False, 'trialN': 6, 'loaded': True, 'loadedTime': 2809.7999999523163, 'positionName': 'LEFT', 'positionCoords': [280.2, 245], 'bid': 4.65}, {'imgObject': {}, 'id': 'apple slices', 'src': '/static/foodstim60/apple slices.jpg', 'key': 'i', 'origWidth': 409, 'origHeight': 410, 'width': 409, 'height': 410, 'widthPercent': 0.45, 'rescaleHeight': False, 'trialN': 6, 'loaded': True, 'loadedTime': 2810.399999976158, 'positionName': 'RIGHT', 'positionCoords': [748.8, 245], 'bid': 4.62}]",15244.699999988079,1669829618701,pear,apple slices,4.65,4.62,-0.03000000000000025,apple slices,2154.199999988079,2158,2158.099999964237,True,i,17904.299999952316,2659.599999964237,1669829621360,2659,HRV,HRV_0068,2022-11-30 17:41:01
7,"[{'imgObject': {}, 'id': 'salmon', 'src': '/static/foodstim60/salmon.jpg', 'key': 'u', 'origWidth': 410, 'origHeight': 409, 'width': 410, 'height': 409, 'widthPercent': 0.45, 'rescaleHeight': False, 'trialN': 7, 'loaded': True, 'loadedTime': 2811, 'positionName': 'LEFT', 'positionCoords': [281.2, 245.5], 'bid': 9.5}, {'imgObject': {}, 'id': 'blackbeanswithrice', 'src': '/static/foodstim60/blackbeanswithrice.jpg', 'key': 'i', 'origWidth': 410, 'origHeight': 410, 'width': 410, 'height': 410, 'widthPercent': 0.45, 'rescaleHeight': False, 'trialN': 7, 'loaded': True, 'loadedTime': 2811.099999964237, 'positionName': 'RIGHT', 'positionCoords': [748.8, 245], 'bid': 8.09}]",17904.69999998808,1669829621361,salmon,blackbeanswithrice,9.5,8.09,-1.4100000000000001,salmon,1336.0,1340,1340.5999999642372,True,u,19756.299999952316,1851.5999999642372,1669829623212,1851,HRV,HRV_0068,2022-11-30 17:41:01
8,"[{'imgObject': {}, 'id': 'sushi w_condiments', 'src': '/static/foodstim60/sushi w_condiments.jpg', 'key': 'u', 'origWidth': 410, 'origHeight': 410, 'width': 410, 'height': 410, 'widthPercent': 0.45, 'rescaleHeight': False, 'trialN': 8, 'loaded': True, 'loadedTime': 2812.2999999523163, 'positionName': 'LEFT', 'positionCoords': [281.2, 245], 'bid': 9.73}, {'imgObject': {}, 'id': 'luckycharms', 'src': '/static/foodstim60/luckycharms.jpg', 'key': 'i', 'origWidth': 410, 'origHeight': 409, 'width': 410, 'height': 409, 'widthPercent': 0.45, 'rescaleHeight': False, 'trialN': 8, 'loaded': True, 'loadedTime': 2801.7999999523163, 'positionName': 'RIGHT', 'positionCoords': [748.8, 245.5], 'bid': 6.16}]",19756.599999964237,1669829623212,sushi w_condiments,luckycharms,9.73,6.16,-3.5700000000000003,sushi w_condiments,999.6999999880791,1005,1004.6999999880791,True,u,21268.299999952316,1511.699999988079,1669829624724,1512,HRV,HRV_0068,2022-11-30 17:41:01
9,"[{'imgObject': {}, 'id': 'strawberries', 'src': '/static/foodstim60/strawberries.jpg', 'key': 'u', 'origWidth': 410, 'origHeight': 410, 'width': 410, 'height': 410, 'widthPercent': 0.45, 'rescaleHeight': False, 'trialN': 9, 'loaded': True, 'loadedTime': 2813, 'positionName': 'LEFT', 'positionCoords': [281.2, 245], 'bid': 7.37}, {'imgObject': {}, 'id': 'ice cream sundae 002', 'src': '/static/foodstim60/ice cream sundae 002.jpg', 'key': 'i', 'origWidth': 409, 'origHeight': 409, 'width': 409, 'height': 409, 'widthPercent': 0.45, 'rescaleHeight': False, 'trialN': 9, 'loaded': True, 'loadedTime': 2806.2999999523163, 'positionName': 'RIGHT', 'positionCoords': [748.8, 245.5], 'bid': 7.43}]",21268.599999964237,1669829624724,strawberries,ice cream sundae 002,7.37,7.43,0.05999999999999961,ice cream sundae 002,1920.0,1926,1925.9000000357628,True,i,23700.299999952316,2431.699999988079,1669829627156,2432,HRV,HRV_0068,2022-11-30 17:41:01
10,"[{'imgObject': {}, 'id': 'rigatoni and sauce', 'src': '/static/foodstim60/rigatoni and sauce.jpg', 'key': 'u', 'origWidth': 410, 'origHeight': 411, 'width': 410, 'height': 411, 'widthPercent': 0.45, 'rescaleHeight': False, 'trialN': 10, 'loaded': True, 'loadedTime': 2808.099999964237, 'positionName': 'LEFT', 'positionCoords': [281.2, 244.5], 'bid': 7.69}, {'imgObject': {}, 'id': 'chicken nuggets2', 'src': '/static/foodstim60/chicken nuggets2.jpg', 'key': 'i', 'origWidth': 410, 'origHeight': 409, 'width': 410, 'height': 409, 'widthPercent': 0.45, 'rescaleHeight': False, 'trialN': 10, 'loaded': True, 'loadedTime': 2813.599999964237, 'positionName': 'RIGHT', 'positionCoords': [748.8, 245.5], 'bid': 9.47}]",23700.69999998808,1669829627156,rigatoni and sauce,chicken nuggets2,7.69,9.47,1.7800000000000002,chicken nuggets2,1094.699999988079,1100,1099.3999999761581,True,i,25308.099999964237,1607.3999999761581,1669829628764,1608,HRV,HRV_0068,2022-11-30 17:41:01
11,"[{'imgObject': {}, 'id': 'turkeysandwich', 'src': '/static/foodstim60/turkeysandwich.jpg', 'key': 'u', 'origWidth': 409, 'origHeight': 409, 'width': 409, 'height': 409, 'widthPercent': 0.45, 'rescaleHeight': False, 'trialN': 11, 'loaded': True, 'loadedTime': 2802.399999976158, 'positionName': 'LEFT', 'positionCoords': [282.2, 245.5], 'bid': 7.55}, {'imgObject': {}, 'id': 'cherries', 'src': '/static/foodstim60/cherries.jpg', 'key': 'i', 'origWidth': 410, 'origHeight': 411, 'width': 410, 'height': 411, 'widthPercent': 0.45, 'rescaleHeight': False, 'trialN': 11, 'loaded': True, 'loadedTime': 2814, 'positionName': 'RIGHT', 'positionCoords': [748.8, 244.5], 'bid': 7.63}]",25308.399999976158,1669829628764,turkeysandwich,cherries,7.55,7.63,0.08000000000000007,turkeysandwich,1298.6000000238419,1302,1302.3999999761581,True,u,27116.299999952316,1807.8999999761581,1669829630572,1808,HRV,HRV_0068,2022-11-30 17:41:01
12,"[{'imgObject': {}, 'id': 'orange slices', 'src': '/static/foodstim60/orange slices.jpg', 'key': 'u', 'origWidth': 409, 'origHeight': 410, 'width': 409, 'height': 410, 'widthPercent': 0.45, 'rescaleHeight': False, 'trialN': 12, 'loaded': True, 'loadedTime': 2815.099999964237, 'positionName': 'LEFT', 'positionCoords': [282.2, 245], 'bid': 6.4}, {'imgObject': {}, 'id': 'cherry tomato', 'src': '/static/foodstim60/cherry tomato.jpg', 'key': 'i', 'origWidth': 410, 'origHeight': 410, 'width': 410, 'height': 410, 'widthPercent': 0.45, 'rescaleHeight': False, 'trialN': 12, 'loaded': True, 'loadedTime': 2825, 'positionName': 'RIGHT', 'positionCoords': [748.8, 245], 'bid': 5.0200000000000005}]",27116.69999998808,1669829630572,orange slices,cherry tomato,6.4,5.0200000000000005,-1.38,orange slices,1654.0999999642372,1659,1658.8999999761581,True,u,29284.299999952316,2167.599999964237,1669829632740,2168,HRV,HRV_0068,2022-11-30 17:41:01
13,"[{'imgObject': {}, 'id': 'sweetpotato', 'src': '/static/foodstim60/sweetpotato.jpg', 'key': 'u', 'origWidth': 410, 'origHeight': 410, 'width': 410, 'height': 410, 'widthPercent': 0.45, 'rescaleHeight': False, 'trialN': 13, 'loaded': True, 'loadedTime': 2825.699999988079, 'positionName': 'LEFT', 'positionCoords': [281.2, 245], 'bid': 5}, {'imgObject': {}, 'id': 'fruitsalad', 'src': '/static/foodstim60/fruitsalad.jpg', 'key': 'i', 'origWidth': 410, 'origHeight': 410, 'width': 410, 'height': 410, 'widthPercent': 0.45, 'rescaleHeight': False, 'trialN': 13, 'loaded': True, 'loadedTime': 2832.399999976158, 'positionName': 'RIGHT', 'positionCoords': [748.8, 245], 'bid': 4.4}]",29284.599999964237,1669829632740,sweetpotato,fruitsalad,5.0,4.4,-0.5999999999999996,sweetpotato,1751.0,1755,1755.4000000357628,True,u,31544.19999998808,2259.600000023842,1669829634999,2259,HRV,HRV_0068,2022-11-30 17:41:01
14,"[{'imgObject': {}, 'id': 'turkey sandwich', 'src': '/static/foodstim60/turkey sandwich.jpg', 'key': 'u', 'origWidth': 409, 'origHeight': 409, 'width': 409, 'height': 409, 'widthPercent': 0.45, 'rescaleHeight': False, 'trialN': 14, 'loaded': True, 'loadedTime': 2838.5, 'positionName': 'LEFT', 'positionCoords': [282.2, 245.5], 'bid': 7.63}, {'imgObject': {}, 'id': 'lox', 'src': '/static/foodstim60/lox.jpg', 'key': 'i', 'origWidth': 410, 'origHeight': 411, 'width': 410, 'height': 411, 'widthPercent': 0.45, 'rescaleHeight': False, 'trialN': 14, 'loaded': True, 'loadedTime': 2846.5, 'positionName': 'RIGHT', 'positionCoords': [748.8, 244.5], 'bid': 7.68}]",31544.5,1669829635000,turkey sandwich,lox,7.63,7.68,0.04999999999999982,turkey sandwich,2560.399999976158,2566,2566.399999976158,True,u,34616.19999998808,3071.699999988079,1669829638071,3071,HRV,HRV_0068,2022-11-30 17:41:01
15,"[{'imgObject': {}, 'id': 'cherries', 'src': '/static/foodstim60/cherries.jpg', 'key': 'u', 'origWidth': 410, 'origHeight': 411, 'width': 410, 'height': 411, 'widthPercent': 0.45, 'rescaleHeight': False, 'trialN': 15, 'loaded': True, 'loadedTime': 2814.5, 'positionName': 'LEFT', 'positionCoords': [281.2, 244.5], 'bid': 7.63}, {'imgObject': {}, 'id': 'burrito', 'src': '/static/foodstim60/burrito.jpg', 'key': 'i', 'origWidth': 410, 'origHeight': 410, 'width': 410, 'height': 410, 'widthPercent': 0.45, 'rescaleHeight': False, 'trialN': 15, 'loaded': True, 'loadedTime': 2847.099999964237, 'positionName': 'RIGHT', 'positionCoords': [748.8, 245], 'bid': 9.04}]",34616.5,1669829638071,cherries,burrito,7.63,9.04,1.4099999999999993,burrito,1062.3999999761581,1068,1067.2999999523163,True,i,36196.19999998808,1579.699999988079,1669829639651,1580,HRV,HRV_0068,2022-11-30 17:41:01
16,"[{'imgObject': {}, 'id': 'shreddedwheatwithmilk', 'src': '/static/foodstim60/shreddedwheatwithmilk.jpg', 'key': 'u', 'origWidth': 410, 'origHeight': 410, 'width': 410, 'height': 410, 'widthPercent': 0.45, 'rescaleHeight': False, 'trialN': 16, 'loaded': True, 'loadedTime': 2853.899999976158, 'positionName': 'LEFT', 'positionCoords': [281.2, 245], 'bid': 5.01}, {'imgObject': {}, 'id': 'edamame', 'src': '/static/foodstim60/edamame.jpg', 'key': 'i', 'origWidth': 409, 'origHeight': 410, 'width': 409, 'height': 410, 'widthPercent': 0.45, 'rescaleHeight': False, 'trialN': 16, 'loaded': True, 'loadedTime': 2860.5, 'positionName': 'RIGHT', 'positionCoords': [748.8, 245], 'bid': 4.98}]",36196.59999996424,1669829639651,shreddedwheatwithmilk,edamame,5.01,4.98,-0.02999999999999936,edamame,2092.5,2095,2094.600000023842,True,i,38800.19999998808,2603.600000023842,1669829642255,2604,HRV,HRV_0068,2022-11-30 17:41:01
17,"[{'imgObject': {}, 'id': 'mango', 'src': '/static/foodstim60/mango.jpg', 'key': 'u', 'origWidth': 411, 'origHeight': 411, 'width': 411, 'height': 411, 'widthPercent': 0.45, 'rescaleHeight': False, 'trialN': 17, 'loaded': True, 'loadedTime': 2866.399999976158, 'positionName': 'LEFT', 'positionCoords': [280.2, 244.5], 'bid': 5.9}, {'imgObject': {}, 'id': 'blueberries', 'src': '/static/foodstim60/blueberries.jpg', 'key': 'i', 'origWidth': 411, 'origHeight': 411, 'width': 411, 'height': 411, 'widthPercent': 0.45, 'rescaleHeight': False, 'trialN': 17, 'loaded': True, 'loadedTime': 2868.5, 'positionName': 'RIGHT', 'positionCoords': [748.8, 244.5], 'bid': 6.91}]",38800.69999998808,1669829642255,mango,blueberries,5.9,6.91,1.0099999999999998,blueberries,1625.0999999642372,1630,1629.699999988079,True,i,40936.09999996424,2135.399999976158,1669829644391,2136,HRV,HRV_0068,2022-11-30 17:41:01
18,"[{'imgObject': {}, 'id': 'roastedpotatoes', 'src': '/static/foodstim60/roastedpotatoes.jpg', 'key': 'u', 'origWidth': 409, 'origHeight': 410, 'width': 409, 'height': 410, 'widthPercent': 0.45, 'rescaleHeight': False, 'trialN': 18, 'loaded': True, 'loadedTime': 2805.399999976158, 'positionName': 'LEFT', 'positionCoords': [282.2, 245], 'bid': 7.75}, {'imgObject': {}, 'id': 'banana', 'src': '/static/foodstim60/banana.jpg', 'key': 'i', 'origWidth': 410, 'origHeight': 410, 'width': 410, 'height': 410, 'widthPercent': 0.45, 'rescaleHeight': False, 'trialN': 18, 'loaded': True, 'loadedTime': 2870.399999976158, 'positionName': 'RIGHT', 'positionCoords': [748.8, 245], 'bid': 6.3100000000000005}]",40936.39999997616,1669829644391,roastedpotatoes,banana,7.75,6.3100000000000005,-1.4399999999999995,roastedpotatoes,1619.300000011921,1623,1623.0,True,u,43064.09999996424,2127.699999988079,1669829646519,2128,HRV,HRV_0068,2022-11-30 17:41:01
19,"[{'imgObject': {}, 'id': 'raisin bran w milk', 'src': '/static/foodstim60/raisin bran w milk.jpg', 'key': 'u', 'origWidth': 411, 'origHeight': 411, 'width': 411, 'height': 411, 'widthPercent': 0.45, 'rescaleHeight': False, 'trialN': 19, 'loaded': True, 'loadedTime': 2871.099999964237, 'positionName': 'LEFT', 'positionCoords': [280.2, 244.5], 'bid': 3.5500000000000003}, {'imgObject': {}, 'id': 'apple slices', 'src': '/static/foodstim60/apple slices.jpg', 'key': 'i', 'origWidth': 409, 'origHeight': 410, 'width': 409, 'height': 410, 'widthPercent': 0.45, 'rescaleHeight': False, 'trialN': 19, 'loaded': True, 'loadedTime': 2810, 'positionName': 'RIGHT', 'positionCoords': [748.8, 245], 'bid': 4.62}]",43064.39999997616,1669829646519,raisin bran w milk,apple slices,3.5500000000000003,4.62,1.0699999999999998,apple slices,1030.6000000238419,1035,1035.3999999761581,True,i,44612.0,1547.6000000238419,1669829648067,1548,HRV,HRV_0068,2022-11-30 17:41:01
20,"[{'imgObject': {}, 'id': 'olives', 'src': '/static/foodstim60/olives.jpg', 'key': 'u', 'origWidth': 410, 'origHeight': 410, 'width': 410, 'height': 410, 'widthPercent': 0.45, 'rescaleHeight': False, 'trialN': 20, 'loaded': True, 'loadedTime': 2809.199999988079, 'positionName': 'LEFT', 'positionCoords': [281.2, 245], 'bid': 4.79}, {'imgObject': {}, 'id': 'granola w milk', 'src': '/static/foodstim60/granola w milk.jpg', 'key': 'i', 'origWidth': 410, 'origHeight': 410, 'width': 410, 'height': 410, 'widthPercent': 0.45, 'rescaleHeight': False, 'trialN': 20, 'loaded': True, 'loadedTime': 2871.7999999523163, 'positionName': 'RIGHT', 'positionCoords': [748.8, 245], 'bid': 3.31}]",44612.19999998808,1669829648067,olives,granola w milk,4.79,3.31,-1.48,olives,1834.0,1840,1840.0999999642372,True,u,46964.299999952316,2352.099999964237,1669829650419,2352,HRV,HRV_0068,2022-11-30 17:41:01
21,"[{'imgObject': {}, 'id': 'veggieswithdip', 'src': '/static/foodstim60/veggieswithdip.jpg', 'key': 'u', 'origWidth': 409, 'origHeight': 409, 'width': 409, 'height': 409, 'widthPercent': 0.45, 'rescaleHeight': False, 'trialN': 21, 'loaded': True, 'loadedTime': 2872.399999976158, 'positionName': 'LEFT', 'positionCoords': [282.2, 245.5], 'bid': 2.41}, {'imgObject': {}, 'id': 'fried eggs', 'src': '/static/foodstim60/fried eggs.jpg', 'key': 'i', 'origWidth': 410, 'origHeight': 410, 'width': 410, 'height': 410, 'widthPercent': 0.45, 'rescaleHeight': False, 'trialN': 21, 'loaded': True, 'loadedTime': 2873, 'positionName': 'RIGHT', 'positionCoords': [748.8, 245], 'bid': 6.51}]",46964.69999998808,1669829650419,veggieswithdip,fried eggs,2.41,6.51,4.1,fried eggs,918.3999999761581,923,923.3999999761581,True,i,48396.299999952316,1431.5999999642372,1669829651851,1432,HRV,HRV_0068,2022-11-30 17:41:01
22,"[{'imgObject': {}, 'id': 'mango', 'src': '/static/foodstim60/mango.jpg', 'key': 'u', 'origWidth': 411, 'origHeight': 411, 'width': 411, 'height': 411, 'widthPercent': 0.45, 'rescaleHeight': False, 'trialN': 22, 'loaded': True, 'loadedTime': 2867.699999988079, 'positionName': 'LEFT', 'positionCoords': [280.2, 244.5], 'bid': 5.9}, {'imgObject': {}, 'id': 'strawberries', 'src': '/static/foodstim60/strawberries.jpg', 'key': 'i', 'origWidth': 410, 'origHeight': 410, 'width': 410, 'height': 410, 'widthPercent': 0.45, 'rescaleHeight': False, 'trialN': 22, 'loaded': True, 'loadedTime': 2812.7999999523163, 'positionName': 'RIGHT', 'positionCoords': [748.8, 245], 'bid': 7.37}]",48396.59999996424,1669829651851,mango,strawberries,5.9,7.37,1.4699999999999998,strawberries,1211.699999988079,1217,1216.699999988079,True,i,50124.299999952316,1727.699999988079,1669829653578,1727,HRV,HRV_0068,2022-11-30 17:41:01
23,"[{'imgObject': {}, 'id': 'chickenfingers', 'src': '/static/foodstim60/chickenfingers.jpg', 'key': 'u', 'origWidth': 410, 'origHeight': 410, 'width': 410, 'height': 410, 'widthPercent': 0.45, 'rescaleHeight': False, 'trialN': 23, 'loaded': True, 'loadedTime': 2875.599999964237, 'positionName': 'LEFT', 'positionCoords': [281.2, 245], 'bid': 9.5}, {'imgObject': {}, 'id': 'turkeysandwich', 'src': '/static/foodstim60/turkeysandwich.jpg', 'key': 'i', 'origWidth': 409, 'origHeight': 409, 'width': 409, 'height': 409, 'widthPercent': 0.45, 'rescaleHeight': False, 'trialN': 23, 'loaded': True, 'loadedTime': 2802.899999976158, 'positionName': 'RIGHT', 'positionCoords': [748.8, 245.5], 'bid': 7.55}]",50124.5,1669829653579,chickenfingers,turkeysandwich,9.5,7.55,-1.9500000000000002,chickenfingers,1267.5999999642372,1271,1271.7999999523163,True,u,51904.299999952316,1779.7999999523163,1669829655358,1779,HRV,HRV_0068,2022-11-30 17:41:01
24,"[{'imgObject': {}, 'id': 'raisin bran w milk', 'src': '/static/foodstim60/raisin bran w milk.jpg', 'key': 'u', 'origWidth': 411, 'origHeight': 411, 'width': 411, 'height': 411, 'widthPercent': 0.45, 'rescaleHeight': False, 'trialN': 24, 'loaded': True, 'loadedTime': 2871.099999964237, 'positionName': 'LEFT', 'positionCoords': [280.2, 244.5], 'bid': 3.5500000000000003}, {'imgObject': {}, 'id': 'blueberries', 'src': '/static/foodstim60/blueberries.jpg', 'key': 'i', 'origWidth': 411, 'origHeight': 411, 'width': 411, 'height': 411, 'widthPercent': 0.45, 'rescaleHeight': False, 'trialN': 24, 'loaded': True, 'loadedTime': 2868.599999964237, 'positionName': 'RIGHT', 'positionCoords': [748.8, 244.5], 'bid': 6.91}]",51904.5,1669829655359,raisin bran w milk,blueberries,3.5500000000000003,6.91,3.36,blueberries,921.0,925,925.5,True,i,53340.19999998808,1435.699999988079,1669829656794,1435,HRV,HRV_0068,2022-11-30 17:41:01
25,"[{'imgObject': {}, 'id': 'burger', 'src': '/static/foodstim60/burger.jpg', 'key': 'u', 'origWidth': 409, 'origHeight': 409, 'width': 409, 'height': 409, 'widthPercent': 0.45, 'rescaleHeight': False, 'trialN': 25, 'loaded': True, 'loadedTime': 2876.2999999523163, 'positionName': 'LEFT', 'positionCoords': [282.2, 245.5], 'bid': 8.120000000000001}, {'imgObject': {}, 'id': 'roastedpotatoes', 'src': '/static/foodstim60/roastedpotatoes.jpg', 'key': 'i', 'origWidth': 409, 'origHeight': 410, 'width': 409, 'height': 410, 'widthPercent': 0.45, 'rescaleHeight': False, 'trialN': 25, 'loaded': True, 'loadedTime': 2806, 'positionName': 'RIGHT', 'positionCoords': [748.8, 245], 'bid': 7.75}]",53340.39999997616,1669829656795,burger,roastedpotatoes,8.120000000000001,7.75,-0.370000000000001,burger,1893.8999999761581,1897,1898.1000000238419,True,u,55747.89999997616,2407.5,1669829659202,2407,HRV,HRV_0068,2022-11-30 17:41:01
26,"[{'imgObject': {}, 'id': 'raspberries', 'src': '/static/foodstim60/raspberries.jpg', 'key': 'u', 'origWidth': 411, 'origHeight': 411, 'width': 411, 'height': 411, 'widthPercent': 0.45, 'rescaleHeight': False, 'trialN': 26, 'loaded': True, 'loadedTime': 2882.699999988079, 'positionName': 'LEFT', 'positionCoords': [280.2, 244.5], 'bid': 5.86}, {'imgObject': {}, 'id': 'steak', 'src': '/static/foodstim60/steak.jpg', 'key': 'i', 'origWidth': 410, 'origHeight': 410, 'width': 410, 'height': 410, 'widthPercent': 0.45, 'rescaleHeight': False, 'trialN': 26, 'loaded': True, 'loadedTime': 2883.899999976158, 'positionName': 'RIGHT', 'positionCoords': [748.8, 245], 'bid': 9.66}]",55748.19999998808,1669829659202,raspberries,steak,5.86,9.66,3.8,steak,751.3000000119209,757,756.8999999761581,True,i,57012.299999952316,1264.0999999642372,1669829660466,1264,HRV,HRV_0068,2022-11-30 17:41:01
27,"[{'imgObject': {}, 'id': 'corn cob', 'src': '/static/foodstim60/corn cob.jpg', 'key': 'u', 'origWidth': 411, 'origHeight': 411, 'width': 411, 'height': 411, 'widthPercent': 0.45, 'rescaleHeight': False, 'trialN': 27, 'loaded': True, 'loadedTime': 2888.5, 'positionName': 'LEFT', 'positionCoords': [280.2, 244.5], 'bid': 5}, {'imgObject': {}, 'id': 'Tribe humus pita', 'src': '/static/foodstim60/Tribe humus pita.jpg', 'key': 'i', 'origWidth': 411, 'origHeight': 411, 'width': 411, 'height': 411, 'widthPercent': 0.45, 'rescaleHeight': False, 'trialN': 27, 'loaded': True, 'loadedTime': 2889, 'positionName': 'RIGHT', 'positionCoords': [748.8, 244.5], 'bid': 5.01}]",57012.59999996424,1669829660466,corn cob,Tribe humus pita,5.0,5.01,0.009999999999999787,Tribe humus pita,1711.9000000357628,1717,1717.0,True,i,59236.39999997616,2223.800000011921,1669829662690,2224,HRV,HRV_0068,2022-11-30 17:41:01
28,"[{'imgObject': {}, 'id': 'cherry tomato', 'src': '/static/foodstim60/cherry tomato.jpg', 'key': 'u', 'origWidth': 410, 'origHeight': 410, 'width': 410, 'height': 410, 'widthPercent': 0.45, 'rescaleHeight': False, 'trialN': 28, 'loaded': True, 'loadedTime': 2825, 'positionName': 'LEFT', 'positionCoords': [281.2, 245], 'bid': 5.0200000000000005}, {'imgObject': {}, 'id': 'avocado', 'src': '/static/foodstim60/avocado.jpg', 'key': 'i', 'origWidth': 409, 'origHeight': 409, 'width': 409, 'height': 409, 'widthPercent': 0.45, 'rescaleHeight': False, 'trialN': 28, 'loaded': True, 'loadedTime': 2893.899999976158, 'positionName': 'RIGHT', 'positionCoords': [748.8, 245.5], 'bid': 8.870000000000001}]",59236.69999998808,1669829662690,cherry tomato,avocado,5.0200000000000005,8.870000000000001,3.8500000000000005,avocado,918.8000000119209,924,923.8999999761581,True,i,60668.299999952316,1431.5999999642372,1669829664122,1432,HRV,HRV_0068,2022-11-30 17:41:01
29,"[{'imgObject': {}, 'id': 'roastedpotatoes', 'src': '/static/foodstim60/roastedpotatoes.jpg', 'key': 'u', 'origWidth': 409, 'origHeight': 410, 'width': 409, 'height': 410, 'widthPercent': 0.45, 'rescaleHeight': False, 'trialN': 29, 'loaded': True, 'loadedTime': 2806.099999964237, 'positionName': 'LEFT', 'positionCoords': [282.2, 245], 'bid': 7.75}, {'imgObject': {}, 'id': 'sweetpotato', 'src': '/static/foodstim60/sweetpotato.jpg', 'key': 'i', 'origWidth': 410, 'origHeight': 410, 'width': 410, 'height': 410, 'widthPercent': 0.45, 'rescaleHeight': False, 'trialN': 29, 'loaded': True, 'loadedTime': 2825.199999988079, 'positionName': 'RIGHT', 'positionCoords': [748.8, 245], 'bid': 5}]",60668.59999996424,1669829664122,roastedpotatoes,sweetpotato,7.75,5.0,-2.75,roastedpotatoes,1102.699999988079,1108,1107.4000000357628,True,u,62280.09999996424,1611.5,1669829665734,1612,HRV,HRV_0068,2022-11-30 17:41:01
30,"[{'imgObject': {}, 'id': 'blackbeanswithrice', 'src': '/static/foodstim60/blackbeanswithrice.jpg', 'key': 'u', 'origWidth': 410, 'origHeight': 410, 'width': 410, 'height': 410, 'widthPercent': 0.45, 'rescaleHeight': False, 'trialN': 30, 'loaded': True, 'loadedTime': 2811.599999964237, 'positionName': 'LEFT', 'positionCoords': [281.2, 245], 'bid': 8.09}, {'imgObject': {}, 'id': 'orange slices', 'src': '/static/foodstim60/orange slices.jpg', 'key': 'i', 'origWidth': 409, 'origHeight': 410, 'width': 409, 'height': 410, 'widthPercent': 0.45, 'rescaleHeight': False, 'trialN': 30, 'loaded': True, 'loadedTime': 2814.699999988079, 'positionName': 'RIGHT', 'positionCoords': [748.8, 245], 'bid': 6.4}]",62280.299999952316,1669829665734,blackbeanswithrice,orange slices,8.09,6.4,-1.6899999999999995,blackbeanswithrice,1021.4000000357628,1026,1026.2000000476837,True,u,63812.299999952316,1532.0,1669829667266,1532,HRV,HRV_0068,2022-11-30 17:41:01
31,"[{'imgObject': {}, 'id': 'seaweed', 'src': '/static/foodstim60/seaweed.jpg', 'key': 'u', 'origWidth': 410, 'origHeight': 410, 'width': 410, 'height': 410, 'widthPercent': 0.45, 'rescaleHeight': False, 'trialN': 31, 'loaded': True, 'loadedTime': 2792.399999976158, 'positionName': 'LEFT', 'positionCoords': [281.2, 245], 'bid': 5}, {'imgObject': {}, 'id': 'rigatoni and sauce', 'src': '/static/foodstim60/rigatoni and sauce.jpg', 'key': 'i', 'origWidth': 410, 'origHeight': 411, 'width': 410, 'height': 411, 'widthPercent': 0.45, 'rescaleHeight': False, 'trialN': 31, 'loaded': True, 'loadedTime': 2808.099999964237, 'positionName': 'RIGHT', 'positionCoords': [748.8, 244.5], 'bid': 7.69}]",63812.59999996424,1669829667266,seaweed,rigatoni and sauce,5.0,7.69,2.6900000000000004,rigatoni and sauce,1004.8000000119209,1010,1009.5,True,i,65328.89999997616,1516.300000011921,1669829668782,1516,HRV,HRV_0068,2022-11-30 17:41:01
32,"[{'imgObject': {}, 'id': 'shreddedwheatwithmilk', 'src': '/static/foodstim60/shreddedwheatwithmilk.jpg', 'key': 'u', 'origWidth': 410, 'origHeight': 410, 'width': 410, 'height': 410, 'widthPercent': 0.45, 'rescaleHeight': False, 'trialN': 32, 'loaded': True, 'loadedTime': 2859.699999988079, 'positionName': 'LEFT', 'positionCoords': [281.2, 245], 'bid': 5.01}, {'imgObject': {}, 'id': 'corn cob', 'src': '/static/foodstim60/corn cob.jpg', 'key': 'i', 'origWidth': 411, 'origHeight': 411, 'width': 411, 'height': 411, 'widthPercent': 0.45, 'rescaleHeight': False, 'trialN': 32, 'loaded': True, 'loadedTime': 2888.399999976158, 'positionName': 'RIGHT', 'positionCoords': [748.8, 244.5], 'bid': 5}]",65329.19999998808,1669829668783,shreddedwheatwithmilk,corn cob,5.01,5.0,-0.009999999999999787,corn cob,1893.5,1898,1898.0999999642372,True,i,67740.19999998808,2411.0,1669829671194,2411,HRV,HRV_0068,2022-11-30 17:41:01
33,"[{'imgObject': {}, 'id': 'bagel plain', 'src': '/static/foodstim60/bagel plain.jpg', 'key': 'u', 'origWidth': 410, 'origHeight': 410, 'width': 410, 'height': 410, 'widthPercent': 0.45, 'rescaleHeight': False, 'trialN': 33, 'loaded': True, 'loadedTime': 2895.099999964237, 'positionName': 'LEFT', 'positionCoords': [281.2, 245], 'bid': 5.0200000000000005}, {'imgObject': {}, 'id': 'fruitsalad', 'src': '/static/foodstim60/fruitsalad.jpg', 'key': 'i', 'origWidth': 410, 'origHeight': 410, 'width': 410, 'height': 410, 'widthPercent': 0.45, 'rescaleHeight': False, 'trialN': 33, 'loaded': True, 'loadedTime': 2832.599999964237, 'positionName': 'RIGHT', 'positionCoords': [748.8, 245], 'bid': 4.4}]",67740.5,1669829671194,bagel plain,fruitsalad,5.0200000000000005,4.4,-0.6200000000000001,bagel plain,1665.2999999523163,1669,1669.5999999642372,True,u,69916.29999995232,2175.7999999523163,1669829673369,2175,HRV,HRV_0068,2022-11-30 17:41:01
34,"[{'imgObject': {}, 'id': 'turkeysandwich', 'src': '/static/foodstim60/turkeysandwich.jpg', 'key': 'u', 'origWidth': 409, 'origHeight': 409, 'width': 409, 'height': 409, 'widthPercent': 0.45, 'rescaleHeight': False, 'trialN': 34, 'loaded': True, 'loadedTime': 2802.399999976158, 'positionName': 'LEFT', 'positionCoords': [282.2, 245.5], 'bid': 7.55}, {'imgObject': {}, 'id': 'kiwi', 'src': '/static/foodstim60/kiwi.jpg', 'key': 'i', 'origWidth': 410, 'origHeight': 410, 'width': 410, 'height': 410, 'widthPercent': 0.45, 'rescaleHeight': False, 'trialN': 34, 'loaded': True, 'loadedTime': 2772.7999999523163, 'positionName': 'RIGHT', 'positionCoords': [748.8, 245], 'bid': 4.8}]",69916.59999996424,1669829673370,turkeysandwich,kiwi,7.55,4.8,-2.75,turkeysandwich,1056.9000000357628,1061,1061.6000000238419,True,u,71480.19999998808,1563.6000000238419,1669829674933,1563,HRV,HRV_0068,2022-11-30 17:41:01
35,"[{'imgObject': {}, 'id': 'raspberries', 'src': '/static/foodstim60/raspberries.jpg', 'key': 'u', 'origWidth': 411, 'origHeight': 411, 'width': 411, 'height': 411, 'widthPercent': 0.45, 'rescaleHeight': False, 'trialN': 35, 'loaded': True, 'loadedTime': 2876.899999976158, 'positionName': 'LEFT', 'positionCoords': [280.2, 244.5], 'bid': 5.86}, {'imgObject': {}, 'id': 'baked potato', 'src': '/static/foodstim60/baked potato.jpg', 'key': 'i', 'origWidth': 409, 'origHeight': 410, 'width': 409, 'height': 410, 'widthPercent': 0.45, 'rescaleHeight': False, 'trialN': 35, 'loaded': True, 'loadedTime': 2896.5, 'positionName': 'RIGHT', 'positionCoords': [748.8, 245], 'bid': 7.23}]",71480.5,1669829674934,raspberries,baked potato,5.86,7.23,1.37,baked potato,1986.0999999642372,1990,1990.699999988079,True,i,73977.39999997616,2496.899999976158,1669829677430,2496,HRV,HRV_0068,2022-11-30 17:41:01
36,"[{'imgObject': {}, 'id': 'mashed potato', 'src': '/static/foodstim60/mashed potato.jpg', 'key': 'u', 'origWidth': 409, 'origHeight': 409, 'width': 409, 'height': 409, 'widthPercent': 0.45, 'rescaleHeight': False, 'trialN': 36, 'loaded': True, 'loadedTime': 2902.699999988079, 'positionName': 'LEFT', 'positionCoords': [282.2, 245.5], 'bid': 5.01}, {'imgObject': {}, 'id': 'mac & cheese', 'src': '/static/foodstim60/mac & cheese.jpg', 'key': 'i', 'origWidth': 410, 'origHeight': 410, 'width': 410, 'height': 410, 'widthPercent': 0.45, 'rescaleHeight': False, 'trialN': 36, 'loaded': True, 'loadedTime': 2902.899999976158, 'positionName': 'RIGHT', 'positionCoords': [748.8, 245], 'bid': 8.75}]",73977.69999998808,1669829677431,mashed potato,mac & cheese,5.01,8.75,3.74,mac & cheese,1361.199999988079,1366,1365.8999999761581,True,i,75852.29999995232,1874.5999999642372,1669829679305,1874,HRV,HRV_0068,2022-11-30 17:41:01
37,"[{'imgObject': {}, 'id': 'cherry tomato', 'src': '/static/foodstim60/cherry tomato.jpg', 'key': 'u', 'origWidth': 410, 'origHeight': 410, 'width': 410, 'height': 410, 'widthPercent': 0.45, 'rescaleHeight': False, 'trialN': 37, 'loaded': True, 'loadedTime': 2818, 'positionName': 'LEFT', 'positionCoords': [281.2, 245], 'bid': 5.0200000000000005}, {'imgObject': {}, 'id': 'bagel plain', 'src': '/static/foodstim60/bagel plain.jpg', 'key': 'i', 'origWidth': 410, 'origHeight': 410, 'width': 410, 'height': 410, 'widthPercent': 0.45, 'rescaleHeight': False, 'trialN': 37, 'loaded': True, 'loadedTime': 2895.699999988079, 'positionName': 'RIGHT', 'positionCoords': [748.8, 245], 'bid': 5.0200000000000005}]",75852.5,1669829679305,cherry tomato,bagel plain,5.0200000000000005,5.0200000000000005,0.0,bagel plain,2710.5,2713,2713.199999988079,True,i,79075.29999995232,3222.7999999523163,1669829682528,3223,HRV,HRV_0068,2022-11-30 17:41:01
38,"[{'imgObject': {}, 'id': 'Grapes', 'src': '/static/foodstim60/Grapes.jpg', 'key': 'u', 'origWidth': 411, 'origHeight': 411, 'width': 411, 'height': 411, 'widthPercent': 0.45, 'rescaleHeight': False, 'trialN': 38, 'loaded': True, 'loadedTime': 2903.699999988079, 'positionName': 'LEFT', 'positionCoords': [280.2, 244.5], 'bid': 5.54}, {'imgObject': {}, 'id': 'raspberries', 'src': '/static/foodstim60/raspberries.jpg', 'key': 'i', 'origWidth': 411, 'origHeight': 411, 'width': 411, 'height': 411, 'widthPercent': 0.45, 'rescaleHeight': False, 'trialN': 38, 'loaded': True, 'loadedTime': 2881.2999999523163, 'positionName': 'RIGHT', 'positionCoords': [748.8, 244.5], 'bid': 5.86}]",79075.59999996424,1669829682528,Grapes,raspberries,5.54,5.86,0.3200000000000003,Grapes,2552.0,2557,2556.900000035763,True,u,82140.19999998808,3064.600000023842,1669829685593,3065,HRV,HRV_0068,2022-11-30 17:41:01
39,"[{'imgObject': {}, 'id': 'cheerios', 'src': '/static/foodstim60/cheerios.jpg', 'key': 'u', 'origWidth': 409, 'origHeight': 410, 'width': 409, 'height': 410, 'widthPercent': 0.45, 'rescaleHeight': False, 'trialN': 39, 'loaded': True, 'loadedTime': 2904.599999964237, 'positionName': 'LEFT', 'positionCoords': [282.2, 245], 'bid': 5}, {'imgObject': {}, 'id': 'mango', 'src': '/static/foodstim60/mango.jpg', 'key': 'i', 'origWidth': 411, 'origHeight': 411, 'width': 411, 'height': 411, 'widthPercent': 0.45, 'rescaleHeight': False, 'trialN': 39, 'loaded': True, 'loadedTime': 2860.5, 'positionName': 'RIGHT', 'positionCoords': [748.8, 244.5], 'bid': 5.9}]",82140.5,1669829685593,cheerios,mango,5.0,5.9,0.9000000000000004,mango,3367.599999964237,3372,3372.2999999523163,True,i,86016.29999995232,3875.7999999523163,1669829689469,3876,HRV,HRV_0068,2022-11-30 17:41:01
40,"[{'imgObject': {}, 'id': 'avocado', 'src': '/static/foodstim60/avocado.jpg', 'key': 'u', 'origWidth': 409, 'origHeight': 409, 'width': 409, 'height': 409, 'widthPercent': 0.45, 'rescaleHeight': False, 'trialN': 40, 'loaded': True, 'loadedTime': 2895, 'positionName': 'LEFT', 'positionCoords': [282.2, 245.5], 'bid': 8.870000000000001}, {'imgObject': {}, 'id': 'mac & cheese', 'src': '/static/foodstim60/mac & cheese.jpg', 'key': 'i', 'origWidth': 410, 'origHeight': 410, 'width': 410, 'height': 410, 'widthPercent': 0.45, 'rescaleHeight': False, 'trialN': 40, 'loaded': True, 'loadedTime': 2903.599999964237, 'positionName': 'RIGHT', 'positionCoords': [748.8, 245], 'bid': 8.75}]",86016.59999996424,1669829689469,avocado,mac & cheese,8.870000000000001,8.75,-0.120000000000001,mac & cheese,1891.4000000357628,1896,1896.4000000357628,True,i,88417.09999996424,2400.5,1669829691869,2400,HRV,HRV_0068,2022-11-30 17:41:01
41,"[{'imgObject': {}, 'id': 'sushi w_condiments', 'src': '/static/foodstim60/sushi w_condiments.jpg', 'key': 'u', 'origWidth': 410, 'origHeight': 410, 'width': 410, 'height': 410, 'widthPercent': 0.45, 'rescaleHeight': False, 'trialN': 41, 'loaded': True, 'loadedTime': 2812.2999999523163, 'positionName': 'LEFT', 'positionCoords': [281.2, 245], 'bid': 9.73}, {'imgObject': {}, 'id': 'steak', 'src': '/static/foodstim60/steak.jpg', 'key': 'i', 'origWidth': 410, 'origHeight': 410, 'width': 410, 'height': 410, 'widthPercent': 0.45, 'rescaleHeight': False, 'trialN': 41, 'loaded': True, 'loadedTime': 2883.699999988079, 'positionName': 'RIGHT', 'positionCoords': [748.8, 245], 'bid': 9.66}]",88417.39999997616,1669829691870,sushi w_condiments,steak,9.73,9.66,-0.07000000000000028,steak,1770.699999988079,1776,1776.0,True,i,90696.29999995232,2278.899999976158,1669829694148,2278,HRV,HRV_0068,2022-11-30 17:41:01
42,"[{'imgObject': {}, 'id': 'pear', 'src': '/static/foodstim60/pear.jpg', 'key': 'u', 'origWidth': 411, 'origHeight': 410, 'width': 411, 'height': 410, 'widthPercent': 0.45, 'rescaleHeight': False, 'trialN': 42, 'loaded': True, 'loadedTime': 2809.399999976158, 'positionName': 'LEFT', 'positionCoords': [280.2, 245], 'bid': 4.65}, {'imgObject': {}, 'id': 'eggsalad', 'src': '/static/foodstim60/eggsalad.jpg', 'key': 'i', 'origWidth': 410, 'origHeight': 409, 'width': 410, 'height': 409, 'widthPercent': 0.45, 'rescaleHeight': False, 'trialN': 42, 'loaded': True, 'loadedTime': 2905.2999999523163, 'positionName': 'RIGHT', 'positionCoords': [748.8, 245.5], 'bid': 1.38}]",90696.59999996424,1669829694149,pear,eggsalad,4.65,1.38,-3.2700000000000005,pear,1459.6000000238419,1464,1464.4000000357628,True,u,92668.29999995232,1971.699999988079,1669829696120,1971,HRV,HRV_0068,2022-11-30 17:41:01
43,"[{'imgObject': {}, 'id': 'strawberries', 'src': '/static/foodstim60/strawberries.jpg', 'key': 'u', 'origWidth': 410, 'origHeight': 410, 'width': 410, 'height': 410, 'widthPercent': 0.45, 'rescaleHeight': False, 'trialN': 43, 'loaded': True, 'loadedTime': 2812.399999976158, 'positionName': 'LEFT', 'positionCoords': [281.2, 245], 'bid': 7.37}, {'imgObject': {}, 'id': 'eggs', 'src': '/static/foodstim60/eggs.jpg', 'key': 'i', 'origWidth': 409, 'origHeight': 409, 'width': 409, 'height': 409, 'widthPercent': 0.45, 'rescaleHeight': False, 'trialN': 43, 'loaded': True, 'loadedTime': 2759.599999964237, 'positionName': 'RIGHT', 'positionCoords': [748.8, 245.5], 'bid': 4.7700000000000005}]",92668.59999996424,1669829696121,strawberries,eggs,7.37,4.7700000000000005,-2.5999999999999996,strawberries,1331.4000000357628,1336,1336.199999988079,True,u,94516.29999995232,1847.699999988079,1669829697968,1847,HRV,HRV_0068,2022-11-30 17:41:01
44,"[{'imgObject': {}, 'id': 'bagel and cc', 'src': '/static/foodstim60/bagel and cc.jpg', 'key': 'u', 'origWidth': 410, 'origHeight': 410, 'width': 410, 'height': 410, 'widthPercent': 0.45, 'rescaleHeight': False, 'trialN': 44, 'loaded': True, 'loadedTime': 2912.199999988079, 'positionName': 'LEFT', 'positionCoords': [281.2, 245], 'bid': 5.41}, {'imgObject': {}, 'id': 'hotdog w must', 'src': '/static/foodstim60/hotdog w must.jpg', 'key': 'i', 'origWidth': 409, 'origHeight': 409, 'width': 409, 'height': 409, 'widthPercent': 0.45, 'rescaleHeight': False, 'trialN': 44, 'loaded': True, 'loadedTime': 2919.5, 'positionName': 'RIGHT', 'positionCoords': [748.8, 245.5], 'bid': 6.88}]",94516.39999997616,1669829697968,bagel and cc,hotdog w must,5.41,6.88,1.4699999999999998,hotdog w must,1269.0,1274,1273.800000011921,True,i,96297.39999997616,1781.0,1669829699749,1781,HRV,HRV_0068,2022-11-30 17:41:01
45,"[{'imgObject': {}, 'id': 'bagel and cc', 'src': '/static/foodstim60/bagel and cc.jpg', 'key': 'u', 'origWidth': 410, 'origHeight': 410, 'width': 410, 'height': 410, 'widthPercent': 0.45, 'rescaleHeight': False, 'trialN': 45, 'loaded': True, 'loadedTime': 2912, 'positionName': 'LEFT', 'positionCoords': [281.2, 245], 'bid': 5.41}, {'imgObject': {}, 'id': 'cherry tomato', 'src': '/static/foodstim60/cherry tomato.jpg', 'key': 'i', 'origWidth': 410, 'origHeight': 410, 'width': 410, 'height': 410, 'widthPercent': 0.45, 'rescaleHeight': False, 'trialN': 45, 'loaded': True, 'loadedTime': 2824.5, 'positionName': 'RIGHT', 'positionCoords': [748.8, 245], 'bid': 5.0200000000000005}]",96297.59999996424,1669829699750,bagel and cc,cherry tomato,5.41,5.0200000000000005,-0.3899999999999997,bagel and cc,2920.699999988079,2925,2925.300000011921,True,u,99728.19999998808,3430.600000023842,1669829703180,3430,HRV,HRV_0068,2022-11-30 17:41:01
46,"[{'imgObject': {}, 'id': 'eggs', 'src': '/static/foodstim60/eggs.jpg', 'key': 'u', 'origWidth': 409, 'origHeight': 409, 'width': 409, 'height': 409, 'widthPercent': 0.45, 'rescaleHeight': False, 'trialN': 46, 'loaded': True, 'loadedTime': 2759.7999999523163, 'positionName': 'LEFT', 'positionCoords': [282.2, 245.5], 'bid': 4.7700000000000005}, {'imgObject': {}, 'id': 'olives', 'src': '/static/foodstim60/olives.jpg', 'key': 'i', 'origWidth': 410, 'origHeight': 410, 'width': 410, 'height': 410, 'widthPercent': 0.45, 'rescaleHeight': False, 'trialN': 46, 'loaded': True, 'loadedTime': 2809.2999999523163, 'positionName': 'RIGHT', 'positionCoords': [748.8, 245], 'bid': 4.79}]",99728.5,1669829703180,eggs,olives,4.7700000000000005,4.79,0.019999999999999574,eggs,2789.0,2795,2795.2999999523163,True,u,103036.19999998808,3307.699999988079,1669829706488,3308,HRV,HRV_0068,2022-11-30 17:41:01
47,"[{'imgObject': {}, 'id': 'strawberries', 'src': '/static/foodstim60/strawberries.jpg', 'key': 'u', 'origWidth': 410, 'origHeight': 410, 'width': 410, 'height': 410, 'widthPercent': 0.45, 'rescaleHeight': False, 'trialN': 47, 'loaded': True, 'loadedTime': 2812.899999976158, 'positionName': 'LEFT', 'positionCoords': [281.2, 245], 'bid': 7.37}, {'imgObject': {}, 'id': 'grilled chicken strips', 'src': '/static/foodstim60/grilled chicken strips.jpg', 'key': 'i', 'origWidth': 410, 'origHeight': 411, 'width': 410, 'height': 411, 'widthPercent': 0.45, 'rescaleHeight': False, 'trialN': 47, 'loaded': True, 'loadedTime': 2921.7999999523163, 'positionName': 'RIGHT', 'positionCoords': [748.8, 244.5], 'bid': 9.3}]",103036.39999997616,1669829706488,strawberries,grilled chicken strips,7.37,9.3,1.9300000000000006,grilled chicken strips,1176.1000000238419,1181,1180.8999999761581,True,i,104724.29999995232,1687.8999999761581,1669829708176,1688,HRV,HRV_0068,2022-11-30 17:41:01
48,"[{'imgObject': {}, 'id': 'bagel and cc', 'src': '/static/foodstim60/bagel and cc.jpg', 'key': 'u', 'origWidth': 410, 'origHeight': 410, 'width': 410, 'height': 410, 'widthPercent': 0.45, 'rescaleHeight': False, 'trialN': 48, 'loaded': True, 'loadedTime': 2912.099999964237, 'positionName': 'LEFT', 'positionCoords': [281.2, 245], 'bid': 5.41}, {'imgObject': {}, 'id': 'grilled chicken strips', 'src': '/static/foodstim60/grilled chicken strips.jpg', 'key': 'i', 'origWidth': 410, 'origHeight': 411, 'width': 410, 'height': 411, 'widthPercent': 0.45, 'rescaleHeight': False, 'trialN': 48, 'loaded': True, 'loadedTime': 2921.899999976158, 'positionName': 'RIGHT', 'positionCoords': [748.8, 244.5], 'bid': 9.3}]",104724.59999996424,1669829708176,bagel and cc,grilled chicken strips,5.41,9.3,3.8900000000000006,grilled chicken strips,758.1000000238419,761,761.1000000238419,True,i,105991.39999997616,1266.800000011921,1669829709443,1267,HRV,HRV_0068,2022-11-30 17:41:01
49,"[{'imgObject': {}, 'id': 'ice cream sundae 002', 'src': '/static/foodstim60/ice cream sundae 002.jpg', 'key': 'u', 'origWidth': 409, 'origHeight': 409, 'width': 409, 'height': 409, 'widthPercent': 0.45, 'rescaleHeight': False, 'trialN': 49, 'loaded': True, 'loadedTime': 2807, 'positionName': 'LEFT', 'positionCoords': [282.2, 245.5], 'bid': 7.43}, {'imgObject': {}, 'id': 'baked potato', 'src': '/static/foodstim60/baked potato.jpg', 'key': 'i', 'origWidth': 409, 'origHeight': 410, 'width': 409, 'height': 410, 'widthPercent': 0.45, 'rescaleHeight': False, 'trialN': 49, 'loaded': True, 'loadedTime': 2896.5, 'positionName': 'RIGHT', 'positionCoords': [748.8, 245], 'bid': 7.23}]",105991.79999995232,1669829709443,ice cream sundae 002,baked potato,7.43,7.23,-0.1999999999999993,baked potato,1473.2000000476837,1476,1475.7000000476837,True,i,107980.19999998808,1988.4000000357628,1669829711432,1989,HRV,HRV_0068,2022-11-30 17:41:01
50,"[{'imgObject': {}, 'id': 'cherries', 'src': '/static/foodstim60/cherries.jpg', 'key': 'u', 'origWidth': 410, 'origHeight': 411, 'width': 410, 'height': 411, 'widthPercent': 0.45, 'rescaleHeight': False, 'trialN': 50, 'loaded': True, 'loadedTime': 2814.399999976158, 'positionName': 'LEFT', 'positionCoords': [281.2, 244.5], 'bid': 7.63}, {'imgObject': {}, 'id': 'edamame', 'src': '/static/foodstim60/edamame.jpg', 'key': 'i', 'origWidth': 409, 'origHeight': 410, 'width': 409, 'height': 410, 'widthPercent': 0.45, 'rescaleHeight': False, 'trialN': 50, 'loaded': True, 'loadedTime': 2859.699999988079, 'positionName': 'RIGHT', 'positionCoords': [748.8, 245], 'bid': 4.98}]",107980.5,1669829711432,cherries,edamame,7.63,4.98,-2.6499999999999995,cherries,1568.699999988079,1571,1571.199999988079,True,u,110056.29999995232,2075.7999999523163,1669829713507,2075,HRV,HRV_0068,2022-11-30 17:41:01
51,"[{'imgObject': {}, 'id': 'froot loops w milk', 'src': '/static/foodstim60/froot loops w milk.jpg', 'key': 'u', 'origWidth': 410, 'origHeight': 410, 'width': 410, 'height': 410, 'widthPercent': 0.45, 'rescaleHeight': False, 'trialN': 51, 'loaded': True, 'loadedTime': 2923, 'positionName': 'LEFT', 'positionCoords': [281.2, 245], 'bid': 5.05}, {'imgObject': {}, 'id': 'pear', 'src': '/static/foodstim60/pear.jpg', 'key': 'i', 'origWidth': 411, 'origHeight': 410, 'width': 411, 'height': 410, 'widthPercent': 0.45, 'rescaleHeight': False, 'trialN': 51, 'loaded': True, 'loadedTime': 2809.899999976158, 'positionName': 'RIGHT', 'positionCoords': [748.8, 245], 'bid': 4.65}]",110056.5,1669829713508,froot loops w milk,pear,5.05,4.65,-0.39999999999999947,froot loops w milk,2136.699999988079,2141,2141.5,True,u,112708.29999995232,2651.7999999523163,1669829716159,2651,HRV,HRV_0068,2022-11-30 17:41:01
52,"[{'imgObject': {}, 'id': 'edamame', 'src': '/static/foodstim60/edamame.jpg', 'key': 'u', 'origWidth': 409, 'origHeight': 410, 'width': 409, 'height': 410, 'widthPercent': 0.45, 'rescaleHeight': False, 'trialN': 52, 'loaded': True, 'loadedTime': 2860.5, 'positionName': 'LEFT', 'positionCoords': [282.2, 245], 'bid': 4.98}, {'imgObject': {}, 'id': 'veggieswithdip', 'src': '/static/foodstim60/veggieswithdip.jpg', 'key': 'i', 'origWidth': 409, 'origHeight': 409, 'width': 409, 'height': 409, 'widthPercent': 0.45, 'rescaleHeight': False, 'trialN': 52, 'loaded': True, 'loadedTime': 2872.5, 'positionName': 'RIGHT', 'positionCoords': [748.8, 245.5], 'bid': 2.41}]",112708.59999996424,1669829716160,edamame,veggieswithdip,4.98,2.41,-2.5700000000000003,edamame,1082.0,1088,1088.300000011921,True,u,114306.5,1597.9000000357628,1669829717758,1598,HRV,HRV_0068,2022-11-30 17:41:01
53,"[{'imgObject': {}, 'id': 'eggsalad', 'src': '/static/foodstim60/eggsalad.jpg', 'key': 'u', 'origWidth': 410, 'origHeight': 409, 'width': 410, 'height': 409, 'widthPercent': 0.45, 'rescaleHeight': False, 'trialN': 53, 'loaded': True, 'loadedTime': 2905.399999976158, 'positionName': 'LEFT', 'positionCoords': [281.2, 245.5], 'bid': 1.38}, {'imgObject': {}, 'id': 'hashbrowns', 'src': '/static/foodstim60/hashbrowns.jpg', 'key': 'i', 'origWidth': 411, 'origHeight': 410, 'width': 411, 'height': 410, 'widthPercent': 0.45, 'rescaleHeight': False, 'trialN': 53, 'loaded': True, 'loadedTime': 2922.5, 'positionName': 'RIGHT', 'positionCoords': [748.8, 245], 'bid': 1.34}]",114306.89999997616,1669829717758,eggsalad,hashbrowns,1.38,1.34,-0.039999999999999813,eggsalad,1707.800000011921,1712,1712.6000000238419,True,u,116532.19999998808,2225.300000011921,1669829719983,2225,HRV,HRV_0068,2022-11-30 17:41:01
54,"[{'imgObject': {}, 'id': 'sweetpotato', 'src': '/static/foodstim60/sweetpotato.jpg', 'key': 'u', 'origWidth': 410, 'origHeight': 410, 'width': 410, 'height': 410, 'widthPercent': 0.45, 'rescaleHeight': False, 'trialN': 54, 'loaded': True, 'loadedTime': 2825.599999964237, 'positionName': 'LEFT', 'positionCoords': [281.2, 245], 'bid': 5}, {'imgObject': {}, 'id': 'cherry tomato', 'src': '/static/foodstim60/cherry tomato.jpg', 'key': 'i', 'origWidth': 410, 'origHeight': 410, 'width': 410, 'height': 410, 'widthPercent': 0.45, 'rescaleHeight': False, 'trialN': 54, 'loaded': True, 'loadedTime': 2817.599999964237, 'positionName': 'RIGHT', 'positionCoords': [748.8, 245], 'bid': 5.0200000000000005}]",116532.5,1669829719983,sweetpotato,cherry tomato,5.0,5.0200000000000005,0.020000000000000462,sweetpotato,2552.099999964237,2557,2556.699999988079,True,u,119596.09999996424,3063.599999964237,1669829723047,3064,HRV,HRV_0068,2022-11-30 17:41:01
55,"[{'imgObject': {}, 'id': 'orange slices', 'src': '/static/foodstim60/orange slices.jpg', 'key': 'u', 'origWidth': 409, 'origHeight': 410, 'width': 409, 'height': 410, 'widthPercent': 0.45, 'rescaleHeight': False, 'trialN': 55, 'loaded': True, 'loadedTime': 2817.5, 'positionName': 'LEFT', 'positionCoords': [282.2, 245], 'bid': 6.4}, {'imgObject': {}, 'id': 'Grapes', 'src': '/static/foodstim60/Grapes.jpg', 'key': 'i', 'origWidth': 411, 'origHeight': 411, 'width': 411, 'height': 411, 'widthPercent': 0.45, 'rescaleHeight': False, 'trialN': 55, 'loaded': True, 'loadedTime': 2904.199999988079, 'positionName': 'RIGHT', 'positionCoords': [748.8, 244.5], 'bid': 5.54}]",119596.19999998808,1669829723047,orange slices,Grapes,6.4,5.54,-0.8600000000000003,orange slices,1430.800000011921,1435,1435.699999988079,True,u,121539.09999996424,1942.8999999761581,1669829724990,1943,HRV,HRV_0068,2022-11-30 17:41:01
56,"[{'imgObject': {}, 'id': 'seaweed', 'src': '/static/foodstim60/seaweed.jpg', 'key': 'u', 'origWidth': 410, 'origHeight': 410, 'width': 410, 'height': 410, 'widthPercent': 0.45, 'rescaleHeight': False, 'trialN': 56, 'loaded': True, 'loadedTime': 2783.5, 'positionName': 'LEFT', 'positionCoords': [281.2, 245], 'bid': 5}, {'imgObject': {}, 'id': 'sweetpotato', 'src': '/static/foodstim60/sweetpotato.jpg', 'key': 'i', 'origWidth': 410, 'origHeight': 410, 'width': 410, 'height': 410, 'widthPercent': 0.45, 'rescaleHeight': False, 'trialN': 56, 'loaded': True, 'loadedTime': 2825.599999964237, 'positionName': 'RIGHT', 'positionCoords': [748.8, 245], 'bid': 5}]",121539.39999997616,1669829724990,seaweed,sweetpotato,5.0,5.0,0.0,sweetpotato,1113.199999988079,1118,1117.800000011921,True,i,123162.19999998808,1622.800000011921,1669829726613,1623,HRV,HRV_0068,2022-11-30 17:41:01
57,"[{'imgObject': {}, 'id': 'yogurt no spoon', 'src': '/static/foodstim60/yogurt no spoon.jpg', 'key': 'u', 'origWidth': 411, 'origHeight': 410, 'width': 411, 'height': 410, 'widthPercent': 0.45, 'rescaleHeight': False, 'trialN': 57, 'loaded': True, 'loadedTime': 2923.7999999523163, 'positionName': 'LEFT', 'positionCoords': [280.2, 245], 'bid': 5.79}, {'imgObject': {}, 'id': 'salmon', 'src': '/static/foodstim60/salmon.jpg', 'key': 'i', 'origWidth': 410, 'origHeight': 409, 'width': 410, 'height': 409, 'widthPercent': 0.45, 'rescaleHeight': False, 'trialN': 57, 'loaded': True, 'loadedTime': 2811, 'positionName': 'RIGHT', 'positionCoords': [748.8, 245.5], 'bid': 9.5}]",123162.5,1669829726613,yogurt no spoon,salmon,5.79,9.5,3.71,salmon,1048.3999999761581,1054,1054.3999999761581,True,i,124721.29999995232,1558.7999999523163,1669829728172,1559,HRV,HRV_0068,2022-11-30 17:41:01
58,"[{'imgObject': {}, 'id': 'omelette', 'src': '/static/foodstim60/omelette.jpg', 'key': 'u', 'origWidth': 410, 'origHeight': 409, 'width': 410, 'height': 409, 'widthPercent': 0.45, 'rescaleHeight': False, 'trialN': 58, 'loaded': True, 'loadedTime': 2924.5, 'positionName': 'LEFT', 'positionCoords': [281.2, 245.5], 'bid': 7.2}, {'imgObject': {}, 'id': 'baked potato', 'src': '/static/foodstim60/baked potato.jpg', 'key': 'i', 'origWidth': 409, 'origHeight': 410, 'width': 409, 'height': 410, 'widthPercent': 0.45, 'rescaleHeight': False, 'trialN': 58, 'loaded': True, 'loadedTime': 2896.5, 'positionName': 'RIGHT', 'positionCoords': [748.8, 245], 'bid': 7.23}]",124721.5,1669829728172,omelette,baked potato,7.2,7.23,0.03000000000000025,omelette,2015.3999999761581,2020,2020.199999988079,True,u,127251.69999998808,2530.199999988079,1669829730702,2530,HRV,HRV_0068,2022-11-30 17:41:01
59,"[{'imgObject': {}, 'id': 'cantaloupe', 'src': '/static/foodstim60/cantaloupe.jpg', 'key': 'u', 'origWidth': 409, 'origHeight': 409, 'width': 409, 'height': 409, 'widthPercent': 0.45, 'rescaleHeight': False, 'trialN': 59, 'loaded': True, 'loadedTime': 2808.699999988079, 'positionName': 'LEFT', 'positionCoords': [282.2, 245.5], 'bid': 5.45}, {'imgObject': {}, 'id': 'blueberries', 'src': '/static/foodstim60/blueberries.jpg', 'key': 'i', 'origWidth': 411, 'origHeight': 411, 'width': 411, 'height': 411, 'widthPercent': 0.45, 'rescaleHeight': False, 'trialN': 59, 'loaded': True, 'loadedTime': 2868.5, 'positionName': 'RIGHT', 'positionCoords': [748.8, 244.5], 'bid': 6.91}]",127252.0,1669829730702,cantaloupe,blueberries,5.45,6.91,1.46,blueberries,1569.8999999761581,1575,1574.5,True,i,129332.29999995232,2080.2999999523163,1669829732782,2080,HRV,HRV_0068,2022-11-30 17:41:01
60,"[{'imgObject': {}, 'id': 'chickenfingers', 'src': '/static/foodstim60/chickenfingers.jpg', 'key': 'u', 'origWidth': 410, 'origHeight': 410, 'width': 410, 'height': 410, 'widthPercent': 0.45, 'rescaleHeight': False, 'trialN': 60, 'loaded': True, 'loadedTime': 2875.5, 'positionName': 'LEFT', 'positionCoords': [281.2, 245], 'bid': 9.5}, {'imgObject': {}, 'id': 'Grapes', 'src': '/static/foodstim60/Grapes.jpg', 'key': 'i', 'origWidth': 411, 'origHeight': 411, 'width': 411, 'height': 411, 'widthPercent': 0.45, 'rescaleHeight': False, 'trialN': 60, 'loaded': True, 'loadedTime': 2904.2999999523163, 'positionName': 'RIGHT', 'positionCoords': [748.8, 244.5], 'bid': 5.54}]",129332.5,1669829732783,chickenfingers,Grapes,9.5,5.54,-3.96,chickenfingers,1093.5,1097,1097.5999999642372,True,u,130940.19999998808,1607.699999988079,1669829734390,1607,HRV,HRV_0068,2022-11-30 17:41:01
61,"[{'imgObject': {}, 'id': 'mashed potato', 'src': '/static/foodstim60/mashed potato.jpg', 'key': 'u', 'origWidth': 409, 'origHeight': 409, 'width': 409, 'height': 409, 'widthPercent': 0.45, 'rescaleHeight': False, 'trialN': 61, 'loaded': True, 'loadedTime': 2902.599999964237, 'positionName': 'LEFT', 'positionCoords': [282.2, 245.5], 'bid': 5.01}, {'imgObject': {}, 'id': 'shreddedwheatwithmilk', 'src': '/static/foodstim60/shreddedwheatwithmilk.jpg', 'key': 'i', 'origWidth': 410, 'origHeight': 410, 'width': 410, 'height': 410, 'widthPercent': 0.45, 'rescaleHeight': False, 'trialN': 61, 'loaded': True, 'loadedTime': 2854, 'positionName': 'RIGHT', 'positionCoords': [748.8, 245], 'bid': 5.01}]",130940.5,1669829734391,mashed potato,shreddedwheatwithmilk,5.01,5.01,0.0,mashed potato,2650.599999964237,2654,2654.099999964237,True,u,134100.29999995232,3159.7999999523163,1669829737550,3159,HRV,HRV_0068,2022-11-30 17:41:01
62,"[{'imgObject': {}, 'id': 'yogurt no spoon', 'src': '/static/foodstim60/yogurt no spoon.jpg', 'key': 'u', 'origWidth': 411, 'origHeight': 410, 'width': 411, 'height': 410, 'widthPercent': 0.45, 'rescaleHeight': False, 'trialN': 62, 'loaded': True, 'loadedTime': 2923.7999999523163, 'positionName': 'LEFT', 'positionCoords': [280.2, 245], 'bid': 5.79}, {'imgObject': {}, 'id': 'fried eggs', 'src': '/static/foodstim60/fried eggs.jpg', 'key': 'i', 'origWidth': 410, 'origHeight': 410, 'width': 410, 'height': 410, 'widthPercent': 0.45, 'rescaleHeight': False, 'trialN': 62, 'loaded': True, 'loadedTime': 2873.099999964237, 'positionName': 'RIGHT', 'positionCoords': [748.8, 245], 'bid': 6.51}]",134100.59999996424,1669829737551,yogurt no spoon,fried eggs,5.79,6.51,0.7199999999999998,yogurt no spoon,3043.800000011921,3049,3050.0,True,u,137660.19999998808,3559.600000023842,1669829741110,3559,HRV,HRV_0068,2022-11-30 17:41:01
63,"[{'imgObject': {}, 'id': 'granola w milk', 'src': '/static/foodstim60/granola w milk.jpg', 'key': 'u', 'origWidth': 410, 'origHeight': 410, 'width': 410, 'height': 410, 'widthPercent': 0.45, 'rescaleHeight': False, 'trialN': 63, 'loaded': True, 'loadedTime': 2871.199999988079, 'positionName': 'LEFT', 'positionCoords': [281.2, 245], 'bid': 3.31}, {'imgObject': {}, 'id': 'veggieswithdip', 'src': '/static/foodstim60/veggieswithdip.jpg', 'key': 'i', 'origWidth': 409, 'origHeight': 409, 'width': 409, 'height': 409, 'widthPercent': 0.45, 'rescaleHeight': False, 'trialN': 63, 'loaded': True, 'loadedTime': 2872.599999964237, 'positionName': 'RIGHT', 'positionCoords': [748.8, 245.5], 'bid': 2.41}]",137660.39999997616,1669829741110,granola w milk,veggieswithdip,3.31,2.41,-0.8999999999999999,granola w milk,3197.699999988079,3203,3202.5,True,u,141369.59999996424,3709.199999988079,1669829744819,3709,HRV,HRV_0068,2022-11-30 17:41:01
64,"[{'imgObject': {}, 'id': 'burger', 'src': '/static/foodstim60/burger.jpg', 'key': 'u', 'origWidth': 409, 'origHeight': 409, 'width': 409, 'height': 409, 'widthPercent': 0.45, 'rescaleHeight': False, 'trialN': 64, 'loaded': True, 'loadedTime': 2876.2999999523163, 'positionName': 'LEFT', 'positionCoords': [282.2, 245.5], 'bid': 8.120000000000001}, {'imgObject': {}, 'id': 'Tribe humus pita', 'src': '/static/foodstim60/Tribe humus pita.jpg', 'key': 'i', 'origWidth': 411, 'origHeight': 411, 'width': 411, 'height': 411, 'widthPercent': 0.45, 'rescaleHeight': False, 'trialN': 64, 'loaded': True, 'loadedTime': 2888.5, 'positionName': 'RIGHT', 'positionCoords': [748.8, 244.5], 'bid': 5.01}]",141369.89999997616,1669829744819,burger,Tribe humus pita,8.120000000000001,5.01,-3.110000000000001,burger,1194.3999999761581,1200,1199.0,True,u,143073.79999995232,1703.8999999761581,1669829746523,1704,HRV,HRV_0068,2022-11-30 17:41:01
65,"[{'imgObject': {}, 'id': 'seaweed', 'src': '/static/foodstim60/seaweed.jpg', 'key': 'u', 'origWidth': 410, 'origHeight': 410, 'width': 410, 'height': 410, 'widthPercent': 0.45, 'rescaleHeight': False, 'trialN': 65, 'loaded': True, 'loadedTime': 2784.599999964237, 'positionName': 'LEFT', 'positionCoords': [281.2, 245], 'bid': 5}, {'imgObject': {}, 'id': 'raisin bran w milk', 'src': '/static/foodstim60/raisin bran w milk.jpg', 'key': 'i', 'origWidth': 411, 'origHeight': 411, 'width': 411, 'height': 411, 'widthPercent': 0.45, 'rescaleHeight': False, 'trialN': 65, 'loaded': True, 'loadedTime': 2871.099999964237, 'positionName': 'RIGHT', 'positionCoords': [748.8, 244.5], 'bid': 3.5500000000000003}]",143074.09999996424,1669829746524,seaweed,raisin bran w milk,5.0,3.5500000000000003,-1.4499999999999997,seaweed,1233.4000000357628,1238,1238.5,True,u,144820.19999998808,1746.1000000238419,1669829748270,1746,HRV,HRV_0068,2022-11-30 17:41:01
66,"[{'imgObject': {}, 'id': 'froot loops w milk', 'src': '/static/foodstim60/froot loops w milk.jpg', 'key': 'u', 'origWidth': 410, 'origHeight': 410, 'width': 410, 'height': 410, 'widthPercent': 0.45, 'rescaleHeight': False, 'trialN': 66, 'loaded': True, 'loadedTime': 2923.099999964237, 'positionName': 'LEFT', 'positionCoords': [281.2, 245], 'bid': 5.05}, {'imgObject': {}, 'id': 'bagel plain', 'src': '/static/foodstim60/bagel plain.jpg', 'key': 'i', 'origWidth': 410, 'origHeight': 410, 'width': 410, 'height': 410, 'widthPercent': 0.45, 'rescaleHeight': False, 'trialN': 66, 'loaded': True, 'loadedTime': 2895.599999964237, 'positionName': 'RIGHT', 'positionCoords': [748.8, 245], 'bid': 5.0200000000000005}]",144820.39999997616,1669829748270,froot loops w milk,bagel plain,5.05,5.0200000000000005,-0.02999999999999936,froot loops w milk,1756.0,1761,1760.8999999761581,True,u,147089.5,2269.100000023842,1669829750539,2269,HRV,HRV_0068,2022-11-30 17:41:01
67,"[{'imgObject': {}, 'id': 'hashbrowns', 'src': '/static/foodstim60/hashbrowns.jpg', 'key': 'u', 'origWidth': 411, 'origHeight': 410, 'width': 411, 'height': 410, 'widthPercent': 0.45, 'rescaleHeight': False, 'trialN': 67, 'loaded': True, 'loadedTime': 2922.599999964237, 'positionName': 'LEFT', 'positionCoords': [280.2, 245], 'bid': 1.34}, {'imgObject': {}, 'id': 'banana', 'src': '/static/foodstim60/banana.jpg', 'key': 'i', 'origWidth': 410, 'origHeight': 410, 'width': 410, 'height': 410, 'widthPercent': 0.45, 'rescaleHeight': False, 'trialN': 67, 'loaded': True, 'loadedTime': 2868.7999999523163, 'positionName': 'RIGHT', 'positionCoords': [748.8, 245], 'bid': 6.3100000000000005}]",147089.79999995232,1669829750539,hashbrowns,banana,1.34,6.3100000000000005,4.970000000000001,banana,1068.1000000238419,1073,1072.800000011921,True,i,148668.19999998808,1578.4000000357628,1669829752118,1579,HRV,HRV_0068,2022-11-30 17:41:01
68,"[{'imgObject': {}, 'id': 'tacos', 'src': '/static/foodstim60/tacos.jpg', 'key': 'u', 'origWidth': 411, 'origHeight': 411, 'width': 411, 'height': 411, 'widthPercent': 0.45, 'rescaleHeight': False, 'trialN': 68, 'loaded': True, 'loadedTime': 2925.199999988079, 'positionName': 'LEFT', 'positionCoords': [280.2, 244.5], 'bid': 9.7}, {'imgObject': {}, 'id': 'lox', 'src': '/static/foodstim60/lox.jpg', 'key': 'i', 'origWidth': 410, 'origHeight': 411, 'width': 410, 'height': 411, 'widthPercent': 0.45, 'rescaleHeight': False, 'trialN': 68, 'loaded': True, 'loadedTime': 2839.199999988079, 'positionName': 'RIGHT', 'positionCoords': [748.8, 244.5], 'bid': 7.68}]",148668.5,1669829752118,tacos,lox,9.7,7.68,-2.0199999999999996,tacos,1117.0999999642372,1122,1121.8999999761581,True,u,150300.29999995232,1631.7999999523163,1669829753749,1631,HRV,HRV_0068,2022-11-30 17:41:01
69,"[{'imgObject': {}, 'id': 'kiwi', 'src': '/static/foodstim60/kiwi.jpg', 'key': 'u', 'origWidth': 410, 'origHeight': 410, 'width': 410, 'height': 410, 'widthPercent': 0.45, 'rescaleHeight': False, 'trialN': 69, 'loaded': True, 'loadedTime': 2772.899999976158, 'positionName': 'LEFT', 'positionCoords': [281.2, 245], 'bid': 4.8}, {'imgObject': {}, 'id': 'raisin bran w milk', 'src': '/static/foodstim60/raisin bran w milk.jpg', 'key': 'i', 'origWidth': 411, 'origHeight': 411, 'width': 411, 'height': 411, 'widthPercent': 0.45, 'rescaleHeight': False, 'trialN': 69, 'loaded': True, 'loadedTime': 2871.099999964237, 'positionName': 'RIGHT', 'positionCoords': [748.8, 244.5], 'bid': 3.5500000000000003}]",150300.5,1669829753750,kiwi,raisin bran w milk,4.8,3.5500000000000003,-1.2499999999999996,kiwi,1921.0,1925,1925.8999999761581,True,u,152731.69999998808,2431.199999988079,1669829756181,2431,HRV,HRV_0068,2022-11-30 17:41:01
70,"[{'imgObject': {}, 'id': 'turkey sandwich', 'src': '/static/foodstim60/turkey sandwich.jpg', 'key': 'u', 'origWidth': 409, 'origHeight': 409, 'width': 409, 'height': 409, 'widthPercent': 0.45, 'rescaleHeight': False, 'trialN': 70, 'loaded': True, 'loadedTime': 2838.5, 'positionName': 'LEFT', 'positionCoords': [282.2, 245.5], 'bid': 7.63}, {'imgObject': {}, 'id': 'burger', 'src': '/static/foodstim60/burger.jpg', 'key': 'i', 'origWidth': 409, 'origHeight': 409, 'width': 409, 'height': 409, 'widthPercent': 0.45, 'rescaleHeight': False, 'trialN': 70, 'loaded': True, 'loadedTime': 2876.399999976158, 'positionName': 'RIGHT', 'positionCoords': [748.8, 245.5], 'bid': 8.120000000000001}]",152732.09999996424,1669829756181,turkey sandwich,burger,7.63,8.120000000000001,0.4900000000000011,burger,1702.300000011921,1707,1707.1000000238419,True,i,154948.19999998808,2216.100000023842,1669829758397,2216,HRV,HRV_0068,2022-11-30 17:41:01
71,"[{'imgObject': {}, 'id': 'salad w chicken', 'src': '/static/foodstim60/salad w chicken.jpg', 'key': 'u', 'origWidth': 411, 'origHeight': 411, 'width': 411, 'height': 411, 'widthPercent': 0.45, 'rescaleHeight': False, 'trialN': 71, 'loaded': True, 'loadedTime': 2804.699999988079, 'positionName': 'LEFT', 'positionCoords': [280.2, 244.5], 'bid': 8.76}, {'imgObject': {}, 'id': 'bagel plain', 'src': '/static/foodstim60/bagel plain.jpg', 'key': 'i', 'origWidth': 410, 'origHeight': 410, 'width': 410, 'height': 410, 'widthPercent': 0.45, 'rescaleHeight': False, 'trialN': 71, 'loaded': True, 'loadedTime': 2895.699999988079, 'positionName': 'RIGHT', 'positionCoords': [748.8, 245], 'bid': 5.0200000000000005}]",154948.59999996424,1669829758398,salad w chicken,bagel plain,8.76,5.0200000000000005,-3.7399999999999993,salad w chicken,1251.0,1255,1255.6000000238419,True,u,156713.39999997616,1764.800000011921,1669829760162,1764,HRV,HRV_0068,2022-11-30 17:41:01
72,"[{'imgObject': {}, 'id': 'olives', 'src': '/static/foodstim60/olives.jpg', 'key': 'u', 'origWidth': 410, 'origHeight': 410, 'width': 410, 'height': 410, 'widthPercent': 0.45, 'rescaleHeight': False, 'trialN': 72, 'loaded': True, 'loadedTime': 2808.7999999523163, 'positionName': 'LEFT', 'positionCoords': [281.2, 245], 'bid': 4.79}, {'imgObject': {}, 'id': 'mashed potato', 'src': '/static/foodstim60/mashed potato.jpg', 'key': 'i', 'origWidth': 409, 'origHeight': 409, 'width': 409, 'height': 409, 'widthPercent': 0.45, 'rescaleHeight': False, 'trialN': 72, 'loaded': True, 'loadedTime': 2902.699999988079, 'positionName': 'RIGHT', 'positionCoords': [748.8, 245.5], 'bid': 5.01}]",156713.69999998808,1669829760163,olives,mashed potato,4.79,5.01,0.21999999999999975,mashed potato,1572.0,1578,1578.199999988079,True,i,158801.09999996424,2087.399999976158,1669829762250,2087,HRV,HRV_0068,2022-11-30 17:41:01
73,"[{'imgObject': {}, 'id': 'chicken nuggets2', 'src': '/static/foodstim60/chicken nuggets2.jpg', 'key': 'u', 'origWidth': 410, 'origHeight': 409, 'width': 410, 'height': 409, 'widthPercent': 0.45, 'rescaleHeight': False, 'trialN': 73, 'loaded': True, 'loadedTime': 2813.599999964237, 'positionName': 'LEFT', 'positionCoords': [281.2, 245.5], 'bid': 9.47}, {'imgObject': {}, 'id': 'burrito', 'src': '/static/foodstim60/burrito.jpg', 'key': 'i', 'origWidth': 410, 'origHeight': 410, 'width': 410, 'height': 410, 'widthPercent': 0.45, 'rescaleHeight': False, 'trialN': 73, 'loaded': True, 'loadedTime': 2853.2999999523163, 'positionName': 'RIGHT', 'positionCoords': [748.8, 245], 'bid': 9.04}]",158801.39999997616,1669829762250,chicken nuggets2,burrito,9.47,9.04,-0.4300000000000015,chicken nuggets2,1955.300000011921,1960,1959.699999988079,True,u,161263.39999997616,2462.0,1669829764712,2462,HRV,HRV_0068,2022-11-30 17:41:01
74,"[{'imgObject': {}, 'id': 'orange slices', 'src': '/static/foodstim60/orange slices.jpg', 'key': 'u', 'origWidth': 409, 'origHeight': 410, 'width': 409, 'height': 410, 'widthPercent': 0.45, 'rescaleHeight': False, 'trialN': 74, 'loaded': True, 'loadedTime': 2817.2999999523163, 'positionName': 'LEFT', 'positionCoords': [282.2, 245], 'bid': 6.4}, {'imgObject': {}, 'id': 'eggsalad', 'src': '/static/foodstim60/eggsalad.jpg', 'key': 'i', 'origWidth': 410, 'origHeight': 409, 'width': 410, 'height': 409, 'widthPercent': 0.45, 'rescaleHeight': False, 'trialN': 74, 'loaded': True, 'loadedTime': 2905.399999976158, 'positionName': 'RIGHT', 'positionCoords': [748.8, 245.5], 'bid': 1.38}]",161263.59999996424,1669829764712,orange slices,eggsalad,6.4,1.38,-5.0200000000000005,orange slices,1401.199999988079,1406,1406.0,True,u,163180.29999995232,1916.699999988079,1669829766629,1917,HRV,HRV_0068,2022-11-30 17:41:01
75,"[{'imgObject': {}, 'id': 'bagel and cc', 'src': '/static/foodstim60/bagel and cc.jpg', 'key': 'u', 'origWidth': 410, 'origHeight': 410, 'width': 410, 'height': 410, 'widthPercent': 0.45, 'rescaleHeight': False, 'trialN': 75, 'loaded': True, 'loadedTime': 2912, 'positionName': 'LEFT', 'positionCoords': [281.2, 245], 'bid': 5.41}, {'imgObject': {}, 'id': 'Tribe humus pita', 'src': '/static/foodstim60/Tribe humus pita.jpg', 'key': 'i', 'origWidth': 411, 'origHeight': 411, 'width': 411, 'height': 411, 'widthPercent': 0.45, 'rescaleHeight': False, 'trialN': 75, 'loaded': True, 'loadedTime': 2889.099999964237, 'positionName': 'RIGHT', 'positionCoords': [748.8, 244.5], 'bid': 5.01}]",163180.59999996424,1669829766629,bagel and cc,Tribe humus pita,5.41,5.01,-0.40000000000000036,Tribe humus pita,2051.199999988079,2056,2056.400000035763,True,i,165748.0,2567.400000035763,1669829769196,2567,HRV,HRV_0068,2022-11-30 17:41:01
76,"[{'imgObject': {}, 'id': 'fruitsalad', 'src': '/static/foodstim60/fruitsalad.jpg', 'key': 'u', 'origWidth': 410, 'origHeight': 410, 'width': 410, 'height': 410, 'widthPercent': 0.45, 'rescaleHeight': False, 'trialN': 76, 'loaded': True, 'loadedTime': 2832.599999964237, 'positionName': 'LEFT', 'positionCoords': [281.2, 245], 'bid': 4.4}, {'imgObject': {}, 'id': 'pear', 'src': '/static/foodstim60/pear.jpg', 'key': 'i', 'origWidth': 411, 'origHeight': 410, 'width': 411, 'height': 410, 'widthPercent': 0.45, 'rescaleHeight': False, 'trialN': 76, 'loaded': True, 'loadedTime': 2809.7999999523163, 'positionName': 'RIGHT', 'positionCoords': [748.8, 245], 'bid': 4.65}]",165748.09999996424,1669829769197,fruitsalad,pear,4.4,4.65,0.25,pear,1700.1000000238419,1704,1704.800000011921,True,i,167964.19999998808,2216.100000023842,1669829771413,2216,HRV,HRV_0068,2022-11-30 17:41:01
77,"[{'imgObject': {}, 'id': 'luckycharms', 'src': '/static/foodstim60/luckycharms.jpg', 'key': 'u', 'origWidth': 410, 'origHeight': 409, 'width': 410, 'height': 409, 'widthPercent': 0.45, 'rescaleHeight': False, 'trialN': 77, 'loaded': True, 'loadedTime': 2800.699999988079, 'positionName': 'LEFT', 'positionCoords': [281.2, 245.5], 'bid': 6.16}, {'imgObject': {}, 'id': 'ice cream sundae 002', 'src': '/static/foodstim60/ice cream sundae 002.jpg', 'key': 'i', 'origWidth': 409, 'origHeight': 409, 'width': 409, 'height': 409, 'widthPercent': 0.45, 'rescaleHeight': False, 'trialN': 77, 'loaded': True, 'loadedTime': 2806.899999976158, 'positionName': 'RIGHT', 'positionCoords': [748.8, 245.5], 'bid': 7.43}]",167964.5,1669829771413,luckycharms,ice cream sundae 002,6.16,7.43,1.2699999999999996,ice cream sundae 002,1762.5,1768,1768.2999999523163,True,i,170244.19999998808,2279.699999988079,1669829773692,2279,HRV,HRV_0068,2022-11-30 17:41:01
78,"[{'imgObject': {}, 'id': 'shreddedwheatwithmilk', 'src': '/static/foodstim60/shreddedwheatwithmilk.jpg', 'key': 'u', 'origWidth': 410, 'origHeight': 410, 'width': 410, 'height': 410, 'widthPercent': 0.45, 'rescaleHeight': False, 'trialN': 78, 'loaded': True, 'loadedTime': 2854, 'positionName': 'LEFT', 'positionCoords': [281.2, 245], 'bid': 5.01}, {'imgObject': {}, 'id': 'cocktailshrimp', 'src': '/static/foodstim60/cocktailshrimp.jpg', 'key': 'i', 'origWidth': 410, 'origHeight': 410, 'width': 410, 'height': 410, 'widthPercent': 0.45, 'rescaleHeight': False, 'trialN': 78, 'loaded': True, 'loadedTime': 2925.699999988079, 'positionName': 'RIGHT', 'positionCoords': [748.8, 245], 'bid': 8.52}]",170244.59999996424,1669829773693,shreddedwheatwithmilk,cocktailshrimp,5.01,8.52,3.51,cocktailshrimp,971.5,976,976.3000000119209,True,i,171732.19999998808,1487.6000000238419,1669829775180,1487,HRV,HRV_0068,2022-11-30 17:41:01
79,"[{'imgObject': {}, 'id': 'raspberries', 'src': '/static/foodstim60/raspberries.jpg', 'key': 'u', 'origWidth': 411, 'origHeight': 411, 'width': 411, 'height': 411, 'widthPercent': 0.45, 'rescaleHeight': False, 'trialN': 79, 'loaded': True, 'loadedTime': 2882.899999976158, 'positionName': 'LEFT', 'positionCoords': [280.2, 244.5], 'bid': 5.86}, {'imgObject': {}, 'id': 'edamame', 'src': '/static/foodstim60/edamame.jpg', 'key': 'i', 'origWidth': 409, 'origHeight': 410, 'width': 409, 'height': 410, 'widthPercent': 0.45, 'rescaleHeight': False, 'trialN': 79, 'loaded': True, 'loadedTime': 2860.2999999523163, 'positionName': 'RIGHT', 'positionCoords': [748.8, 245], 'bid': 4.98}]",171732.5,1669829775181,raspberries,edamame,5.86,4.98,-0.8799999999999999,raspberries,1563.5,1568,1568.199999988079,True,u,173812.09999996424,2079.599999964237,1669829777260,2079,HRV,HRV_0068,2022-11-30 17:41:01
80,"[{'imgObject': {}, 'id': 'banana', 'src': '/static/foodstim60/banana.jpg', 'key': 'u', 'origWidth': 410, 'origHeight': 410, 'width': 410, 'height': 410, 'widthPercent': 0.45, 'rescaleHeight': False, 'trialN': 80, 'loaded': True, 'loadedTime': 2870.399999976158, 'positionName': 'LEFT', 'positionCoords': [281.2, 245], 'bid': 6.3100000000000005}, {'imgObject': {}, 'id': 'orange slices', 'src': '/static/foodstim60/orange slices.jpg', 'key': 'i', 'origWidth': 409, 'origHeight': 410, 'width': 409, 'height': 410, 'widthPercent': 0.45, 'rescaleHeight': False, 'trialN': 80, 'loaded': True, 'loadedTime': 2817.399999976158, 'positionName': 'RIGHT', 'positionCoords': [748.8, 245], 'bid': 6.4}]",173812.19999998808,1669829777260,banana,orange slices,6.3100000000000005,6.4,0.08999999999999986,orange slices,1020.8999999761581,1026,1025.5999999642372,True,i,175344.19999998808,1532.0,1669829778792,1532,HRV,HRV_0068,2022-11-30 17:41:01
81,"[{'imgObject': {}, 'id': 'froot loops w milk', 'src': '/static/foodstim60/froot loops w milk.jpg', 'key': 'u', 'origWidth': 410, 'origHeight': 410, 'width': 410, 'height': 410, 'widthPercent': 0.45, 'rescaleHeight': False, 'trialN': 81, 'loaded': True, 'loadedTime': 2923, 'positionName': 'LEFT', 'positionCoords': [281.2, 245], 'bid': 5.05}, {'imgObject': {}, 'id': 'bagel and cc', 'src': '/static/foodstim60/bagel and cc.jpg', 'key': 'i', 'origWidth': 410, 'origHeight': 410, 'width': 410, 'height': 410, 'widthPercent': 0.45, 'rescaleHeight': False, 'trialN': 81, 'loaded': True, 'loadedTime': 2911.2999999523163, 'positionName': 'RIGHT', 'positionCoords': [748.8, 245], 'bid': 5.41}]",175344.5,1669829778792,froot loops w milk,bagel and cc,5.05,5.41,0.3600000000000003,bagel and cc,2731.399999976158,2737,2736.399999976158,True,i,178588.29999995232,3243.7999999523163,1669829782036,3244,HRV,HRV_0068,2022-11-30 17:41:01
82,"[{'imgObject': {}, 'id': 'burger', 'src': '/static/foodstim60/burger.jpg', 'key': 'u', 'origWidth': 409, 'origHeight': 409, 'width': 409, 'height': 409, 'widthPercent': 0.45, 'rescaleHeight': False, 'trialN': 82, 'loaded': True, 'loadedTime': 2876.399999976158, 'positionName': 'LEFT', 'positionCoords': [282.2, 245.5], 'bid': 8.120000000000001}, {'imgObject': {}, 'id': 'fried eggs', 'src': '/static/foodstim60/fried eggs.jpg', 'key': 'i', 'origWidth': 410, 'origHeight': 410, 'width': 410, 'height': 410, 'widthPercent': 0.45, 'rescaleHeight': False, 'trialN': 82, 'loaded': True, 'loadedTime': 2872.699999988079, 'positionName': 'RIGHT', 'positionCoords': [748.8, 245], 'bid': 6.51}]",178588.59999996424,1669829782036,burger,fried eggs,8.120000000000001,6.51,-1.6100000000000012,burger,1219.5,1226,1225.5,True,u,180324.19999998808,1735.6000000238419,1669829783772,1736,HRV,HRV_0068,2022-11-30 17:41:01
83,"[{'imgObject': {}, 'id': 'apple slices', 'src': '/static/foodstim60/apple slices.jpg', 'key': 'u', 'origWidth': 409, 'origHeight': 410, 'width': 409, 'height': 410, 'widthPercent': 0.45, 'rescaleHeight': False, 'trialN': 83, 'loaded': True, 'loadedTime': 2810.399999976158, 'positionName': 'LEFT', 'positionCoords': [282.2, 245], 'bid': 4.62}, {'imgObject': {}, 'id': 'omelette', 'src': '/static/foodstim60/omelette.jpg', 'key': 'i', 'origWidth': 410, 'origHeight': 409, 'width': 410, 'height': 409, 'widthPercent': 0.45, 'rescaleHeight': False, 'trialN': 83, 'loaded': True, 'loadedTime': 2924.399999976158, 'positionName': 'RIGHT', 'positionCoords': [748.8, 245.5], 'bid': 7.2}]",180324.5,1669829783772,apple slices,omelette,4.62,7.2,2.58,omelette,922.5999999642372,927,926.8999999761581,True,i,181763.79999995232,1439.2999999523163,1669829785211,1439,HRV,HRV_0068,2022-11-30 17:41:01
84,"[{'imgObject': {}, 'id': 'burrito', 'src': '/static/foodstim60/burrito.jpg', 'key': 'u', 'origWidth': 410, 'origHeight': 410, 'width': 410, 'height': 410, 'widthPercent': 0.45, 'rescaleHeight': False, 'trialN': 84, 'loaded': True, 'loadedTime': 2846.5, 'positionName': 'LEFT', 'positionCoords': [281.2, 245], 'bid': 9.04}, {'imgObject': {}, 'id': 'grilled chicken strips', 'src': '/static/foodstim60/grilled chicken strips.jpg', 'key': 'i', 'origWidth': 410, 'origHeight': 411, 'width': 410, 'height': 411, 'widthPercent': 0.45, 'rescaleHeight': False, 'trialN': 84, 'loaded': True, 'loadedTime': 2921.7999999523163, 'positionName': 'RIGHT', 'positionCoords': [748.8, 244.5], 'bid': 9.3}]",181764.09999996424,1669829785212,burrito,grilled chicken strips,9.04,9.3,0.26000000000000156,burrito,1406.800000011921,1410,1410.4000000357628,True,u,183680.19999998808,1916.1000000238419,1669829787128,1916,HRV,HRV_0068,2022-11-30 17:41:01
85,"[{'imgObject': {}, 'id': 'eggs', 'src': '/static/foodstim60/eggs.jpg', 'key': 'u', 'origWidth': 409, 'origHeight': 409, 'width': 409, 'height': 409, 'widthPercent': 0.45, 'rescaleHeight': False, 'trialN': 85, 'loaded': True, 'loadedTime': 2759.7999999523163, 'positionName': 'LEFT', 'positionCoords': [282.2, 245.5], 'bid': 4.7700000000000005}, {'imgObject': {}, 'id': 'shreddedwheatwithmilk', 'src': '/static/foodstim60/shreddedwheatwithmilk.jpg', 'key': 'i', 'origWidth': 410, 'origHeight': 410, 'width': 410, 'height': 410, 'widthPercent': 0.45, 'rescaleHeight': False, 'trialN': 85, 'loaded': True, 'loadedTime': 2853.399999976158, 'positionName': 'RIGHT', 'positionCoords': [748.8, 245], 'bid': 5.01}]",183680.5,1669829787128,eggs,shreddedwheatwithmilk,4.7700000000000005,5.01,0.23999999999999932,shreddedwheatwithmilk,1515.3999999761581,1519,1519.0,True,i,185704.0,2023.5,1669829789151,2023,HRV,HRV_0068,2022-11-30 17:41:01
86,"[{'imgObject': {}, 'id': 'omelette', 'src': '/static/foodstim60/omelette.jpg', 'key': 'u', 'origWidth': 410, 'origHeight': 409, 'width': 410, 'height': 409, 'widthPercent': 0.45, 'rescaleHeight': False, 'trialN': 86, 'loaded': True, 'loadedTime': 2924.5, 'positionName': 'LEFT', 'positionCoords': [281.2, 245.5], 'bid': 7.2}, {'imgObject': {}, 'id': 'strawberries', 'src': '/static/foodstim60/strawberries.jpg', 'key': 'i', 'origWidth': 410, 'origHeight': 410, 'width': 410, 'height': 410, 'widthPercent': 0.45, 'rescaleHeight': False, 'trialN': 86, 'loaded': True, 'loadedTime': 2812.899999976158, 'positionName': 'RIGHT', 'positionCoords': [748.8, 245], 'bid': 7.37}]",185704.19999998808,1669829789152,omelette,strawberries,7.2,7.37,0.16999999999999993,omelette,1374.8999999761581,1379,1379.5999999642372,True,u,187596.29999995232,1892.0999999642372,1669829791044,1892,HRV,HRV_0068,2022-11-30 17:41:01
87,"[{'imgObject': {}, 'id': 'Grapes', 'src': '/static/foodstim60/Grapes.jpg', 'key': 'u', 'origWidth': 411, 'origHeight': 411, 'width': 411, 'height': 411, 'widthPercent': 0.45, 'rescaleHeight': False, 'trialN': 87, 'loaded': True, 'loadedTime': 2904.2999999523163, 'positionName': 'LEFT', 'positionCoords': [280.2, 244.5], 'bid': 5.54}, {'imgObject': {}, 'id': 'kiwi', 'src': '/static/foodstim60/kiwi.jpg', 'key': 'i', 'origWidth': 410, 'origHeight': 410, 'width': 410, 'height': 410, 'widthPercent': 0.45, 'rescaleHeight': False, 'trialN': 87, 'loaded': True, 'loadedTime': 2771.7999999523163, 'positionName': 'RIGHT', 'positionCoords': [748.8, 245], 'bid': 4.8}]",187596.39999997616,1669829791044,Grapes,kiwi,5.54,4.8,-0.7400000000000002,Grapes,1160.0,1164,1164.800000011921,True,u,189265.59999996424,1669.199999988079,1669829792713,1669,HRV,HRV_0068,2022-11-30 17:41:01
88,"[{'imgObject': {}, 'id': 'mashed potato', 'src': '/static/foodstim60/mashed potato.jpg', 'key': 'u', 'origWidth': 409, 'origHeight': 409, 'width': 409, 'height': 409, 'widthPercent': 0.45, 'rescaleHeight': False, 'trialN': 88, 'loaded': True, 'loadedTime': 2902.199999988079, 'positionName': 'LEFT', 'positionCoords': [282.2, 245.5], 'bid': 5.01}, {'imgObject': {}, 'id': 'raisin bran w milk', 'src': '/static/foodstim60/raisin bran w milk.jpg', 'key': 'i', 'origWidth': 411, 'origHeight': 411, 'width': 411, 'height': 411, 'widthPercent': 0.45, 'rescaleHeight': False, 'trialN': 88, 'loaded': True, 'loadedTime': 2870.399999976158, 'positionName': 'RIGHT', 'positionCoords': [748.8, 244.5], 'bid': 3.5500000000000003}]",189265.79999995232,1669829792713,mashed potato,raisin bran w milk,5.01,3.5500000000000003,-1.4599999999999995,mashed potato,1154.4000000357628,1160,1160.4000000357628,True,u,190930.0,1664.2000000476837,1669829794377,1664,HRV,HRV_0068,2022-11-30 17:41:01
89,"[{'imgObject': {}, 'id': 'shreddedwheatwithmilk', 'src': '/static/foodstim60/shreddedwheatwithmilk.jpg', 'key': 'u', 'origWidth': 410, 'origHeight': 410, 'width': 410, 'height': 410, 'widthPercent': 0.45, 'rescaleHeight': False, 'trialN': 89, 'loaded': True, 'loadedTime': 2853.899999976158, 'positionName': 'LEFT', 'positionCoords': [281.2, 245], 'bid': 5.01}, {'imgObject': {}, 'id': 'granola w milk', 'src': '/static/foodstim60/granola w milk.jpg', 'key': 'i', 'origWidth': 410, 'origHeight': 410, 'width': 410, 'height': 410, 'widthPercent': 0.45, 'rescaleHeight': False, 'trialN': 89, 'loaded': True, 'loadedTime': 2871.7999999523163, 'positionName': 'RIGHT', 'positionCoords': [748.8, 245], 'bid': 3.31}]",190930.29999995232,1669829794377,shreddedwheatwithmilk,granola w milk,5.01,3.31,-1.6999999999999997,shreddedwheatwithmilk,2261.900000035763,2266,2266.0,True,u,193704.19999998808,2773.900000035763,1669829797151,2774,HRV,HRV_0068,2022-11-30 17:41:01
90,"[{'imgObject': {}, 'id': 'froot loops w milk', 'src': '/static/foodstim60/froot loops w milk.jpg', 'key': 'u', 'origWidth': 410, 'origHeight': 410, 'width': 410, 'height': 410, 'widthPercent': 0.45, 'rescaleHeight': False, 'trialN': 90, 'loaded': True, 'loadedTime': 2922.599999964237, 'positionName': 'LEFT', 'positionCoords': [281.2, 245], 'bid': 5.05}, {'imgObject': {}, 'id': 'burrito', 'src': '/static/foodstim60/burrito.jpg', 'key': 'i', 'origWidth': 410, 'origHeight': 410, 'width': 410, 'height': 410, 'widthPercent': 0.45, 'rescaleHeight': False, 'trialN': 90, 'loaded': True, 'loadedTime': 2847.199999988079, 'positionName': 'RIGHT', 'positionCoords': [748.8, 245], 'bid': 9.04}]",268945.09999996424,1669829872388,froot loops w milk,burrito,5.05,9.04,3.9899999999999993,burrito,2496.600000023842,2501,2501.100000023842,True,i,271956.1999999881,3011.100000023842,1669829875399,3011,HRV,HRV_0068,2022-11-30 17:41:01
91,"[{'imgObject': {}, 'id': 'lox', 'src': '/static/foodstim60/lox.jpg', 'key': 'u', 'origWidth': 410, 'origHeight': 411, 'width': 410, 'height': 411, 'widthPercent': 0.45, 'rescaleHeight': False, 'trialN': 91, 'loaded': True, 'loadedTime': 2838.599999964237, 'positionName': 'LEFT', 'positionCoords': [281.2, 244.5], 'bid': 7.68}, {'imgObject': {}, 'id': 'grilled chicken strips', 'src': '/static/foodstim60/grilled chicken strips.jpg', 'key': 'i', 'origWidth': 410, 'origHeight': 411, 'width': 410, 'height': 411, 'widthPercent': 0.45, 'rescaleHeight': False, 'trialN': 91, 'loaded': True, 'loadedTime': 2921.199999988079, 'positionName': 'RIGHT', 'positionCoords': [748.8, 244.5], 'bid': 9.3}]",271956.5,1669829875400,lox,grilled chicken strips,7.68,9.3,1.620000000000001,grilled chicken strips,1963.199999988079,1966,1966.699999988079,True,i,274432.7999999523,2476.2999999523163,1669829877876,2476,HRV,HRV_0068,2022-11-30 17:41:01
92,"[{'imgObject': {}, 'id': 'rigatoni', 'src': '/static/foodstim60/rigatoni.jpg', 'key': 'u', 'origWidth': 411, 'origHeight': 411, 'width': 411, 'height': 411, 'widthPercent': 0.45, 'rescaleHeight': False, 'trialN': 92, 'loaded': True, 'loadedTime': 2925.7999999523163, 'positionName': 'LEFT', 'positionCoords': [280.2, 244.5], 'bid': 4.95}, {'imgObject': {}, 'id': 'turkey sandwich', 'src': '/static/foodstim60/turkey sandwich.jpg', 'key': 'i', 'origWidth': 409, 'origHeight': 409, 'width': 409, 'height': 409, 'widthPercent': 0.45, 'rescaleHeight': False, 'trialN': 92, 'loaded': True, 'loadedTime': 2832.699999988079, 'positionName': 'RIGHT', 'positionCoords': [748.8, 245.5], 'bid': 7.63}]",274433.0,1669829877876,rigatoni,turkey sandwich,4.95,7.63,2.6799999999999997,turkey sandwich,2323.199999988079,2327,2327.5,True,i,277263.1999999881,2830.199999988079,1669829880706,2830,HRV,HRV_0068,2022-11-30 17:41:01
93,"[{'imgObject': {}, 'id': 'veggieswithdip', 'src': '/static/foodstim60/veggieswithdip.jpg', 'key': 'u', 'origWidth': 409, 'origHeight': 409, 'width': 409, 'height': 409, 'widthPercent': 0.45, 'rescaleHeight': False, 'trialN': 93, 'loaded': True, 'loadedTime': 2872.599999964237, 'positionName': 'LEFT', 'positionCoords': [282.2, 245.5], 'bid': 2.41}, {'imgObject': {}, 'id': 'hashbrowns', 'src': '/static/foodstim60/hashbrowns.jpg', 'key': 'i', 'origWidth': 411, 'origHeight': 410, 'width': 411, 'height': 410, 'widthPercent': 0.45, 'rescaleHeight': False, 'trialN': 93, 'loaded': True, 'loadedTime': 2922.599999964237, 'positionName': 'RIGHT', 'positionCoords': [748.8, 245], 'bid': 1.34}]",277263.39999997616,1669829880706,veggieswithdip,hashbrowns,2.41,1.34,-1.07,veggieswithdip,1488.699999988079,1495,1494.699999988079,True,u,279268.1999999881,2004.800000011921,1669829882711,2005,HRV,HRV_0068,2022-11-30 17:41:01
94,"[{'imgObject': {}, 'id': 'edamame', 'src': '/static/foodstim60/edamame.jpg', 'key': 'u', 'origWidth': 409, 'origHeight': 410, 'width': 409, 'height': 410, 'widthPercent': 0.45, 'rescaleHeight': False, 'trialN': 94, 'loaded': True, 'loadedTime': 2860.399999976158, 'positionName': 'LEFT', 'positionCoords': [282.2, 245], 'bid': 4.98}, {'imgObject': {}, 'id': 'cheerios', 'src': '/static/foodstim60/cheerios.jpg', 'key': 'i', 'origWidth': 409, 'origHeight': 410, 'width': 409, 'height': 410, 'widthPercent': 0.45, 'rescaleHeight': False, 'trialN': 94, 'loaded': True, 'loadedTime': 2904.7999999523163, 'positionName': 'RIGHT', 'positionCoords': [748.8, 245], 'bid': 5}]",279268.59999996424,1669829882711,edamame,cheerios,4.98,5.0,0.019999999999999574,cheerios,1911.5,1917,1916.4000000357628,True,i,281692.2999999523,2423.699999988079,1669829885135,2424,HRV,HRV_0068,2022-11-30 17:41:01
95,"[{'imgObject': {}, 'id': 'tacos', 'src': '/static/foodstim60/tacos.jpg', 'key': 'u', 'origWidth': 411, 'origHeight': 411, 'width': 411, 'height': 411, 'widthPercent': 0.45, 'rescaleHeight': False, 'trialN': 95, 'loaded': True, 'loadedTime': 2925.199999988079, 'positionName': 'LEFT', 'positionCoords': [280.2, 244.5], 'bid': 9.7}, {'imgObject': {}, 'id': 'cocktailshrimp', 'src': '/static/foodstim60/cocktailshrimp.jpg', 'key': 'i', 'origWidth': 410, 'origHeight': 410, 'width': 410, 'height': 410, 'widthPercent': 0.45, 'rescaleHeight': False, 'trialN': 95, 'loaded': True, 'loadedTime': 2925.699999988079, 'positionName': 'RIGHT', 'positionCoords': [748.8, 245], 'bid': 8.52}]",281692.59999996424,1669829885135,tacos,cocktailshrimp,9.7,8.52,-1.1799999999999997,tacos,1245.699999988079,1251,1250.6000000238419,True,u,283452.09999996424,1759.5,1669829886895,1760,HRV,HRV_0068,2022-11-30 17:41:01
96,"[{'imgObject': {}, 'id': 'rigatoni', 'src': '/static/foodstim60/rigatoni.jpg', 'key': 'u', 'origWidth': 411, 'origHeight': 411, 'width': 411, 'height': 411, 'widthPercent': 0.45, 'rescaleHeight': False, 'trialN': 96, 'loaded': True, 'loadedTime': 2926.399999976158, 'positionName': 'LEFT', 'positionCoords': [280.2, 244.5], 'bid': 4.95}, {'imgObject': {}, 'id': 'olives', 'src': '/static/foodstim60/olives.jpg', 'key': 'i', 'origWidth': 410, 'origHeight': 410, 'width': 410, 'height': 410, 'widthPercent': 0.45, 'rescaleHeight': False, 'trialN': 96, 'loaded': True, 'loadedTime': 2809.2999999523163, 'positionName': 'RIGHT', 'positionCoords': [748.8, 245], 'bid': 4.79}]",283452.39999997616,1669829886895,rigatoni,olives,4.95,4.79,-0.16000000000000014,rigatoni,974.0,979,978.8000000119209,True,u,284940.1999999881,1487.800000011921,1669829888383,1488,HRV,HRV_0068,2022-11-30 17:41:01
97,"[{'imgObject': {}, 'id': 'cheerios', 'src': '/static/foodstim60/cheerios.jpg', 'key': 'u', 'origWidth': 409, 'origHeight': 410, 'width': 409, 'height': 410, 'widthPercent': 0.45, 'rescaleHeight': False, 'trialN': 97, 'loaded': True, 'loadedTime': 2904.599999964237, 'positionName': 'LEFT', 'positionCoords': [282.2, 245], 'bid': 5}, {'imgObject': {}, 'id': 'lox', 'src': '/static/foodstim60/lox.jpg', 'key': 'i', 'origWidth': 410, 'origHeight': 411, 'width': 410, 'height': 411, 'widthPercent': 0.45, 'rescaleHeight': False, 'trialN': 97, 'loaded': True, 'loadedTime': 2846.5, 'positionName': 'RIGHT', 'positionCoords': [748.8, 244.5], 'bid': 7.68}]",284940.59999996424,1669829888383,cheerios,lox,5.0,7.68,2.6799999999999997,lox,1742.800000011921,1745,1745.6000000238419,True,i,287196.2999999523,2255.699999988079,1669829890639,2256,HRV,HRV_0068,2022-11-30 17:41:01
98,"[{'imgObject': {}, 'id': 'seaweed', 'src': '/static/foodstim60/seaweed.jpg', 'key': 'u', 'origWidth': 410, 'origHeight': 410, 'width': 410, 'height': 410, 'widthPercent': 0.45, 'rescaleHeight': False, 'trialN': 98, 'loaded': True, 'loadedTime': 2784.7999999523163, 'positionName': 'LEFT', 'positionCoords': [281.2, 245], 'bid': 5}, {'imgObject': {}, 'id': 'bagel plain', 'src': '/static/foodstim60/bagel plain.jpg', 'key': 'i', 'origWidth': 410, 'origHeight': 410, 'width': 410, 'height': 410, 'widthPercent': 0.45, 'rescaleHeight': False, 'trialN': 98, 'loaded': True, 'loadedTime': 2895.599999964237, 'positionName': 'RIGHT', 'positionCoords': [748.8, 245], 'bid': 5.0200000000000005}]",287196.59999996424,1669829890639,seaweed,bagel plain,5.0,5.0200000000000005,0.020000000000000462,bagel plain,1788.699999988079,1795,1794.9000000357628,True,i,289495.7999999523,2299.199999988079,1669829892938,2299,HRV,HRV_0068,2022-11-30 17:41:01
99,"[{'imgObject': {}, 'id': 'sushi w_condiments', 'src': '/static/foodstim60/sushi w_condiments.jpg', 'key': 'u', 'origWidth': 410, 'origHeight': 410, 'width': 410, 'height': 410, 'widthPercent': 0.45, 'rescaleHeight': False, 'trialN': 99, 'loaded': True, 'loadedTime': 2812.2999999523163, 'positionName': 'LEFT', 'positionCoords': [281.2, 245], 'bid': 9.73}, {'imgObject': {}, 'id': 'tacos', 'src': '/static/foodstim60/tacos.jpg', 'key': 'i', 'origWidth': 411, 'origHeight': 411, 'width': 411, 'height': 411, 'widthPercent': 0.45, 'rescaleHeight': False, 'trialN': 99, 'loaded': True, 'loadedTime': 2924.599999964237, 'positionName': 'RIGHT', 'positionCoords': [748.8, 244.5], 'bid': 9.7}]",289496.0,1669829892938,sushi w_condiments,tacos,9.73,9.7,-0.030000000000001137,sushi w_condiments,1551.0999999642372,1556,1555.8999999761581,True,u,291564.1999999881,2068.199999988079,1669829895006,2068,HRV,HRV_0068,2022-11-30 17:41:01
100,"[{'imgObject': {}, 'id': 'chicken nuggets2', 'src': '/static/foodstim60/chicken nuggets2.jpg', 'key': 'u', 'origWidth': 410, 'origHeight': 409, 'width': 410, 'height': 409, 'widthPercent': 0.45, 'rescaleHeight': False, 'trialN': 100, 'loaded': True, 'loadedTime': 2813.599999964237, 'positionName': 'LEFT', 'positionCoords': [281.2, 245.5], 'bid': 9.47}, {'imgObject': {}, 'id': 'cocktailshrimp', 'src': '/static/foodstim60/cocktailshrimp.jpg', 'key': 'i', 'origWidth': 410, 'origHeight': 410, 'width': 410, 'height': 410, 'widthPercent': 0.45, 'rescaleHeight': False, 'trialN': 100, 'loaded': True, 'loadedTime': 2925.7999999523163, 'positionName': 'RIGHT', 'positionCoords': [748.8, 245], 'bid': 8.52}]",291564.39999997616,1669829895007,chicken nuggets2,cocktailshrimp,9.47,8.52,-0.9500000000000011,chicken nuggets2,2603.199999988079,2607,2608.100000023842,True,u,294684.2999999523,3119.899999976158,1669829898126,3119,HRV,HRV_0068,2022-11-30 17:41:01
101,"[{'imgObject': {}, 'id': 'cantaloupe', 'src': '/static/foodstim60/cantaloupe.jpg', 'key': 'u', 'origWidth': 409, 'origHeight': 409, 'width': 409, 'height': 409, 'widthPercent': 0.45, 'rescaleHeight': False, 'trialN': 101, 'loaded': True, 'loadedTime': 2808.599999964237, 'positionName': 'LEFT', 'positionCoords': [282.2, 245.5], 'bid': 5.45}, {'imgObject': {}, 'id': 'banana', 'src': '/static/foodstim60/banana.jpg', 'key': 'i', 'origWidth': 410, 'origHeight': 410, 'width': 410, 'height': 410, 'widthPercent': 0.45, 'rescaleHeight': False, 'trialN': 101, 'loaded': True, 'loadedTime': 2870.2999999523163, 'positionName': 'RIGHT', 'positionCoords': [748.8, 245], 'bid': 6.3100000000000005}]",294684.59999996424,1669829898127,cantaloupe,banana,5.45,6.3100000000000005,0.8600000000000003,banana,1658.1000000238419,1662,1663.0,True,i,296860.1999999881,2175.600000023842,1669829900302,2175,HRV,HRV_0068,2022-11-30 17:41:01
102,"[{'imgObject': {}, 'id': 'fried eggs', 'src': '/static/foodstim60/fried eggs.jpg', 'key': 'u', 'origWidth': 410, 'origHeight': 410, 'width': 410, 'height': 410, 'widthPercent': 0.45, 'rescaleHeight': False, 'trialN': 102, 'loaded': True, 'loadedTime': 2873.199999988079, 'positionName': 'LEFT', 'positionCoords': [281.2, 245], 'bid': 6.51}, {'imgObject': {}, 'id': 'froot loops w milk', 'src': '/static/foodstim60/froot loops w milk.jpg', 'key': 'i', 'origWidth': 410, 'origHeight': 410, 'width': 410, 'height': 410, 'widthPercent': 0.45, 'rescaleHeight': False, 'trialN': 102, 'loaded': True, 'loadedTime': 2923.099999964237, 'positionName': 'RIGHT', 'positionCoords': [748.8, 245], 'bid': 5.05}]",296860.5,1669829900302,fried eggs,froot loops w milk,6.51,5.05,-1.46,fried eggs,1240.199999988079,1245,1245.199999988079,True,u,298612.0,1751.5,1669829902054,1752,HRV,HRV_0068,2022-11-30 17:41:01
103,"[{'imgObject': {}, 'id': 'salmon', 'src': '/static/foodstim60/salmon.jpg', 'key': 'u', 'origWidth': 410, 'origHeight': 409, 'width': 410, 'height': 409, 'widthPercent': 0.45, 'rescaleHeight': False, 'trialN': 103, 'loaded': True, 'loadedTime': 2810.5, 'positionName': 'LEFT', 'positionCoords': [281.2, 245.5], 'bid': 9.5}, {'imgObject': {}, 'id': 'steak', 'src': '/static/foodstim60/steak.jpg', 'key': 'i', 'origWidth': 410, 'origHeight': 410, 'width': 410, 'height': 410, 'widthPercent': 0.45, 'rescaleHeight': False, 'trialN': 103, 'loaded': True, 'loadedTime': 2883.099999964237, 'positionName': 'RIGHT', 'positionCoords': [748.8, 245], 'bid': 9.66}]",298612.09999996424,1669829902054,salmon,steak,9.5,9.66,0.16000000000000014,steak,774.8000000119209,778,778.1999999880791,True,i,299900.1999999881,1288.1000000238419,1669829903342,1288,HRV,HRV_0068,2022-11-30 17:41:01
104,"[{'imgObject': {}, 'id': 'salad w chicken', 'src': '/static/foodstim60/salad w chicken.jpg', 'key': 'u', 'origWidth': 411, 'origHeight': 411, 'width': 411, 'height': 411, 'widthPercent': 0.45, 'rescaleHeight': False, 'trialN': 104, 'loaded': True, 'loadedTime': 2804.699999988079, 'positionName': 'LEFT', 'positionCoords': [280.2, 244.5], 'bid': 8.76}, {'imgObject': {}, 'id': 'salmon', 'src': '/static/foodstim60/salmon.jpg', 'key': 'i', 'origWidth': 410, 'origHeight': 409, 'width': 410, 'height': 409, 'widthPercent': 0.45, 'rescaleHeight': False, 'trialN': 104, 'loaded': True, 'loadedTime': 2810.899999976158, 'positionName': 'RIGHT', 'positionCoords': [748.8, 245.5], 'bid': 9.5}]",299900.39999997616,1669829903342,salad w chicken,salmon,8.76,9.5,0.7400000000000002,salmon,2399.199999988079,2413,2413.5,True,i,302816.6999999881,2916.300000011921,1669829906258,2916,HRV,HRV_0068,2022-11-30 17:41:01
105,"[{'imgObject': {}, 'id': 'cherries', 'src': '/static/foodstim60/cherries.jpg', 'key': 'u', 'origWidth': 410, 'origHeight': 411, 'width': 410, 'height': 411, 'widthPercent': 0.45, 'rescaleHeight': False, 'trialN': 105, 'loaded': True, 'loadedTime': 2814.399999976158, 'positionName': 'LEFT', 'positionCoords': [281.2, 244.5], 'bid': 7.63}, {'imgObject': {}, 'id': 'lox', 'src': '/static/foodstim60/lox.jpg', 'key': 'i', 'origWidth': 410, 'origHeight': 411, 'width': 410, 'height': 411, 'widthPercent': 0.45, 'rescaleHeight': False, 'trialN': 105, 'loaded': True, 'loadedTime': 2846, 'positionName': 'RIGHT', 'positionCoords': [748.8, 244.5], 'bid': 7.68}]",302817.0,1669829906259,cherries,lox,7.63,7.68,0.04999999999999982,lox,1464.7999999523163,1469,1469.199999988079,True,i,304796.1999999881,1979.199999988079,1669829908238,1979,HRV,HRV_0068,2022-11-30 17:41:01
106,"[{'imgObject': {}, 'id': 'froot loops w milk', 'src': '/static/foodstim60/froot loops w milk.jpg', 'key': 'u', 'origWidth': 410, 'origHeight': 410, 'width': 410, 'height': 410, 'widthPercent': 0.45, 'rescaleHeight': False, 'trialN': 106, 'loaded': True, 'loadedTime': 2923.099999964237, 'positionName': 'LEFT', 'positionCoords': [281.2, 245], 'bid': 5.05}, {'imgObject': {}, 'id': 'corn cob', 'src': '/static/foodstim60/corn cob.jpg', 'key': 'i', 'origWidth': 411, 'origHeight': 411, 'width': 411, 'height': 411, 'widthPercent': 0.45, 'rescaleHeight': False, 'trialN': 106, 'loaded': True, 'loadedTime': 2888.199999988079, 'positionName': 'RIGHT', 'positionCoords': [748.8, 244.5], 'bid': 5}]",304796.5,1669829908238,froot loops w milk,corn cob,5.05,5.0,-0.04999999999999982,corn cob,2180.199999988079,2185,2185.199999988079,True,i,307492.39999997616,2695.899999976158,1669829910934,2696,HRV,HRV_0068,2022-11-30 17:41:01
107,"[{'imgObject': {}, 'id': 'cantaloupe', 'src': '/static/foodstim60/cantaloupe.jpg', 'key': 'u', 'origWidth': 409, 'origHeight': 409, 'width': 409, 'height': 409, 'widthPercent': 0.45, 'rescaleHeight': False, 'trialN': 107, 'loaded': True, 'loadedTime': 2808.599999964237, 'positionName': 'LEFT', 'positionCoords': [282.2, 245.5], 'bid': 5.45}, {'imgObject': {}, 'id': 'chicken nuggets2', 'src': '/static/foodstim60/chicken nuggets2.jpg', 'key': 'i', 'origWidth': 410, 'origHeight': 409, 'width': 410, 'height': 409, 'widthPercent': 0.45, 'rescaleHeight': False, 'trialN': 107, 'loaded': True, 'loadedTime': 2813.599999964237, 'positionName': 'RIGHT', 'positionCoords': [748.8, 245.5], 'bid': 9.47}]",307492.6999999881,1669829910934,cantaloupe,chicken nuggets2,5.45,9.47,4.0200000000000005,chicken nuggets2,790.8000000119209,795,795.5,True,i,308794.6999999881,1302.0,1669829912236,1302,HRV,HRV_0068,2022-11-30 17:41:01
