trialN,stimuli,trialStartTime,trialStartTime_UNIX,stimulus1,stimulus2,stimulus1Bid,stimulus2Bid,delta,selected,rt,rt_UNIX,rt_perfnow,receivedResponse,rsp,trialEndTime,trialDuration,trialEndTime_UNIX,trialDuration_UNIX,exp,subjectId,date
0,"[{'imgObject': {}, 'id': 'Tribe humus pita', 'src': '/static/foodstim60/Tribe humus pita.jpg', 'key': 'u', 'origWidth': 411, 'origHeight': 411, 'width': 411, 'height': 411, 'widthPercent': 0.45, 'rescaleHeight': False, 'trialN': 0, 'loaded': True, 'loadedTime': 4445.699999988079, 'positionName': 'LEFT', 'positionCoords': [244.68, 178.5], 'bid': 4.25}, {'imgObject': {}, 'id': 'blueberries', 'src': '/static/foodstim60/blueberries.jpg', 'key': 'i', 'origWidth': 411, 'origHeight': 411, 'width': 411, 'height': 411, 'widthPercent': 0.45, 'rescaleHeight': False, 'trialN': 0, 'loaded': True, 'loadedTime': 4514.299999982119, 'positionName': 'RIGHT', 'positionCoords': [710.32, 178.5], 'bid': 9.46}]",4845.0999999940395,1669829363781,Tribe humus pita,blueberries,4.25,9.46,5.210000000000001,blueberries,1490.7999999821186,1494,1493.4000000059605,True,i,6846.199999988079,2001.0999999940395,1669829365782,2001,HRV,HRV_0020,2022-11-30 17:36:00
1,"[{'imgObject': {}, 'id': 'orange slices', 'src': '/static/foodstim60/orange slices.jpg', 'key': 'u', 'origWidth': 409, 'origHeight': 410, 'width': 409, 'height': 410, 'widthPercent': 0.45, 'rescaleHeight': False, 'trialN': 1, 'loaded': True, 'loadedTime': 4532.699999988079, 'positionName': 'LEFT', 'positionCoords': [246.68, 179], 'bid': 9.74}, {'imgObject': {}, 'id': 'cherries', 'src': '/static/foodstim60/cherries.jpg', 'key': 'i', 'origWidth': 410, 'origHeight': 411, 'width': 410, 'height': 411, 'widthPercent': 0.45, 'rescaleHeight': False, 'trialN': 1, 'loaded': True, 'loadedTime': 4535.899999976158, 'positionName': 'RIGHT', 'positionCoords': [710.32, 178.5], 'bid': 9.08}]",6847.0,1669829365783,orange slices,cherries,9.74,9.08,-0.6600000000000001,orange slices,903.0999999940395,904,903.7999999821186,True,u,8253.5,1406.5,1669829367190,1407,HRV,HRV_0020,2022-11-30 17:36:00
2,"[{'imgObject': {}, 'id': 'strawberries', 'src': '/static/foodstim60/strawberries.jpg', 'key': 'u', 'origWidth': 410, 'origHeight': 410, 'width': 410, 'height': 410, 'widthPercent': 0.45, 'rescaleHeight': False, 'trialN': 2, 'loaded': True, 'loadedTime': 4539.5999999940395, 'positionName': 'LEFT', 'positionCoords': [245.68, 179], 'bid': 9.64}, {'imgObject': {}, 'id': 'Grapes', 'src': '/static/foodstim60/Grapes.jpg', 'key': 'i', 'origWidth': 411, 'origHeight': 411, 'width': 411, 'height': 411, 'widthPercent': 0.45, 'rescaleHeight': False, 'trialN': 2, 'loaded': True, 'loadedTime': 4544, 'positionName': 'RIGHT', 'positionCoords': [710.32, 178.5], 'bid': 7.88}]",8253.799999982119,1669829367190,strawberries,Grapes,9.64,7.88,-1.7600000000000007,strawberries,901.2000000178814,902,902.0,True,u,9662.199999988079,1408.4000000059605,1669829368598,1408,HRV,HRV_0020,2022-11-30 17:36:00
3,"[{'imgObject': {}, 'id': 'mashed potato', 'src': '/static/foodstim60/mashed potato.jpg', 'key': 'u', 'origWidth': 409, 'origHeight': 409, 'width': 409, 'height': 409, 'widthPercent': 0.45, 'rescaleHeight': False, 'trialN': 3, 'loaded': True, 'loadedTime': 4546.799999982119, 'positionName': 'LEFT', 'positionCoords': [246.68, 179.5], 'bid': 0.34}, {'imgObject': {}, 'id': 'bagel plain', 'src': '/static/foodstim60/bagel plain.jpg', 'key': 'i', 'origWidth': 410, 'origHeight': 410, 'width': 410, 'height': 410, 'widthPercent': 0.45, 'rescaleHeight': False, 'trialN': 3, 'loaded': True, 'loadedTime': 4555, 'positionName': 'RIGHT', 'positionCoords': [710.32, 179], 'bid': 1.28}]",9663.199999988079,1669829368599,mashed potato,bagel plain,0.34,1.28,0.94,bagel plain,1845.5999999940395,1847,1846.9000000059605,True,i,12013.59999999404,2350.4000000059605,1669829370950,2351,HRV,HRV_0020,2022-11-30 17:36:00
4,"[{'imgObject': {}, 'id': 'cantaloupe', 'src': '/static/foodstim60/cantaloupe.jpg', 'key': 'u', 'origWidth': 409, 'origHeight': 409, 'width': 409, 'height': 409, 'widthPercent': 0.45, 'rescaleHeight': False, 'trialN': 4, 'loaded': True, 'loadedTime': 4557.199999988079, 'positionName': 'LEFT', 'positionCoords': [246.68, 179.5], 'bid': 9.52}, {'imgObject': {}, 'id': 'raisin bran w milk', 'src': '/static/foodstim60/raisin bran w milk.jpg', 'key': 'i', 'origWidth': 411, 'origHeight': 411, 'width': 411, 'height': 411, 'widthPercent': 0.45, 'rescaleHeight': False, 'trialN': 4, 'loaded': True, 'loadedTime': 4557.5999999940395, 'positionName': 'RIGHT', 'positionCoords': [710.32, 178.5], 'bid': 7.67}]",12013.699999988079,1669829370950,cantaloupe,raisin bran w milk,9.52,7.67,-1.8499999999999996,cantaloupe,905.4000000059605,906,906.5,True,u,13421.5,1407.800000011921,1669829372358,1408,HRV,HRV_0020,2022-11-30 17:36:00
5,"[{'imgObject': {}, 'id': 'lox', 'src': '/static/foodstim60/lox.jpg', 'key': 'u', 'origWidth': 410, 'origHeight': 411, 'width': 410, 'height': 411, 'widthPercent': 0.45, 'rescaleHeight': False, 'trialN': 5, 'loaded': True, 'loadedTime': 4563.199999988079, 'positionName': 'LEFT', 'positionCoords': [245.68, 178.5], 'bid': 9.86}, {'imgObject': {}, 'id': 'salmon', 'src': '/static/foodstim60/salmon.jpg', 'key': 'i', 'origWidth': 410, 'origHeight': 409, 'width': 410, 'height': 409, 'widthPercent': 0.45, 'rescaleHeight': False, 'trialN': 5, 'loaded': True, 'loadedTime': 4566.0999999940395, 'positionName': 'RIGHT', 'positionCoords': [710.32, 179.5], 'bid': 9.77}]",13421.899999976158,1669829372358,lox,salmon,9.86,9.77,-0.08999999999999986,lox,878.3000000119209,879,879.0,True,u,14805.59999999404,1383.7000000178814,1669829373742,1384,HRV,HRV_0020,2022-11-30 17:36:00
6,"[{'imgObject': {}, 'id': 'kiwi', 'src': '/static/foodstim60/kiwi.jpg', 'key': 'u', 'origWidth': 410, 'origHeight': 410, 'width': 410, 'height': 410, 'widthPercent': 0.45, 'rescaleHeight': False, 'trialN': 6, 'loaded': True, 'loadedTime': 4574.699999988079, 'positionName': 'LEFT', 'positionCoords': [245.68, 179], 'bid': 2.45}, {'imgObject': {}, 'id': 'luckycharms', 'src': '/static/foodstim60/luckycharms.jpg', 'key': 'i', 'origWidth': 410, 'origHeight': 409, 'width': 410, 'height': 409, 'widthPercent': 0.45, 'rescaleHeight': False, 'trialN': 6, 'loaded': True, 'loadedTime': 4576.5999999940395, 'positionName': 'RIGHT', 'positionCoords': [710.32, 179.5], 'bid': 2.3000000000000003}]",14806.09999999404,1669829373742,kiwi,luckycharms,2.45,2.3000000000000003,-0.1499999999999999,luckycharms,1084.5,1086,1085.9000000059605,True,i,16397.19999998808,1591.0999999940395,1669829375334,1592,HRV,HRV_0020,2022-11-30 17:36:00
7,"[{'imgObject': {}, 'id': 'eggs', 'src': '/static/foodstim60/eggs.jpg', 'key': 'u', 'origWidth': 409, 'origHeight': 409, 'width': 409, 'height': 409, 'widthPercent': 0.45, 'rescaleHeight': False, 'trialN': 7, 'loaded': True, 'loadedTime': 4578.799999982119, 'positionName': 'LEFT', 'positionCoords': [246.68, 179.5], 'bid': 3.75}, {'imgObject': {}, 'id': 'tacos', 'src': '/static/foodstim60/tacos.jpg', 'key': 'i', 'origWidth': 411, 'origHeight': 411, 'width': 411, 'height': 411, 'widthPercent': 0.45, 'rescaleHeight': False, 'trialN': 7, 'loaded': True, 'loadedTime': 4580.399999976158, 'positionName': 'RIGHT', 'positionCoords': [710.32, 178.5], 'bid': 0.38}]",16397.69999998808,1669829375334,eggs,tacos,3.75,0.38,-3.37,eggs,1342.9000000059605,1344,1343.5,True,u,18245.399999976158,1847.699999988079,1669829377182,1848,HRV,HRV_0020,2022-11-30 17:36:00
8,"[{'imgObject': {}, 'id': 'fried eggs', 'src': '/static/foodstim60/fried eggs.jpg', 'key': 'u', 'origWidth': 410, 'origHeight': 410, 'width': 410, 'height': 410, 'widthPercent': 0.45, 'rescaleHeight': False, 'trialN': 8, 'loaded': True, 'loadedTime': 4586.5999999940395, 'positionName': 'LEFT', 'positionCoords': [245.68, 179], 'bid': 4.78}, {'imgObject': {}, 'id': 'cherry tomato', 'src': '/static/foodstim60/cherry tomato.jpg', 'key': 'i', 'origWidth': 410, 'origHeight': 410, 'width': 410, 'height': 410, 'widthPercent': 0.45, 'rescaleHeight': False, 'trialN': 8, 'loaded': True, 'loadedTime': 4589.399999976158, 'positionName': 'RIGHT', 'positionCoords': [710.32, 179], 'bid': 6.84}]",18245.79999998212,1669829377182,fried eggs,cherry tomato,4.78,6.84,2.0599999999999996,cherry tomato,1296,1297,1296.5,True,i,20045.69999998808,1799.9000000059605,1669829378982,1800,HRV,HRV_0020,2022-11-30 17:36:00
9,"[{'imgObject': {}, 'id': 'Grapes', 'src': '/static/foodstim60/Grapes.jpg', 'key': 'u', 'origWidth': 411, 'origHeight': 411, 'width': 411, 'height': 411, 'widthPercent': 0.45, 'rescaleHeight': False, 'trialN': 9, 'loaded': True, 'loadedTime': 4543.199999988079, 'positionName': 'LEFT', 'positionCoords': [244.68, 178.5], 'bid': 7.88}, {'imgObject': {}, 'id': 'banana', 'src': '/static/foodstim60/banana.jpg', 'key': 'i', 'origWidth': 410, 'origHeight': 410, 'width': 410, 'height': 410, 'widthPercent': 0.45, 'rescaleHeight': False, 'trialN': 9, 'loaded': True, 'loadedTime': 4597.0999999940395, 'positionName': 'RIGHT', 'positionCoords': [710.32, 179], 'bid': 8.42}]",20046.29999998212,1669829378983,Grapes,banana,7.88,8.42,0.54,banana,1167.0999999940395,1168,1168.800000011921,True,i,21718.5,1672.2000000178814,1669829380655,1672,HRV,HRV_0020,2022-11-30 17:36:00
10,"[{'imgObject': {}, 'id': 'bagel plain', 'src': '/static/foodstim60/bagel plain.jpg', 'key': 'u', 'origWidth': 410, 'origHeight': 410, 'width': 410, 'height': 410, 'widthPercent': 0.45, 'rescaleHeight': False, 'trialN': 10, 'loaded': True, 'loadedTime': 4551.899999976158, 'positionName': 'LEFT', 'positionCoords': [245.68, 179], 'bid': 1.28}, {'imgObject': {}, 'id': 'sweetpotato', 'src': '/static/foodstim60/sweetpotato.jpg', 'key': 'i', 'origWidth': 410, 'origHeight': 410, 'width': 410, 'height': 410, 'widthPercent': 0.45, 'rescaleHeight': False, 'trialN': 10, 'loaded': True, 'loadedTime': 4659, 'positionName': 'RIGHT', 'positionCoords': [710.32, 179], 'bid': 8.16}]",21719.19999998808,1669829380656,bagel plain,sweetpotato,1.28,8.16,6.88,sweetpotato,821.1999999880791,822,821.9000000059605,True,i,23045.399999976158,1326.199999988079,1669829381982,1326,HRV,HRV_0020,2022-11-30 17:36:00
11,"[{'imgObject': {}, 'id': 'yogurt no spoon', 'src': '/static/foodstim60/yogurt no spoon.jpg', 'key': 'u', 'origWidth': 411, 'origHeight': 410, 'width': 411, 'height': 410, 'widthPercent': 0.45, 'rescaleHeight': False, 'trialN': 11, 'loaded': True, 'loadedTime': 4660.5, 'positionName': 'LEFT', 'positionCoords': [244.68, 179], 'bid': 8.85}, {'imgObject': {}, 'id': 'bagel and cc', 'src': '/static/foodstim60/bagel and cc.jpg', 'key': 'i', 'origWidth': 410, 'origHeight': 410, 'width': 410, 'height': 410, 'widthPercent': 0.45, 'rescaleHeight': False, 'trialN': 11, 'loaded': True, 'loadedTime': 4672.799999982119, 'positionName': 'RIGHT', 'positionCoords': [710.32, 179], 'bid': 1.86}]",23045.79999998212,1669829381982,yogurt no spoon,bagel and cc,8.85,1.86,-6.989999999999999,yogurt no spoon,1011.2000000178814,1012,1011.9000000059605,True,u,24566.399999976158,1520.5999999940395,1669829383503,1521,HRV,HRV_0020,2022-11-30 17:36:00
12,"[{'imgObject': {}, 'id': 'mashed potato', 'src': '/static/foodstim60/mashed potato.jpg', 'key': 'u', 'origWidth': 409, 'origHeight': 409, 'width': 409, 'height': 409, 'widthPercent': 0.45, 'rescaleHeight': False, 'trialN': 12, 'loaded': True, 'loadedTime': 4545.299999982119, 'positionName': 'LEFT', 'positionCoords': [246.68, 179.5], 'bid': 0.34}, {'imgObject': {}, 'id': 'baked potato', 'src': '/static/foodstim60/baked potato.jpg', 'key': 'i', 'origWidth': 409, 'origHeight': 410, 'width': 409, 'height': 410, 'widthPercent': 0.45, 'rescaleHeight': False, 'trialN': 12, 'loaded': True, 'loadedTime': 4677.299999982119, 'positionName': 'RIGHT', 'positionCoords': [710.32, 179], 'bid': 3.5700000000000003}]",24566.69999998808,1669829383503,mashed potato,baked potato,0.34,3.5700000000000003,3.2300000000000004,baked potato,1381.0999999940395,1383,1382.699999988079,True,i,26453.19999998808,1886.5,1669829385390,1887,HRV,HRV_0020,2022-11-30 17:36:00
13,"[{'imgObject': {}, 'id': 'chickenfingers', 'src': '/static/foodstim60/chickenfingers.jpg', 'key': 'u', 'origWidth': 410, 'origHeight': 410, 'width': 410, 'height': 410, 'widthPercent': 0.45, 'rescaleHeight': False, 'trialN': 13, 'loaded': True, 'loadedTime': 4689.199999988079, 'positionName': 'LEFT', 'positionCoords': [245.68, 179], 'bid': 6.75}, {'imgObject': {}, 'id': 'avocado', 'src': '/static/foodstim60/avocado.jpg', 'key': 'i', 'origWidth': 409, 'origHeight': 409, 'width': 409, 'height': 409, 'widthPercent': 0.45, 'rescaleHeight': False, 'trialN': 13, 'loaded': True, 'loadedTime': 4690.799999982119, 'positionName': 'RIGHT', 'positionCoords': [710.32, 179.5], 'bid': 2.56}]",26453.69999998808,1669829385390,chickenfingers,avocado,6.75,2.56,-4.1899999999999995,chickenfingers,1625.5999999940395,1626,1626.0,True,u,28581.0,2127.300000011921,1669829387517,2127,HRV,HRV_0020,2022-11-30 17:36:00
14,"[{'imgObject': {}, 'id': 'cocktailshrimp', 'src': '/static/foodstim60/cocktailshrimp.jpg', 'key': 'u', 'origWidth': 410, 'origHeight': 410, 'width': 410, 'height': 410, 'widthPercent': 0.45, 'rescaleHeight': False, 'trialN': 14, 'loaded': True, 'loadedTime': 4693, 'positionName': 'LEFT', 'positionCoords': [245.68, 179], 'bid': 9.81}, {'imgObject': {}, 'id': 'omelette', 'src': '/static/foodstim60/omelette.jpg', 'key': 'i', 'origWidth': 410, 'origHeight': 409, 'width': 410, 'height': 409, 'widthPercent': 0.45, 'rescaleHeight': False, 'trialN': 14, 'loaded': True, 'loadedTime': 4697.5999999940395, 'positionName': 'RIGHT', 'positionCoords': [710.32, 179.5], 'bid': 8.98}]",28581.19999998808,1669829387518,cocktailshrimp,omelette,9.81,8.98,-0.8300000000000001,cocktailshrimp,861.0999999940395,863,863.4000000059605,True,u,29950.69999998808,1369.5,1669829388887,1369,HRV,HRV_0020,2022-11-30 17:36:00
15,"[{'imgObject': {}, 'id': 'steak', 'src': '/static/foodstim60/steak.jpg', 'key': 'u', 'origWidth': 410, 'origHeight': 410, 'width': 410, 'height': 410, 'widthPercent': 0.45, 'rescaleHeight': False, 'trialN': 15, 'loaded': True, 'loadedTime': 4699.5999999940395, 'positionName': 'LEFT', 'positionCoords': [245.68, 179], 'bid': 10}, {'imgObject': {}, 'id': 'lox', 'src': '/static/foodstim60/lox.jpg', 'key': 'i', 'origWidth': 410, 'origHeight': 411, 'width': 410, 'height': 411, 'widthPercent': 0.45, 'rescaleHeight': False, 'trialN': 15, 'loaded': True, 'loadedTime': 4561.899999976158, 'positionName': 'RIGHT', 'positionCoords': [710.32, 178.5], 'bid': 9.86}]",29951.0,1669829388887,steak,lox,10.0,9.86,-0.14000000000000057,steak,796.0999999940395,798,797.3999999761581,True,u,31254.69999998808,1303.699999988079,1669829390191,1304,HRV,HRV_0020,2022-11-30 17:36:00
16,"[{'imgObject': {}, 'id': 'cantaloupe', 'src': '/static/foodstim60/cantaloupe.jpg', 'key': 'u', 'origWidth': 409, 'origHeight': 409, 'width': 409, 'height': 409, 'widthPercent': 0.45, 'rescaleHeight': False, 'trialN': 16, 'loaded': True, 'loadedTime': 4555, 'positionName': 'LEFT', 'positionCoords': [246.68, 179.5], 'bid': 9.52}, {'imgObject': {}, 'id': 'yogurt no spoon', 'src': '/static/foodstim60/yogurt no spoon.jpg', 'key': 'i', 'origWidth': 411, 'origHeight': 410, 'width': 411, 'height': 410, 'widthPercent': 0.45, 'rescaleHeight': False, 'trialN': 16, 'loaded': True, 'loadedTime': 4659.199999988079, 'positionName': 'RIGHT', 'positionCoords': [710.32, 179], 'bid': 8.85}]",31255.399999976158,1669829390192,cantaloupe,yogurt no spoon,9.52,8.85,-0.6699999999999999,cantaloupe,946.2000000178814,946,946.6000000238419,True,u,32702.79999998212,1447.4000000059605,1669829391639,1447,HRV,HRV_0020,2022-11-30 17:36:00
17,"[{'imgObject': {}, 'id': 'froot loops w milk', 'src': '/static/foodstim60/froot loops w milk.jpg', 'key': 'u', 'origWidth': 410, 'origHeight': 410, 'width': 410, 'height': 410, 'widthPercent': 0.45, 'rescaleHeight': False, 'trialN': 17, 'loaded': True, 'loadedTime': 4701.5, 'positionName': 'LEFT', 'positionCoords': [245.68, 179], 'bid': 1.76}, {'imgObject': {}, 'id': 'turkey sandwich', 'src': '/static/foodstim60/turkey sandwich.jpg', 'key': 'i', 'origWidth': 409, 'origHeight': 409, 'width': 409, 'height': 409, 'widthPercent': 0.45, 'rescaleHeight': False, 'trialN': 17, 'loaded': True, 'loadedTime': 4706.199999988079, 'positionName': 'RIGHT', 'positionCoords': [710.32, 179.5], 'bid': 5.17}]",32703.5,1669829391640,froot loops w milk,turkey sandwich,1.76,5.17,3.41,turkey sandwich,1356.199999988079,1358,1357.7999999821186,True,i,34565.69999998808,1862.199999988079,1669829393502,1862,HRV,HRV_0020,2022-11-30 17:36:00
18,"[{'imgObject': {}, 'id': 'salad w chicken', 'src': '/static/foodstim60/salad w chicken.jpg', 'key': 'u', 'origWidth': 411, 'origHeight': 411, 'width': 411, 'height': 411, 'widthPercent': 0.45, 'rescaleHeight': False, 'trialN': 18, 'loaded': True, 'loadedTime': 4708.5999999940395, 'positionName': 'LEFT', 'positionCoords': [244.68, 178.5], 'bid': 9.09}, {'imgObject': {}, 'id': 'steak', 'src': '/static/foodstim60/steak.jpg', 'key': 'i', 'origWidth': 410, 'origHeight': 410, 'width': 410, 'height': 410, 'widthPercent': 0.45, 'rescaleHeight': False, 'trialN': 18, 'loaded': True, 'loadedTime': 4699.699999988079, 'positionName': 'RIGHT', 'positionCoords': [710.32, 179], 'bid': 10}]",34566.0,1669829393502,salad w chicken,steak,9.09,10.0,0.9100000000000001,steak,1177.0999999940395,1179,1178.2999999821186,True,i,36245.69999998808,1679.699999988079,1669829395182,1680,HRV,HRV_0020,2022-11-30 17:36:00
19,"[{'imgObject': {}, 'id': 'orange slices', 'src': '/static/foodstim60/orange slices.jpg', 'key': 'u', 'origWidth': 409, 'origHeight': 410, 'width': 409, 'height': 410, 'widthPercent': 0.45, 'rescaleHeight': False, 'trialN': 19, 'loaded': True, 'loadedTime': 4531.5999999940395, 'positionName': 'LEFT', 'positionCoords': [246.68, 179], 'bid': 9.74}, {'imgObject': {}, 'id': 'seaweed', 'src': '/static/foodstim60/seaweed.jpg', 'key': 'i', 'origWidth': 410, 'origHeight': 410, 'width': 410, 'height': 410, 'widthPercent': 0.45, 'rescaleHeight': False, 'trialN': 19, 'loaded': True, 'loadedTime': 4710.5999999940395, 'positionName': 'RIGHT', 'positionCoords': [710.32, 179], 'bid': 9.69}]",36245.89999997616,1669829395182,orange slices,seaweed,9.74,9.69,-0.05000000000000071,orange slices,1184.2000000178814,1185,1184.7000000178814,True,u,37933.59999999404,1687.7000000178814,1669829396870,1688,HRV,HRV_0020,2022-11-30 17:36:00
20,"[{'imgObject': {}, 'id': 'kiwi', 'src': '/static/foodstim60/kiwi.jpg', 'key': 'u', 'origWidth': 410, 'origHeight': 410, 'width': 410, 'height': 410, 'widthPercent': 0.45, 'rescaleHeight': False, 'trialN': 20, 'loaded': True, 'loadedTime': 4571.399999976158, 'positionName': 'LEFT', 'positionCoords': [245.68, 179], 'bid': 2.45}, {'imgObject': {}, 'id': 'rigatoni', 'src': '/static/foodstim60/rigatoni.jpg', 'key': 'i', 'origWidth': 411, 'origHeight': 411, 'width': 411, 'height': 411, 'widthPercent': 0.45, 'rescaleHeight': False, 'trialN': 20, 'loaded': True, 'loadedTime': 4722.5999999940395, 'positionName': 'RIGHT', 'positionCoords': [710.32, 178.5], 'bid': 3.08}]",37933.89999997616,1669829396870,kiwi,rigatoni,2.45,3.08,0.6299999999999999,rigatoni,1561.5,1562,1562.0,True,i,39997.79999998212,2063.9000000059605,1669829398934,2064,HRV,HRV_0020,2022-11-30 17:36:00
21,"[{'imgObject': {}, 'id': 'Tribe humus pita', 'src': '/static/foodstim60/Tribe humus pita.jpg', 'key': 'u', 'origWidth': 411, 'origHeight': 411, 'width': 411, 'height': 411, 'widthPercent': 0.45, 'rescaleHeight': False, 'trialN': 21, 'loaded': True, 'loadedTime': 4446.0999999940395, 'positionName': 'LEFT', 'positionCoords': [244.68, 178.5], 'bid': 4.25}, {'imgObject': {}, 'id': 'corn cob', 'src': '/static/foodstim60/corn cob.jpg', 'key': 'i', 'origWidth': 411, 'origHeight': 411, 'width': 411, 'height': 411, 'widthPercent': 0.45, 'rescaleHeight': False, 'trialN': 21, 'loaded': True, 'loadedTime': 4726, 'positionName': 'RIGHT', 'positionCoords': [710.32, 178.5], 'bid': 4.34}]",39997.89999997616,1669829398934,Tribe humus pita,corn cob,4.25,4.34,0.08999999999999986,corn cob,1595.5,1596,1596.1000000238419,True,i,42101.89999997616,2104.0,1669829401038,2104,HRV,HRV_0020,2022-11-30 17:36:00
22,"[{'imgObject': {}, 'id': 'cherry tomato', 'src': '/static/foodstim60/cherry tomato.jpg', 'key': 'u', 'origWidth': 410, 'origHeight': 410, 'width': 410, 'height': 410, 'widthPercent': 0.45, 'rescaleHeight': False, 'trialN': 22, 'loaded': True, 'loadedTime': 4588.899999976158, 'positionName': 'LEFT', 'positionCoords': [245.68, 179], 'bid': 6.84}, {'imgObject': {}, 'id': 'blackbeanswithrice', 'src': '/static/foodstim60/blackbeanswithrice.jpg', 'key': 'i', 'origWidth': 410, 'origHeight': 410, 'width': 410, 'height': 410, 'widthPercent': 0.45, 'rescaleHeight': False, 'trialN': 22, 'loaded': True, 'loadedTime': 4735.399999976158, 'positionName': 'RIGHT', 'positionCoords': [710.32, 179], 'bid': 0.24}]",42102.0,1669829401038,cherry tomato,blackbeanswithrice,6.84,0.24,-6.6,cherry tomato,1417.5999999940395,1419,1418.199999988079,True,u,44022.0,1920.0,1669829402958,1920,HRV,HRV_0020,2022-11-30 17:36:00
23,"[{'imgObject': {}, 'id': 'rigatoni', 'src': '/static/foodstim60/rigatoni.jpg', 'key': 'u', 'origWidth': 411, 'origHeight': 411, 'width': 411, 'height': 411, 'widthPercent': 0.45, 'rescaleHeight': False, 'trialN': 23, 'loaded': True, 'loadedTime': 4724.199999988079, 'positionName': 'LEFT', 'positionCoords': [244.68, 178.5], 'bid': 3.08}, {'imgObject': {}, 'id': 'avocado', 'src': '/static/foodstim60/avocado.jpg', 'key': 'i', 'origWidth': 409, 'origHeight': 409, 'width': 409, 'height': 409, 'widthPercent': 0.45, 'rescaleHeight': False, 'trialN': 23, 'loaded': True, 'loadedTime': 4692.799999982119, 'positionName': 'RIGHT', 'positionCoords': [710.32, 179.5], 'bid': 2.56}]",44022.09999999404,1669829402959,rigatoni,avocado,3.08,2.56,-0.52,avocado,1211.9000000059605,1212,1212.5999999940395,True,i,45740.89999997616,1718.7999999821186,1669829404677,1718,HRV,HRV_0020,2022-11-30 17:36:00
24,"[{'imgObject': {}, 'id': 'popsicles', 'src': '/static/foodstim60/popsicles.jpg', 'key': 'u', 'origWidth': 410, 'origHeight': 410, 'width': 410, 'height': 410, 'widthPercent': 0.45, 'rescaleHeight': False, 'trialN': 24, 'loaded': True, 'loadedTime': 4844, 'positionName': 'LEFT', 'positionCoords': [245.68, 179], 'bid': 4.92}, {'imgObject': {}, 'id': 'strawberries', 'src': '/static/foodstim60/strawberries.jpg', 'key': 'i', 'origWidth': 410, 'origHeight': 410, 'width': 410, 'height': 410, 'widthPercent': 0.45, 'rescaleHeight': False, 'trialN': 24, 'loaded': True, 'loadedTime': 4538.799999982119, 'positionName': 'RIGHT', 'positionCoords': [710.32, 179], 'bid': 9.64}]",45741.39999997616,1669829404678,popsicles,strawberries,4.92,9.64,4.720000000000001,strawberries,1001.2000000178814,1002,1001.8000000119209,True,i,47245.79999998212,1504.4000000059605,1669829406182,1504,HRV,HRV_0020,2022-11-30 17:36:00
25,"[{'imgObject': {}, 'id': 'avocado', 'src': '/static/foodstim60/avocado.jpg', 'key': 'u', 'origWidth': 409, 'origHeight': 409, 'width': 409, 'height': 409, 'widthPercent': 0.45, 'rescaleHeight': False, 'trialN': 25, 'loaded': True, 'loadedTime': 4692, 'positionName': 'LEFT', 'positionCoords': [246.68, 179.5], 'bid': 2.56}, {'imgObject': {}, 'id': 'fried eggs', 'src': '/static/foodstim60/fried eggs.jpg', 'key': 'i', 'origWidth': 410, 'origHeight': 410, 'width': 410, 'height': 410, 'widthPercent': 0.45, 'rescaleHeight': False, 'trialN': 25, 'loaded': True, 'loadedTime': 4586.299999982119, 'positionName': 'RIGHT', 'positionCoords': [710.32, 179], 'bid': 4.78}]",47246.0,1669829406182,avocado,fried eggs,2.56,4.78,2.22,fried eggs,1804.8999999761581,1807,1806.2999999821186,True,i,49557.79999998212,2311.7999999821186,1669829408494,2312,HRV,HRV_0020,2022-11-30 17:36:00
26,"[{'imgObject': {}, 'id': 'olives', 'src': '/static/foodstim60/olives.jpg', 'key': 'u', 'origWidth': 410, 'origHeight': 410, 'width': 410, 'height': 410, 'widthPercent': 0.45, 'rescaleHeight': False, 'trialN': 26, 'loaded': True, 'loadedTime': 4730.5999999940395, 'positionName': 'LEFT', 'positionCoords': [245.68, 179], 'bid': 5.46}, {'imgObject': {}, 'id': 'Grapes', 'src': '/static/foodstim60/Grapes.jpg', 'key': 'i', 'origWidth': 411, 'origHeight': 411, 'width': 411, 'height': 411, 'widthPercent': 0.45, 'rescaleHeight': False, 'trialN': 26, 'loaded': True, 'loadedTime': 4541.299999982119, 'positionName': 'RIGHT', 'positionCoords': [710.32, 178.5], 'bid': 7.88}]",49558.0,1669829408494,olives,Grapes,5.46,7.88,2.42,olives,1681.5,1683,1683.0,True,u,51749.89999997616,2191.899999976158,1669829410686,2192,HRV,HRV_0020,2022-11-30 17:36:00
27,"[{'imgObject': {}, 'id': 'granola w milk', 'src': '/static/foodstim60/granola w milk.jpg', 'key': 'u', 'origWidth': 410, 'origHeight': 410, 'width': 410, 'height': 410, 'widthPercent': 0.45, 'rescaleHeight': False, 'trialN': 27, 'loaded': True, 'loadedTime': 4737, 'positionName': 'LEFT', 'positionCoords': [245.68, 179], 'bid': 7.32}, {'imgObject': {}, 'id': 'burrito', 'src': '/static/foodstim60/burrito.jpg', 'key': 'i', 'origWidth': 410, 'origHeight': 410, 'width': 410, 'height': 410, 'widthPercent': 0.45, 'rescaleHeight': False, 'trialN': 27, 'loaded': True, 'loadedTime': 4746.699999988079, 'positionName': 'RIGHT', 'positionCoords': [710.32, 179], 'bid': 0.49}]",51750.5,1669829410687,granola w milk,burrito,7.32,0.49,-6.83,granola w milk,1549.8999999761581,1551,1550.699999988079,True,u,53806.5,2056.0,1669829412743,2056,HRV,HRV_0020,2022-11-30 17:36:00
28,"[{'imgObject': {}, 'id': 'cherry tomato', 'src': '/static/foodstim60/cherry tomato.jpg', 'key': 'u', 'origWidth': 410, 'origHeight': 410, 'width': 410, 'height': 410, 'widthPercent': 0.45, 'rescaleHeight': False, 'trialN': 28, 'loaded': True, 'loadedTime': 4588.0999999940395, 'positionName': 'LEFT', 'positionCoords': [245.68, 179], 'bid': 6.84}, {'imgObject': {}, 'id': 'apple slices', 'src': '/static/foodstim60/apple slices.jpg', 'key': 'i', 'origWidth': 409, 'origHeight': 410, 'width': 409, 'height': 410, 'widthPercent': 0.45, 'rescaleHeight': False, 'trialN': 28, 'loaded': True, 'loadedTime': 4740.299999982119, 'positionName': 'RIGHT', 'positionCoords': [710.32, 179], 'bid': 9.2}]",53807.0,1669829412743,cherry tomato,apple slices,6.84,9.2,2.3599999999999994,apple slices,1139,1141,1140.3999999761581,True,i,55454.0,1647.0,1669829414390,1647,HRV,HRV_0020,2022-11-30 17:36:00
29,"[{'imgObject': {}, 'id': 'hotdog w must', 'src': '/static/foodstim60/hotdog w must.jpg', 'key': 'u', 'origWidth': 409, 'origHeight': 409, 'width': 409, 'height': 409, 'widthPercent': 0.45, 'rescaleHeight': False, 'trialN': 29, 'loaded': True, 'loadedTime': 4749.199999988079, 'positionName': 'LEFT', 'positionCoords': [246.68, 179.5], 'bid': 8.46}, {'imgObject': {}, 'id': 'froot loops w milk', 'src': '/static/foodstim60/froot loops w milk.jpg', 'key': 'i', 'origWidth': 410, 'origHeight': 410, 'width': 410, 'height': 410, 'widthPercent': 0.45, 'rescaleHeight': False, 'trialN': 29, 'loaded': True, 'loadedTime': 4702.399999976158, 'positionName': 'RIGHT', 'positionCoords': [710.32, 179], 'bid': 1.76}]",55454.09999999404,1669829414391,hotdog w must,froot loops w milk,8.46,1.76,-6.700000000000001,hotdog w must,1072,1072,1072.5999999940395,True,u,57030.09999999404,1576.0,1669829415966,1575,HRV,HRV_0020,2022-11-30 17:36:00
30,"[{'imgObject': {}, 'id': 'burger', 'src': '/static/foodstim60/burger.jpg', 'key': 'u', 'origWidth': 409, 'origHeight': 409, 'width': 409, 'height': 409, 'widthPercent': 0.45, 'rescaleHeight': False, 'trialN': 30, 'loaded': True, 'loadedTime': 4748.699999988079, 'positionName': 'LEFT', 'positionCoords': [246.68, 179.5], 'bid': 5.64}, {'imgObject': {}, 'id': 'olives', 'src': '/static/foodstim60/olives.jpg', 'key': 'i', 'origWidth': 410, 'origHeight': 410, 'width': 410, 'height': 410, 'widthPercent': 0.45, 'rescaleHeight': False, 'trialN': 30, 'loaded': True, 'loadedTime': 4733, 'positionName': 'RIGHT', 'positionCoords': [710.32, 179], 'bid': 5.46}]",57030.79999998212,1669829415967,burger,olives,5.64,5.46,-0.17999999999999972,burger,1338,1339,1339.2000000178814,True,u,58870.5,1839.7000000178814,1669829417807,1840,HRV,HRV_0020,2022-11-30 17:36:00
31,"[{'imgObject': {}, 'id': 'pear', 'src': '/static/foodstim60/pear.jpg', 'key': 'u', 'origWidth': 411, 'origHeight': 410, 'width': 411, 'height': 410, 'widthPercent': 0.45, 'rescaleHeight': False, 'trialN': 31, 'loaded': True, 'loadedTime': 4751.199999988079, 'positionName': 'LEFT', 'positionCoords': [244.68, 179], 'bid': 9.43}, {'imgObject': {}, 'id': 'raspberries', 'src': '/static/foodstim60/raspberries.jpg', 'key': 'i', 'origWidth': 411, 'origHeight': 411, 'width': 411, 'height': 411, 'widthPercent': 0.45, 'rescaleHeight': False, 'trialN': 31, 'loaded': True, 'loadedTime': 4755.199999988079, 'positionName': 'RIGHT', 'positionCoords': [710.32, 178.5], 'bid': 9.36}]",58871.09999999404,1669829417807,pear,raspberries,9.43,9.36,-0.07000000000000028,pear,1494.5,1496,1495.199999988079,True,u,60870.59999999404,1999.5,1669829419807,2000,HRV,HRV_0020,2022-11-30 17:36:00
32,"[{'imgObject': {}, 'id': 'veggieswithdip', 'src': '/static/foodstim60/veggieswithdip.jpg', 'key': 'u', 'origWidth': 409, 'origHeight': 409, 'width': 409, 'height': 409, 'widthPercent': 0.45, 'rescaleHeight': False, 'trialN': 32, 'loaded': True, 'loadedTime': 4755.399999976158, 'positionName': 'LEFT', 'positionCoords': [246.68, 179.5], 'bid': 4.98}, {'imgObject': {}, 'id': 'baked potato', 'src': '/static/foodstim60/baked potato.jpg', 'key': 'i', 'origWidth': 409, 'origHeight': 410, 'width': 409, 'height': 410, 'widthPercent': 0.45, 'rescaleHeight': False, 'trialN': 32, 'loaded': True, 'loadedTime': 4687.0999999940395, 'positionName': 'RIGHT', 'positionCoords': [710.32, 179], 'bid': 3.5700000000000003}]",60871.0,1669829419807,veggieswithdip,baked potato,4.98,3.5700000000000003,-1.4100000000000001,veggieswithdip,1950.199999988079,1951,1951.0,True,u,63324.89999997616,2453.899999976158,1669829422261,2454,HRV,HRV_0020,2022-11-30 17:36:00
33,"[{'imgObject': {}, 'id': 'seaweed', 'src': '/static/foodstim60/seaweed.jpg', 'key': 'u', 'origWidth': 410, 'origHeight': 410, 'width': 410, 'height': 410, 'widthPercent': 0.45, 'rescaleHeight': False, 'trialN': 33, 'loaded': True, 'loadedTime': 4710.899999976158, 'positionName': 'LEFT', 'positionCoords': [245.68, 179], 'bid': 9.69}, {'imgObject': {}, 'id': 'lox', 'src': '/static/foodstim60/lox.jpg', 'key': 'i', 'origWidth': 410, 'origHeight': 411, 'width': 410, 'height': 411, 'widthPercent': 0.45, 'rescaleHeight': False, 'trialN': 33, 'loaded': True, 'loadedTime': 4562.399999976158, 'positionName': 'RIGHT', 'positionCoords': [710.32, 178.5], 'bid': 9.86}]",63325.19999998808,1669829422262,seaweed,lox,9.69,9.86,0.16999999999999993,seaweed,942.9000000059605,943,943.3000000119209,True,u,64774.09999999404,1448.9000000059605,1669829423710,1448,HRV,HRV_0020,2022-11-30 17:36:00
34,"[{'imgObject': {}, 'id': 'fruitsalad', 'src': '/static/foodstim60/fruitsalad.jpg', 'key': 'u', 'origWidth': 410, 'origHeight': 410, 'width': 410, 'height': 410, 'widthPercent': 0.45, 'rescaleHeight': False, 'trialN': 34, 'loaded': True, 'loadedTime': 4758.699999988079, 'positionName': 'LEFT', 'positionCoords': [245.68, 179], 'bid': 6.46}, {'imgObject': {}, 'id': 'mac & cheese', 'src': '/static/foodstim60/mac & cheese.jpg', 'key': 'i', 'origWidth': 410, 'origHeight': 410, 'width': 410, 'height': 410, 'widthPercent': 0.45, 'rescaleHeight': False, 'trialN': 34, 'loaded': True, 'loadedTime': 4762.899999976158, 'positionName': 'RIGHT', 'positionCoords': [710.32, 179], 'bid': 7.38}]",64774.29999998212,1669829423711,fruitsalad,mac & cheese,6.46,7.38,0.9199999999999999,mac & cheese,1632.4000000059605,1633,1632.9000000059605,True,i,66910.0,2135.7000000178814,1669829425846,2135,HRV,HRV_0020,2022-11-30 17:36:00
35,"[{'imgObject': {}, 'id': 'pear', 'src': '/static/foodstim60/pear.jpg', 'key': 'u', 'origWidth': 411, 'origHeight': 410, 'width': 411, 'height': 410, 'widthPercent': 0.45, 'rescaleHeight': False, 'trialN': 35, 'loaded': True, 'loadedTime': 4753.299999982119, 'positionName': 'LEFT', 'positionCoords': [244.68, 179], 'bid': 9.43}, {'imgObject': {}, 'id': 'apple slices', 'src': '/static/foodstim60/apple slices.jpg', 'key': 'i', 'origWidth': 409, 'origHeight': 410, 'width': 409, 'height': 410, 'widthPercent': 0.45, 'rescaleHeight': False, 'trialN': 35, 'loaded': True, 'loadedTime': 4739.699999988079, 'positionName': 'RIGHT', 'positionCoords': [710.32, 179], 'bid': 9.2}]",66910.09999999404,1669829425847,pear,apple slices,9.43,9.2,-0.23000000000000043,apple slices,1604.9000000059605,1605,1605.2999999821186,True,i,69020.89999997616,2110.7999999821186,1669829427957,2110,HRV,HRV_0020,2022-11-30 17:36:00
36,"[{'imgObject': {}, 'id': 'rigatoni', 'src': '/static/foodstim60/rigatoni.jpg', 'key': 'u', 'origWidth': 411, 'origHeight': 411, 'width': 411, 'height': 411, 'widthPercent': 0.45, 'rescaleHeight': False, 'trialN': 36, 'loaded': True, 'loadedTime': 4724.199999988079, 'positionName': 'LEFT', 'positionCoords': [244.68, 178.5], 'bid': 3.08}, {'imgObject': {}, 'id': 'blackbeanswithrice', 'src': '/static/foodstim60/blackbeanswithrice.jpg', 'key': 'i', 'origWidth': 410, 'origHeight': 410, 'width': 410, 'height': 410, 'widthPercent': 0.45, 'rescaleHeight': False, 'trialN': 36, 'loaded': True, 'loadedTime': 4735.299999982119, 'positionName': 'RIGHT', 'positionCoords': [710.32, 179], 'bid': 0.24}]",69021.0,1669829427957,rigatoni,blackbeanswithrice,3.08,0.24,-2.84,rigatoni,1488.5999999940395,1490,1490.0999999940395,True,u,71013.39999997616,1992.3999999761581,1669829429950,1993,HRV,HRV_0020,2022-11-30 17:36:00
37,"[{'imgObject': {}, 'id': 'banana', 'src': '/static/foodstim60/banana.jpg', 'key': 'u', 'origWidth': 410, 'origHeight': 410, 'width': 410, 'height': 410, 'widthPercent': 0.45, 'rescaleHeight': False, 'trialN': 37, 'loaded': True, 'loadedTime': 4597.399999976158, 'positionName': 'LEFT', 'positionCoords': [245.68, 179], 'bid': 8.42}, {'imgObject': {}, 'id': 'orange slices', 'src': '/static/foodstim60/orange slices.jpg', 'key': 'i', 'origWidth': 409, 'origHeight': 410, 'width': 409, 'height': 410, 'widthPercent': 0.45, 'rescaleHeight': False, 'trialN': 37, 'loaded': True, 'loadedTime': 4532.299999982119, 'positionName': 'RIGHT', 'positionCoords': [710.32, 179], 'bid': 9.74}]",71014.0,1669829429950,banana,orange slices,8.42,9.74,1.3200000000000003,orange slices,1043,1045,1044.5,True,i,72565.29999998212,1551.2999999821186,1669829431502,1552,HRV,HRV_0020,2022-11-30 17:36:00
38,"[{'imgObject': {}, 'id': 'salmon', 'src': '/static/foodstim60/salmon.jpg', 'key': 'u', 'origWidth': 410, 'origHeight': 409, 'width': 410, 'height': 409, 'widthPercent': 0.45, 'rescaleHeight': False, 'trialN': 38, 'loaded': True, 'loadedTime': 4571.0999999940395, 'positionName': 'LEFT', 'positionCoords': [245.68, 179.5], 'bid': 9.77}, {'imgObject': {}, 'id': 'cantaloupe', 'src': '/static/foodstim60/cantaloupe.jpg', 'key': 'i', 'origWidth': 409, 'origHeight': 409, 'width': 409, 'height': 409, 'widthPercent': 0.45, 'rescaleHeight': False, 'trialN': 38, 'loaded': True, 'loadedTime': 4556.799999982119, 'positionName': 'RIGHT', 'positionCoords': [710.32, 179.5], 'bid': 9.52}]",72565.79999998212,1669829431502,salmon,cantaloupe,9.77,9.52,-0.25,salmon,1647,1649,1648.7000000178814,True,u,74717.89999997616,2152.0999999940395,1669829433654,2152,HRV,HRV_0020,2022-11-30 17:36:00
39,"[{'imgObject': {}, 'id': 'chicken nuggets2', 'src': '/static/foodstim60/chicken nuggets2.jpg', 'key': 'u', 'origWidth': 410, 'origHeight': 409, 'width': 410, 'height': 409, 'widthPercent': 0.45, 'rescaleHeight': False, 'trialN': 39, 'loaded': True, 'loadedTime': 4766.0999999940395, 'positionName': 'LEFT', 'positionCoords': [245.68, 179.5], 'bid': 7.09}, {'imgObject': {}, 'id': 'mac & cheese', 'src': '/static/foodstim60/mac & cheese.jpg', 'key': 'i', 'origWidth': 410, 'origHeight': 410, 'width': 410, 'height': 410, 'widthPercent': 0.45, 'rescaleHeight': False, 'trialN': 39, 'loaded': True, 'loadedTime': 4763.0999999940395, 'positionName': 'RIGHT', 'positionCoords': [710.32, 179], 'bid': 7.38}]",74718.29999998212,1669829433655,chicken nuggets2,mac & cheese,7.09,7.38,0.29000000000000004,mac & cheese,1910,1912,1913.0,True,i,77133.19999998808,2414.9000000059605,1669829436069,2414,HRV,HRV_0020,2022-11-30 17:36:00
40,"[{'imgObject': {}, 'id': 'roastedpotatoes', 'src': '/static/foodstim60/roastedpotatoes.jpg', 'key': 'u', 'origWidth': 409, 'origHeight': 410, 'width': 409, 'height': 410, 'widthPercent': 0.45, 'rescaleHeight': False, 'trialN': 40, 'loaded': True, 'loadedTime': 4767.899999976158, 'positionName': 'LEFT', 'positionCoords': [246.68, 179], 'bid': 2.18}, {'imgObject': {}, 'id': 'olives', 'src': '/static/foodstim60/olives.jpg', 'key': 'i', 'origWidth': 410, 'origHeight': 410, 'width': 410, 'height': 410, 'widthPercent': 0.45, 'rescaleHeight': False, 'trialN': 40, 'loaded': True, 'loadedTime': 4731.5999999940395, 'positionName': 'RIGHT', 'positionCoords': [710.32, 179], 'bid': 5.46}]",77133.5,1669829436069,roastedpotatoes,olives,2.18,5.46,3.28,olives,1644.7999999821186,1646,1645.5999999940395,True,i,79285.59999999404,2152.0999999940395,1669829438221,2152,HRV,HRV_0020,2022-11-30 17:36:00
41,"[{'imgObject': {}, 'id': 'chickenfingers', 'src': '/static/foodstim60/chickenfingers.jpg', 'key': 'u', 'origWidth': 410, 'origHeight': 410, 'width': 410, 'height': 410, 'widthPercent': 0.45, 'rescaleHeight': False, 'trialN': 41, 'loaded': True, 'loadedTime': 4690.399999976158, 'positionName': 'LEFT', 'positionCoords': [245.68, 179], 'bid': 6.75}, {'imgObject': {}, 'id': 'steak', 'src': '/static/foodstim60/steak.jpg', 'key': 'i', 'origWidth': 410, 'origHeight': 410, 'width': 410, 'height': 410, 'widthPercent': 0.45, 'rescaleHeight': False, 'trialN': 41, 'loaded': True, 'loadedTime': 4697.799999982119, 'positionName': 'RIGHT', 'positionCoords': [710.32, 179], 'bid': 10}]",79285.89999997616,1669829438222,chickenfingers,steak,6.75,10.0,3.25,steak,1095,1095,1095.6000000238419,True,i,80885.79999998212,1599.9000000059605,1669829439822,1600,HRV,HRV_0020,2022-11-30 17:36:00
42,"[{'imgObject': {}, 'id': 'chickenfingers', 'src': '/static/foodstim60/chickenfingers.jpg', 'key': 'u', 'origWidth': 410, 'origHeight': 410, 'width': 410, 'height': 410, 'widthPercent': 0.45, 'rescaleHeight': False, 'trialN': 42, 'loaded': True, 'loadedTime': 4690, 'positionName': 'LEFT', 'positionCoords': [245.68, 179], 'bid': 6.75}, {'imgObject': {}, 'id': 'rigatoni and sauce', 'src': '/static/foodstim60/rigatoni and sauce.jpg', 'key': 'i', 'origWidth': 410, 'origHeight': 411, 'width': 410, 'height': 411, 'widthPercent': 0.45, 'rescaleHeight': False, 'trialN': 42, 'loaded': True, 'loadedTime': 4769.799999982119, 'positionName': 'RIGHT', 'positionCoords': [710.32, 178.5], 'bid': 6.91}]",80886.29999998212,1669829439822,chickenfingers,rigatoni and sauce,6.75,6.91,0.16000000000000014,rigatoni and sauce,1782.5999999940395,1784,1784.0,True,i,83174.79999998212,2288.5,1669829442111,2289,HRV,HRV_0020,2022-11-30 17:36:00
43,"[{'imgObject': {}, 'id': 'olives', 'src': '/static/foodstim60/olives.jpg', 'key': 'u', 'origWidth': 410, 'origHeight': 410, 'width': 410, 'height': 410, 'widthPercent': 0.45, 'rescaleHeight': False, 'trialN': 43, 'loaded': True, 'loadedTime': 4732.899999976158, 'positionName': 'LEFT', 'positionCoords': [245.68, 179], 'bid': 5.46}, {'imgObject': {}, 'id': 'salmon', 'src': '/static/foodstim60/salmon.jpg', 'key': 'i', 'origWidth': 410, 'origHeight': 409, 'width': 410, 'height': 409, 'widthPercent': 0.45, 'rescaleHeight': False, 'trialN': 43, 'loaded': True, 'loadedTime': 4568.199999988079, 'positionName': 'RIGHT', 'positionCoords': [710.32, 179.5], 'bid': 9.77}]",83175.0,1669829442111,olives,salmon,5.46,9.77,4.31,salmon,1416.699999988079,1417,1417.199999988079,True,i,85094.19999998808,1919.199999988079,1669829444030,1919,HRV,HRV_0020,2022-11-30 17:36:00
44,"[{'imgObject': {}, 'id': 'roastedpotatoes', 'src': '/static/foodstim60/roastedpotatoes.jpg', 'key': 'u', 'origWidth': 409, 'origHeight': 410, 'width': 409, 'height': 410, 'widthPercent': 0.45, 'rescaleHeight': False, 'trialN': 44, 'loaded': True, 'loadedTime': 4767.699999988079, 'positionName': 'LEFT', 'positionCoords': [246.68, 179], 'bid': 2.18}, {'imgObject': {}, 'id': 'mashed potato', 'src': '/static/foodstim60/mashed potato.jpg', 'key': 'i', 'origWidth': 409, 'origHeight': 409, 'width': 409, 'height': 409, 'widthPercent': 0.45, 'rescaleHeight': False, 'trialN': 44, 'loaded': True, 'loadedTime': 4546.399999976158, 'positionName': 'RIGHT', 'positionCoords': [710.32, 179.5], 'bid': 0.34}]",85094.59999999404,1669829444031,roastedpotatoes,mashed potato,2.18,0.34,-1.84,roastedpotatoes,1481.0999999940395,1481,1481.5,True,u,87078.19999998808,1983.5999999940395,1669829446014,1983,HRV,HRV_0020,2022-11-30 17:36:00
45,"[{'imgObject': {}, 'id': 'Grapes', 'src': '/static/foodstim60/Grapes.jpg', 'key': 'u', 'origWidth': 411, 'origHeight': 411, 'width': 411, 'height': 411, 'widthPercent': 0.45, 'rescaleHeight': False, 'trialN': 45, 'loaded': True, 'loadedTime': 4543.5, 'positionName': 'LEFT', 'positionCoords': [244.68, 178.5], 'bid': 7.88}, {'imgObject': {}, 'id': 'shreddedwheatwithmilk', 'src': '/static/foodstim60/shreddedwheatwithmilk.jpg', 'key': 'i', 'origWidth': 410, 'origHeight': 410, 'width': 410, 'height': 410, 'widthPercent': 0.45, 'rescaleHeight': False, 'trialN': 45, 'loaded': True, 'loadedTime': 4782.199999988079, 'positionName': 'RIGHT', 'positionCoords': [710.32, 179], 'bid': 1.09}]",87078.59999999404,1669829446014,Grapes,shreddedwheatwithmilk,7.88,1.09,-6.79,Grapes,1605,1607,1606.5,True,u,89190.39999997616,2111.7999999821186,1669829448126,2112,HRV,HRV_0020,2022-11-30 17:36:00
46,"[{'imgObject': {}, 'id': 'grilled chicken strips', 'src': '/static/foodstim60/grilled chicken strips.jpg', 'key': 'u', 'origWidth': 410, 'origHeight': 411, 'width': 410, 'height': 411, 'widthPercent': 0.45, 'rescaleHeight': False, 'trialN': 46, 'loaded': True, 'loadedTime': 4785.5999999940395, 'positionName': 'LEFT', 'positionCoords': [245.68, 178.5], 'bid': 9.48}, {'imgObject': {}, 'id': 'steak', 'src': '/static/foodstim60/steak.jpg', 'key': 'i', 'origWidth': 410, 'origHeight': 410, 'width': 410, 'height': 410, 'widthPercent': 0.45, 'rescaleHeight': False, 'trialN': 46, 'loaded': True, 'loadedTime': 4699.0999999940395, 'positionName': 'RIGHT', 'positionCoords': [710.32, 179], 'bid': 10}]",89190.59999999404,1669829448126,grilled chicken strips,steak,9.48,10.0,0.5199999999999996,steak,846.6999999880791,849,848.1999999880791,True,i,90542.29999998212,1351.699999988079,1669829449478,1352,HRV,HRV_0020,2022-11-30 17:36:00
47,"[{'imgObject': {}, 'id': 'omelette', 'src': '/static/foodstim60/omelette.jpg', 'key': 'u', 'origWidth': 410, 'origHeight': 409, 'width': 410, 'height': 409, 'widthPercent': 0.45, 'rescaleHeight': False, 'trialN': 47, 'loaded': True, 'loadedTime': 4697.699999988079, 'positionName': 'LEFT', 'positionCoords': [245.68, 179.5], 'bid': 8.98}, {'imgObject': {}, 'id': 'Grapes', 'src': '/static/foodstim60/Grapes.jpg', 'key': 'i', 'origWidth': 411, 'origHeight': 411, 'width': 411, 'height': 411, 'widthPercent': 0.45, 'rescaleHeight': False, 'trialN': 47, 'loaded': True, 'loadedTime': 4542.399999976158, 'positionName': 'RIGHT', 'positionCoords': [710.32, 178.5], 'bid': 7.88}]",90542.59999999404,1669829449478,omelette,Grapes,8.98,7.88,-1.1000000000000005,Grapes,1807.9000000059605,1810,1809.199999988079,True,i,92853.29999998212,2310.699999988079,1669829451789,2311,HRV,HRV_0020,2022-11-30 17:36:00
48,"[{'imgObject': {}, 'id': 'salad w chicken', 'src': '/static/foodstim60/salad w chicken.jpg', 'key': 'u', 'origWidth': 411, 'origHeight': 411, 'width': 411, 'height': 411, 'widthPercent': 0.45, 'rescaleHeight': False, 'trialN': 48, 'loaded': True, 'loadedTime': 4706.199999988079, 'positionName': 'LEFT', 'positionCoords': [244.68, 178.5], 'bid': 9.09}, {'imgObject': {}, 'id': 'apple slices', 'src': '/static/foodstim60/apple slices.jpg', 'key': 'i', 'origWidth': 409, 'origHeight': 410, 'width': 409, 'height': 410, 'widthPercent': 0.45, 'rescaleHeight': False, 'trialN': 48, 'loaded': True, 'loadedTime': 4738.199999988079, 'positionName': 'RIGHT', 'positionCoords': [710.32, 179], 'bid': 9.2}]",92853.59999999404,1669829451789,salad w chicken,apple slices,9.09,9.2,0.10999999999999943,salad w chicken,1861.7999999821186,1864,1863.5,True,u,95221.59999999404,2368.0,1669829454157,2368,HRV,HRV_0020,2022-11-30 17:36:00
49,"[{'imgObject': {}, 'id': 'kiwi', 'src': '/static/foodstim60/kiwi.jpg', 'key': 'u', 'origWidth': 410, 'origHeight': 410, 'width': 410, 'height': 410, 'widthPercent': 0.45, 'rescaleHeight': False, 'trialN': 49, 'loaded': True, 'loadedTime': 4573.5, 'positionName': 'LEFT', 'positionCoords': [245.68, 179], 'bid': 2.45}, {'imgObject': {}, 'id': 'fruitsalad', 'src': '/static/foodstim60/fruitsalad.jpg', 'key': 'i', 'origWidth': 410, 'origHeight': 410, 'width': 410, 'height': 410, 'widthPercent': 0.45, 'rescaleHeight': False, 'trialN': 49, 'loaded': True, 'loadedTime': 4761.5999999940395, 'positionName': 'RIGHT', 'positionCoords': [710.32, 179], 'bid': 6.46}]",95221.79999998212,1669829454158,kiwi,fruitsalad,2.45,6.46,4.01,fruitsalad,1918.5,1920,1919.9000000059605,True,i,97645.39999997616,2423.5999999940395,1669829456581,2423,HRV,HRV_0020,2022-11-30 17:36:00
50,"[{'imgObject': {}, 'id': 'eggs', 'src': '/static/foodstim60/eggs.jpg', 'key': 'u', 'origWidth': 409, 'origHeight': 409, 'width': 409, 'height': 409, 'widthPercent': 0.45, 'rescaleHeight': False, 'trialN': 50, 'loaded': True, 'loadedTime': 4579.199999988079, 'positionName': 'LEFT', 'positionCoords': [246.68, 179.5], 'bid': 3.75}, {'imgObject': {}, 'id': 'bagel plain', 'src': '/static/foodstim60/bagel plain.jpg', 'key': 'i', 'origWidth': 410, 'origHeight': 410, 'width': 410, 'height': 410, 'widthPercent': 0.45, 'rescaleHeight': False, 'trialN': 50, 'loaded': True, 'loadedTime': 4553.5, 'positionName': 'RIGHT', 'positionCoords': [710.32, 179], 'bid': 1.28}]",97646.0,1669829456582,eggs,bagel plain,3.75,1.28,-2.4699999999999998,eggs,1152.7999999821186,1154,1154.0999999940395,True,u,99302.39999997616,1656.3999999761581,1669829458238,1656,HRV,HRV_0020,2022-11-30 17:36:00
51,"[{'imgObject': {}, 'id': 'froot loops w milk', 'src': '/static/foodstim60/froot loops w milk.jpg', 'key': 'u', 'origWidth': 410, 'origHeight': 410, 'width': 410, 'height': 410, 'widthPercent': 0.45, 'rescaleHeight': False, 'trialN': 51, 'loaded': True, 'loadedTime': 4701.899999976158, 'positionName': 'LEFT', 'positionCoords': [245.68, 179], 'bid': 1.76}, {'imgObject': {}, 'id': 'corn cob', 'src': '/static/foodstim60/corn cob.jpg', 'key': 'i', 'origWidth': 411, 'origHeight': 411, 'width': 411, 'height': 411, 'widthPercent': 0.45, 'rescaleHeight': False, 'trialN': 51, 'loaded': True, 'loadedTime': 4725.899999976158, 'positionName': 'RIGHT', 'positionCoords': [710.32, 178.5], 'bid': 4.34}]",99302.89999997616,1669829458239,froot loops w milk,corn cob,1.76,4.34,2.58,corn cob,1665.7000000178814,1666,1666.2000000178814,True,i,101470.09999999404,2167.2000000178814,1669829460406,2167,HRV,HRV_0020,2022-11-30 17:36:00
52,"[{'imgObject': {}, 'id': 'cherries', 'src': '/static/foodstim60/cherries.jpg', 'key': 'u', 'origWidth': 410, 'origHeight': 411, 'width': 410, 'height': 411, 'widthPercent': 0.45, 'rescaleHeight': False, 'trialN': 52, 'loaded': True, 'loadedTime': 4536, 'positionName': 'LEFT', 'positionCoords': [245.68, 178.5], 'bid': 9.08}, {'imgObject': {}, 'id': 'mango', 'src': '/static/foodstim60/mango.jpg', 'key': 'i', 'origWidth': 411, 'origHeight': 411, 'width': 411, 'height': 411, 'widthPercent': 0.45, 'rescaleHeight': False, 'trialN': 52, 'loaded': True, 'loadedTime': 4787.0999999940395, 'positionName': 'RIGHT', 'positionCoords': [710.32, 178.5], 'bid': 8.870000000000001}]",101470.79999998212,1669829460407,cherries,mango,9.08,8.870000000000001,-0.20999999999999908,cherries,1269.2000000178814,1270,1270.5999999940395,True,u,103245.29999998212,1774.5,1669829462181,1774,HRV,HRV_0020,2022-11-30 17:36:00
53,"[{'imgObject': {}, 'id': 'seaweed', 'src': '/static/foodstim60/seaweed.jpg', 'key': 'u', 'origWidth': 410, 'origHeight': 410, 'width': 410, 'height': 410, 'widthPercent': 0.45, 'rescaleHeight': False, 'trialN': 53, 'loaded': True, 'loadedTime': 4710.799999982119, 'positionName': 'LEFT', 'positionCoords': [245.68, 179], 'bid': 9.69}, {'imgObject': {}, 'id': 'sweetpotato', 'src': '/static/foodstim60/sweetpotato.jpg', 'key': 'i', 'origWidth': 410, 'origHeight': 410, 'width': 410, 'height': 410, 'widthPercent': 0.45, 'rescaleHeight': False, 'trialN': 53, 'loaded': True, 'loadedTime': 4597.799999982119, 'positionName': 'RIGHT', 'positionCoords': [710.32, 179], 'bid': 8.16}]",103245.59999999404,1669829462181,seaweed,sweetpotato,9.69,8.16,-1.5299999999999994,seaweed,1547.5999999940395,1549,1549.0,True,u,105302.0,2056.4000000059605,1669829464238,2057,HRV,HRV_0020,2022-11-30 17:36:00
54,"[{'imgObject': {}, 'id': 'raisin bran w milk', 'src': '/static/foodstim60/raisin bran w milk.jpg', 'key': 'u', 'origWidth': 411, 'origHeight': 411, 'width': 411, 'height': 411, 'widthPercent': 0.45, 'rescaleHeight': False, 'trialN': 54, 'loaded': True, 'loadedTime': 4560.5, 'positionName': 'LEFT', 'positionCoords': [244.68, 178.5], 'bid': 7.67}, {'imgObject': {}, 'id': 'mac & cheese', 'src': '/static/foodstim60/mac & cheese.jpg', 'key': 'i', 'origWidth': 410, 'origHeight': 410, 'width': 410, 'height': 410, 'widthPercent': 0.45, 'rescaleHeight': False, 'trialN': 54, 'loaded': True, 'loadedTime': 4761.799999982119, 'positionName': 'RIGHT', 'positionCoords': [710.32, 179], 'bid': 7.38}]",105302.19999998808,1669829464238,raisin bran w milk,mac & cheese,7.67,7.38,-0.29000000000000004,raisin bran w milk,1689.300000011921,1691,1690.9000000059605,True,u,107501.29999998212,2199.0999999940395,1669829466437,2199,HRV,HRV_0020,2022-11-30 17:36:00
55,"[{'imgObject': {}, 'id': 'ice cream sundae 002', 'src': '/static/foodstim60/ice cream sundae 002.jpg', 'key': 'u', 'origWidth': 409, 'origHeight': 409, 'width': 409, 'height': 409, 'widthPercent': 0.45, 'rescaleHeight': False, 'trialN': 55, 'loaded': True, 'loadedTime': 4789.5999999940395, 'positionName': 'LEFT', 'positionCoords': [246.68, 179.5], 'bid': 9.74}, {'imgObject': {}, 'id': 'hotdog w must', 'src': '/static/foodstim60/hotdog w must.jpg', 'key': 'i', 'origWidth': 409, 'origHeight': 409, 'width': 409, 'height': 409, 'widthPercent': 0.45, 'rescaleHeight': False, 'trialN': 55, 'loaded': True, 'loadedTime': 4750.5, 'positionName': 'RIGHT', 'positionCoords': [710.32, 179.5], 'bid': 8.46}]",107502.19999998808,1669829466438,ice cream sundae 002,hotdog w must,9.74,8.46,-1.2799999999999994,ice cream sundae 002,1095.9000000059605,1097,1097.300000011921,True,u,109101.5,1599.300000011921,1669829468037,1599,HRV,HRV_0020,2022-11-30 17:36:00
56,"[{'imgObject': {}, 'id': 'fruitsalad', 'src': '/static/foodstim60/fruitsalad.jpg', 'key': 'u', 'origWidth': 410, 'origHeight': 410, 'width': 410, 'height': 410, 'widthPercent': 0.45, 'rescaleHeight': False, 'trialN': 56, 'loaded': True, 'loadedTime': 4761.5, 'positionName': 'LEFT', 'positionCoords': [245.68, 179], 'bid': 6.46}, {'imgObject': {}, 'id': 'chickenfingers', 'src': '/static/foodstim60/chickenfingers.jpg', 'key': 'i', 'origWidth': 410, 'origHeight': 410, 'width': 410, 'height': 410, 'widthPercent': 0.45, 'rescaleHeight': False, 'trialN': 56, 'loaded': True, 'loadedTime': 4689.5999999940395, 'positionName': 'RIGHT', 'positionCoords': [710.32, 179], 'bid': 6.75}]",109102.09999999404,1669829468038,fruitsalad,chickenfingers,6.46,6.75,0.29000000000000004,chickenfingers,2083.9000000059605,2085,2085.0,True,i,111693.09999999404,2591.0,1669829470629,2591,HRV,HRV_0020,2022-11-30 17:36:00
57,"[{'imgObject': {}, 'id': 'eggsalad', 'src': '/static/foodstim60/eggsalad.jpg', 'key': 'u', 'origWidth': 410, 'origHeight': 409, 'width': 410, 'height': 409, 'widthPercent': 0.45, 'rescaleHeight': False, 'trialN': 57, 'loaded': True, 'loadedTime': 4788.299999982119, 'positionName': 'LEFT', 'positionCoords': [245.68, 179.5], 'bid': 1.31}, {'imgObject': {}, 'id': 'tacos', 'src': '/static/foodstim60/tacos.jpg', 'key': 'i', 'origWidth': 411, 'origHeight': 411, 'width': 411, 'height': 411, 'widthPercent': 0.45, 'rescaleHeight': False, 'trialN': 57, 'loaded': True, 'loadedTime': 4585, 'positionName': 'RIGHT', 'positionCoords': [710.32, 178.5], 'bid': 0.38}]",111693.69999998808,1669829470630,eggsalad,tacos,1.31,0.38,-0.93,tacos,2275.300000011921,2275,2275.800000011921,True,i,114469.89999997616,2776.199999988079,1669829473406,2776,HRV,HRV_0020,2022-11-30 17:36:00
58,"[{'imgObject': {}, 'id': 'hotdog w must', 'src': '/static/foodstim60/hotdog w must.jpg', 'key': 'u', 'origWidth': 409, 'origHeight': 409, 'width': 409, 'height': 409, 'widthPercent': 0.45, 'rescaleHeight': False, 'trialN': 58, 'loaded': True, 'loadedTime': 4751, 'positionName': 'LEFT', 'positionCoords': [246.68, 179.5], 'bid': 8.46}, {'imgObject': {}, 'id': 'chickenfingers', 'src': '/static/foodstim60/chickenfingers.jpg', 'key': 'i', 'origWidth': 410, 'origHeight': 410, 'width': 410, 'height': 410, 'widthPercent': 0.45, 'rescaleHeight': False, 'trialN': 58, 'loaded': True, 'loadedTime': 4687.699999988079, 'positionName': 'RIGHT', 'positionCoords': [710.32, 179], 'bid': 6.75}]",114470.09999999404,1669829473406,hotdog w must,chickenfingers,8.46,6.75,-1.7100000000000009,hotdog w must,1622.699999988079,1623,1623.0999999940395,True,u,116596.89999997616,2126.7999999821186,1669829475533,2127,HRV,HRV_0020,2022-11-30 17:36:00
59,"[{'imgObject': {}, 'id': 'grilled chicken strips', 'src': '/static/foodstim60/grilled chicken strips.jpg', 'key': 'u', 'origWidth': 410, 'origHeight': 411, 'width': 410, 'height': 411, 'widthPercent': 0.45, 'rescaleHeight': False, 'trialN': 59, 'loaded': True, 'loadedTime': 4785.299999982119, 'positionName': 'LEFT', 'positionCoords': [245.68, 178.5], 'bid': 9.48}, {'imgObject': {}, 'id': 'sushi w_condiments', 'src': '/static/foodstim60/sushi w_condiments.jpg', 'key': 'i', 'origWidth': 410, 'origHeight': 410, 'width': 410, 'height': 410, 'widthPercent': 0.45, 'rescaleHeight': False, 'trialN': 59, 'loaded': True, 'loadedTime': 4823.799999982119, 'positionName': 'RIGHT', 'positionCoords': [710.32, 179], 'bid': 9.75}]",116597.09999999404,1669829475533,grilled chicken strips,sushi w_condiments,9.48,9.75,0.2699999999999996,grilled chicken strips,1029.699999988079,1031,1030.9000000059605,True,u,118133.79999998212,1536.699999988079,1669829477070,1537,HRV,HRV_0020,2022-11-30 17:36:00
60,"[{'imgObject': {}, 'id': 'eggsalad', 'src': '/static/foodstim60/eggsalad.jpg', 'key': 'u', 'origWidth': 410, 'origHeight': 409, 'width': 410, 'height': 409, 'widthPercent': 0.45, 'rescaleHeight': False, 'trialN': 60, 'loaded': True, 'loadedTime': 4788.299999982119, 'positionName': 'LEFT', 'positionCoords': [245.68, 179.5], 'bid': 1.31}, {'imgObject': {}, 'id': 'bagel and cc', 'src': '/static/foodstim60/bagel and cc.jpg', 'key': 'i', 'origWidth': 410, 'origHeight': 410, 'width': 410, 'height': 410, 'widthPercent': 0.45, 'rescaleHeight': False, 'trialN': 60, 'loaded': True, 'loadedTime': 4661.0999999940395, 'positionName': 'RIGHT', 'positionCoords': [710.32, 179], 'bid': 1.86}]",118134.0,1669829477070,eggsalad,bagel and cc,1.31,1.86,0.55,eggsalad,2279.199999988079,2280,2280.399999976158,True,u,120918.5,2784.5,1669829479854,2784,HRV,HRV_0020,2022-11-30 17:36:00
61,"[{'imgObject': {}, 'id': 'lox', 'src': '/static/foodstim60/lox.jpg', 'key': 'u', 'origWidth': 410, 'origHeight': 411, 'width': 410, 'height': 411, 'widthPercent': 0.45, 'rescaleHeight': False, 'trialN': 61, 'loaded': True, 'loadedTime': 4562.799999982119, 'positionName': 'LEFT', 'positionCoords': [245.68, 178.5], 'bid': 9.86}, {'imgObject': {}, 'id': 'fruitsalad', 'src': '/static/foodstim60/fruitsalad.jpg', 'key': 'i', 'origWidth': 410, 'origHeight': 410, 'width': 410, 'height': 410, 'widthPercent': 0.45, 'rescaleHeight': False, 'trialN': 61, 'loaded': True, 'loadedTime': 4761.699999988079, 'positionName': 'RIGHT', 'positionCoords': [710.32, 179], 'bid': 6.46}]",120919.09999999404,1669829479855,lox,fruitsalad,9.86,6.46,-3.3999999999999995,lox,1675.5,1677,1677.0,True,u,123101.59999999404,2182.5,1669829482037,2182,HRV,HRV_0020,2022-11-30 17:36:00
62,"[{'imgObject': {}, 'id': 'cantaloupe', 'src': '/static/foodstim60/cantaloupe.jpg', 'key': 'u', 'origWidth': 409, 'origHeight': 409, 'width': 409, 'height': 409, 'widthPercent': 0.45, 'rescaleHeight': False, 'trialN': 62, 'loaded': True, 'loadedTime': 4557.5, 'positionName': 'LEFT', 'positionCoords': [246.68, 179.5], 'bid': 9.52}, {'imgObject': {}, 'id': 'blueberries', 'src': '/static/foodstim60/blueberries.jpg', 'key': 'i', 'origWidth': 411, 'origHeight': 411, 'width': 411, 'height': 411, 'widthPercent': 0.45, 'rescaleHeight': False, 'trialN': 62, 'loaded': True, 'loadedTime': 4516.899999976158, 'positionName': 'RIGHT', 'positionCoords': [710.32, 178.5], 'bid': 9.46}]",123101.79999998212,1669829482038,cantaloupe,blueberries,9.52,9.46,-0.05999999999999872,cantaloupe,2034,2035,2035.2000000178814,True,u,125637.5,2535.7000000178814,1669829484573,2535,HRV,HRV_0020,2022-11-30 17:36:00
63,"[{'imgObject': {}, 'id': 'rigatoni and sauce', 'src': '/static/foodstim60/rigatoni and sauce.jpg', 'key': 'u', 'origWidth': 410, 'origHeight': 411, 'width': 410, 'height': 411, 'widthPercent': 0.45, 'rescaleHeight': False, 'trialN': 63, 'loaded': True, 'loadedTime': 4770.5999999940395, 'positionName': 'LEFT', 'positionCoords': [245.68, 178.5], 'bid': 6.91}, {'imgObject': {}, 'id': 'popsicles', 'src': '/static/foodstim60/popsicles.jpg', 'key': 'i', 'origWidth': 410, 'origHeight': 410, 'width': 410, 'height': 410, 'widthPercent': 0.45, 'rescaleHeight': False, 'trialN': 63, 'loaded': True, 'loadedTime': 4843.899999976158, 'positionName': 'RIGHT', 'positionCoords': [710.32, 179], 'bid': 4.92}]",125637.79999998212,1669829484574,rigatoni and sauce,popsicles,6.91,4.92,-1.9900000000000002,rigatoni and sauce,1429.7000000178814,1431,1431.0,True,u,127573.29999998212,1935.5,1669829486509,1935,HRV,HRV_0020,2022-11-30 17:36:00
64,"[{'imgObject': {}, 'id': 'eggsalad', 'src': '/static/foodstim60/eggsalad.jpg', 'key': 'u', 'origWidth': 410, 'origHeight': 409, 'width': 410, 'height': 409, 'widthPercent': 0.45, 'rescaleHeight': False, 'trialN': 64, 'loaded': True, 'loadedTime': 4787.199999988079, 'positionName': 'LEFT', 'positionCoords': [245.68, 179.5], 'bid': 1.31}, {'imgObject': {}, 'id': 'banana', 'src': '/static/foodstim60/banana.jpg', 'key': 'i', 'origWidth': 410, 'origHeight': 410, 'width': 410, 'height': 410, 'widthPercent': 0.45, 'rescaleHeight': False, 'trialN': 64, 'loaded': True, 'loadedTime': 4597.5, 'positionName': 'RIGHT', 'positionCoords': [710.32, 179], 'bid': 8.42}]",127573.5,1669829486509,eggsalad,banana,1.31,8.42,7.109999999999999,banana,1217.5,1219,1218.699999988079,True,i,129293.69999998808,1720.199999988079,1669829488230,1721,HRV,HRV_0020,2022-11-30 17:36:00
65,"[{'imgObject': {}, 'id': 'cherries', 'src': '/static/foodstim60/cherries.jpg', 'key': 'u', 'origWidth': 410, 'origHeight': 411, 'width': 410, 'height': 411, 'widthPercent': 0.45, 'rescaleHeight': False, 'trialN': 65, 'loaded': True, 'loadedTime': 4536.5, 'positionName': 'LEFT', 'positionCoords': [245.68, 178.5], 'bid': 9.08}, {'imgObject': {}, 'id': 'omelette', 'src': '/static/foodstim60/omelette.jpg', 'key': 'i', 'origWidth': 410, 'origHeight': 409, 'width': 410, 'height': 409, 'widthPercent': 0.45, 'rescaleHeight': False, 'trialN': 65, 'loaded': True, 'loadedTime': 4697.399999976158, 'positionName': 'RIGHT', 'positionCoords': [710.32, 179.5], 'bid': 8.98}]",129294.0,1669829488230,cherries,omelette,9.08,8.98,-0.09999999999999964,cherries,1094,1095,1095.2999999821186,True,u,130893.29999998212,1599.2999999821186,1669829489829,1599,HRV,HRV_0020,2022-11-30 17:36:00
66,"[{'imgObject': {}, 'id': 'baked potato', 'src': '/static/foodstim60/baked potato.jpg', 'key': 'u', 'origWidth': 409, 'origHeight': 410, 'width': 409, 'height': 410, 'widthPercent': 0.45, 'rescaleHeight': False, 'trialN': 66, 'loaded': True, 'loadedTime': 4683.5999999940395, 'positionName': 'LEFT', 'positionCoords': [246.68, 179], 'bid': 3.5700000000000003}, {'imgObject': {}, 'id': 'shreddedwheatwithmilk', 'src': '/static/foodstim60/shreddedwheatwithmilk.jpg', 'key': 'i', 'origWidth': 410, 'origHeight': 410, 'width': 410, 'height': 410, 'widthPercent': 0.45, 'rescaleHeight': False, 'trialN': 66, 'loaded': True, 'loadedTime': 4784, 'positionName': 'RIGHT', 'positionCoords': [710.32, 179], 'bid': 1.09}]",130893.69999998808,1669829489830,baked potato,shreddedwheatwithmilk,3.5700000000000003,1.09,-2.4800000000000004,baked potato,1326.5,1327,1327.9000000059605,True,u,132726.5,1832.800000011921,1669829491662,1832,HRV,HRV_0020,2022-11-30 17:36:00
67,"[{'imgObject': {}, 'id': 'raspberries', 'src': '/static/foodstim60/raspberries.jpg', 'key': 'u', 'origWidth': 411, 'origHeight': 411, 'width': 411, 'height': 411, 'widthPercent': 0.45, 'rescaleHeight': False, 'trialN': 67, 'loaded': True, 'loadedTime': 4753.5999999940395, 'positionName': 'LEFT', 'positionCoords': [244.68, 178.5], 'bid': 9.36}, {'imgObject': {}, 'id': 'salmon', 'src': '/static/foodstim60/salmon.jpg', 'key': 'i', 'origWidth': 410, 'origHeight': 409, 'width': 410, 'height': 409, 'widthPercent': 0.45, 'rescaleHeight': False, 'trialN': 67, 'loaded': True, 'loadedTime': 4566.399999976158, 'positionName': 'RIGHT', 'positionCoords': [710.32, 179.5], 'bid': 9.77}]",132726.89999997616,1669829491663,raspberries,salmon,9.36,9.77,0.41000000000000014,salmon,1316.5,1317,1317.7000000178814,True,i,134552.0,1825.1000000238419,1669829493488,1825,HRV,HRV_0020,2022-11-30 17:36:00
68,"[{'imgObject': {}, 'id': 'corn cob', 'src': '/static/foodstim60/corn cob.jpg', 'key': 'u', 'origWidth': 411, 'origHeight': 411, 'width': 411, 'height': 411, 'widthPercent': 0.45, 'rescaleHeight': False, 'trialN': 68, 'loaded': True, 'loadedTime': 4724.699999988079, 'positionName': 'LEFT', 'positionCoords': [244.68, 178.5], 'bid': 4.34}, {'imgObject': {}, 'id': 'hashbrowns', 'src': '/static/foodstim60/hashbrowns.jpg', 'key': 'i', 'origWidth': 411, 'origHeight': 410, 'width': 411, 'height': 410, 'widthPercent': 0.45, 'rescaleHeight': False, 'trialN': 68, 'loaded': True, 'loadedTime': 4825.199999988079, 'positionName': 'RIGHT', 'positionCoords': [710.32, 179], 'bid': 0.94}]",134552.19999998808,1669829493488,corn cob,hashbrowns,4.34,0.94,-3.4,hashbrowns,2394.5,2395,2395.0,True,i,137453.19999998808,2901.0,1669829496389,2901,HRV,HRV_0020,2022-11-30 17:36:00
69,"[{'imgObject': {}, 'id': 'burrito', 'src': '/static/foodstim60/burrito.jpg', 'key': 'u', 'origWidth': 410, 'origHeight': 410, 'width': 410, 'height': 410, 'widthPercent': 0.45, 'rescaleHeight': False, 'trialN': 69, 'loaded': True, 'loadedTime': 4746.5, 'positionName': 'LEFT', 'positionCoords': [245.68, 179], 'bid': 0.49}, {'imgObject': {}, 'id': 'froot loops w milk', 'src': '/static/foodstim60/froot loops w milk.jpg', 'key': 'i', 'origWidth': 410, 'origHeight': 410, 'width': 410, 'height': 410, 'widthPercent': 0.45, 'rescaleHeight': False, 'trialN': 69, 'loaded': True, 'loadedTime': 4702.699999988079, 'positionName': 'RIGHT', 'positionCoords': [710.32, 179], 'bid': 1.76}]",137453.5,1669829496389,burrito,froot loops w milk,0.49,1.76,1.27,froot loops w milk,2758.7999999821186,2761,2760.399999976158,True,i,140717.69999998808,3264.199999988079,1669829499654,3265,HRV,HRV_0020,2022-11-30 17:36:00
70,"[{'imgObject': {}, 'id': 'chicken nuggets2', 'src': '/static/foodstim60/chicken nuggets2.jpg', 'key': 'u', 'origWidth': 410, 'origHeight': 409, 'width': 410, 'height': 409, 'widthPercent': 0.45, 'rescaleHeight': False, 'trialN': 70, 'loaded': True, 'loadedTime': 4764.5, 'positionName': 'LEFT', 'positionCoords': [245.68, 179.5], 'bid': 7.09}, {'imgObject': {}, 'id': 'granola w milk', 'src': '/static/foodstim60/granola w milk.jpg', 'key': 'i', 'origWidth': 410, 'origHeight': 410, 'width': 410, 'height': 410, 'widthPercent': 0.45, 'rescaleHeight': False, 'trialN': 70, 'loaded': True, 'loadedTime': 4737.699999988079, 'positionName': 'RIGHT', 'positionCoords': [710.32, 179], 'bid': 7.32}]",140718.0,1669829499654,chicken nuggets2,granola w milk,7.09,7.32,0.23000000000000043,chicken nuggets2,969.2999999821186,971,970.5999999940395,True,u,142190.09999999404,1472.0999999940395,1669829501126,1472,HRV,HRV_0020,2022-11-30 17:36:00
71,"[{'imgObject': {}, 'id': 'sweetpotato', 'src': '/static/foodstim60/sweetpotato.jpg', 'key': 'u', 'origWidth': 410, 'origHeight': 410, 'width': 410, 'height': 410, 'widthPercent': 0.45, 'rescaleHeight': False, 'trialN': 71, 'loaded': True, 'loadedTime': 4599.199999988079, 'positionName': 'LEFT', 'positionCoords': [245.68, 179], 'bid': 8.16}, {'imgObject': {}, 'id': 'hotdog w must', 'src': '/static/foodstim60/hotdog w must.jpg', 'key': 'i', 'origWidth': 409, 'origHeight': 409, 'width': 409, 'height': 409, 'widthPercent': 0.45, 'rescaleHeight': False, 'trialN': 71, 'loaded': True, 'loadedTime': 4750.399999976158, 'positionName': 'RIGHT', 'positionCoords': [710.32, 179.5], 'bid': 8.46}]",142190.29999998212,1669829501126,sweetpotato,hotdog w must,8.16,8.46,0.3000000000000007,sweetpotato,973.7000000178814,975,974.5,True,u,143670.0,1479.7000000178814,1669829502606,1480,HRV,HRV_0020,2022-11-30 17:36:00
72,"[{'imgObject': {}, 'id': 'cherry tomato', 'src': '/static/foodstim60/cherry tomato.jpg', 'key': 'u', 'origWidth': 410, 'origHeight': 410, 'width': 410, 'height': 410, 'widthPercent': 0.45, 'rescaleHeight': False, 'trialN': 72, 'loaded': True, 'loadedTime': 4589.699999988079, 'positionName': 'LEFT', 'positionCoords': [245.68, 179], 'bid': 6.84}, {'imgObject': {}, 'id': 'fruitsalad', 'src': '/static/foodstim60/fruitsalad.jpg', 'key': 'i', 'origWidth': 410, 'origHeight': 410, 'width': 410, 'height': 410, 'widthPercent': 0.45, 'rescaleHeight': False, 'trialN': 72, 'loaded': True, 'loadedTime': 4761.399999976158, 'positionName': 'RIGHT', 'positionCoords': [710.32, 179], 'bid': 6.46}]",143670.5,1669829502606,cherry tomato,fruitsalad,6.84,6.46,-0.3799999999999999,fruitsalad,2166.0999999940395,2168,2167.699999988079,True,i,146341.5,2671.0,1669829505277,2671,HRV,HRV_0020,2022-11-30 17:36:00
73,"[{'imgObject': {}, 'id': 'shreddedwheatwithmilk', 'src': '/static/foodstim60/shreddedwheatwithmilk.jpg', 'key': 'u', 'origWidth': 410, 'origHeight': 410, 'width': 410, 'height': 410, 'widthPercent': 0.45, 'rescaleHeight': False, 'trialN': 73, 'loaded': True, 'loadedTime': 4783.899999976158, 'positionName': 'LEFT', 'positionCoords': [245.68, 179], 'bid': 1.09}, {'imgObject': {}, 'id': 'popsicles', 'src': '/static/foodstim60/popsicles.jpg', 'key': 'i', 'origWidth': 410, 'origHeight': 410, 'width': 410, 'height': 410, 'widthPercent': 0.45, 'rescaleHeight': False, 'trialN': 73, 'loaded': True, 'loadedTime': 4842.5, 'positionName': 'RIGHT', 'positionCoords': [710.32, 179], 'bid': 4.92}]",146341.69999998808,1669829505278,shreddedwheatwithmilk,popsicles,1.09,4.92,3.83,popsicles,2228.5,2229,2228.9000000059605,True,i,149078.29999998212,2736.5999999940395,1669829508014,2736,HRV,HRV_0020,2022-11-30 17:36:00
74,"[{'imgObject': {}, 'id': 'turkeysandwich', 'src': '/static/foodstim60/turkeysandwich.jpg', 'key': 'u', 'origWidth': 409, 'origHeight': 409, 'width': 409, 'height': 409, 'widthPercent': 0.45, 'rescaleHeight': False, 'trialN': 74, 'loaded': True, 'loadedTime': 4827.5, 'positionName': 'LEFT', 'positionCoords': [246.68, 179.5], 'bid': 5.42}, {'imgObject': {}, 'id': 'turkey sandwich', 'src': '/static/foodstim60/turkey sandwich.jpg', 'key': 'i', 'origWidth': 409, 'origHeight': 409, 'width': 409, 'height': 409, 'widthPercent': 0.45, 'rescaleHeight': False, 'trialN': 74, 'loaded': True, 'loadedTime': 4705.399999976158, 'positionName': 'RIGHT', 'positionCoords': [710.32, 179.5], 'bid': 5.17}]",149078.5,1669829508014,turkeysandwich,turkey sandwich,5.42,5.17,-0.25,turkey sandwich,1434.2999999821186,1435,1434.7999999821186,True,i,151013.5,1935.0,1669829509949,1935,HRV,HRV_0020,2022-11-30 17:36:00
75,"[{'imgObject': {}, 'id': 'veggieswithdip', 'src': '/static/foodstim60/veggieswithdip.jpg', 'key': 'u', 'origWidth': 409, 'origHeight': 409, 'width': 409, 'height': 409, 'widthPercent': 0.45, 'rescaleHeight': False, 'trialN': 75, 'loaded': True, 'loadedTime': 4756.5999999940395, 'positionName': 'LEFT', 'positionCoords': [246.68, 179.5], 'bid': 4.98}, {'imgObject': {}, 'id': 'seaweed', 'src': '/static/foodstim60/seaweed.jpg', 'key': 'i', 'origWidth': 410, 'origHeight': 410, 'width': 410, 'height': 410, 'widthPercent': 0.45, 'rescaleHeight': False, 'trialN': 75, 'loaded': True, 'loadedTime': 4711, 'positionName': 'RIGHT', 'positionCoords': [710.32, 179], 'bid': 9.69}]",151014.19999998808,1669829509950,veggieswithdip,seaweed,4.98,9.69,4.709999999999999,seaweed,1289.199999988079,1290,1289.5999999940395,True,i,152806.79999998212,1792.5999999940395,1669829511743,1793,HRV,HRV_0020,2022-11-30 17:36:00
76,"[{'imgObject': {}, 'id': 'salmon', 'src': '/static/foodstim60/salmon.jpg', 'key': 'u', 'origWidth': 410, 'origHeight': 409, 'width': 410, 'height': 409, 'widthPercent': 0.45, 'rescaleHeight': False, 'trialN': 76, 'loaded': True, 'loadedTime': 4563.5, 'positionName': 'LEFT', 'positionCoords': [245.68, 179.5], 'bid': 9.77}, {'imgObject': {}, 'id': 'mango', 'src': '/static/foodstim60/mango.jpg', 'key': 'i', 'origWidth': 411, 'origHeight': 411, 'width': 411, 'height': 411, 'widthPercent': 0.45, 'rescaleHeight': False, 'trialN': 76, 'loaded': True, 'loadedTime': 4787.0999999940395, 'positionName': 'RIGHT', 'positionCoords': [710.32, 178.5], 'bid': 8.870000000000001}]",152807.09999999404,1669829511743,salmon,mango,9.77,8.870000000000001,-0.8999999999999986,salmon,1772.699999988079,1774,1774.0,True,u,155086.0,2278.9000000059605,1669829514022,2279,HRV,HRV_0020,2022-11-30 17:36:00
77,"[{'imgObject': {}, 'id': 'popsicles', 'src': '/static/foodstim60/popsicles.jpg', 'key': 'u', 'origWidth': 410, 'origHeight': 410, 'width': 410, 'height': 410, 'widthPercent': 0.45, 'rescaleHeight': False, 'trialN': 77, 'loaded': True, 'loadedTime': 4843.799999982119, 'positionName': 'LEFT', 'positionCoords': [245.68, 179], 'bid': 4.92}, {'imgObject': {}, 'id': 'edamame', 'src': '/static/foodstim60/edamame.jpg', 'key': 'i', 'origWidth': 409, 'origHeight': 410, 'width': 409, 'height': 410, 'widthPercent': 0.45, 'rescaleHeight': False, 'trialN': 77, 'loaded': True, 'loadedTime': 4828.899999976158, 'positionName': 'RIGHT', 'positionCoords': [710.32, 179], 'bid': 5}]",155086.39999997616,1669829514022,popsicles,edamame,4.92,5.0,0.08000000000000007,popsicles,2439.600000023842,2441,2440.600000023842,True,u,158030.29999998212,2943.9000000059605,1669829516966,2944,HRV,HRV_0020,2022-11-30 17:36:00
78,"[{'imgObject': {}, 'id': 'rigatoni and sauce', 'src': '/static/foodstim60/rigatoni and sauce.jpg', 'key': 'u', 'origWidth': 410, 'origHeight': 411, 'width': 410, 'height': 411, 'widthPercent': 0.45, 'rescaleHeight': False, 'trialN': 78, 'loaded': True, 'loadedTime': 4770, 'positionName': 'LEFT', 'positionCoords': [245.68, 178.5], 'bid': 6.91}, {'imgObject': {}, 'id': 'turkeysandwich', 'src': '/static/foodstim60/turkeysandwich.jpg', 'key': 'i', 'origWidth': 409, 'origHeight': 409, 'width': 409, 'height': 409, 'widthPercent': 0.45, 'rescaleHeight': False, 'trialN': 78, 'loaded': True, 'loadedTime': 4825.5, 'positionName': 'RIGHT', 'positionCoords': [710.32, 179.5], 'bid': 5.42}]",158030.79999998212,1669829516967,rigatoni and sauce,turkeysandwich,6.91,5.42,-1.4900000000000002,rigatoni and sauce,1604.7000000178814,1605,1605.300000011921,True,u,160141.29999998212,2110.5,1669829519077,2110,HRV,HRV_0020,2022-11-30 17:36:00
79,"[{'imgObject': {}, 'id': 'eggs', 'src': '/static/foodstim60/eggs.jpg', 'key': 'u', 'origWidth': 409, 'origHeight': 409, 'width': 409, 'height': 409, 'widthPercent': 0.45, 'rescaleHeight': False, 'trialN': 79, 'loaded': True, 'loadedTime': 4577.299999982119, 'positionName': 'LEFT', 'positionCoords': [246.68, 179.5], 'bid': 3.75}, {'imgObject': {}, 'id': 'pear', 'src': '/static/foodstim60/pear.jpg', 'key': 'i', 'origWidth': 411, 'origHeight': 410, 'width': 411, 'height': 410, 'widthPercent': 0.45, 'rescaleHeight': False, 'trialN': 79, 'loaded': True, 'loadedTime': 4753.399999976158, 'positionName': 'RIGHT', 'positionCoords': [710.32, 179], 'bid': 9.43}]",160141.39999997616,1669829519077,eggs,pear,3.75,9.43,5.68,pear,1727.6000000238419,1729,1728.800000011921,True,i,162373.39999997616,2232.0,1669829521309,2232,HRV,HRV_0020,2022-11-30 17:36:00
80,"[{'imgObject': {}, 'id': 'cheerios', 'src': '/static/foodstim60/cheerios.jpg', 'key': 'u', 'origWidth': 409, 'origHeight': 410, 'width': 409, 'height': 410, 'widthPercent': 0.45, 'rescaleHeight': False, 'trialN': 80, 'loaded': True, 'loadedTime': 4829.399999976158, 'positionName': 'LEFT', 'positionCoords': [246.68, 179], 'bid': 0.95}, {'imgObject': {}, 'id': 'rigatoni', 'src': '/static/foodstim60/rigatoni.jpg', 'key': 'i', 'origWidth': 411, 'origHeight': 411, 'width': 411, 'height': 411, 'widthPercent': 0.45, 'rescaleHeight': False, 'trialN': 80, 'loaded': True, 'loadedTime': 4724, 'positionName': 'RIGHT', 'positionCoords': [710.32, 178.5], 'bid': 3.08}]",162373.59999999404,1669829521310,cheerios,rigatoni,0.95,3.08,2.13,rigatoni,2158.0999999940395,2158,2158.7999999821186,True,i,165037.19999998808,2663.5999999940395,1669829523973,2663,HRV,HRV_0020,2022-11-30 17:36:00
81,"[{'imgObject': {}, 'id': 'cocktailshrimp', 'src': '/static/foodstim60/cocktailshrimp.jpg', 'key': 'u', 'origWidth': 410, 'origHeight': 410, 'width': 410, 'height': 410, 'widthPercent': 0.45, 'rescaleHeight': False, 'trialN': 81, 'loaded': True, 'loadedTime': 4694.899999976158, 'positionName': 'LEFT', 'positionCoords': [245.68, 179], 'bid': 9.81}, {'imgObject': {}, 'id': 'strawberries', 'src': '/static/foodstim60/strawberries.jpg', 'key': 'i', 'origWidth': 410, 'origHeight': 410, 'width': 410, 'height': 410, 'widthPercent': 0.45, 'rescaleHeight': False, 'trialN': 81, 'loaded': True, 'loadedTime': 4537.299999982119, 'positionName': 'RIGHT', 'positionCoords': [710.32, 179], 'bid': 9.64}]",165037.89999997616,1669829523974,cocktailshrimp,strawberries,9.81,9.64,-0.16999999999999993,strawberries,2480.100000023842,2481,2481.5,True,i,168021.89999997616,2984.0,1669829526958,2984,HRV,HRV_0020,2022-11-30 17:36:00
82,"[{'imgObject': {}, 'id': 'luckycharms', 'src': '/static/foodstim60/luckycharms.jpg', 'key': 'u', 'origWidth': 410, 'origHeight': 409, 'width': 410, 'height': 409, 'widthPercent': 0.45, 'rescaleHeight': False, 'trialN': 82, 'loaded': True, 'loadedTime': 4574.799999982119, 'positionName': 'LEFT', 'positionCoords': [245.68, 179.5], 'bid': 2.3000000000000003}, {'imgObject': {}, 'id': 'burger', 'src': '/static/foodstim60/burger.jpg', 'key': 'i', 'origWidth': 409, 'origHeight': 409, 'width': 409, 'height': 409, 'widthPercent': 0.45, 'rescaleHeight': False, 'trialN': 82, 'loaded': True, 'loadedTime': 4748.899999976158, 'positionName': 'RIGHT', 'positionCoords': [710.32, 179.5], 'bid': 5.64}]",168022.5,1669829526958,luckycharms,burger,2.3000000000000003,5.64,3.3399999999999994,burger,1184.2999999821186,1185,1184.8999999761581,True,i,169709.39999997616,1686.8999999761581,1669829528645,1687,HRV,HRV_0020,2022-11-30 17:36:00
83,"[{'imgObject': {}, 'id': 'banana', 'src': '/static/foodstim60/banana.jpg', 'key': 'u', 'origWidth': 410, 'origHeight': 410, 'width': 410, 'height': 410, 'widthPercent': 0.45, 'rescaleHeight': False, 'trialN': 83, 'loaded': True, 'loadedTime': 4596.699999988079, 'positionName': 'LEFT', 'positionCoords': [245.68, 179], 'bid': 8.42}, {'imgObject': {}, 'id': 'hotdog w must', 'src': '/static/foodstim60/hotdog w must.jpg', 'key': 'i', 'origWidth': 409, 'origHeight': 409, 'width': 409, 'height': 409, 'widthPercent': 0.45, 'rescaleHeight': False, 'trialN': 83, 'loaded': True, 'loadedTime': 4751, 'positionName': 'RIGHT', 'positionCoords': [710.32, 179.5], 'bid': 8.46}]",169710.19999998808,1669829528646,banana,hotdog w must,8.42,8.46,0.040000000000000924,banana,1705.699999988079,1707,1707.0999999940395,True,u,171918.09999999404,2207.9000000059605,1669829530854,2208,HRV,HRV_0020,2022-11-30 17:36:00
84,"[{'imgObject': {}, 'id': 'strawberries', 'src': '/static/foodstim60/strawberries.jpg', 'key': 'u', 'origWidth': 410, 'origHeight': 410, 'width': 410, 'height': 410, 'widthPercent': 0.45, 'rescaleHeight': False, 'trialN': 84, 'loaded': True, 'loadedTime': 4539.299999982119, 'positionName': 'LEFT', 'positionCoords': [245.68, 179], 'bid': 9.64}, {'imgObject': {}, 'id': 'mango', 'src': '/static/foodstim60/mango.jpg', 'key': 'i', 'origWidth': 411, 'origHeight': 411, 'width': 411, 'height': 411, 'widthPercent': 0.45, 'rescaleHeight': False, 'trialN': 84, 'loaded': True, 'loadedTime': 4786.899999976158, 'positionName': 'RIGHT', 'positionCoords': [710.32, 178.5], 'bid': 8.870000000000001}]",171918.39999997616,1669829530854,strawberries,mango,9.64,8.870000000000001,-0.7699999999999996,strawberries,1806.800000011921,1808,1807.9000000059605,True,u,174230.69999998808,2312.300000011921,1669829533167,2313,HRV,HRV_0020,2022-11-30 17:36:00
85,"[{'imgObject': {}, 'id': 'cheerios', 'src': '/static/foodstim60/cheerios.jpg', 'key': 'u', 'origWidth': 409, 'origHeight': 410, 'width': 409, 'height': 410, 'widthPercent': 0.45, 'rescaleHeight': False, 'trialN': 85, 'loaded': True, 'loadedTime': 4830.799999982119, 'positionName': 'LEFT', 'positionCoords': [246.68, 179], 'bid': 0.95}, {'imgObject': {}, 'id': 'raisin bran w milk', 'src': '/static/foodstim60/raisin bran w milk.jpg', 'key': 'i', 'origWidth': 411, 'origHeight': 411, 'width': 411, 'height': 411, 'widthPercent': 0.45, 'rescaleHeight': False, 'trialN': 85, 'loaded': True, 'loadedTime': 4559.5999999940395, 'positionName': 'RIGHT', 'positionCoords': [710.32, 178.5], 'bid': 7.67}]",174231.29999998212,1669829533167,cheerios,raisin bran w milk,0.95,7.67,6.72,raisin bran w milk,1430.2000000178814,1432,1431.4000000059605,True,i,176165.39999997616,1934.0999999940395,1669829535101,1934,HRV,HRV_0020,2022-11-30 17:36:00
86,"[{'imgObject': {}, 'id': 'bagel and cc', 'src': '/static/foodstim60/bagel and cc.jpg', 'key': 'u', 'origWidth': 410, 'origHeight': 410, 'width': 410, 'height': 410, 'widthPercent': 0.45, 'rescaleHeight': False, 'trialN': 86, 'loaded': True, 'loadedTime': 4676.0999999940395, 'positionName': 'LEFT', 'positionCoords': [245.68, 179], 'bid': 1.86}, {'imgObject': {}, 'id': 'blackbeanswithrice', 'src': '/static/foodstim60/blackbeanswithrice.jpg', 'key': 'i', 'origWidth': 410, 'origHeight': 410, 'width': 410, 'height': 410, 'widthPercent': 0.45, 'rescaleHeight': False, 'trialN': 86, 'loaded': True, 'loadedTime': 4733.5999999940395, 'positionName': 'RIGHT', 'positionCoords': [710.32, 179], 'bid': 0.24}]",176165.79999998212,1669829535102,bagel and cc,blackbeanswithrice,1.86,0.24,-1.62,bagel and cc,1263.300000011921,1263,1263.800000011921,True,u,177933.69999998808,1767.9000000059605,1669829536870,1768,HRV,HRV_0020,2022-11-30 17:36:00
87,"[{'imgObject': {}, 'id': 'roastedpotatoes', 'src': '/static/foodstim60/roastedpotatoes.jpg', 'key': 'u', 'origWidth': 409, 'origHeight': 410, 'width': 409, 'height': 410, 'widthPercent': 0.45, 'rescaleHeight': False, 'trialN': 87, 'loaded': True, 'loadedTime': 4766.199999988079, 'positionName': 'LEFT', 'positionCoords': [246.68, 179], 'bid': 2.18}, {'imgObject': {}, 'id': 'cheerios', 'src': '/static/foodstim60/cheerios.jpg', 'key': 'i', 'origWidth': 409, 'origHeight': 410, 'width': 409, 'height': 410, 'widthPercent': 0.45, 'rescaleHeight': False, 'trialN': 87, 'loaded': True, 'loadedTime': 4830.5, 'positionName': 'RIGHT', 'positionCoords': [710.32, 179], 'bid': 0.95}]",177934.09999999404,1669829536870,roastedpotatoes,cheerios,2.18,0.95,-1.2300000000000002,roastedpotatoes,1471.199999988079,1472,1471.699999988079,True,u,179909.79999998212,1975.699999988079,1669829538846,1976,HRV,HRV_0020,2022-11-30 17:36:00
88,"[{'imgObject': {}, 'id': 'cherries', 'src': '/static/foodstim60/cherries.jpg', 'key': 'u', 'origWidth': 410, 'origHeight': 411, 'width': 410, 'height': 411, 'widthPercent': 0.45, 'rescaleHeight': False, 'trialN': 88, 'loaded': True, 'loadedTime': 4536.899999976158, 'positionName': 'LEFT', 'positionCoords': [245.68, 178.5], 'bid': 9.08}, {'imgObject': {}, 'id': 'kiwi', 'src': '/static/foodstim60/kiwi.jpg', 'key': 'i', 'origWidth': 410, 'origHeight': 410, 'width': 410, 'height': 410, 'widthPercent': 0.45, 'rescaleHeight': False, 'trialN': 88, 'loaded': True, 'loadedTime': 4573.0999999940395, 'positionName': 'RIGHT', 'positionCoords': [710.32, 179], 'bid': 2.45}]",179910.39999997616,1669829538846,cherries,kiwi,9.08,2.45,-6.63,cherries,1523.7000000178814,1525,1525.0,True,u,181942.5,2032.1000000238419,1669829540878,2032,HRV,HRV_0020,2022-11-30 17:36:00
89,"[{'imgObject': {}, 'id': 'blackbeanswithrice', 'src': '/static/foodstim60/blackbeanswithrice.jpg', 'key': 'u', 'origWidth': 410, 'origHeight': 410, 'width': 410, 'height': 410, 'widthPercent': 0.45, 'rescaleHeight': False, 'trialN': 89, 'loaded': True, 'loadedTime': 4734.799999982119, 'positionName': 'LEFT', 'positionCoords': [245.68, 179], 'bid': 0.24}, {'imgObject': {}, 'id': 'tacos', 'src': '/static/foodstim60/tacos.jpg', 'key': 'i', 'origWidth': 411, 'origHeight': 411, 'width': 411, 'height': 411, 'widthPercent': 0.45, 'rescaleHeight': False, 'trialN': 89, 'loaded': True, 'loadedTime': 4584.799999982119, 'positionName': 'RIGHT', 'positionCoords': [710.32, 178.5], 'bid': 0.38}]",181943.0,1669829540879,blackbeanswithrice,tacos,0.24,0.38,0.14,blackbeanswithrice,1359.3999999761581,1360,1360.5999999940395,True,u,183806.39999997616,1863.3999999761581,1669829542742,1863,HRV,HRV_0020,2022-11-30 17:36:00
90,"[{'imgObject': {}, 'id': 'ice cream sundae 002', 'src': '/static/foodstim60/ice cream sundae 002.jpg', 'key': 'u', 'origWidth': 409, 'origHeight': 409, 'width': 409, 'height': 409, 'widthPercent': 0.45, 'rescaleHeight': False, 'trialN': 90, 'loaded': True, 'loadedTime': 4789.799999982119, 'positionName': 'LEFT', 'positionCoords': [246.68, 179.5], 'bid': 9.74}, {'imgObject': {}, 'id': 'sushi w_condiments', 'src': '/static/foodstim60/sushi w_condiments.jpg', 'key': 'i', 'origWidth': 410, 'origHeight': 410, 'width': 410, 'height': 410, 'widthPercent': 0.45, 'rescaleHeight': False, 'trialN': 90, 'loaded': True, 'loadedTime': 4823.899999976158, 'positionName': 'RIGHT', 'positionCoords': [710.32, 179], 'bid': 9.75}]",188681.59999999404,1669829547617,ice cream sundae 002,sushi w_condiments,9.74,9.75,0.009999999999999787,ice cream sundae 002,878.0999999940395,880,879.6999999880791,True,u,190062.09999999404,1380.5,1669829548998,1381,HRV,HRV_0020,2022-11-30 17:36:00
91,"[{'imgObject': {}, 'id': 'bagel and cc', 'src': '/static/foodstim60/bagel and cc.jpg', 'key': 'u', 'origWidth': 410, 'origHeight': 410, 'width': 410, 'height': 410, 'widthPercent': 0.45, 'rescaleHeight': False, 'trialN': 91, 'loaded': True, 'loadedTime': 4671, 'positionName': 'LEFT', 'positionCoords': [245.68, 179], 'bid': 1.86}, {'imgObject': {}, 'id': 'roastedpotatoes', 'src': '/static/foodstim60/roastedpotatoes.jpg', 'key': 'i', 'origWidth': 409, 'origHeight': 410, 'width': 409, 'height': 410, 'widthPercent': 0.45, 'rescaleHeight': False, 'trialN': 91, 'loaded': True, 'loadedTime': 4767.899999976158, 'positionName': 'RIGHT', 'positionCoords': [710.32, 179], 'bid': 2.18}]",190062.79999998212,1669829548999,bagel and cc,roastedpotatoes,1.86,2.18,0.32000000000000006,bagel and cc,1831.5,1833,1832.9000000059605,True,u,192397.19999998808,2334.4000000059605,1669829551333,2334,HRV,HRV_0020,2022-11-30 17:36:00
92,"[{'imgObject': {}, 'id': 'hashbrowns', 'src': '/static/foodstim60/hashbrowns.jpg', 'key': 'u', 'origWidth': 411, 'origHeight': 410, 'width': 411, 'height': 410, 'widthPercent': 0.45, 'rescaleHeight': False, 'trialN': 92, 'loaded': True, 'loadedTime': 4825.199999988079, 'positionName': 'LEFT', 'positionCoords': [244.68, 179], 'bid': 0.94}, {'imgObject': {}, 'id': 'bagel and cc', 'src': '/static/foodstim60/bagel and cc.jpg', 'key': 'i', 'origWidth': 410, 'origHeight': 410, 'width': 410, 'height': 410, 'widthPercent': 0.45, 'rescaleHeight': False, 'trialN': 92, 'loaded': True, 'loadedTime': 4672.799999982119, 'positionName': 'RIGHT', 'positionCoords': [710.32, 179], 'bid': 1.86}]",192397.29999998212,1669829551333,hashbrowns,bagel and cc,0.94,1.86,0.9200000000000002,bagel and cc,2937.2000000178814,2939,2938.5,True,i,195837.79999998212,3440.5,1669829554774,3441,HRV,HRV_0020,2022-11-30 17:36:00
93,"[{'imgObject': {}, 'id': 'mango', 'src': '/static/foodstim60/mango.jpg', 'key': 'u', 'origWidth': 411, 'origHeight': 411, 'width': 411, 'height': 411, 'widthPercent': 0.45, 'rescaleHeight': False, 'trialN': 93, 'loaded': True, 'loadedTime': 4785.799999982119, 'positionName': 'LEFT', 'positionCoords': [244.68, 178.5], 'bid': 8.870000000000001}, {'imgObject': {}, 'id': 'pear', 'src': '/static/foodstim60/pear.jpg', 'key': 'i', 'origWidth': 411, 'origHeight': 410, 'width': 411, 'height': 410, 'widthPercent': 0.45, 'rescaleHeight': False, 'trialN': 93, 'loaded': True, 'loadedTime': 4752.399999976158, 'positionName': 'RIGHT', 'positionCoords': [710.32, 179], 'bid': 9.43}]",195838.19999998808,1669829554774,mango,pear,8.870000000000001,9.43,0.5599999999999987,pear,1864.5,1865,1865.300000011921,True,i,198206.0,2367.800000011921,1669829557142,2368,HRV,HRV_0020,2022-11-30 17:36:00
94,"[{'imgObject': {}, 'id': 'raspberries', 'src': '/static/foodstim60/raspberries.jpg', 'key': 'u', 'origWidth': 411, 'origHeight': 411, 'width': 411, 'height': 411, 'widthPercent': 0.45, 'rescaleHeight': False, 'trialN': 94, 'loaded': True, 'loadedTime': 4754.5999999940395, 'positionName': 'LEFT', 'positionCoords': [244.68, 178.5], 'bid': 9.36}, {'imgObject': {}, 'id': 'rigatoni and sauce', 'src': '/static/foodstim60/rigatoni and sauce.jpg', 'key': 'i', 'origWidth': 410, 'origHeight': 411, 'width': 410, 'height': 411, 'widthPercent': 0.45, 'rescaleHeight': False, 'trialN': 94, 'loaded': True, 'loadedTime': 4770.399999976158, 'positionName': 'RIGHT', 'positionCoords': [710.32, 178.5], 'bid': 6.91}]",198206.29999998212,1669829557142,raspberries,rigatoni and sauce,9.36,6.91,-2.4499999999999993,raspberries,1872.5999999940395,1874,1873.800000011921,True,u,200581.09999999404,2374.800000011921,1669829559517,2375,HRV,HRV_0020,2022-11-30 17:36:00
95,"[{'imgObject': {}, 'id': 'chicken nuggets2', 'src': '/static/foodstim60/chicken nuggets2.jpg', 'key': 'u', 'origWidth': 410, 'origHeight': 409, 'width': 410, 'height': 409, 'widthPercent': 0.45, 'rescaleHeight': False, 'trialN': 95, 'loaded': True, 'loadedTime': 4765.799999982119, 'positionName': 'LEFT', 'positionCoords': [245.68, 179.5], 'bid': 7.09}, {'imgObject': {}, 'id': 'pear', 'src': '/static/foodstim60/pear.jpg', 'key': 'i', 'origWidth': 411, 'origHeight': 410, 'width': 411, 'height': 410, 'widthPercent': 0.45, 'rescaleHeight': False, 'trialN': 95, 'loaded': True, 'loadedTime': 4752.799999982119, 'positionName': 'RIGHT', 'positionCoords': [710.32, 179], 'bid': 9.43}]",200581.29999998212,1669829559517,chicken nuggets2,pear,7.09,9.43,2.34,pear,1436.5,1438,1437.800000011921,True,i,202525.69999998808,1944.4000000059605,1669829561462,1945,HRV,HRV_0020,2022-11-30 17:36:00
96,"[{'imgObject': {}, 'id': 'salad w chicken', 'src': '/static/foodstim60/salad w chicken.jpg', 'key': 'u', 'origWidth': 411, 'origHeight': 411, 'width': 411, 'height': 411, 'widthPercent': 0.45, 'rescaleHeight': False, 'trialN': 96, 'loaded': True, 'loadedTime': 4708.5999999940395, 'positionName': 'LEFT', 'positionCoords': [244.68, 178.5], 'bid': 9.09}, {'imgObject': {}, 'id': 'avocado', 'src': '/static/foodstim60/avocado.jpg', 'key': 'i', 'origWidth': 409, 'origHeight': 409, 'width': 409, 'height': 409, 'widthPercent': 0.45, 'rescaleHeight': False, 'trialN': 96, 'loaded': True, 'loadedTime': 4692.5, 'positionName': 'RIGHT', 'positionCoords': [710.32, 179.5], 'bid': 2.56}]",202526.39999997616,1669829561462,salad w chicken,avocado,9.09,2.56,-6.529999999999999,salad w chicken,1459,1461,1460.300000011921,True,u,204493.39999997616,1967.0,1669829563429,1967,HRV,HRV_0020,2022-11-30 17:36:00
97,"[{'imgObject': {}, 'id': 'yogurt no spoon', 'src': '/static/foodstim60/yogurt no spoon.jpg', 'key': 'u', 'origWidth': 411, 'origHeight': 410, 'width': 411, 'height': 410, 'widthPercent': 0.45, 'rescaleHeight': False, 'trialN': 97, 'loaded': True, 'loadedTime': 4660.299999982119, 'positionName': 'LEFT', 'positionCoords': [244.68, 179], 'bid': 8.85}, {'imgObject': {}, 'id': 'sushi w_condiments', 'src': '/static/foodstim60/sushi w_condiments.jpg', 'key': 'i', 'origWidth': 410, 'origHeight': 410, 'width': 410, 'height': 410, 'widthPercent': 0.45, 'rescaleHeight': False, 'trialN': 97, 'loaded': True, 'loadedTime': 4823.5999999940395, 'positionName': 'RIGHT', 'positionCoords': [710.32, 179], 'bid': 9.75}]",204494.0,1669829563430,yogurt no spoon,sushi w_condiments,8.85,9.75,0.9000000000000004,sushi w_condiments,1529.8999999761581,1530,1530.199999988079,True,i,206526.29999998212,2032.2999999821186,1669829565462,2032,HRV,HRV_0020,2022-11-30 17:36:00
98,"[{'imgObject': {}, 'id': 'grilled chicken strips', 'src': '/static/foodstim60/grilled chicken strips.jpg', 'key': 'u', 'origWidth': 410, 'origHeight': 411, 'width': 410, 'height': 411, 'widthPercent': 0.45, 'rescaleHeight': False, 'trialN': 98, 'loaded': True, 'loadedTime': 4784.0999999940395, 'positionName': 'LEFT', 'positionCoords': [245.68, 178.5], 'bid': 9.48}, {'imgObject': {}, 'id': 'corn cob', 'src': '/static/foodstim60/corn cob.jpg', 'key': 'i', 'origWidth': 411, 'origHeight': 411, 'width': 411, 'height': 411, 'widthPercent': 0.45, 'rescaleHeight': False, 'trialN': 98, 'loaded': True, 'loadedTime': 4726.0999999940395, 'positionName': 'RIGHT', 'positionCoords': [710.32, 178.5], 'bid': 4.34}]",206526.89999997616,1669829565463,grilled chicken strips,corn cob,9.48,4.34,-5.140000000000001,grilled chicken strips,1259,1260,1260.300000011921,True,u,208294.59999999404,1767.7000000178814,1669829567231,1768,HRV,HRV_0020,2022-11-30 17:36:00
99,"[{'imgObject': {}, 'id': 'burger', 'src': '/static/foodstim60/burger.jpg', 'key': 'u', 'origWidth': 409, 'origHeight': 409, 'width': 409, 'height': 409, 'widthPercent': 0.45, 'rescaleHeight': False, 'trialN': 99, 'loaded': True, 'loadedTime': 4749.0999999940395, 'positionName': 'LEFT', 'positionCoords': [246.68, 179.5], 'bid': 5.64}, {'imgObject': {}, 'id': 'granola w milk', 'src': '/static/foodstim60/granola w milk.jpg', 'key': 'i', 'origWidth': 410, 'origHeight': 410, 'width': 410, 'height': 410, 'widthPercent': 0.45, 'rescaleHeight': False, 'trialN': 99, 'loaded': True, 'loadedTime': 4737.299999982119, 'positionName': 'RIGHT', 'positionCoords': [710.32, 179], 'bid': 7.32}]",208295.09999999404,1669829567231,burger,granola w milk,5.64,7.32,1.6800000000000006,burger,2197.4000000059605,2198,2197.9000000059605,True,u,210997.79999998212,2702.699999988079,1669829569934,2703,HRV,HRV_0020,2022-11-30 17:36:00
100,"[{'imgObject': {}, 'id': 'steak', 'src': '/static/foodstim60/steak.jpg', 'key': 'u', 'origWidth': 410, 'origHeight': 410, 'width': 410, 'height': 410, 'widthPercent': 0.45, 'rescaleHeight': False, 'trialN': 100, 'loaded': True, 'loadedTime': 4699, 'positionName': 'LEFT', 'positionCoords': [245.68, 179], 'bid': 10}, {'imgObject': {}, 'id': 'orange slices', 'src': '/static/foodstim60/orange slices.jpg', 'key': 'i', 'origWidth': 409, 'origHeight': 410, 'width': 409, 'height': 410, 'widthPercent': 0.45, 'rescaleHeight': False, 'trialN': 100, 'loaded': True, 'loadedTime': 4533, 'positionName': 'RIGHT', 'positionCoords': [710.32, 179], 'bid': 9.74}]",210998.5,1669829569934,steak,orange slices,10.0,9.74,-0.2599999999999998,steak,1175.7999999821186,1177,1176.8999999761581,True,u,212678.69999998808,1680.199999988079,1669829571615,1681,HRV,HRV_0020,2022-11-30 17:36:00
101,"[{'imgObject': {}, 'id': 'baked potato', 'src': '/static/foodstim60/baked potato.jpg', 'key': 'u', 'origWidth': 409, 'origHeight': 410, 'width': 409, 'height': 410, 'widthPercent': 0.45, 'rescaleHeight': False, 'trialN': 101, 'loaded': True, 'loadedTime': 4687.5999999940395, 'positionName': 'LEFT', 'positionCoords': [246.68, 179], 'bid': 3.5700000000000003}, {'imgObject': {}, 'id': 'eggs', 'src': '/static/foodstim60/eggs.jpg', 'key': 'i', 'origWidth': 409, 'origHeight': 409, 'width': 409, 'height': 409, 'widthPercent': 0.45, 'rescaleHeight': False, 'trialN': 101, 'loaded': True, 'loadedTime': 4579.299999982119, 'positionName': 'RIGHT', 'positionCoords': [710.32, 179.5], 'bid': 3.75}]",212679.0,1669829571615,baked potato,eggs,3.5700000000000003,3.75,0.17999999999999972,eggs,1945.699999988079,1947,1946.8999999761581,True,i,215134.29999998212,2455.2999999821186,1669829574070,2455,HRV,HRV_0020,2022-11-30 17:36:00
102,"[{'imgObject': {}, 'id': 'eggs', 'src': '/static/foodstim60/eggs.jpg', 'key': 'u', 'origWidth': 409, 'origHeight': 409, 'width': 409, 'height': 409, 'widthPercent': 0.45, 'rescaleHeight': False, 'trialN': 102, 'loaded': True, 'loadedTime': 4579.5, 'positionName': 'LEFT', 'positionCoords': [246.68, 179.5], 'bid': 3.75}, {'imgObject': {}, 'id': 'corn cob', 'src': '/static/foodstim60/corn cob.jpg', 'key': 'i', 'origWidth': 411, 'origHeight': 411, 'width': 411, 'height': 411, 'widthPercent': 0.45, 'rescaleHeight': False, 'trialN': 102, 'loaded': True, 'loadedTime': 4730.299999982119, 'positionName': 'RIGHT', 'positionCoords': [710.32, 178.5], 'bid': 4.34}]",215134.59999999404,1669829574071,eggs,corn cob,3.75,4.34,0.5899999999999999,eggs,2154.5999999940395,2155,2155.7999999821186,True,u,217797.09999999404,2662.5,1669829576733,2662,HRV,HRV_0020,2022-11-30 17:36:00
103,"[{'imgObject': {}, 'id': 'shreddedwheatwithmilk', 'src': '/static/foodstim60/shreddedwheatwithmilk.jpg', 'key': 'u', 'origWidth': 410, 'origHeight': 410, 'width': 410, 'height': 410, 'widthPercent': 0.45, 'rescaleHeight': False, 'trialN': 103, 'loaded': True, 'loadedTime': 4783.5999999940395, 'positionName': 'LEFT', 'positionCoords': [245.68, 179], 'bid': 1.09}, {'imgObject': {}, 'id': 'hashbrowns', 'src': '/static/foodstim60/hashbrowns.jpg', 'key': 'i', 'origWidth': 411, 'origHeight': 410, 'width': 411, 'height': 410, 'widthPercent': 0.45, 'rescaleHeight': False, 'trialN': 103, 'loaded': True, 'loadedTime': 4824, 'positionName': 'RIGHT', 'positionCoords': [710.32, 179], 'bid': 0.94}]",217797.5,1669829576733,shreddedwheatwithmilk,hashbrowns,1.09,0.94,-0.15000000000000013,hashbrowns,2281.7999999821186,2283,2282.399999976158,True,i,220582.09999999404,2784.5999999940395,1669829579518,2785,HRV,HRV_0020,2022-11-30 17:36:00
104,"[{'imgObject': {}, 'id': 'cocktailshrimp', 'src': '/static/foodstim60/cocktailshrimp.jpg', 'key': 'u', 'origWidth': 410, 'origHeight': 410, 'width': 410, 'height': 410, 'widthPercent': 0.45, 'rescaleHeight': False, 'trialN': 104, 'loaded': True, 'loadedTime': 4695.5, 'positionName': 'LEFT', 'positionCoords': [245.68, 179], 'bid': 9.81}, {'imgObject': {}, 'id': 'burger', 'src': '/static/foodstim60/burger.jpg', 'key': 'i', 'origWidth': 409, 'origHeight': 409, 'width': 409, 'height': 409, 'widthPercent': 0.45, 'rescaleHeight': False, 'trialN': 104, 'loaded': True, 'loadedTime': 4749, 'positionName': 'RIGHT', 'positionCoords': [710.32, 179.5], 'bid': 5.64}]",220582.19999998808,1669829579518,cocktailshrimp,burger,9.81,5.64,-4.170000000000001,cocktailshrimp,1792.4000000059605,1793,1792.699999988079,True,u,222877.59999999404,2295.4000000059605,1669829581814,2296,HRV,HRV_0020,2022-11-30 17:36:00
105,"[{'imgObject': {}, 'id': 'fried eggs', 'src': '/static/foodstim60/fried eggs.jpg', 'key': 'u', 'origWidth': 410, 'origHeight': 410, 'width': 410, 'height': 410, 'widthPercent': 0.45, 'rescaleHeight': False, 'trialN': 105, 'loaded': True, 'loadedTime': 4586.699999988079, 'positionName': 'LEFT', 'positionCoords': [245.68, 179], 'bid': 4.78}, {'imgObject': {}, 'id': 'cheerios', 'src': '/static/foodstim60/cheerios.jpg', 'key': 'i', 'origWidth': 409, 'origHeight': 410, 'width': 409, 'height': 410, 'widthPercent': 0.45, 'rescaleHeight': False, 'trialN': 105, 'loaded': True, 'loadedTime': 4830.899999976158, 'positionName': 'RIGHT', 'positionCoords': [710.32, 179], 'bid': 0.95}]",222877.79999998212,1669829581814,fried eggs,cheerios,4.78,0.95,-3.83,fried eggs,1251.2000000178814,1251,1251.5999999940395,True,u,224630.5,1752.7000000178814,1669829583566,1752,HRV,HRV_0020,2022-11-30 17:36:00
106,"[{'imgObject': {}, 'id': 'luckycharms', 'src': '/static/foodstim60/luckycharms.jpg', 'key': 'u', 'origWidth': 410, 'origHeight': 409, 'width': 410, 'height': 409, 'widthPercent': 0.45, 'rescaleHeight': False, 'trialN': 106, 'loaded': True, 'loadedTime': 4576.299999982119, 'positionName': 'LEFT', 'positionCoords': [245.68, 179.5], 'bid': 2.3000000000000003}, {'imgObject': {}, 'id': 'Tribe humus pita', 'src': '/static/foodstim60/Tribe humus pita.jpg', 'key': 'i', 'origWidth': 411, 'origHeight': 411, 'width': 411, 'height': 411, 'widthPercent': 0.45, 'rescaleHeight': False, 'trialN': 106, 'loaded': True, 'loadedTime': 4445.299999982119, 'positionName': 'RIGHT', 'positionCoords': [710.32, 178.5], 'bid': 4.25}]",224630.59999999404,1669829583567,luckycharms,Tribe humus pita,2.3000000000000003,4.25,1.9499999999999997,Tribe humus pita,1755.7999999821186,1756,1756.4000000059605,True,i,226893.69999998808,2263.0999999940395,1669829585830,2263,HRV,HRV_0020,2022-11-30 17:36:00
107,"[{'imgObject': {}, 'id': 'tacos', 'src': '/static/foodstim60/tacos.jpg', 'key': 'u', 'origWidth': 411, 'origHeight': 411, 'width': 411, 'height': 411, 'widthPercent': 0.45, 'rescaleHeight': False, 'trialN': 107, 'loaded': True, 'loadedTime': 4584.399999976158, 'positionName': 'LEFT', 'positionCoords': [244.68, 178.5], 'bid': 0.38}, {'imgObject': {}, 'id': 'chicken nuggets2', 'src': '/static/foodstim60/chicken nuggets2.jpg', 'key': 'i', 'origWidth': 410, 'origHeight': 409, 'width': 410, 'height': 409, 'widthPercent': 0.45, 'rescaleHeight': False, 'trialN': 107, 'loaded': True, 'loadedTime': 4766, 'positionName': 'RIGHT', 'positionCoords': [710.32, 179.5], 'bid': 7.09}]",226894.29999998212,1669829585830,tacos,chicken nuggets2,0.38,7.09,6.71,chicken nuggets2,1725.0999999940395,1726,1725.7000000178814,True,i,229125.19999998808,2230.9000000059605,1669829588061,2231,HRV,HRV_0020,2022-11-30 17:36:00
108,"[{'imgObject': {}, 'id': 'blueberries', 'src': '/static/foodstim60/blueberries.jpg', 'key': 'u', 'origWidth': 411, 'origHeight': 411, 'width': 411, 'height': 411, 'widthPercent': 0.45, 'rescaleHeight': False, 'trialN': 108, 'loaded': True, 'loadedTime': 4516.399999976158, 'positionName': 'LEFT', 'positionCoords': [244.68, 178.5], 'bid': 9.46}, {'imgObject': {}, 'id': 'grilled chicken strips', 'src': '/static/foodstim60/grilled chicken strips.jpg', 'key': 'i', 'origWidth': 410, 'origHeight': 411, 'width': 410, 'height': 411, 'widthPercent': 0.45, 'rescaleHeight': False, 'trialN': 108, 'loaded': True, 'loadedTime': 4785.399999976158, 'positionName': 'RIGHT', 'positionCoords': [710.32, 178.5], 'bid': 9.48}]",229125.5,1669829588061,blueberries,grilled chicken strips,9.46,9.48,0.019999999999999574,blueberries,2148.899999976158,2151,2150.0999999940395,True,u,231781.39999997616,2655.899999976158,1669829590717,2656,HRV,HRV_0020,2022-11-30 17:36:00
