success,trial_type,trial_index,time_elapsed,internal_node_id,Block,TrialNumber,TrialTime,trialTimeDiff,FPS_avg,FPS_med,FPS_mode,TrialDur,winResizeTime,rt,block,button_pressed,MotCoh,MotDir,ColCoh,Color,ChoiceKey,Choice,Accuracy,RT,nFrames,FPS,PPD,missTrial,missTrialMsg,onsetDelay,fullScreenExitTime,canvCenter,TrialType,Score,BlockTrial,stimulus,button_labels,exp,subjectId,date
True,fullscreen,0,2308,0.0-0.0,0.0,1.0,,,,,,,,,,,,,,,,,,,,,,,,,,,,,,,,HRV,HRV_0020,2022-11-30 18:01:36
,wl-check-fps,1,7487,0.0-1.0,0.0,2.0,"[3633.5, 3649.2, 3666.1, 3682.8, 3699.2, 3716, 3732.5, 3750.3, 3771.4, 3784.3, 3800.8, 3815.9, 3832.9, 3849.2, 3865.8, 3882.5, 3899.1, 3916.1, 3933, 3949.6, 3966.3, 3983.9, 3999.9, 4016.2, 4033.3, 4049.2, 4065.8, 4082.5, 4099, 4116, 4133, 4149.8, 4166.6, 4183.6, 4199.7, 4216.4, 4233.2, 4249.8, 4268.3, 4283.7, 4299.6, 4316.9, 4333.4, 4350, 4366.2, 4382.8, 4399.5, 4416.6, 4433, 4449.5, 4466.7, 4483.4, 4500.3, 4516.3, 4533.2, 4549.7, 4566.5, 4583.4, 4599.8, 4616.7, 4633.4, 4650.6, 4668, 4683.8, 4699.5, 4715.8, 4732.5, 4749.3, 4765.8, 4782.5, 4799.1, 4815.8, 4833.7, 4849.9, 4866.9, 4883.2, 4900.4, 4916.8, 4933.2, 4949.8, 4966.5, 4983.5, 4999.8, 5016.6, 5033.5, 5050, 5066.6, 5083.7, 5099.9, 5116.4, 5133.2, 5149.9, 5166.6, 5183.4, 5199.8, 5216.7, 5233.7, 5250.7, 5267.3, 5284.5, 5301.7, 5317, 5335.7, 5350.1, 5366.9, 5383.9, 5400.2, 5417.2, 5433.9, 5450.1, 5467.2, 5483.5, 5500, 5517, 5534.4, 5551.4, 5566.7, 5584.1, 5600.2, 5618.3, 5634.7, 5650.4, 5667.1, 5683.6, 5699.8, 5716.8, 5733.3, 5750, 5766.5, 5783.9, 5800.5, 5817.1, 5833.4, 5849.9, 5866.8, 5883.6, 5904.8, 5920.1, 5932.6, 5949.1, 5965.9, 5982.6, 5999.2, 6016, 6033.3, 6050.2, 6066.6, 6088.8, 6102.9, 6117.6, 6132.6, 6149.2, 6165.9, 6182.7, 6199.2, 6215.9, 6232.8, 6249.3, 6266.2, 6283.4, 6301.6, 6316.9, 6334.3, 6350.1, 6367, 6383.5, 6400.3, 6416.7, 6433.6, 6450.3, 6467.9, 6484.3, 6500.6, 6516.9, 6533.5, 6550.5, 6566.8, 6583.7, 6600.5, 6616.1, 6632.7, 6649.2, 6666.1, 6682.5, 6699.2, 6716, 6734.1, 6749.4, 6766.1, 6782.7, 6799.9, 6817, 6833.7, 6850.2, 6867.8, 6886.4, 6899.9, 6917, 6933.5, 6950.1, 6968, 6983.6, 7000.2, 7016.6, 7033.7, 7049.9, 7067.4, 7083.9, 7100.2, 7116.6, 7134.1, 7150.2, 7166.6, 7183.3, 7200, 7216.7, 7233.4, 7250.3, 7267.6, 7284.5, 7301.1, 7317, 7334, 7350.4, 7527.7, 7537.1, 7552.9, 7570, 7587.3, 7603.2, 7619.6, 7636.7, 7650.7, 7667, 7702.1, 7719.4, 7736.3, 7752.1, 7769.1, 7785.6, 7801.9, 7817.3, 7835.5, 7853.2, 7869.8, 7887, 7905.1, 7921.2, 7935.8, 7949.6, 7967.6, 7984.1, 8001.1, 8016.4, 8033.6, 8050.2, 8067.3, 8083.1, 8100.1, 8116.7, 8133.4, 8150.2, 8166.8, 8184.2, 8200.5, 8217.7, 8234.6, 8250.6, 8267.4, 8283.4, 8300.1, 8316.8, 8333.6, 8350.4, 8367, 8383.8, 8400.3, 8417, 8433.8, 8450.4, 8467, 8482.8, 8501.2, 8516.3, 8532.9, 8549.5, 8566.7, 8583.5, 8600.3, 8617.8, 8633.9, 8650.8, 8667, 8684.3, 8700.1, 8717, 8733.5, 8750.2, 8766.7, 8785.3]","[5.7, 15.7, 16.9, 16.7, 16.4, 16.8, 16.5, 17.8, 21.1, 12.9, 16.5, 15.1, 17, 16.3, 16.6, 16.7, 16.6, 17, 16.9, 16.6, 16.7, 17.6, 16, 16.3, 17.1, 15.9, 16.6, 16.7, 16.5, 17, 17, 16.8, 16.8, 17, 16.1, 16.7, 16.8, 16.6, 18.5, 15.4, 15.9, 17.3, 16.5, 16.6, 16.2, 16.6, 16.7, 17.1, 16.4, 16.5, 17.2, 16.7, 16.9, 16, 16.9, 16.5, 16.8, 16.9, 16.4, 16.9, 16.7, 17.2, 17.4, 15.8, 15.7, 16.3, 16.7, 16.8, 16.5, 16.7, 16.6, 16.7, 17.9, 16.2, 17, 16.3, 17.2, 16.4, 16.4, 16.6, 16.7, 17, 16.3, 16.8, 16.9, 16.5, 16.6, 17.1, 16.2, 16.5, 16.8, 16.7, 16.7, 16.8, 16.4, 16.9, 17, 17, 16.6, 17.2, 17.2, 15.3, 18.7, 14.4, 16.8, 17, 16.3, 17, 16.7, 16.2, 17.1, 16.3, 16.5, 17, 17.4, 17, 15.3, 17.4, 16.1, 18.1, 16.4, 15.7, 16.7, 16.5, 16.2, 17, 16.5, 16.7, 16.5, 17.4, 16.6, 16.6, 16.3, 16.5, 16.9, 16.8, 21.2, 15.3, 12.5, 16.5, 16.8, 16.7, 16.6, 16.8, 17.3, 16.9, 16.4, 22.2, 14.1, 14.7, 15, 16.6, 16.7, 16.8, 16.5, 16.7, 16.9, 16.5, 16.9, 17.2, 18.2, 15.3, 17.4, 15.8, 16.9, 16.5, 16.8, 16.4, 16.9, 16.7, 17.6, 16.4, 16.3, 16.3, 16.6, 17, 16.3, 16.9, 16.8, 15.6, 16.6, 16.5, 16.9, 16.4, 16.7, 16.8, 18.1, 15.3, 16.7, 16.6, 17.2, 17.1, 16.7, 16.5, 17.6, 18.6, 13.5, 17.1, 16.5, 16.6, 17.9, 15.6, 16.6, 16.4, 17.1, 16.2, 17.5, 16.5, 16.3, 16.4, 17.5, 16.1, 16.4, 16.7, 16.7, 16.7, 16.7, 16.9, 17.3, 16.9, 16.6, 15.9, 17, 16.4, 177.3, 9.4, 15.8, 17.1, 17.3, 15.9, 16.4, 17.1, 14, 16.3, 35.1, 17.3, 16.9, 15.8, 17, 16.5, 16.3, 15.4, 18.2, 17.7, 16.6, 17.2, 18.1, 16.1, 14.6, 13.8, 18, 16.5, 17, 15.3, 17.2, 16.6, 17.1, 15.8, 17, 16.6, 16.7, 16.8, 16.6, 17.4, 16.3, 17.2, 16.9, 16, 16.8, 16, 16.7, 16.7, 16.8, 16.8, 16.6, 16.8, 16.5, 16.7, 16.8, 16.6, 16.6, 15.8, 18.4, 15.1, 16.6, 16.6, 17.2, 16.8, 16.8, 17.5, 16.1, 16.9, 16.2, 17.3, 15.8, 16.9, 16.5, 16.7, 16.5, 18.6]",58.0,67.0,60.0,5172.5,[],,,,,,,,,,,,,,,,,,,,,,,,,HRV,HRV_0020,2022-11-30 18:01:36
,wl-html-keyboard-response,2,26021,0.0-2.0-0.0,0.0,3.0,,,,,,,,16519.19999998808,0.0,0,,,,,,,,,,,,,,,,,,,,,,HRV,HRV_0020,2022-11-30 18:01:36
,wl-rdm,3,33085,0.0-3.0-0.0,0.0,4.0,,,,,,,[],,,,0.0,0.0,87.9,0.0,u,0.0,True,1483.0,89.0,60.0,40.0,False,,3000.0,[],"[683, 384]",ColorTask_Demo,,,,,HRV,HRV_0020,2022-11-30 18:01:36
,wl-rdm,4,37751,0.0-3.0-1.0,0.0,5.0,,,,,,,[],,,,0.0,0.0,87.9,1.0,i,1.0,True,557.2000000178814,34.0,60.0,40.0,False,,2000.0,[],"[683, 384]",ColorTask_Demo,,,,,HRV,HRV_0020,2022-11-30 18:01:36
,wl-html-keyboard-response,5,46060,0.0-3.0-2.0,0.0,6.0,,,,,,,,6299.0,0.0,1,,,,,,,,,,,,,,,,,,,,,,HRV,HRV_0020,2022-11-30 18:01:36
,wl-html-keyboard-response,6,55173,0.0-4.0-0.0,0.0,7.0,,,,,,,,7102.300000011921,0.0,0,,,,,,,,,,,,,,,,,,,,,,HRV,HRV_0020,2022-11-30 18:01:36
,wl-html-keyboard-response,7,81709,0.0-5.0-0.0,0.0,8.0,,,,,,,,24528.0,0.0,0,,,,,,,,,,,,,,,,,,,,,,HRV,HRV_0020,2022-11-30 18:01:36
,wl-rdm,8,83867,0.0-6.0-0.0,0.0,9.0,,,,,,,[],,,,,,53.2,1.0,i,1.0,True,827.0,50.0,60.0,40.0,False,,262.04034722988325,[],"[683, 384]",ColorTask,1.0,1.0,,,HRV,HRV_0020,2022-11-30 18:01:36
,wl-rdm,9,86300,0.0-6.1-0.1,0.0,10.0,,,,,,,[],,,,,,53.2,1.0,i,1.0,True,1056.8999999761581,64.0,60.0,40.0,False,,298.17095128039693,[],"[683, 384]",ColorTask,2.0,2.0,,,HRV,HRV_0020,2022-11-30 18:01:36
,wl-rdm,10,88651,0.0-6.2-0.2,0.0,11.0,,,,,,,[],,,,,,62.5,0.0,i,1.0,False,1081.5999999940395,65.0,60.0,40.0,False,,203.18274354612439,[],"[683, 384]",ColorTask,1.0,3.0,,,HRV,HRV_0020,2022-11-30 18:01:36
,wl-rdm,11,91318,0.0-6.3-0.3,0.0,12.0,,,,,,,[],,,,,,50.0,1.0,i,1.0,True,1283.9999999701977,77.0,60.0,40.0,False,,303.6665441560678,[],"[683, 384]",ColorTask,2.0,4.0,,,HRV,HRV_0020,2022-11-30 18:01:36
,wl-rdm,12,94851,0.0-6.4-0.4,0.0,13.0,,,,,,,[],,,,,,73.6,0.0,u,0.0,True,2089.9000000059605,126.0,60.0,40.0,False,,334.54021163722746,[],"[683, 384]",ColorTask,3.0,5.0,,,HRV,HRV_0020,2022-11-30 18:01:36
,wl-rdm,13,97286,0.0-6.5-0.5,0.0,14.0,,,,,,,[],,,,,,62.5,1.0,i,1.0,True,1089.5999999940395,66.0,60.0,40.0,False,,238.7571008466992,[],"[683, 384]",ColorTask,4.0,6.0,,,HRV,HRV_0020,2022-11-30 18:01:36
,wl-rdm,14,100485,0.0-6.6-0.6,0.0,15.0,,,,,,,[],,,,,,56.4,1.0,i,1.0,True,1743.5,105.0,60.0,40.0,False,,351.85539845063073,[],"[683, 384]",ColorTask,5.0,7.0,,,HRV,HRV_0020,2022-11-30 18:01:36
,wl-rdm,15,103652,0.0-6.7-0.7,0.0,16.0,,,,,,,[],,,,,,73.6,1.0,i,1.0,True,1739.7000000178814,105.0,60.0,40.0,False,,326.4485829065792,[],"[683, 384]",ColorTask,6.0,8.0,,,HRV,HRV_0020,2022-11-30 18:01:36
,wl-rdm,16,106568,0.0-6.8-0.8,0.0,17.0,,,,,,,[],,,,,,56.4,0.0,i,1.0,False,1544.9000000357628,93.0,60.0,40.0,False,,301.9725474888739,[],"[683, 384]",ColorTask,5.0,9.0,,,HRV,HRV_0020,2022-11-30 18:01:36
,wl-rdm,17,109817,0.0-6.9-0.9,0.0,18.0,,,,,,,[],,,,,,50.0,0.0,i,1.0,False,1867.199999988079,112.0,60.0,40.0,False,,301.4000379994126,[],"[683, 384]",ColorTask,4.0,10.0,,,HRV,HRV_0020,2022-11-30 18:01:36
,wl-rdm,18,112401,0.0-6.10-0.10,0.0,19.0,,,,,,,[],,,,,,62.5,0.0,u,0.0,True,1188.800000011921,72.0,60.0,40.0,False,,299.75594393730415,[],"[683, 384]",ColorTask,5.0,11.0,,,HRV,HRV_0020,2022-11-30 18:01:36
,wl-rdm,19,115519,0.0-6.11-0.11,0.0,20.0,,,,,,,[],,,,,,50.0,1.0,u,0.0,False,1772.5999999940395,107.0,60.0,40.0,False,,278.76135078190316,[],"[683, 384]",ColorTask,4.0,12.0,,,HRV,HRV_0020,2022-11-30 18:01:36
,wl-rdm,20,118318,0.0-6.12-0.12,0.0,21.0,,,,,,,[],,,,,,87.9,1.0,i,1.0,True,1389.0,84.0,60.0,40.0,False,,301.2688824508272,[],"[683, 384]",ColorTask,5.0,13.0,,,HRV,HRV_0020,2022-11-30 18:01:36
,wl-rdm,21,121086,0.0-6.13-0.13,0.0,22.0,,,,,,,[],,,,,,50.0,0.0,u,0.0,True,1360.5000000298023,82.0,60.0,40.0,False,,337.68236114321354,[],"[683, 384]",ColorTask,6.0,14.0,,,HRV,HRV_0020,2022-11-30 18:01:36
,wl-rdm,22,123686,0.0-6.14-0.14,0.0,23.0,,,,,,,[],,,,,,87.9,1.0,i,1.0,True,1259.800000011921,76.0,60.0,40.0,False,,260.5263603397886,[],"[683, 384]",ColorTask,7.0,15.0,,,HRV,HRV_0020,2022-11-30 18:01:36
,wl-rdm,23,127020,0.0-6.15-0.15,0.0,24.0,,,,,,,[],,,,,,53.2,0.0,i,1.0,False,2044.800000011921,123.0,60.0,40.0,False,,203.5504696485923,[],"[683, 384]",ColorTask,6.0,16.0,,,HRV,HRV_0020,2022-11-30 18:01:36
,wl-rdm,24,130919,0.0-6.16-0.16,0.0,25.0,,,,,,,[],,,,,,62.5,0.0,u,0.0,True,2492.800000011921,150.0,60.0,40.0,False,,310.27989951136783,[],"[683, 384]",ColorTask,7.0,17.0,,,HRV,HRV_0020,2022-11-30 18:01:36
,wl-rdm,25,133736,0.0-6.17-0.17,0.0,26.0,,,,,,,[],,,,,,62.5,1.0,i,1.0,True,1491.699999988079,90.0,60.0,40.0,False,,216.4934688704,[],"[683, 384]",ColorTask,8.0,18.0,,,HRV,HRV_0020,2022-11-30 18:01:36
,wl-rdm,26,136421,0.0-6.18-0.18,0.0,27.0,,,,,,,[],,,,,,73.6,0.0,u,0.0,True,1295.5,78.0,60.0,40.0,False,,316.26400177994674,[],"[683, 384]",ColorTask,9.0,19.0,,,HRV,HRV_0020,2022-11-30 18:01:36
,wl-rdm,27,139022,0.0-6.19-0.19,0.0,28.0,,,,,,,[],,,,,,73.6,0.0,u,0.0,True,1171.0,69.0,60.0,40.0,False,,342.3967283717415,[],"[683, 384]",ColorTask,10.0,20.0,,,HRV,HRV_0020,2022-11-30 18:01:36
,wl-rdm,28,141971,0.0-6.20-0.20,0.0,29.0,,,,,,,[],,,,,,53.2,0.0,u,0.0,True,1558.2999999821186,94.0,60.0,40.0,False,,290.71371447937514,[],"[683, 384]",ColorTask,11.0,21.0,,,HRV,HRV_0020,2022-11-30 18:01:36
,wl-rdm,29,144821,0.0-6.21-0.21,0.0,30.0,,,,,,,[],,,,,,62.5,0.0,u,0.0,True,1453.1000000238419,87.0,60.0,40.0,False,,319.8654306477837,[],"[683, 384]",ColorTask,12.0,22.0,,,HRV,HRV_0020,2022-11-30 18:01:36
,wl-rdm,30,148138,0.0-6.22-0.22,0.0,31.0,,,,,,,[],,,,,,50.0,1.0,u,0.0,False,1987.1000000238419,120.0,60.0,40.0,False,,238.78450728373264,[],"[683, 384]",ColorTask,11.0,23.0,,,HRV,HRV_0020,2022-11-30 18:01:36
,wl-rdm,31,150803,0.0-6.23-0.23,0.0,32.0,,,,,,,[],,,,,,62.5,1.0,i,1.0,True,1207.9000000059605,73.0,60.0,40.0,False,,351.0501842584679,[],"[683, 384]",ColorTask,12.0,24.0,,,HRV,HRV_0020,2022-11-30 18:01:36
,wl-rdm,32,153404,0.0-6.24-0.24,0.0,33.0,,,,,,,[],,,,,,62.5,0.0,u,0.0,True,1275.6000000238419,77.0,60.0,40.0,False,,264.069747783108,[],"[683, 384]",ColorTask,13.0,25.0,,,HRV,HRV_0020,2022-11-30 18:01:36
,wl-rdm,33,156738,0.0-6.25-0.25,0.0,34.0,,,,,,,[],,,,,,53.2,1.0,i,1.0,True,1927.0999999940395,116.0,60.0,40.0,False,,324.831519689954,[],"[683, 384]",ColorTask,14.0,26.0,,,HRV,HRV_0020,2022-11-30 18:01:36
,wl-rdm,34,159885,0.0-6.26-0.26,0.0,35.0,,,,,,,[],,,,,,56.4,1.0,u,0.0,False,1774.0999999940395,107.0,60.0,40.0,False,,271.7974569877781,[],"[683, 384]",ColorTask,13.0,27.0,,,HRV,HRV_0020,2022-11-30 18:01:36
,wl-rdm,35,162721,0.0-6.27-0.27,0.0,36.0,,,,,,,[],,,,,,73.6,0.0,u,0.0,True,1531.8999999761581,92.0,60.0,40.0,False,,229.46147811317869,[],"[683, 384]",ColorTask,14.0,28.0,,,HRV,HRV_0020,2022-11-30 18:01:36
,wl-rdm,36,165720,0.0-6.28-0.28,0.0,37.0,,,,,,,[],,,,,,62.5,1.0,i,1.0,True,1635.7999999821186,98.0,60.0,40.0,False,,272.72213354073716,[],"[683, 384]",ColorTask,15.0,29.0,,,HRV,HRV_0020,2022-11-30 18:01:36
,wl-rdm,37,169154,0.0-6.29-0.29,0.0,38.0,,,,,,,[],,,,,,87.9,0.0,u,0.0,True,2101.699999988079,126.0,60.0,40.0,False,,266.958679772113,[],"[683, 384]",ColorTask,16.0,30.0,,,HRV,HRV_0020,2022-11-30 18:01:36
,wl-rdm,38,172956,0.0-6.30-0.30,0.0,39.0,,,,,,,[],,,,,,53.2,0.0,i,1.0,False,2508.5,151.0,60.0,40.0,False,,225.24674811605632,[],"[683, 384]",ColorTask,15.0,31.0,,,HRV,HRV_0020,2022-11-30 18:01:36
,wl-rdm,39,175454,0.0-6.31-0.31,0.0,40.0,,,,,,,[],,,,,,87.9,1.0,i,1.0,True,1023.2999999821186,62.0,60.0,40.0,False,,390.8704566941087,[],"[683, 384]",ColorTask,16.0,32.0,,,HRV,HRV_0020,2022-11-30 18:01:36
,wl-rdm,40,177905,0.0-6.32-0.32,0.0,41.0,,,,,,,[],,,,,,62.5,0.0,u,0.0,True,1112.699999988079,67.0,60.0,40.0,False,,243.2834902633882,[],"[683, 384]",ColorTask,17.0,33.0,,,HRV,HRV_0020,2022-11-30 18:01:36
,wl-rdm,41,180187,0.0-6.33-0.33,0.0,42.0,,,,,,,[],,,,,,87.9,0.0,u,0.0,True,857.3000000119209,52.0,60.0,40.0,False,,313.3584187395452,[],"[683, 384]",ColorTask,18.0,34.0,,,HRV,HRV_0020,2022-11-30 18:01:36
,wl-rdm,42,182704,0.0-6.34-0.34,0.0,43.0,,,,,,,[],,,,,,56.4,0.0,u,0.0,True,1042.9000000059605,63.0,60.0,40.0,False,,376.3886010095852,[],"[683, 384]",ColorTask,19.0,35.0,,,HRV,HRV_0020,2022-11-30 18:01:36
,wl-rdm,43,186004,0.0-6.35-0.35,0.0,44.0,,,,,,,[],,,,,,53.2,1.0,i,1.0,True,1828.2000000178814,110.0,60.0,40.0,False,,370.58304007626197,[],"[683, 384]",ColorTask,20.0,36.0,,,HRV,HRV_0020,2022-11-30 18:01:36
,wl-rdm,44,188888,0.0-6.36-0.36,0.0,45.0,,,,,,,[],,,,,,62.5,1.0,i,1.0,True,1539.0999999940395,93.0,60.0,40.0,False,,275.5613088534182,[],"[683, 384]",ColorTask,21.0,37.0,,,HRV,HRV_0020,2022-11-30 18:01:36
,wl-rdm,45,191738,0.0-6.37-0.37,0.0,46.0,,,,,,,[],,,,,,73.6,1.0,i,1.0,True,1579.699999988079,95.0,60.0,40.0,False,,216.29182104429827,[],"[683, 384]",ColorTask,22.0,38.0,,,HRV,HRV_0020,2022-11-30 18:01:36
,wl-rdm,46,195421,0.0-6.38-0.38,0.0,47.0,,,,,,,[],,,,,,56.4,1.0,i,1.0,True,2289.7000000178814,138.0,60.0,40.0,False,,311.4591390255794,[],"[683, 384]",ColorTask,23.0,39.0,,,HRV,HRV_0020,2022-11-30 18:01:36
,wl-rdm,47,197940,0.0-6.39-0.39,0.0,48.0,,,,,,,[],,,,,,73.6,1.0,i,1.0,True,1189.5999999940395,72.0,60.0,40.0,False,,216.6721694685452,[],"[683, 384]",ColorTask,24.0,40.0,,,HRV,HRV_0020,2022-11-30 18:01:36
,wl-rdm,48,200772,0.0-6.40-0.40,0.0,49.0,,,,,,,[],,,,,,87.9,1.0,i,1.0,True,1439.2000000178814,87.0,60.0,40.0,False,,302.3621674193636,[],"[683, 384]",ColorTask,25.0,41.0,,,HRV,HRV_0020,2022-11-30 18:01:36
,wl-rdm,49,203806,0.0-6.41-0.41,0.0,50.0,,,,,,,[],,,,,,56.4,0.0,u,0.0,True,1556.0,94.0,60.0,40.0,False,,389.39162538215885,[],"[683, 384]",ColorTask,26.0,42.0,,,HRV,HRV_0020,2022-11-30 18:01:36
,wl-rdm,50,207538,0.0-6.42-0.42,0.0,51.0,,,,,,,[],,,,,,62.5,1.0,i,1.0,True,2325.0000000298023,140.0,60.0,40.0,False,,304.59275722860673,[],"[683, 384]",ColorTask,27.0,43.0,,,HRV,HRV_0020,2022-11-30 18:01:36
,wl-rdm,51,211038,0.0-6.43-0.43,0.0,52.0,,,,,,,[],,,,,,73.6,0.0,u,0.0,True,2139.0999999940395,129.0,60.0,40.0,False,,272.4556965081413,[],"[683, 384]",ColorTask,28.0,44.0,,,HRV,HRV_0020,2022-11-30 18:01:36
,wl-rdm,52,213823,0.0-6.44-0.44,0.0,53.0,,,,,,,[],,,,,,87.9,0.0,u,0.0,True,1427.2999999821186,86.0,60.0,40.0,False,,293.50516860440865,[],"[683, 384]",ColorTask,29.0,45.0,,,HRV,HRV_0020,2022-11-30 18:01:36
,wl-rdm,53,217955,0.0-6.45-0.45,0.0,54.0,,,,,,,[],,,,,,50.0,0.0,i,1.0,False,2840.4000000059605,171.0,60.0,40.0,False,,203.7647440631304,[],"[683, 384]",ColorTask,28.0,46.0,,,HRV,HRV_0020,2022-11-30 18:01:36
,wl-rdm,54,222438,0.0-6.46-0.46,0.0,54.0,,,,,,,[],,,,,,50.0,0.0,i,,,3290.7999999821186,179.0,60.0,40.0,True,RT_timeout ,392.9489205698071,[],"[683, 384]",ColorTask,27.0,47.0,,,HRV,HRV_0020,2022-11-30 18:01:36
,wl-rdm,55,224756,0.0-6.47-0.47,0.0,55.0,,,,,,,[],,,,,,73.6,0.0,u,0.0,True,964.6999999880791,58.0,60.0,40.0,False,,251.02381632391624,[],"[683, 384]",ColorTask,28.0,48.0,,,HRV,HRV_0020,2022-11-30 18:01:36
,wl-rdm,56,227505,0.0-6.48-0.48,0.0,56.0,,,,,,,[],,,,,,56.4,1.0,i,1.0,True,1388.4000000059605,84.0,60.0,40.0,False,,255.06570813553398,[],"[683, 384]",ColorTask,29.0,49.0,,,HRV,HRV_0020,2022-11-30 18:01:36
,wl-rdm,57,230406,0.0-6.49-0.49,0.0,57.0,,,,,,,[],,,,,,50.0,0.0,u,0.0,True,1464.2999999821186,88.0,60.0,40.0,False,,354.9683651137484,[],"[683, 384]",ColorTask,30.0,50.0,,,HRV,HRV_0020,2022-11-30 18:01:36
,wl-rdm,58,233206,0.0-6.50-0.50,0.0,58.0,,,,,,,[],,,,,,62.5,0.0,i,1.0,False,1529.5,92.0,60.0,40.0,False,,215.53791515989838,[],"[683, 384]",ColorTask,29.0,51.0,,,HRV,HRV_0020,2022-11-30 18:01:36
,wl-rdm,59,236489,0.0-6.51-0.51,0.0,59.0,,,,,,,[],,,,,,50.0,1.0,u,0.0,False,1890.7999999821186,114.0,60.0,40.0,False,,330.84774366265935,[],"[683, 384]",ColorTask,28.0,52.0,,,HRV,HRV_0020,2022-11-30 18:01:36
,wl-rdm,60,238939,0.0-6.52-0.52,0.0,60.0,,,,,,,[],,,,,,87.9,1.0,i,1.0,True,1056.3000000417233,64.0,60.0,40.0,False,,304.9015033505572,[],"[683, 384]",ColorTask,29.0,53.0,,,HRV,HRV_0020,2022-11-30 18:01:36
,wl-rdm,61,241556,0.0-6.53-0.53,0.0,61.0,,,,,,,[],,,,,,87.9,0.0,u,0.0,True,1310.199999988079,79.0,60.0,40.0,False,,208.1214338302923,[],"[683, 384]",ColorTask,30.0,54.0,,,HRV,HRV_0020,2022-11-30 18:01:36
,wl-rdm,62,244523,0.0-6.54-0.54,0.0,62.0,,,,,,,[],,,,,,53.2,0.0,i,1.0,False,1664.7000000178814,100.0,60.0,40.0,False,,231.86609889037936,[],"[683, 384]",ColorTask,29.0,55.0,,,HRV,HRV_0020,2022-11-30 18:01:36
,wl-rdm,63,247824,0.0-6.55-0.55,0.0,63.0,,,,,,,[],,,,,,56.4,1.0,u,0.0,False,1938.8000000417233,117.0,60.0,40.0,False,,293.03500599246627,[],"[683, 384]",ColorTask,28.0,56.0,,,HRV,HRV_0020,2022-11-30 18:01:36
,wl-rdm,64,250421,0.0-6.56-0.56,0.0,64.0,,,,,,,[],,,,,,56.4,0.0,i,1.0,False,1286.6000000238419,78.0,60.0,40.0,False,,206.59265898105843,[],"[683, 384]",ColorTask,27.0,57.0,,,HRV,HRV_0020,2022-11-30 18:01:36
,wl-rdm,65,253223,0.0-6.57-0.57,0.0,65.0,,,,,,,[],,,,,,53.2,1.0,u,0.0,False,1485.699999988079,90.0,60.0,40.0,False,,241.76918659823718,[],"[683, 384]",ColorTask,26.0,58.0,,,HRV,HRV_0020,2022-11-30 18:01:36
,wl-rdm,66,255940,0.0-6.58-0.58,0.0,66.0,,,,,,,[],,,,,,87.9,1.0,i,1.0,True,1413.7000000178814,85.0,60.0,40.0,False,,246.92713791755435,[],"[683, 384]",ColorTask,27.0,59.0,,,HRV,HRV_0020,2022-11-30 18:01:36
,wl-rdm,67,258507,0.0-6.59-0.59,0.0,67.0,,,,,,,[],,,,,,50.0,0.0,i,1.0,False,1207.0000000298023,73.0,60.0,40.0,False,,269.8418833819918,[],"[683, 384]",ColorTask,26.0,60.0,,,HRV,HRV_0020,2022-11-30 18:01:36
,wl-rdm,68,260940,0.0-6.60-0.60,0.0,68.0,,,,,,,[],,,,,,50.0,1.0,u,0.0,False,1091.7000000178814,66.0,60.0,40.0,False,,233.8753746593777,[],"[683, 384]",ColorTask,25.0,61.0,,,HRV,HRV_0020,2022-11-30 18:01:36
,wl-rdm,69,263857,0.0-6.61-0.61,0.0,69.0,,,,,,,[],,,,,,56.4,1.0,i,1.0,True,1604.0,97.0,60.0,40.0,False,,224.12732458498903,[],"[683, 384]",ColorTask,26.0,62.0,,,HRV,HRV_0020,2022-11-30 18:01:36
,wl-rdm,70,266490,0.0-6.62-0.62,0.0,70.0,,,,,,,[],,,,,,56.4,0.0,i,1.0,False,1341.800000011921,81.0,60.0,40.0,False,,204.32490911929784,[],"[683, 384]",ColorTask,25.0,63.0,,,HRV,HRV_0020,2022-11-30 18:01:36
,wl-rdm,71,269723,0.0-6.63-0.63,0.0,71.0,,,,,,,[],,,,,,62.5,1.0,i,1.0,True,1762.0,106.0,60.0,40.0,False,,384.78736223521764,[],"[683, 384]",ColorTask,26.0,64.0,,,HRV,HRV_0020,2022-11-30 18:01:36
,wl-rdm,72,272491,0.0-6.64-0.64,0.0,72.0,,,,,,,[],,,,,,50.0,0.0,u,0.0,True,1443.199999988079,87.0,60.0,40.0,False,,251.58684573642262,[],"[683, 384]",ColorTask,27.0,65.0,,,HRV,HRV_0020,2022-11-30 18:01:36
,wl-rdm,73,275123,0.0-6.65-0.65,0.0,73.0,,,,,,,[],,,,,,87.9,0.0,u,0.0,True,1328.1000000238419,80.0,60.0,40.0,False,,207.54624573437383,[],"[683, 384]",ColorTask,28.0,66.0,,,HRV,HRV_0020,2022-11-30 18:01:36
,wl-rdm,74,278008,0.0-6.66-0.66,0.0,74.0,,,,,,,[],,,,,,50.0,0.0,u,0.0,True,1544.8999999761581,93.0,60.0,40.0,False,,269.1222113464787,[],"[683, 384]",ColorTask,29.0,67.0,,,HRV,HRV_0020,2022-11-30 18:01:36
,wl-rdm,75,280840,0.0-6.67-0.67,0.0,75.0,,,,,,,[],,,,,,73.6,0.0,u,0.0,True,1513.9000000059605,91.0,60.0,40.0,False,,221.30070139145866,[],"[683, 384]",ColorTask,30.0,68.0,,,HRV,HRV_0020,2022-11-30 18:01:36
,wl-rdm,76,283708,0.0-6.68-0.68,0.0,76.0,,,,,,,[],,,,,,50.0,1.0,u,0.0,False,1457.6000000238419,88.0,60.0,40.0,False,,322.1130824064468,[],"[683, 384]",ColorTask,29.0,69.0,,,HRV,HRV_0020,2022-11-30 18:01:36
,wl-rdm,77,286542,0.0-6.69-0.69,0.0,77.0,,,,,,,[],,,,,,56.4,0.0,u,0.0,True,1449.699999988079,87.0,60.0,40.0,False,,303.1595256323713,[],"[683, 384]",ColorTask,30.0,70.0,,,HRV,HRV_0020,2022-11-30 18:01:36
,wl-rdm,78,289425,0.0-6.70-0.70,0.0,78.0,,,,,,,[],,,,,,62.5,0.0,i,1.0,False,1582.699999988079,95.0,60.0,40.0,False,,209.8131464214887,[],"[683, 384]",ColorTask,29.0,71.0,,,HRV,HRV_0020,2022-11-30 18:01:36
,wl-rdm,79,292207,0.0-6.71-0.71,0.0,79.0,,,,,,,[],,,,,,87.9,0.0,u,0.0,True,1350.4999999701977,81.0,60.0,40.0,False,,334.74463129868957,[],"[683, 384]",ColorTask,30.0,72.0,,,HRV,HRV_0020,2022-11-30 18:01:36
,wl-rdm,80,294824,0.0-6.72-0.72,0.0,80.0,,,,,,,[],,,,,,56.4,1.0,i,1.0,True,1183.199999988079,71.0,60.0,40.0,False,,362.2736680989465,[],"[683, 384]",ColorTask,31.0,73.0,,,HRV,HRV_0020,2022-11-30 18:01:36
,wl-rdm,81,297074,0.0-6.73-0.73,0.0,81.0,,,,,,,[],,,,,,87.9,1.0,i,1.0,True,895.2000000178814,54.0,60.0,40.0,False,,279.0018089831418,[],"[683, 384]",ColorTask,32.0,74.0,,,HRV,HRV_0020,2022-11-30 18:01:36
,wl-rdm,82,299590,0.0-6.74-0.74,0.0,82.0,,,,,,,[],,,,,,53.2,0.0,u,0.0,True,1140.7999999821186,69.0,60.0,40.0,False,,297.45616866656684,[],"[683, 384]",ColorTask,33.0,75.0,,,HRV,HRV_0020,2022-11-30 18:01:36
,wl-rdm,83,301991,0.0-6.75-0.75,0.0,83.0,,,,,,,[],,,,,,62.5,0.0,u,0.0,True,1059.4000000059605,64.0,60.0,40.0,False,,275.80439506643245,[],"[683, 384]",ColorTask,34.0,76.0,,,HRV,HRV_0020,2022-11-30 18:01:36
,wl-rdm,84,304924,0.0-6.76-0.76,0.0,84.0,,,,,,,[],,,,,,50.0,0.0,u,0.0,True,1510.5,91.0,60.0,40.0,False,,337.40298572469464,[],"[683, 384]",ColorTask,35.0,77.0,,,HRV,HRV_0020,2022-11-30 18:01:36
,wl-rdm,85,307758,0.0-6.77-0.77,0.0,85.0,,,,,,,[],,,,,,56.4,0.0,u,0.0,True,1511.300000011921,91.0,60.0,40.0,False,,256.83046776381184,[],"[683, 384]",ColorTask,36.0,78.0,,,HRV,HRV_0020,2022-11-30 18:01:36
,wl-rdm,86,310324,0.0-6.78-0.78,0.0,86.0,,,,,,,[],,,,,,73.6,0.0,u,0.0,True,1247.0999999940395,75.0,60.0,40.0,False,,248.47710536918362,[],"[683, 384]",ColorTask,37.0,79.0,,,HRV,HRV_0020,2022-11-30 18:01:36
,wl-rdm,87,313559,0.0-6.79-0.79,0.0,87.0,,,,,,,[],,,,,,53.2,1.0,u,0.0,False,1925.0999999940395,116.0,60.0,40.0,False,,223.1854628825522,[],"[683, 384]",ColorTask,36.0,80.0,,,HRV,HRV_0020,2022-11-30 18:01:36
,wl-rdm,88,315924,0.0-6.80-0.80,0.0,88.0,,,,,,,[],,,,,,87.9,0.0,u,0.0,True,1022.5,62.0,60.0,40.0,False,,254.86019469273702,[],"[683, 384]",ColorTask,37.0,81.0,,,HRV,HRV_0020,2022-11-30 18:01:36
,wl-rdm,89,318841,0.0-6.81-0.81,0.0,89.0,,,,,,,[],,,,,,53.2,1.0,u,0.0,False,1463.699999988079,88.0,60.0,40.0,False,,393.6116024555515,[],"[683, 384]",ColorTask,36.0,82.0,,,HRV,HRV_0020,2022-11-30 18:01:36
,wl-rdm,90,321491,0.0-6.82-0.82,0.0,90.0,,,,,,,[],,,,,,87.9,0.0,u,0.0,True,1249.5,75.0,60.0,40.0,False,,311.4008824418916,[],"[683, 384]",ColorTask,37.0,83.0,,,HRV,HRV_0020,2022-11-30 18:01:36
,wl-rdm,91,324358,0.0-6.83-0.83,0.0,91.0,,,,,,,[],,,,,,56.4,1.0,i,1.0,True,1411.800000011921,85.0,60.0,40.0,False,,367.1484001304382,[],"[683, 384]",ColorTask,38.0,84.0,,,HRV,HRV_0020,2022-11-30 18:01:36
,wl-rdm,92,326656,0.0-6.84-0.84,0.0,92.0,,,,,,,[],,,,,,87.9,1.0,i,1.0,True,865.8999999761581,52.0,60.0,40.0,False,,338.9527726866538,[],"[683, 384]",ColorTask,39.0,85.0,,,HRV,HRV_0020,2022-11-30 18:01:36
,wl-rdm,93,329108,0.0-6.85-0.85,0.0,93.0,,,,,,,[],,,,,,73.6,1.0,i,1.0,True,1013.4000000059605,61.0,60.0,40.0,False,,371.79595825544175,[],"[683, 384]",ColorTask,40.0,86.0,,,HRV,HRV_0020,2022-11-30 18:01:36
,wl-rdm,94,332041,0.0-6.86-0.86,0.0,94.0,,,,,,,[],,,,,,53.2,1.0,u,0.0,False,1590.9000000357628,96.0,60.0,40.0,False,,260.41325298469735,[],"[683, 384]",ColorTask,39.0,87.0,,,HRV,HRV_0020,2022-11-30 18:01:36
,wl-rdm,95,334858,0.0-6.87-0.87,0.0,95.0,,,,,,,[],,,,,,50.0,1.0,i,1.0,True,1407.5000000298023,85.0,60.0,40.0,False,,346.1085696369971,[],"[683, 384]",ColorTask,40.0,88.0,,,HRV,HRV_0020,2022-11-30 18:01:36
,wl-rdm,96,337156,0.0-6.88-0.88,0.0,96.0,,,,,,,[],,,,,,73.6,1.0,i,1.0,True,871.0999999940395,53.0,60.0,40.0,False,,318.3746531939354,[],"[683, 384]",ColorTask,41.0,89.0,,,HRV,HRV_0020,2022-11-30 18:01:36
,wl-rdm,97,339525,0.0-6.89-0.89,0.0,97.0,,,,,,,[],,,,,,56.4,0.0,u,0.0,True,1072.5999999940395,65.0,60.0,40.0,False,,217.3685587774012,[],"[683, 384]",ColorTask,42.0,90.0,,,HRV,HRV_0020,2022-11-30 18:01:36
,wl-rdm,98,341992,0.0-6.90-0.90,0.0,98.0,,,,,,,[],,,,,,73.6,1.0,i,1.0,True,1123.3999999761581,68.0,60.0,40.0,False,,257.31175472129024,[],"[683, 384]",ColorTask,43.0,91.0,,,HRV,HRV_0020,2022-11-30 18:01:36
,wl-rdm,99,344592,0.0-6.91-0.91,0.0,99.0,,,,,,,[],,,,,,73.6,1.0,i,1.0,True,1286.3999999761581,78.0,60.0,40.0,False,,222.60978136816385,[],"[683, 384]",ColorTask,44.0,92.0,,,HRV,HRV_0020,2022-11-30 18:01:36
,wl-rdm,100,347425,0.0-6.92-0.92,0.0,100.0,,,,,,,[],,,,,,62.5,1.0,u,0.0,False,1531.300000011921,92.0,60.0,40.0,False,,222.3672547789447,[],"[683, 384]",ColorTask,43.0,93.0,,,HRV,HRV_0020,2022-11-30 18:01:36
,wl-rdm,101,350642,0.0-6.93-0.93,0.0,101.0,,,,,,,[],,,,,,56.4,0.0,u,0.0,True,1873.0,113.0,60.0,40.0,False,,249.43702916700101,[],"[683, 384]",ColorTask,44.0,94.0,,,HRV,HRV_0020,2022-11-30 18:01:36
,wl-rdm,102,353226,0.0-6.94-0.94,0.0,102.0,,,,,,,[],,,,,,62.5,1.0,i,1.0,True,1299.9000000059605,78.0,60.0,40.0,False,,203.86784344685935,[],"[683, 384]",ColorTask,45.0,95.0,,,HRV,HRV_0020,2022-11-30 18:01:36
,wl-rdm,103,356308,0.0-6.95-0.95,0.0,103.0,,,,,,,[],,,,,,56.4,1.0,i,1.0,True,1605.3000000417233,97.0,60.0,40.0,False,,397.6468677841701,[],"[683, 384]",ColorTask,46.0,96.0,,,HRV,HRV_0020,2022-11-30 18:01:36
,wl-rdm,104,358775,0.0-6.96-0.96,0.0,104.0,,,,,,,[],,,,,,87.9,0.0,u,0.0,True,1008.5999999940395,61.0,60.0,40.0,False,,358.4476841335668,[],"[683, 384]",ColorTask,47.0,97.0,,,HRV,HRV_0020,2022-11-30 18:01:36
,wl-rdm,105,361209,0.0-6.97-0.97,0.0,105.0,,,,,,,[],,,,,,50.0,1.0,i,1.0,True,1089.0999999940395,66.0,60.0,40.0,False,,250.5320564626549,[],"[683, 384]",ColorTask,48.0,98.0,,,HRV,HRV_0020,2022-11-30 18:01:36
,wl-rdm,106,364276,0.0-6.98-0.98,0.0,106.0,,,,,,,[],,,,,,53.2,0.0,u,0.0,True,1751.0,105.0,60.0,40.0,False,,229.50941462674763,[],"[683, 384]",ColorTask,49.0,99.0,,,HRV,HRV_0020,2022-11-30 18:01:36
,wl-rdm,107,367160,0.0-6.99-0.99,0.0,107.0,,,,,,,[],,,,,,53.2,0.0,u,0.0,True,1541.1000000238419,93.0,60.0,40.0,False,,244.6019571976107,[],"[683, 384]",ColorTask,50.0,100.0,,,HRV,HRV_0020,2022-11-30 18:01:36
,wl-rdm,108,369794,0.0-6.100-0.100,0.0,108.0,,,,,,,[],,,,,,50.0,0.0,u,0.0,True,1231.2999999821186,74.0,60.0,40.0,False,,321.6421605466985,[],"[683, 384]",ColorTask,51.0,101.0,,,HRV,HRV_0020,2022-11-30 18:01:36
,wl-rdm,109,372660,0.0-6.101-0.101,0.0,109.0,,,,,,,[],,,,,,73.6,1.0,i,1.0,True,1558.1000000238419,94.0,60.0,40.0,False,,215.66053553730004,[],"[683, 384]",ColorTask,52.0,102.0,,,HRV,HRV_0020,2022-11-30 18:01:36
,wl-rdm,110,375060,0.0-6.102-0.102,0.0,110.0,,,,,,,[],,,,,,73.6,1.0,i,1.0,True,1043.8999999761581,63.0,60.0,40.0,False,,280.14380239153786,[],"[683, 384]",ColorTask,53.0,103.0,,,HRV,HRV_0020,2022-11-30 18:01:36
,wl-rdm,111,378243,0.0-6.103-0.103,0.0,111.0,,,,,,,[],,,,,,50.0,1.0,u,0.0,False,1774.0000000298023,107.0,60.0,40.0,False,,312.32129174742454,[],"[683, 384]",ColorTask,52.0,104.0,,,HRV,HRV_0020,2022-11-30 18:01:36
,wl-rdm,112,380744,0.0-6.104-0.104,0.0,112.0,,,,,,,[],,,,,,73.6,0.0,u,0.0,True,1184.4999999701977,71.0,60.0,40.0,False,,237.7282953682266,[],"[683, 384]",ColorTask,53.0,105.0,,,HRV,HRV_0020,2022-11-30 18:01:36
,wl-rdm,113,383658,0.0-6.105-0.105,0.0,113.0,,,,,,,[],,,,,,53.2,0.0,u,0.0,True,1555.0999999940395,94.0,60.0,40.0,False,,276.885435384115,[],"[683, 384]",ColorTask,54.0,106.0,,,HRV,HRV_0020,2022-11-30 18:01:36
,wl-rdm,114,386744,0.0-6.106-0.106,0.0,114.0,,,,,,,[],,,,,,53.2,1.0,i,1.0,True,1788.9999999701977,108.0,60.0,40.0,False,,228.4884386147967,[],"[683, 384]",ColorTask,55.0,107.0,,,HRV,HRV_0020,2022-11-30 18:01:36
,wl-rdm,115,389243,0.0-6.107-0.107,0.0,115.0,,,,,,,[],,,,,,87.9,1.0,i,1.0,True,1026.0000000298023,62.0,60.0,40.0,False,,367.6954089056733,[],"[683, 384]",ColorTask,56.0,108.0,,,HRV,HRV_0020,2022-11-30 18:01:36
,wl-rdm,116,392447,0.0-6.108-0.108,0.0,116.0,,,,,,,[],,,,,,53.2,0.0,u,0.0,True,1791.300000011921,108.0,60.0,40.0,False,,339.8535104190722,[],"[683, 384]",ColorTask,57.0,109.0,,,HRV,HRV_0020,2022-11-30 18:01:36
,wl-html-keyboard-response,117,412877,0.0-7.0-0.0,1.0,117.0,,,,,,,,18403.40000000596,1.0,0,,,,,,,,,,,,,,,,,,,,,,HRV,HRV_0020,2022-11-30 18:01:36
,wl-rdm,118,416060,0.0-8.0-0.0,1.0,118.0,,,,,,,[],,,,,,62.5,1.0,u,0.0,False,1801.2000000178814,108.0,60.0,40.0,False,,308.6289135531274,[],"[683, 384]",ColorTask,56.0,1.0,,,HRV,HRV_0020,2022-11-30 18:01:36
,wl-rdm,119,418744,0.0-8.1-0.1,1.0,119.0,,,,,,,[],,,,,,53.2,0.0,u,0.0,True,1226.4999999701977,74.0,60.0,40.0,False,,372.15187599383876,[],"[683, 384]",ColorTask,57.0,2.0,,,HRV,HRV_0020,2022-11-30 18:01:36
,wl-rdm,120,421477,0.0-8.2-0.2,1.0,120.0,,,,,,,[],,,,,,56.4,0.0,u,0.0,True,1274.0999999940395,77.0,60.0,40.0,False,,370.15975329388965,[],"[683, 384]",ColorTask,58.0,3.0,,,HRV,HRV_0020,2022-11-30 18:01:36
,wl-rdm,121,423661,0.0-8.3-0.3,1.0,121.0,,,,,,,[],,,,,,73.6,1.0,i,1.0,True,889.7999999821186,54.0,60.0,40.0,False,,212.69481031437547,[],"[683, 384]",ColorTask,59.0,4.0,,,HRV,HRV_0020,2022-11-30 18:01:36
,wl-rdm,122,426077,0.0-8.4-0.4,1.0,122.0,,,,,,,[],,,,,,50.0,0.0,i,1.0,False,1089.5999999940395,66.0,60.0,40.0,False,,243.36592786113889,[],"[683, 384]",ColorTask,58.0,5.0,,,HRV,HRV_0020,2022-11-30 18:01:36
,wl-rdm,123,429345,0.0-8.5-0.5,1.0,123.0,,,,,,,[],,,,,,62.5,1.0,i,1.0,True,1794.3999999761581,108.0,60.0,40.0,False,,392.46795099756594,[],"[683, 384]",ColorTask,59.0,6.0,,,HRV,HRV_0020,2022-11-30 18:01:36
,wl-rdm,124,431611,0.0-8.6-0.6,1.0,124.0,,,,,,,[],,,,,,87.9,0.0,u,0.0,True,790.0000000298023,48.0,60.0,40.0,False,,380.45314933569034,[],"[683, 384]",ColorTask,60.0,7.0,,,HRV,HRV_0020,2022-11-30 18:01:36
,wl-rdm,125,434044,0.0-8.7-0.7,1.0,125.0,,,,,,,[],,,,,,62.5,1.0,u,0.0,False,1029.0999999940395,62.0,60.0,40.0,False,,328.19292001527026,[],"[683, 384]",ColorTask,59.0,8.0,,,HRV,HRV_0020,2022-11-30 18:01:36
,wl-rdm,126,436361,0.0-8.8-0.8,1.0,126.0,,,,,,,[],,,,,,56.4,1.0,i,1.0,True,1013.8999999761581,61.0,60.0,40.0,False,,230.8029819966254,[],"[683, 384]",ColorTask,60.0,9.0,,,HRV,HRV_0020,2022-11-30 18:01:36
,wl-rdm,127,439161,0.0-8.9-0.9,1.0,127.0,,,,,,,[],,,,,,50.0,0.0,u,0.0,True,1365.5,82.0,60.0,40.0,False,,359.58381624123007,[],"[683, 384]",ColorTask,61.0,10.0,,,HRV,HRV_0020,2022-11-30 18:01:36
,wl-rdm,128,441528,0.0-8.10-0.10,1.0,128.0,,,,,,,[],,,,,,73.6,1.0,i,1.0,True,980.1000000238419,59.0,60.0,40.0,False,,312.7983013135436,[],"[683, 384]",ColorTask,62.0,11.0,,,HRV,HRV_0020,2022-11-30 18:01:36
,wl-rdm,129,444011,0.0-8.11-0.11,1.0,129.0,,,,,,,[],,,,,,53.2,0.0,u,0.0,True,1123.9000000059605,68.0,60.0,40.0,False,,268.3076403640303,[],"[683, 384]",ColorTask,63.0,12.0,,,HRV,HRV_0020,2022-11-30 18:01:36
,wl-rdm,130,446478,0.0-8.12-0.12,1.0,130.0,,,,,,,[],,,,,,73.6,0.0,u,0.0,True,1032.0999999940395,62.0,60.0,40.0,False,,352.24034819125313,[],"[683, 384]",ColorTask,64.0,13.0,,,HRV,HRV_0020,2022-11-30 18:01:36
,wl-rdm,131,448544,0.0-8.13-0.13,1.0,131.0,,,,,,,[],,,,,,87.9,0.0,u,0.0,True,780.7999999821186,47.0,60.0,40.0,False,,214.10506717146984,[],"[683, 384]",ColorTask,65.0,14.0,,,HRV,HRV_0020,2022-11-30 18:01:36
,wl-rdm,132,451362,0.0-8.14-0.14,1.0,132.0,,,,,,,[],,,,,,73.6,1.0,u,0.0,False,1392.0999999940395,80.0,60.0,40.0,False,,367.18811695826173,[],"[683, 384]",ColorTask,64.0,15.0,,,HRV,HRV_0020,2022-11-30 18:01:36
,wl-rdm,133,453678,0.0-8.15-0.15,1.0,133.0,,,,,,,[],,,,,,87.9,1.0,i,1.0,True,912.7000000178814,55.0,60.0,40.0,False,,319.355960946369,[],"[683, 384]",ColorTask,65.0,16.0,,,HRV,HRV_0020,2022-11-30 18:01:36
,wl-rdm,134,456378,0.0-8.16-0.16,1.0,134.0,,,,,,,[],,,,,,62.5,1.0,i,1.0,True,1279.0999999642372,77.0,60.0,40.0,False,,342.956957087997,[],"[683, 384]",ColorTask,66.0,17.0,,,HRV,HRV_0020,2022-11-30 18:01:36
,wl-rdm,135,458462,0.0-8.17-0.17,1.0,135.0,,,,,,,[],,,,,,87.9,0.0,u,0.0,True,813.4000000059605,49.0,60.0,40.0,False,,202.07603700754115,[],"[683, 384]",ColorTask,67.0,18.0,,,HRV,HRV_0020,2022-11-30 18:01:36
,wl-rdm,136,461093,0.0-8.18-0.18,1.0,136.0,,,,,,,[],,,,,,56.4,1.0,u,0.0,False,1187.4999999701977,72.0,60.0,40.0,False,,364.77445940422933,[],"[683, 384]",ColorTask,66.0,19.0,,,HRV,HRV_0020,2022-11-30 18:01:36
,wl-rdm,137,464411,0.0-8.19-0.19,1.0,137.0,,,,,,,[],,,,,,53.2,1.0,i,1.0,True,2028.699999988079,122.0,60.0,40.0,False,,209.69105482004463,[],"[683, 384]",ColorTask,67.0,20.0,,,HRV,HRV_0020,2022-11-30 18:01:36
,wl-rdm,138,466962,0.0-8.20-0.20,1.0,138.0,,,,,,,[],,,,,,73.6,1.0,i,1.0,True,1241.0999999940395,75.0,60.0,40.0,False,,220.79540999296893,[],"[683, 384]",ColorTask,68.0,21.0,,,HRV,HRV_0020,2022-11-30 18:01:36
,wl-rdm,139,470295,0.0-8.21-0.21,1.0,139.0,,,,,,,[],,,,,,56.4,0.0,u,0.0,True,1923.8999999761581,116.0,60.0,40.0,False,,323.46916496478906,[],"[683, 384]",ColorTask,69.0,22.0,,,HRV,HRV_0020,2022-11-30 18:01:36
,wl-rdm,140,473245,0.0-8.22-0.22,1.0,140.0,,,,,,,[],,,,,,56.4,0.0,i,1.0,False,1496.5999999940395,90.0,60.0,40.0,False,,351.3148093752267,[],"[683, 384]",ColorTask,68.0,23.0,,,HRV,HRV_0020,2022-11-30 18:01:36
,wl-rdm,141,476429,0.0-8.23-0.23,1.0,141.0,,,,,,,[],,,,,,56.4,0.0,u,0.0,True,1728.199999988079,104.0,60.0,40.0,False,,393.7628435302712,[],"[683, 384]",ColorTask,69.0,24.0,,,HRV,HRV_0020,2022-11-30 18:01:36
,wl-rdm,142,479545,0.0-8.24-0.24,1.0,142.0,,,,,,,[],,,,,,73.6,1.0,i,1.0,True,1722.2000000178814,104.0,60.0,40.0,False,,331.64958147239224,[],"[683, 384]",ColorTask,70.0,25.0,,,HRV,HRV_0020,2022-11-30 18:01:36
,wl-rdm,143,482511,0.0-8.25-0.25,1.0,143.0,,,,,,,[],,,,,,53.2,0.0,u,0.0,True,1676.5999999940395,101.0,60.0,40.0,False,,211.11883890906856,[],"[683, 384]",ColorTask,71.0,26.0,,,HRV,HRV_0020,2022-11-30 18:01:36
,wl-rdm,144,485612,0.0-8.26-0.26,1.0,144.0,,,,,,,[],,,,,,50.0,1.0,u,0.0,False,1695.7999999821186,102.0,60.0,40.0,False,,342.5629025906517,[],"[683, 384]",ColorTask,70.0,27.0,,,HRV,HRV_0020,2022-11-30 18:01:36
,wl-rdm,145,488711,0.0-8.27-0.27,1.0,145.0,,,,,,,[],,,,,,53.2,0.0,u,0.0,True,1689.9000000059605,102.0,60.0,40.0,False,,301.23103135653616,[],"[683, 384]",ColorTask,71.0,28.0,,,HRV,HRV_0020,2022-11-30 18:01:36
,wl-rdm,146,491512,0.0-8.28-0.28,1.0,146.0,,,,,,,[],,,,,,53.2,1.0,u,0.0,False,1498.199999988079,90.0,60.0,40.0,False,,222.02844778182327,[],"[683, 384]",ColorTask,70.0,29.0,,,HRV,HRV_0020,2022-11-30 18:01:36
,wl-rdm,147,493679,0.0-8.29-0.29,1.0,147.0,,,,,,,[],,,,,,87.9,1.0,i,1.0,True,784.8000000119209,48.0,60.0,40.0,False,,306.91827845886473,[],"[683, 384]",ColorTask,71.0,30.0,,,HRV,HRV_0020,2022-11-30 18:01:36
,wl-rdm,148,495679,0.0-8.30-0.30,1.0,148.0,,,,,,,[],,,,,,87.9,1.0,i,1.0,True,666.8000000119209,40.0,60.0,40.0,False,,239.71943965360003,[],"[683, 384]",ColorTask,72.0,31.0,,,HRV,HRV_0020,2022-11-30 18:01:36
,wl-rdm,149,498346,0.0-8.31-0.31,1.0,149.0,,,,,,,[],,,,,,50.0,0.0,u,0.0,True,1364.300000011921,82.0,60.0,40.0,False,,219.43069475156253,[],"[683, 384]",ColorTask,73.0,32.0,,,HRV,HRV_0020,2022-11-30 18:01:36
,wl-rdm,150,501347,0.0-8.32-0.32,1.0,150.0,,,,,,,[],,,,,,53.2,0.0,u,0.0,True,1602.5,97.0,60.0,40.0,False,,306.63094349669143,[],"[683, 384]",ColorTask,74.0,33.0,,,HRV,HRV_0020,2022-11-30 18:01:36
,wl-rdm,151,503996,0.0-8.33-0.33,1.0,151.0,,,,,,,[],,,,,,50.0,1.0,u,0.0,False,1273.9000000357628,77.0,60.0,40.0,False,,286.206529166335,[],"[683, 384]",ColorTask,73.0,34.0,,,HRV,HRV_0020,2022-11-30 18:01:36
,wl-rdm,152,506996,0.0-8.34-0.34,1.0,152.0,,,,,,,[],,,,,,56.4,1.0,i,1.0,True,1627.800000011921,98.0,60.0,40.0,False,,267.82266604894704,[],"[683, 384]",ColorTask,74.0,35.0,,,HRV,HRV_0020,2022-11-30 18:01:36
,wl-rdm,153,509530,0.0-8.35-0.35,1.0,153.0,,,,,,,[],,,,,,62.5,0.0,u,0.0,True,1203.199999988079,73.0,60.0,40.0,False,,255.54896913419748,[],"[683, 384]",ColorTask,75.0,36.0,,,HRV,HRV_0020,2022-11-30 18:01:36
,wl-rdm,154,511996,0.0-8.36-0.36,1.0,154.0,,,,,,,[],,,,,,56.4,0.0,u,0.0,True,1100.9000000357628,66.0,60.0,40.0,False,,297.8153241187691,[],"[683, 384]",ColorTask,76.0,37.0,,,HRV,HRV_0020,2022-11-30 18:01:36
,wl-rdm,155,514630,0.0-8.37-0.37,1.0,155.0,,,,,,,[],,,,,,50.0,0.0,u,0.0,True,1342.9000000357628,81.0,60.0,40.0,False,,203.4318704360214,[],"[683, 384]",ColorTask,77.0,38.0,,,HRV,HRV_0020,2022-11-30 18:01:36
,wl-rdm,156,517213,0.0-8.38-0.38,1.0,156.0,,,,,,,[],,,,,,62.5,0.0,u,0.0,True,1101.800000011921,66.0,60.0,40.0,False,,398.9007882876084,[],"[683, 384]",ColorTask,78.0,39.0,,,HRV,HRV_0020,2022-11-30 18:01:36
,wl-rdm,157,519996,0.0-8.39-0.39,1.0,157.0,,,,,,,[],,,,,,62.5,1.0,i,1.0,True,1442.699999988079,87.0,60.0,40.0,False,,251.09647576312045,[],"[683, 384]",ColorTask,79.0,40.0,,,HRV,HRV_0020,2022-11-30 18:01:36
,wl-rdm,158,522497,0.0-8.40-0.40,1.0,158.0,,,,,,,[],,,,,,50.0,1.0,i,1.0,True,1078.3999999761581,65.0,60.0,40.0,False,,356.65828392415403,[],"[683, 384]",ColorTask,80.0,41.0,,,HRV,HRV_0020,2022-11-30 18:01:36
,wl-rdm,159,525380,0.0-8.41-0.41,1.0,159.0,,,,,,,[],,,,,,50.0,1.0,u,0.0,False,1540.9000000059605,93.0,60.0,40.0,False,,263.4135787710244,[],"[683, 384]",ColorTask,79.0,42.0,,,HRV,HRV_0020,2022-11-30 18:01:36
,wl-rdm,160,527531,0.0-8.42-0.42,1.0,160.0,,,,,,,[],,,,,,87.9,1.0,i,1.0,True,857.4000000357628,52.0,60.0,40.0,False,,202.7802899377175,[],"[683, 384]",ColorTask,80.0,43.0,,,HRV,HRV_0020,2022-11-30 18:01:36
,wl-rdm,161,530281,0.0-8.43-0.43,1.0,161.0,,,,,,,[],,,,,,53.2,1.0,i,1.0,True,1458.5000000298023,88.0,60.0,40.0,False,,204.29867138579942,[],"[683, 384]",ColorTask,81.0,44.0,,,HRV,HRV_0020,2022-11-30 18:01:36
,wl-rdm,162,532480,0.0-8.44-0.44,1.0,162.0,,,,,,,[],,,,,,73.6,0.0,u,0.0,True,842.1999999880791,51.0,60.0,40.0,False,,277.7531004966846,[],"[683, 384]",ColorTask,82.0,45.0,,,HRV,HRV_0020,2022-11-30 18:01:36
,wl-rdm,163,535331,0.0-8.45-0.45,1.0,163.0,,,,,,,[],,,,,,87.9,1.0,u,0.0,False,1424.0,86.0,60.0,40.0,False,,318.6533818093533,[],"[683, 384]",ColorTask,81.0,46.0,,,HRV,HRV_0020,2022-11-30 18:01:36
,wl-rdm,164,538030,0.0-8.46-0.46,1.0,164.0,,,,,,,[],,,,,,53.2,1.0,i,1.0,True,1323.7999999821186,80.0,60.0,40.0,False,,273.02513152818005,[],"[683, 384]",ColorTask,82.0,47.0,,,HRV,HRV_0020,2022-11-30 18:01:36
,wl-rdm,165,540431,0.0-8.47-0.47,1.0,165.0,,,,,,,[],,,,,,73.6,0.0,u,0.0,True,1023.3000000417233,62.0,60.0,40.0,False,,286.9498324847708,[],"[683, 384]",ColorTask,83.0,48.0,,,HRV,HRV_0020,2022-11-30 18:01:36
,wl-rdm,166,542714,0.0-8.48-0.48,1.0,166.0,,,,,,,[],,,,,,87.9,1.0,i,1.0,True,956.1999999880791,58.0,60.0,40.0,False,,245.73681476511425,[],"[683, 384]",ColorTask,84.0,49.0,,,HRV,HRV_0020,2022-11-30 18:01:36
,wl-rdm,167,544881,0.0-8.49-0.49,1.0,167.0,,,,,,,[],,,,,,87.9,0.0,u,0.0,True,879.5999999940395,53.0,60.0,40.0,False,,210.75065176258036,[],"[683, 384]",ColorTask,85.0,50.0,,,HRV,HRV_0020,2022-11-30 18:01:36
,wl-rdm,168,547431,0.0-8.50-0.50,1.0,168.0,,,,,,,[],,,,,,62.5,0.0,u,0.0,True,1164.8999999761581,70.0,60.0,40.0,False,,314.0127604099911,[],"[683, 384]",ColorTask,86.0,51.0,,,HRV,HRV_0020,2022-11-30 18:01:36
,wl-rdm,169,549731,0.0-8.51-0.51,1.0,169.0,,,,,,,[],,,,,,73.6,1.0,i,1.0,True,908.5000000298023,55.0,60.0,40.0,False,,293.3799741568889,[],"[683, 384]",ColorTask,87.0,52.0,,,HRV,HRV_0020,2022-11-30 18:01:36
,wl-rdm,170,552247,0.0-8.52-0.52,1.0,170.0,,,,,,,[],,,,,,50.0,0.0,u,0.0,True,1132.0,68.0,60.0,40.0,False,,298.73822611854985,[],"[683, 384]",ColorTask,88.0,53.0,,,HRV,HRV_0020,2022-11-30 18:01:36
,wl-rdm,171,554848,0.0-8.53-0.53,1.0,171.0,,,,,,,[],,,,,,62.5,0.0,u,0.0,True,1241.9000000059605,75.0,60.0,40.0,False,,296.1390334333332,[],"[683, 384]",ColorTask,89.0,54.0,,,HRV,HRV_0020,2022-11-30 18:01:36
,wl-rdm,172,557230,0.0-8.54-0.54,1.0,172.0,,,,,,,[],,,,,,87.9,1.0,i,1.0,True,974.1999999880791,59.0,60.0,40.0,False,,302.49404677789636,[],"[683, 384]",ColorTask,90.0,55.0,,,HRV,HRV_0020,2022-11-30 18:01:36
,wl-rdm,173,559482,0.0-8.55-0.55,1.0,173.0,,,,,,,[],,,,,,73.6,1.0,i,1.0,True,925.2000000178814,56.0,60.0,40.0,False,,243.85174132158937,[],"[683, 384]",ColorTask,91.0,56.0,,,HRV,HRV_0020,2022-11-30 18:01:36
,wl-rdm,174,561631,0.0-8.56-0.56,1.0,174.0,,,,,,,[],,,,,,87.9,0.0,u,0.0,True,726.1999999880791,44.0,60.0,40.0,False,,321.2274502309584,[],"[683, 384]",ColorTask,92.0,57.0,,,HRV,HRV_0020,2022-11-30 18:01:36
,wl-rdm,175,563831,0.0-8.57-0.57,1.0,175.0,,,,,,,[],,,,,,50.0,1.0,i,1.0,True,889.9000000357628,54.0,60.0,40.0,False,,201.648611121813,[],"[683, 384]",ColorTask,93.0,58.0,,,HRV,HRV_0020,2022-11-30 18:01:36
,wl-rdm,176,565997,0.0-8.58-0.58,1.0,176.0,,,,,,,[],,,,,,87.9,0.0,u,0.0,True,866.0999999940395,52.0,60.0,40.0,False,,231.0342805796546,[],"[683, 384]",ColorTask,94.0,59.0,,,HRV,HRV_0020,2022-11-30 18:01:36
,wl-rdm,177,568286,0.0-8.59-0.59,1.0,177.0,,,,,,,[],,,,,,50.0,0.0,u,0.0,True,923.4000000357628,56.0,60.0,40.0,False,,270.9375751725643,[],"[683, 384]",ColorTask,95.0,60.0,,,HRV,HRV_0020,2022-11-30 18:01:36
,wl-rdm,178,571167,0.0-8.60-0.60,1.0,178.0,,,,,,,[],,,,,,56.4,1.0,u,0.0,False,1568.300000011921,94.0,60.0,40.0,False,,217.4665594576895,[],"[683, 384]",ColorTask,94.0,61.0,,,HRV,HRV_0020,2022-11-30 18:01:36
,wl-rdm,179,573465,0.0-8.61-0.61,1.0,179.0,,,,,,,[],,,,,,73.6,0.0,u,0.0,True,925.0,56.0,60.0,40.0,False,,278.6314607665584,[],"[683, 384]",ColorTask,95.0,62.0,,,HRV,HRV_0020,2022-11-30 18:01:36
,wl-rdm,180,575748,0.0-8.62-0.62,1.0,180.0,,,,,,,[],,,,,,87.9,0.0,u,0.0,True,844.3999999761581,51.0,60.0,40.0,False,,365.36299642544793,[],"[683, 384]",ColorTask,96.0,63.0,,,HRV,HRV_0020,2022-11-30 18:01:36
,wl-rdm,181,578016,0.0-8.63-0.63,1.0,181.0,,,,,,,[],,,,,,62.5,0.0,u,0.0,True,894.7999999821186,53.0,60.0,40.0,False,,299.4151977324034,[],"[683, 384]",ColorTask,97.0,64.0,,,HRV,HRV_0020,2022-11-30 18:01:36
,wl-rdm,182,580850,0.0-8.64-0.64,1.0,182.0,,,,,,,[],,,,,,56.4,1.0,u,0.0,False,1458.8999999761581,88.0,60.0,40.0,False,,293.1162994920862,[],"[683, 384]",ColorTask,96.0,65.0,,,HRV,HRV_0020,2022-11-30 18:01:36
,wl-rdm,183,582982,0.0-8.65-0.65,1.0,183.0,,,,,,,[],,,,,,87.9,0.0,u,0.0,True,807.8999999761581,49.0,60.0,40.0,False,,239.9023156556246,[],"[683, 384]",ColorTask,97.0,66.0,,,HRV,HRV_0020,2022-11-30 18:01:36
,wl-rdm,184,585716,0.0-8.66-0.66,1.0,184.0,,,,,,,[],,,,,,53.2,0.0,u,0.0,True,1389.0000000298023,84.0,60.0,40.0,False,,244.19778159746429,[],"[683, 384]",ColorTask,98.0,67.0,,,HRV,HRV_0020,2022-11-30 18:01:36
,wl-rdm,185,588200,0.0-8.67-0.67,1.0,185.0,,,,,,,[],,,,,,56.4,1.0,i,1.0,True,1141.7999999821186,69.0,60.0,40.0,False,,241.79505123419867,[],"[683, 384]",ColorTask,99.0,68.0,,,HRV,HRV_0020,2022-11-30 18:01:36
,wl-rdm,186,591183,0.0-8.68-0.68,1.0,186.0,,,,,,,[],,,,,,62.5,0.0,i,1.0,False,1585.6000000238419,95.0,60.0,40.0,False,,303.20901605179034,[],"[683, 384]",ColorTask,98.0,69.0,,,HRV,HRV_0020,2022-11-30 18:01:36
,wl-rdm,187,593616,0.0-8.69-0.69,1.0,187.0,,,,,,,[],,,,,,53.2,1.0,i,1.0,True,1060.0999999642372,64.0,60.0,40.0,False,,281.9919739660048,[],"[683, 384]",ColorTask,99.0,70.0,,,HRV,HRV_0020,2022-11-30 18:01:36
,wl-rdm,188,596566,0.0-8.70-0.70,1.0,188.0,,,,,,,[],,,,,,50.0,1.0,u,0.0,False,1640.5999999940395,99.0,60.0,40.0,False,,237.93156866913085,[],"[683, 384]",ColorTask,98.0,71.0,,,HRV,HRV_0020,2022-11-30 18:01:36
,wl-rdm,189,599566,0.0-8.71-0.71,1.0,189.0,,,,,,,[],,,,,,56.4,1.0,u,0.0,False,1705.1000000238419,103.0,60.0,40.0,False,,226.55761439768193,[],"[683, 384]",ColorTask,97.0,72.0,,,HRV,HRV_0020,2022-11-30 18:01:36
,wl-rdm,190,601815,0.0-8.72-0.72,1.0,190.0,,,,,,,[],,,,,,87.9,1.0,i,1.0,True,800.0999999940395,46.0,60.0,40.0,False,,378.82624049883583,[],"[683, 384]",ColorTask,98.0,73.0,,,HRV,HRV_0020,2022-11-30 18:01:36
,wl-rdm,191,603817,0.0-8.73-0.73,1.0,191.0,,,,,,,[],,,,,,87.9,1.0,i,1.0,True,640.4000000059605,39.0,60.0,40.0,False,,265.59031481368214,[],"[683, 384]",ColorTask,99.0,74.0,,,HRV,HRV_0020,2022-11-30 18:01:36
,wl-rdm,192,606332,0.0-8.74-0.74,1.0,192.0,,,,,,,[],,,,,,73.6,0.0,i,1.0,False,1171.5000000298023,71.0,60.0,40.0,False,,256.4869875310159,[],"[683, 384]",ColorTask,98.0,75.0,,,HRV,HRV_0020,2022-11-30 18:01:36
,wl-rdm,193,609516,0.0-8.75-0.75,1.0,193.0,,,,,,,[],,,,,,62.5,1.0,i,1.0,True,1847.699999988079,111.0,60.0,40.0,False,,237.33685857282939,[],"[683, 384]",ColorTask,99.0,76.0,,,HRV,HRV_0020,2022-11-30 18:01:36
,wl-rdm,194,612015,0.0-8.76-0.76,1.0,194.0,,,,,,,[],,,,,,62.5,0.0,u,0.0,True,1193.300000011921,72.0,60.0,40.0,False,,216.9647838244238,[],"[683, 384]",ColorTask,100.0,77.0,,,HRV,HRV_0020,2022-11-30 18:01:36
,wl-rdm,195,614732,0.0-8.77-0.77,1.0,195.0,,,,,,,[],,,,,,53.2,0.0,u,0.0,True,1372.9000000357628,83.0,60.0,40.0,False,,236.8975442968083,[],"[683, 384]",ColorTask,101.0,78.0,,,HRV,HRV_0020,2022-11-30 18:01:36
,wl-rdm,196,617249,0.0-8.78-0.78,1.0,196.0,,,,,,,[],,,,,,53.2,0.0,u,0.0,True,1206.4999999701977,73.0,60.0,40.0,False,,215.93540786015097,[],"[683, 384]",ColorTask,102.0,79.0,,,HRV,HRV_0020,2022-11-30 18:01:36
,wl-rdm,197,620066,0.0-8.79-0.79,1.0,197.0,,,,,,,[],,,,,,56.4,0.0,u,0.0,True,1474.9000000059605,89.0,60.0,40.0,False,,259.10892731694065,[],"[683, 384]",ColorTask,103.0,80.0,,,HRV,HRV_0020,2022-11-30 18:01:36
,wl-rdm,198,622166,0.0-8.80-0.80,1.0,198.0,,,,,,,[],,,,,,73.6,0.0,u,0.0,True,759.0,46.0,60.0,40.0,False,,235.70740640494154,[],"[683, 384]",ColorTask,104.0,81.0,,,HRV,HRV_0020,2022-11-30 18:01:36
,wl-rdm,199,624533,0.0-8.81-0.81,1.0,199.0,,,,,,,[],,,,,,62.5,1.0,u,0.0,False,1077.5999999940395,65.0,60.0,40.0,False,,227.8554166505833,[],"[683, 384]",ColorTask,103.0,82.0,,,HRV,HRV_0020,2022-11-30 18:01:36
,wl-rdm,200,627249,0.0-8.82-0.82,1.0,200.0,,,,,,,[],,,,,,62.5,0.0,i,1.0,False,1280.699999988079,77.0,60.0,40.0,False,,356.2446909630763,[],"[683, 384]",ColorTask,102.0,83.0,,,HRV,HRV_0020,2022-11-30 18:01:36
,wl-rdm,201,629498,0.0-8.83-0.83,1.0,201.0,,,,,,,[],,,,,,73.6,0.0,u,0.0,True,841.3000000417233,51.0,60.0,40.0,False,,300.5287540457688,[],"[683, 384]",ColorTask,103.0,84.0,,,HRV,HRV_0020,2022-11-30 18:01:36
,wl-rdm,202,632450,0.0-8.84-0.84,1.0,202.0,,,,,,,[],,,,,,56.4,1.0,i,1.0,True,1583.800000011921,95.0,60.0,40.0,False,,287.2092999134377,[],"[683, 384]",ColorTask,104.0,85.0,,,HRV,HRV_0020,2022-11-30 18:01:36
,wl-rdm,203,634567,0.0-8.85-0.85,1.0,203.0,,,,,,,[],,,,,,73.6,0.0,u,0.0,True,720.8000000119209,44.0,60.0,40.0,False,,300.60204956085386,[],"[683, 384]",ColorTask,105.0,86.0,,,HRV,HRV_0020,2022-11-30 18:01:36
,wl-rdm,204,637333,0.0-8.86-0.86,1.0,204.0,,,,,,,[],,,,,,50.0,1.0,u,0.0,False,1385.0,83.0,60.0,40.0,False,,295.16565842708195,[],"[683, 384]",ColorTask,104.0,87.0,,,HRV,HRV_0020,2022-11-30 18:01:36
,wl-rdm,205,640299,0.0-8.87-0.87,1.0,205.0,,,,,,,[],,,,,,62.5,1.0,i,1.0,True,1657.800000011921,100.0,60.0,40.0,False,,246.1364587967512,[],"[683, 384]",ColorTask,105.0,88.0,,,HRV,HRV_0020,2022-11-30 18:01:36
,wl-rdm,206,643435,0.0-8.88-0.88,1.0,206.0,,,,,,,[],,,,,,53.2,1.0,i,1.0,True,1764.7000000178814,106.0,60.0,40.0,False,,278.13490521569884,[],"[683, 384]",ColorTask,106.0,89.0,,,HRV,HRV_0020,2022-11-30 18:01:36
,wl-rdm,207,646000,0.0-8.89-0.89,1.0,207.0,,,,,,,[],,,,,,53.2,1.0,i,1.0,True,1207.5000000298023,73.0,60.0,40.0,False,,271.5955477163653,[],"[683, 384]",ColorTask,107.0,90.0,,,HRV,HRV_0020,2022-11-30 18:01:36
,wl-rdm,208,648683,0.0-8.90-0.90,1.0,208.0,,,,,,,[],,,,,,50.0,1.0,u,0.0,False,1227.7999999821186,74.0,60.0,40.0,False,,361.35378469619644,[],"[683, 384]",ColorTask,106.0,91.0,,,HRV,HRV_0020,2022-11-30 18:01:36
,wl-rdm,209,651217,0.0-8.91-0.91,1.0,209.0,,,,,,,[],,,,,,50.0,0.0,u,0.0,True,1212.800000011921,73.0,60.0,40.0,False,,243.38782481975298,[],"[683, 384]",ColorTask,107.0,92.0,,,HRV,HRV_0020,2022-11-30 18:01:36
,wl-rdm,210,653467,0.0-8.92-0.92,1.0,210.0,,,,,,,[],,,,,,50.0,0.0,u,0.0,True,858.3000000119209,52.0,60.0,40.0,False,,302.1128487415868,[],"[683, 384]",ColorTask,108.0,93.0,,,HRV,HRV_0020,2022-11-30 18:01:36
,wl-rdm,211,655535,0.0-8.93-0.93,1.0,211.0,,,,,,,[],,,,,,87.9,0.0,u,0.0,True,735.5,44.0,60.0,40.0,False,,265.139455307991,[],"[683, 384]",ColorTask,109.0,94.0,,,HRV,HRV_0020,2022-11-30 18:01:36
,wl-rdm,212,657849,0.0-8.94-0.94,1.0,212.0,,,,,,,[],,,,,,73.6,1.0,i,1.0,True,1001.4000000059605,60.0,60.0,40.0,False,,227.09307293340123,[],"[683, 384]",ColorTask,110.0,95.0,,,HRV,HRV_0020,2022-11-30 18:01:36
,wl-rdm,213,660467,0.0-8.95-0.95,1.0,213.0,,,,,,,[],,,,,,53.2,1.0,u,0.0,False,1267.300000011921,76.0,60.0,40.0,False,,279.9356741049983,[],"[683, 384]",ColorTask,109.0,96.0,,,HRV,HRV_0020,2022-11-30 18:01:36
,wl-rdm,214,663916,0.0-8.96-0.96,1.0,214.0,,,,,,,[],,,,,,62.5,1.0,u,0.0,False,2079.199999988079,125.0,60.0,40.0,False,,273.58471613835235,[],"[683, 384]",ColorTask,108.0,97.0,,,HRV,HRV_0020,2022-11-30 18:01:36
,wl-rdm,215,666617,0.0-8.97-0.97,1.0,215.0,,,,,,,[],,,,,,50.0,0.0,u,0.0,True,1289.5000000298023,78.0,60.0,40.0,False,,341.6083382083982,[],"[683, 384]",ColorTask,109.0,98.0,,,HRV,HRV_0020,2022-11-30 18:01:36
,wl-rdm,216,668734,0.0-8.98-0.98,1.0,216.0,,,,,,,[],,,,,,56.4,1.0,i,1.0,True,657.3000000119209,40.0,60.0,40.0,False,,381.2445399318742,[],"[683, 384]",ColorTask,110.0,99.0,,,HRV,HRV_0020,2022-11-30 18:01:36
,wl-rdm,217,671217,0.0-8.99-0.99,1.0,217.0,,,,,,,[],,,,,,56.4,0.0,i,1.0,False,1141.1000000238419,69.0,60.0,40.0,False,,259.5279082839026,[],"[683, 384]",ColorTask,109.0,100.0,,,HRV,HRV_0020,2022-11-30 18:01:36
,wl-rdm,218,673736,0.0-8.100-0.100,1.0,218.0,,,,,,,[],,,,,,62.5,0.0,u,0.0,True,1208.199999988079,73.0,60.0,40.0,False,,235.254322128821,[],"[683, 384]",ColorTask,110.0,101.0,,,HRV,HRV_0020,2022-11-30 18:01:36
,wl-rdm,219,676100,0.0-8.101-0.101,1.0,219.0,,,,,,,[],,,,,,73.6,0.0,u,0.0,True,1057.8999999761581,64.0,60.0,40.0,False,,204.37383930376674,[],"[683, 384]",ColorTask,111.0,102.0,,,HRV,HRV_0020,2022-11-30 18:01:36
,wl-rdm,220,678684,0.0-8.102-0.102,1.0,220.0,,,,,,,[],,,,,,53.2,0.0,u,0.0,True,1157.3999999761581,70.0,60.0,40.0,False,,363.46760404638064,[],"[683, 384]",ColorTask,112.0,103.0,,,HRV,HRV_0020,2022-11-30 18:01:36
,wl-rdm,221,681335,0.0-8.103-0.103,1.0,221.0,,,,,,,[],,,,,,56.4,0.0,u,0.0,True,1356.9000000357628,82.0,60.0,40.0,False,,212.4511932832331,[],"[683, 384]",ColorTask,113.0,104.0,,,HRV,HRV_0020,2022-11-30 18:01:36
,wl-rdm,222,684734,0.0-8.104-0.104,1.0,222.0,,,,,,,[],,,,,,50.0,1.0,i,1.0,True,2113.5,127.0,60.0,40.0,False,,200.54649104733866,[],"[683, 384]",ColorTask,114.0,105.0,,,HRV,HRV_0020,2022-11-30 18:01:36
,wl-rdm,223,687083,0.0-8.105-0.105,1.0,223.0,,,,,,,[],,,,,,56.4,0.0,i,1.0,False,943.5000000298023,57.0,60.0,40.0,False,,316.56870063845963,[],"[683, 384]",ColorTask,113.0,106.0,,,HRV,HRV_0020,2022-11-30 18:01:36
,wl-rdm,224,689650,0.0-8.106-0.106,1.0,224.0,,,,,,,[],,,,,,53.2,1.0,i,1.0,True,1272.0999999940395,77.0,60.0,40.0,False,,203.15309666786268,[],"[683, 384]",ColorTask,114.0,107.0,,,HRV,HRV_0020,2022-11-30 18:01:36
,wl-rdm,225,691784,0.0-8.107-0.107,1.0,225.0,,,,,,,[],,,,,,73.6,1.0,i,1.0,True,776.5999999940395,47.0,60.0,40.0,False,,260.05579845250975,[],"[683, 384]",ColorTask,115.0,108.0,,,HRV,HRV_0020,2022-11-30 18:01:36
,wl-html-button-response,226,694643,0.0-9.0-0.0,,,,,,,,,,2844.0,,0,,,,,,,,,,,,,,,,,,,,<h3>End of this session. Thank you!</h3><br>,['Close window'],HRV,HRV_0020,2022-11-30 18:01:36
