trialN,stimuli,trialStartTime,trialStartTime_UNIX,stimulus1,stimulus2,stimulus1Bid,stimulus2Bid,delta,selected,rt,rt_UNIX,rt_perfnow,receivedResponse,rsp,trialEndTime,trialDuration,trialEndTime_UNIX,trialDuration_UNIX,exp,subjectId,date
0,"[{'imgObject': {}, 'id': 'bagel and cc', 'src': '/static/foodstim60/bagel and cc.jpg', 'key': 'u', 'origWidth': 410, 'origHeight': 410, 'width': 410, 'height': 410, 'widthPercent': 0.45, 'rescaleHeight': False, 'trialN': 0, 'loaded': True, 'loadedTime': 2827.2999999821186, 'positionName': 'LEFT', 'positionCoords': [281.2, 245], 'bid': 7.47}, {'imgObject': {}, 'id': 'mango', 'src': '/static/foodstim60/mango.jpg', 'key': 'i', 'origWidth': 411, 'origHeight': 411, 'width': 411, 'height': 411, 'widthPercent': 0.45, 'rescaleHeight': False, 'trialN': 0, 'loaded': True, 'loadedTime': 2827.4000000059605, 'positionName': 'RIGHT', 'positionCoords': [748.8, 244.5], 'bid': 0.08}]",2824.0999999940395,1669830343163,bagel and cc,mango,7.47,0.08,-7.39,bagel and cc,783.5,791,791.3000000119209,True,u,4118.5,1294.4000000059605,1669830344457,1294,HRV,HRV_0031,2022-11-30 17:50:09
1,"[{'imgObject': {}, 'id': 'omelette', 'src': '/static/foodstim60/omelette.jpg', 'key': 'u', 'origWidth': 410, 'origHeight': 409, 'width': 410, 'height': 409, 'widthPercent': 0.45, 'rescaleHeight': False, 'trialN': 1, 'loaded': True, 'loadedTime': 4122.799999982119, 'positionName': 'LEFT', 'positionCoords': [281.2, 245.5], 'bid': 0.09}, {'imgObject': {}, 'id': 'raisin bran w milk', 'src': '/static/foodstim60/raisin bran w milk.jpg', 'key': 'i', 'origWidth': 411, 'origHeight': 411, 'width': 411, 'height': 411, 'widthPercent': 0.45, 'rescaleHeight': False, 'trialN': 1, 'loaded': True, 'loadedTime': 4123.0999999940395, 'positionName': 'RIGHT', 'positionCoords': [748.8, 244.5], 'bid': 0.09}]",4119.5,1669830344458,omelette,raisin bran w milk,0.09,0.09,0.0,raisin bran w milk,1105.5999999940395,1111,1110.5,True,i,5735.0,1615.5,1669830346074,1616,HRV,HRV_0031,2022-11-30 17:50:09
2,"[{'imgObject': {}, 'id': 'hashbrowns', 'src': '/static/foodstim60/hashbrowns.jpg', 'key': 'u', 'origWidth': 411, 'origHeight': 410, 'width': 411, 'height': 410, 'widthPercent': 0.45, 'rescaleHeight': False, 'trialN': 2, 'loaded': True, 'loadedTime': 5739.0999999940395, 'positionName': 'LEFT', 'positionCoords': [280.2, 245], 'bid': 0.16}, {'imgObject': {}, 'id': 'cantaloupe', 'src': '/static/foodstim60/cantaloupe.jpg', 'key': 'i', 'origWidth': 409, 'origHeight': 409, 'width': 409, 'height': 409, 'widthPercent': 0.45, 'rescaleHeight': False, 'trialN': 2, 'loaded': True, 'loadedTime': 5739.4000000059605, 'positionName': 'RIGHT', 'positionCoords': [748.8, 245.5], 'bid': 0.15}]",5736.0,1669830346075,hashbrowns,cantaloupe,0.16,0.15,-0.010000000000000009,hashbrowns,1493.0,1497,1497.7999999821186,True,u,7738.699999988079,2002.699999988079,1669830348077,2002,HRV,HRV_0031,2022-11-30 17:50:09
3,"[{'imgObject': {}, 'id': 'veggieswithdip', 'src': '/static/foodstim60/veggieswithdip.jpg', 'key': 'u', 'origWidth': 409, 'origHeight': 409, 'width': 409, 'height': 409, 'widthPercent': 0.45, 'rescaleHeight': False, 'trialN': 3, 'loaded': True, 'loadedTime': 7740.5999999940395, 'positionName': 'LEFT', 'positionCoords': [282.2, 245.5], 'bid': 0.15}, {'imgObject': {}, 'id': 'omelette', 'src': '/static/foodstim60/omelette.jpg', 'key': 'i', 'origWidth': 410, 'origHeight': 409, 'width': 410, 'height': 409, 'widthPercent': 0.45, 'rescaleHeight': False, 'trialN': 3, 'loaded': True, 'loadedTime': 7740.799999982119, 'positionName': 'RIGHT', 'positionCoords': [748.8, 245.5], 'bid': 0.09}]",7739.199999988079,1669830348078,veggieswithdip,omelette,0.15,0.09,-0.06,omelette,1454.7000000178814,1460,1459.7000000178814,True,i,9704.0,1964.800000011921,1669830350043,1965,HRV,HRV_0031,2022-11-30 17:50:09
4,"[{'imgObject': {}, 'id': 'cocktailshrimp', 'src': '/static/foodstim60/cocktailshrimp.jpg', 'key': 'u', 'origWidth': 410, 'origHeight': 410, 'width': 410, 'height': 410, 'widthPercent': 0.45, 'rescaleHeight': False, 'trialN': 4, 'loaded': True, 'loadedTime': 9708, 'positionName': 'LEFT', 'positionCoords': [281.2, 245], 'bid': 0.02}, {'imgObject': {}, 'id': 'salad w chicken', 'src': '/static/foodstim60/salad w chicken.jpg', 'key': 'i', 'origWidth': 411, 'origHeight': 411, 'width': 411, 'height': 411, 'widthPercent': 0.45, 'rescaleHeight': False, 'trialN': 4, 'loaded': True, 'loadedTime': 9708.299999982119, 'positionName': 'RIGHT', 'positionCoords': [748.8, 244.5], 'bid': 0}]",9705.0,1669830350044,cocktailshrimp,salad w chicken,0.02,0.0,-0.02,salad w chicken,1143.0999999940395,1147,1147.5999999940395,True,i,11357.699999988079,1652.699999988079,1669830351696,1652,HRV,HRV_0031,2022-11-30 17:50:09
5,"[{'imgObject': {}, 'id': 'lox', 'src': '/static/foodstim60/lox.jpg', 'key': 'u', 'origWidth': 410, 'origHeight': 411, 'width': 410, 'height': 411, 'widthPercent': 0.45, 'rescaleHeight': False, 'trialN': 5, 'loaded': True, 'loadedTime': 11361.5, 'positionName': 'LEFT', 'positionCoords': [281.2, 244.5], 'bid': 0.06}, {'imgObject': {}, 'id': 'sushi w_condiments', 'src': '/static/foodstim60/sushi w_condiments.jpg', 'key': 'i', 'origWidth': 410, 'origHeight': 410, 'width': 410, 'height': 410, 'widthPercent': 0.45, 'rescaleHeight': False, 'trialN': 5, 'loaded': True, 'loadedTime': 11361.90000000596, 'positionName': 'RIGHT', 'positionCoords': [748.8, 245], 'bid': 0.06}]",11358.699999988079,1669830351697,lox,sushi w_condiments,0.06,0.06,0.0,sushi w_condiments,1254.300000011921,1259,1259.2000000178814,True,i,13120.299999982119,1761.5999999940395,1669830353459,1762,HRV,HRV_0031,2022-11-30 17:50:09
6,"[{'imgObject': {}, 'id': 'bagel plain', 'src': '/static/foodstim60/bagel plain.jpg', 'key': 'u', 'origWidth': 410, 'origHeight': 410, 'width': 410, 'height': 410, 'widthPercent': 0.45, 'rescaleHeight': False, 'trialN': 6, 'loaded': True, 'loadedTime': 13121.40000000596, 'positionName': 'LEFT', 'positionCoords': [281.2, 245], 'bid': 8.5}, {'imgObject': {}, 'id': 'burger', 'src': '/static/foodstim60/burger.jpg', 'key': 'i', 'origWidth': 409, 'origHeight': 409, 'width': 409, 'height': 409, 'widthPercent': 0.45, 'rescaleHeight': False, 'trialN': 6, 'loaded': True, 'loadedTime': 13121.59999999404, 'positionName': 'RIGHT', 'positionCoords': [748.8, 245.5], 'bid': 1.02}]",13120.699999988079,1669830353459,bagel plain,burger,8.5,1.02,-7.48,bagel plain,801.5,807,806.5,True,u,14428.09999999404,1307.4000000059605,1669830354767,1308,HRV,HRV_0031,2022-11-30 17:50:09
7,"[{'imgObject': {}, 'id': 'fruitsalad', 'src': '/static/foodstim60/fruitsalad.jpg', 'key': 'u', 'origWidth': 410, 'origHeight': 410, 'width': 410, 'height': 410, 'widthPercent': 0.45, 'rescaleHeight': False, 'trialN': 7, 'loaded': True, 'loadedTime': 14432, 'positionName': 'LEFT', 'positionCoords': [281.2, 245], 'bid': 1.09}, {'imgObject': {}, 'id': 'salad w chicken', 'src': '/static/foodstim60/salad w chicken.jpg', 'key': 'i', 'origWidth': 411, 'origHeight': 411, 'width': 411, 'height': 411, 'widthPercent': 0.45, 'rescaleHeight': False, 'trialN': 7, 'loaded': True, 'loadedTime': 14432.40000000596, 'positionName': 'RIGHT', 'positionCoords': [748.8, 244.5], 'bid': 0}]",14429.09999999404,1669830354768,fruitsalad,salad w chicken,1.09,0.0,-1.09,fruitsalad,1230.4000000059605,1235,1235.0999999940395,True,u,16169.299999982119,1740.199999988079,1669830356508,1740,HRV,HRV_0031,2022-11-30 17:50:09
8,"[{'imgObject': {}, 'id': 'hotdog w must', 'src': '/static/foodstim60/hotdog w must.jpg', 'key': 'u', 'origWidth': 409, 'origHeight': 409, 'width': 409, 'height': 409, 'widthPercent': 0.45, 'rescaleHeight': False, 'trialN': 8, 'loaded': True, 'loadedTime': 16173.5, 'positionName': 'LEFT', 'positionCoords': [282.2, 245.5], 'bid': 8.72}, {'imgObject': {}, 'id': 'rigatoni and sauce', 'src': '/static/foodstim60/rigatoni and sauce.jpg', 'key': 'i', 'origWidth': 410, 'origHeight': 411, 'width': 410, 'height': 411, 'widthPercent': 0.45, 'rescaleHeight': False, 'trialN': 8, 'loaded': True, 'loadedTime': 16173.799999982119, 'positionName': 'RIGHT', 'positionCoords': [748.8, 244.5], 'bid': 9.9}]",16170.199999988079,1669830356509,hotdog w must,rigatoni and sauce,8.72,9.9,1.1799999999999997,rigatoni and sauce,1100.0,1103,1103.2000000178814,True,i,17776.59999999404,1606.4000000059605,1669830358115,1606,HRV,HRV_0031,2022-11-30 17:50:09
9,"[{'imgObject': {}, 'id': 'veggieswithdip', 'src': '/static/foodstim60/veggieswithdip.jpg', 'key': 'u', 'origWidth': 409, 'origHeight': 409, 'width': 409, 'height': 409, 'widthPercent': 0.45, 'rescaleHeight': False, 'trialN': 9, 'loaded': True, 'loadedTime': 17780.79999998212, 'positionName': 'LEFT', 'positionCoords': [282.2, 245.5], 'bid': 0.15}, {'imgObject': {}, 'id': 'Tribe humus pita', 'src': '/static/foodstim60/Tribe humus pita.jpg', 'key': 'i', 'origWidth': 411, 'origHeight': 411, 'width': 411, 'height': 411, 'widthPercent': 0.45, 'rescaleHeight': False, 'trialN': 9, 'loaded': True, 'loadedTime': 17781.09999999404, 'positionName': 'RIGHT', 'positionCoords': [748.8, 244.5], 'bid': 0.09}]",17777.69999998808,1669830358116,veggieswithdip,Tribe humus pita,0.15,0.09,-0.06,Tribe humus pita,1293.2000000178814,1298,1298.300000011921,True,i,19580.90000000596,1803.2000000178814,1669830359919,1803,HRV,HRV_0031,2022-11-30 17:50:09
10,"[{'imgObject': {}, 'id': 'eggs', 'src': '/static/foodstim60/eggs.jpg', 'key': 'u', 'origWidth': 409, 'origHeight': 409, 'width': 409, 'height': 409, 'widthPercent': 0.45, 'rescaleHeight': False, 'trialN': 10, 'loaded': True, 'loadedTime': 19584.69999998808, 'positionName': 'LEFT', 'positionCoords': [282.2, 245.5], 'bid': 0.09}, {'imgObject': {}, 'id': 'salmon', 'src': '/static/foodstim60/salmon.jpg', 'key': 'i', 'origWidth': 410, 'origHeight': 409, 'width': 410, 'height': 409, 'widthPercent': 0.45, 'rescaleHeight': False, 'trialN': 10, 'loaded': True, 'loadedTime': 19585, 'positionName': 'RIGHT', 'positionCoords': [748.8, 245.5], 'bid': 0}]",19581.79999998212,1669830359920,eggs,salmon,0.09,0.0,-0.09,eggs,1344.6000000238419,1352,1351.5,True,u,21435.90000000596,1854.1000000238419,1669830361774,1854,HRV,HRV_0031,2022-11-30 17:50:09
11,"[{'imgObject': {}, 'id': 'banana', 'src': '/static/foodstim60/banana.jpg', 'key': 'u', 'origWidth': 410, 'origHeight': 410, 'width': 410, 'height': 410, 'widthPercent': 0.45, 'rescaleHeight': False, 'trialN': 11, 'loaded': True, 'loadedTime': 21439.19999998808, 'positionName': 'LEFT', 'positionCoords': [281.2, 245], 'bid': 4.8100000000000005}, {'imgObject': {}, 'id': 'Grapes', 'src': '/static/foodstim60/Grapes.jpg', 'key': 'i', 'origWidth': 411, 'origHeight': 411, 'width': 411, 'height': 411, 'widthPercent': 0.45, 'rescaleHeight': False, 'trialN': 11, 'loaded': True, 'loadedTime': 21439.40000000596, 'positionName': 'RIGHT', 'positionCoords': [748.8, 244.5], 'bid': 1.68}]",21436.69999998808,1669830361775,banana,Grapes,4.8100000000000005,1.68,-3.130000000000001,banana,1400.9000000059605,1406,1405.5999999940395,True,u,23346.69999998808,1910.0,1669830363685,1910,HRV,HRV_0031,2022-11-30 17:50:09
12,"[{'imgObject': {}, 'id': 'tacos', 'src': '/static/foodstim60/tacos.jpg', 'key': 'u', 'origWidth': 411, 'origHeight': 411, 'width': 411, 'height': 411, 'widthPercent': 0.45, 'rescaleHeight': False, 'trialN': 12, 'loaded': True, 'loadedTime': 23349.90000000596, 'positionName': 'LEFT', 'positionCoords': [280.2, 244.5], 'bid': 1.47}, {'imgObject': {}, 'id': 'Tribe humus pita', 'src': '/static/foodstim60/Tribe humus pita.jpg', 'key': 'i', 'origWidth': 411, 'origHeight': 411, 'width': 411, 'height': 411, 'widthPercent': 0.45, 'rescaleHeight': False, 'trialN': 12, 'loaded': True, 'loadedTime': 23350.29999998212, 'positionName': 'RIGHT', 'positionCoords': [748.8, 244.5], 'bid': 0.09}]",23347.59999999404,1669830363686,tacos,Tribe humus pita,1.47,0.09,-1.38,tacos,1090.0,1095,1094.800000011921,True,u,24946.79999998212,1599.199999988079,1669830365285,1599,HRV,HRV_0031,2022-11-30 17:50:09
13,"[{'imgObject': {}, 'id': 'banana', 'src': '/static/foodstim60/banana.jpg', 'key': 'u', 'origWidth': 410, 'origHeight': 410, 'width': 410, 'height': 410, 'widthPercent': 0.45, 'rescaleHeight': False, 'trialN': 13, 'loaded': True, 'loadedTime': 24950.79999998212, 'positionName': 'LEFT', 'positionCoords': [281.2, 245], 'bid': 4.8100000000000005}, {'imgObject': {}, 'id': 'rigatoni and sauce', 'src': '/static/foodstim60/rigatoni and sauce.jpg', 'key': 'i', 'origWidth': 410, 'origHeight': 411, 'width': 410, 'height': 411, 'widthPercent': 0.45, 'rescaleHeight': False, 'trialN': 13, 'loaded': True, 'loadedTime': 24951.40000000596, 'positionName': 'RIGHT', 'positionCoords': [748.8, 244.5], 'bid': 9.9}]",24947.79999998212,1669830365286,banana,rigatoni and sauce,4.8100000000000005,9.9,5.09,rigatoni and sauce,885.6000000238419,891,890.5,True,i,26341.5,1393.7000000178814,1669830366680,1394,HRV,HRV_0031,2022-11-30 17:50:09
14,"[{'imgObject': {}, 'id': 'blackbeanswithrice', 'src': '/static/foodstim60/blackbeanswithrice.jpg', 'key': 'u', 'origWidth': 410, 'origHeight': 410, 'width': 410, 'height': 410, 'widthPercent': 0.45, 'rescaleHeight': False, 'trialN': 14, 'loaded': True, 'loadedTime': 26345.09999999404, 'positionName': 'LEFT', 'positionCoords': [281.2, 245], 'bid': 0.12}, {'imgObject': {}, 'id': 'turkeysandwich', 'src': '/static/foodstim60/turkeysandwich.jpg', 'key': 'i', 'origWidth': 409, 'origHeight': 409, 'width': 409, 'height': 409, 'widthPercent': 0.45, 'rescaleHeight': False, 'trialN': 14, 'loaded': True, 'loadedTime': 26345.5, 'positionName': 'RIGHT', 'positionCoords': [748.8, 245.5], 'bid': 0.12}]",26342.59999999404,1669830366681,blackbeanswithrice,turkeysandwich,0.12,0.12,0.0,turkeysandwich,1181.800000011921,1186,1186.5,True,i,28034.29999998212,1691.699999988079,1669830368373,1692,HRV,HRV_0031,2022-11-30 17:50:09
15,"[{'imgObject': {}, 'id': 'fruitsalad', 'src': '/static/foodstim60/fruitsalad.jpg', 'key': 'u', 'origWidth': 410, 'origHeight': 410, 'width': 410, 'height': 410, 'widthPercent': 0.45, 'rescaleHeight': False, 'trialN': 15, 'loaded': True, 'loadedTime': 28037.19999998808, 'positionName': 'LEFT', 'positionCoords': [281.2, 245], 'bid': 1.09}, {'imgObject': {}, 'id': 'hotdog w must', 'src': '/static/foodstim60/hotdog w must.jpg', 'key': 'i', 'origWidth': 409, 'origHeight': 409, 'width': 409, 'height': 409, 'widthPercent': 0.45, 'rescaleHeight': False, 'trialN': 15, 'loaded': True, 'loadedTime': 28037.59999999404, 'positionName': 'RIGHT', 'positionCoords': [748.8, 245.5], 'bid': 8.72}]",28034.90000000596,1669830368373,fruitsalad,hotdog w must,1.09,8.72,7.630000000000001,hotdog w must,879.5999999940395,884,884.2999999821186,True,i,29420.79999998212,1385.8999999761581,1669830369759,1386,HRV,HRV_0031,2022-11-30 17:50:09
16,"[{'imgObject': {}, 'id': 'seaweed', 'src': '/static/foodstim60/seaweed.jpg', 'key': 'u', 'origWidth': 410, 'origHeight': 410, 'width': 410, 'height': 410, 'widthPercent': 0.45, 'rescaleHeight': False, 'trialN': 16, 'loaded': True, 'loadedTime': 29422.79999998212, 'positionName': 'LEFT', 'positionCoords': [281.2, 245], 'bid': 0.01}, {'imgObject': {}, 'id': 'sushi w_condiments', 'src': '/static/foodstim60/sushi w_condiments.jpg', 'key': 'i', 'origWidth': 410, 'origHeight': 410, 'width': 410, 'height': 410, 'widthPercent': 0.45, 'rescaleHeight': False, 'trialN': 16, 'loaded': True, 'loadedTime': 29423.09999999404, 'positionName': 'RIGHT', 'positionCoords': [748.8, 245], 'bid': 0.06}]",29421.29999998212,1669830369759,seaweed,sushi w_condiments,0.01,0.06,0.049999999999999996,sushi w_condiments,1159.9000000059605,1165,1164.5,True,i,31087.5,1666.2000000178814,1669830371426,1667,HRV,HRV_0031,2022-11-30 17:50:09
17,"[{'imgObject': {}, 'id': 'cantaloupe', 'src': '/static/foodstim60/cantaloupe.jpg', 'key': 'u', 'origWidth': 409, 'origHeight': 409, 'width': 409, 'height': 409, 'widthPercent': 0.45, 'rescaleHeight': False, 'trialN': 17, 'loaded': True, 'loadedTime': 31091.59999999404, 'positionName': 'LEFT', 'positionCoords': [282.2, 245.5], 'bid': 0.15}, {'imgObject': {}, 'id': 'pear', 'src': '/static/foodstim60/pear.jpg', 'key': 'i', 'origWidth': 411, 'origHeight': 410, 'width': 411, 'height': 410, 'widthPercent': 0.45, 'rescaleHeight': False, 'trialN': 17, 'loaded': True, 'loadedTime': 31091.90000000596, 'positionName': 'RIGHT', 'positionCoords': [748.8, 245], 'bid': 1.52}]",31088.5,1669830371427,cantaloupe,pear,0.15,1.52,1.37,pear,1109.7999999821186,1115,1115.199999988079,True,i,32708.79999998212,1620.2999999821186,1669830373047,1620,HRV,HRV_0031,2022-11-30 17:50:09
18,"[{'imgObject': {}, 'id': 'bagel plain', 'src': '/static/foodstim60/bagel plain.jpg', 'key': 'u', 'origWidth': 410, 'origHeight': 410, 'width': 410, 'height': 410, 'widthPercent': 0.45, 'rescaleHeight': False, 'trialN': 18, 'loaded': True, 'loadedTime': 32712.90000000596, 'positionName': 'LEFT', 'positionCoords': [281.2, 245], 'bid': 8.5}, {'imgObject': {}, 'id': 'orange slices', 'src': '/static/foodstim60/orange slices.jpg', 'key': 'i', 'origWidth': 409, 'origHeight': 410, 'width': 409, 'height': 410, 'widthPercent': 0.45, 'rescaleHeight': False, 'trialN': 18, 'loaded': True, 'loadedTime': 32713.09999999404, 'positionName': 'RIGHT', 'positionCoords': [748.8, 245], 'bid': 4.93}]",32709.79999998212,1669830373048,bagel plain,orange slices,8.5,4.93,-3.5700000000000003,bagel plain,772.0,775,775.4000000059605,True,u,33986.59999999404,1276.800000011921,1669830374325,1277,HRV,HRV_0031,2022-11-30 17:50:09
19,"[{'imgObject': {}, 'id': 'fried eggs', 'src': '/static/foodstim60/fried eggs.jpg', 'key': 'u', 'origWidth': 410, 'origHeight': 410, 'width': 410, 'height': 410, 'widthPercent': 0.45, 'rescaleHeight': False, 'trialN': 19, 'loaded': True, 'loadedTime': 33988.09999999404, 'positionName': 'LEFT', 'positionCoords': [281.2, 245], 'bid': 0.08}, {'imgObject': {}, 'id': 'bagel plain', 'src': '/static/foodstim60/bagel plain.jpg', 'key': 'i', 'origWidth': 410, 'origHeight': 410, 'width': 410, 'height': 410, 'widthPercent': 0.45, 'rescaleHeight': False, 'trialN': 19, 'loaded': True, 'loadedTime': 33988.40000000596, 'positionName': 'RIGHT', 'positionCoords': [748.8, 245], 'bid': 8.5}]",33987.0,1669830374325,fried eggs,bagel plain,0.08,8.5,8.42,bagel plain,900.2999999821186,905,905.4000000059605,True,i,35397.40000000596,1410.4000000059605,1669830375735,1410,HRV,HRV_0031,2022-11-30 17:50:09
20,"[{'imgObject': {}, 'id': 'eggsalad', 'src': '/static/foodstim60/eggsalad.jpg', 'key': 'u', 'origWidth': 410, 'origHeight': 409, 'width': 410, 'height': 409, 'widthPercent': 0.45, 'rescaleHeight': False, 'trialN': 20, 'loaded': True, 'loadedTime': 35400.29999998212, 'positionName': 'LEFT', 'positionCoords': [281.2, 245.5], 'bid': 0}, {'imgObject': {}, 'id': 'sweetpotato', 'src': '/static/foodstim60/sweetpotato.jpg', 'key': 'i', 'origWidth': 410, 'origHeight': 410, 'width': 410, 'height': 410, 'widthPercent': 0.45, 'rescaleHeight': False, 'trialN': 20, 'loaded': True, 'loadedTime': 35400.59999999404, 'positionName': 'RIGHT', 'positionCoords': [748.8, 245], 'bid': 0.02}]",35398.09999999404,1669830375736,eggsalad,sweetpotato,0.0,0.02,0.02,sweetpotato,1141.199999988079,1147,1146.4000000059605,True,i,37048.69999998808,1650.5999999940395,1669830377387,1651,HRV,HRV_0031,2022-11-30 17:50:09
21,"[{'imgObject': {}, 'id': 'edamame', 'src': '/static/foodstim60/edamame.jpg', 'key': 'u', 'origWidth': 409, 'origHeight': 410, 'width': 409, 'height': 410, 'widthPercent': 0.45, 'rescaleHeight': False, 'trialN': 21, 'loaded': True, 'loadedTime': 37052.40000000596, 'positionName': 'LEFT', 'positionCoords': [282.2, 245], 'bid': 0.02}, {'imgObject': {}, 'id': 'blueberries', 'src': '/static/foodstim60/blueberries.jpg', 'key': 'i', 'origWidth': 411, 'origHeight': 411, 'width': 411, 'height': 411, 'widthPercent': 0.45, 'rescaleHeight': False, 'trialN': 21, 'loaded': True, 'loadedTime': 37052.79999998212, 'positionName': 'RIGHT', 'positionCoords': [748.8, 244.5], 'bid': 0}]",37049.5,1669830377388,edamame,blueberries,0.02,0.0,-0.02,blueberries,1212.4000000059605,1216,1216.199999988079,True,i,38768.29999998212,1718.7999999821186,1669830379106,1718,HRV,HRV_0031,2022-11-30 17:50:09
22,"[{'imgObject': {}, 'id': 'burger', 'src': '/static/foodstim60/burger.jpg', 'key': 'u', 'origWidth': 409, 'origHeight': 409, 'width': 409, 'height': 409, 'widthPercent': 0.45, 'rescaleHeight': False, 'trialN': 22, 'loaded': True, 'loadedTime': 38772.29999998212, 'positionName': 'LEFT', 'positionCoords': [282.2, 245.5], 'bid': 1.02}, {'imgObject': {}, 'id': 'eggsalad', 'src': '/static/foodstim60/eggsalad.jpg', 'key': 'i', 'origWidth': 410, 'origHeight': 409, 'width': 410, 'height': 409, 'widthPercent': 0.45, 'rescaleHeight': False, 'trialN': 22, 'loaded': True, 'loadedTime': 38772.79999998212, 'positionName': 'RIGHT', 'positionCoords': [748.8, 245.5], 'bid': 0}]",38769.29999998212,1669830379107,burger,eggsalad,1.02,0.0,-1.02,burger,781.1000000238419,786,785.7000000178814,True,u,40060.0,1290.7000000178814,1669830380398,1291,HRV,HRV_0031,2022-11-30 17:50:09
23,"[{'imgObject': {}, 'id': 'cocktailshrimp', 'src': '/static/foodstim60/cocktailshrimp.jpg', 'key': 'u', 'origWidth': 410, 'origHeight': 410, 'width': 410, 'height': 410, 'widthPercent': 0.45, 'rescaleHeight': False, 'trialN': 23, 'loaded': True, 'loadedTime': 40064.40000000596, 'positionName': 'LEFT', 'positionCoords': [281.2, 245], 'bid': 0.02}, {'imgObject': {}, 'id': 'banana', 'src': '/static/foodstim60/banana.jpg', 'key': 'i', 'origWidth': 410, 'origHeight': 410, 'width': 410, 'height': 410, 'widthPercent': 0.45, 'rescaleHeight': False, 'trialN': 23, 'loaded': True, 'loadedTime': 40064.69999998808, 'positionName': 'RIGHT', 'positionCoords': [748.8, 245], 'bid': 4.8100000000000005}]",40061.0,1669830380399,cocktailshrimp,banana,0.02,4.8100000000000005,4.790000000000001,banana,665.0999999940395,670,669.6999999880791,True,i,41235.79999998212,1174.7999999821186,1669830381574,1175,HRV,HRV_0031,2022-11-30 17:50:09
24,"[{'imgObject': {}, 'id': 'shreddedwheatwithmilk', 'src': '/static/foodstim60/shreddedwheatwithmilk.jpg', 'key': 'u', 'origWidth': 410, 'origHeight': 410, 'width': 410, 'height': 410, 'widthPercent': 0.45, 'rescaleHeight': False, 'trialN': 24, 'loaded': True, 'loadedTime': 41239.19999998808, 'positionName': 'LEFT', 'positionCoords': [281.2, 245], 'bid': 0.04}, {'imgObject': {}, 'id': 'orange slices', 'src': '/static/foodstim60/orange slices.jpg', 'key': 'i', 'origWidth': 409, 'origHeight': 410, 'width': 409, 'height': 410, 'widthPercent': 0.45, 'rescaleHeight': False, 'trialN': 24, 'loaded': True, 'loadedTime': 41239.5, 'positionName': 'RIGHT', 'positionCoords': [748.8, 245], 'bid': 4.93}]",41236.5,1669830381574,shreddedwheatwithmilk,orange slices,0.04,4.93,4.89,orange slices,896.6999999880791,902,901.7999999821186,True,i,42640.19999998808,1403.699999988079,1669830382978,1404,HRV,HRV_0031,2022-11-30 17:50:09
25,"[{'imgObject': {}, 'id': 'cherry tomato', 'src': '/static/foodstim60/cherry tomato.jpg', 'key': 'u', 'origWidth': 410, 'origHeight': 410, 'width': 410, 'height': 410, 'widthPercent': 0.45, 'rescaleHeight': False, 'trialN': 25, 'loaded': True, 'loadedTime': 42644, 'positionName': 'LEFT', 'positionCoords': [281.2, 245], 'bid': 0.04}, {'imgObject': {}, 'id': 'sweetpotato', 'src': '/static/foodstim60/sweetpotato.jpg', 'key': 'i', 'origWidth': 410, 'origHeight': 410, 'width': 410, 'height': 410, 'widthPercent': 0.45, 'rescaleHeight': False, 'trialN': 25, 'loaded': True, 'loadedTime': 42644.29999998212, 'positionName': 'RIGHT', 'positionCoords': [748.8, 245], 'bid': 0.02}]",42641.09999999404,1669830382979,cherry tomato,sweetpotato,0.04,0.02,-0.02,sweetpotato,1102.300000011921,1108,1107.800000011921,True,i,44254.0,1612.9000000059605,1669830384592,1613,HRV,HRV_0031,2022-11-30 17:50:09
26,"[{'imgObject': {}, 'id': 'ice cream sundae 002', 'src': '/static/foodstim60/ice cream sundae 002.jpg', 'key': 'u', 'origWidth': 409, 'origHeight': 409, 'width': 409, 'height': 409, 'widthPercent': 0.45, 'rescaleHeight': False, 'trialN': 26, 'loaded': True, 'loadedTime': 44257.59999999404, 'positionName': 'LEFT', 'positionCoords': [282.2, 245.5], 'bid': 4.93}, {'imgObject': {}, 'id': 'steak', 'src': '/static/foodstim60/steak.jpg', 'key': 'i', 'origWidth': 410, 'origHeight': 410, 'width': 410, 'height': 410, 'widthPercent': 0.45, 'rescaleHeight': False, 'trialN': 26, 'loaded': True, 'loadedTime': 44257.90000000596, 'positionName': 'RIGHT', 'positionCoords': [748.8, 245], 'bid': 4.95}]",44254.90000000596,1669830384593,ice cream sundae 002,steak,4.93,4.95,0.020000000000000462,steak,1166.5,1169,1169.5,True,i,45924.59999999404,1669.699999988079,1669830386262,1669,HRV,HRV_0031,2022-11-30 17:50:09
27,"[{'imgObject': {}, 'id': 'grilled chicken strips', 'src': '/static/foodstim60/grilled chicken strips.jpg', 'key': 'u', 'origWidth': 410, 'origHeight': 411, 'width': 410, 'height': 411, 'widthPercent': 0.45, 'rescaleHeight': False, 'trialN': 27, 'loaded': True, 'loadedTime': 45926.59999999404, 'positionName': 'LEFT', 'positionCoords': [281.2, 244.5], 'bid': 9.95}, {'imgObject': {}, 'id': 'cantaloupe', 'src': '/static/foodstim60/cantaloupe.jpg', 'key': 'i', 'origWidth': 409, 'origHeight': 409, 'width': 409, 'height': 409, 'widthPercent': 0.45, 'rescaleHeight': False, 'trialN': 27, 'loaded': True, 'loadedTime': 45926.79999998212, 'positionName': 'RIGHT', 'positionCoords': [748.8, 245.5], 'bid': 0.15}]",45925.19999998808,1669830386263,grilled chicken strips,cantaloupe,9.95,0.15,-9.799999999999999,grilled chicken strips,721.8000000119209,726,726.4000000059605,True,u,47155.69999998808,1230.5,1669830387494,1231,HRV,HRV_0031,2022-11-30 17:50:09
28,"[{'imgObject': {}, 'id': 'omelette', 'src': '/static/foodstim60/omelette.jpg', 'key': 'u', 'origWidth': 410, 'origHeight': 409, 'width': 410, 'height': 409, 'widthPercent': 0.45, 'rescaleHeight': False, 'trialN': 28, 'loaded': True, 'loadedTime': 47156.79999998212, 'positionName': 'LEFT', 'positionCoords': [281.2, 245.5], 'bid': 0.09}, {'imgObject': {}, 'id': 'burrito', 'src': '/static/foodstim60/burrito.jpg', 'key': 'i', 'origWidth': 410, 'origHeight': 410, 'width': 410, 'height': 410, 'widthPercent': 0.45, 'rescaleHeight': False, 'trialN': 28, 'loaded': True, 'loadedTime': 47157, 'positionName': 'RIGHT', 'positionCoords': [748.8, 245], 'bid': 0.09}]",47156.0,1669830387494,omelette,burrito,0.09,0.09,0.0,omelette,1444.0999999940395,1449,1448.9000000059605,True,u,49109.90000000596,1953.9000000059605,1669830389448,1954,HRV,HRV_0031,2022-11-30 17:50:09
29,"[{'imgObject': {}, 'id': 'Tribe humus pita', 'src': '/static/foodstim60/Tribe humus pita.jpg', 'key': 'u', 'origWidth': 411, 'origHeight': 411, 'width': 411, 'height': 411, 'widthPercent': 0.45, 'rescaleHeight': False, 'trialN': 29, 'loaded': True, 'loadedTime': 49113.69999998808, 'positionName': 'LEFT', 'positionCoords': [280.2, 244.5], 'bid': 0.09}, {'imgObject': {}, 'id': 'rigatoni and sauce', 'src': '/static/foodstim60/rigatoni and sauce.jpg', 'key': 'i', 'origWidth': 410, 'origHeight': 411, 'width': 410, 'height': 411, 'widthPercent': 0.45, 'rescaleHeight': False, 'trialN': 29, 'loaded': True, 'loadedTime': 49114, 'positionName': 'RIGHT', 'positionCoords': [748.8, 244.5], 'bid': 9.9}]",49110.79999998212,1669830389449,Tribe humus pita,rigatoni and sauce,0.09,9.9,9.81,rigatoni and sauce,762.4000000059605,767,767.5,True,i,50380.0,1269.2000000178814,1669830390718,1269,HRV,HRV_0031,2022-11-30 17:50:09
30,"[{'imgObject': {}, 'id': 'strawberries', 'src': '/static/foodstim60/strawberries.jpg', 'key': 'u', 'origWidth': 410, 'origHeight': 410, 'width': 410, 'height': 410, 'widthPercent': 0.45, 'rescaleHeight': False, 'trialN': 30, 'loaded': True, 'loadedTime': 50383.59999999404, 'positionName': 'LEFT', 'positionCoords': [281.2, 245], 'bid': 5.0200000000000005}, {'imgObject': {}, 'id': 'steak', 'src': '/static/foodstim60/steak.jpg', 'key': 'i', 'origWidth': 410, 'origHeight': 410, 'width': 410, 'height': 410, 'widthPercent': 0.45, 'rescaleHeight': False, 'trialN': 30, 'loaded': True, 'loadedTime': 50383.90000000596, 'positionName': 'RIGHT', 'positionCoords': [748.8, 245], 'bid': 4.95}]",50380.90000000596,1669830390719,strawberries,steak,5.0200000000000005,4.95,-0.07000000000000028,steak,862.7999999821186,866,866.3999999761581,True,i,51752.5,1371.5999999940395,1669830392090,1371,HRV,HRV_0031,2022-11-30 17:50:09
31,"[{'imgObject': {}, 'id': 'Grapes', 'src': '/static/foodstim60/Grapes.jpg', 'key': 'u', 'origWidth': 411, 'origHeight': 411, 'width': 411, 'height': 411, 'widthPercent': 0.45, 'rescaleHeight': False, 'trialN': 31, 'loaded': True, 'loadedTime': 51756.29999998212, 'positionName': 'LEFT', 'positionCoords': [280.2, 244.5], 'bid': 1.68}, {'imgObject': {}, 'id': 'turkeysandwich', 'src': '/static/foodstim60/turkeysandwich.jpg', 'key': 'i', 'origWidth': 409, 'origHeight': 409, 'width': 409, 'height': 409, 'widthPercent': 0.45, 'rescaleHeight': False, 'trialN': 31, 'loaded': True, 'loadedTime': 51756.59999999404, 'positionName': 'RIGHT', 'positionCoords': [748.8, 245.5], 'bid': 0.12}]",51753.29999998212,1669830392091,Grapes,turkeysandwich,1.68,0.12,-1.56,Grapes,1255.6000000238419,1259,1259.300000011921,True,u,53517.69999998808,1764.4000000059605,1669830393855,1764,HRV,HRV_0031,2022-11-30 17:50:09
32,"[{'imgObject': {}, 'id': 'froot loops w milk', 'src': '/static/foodstim60/froot loops w milk.jpg', 'key': 'u', 'origWidth': 410, 'origHeight': 410, 'width': 410, 'height': 410, 'widthPercent': 0.45, 'rescaleHeight': False, 'trialN': 32, 'loaded': True, 'loadedTime': 53521.40000000596, 'positionName': 'LEFT', 'positionCoords': [281.2, 245], 'bid': 9.94}, {'imgObject': {}, 'id': 'bagel and cc', 'src': '/static/foodstim60/bagel and cc.jpg', 'key': 'i', 'origWidth': 410, 'origHeight': 410, 'width': 410, 'height': 410, 'widthPercent': 0.45, 'rescaleHeight': False, 'trialN': 32, 'loaded': True, 'loadedTime': 53521.69999998808, 'positionName': 'RIGHT', 'positionCoords': [748.8, 245], 'bid': 7.47}]",53518.59999999404,1669830393856,froot loops w milk,bagel and cc,9.94,7.47,-2.4699999999999998,bagel and cc,1058.9000000059605,1065,1064.9000000059605,True,i,55088.29999998212,1569.699999988079,1669830395426,1570,HRV,HRV_0031,2022-11-30 17:50:09
33,"[{'imgObject': {}, 'id': 'pear', 'src': '/static/foodstim60/pear.jpg', 'key': 'u', 'origWidth': 411, 'origHeight': 410, 'width': 411, 'height': 410, 'widthPercent': 0.45, 'rescaleHeight': False, 'trialN': 33, 'loaded': True, 'loadedTime': 55092.19999998808, 'positionName': 'LEFT', 'positionCoords': [280.2, 245], 'bid': 1.52}, {'imgObject': {}, 'id': 'baked potato', 'src': '/static/foodstim60/baked potato.jpg', 'key': 'i', 'origWidth': 409, 'origHeight': 410, 'width': 409, 'height': 410, 'widthPercent': 0.45, 'rescaleHeight': False, 'trialN': 33, 'loaded': True, 'loadedTime': 55092.69999998808, 'positionName': 'RIGHT', 'positionCoords': [748.8, 245], 'bid': 9.87}]",55089.19999998808,1669830395427,pear,baked potato,1.52,9.87,8.35,baked potato,1609.7000000178814,1614,1614.5,True,i,57207.09999999404,2117.9000000059605,1669830397545,2118,HRV,HRV_0031,2022-11-30 17:50:09
34,"[{'imgObject': {}, 'id': 'apple slices', 'src': '/static/foodstim60/apple slices.jpg', 'key': 'u', 'origWidth': 409, 'origHeight': 410, 'width': 409, 'height': 410, 'widthPercent': 0.45, 'rescaleHeight': False, 'trialN': 34, 'loaded': True, 'loadedTime': 57209.29999998212, 'positionName': 'LEFT', 'positionCoords': [282.2, 245], 'bid': 3.7}, {'imgObject': {}, 'id': 'sweetpotato', 'src': '/static/foodstim60/sweetpotato.jpg', 'key': 'i', 'origWidth': 410, 'origHeight': 410, 'width': 410, 'height': 410, 'widthPercent': 0.45, 'rescaleHeight': False, 'trialN': 34, 'loaded': True, 'loadedTime': 57209.59999999404, 'positionName': 'RIGHT', 'positionCoords': [748.8, 245], 'bid': 0.02}]",57207.59999999404,1669830397545,apple slices,sweetpotato,3.7,0.02,-3.68,apple slices,931.4000000059605,936,935.9000000059605,True,u,58646.29999998212,1438.699999988079,1669830398984,1439,HRV,HRV_0031,2022-11-30 17:50:09
35,"[{'imgObject': {}, 'id': 'seaweed', 'src': '/static/foodstim60/seaweed.jpg', 'key': 'u', 'origWidth': 410, 'origHeight': 410, 'width': 410, 'height': 410, 'widthPercent': 0.45, 'rescaleHeight': False, 'trialN': 35, 'loaded': True, 'loadedTime': 58650.19999998808, 'positionName': 'LEFT', 'positionCoords': [281.2, 245], 'bid': 0.01}, {'imgObject': {}, 'id': 'salmon', 'src': '/static/foodstim60/salmon.jpg', 'key': 'i', 'origWidth': 410, 'origHeight': 409, 'width': 410, 'height': 409, 'widthPercent': 0.45, 'rescaleHeight': False, 'trialN': 35, 'loaded': True, 'loadedTime': 58650.59999999404, 'positionName': 'RIGHT', 'positionCoords': [748.8, 245.5], 'bid': 0}]",58647.09999999404,1669830398985,seaweed,salmon,0.01,0.0,-0.01,salmon,683.3000000119209,688,688.3000000119209,True,i,59839.79999998212,1192.699999988079,1669830400177,1192,HRV,HRV_0031,2022-11-30 17:50:09
36,"[{'imgObject': {}, 'id': 'shreddedwheatwithmilk', 'src': '/static/foodstim60/shreddedwheatwithmilk.jpg', 'key': 'u', 'origWidth': 410, 'origHeight': 410, 'width': 410, 'height': 410, 'widthPercent': 0.45, 'rescaleHeight': False, 'trialN': 36, 'loaded': True, 'loadedTime': 59843.40000000596, 'positionName': 'LEFT', 'positionCoords': [281.2, 245], 'bid': 0.04}, {'imgObject': {}, 'id': 'cocktailshrimp', 'src': '/static/foodstim60/cocktailshrimp.jpg', 'key': 'i', 'origWidth': 410, 'origHeight': 410, 'width': 410, 'height': 410, 'widthPercent': 0.45, 'rescaleHeight': False, 'trialN': 36, 'loaded': True, 'loadedTime': 59844, 'positionName': 'RIGHT', 'positionCoords': [748.8, 245], 'bid': 0.02}]",59840.59999999404,1669830400178,shreddedwheatwithmilk,cocktailshrimp,0.04,0.02,-0.02,shreddedwheatwithmilk,1063.800000011921,1069,1069.0999999940395,True,u,61414.69999998808,1574.0999999940395,1669830401752,1574,HRV,HRV_0031,2022-11-30 17:50:09
37,"[{'imgObject': {}, 'id': 'chickenfingers', 'src': '/static/foodstim60/chickenfingers.jpg', 'key': 'u', 'origWidth': 410, 'origHeight': 410, 'width': 410, 'height': 410, 'widthPercent': 0.45, 'rescaleHeight': False, 'trialN': 37, 'loaded': True, 'loadedTime': 61418.29999998212, 'positionName': 'LEFT', 'positionCoords': [281.2, 245], 'bid': 9.93}, {'imgObject': {}, 'id': 'ice cream sundae 002', 'src': '/static/foodstim60/ice cream sundae 002.jpg', 'key': 'i', 'origWidth': 409, 'origHeight': 409, 'width': 409, 'height': 409, 'widthPercent': 0.45, 'rescaleHeight': False, 'trialN': 37, 'loaded': True, 'loadedTime': 61418.69999998808, 'positionName': 'RIGHT', 'positionCoords': [748.8, 245.5], 'bid': 4.93}]",61415.59999999404,1669830401753,chickenfingers,ice cream sundae 002,9.93,4.93,-5.0,chickenfingers,748.8000000119209,754,753.3000000119209,True,u,62674.0,1258.4000000059605,1669830403012,1259,HRV,HRV_0031,2022-11-30 17:50:09
38,"[{'imgObject': {}, 'id': 'bagel plain', 'src': '/static/foodstim60/bagel plain.jpg', 'key': 'u', 'origWidth': 410, 'origHeight': 410, 'width': 410, 'height': 410, 'widthPercent': 0.45, 'rescaleHeight': False, 'trialN': 38, 'loaded': True, 'loadedTime': 62677.69999998808, 'positionName': 'LEFT', 'positionCoords': [281.2, 245], 'bid': 8.5}, {'imgObject': {}, 'id': 'bagel and cc', 'src': '/static/foodstim60/bagel and cc.jpg', 'key': 'i', 'origWidth': 410, 'origHeight': 410, 'width': 410, 'height': 410, 'widthPercent': 0.45, 'rescaleHeight': False, 'trialN': 38, 'loaded': True, 'loadedTime': 62678.09999999404, 'positionName': 'RIGHT', 'positionCoords': [748.8, 245], 'bid': 7.47}]",62674.90000000596,1669830403013,bagel plain,bagel and cc,8.5,7.47,-1.0300000000000002,bagel plain,1561.5,1566,1566.2999999821186,True,u,64746.09999999404,2071.199999988079,1669830405084,2071,HRV,HRV_0031,2022-11-30 17:50:09
39,"[{'imgObject': {}, 'id': 'shreddedwheatwithmilk', 'src': '/static/foodstim60/shreddedwheatwithmilk.jpg', 'key': 'u', 'origWidth': 410, 'origHeight': 410, 'width': 410, 'height': 410, 'widthPercent': 0.45, 'rescaleHeight': False, 'trialN': 39, 'loaded': True, 'loadedTime': 64749.90000000596, 'positionName': 'LEFT', 'positionCoords': [281.2, 245], 'bid': 0.04}, {'imgObject': {}, 'id': 'raspberries', 'src': '/static/foodstim60/raspberries.jpg', 'key': 'i', 'origWidth': 411, 'origHeight': 411, 'width': 411, 'height': 411, 'widthPercent': 0.45, 'rescaleHeight': False, 'trialN': 39, 'loaded': True, 'loadedTime': 64750.19999998808, 'positionName': 'RIGHT', 'positionCoords': [748.8, 244.5], 'bid': 0}]",64747.09999999404,1669830405085,shreddedwheatwithmilk,raspberries,0.04,0.0,-0.04,shreddedwheatwithmilk,1400.300000011921,1406,1406.0999999940395,True,u,66658.09999999404,1911.0,1669830406996,1911,HRV,HRV_0031,2022-11-30 17:50:09
40,"[{'imgObject': {}, 'id': 'corn cob', 'src': '/static/foodstim60/corn cob.jpg', 'key': 'u', 'origWidth': 411, 'origHeight': 411, 'width': 411, 'height': 411, 'widthPercent': 0.45, 'rescaleHeight': False, 'trialN': 40, 'loaded': True, 'loadedTime': 66662.29999998212, 'positionName': 'LEFT', 'positionCoords': [280.2, 244.5], 'bid': 9.9}, {'imgObject': {}, 'id': 'Grapes', 'src': '/static/foodstim60/Grapes.jpg', 'key': 'i', 'origWidth': 411, 'origHeight': 411, 'width': 411, 'height': 411, 'widthPercent': 0.45, 'rescaleHeight': False, 'trialN': 40, 'loaded': True, 'loadedTime': 66662.5, 'positionName': 'RIGHT', 'positionCoords': [748.8, 244.5], 'bid': 1.68}]",66659.0,1669830406997,corn cob,Grapes,9.9,1.68,-8.22,corn cob,1142.5999999940395,1147,1147.7999999821186,True,u,68311.69999998808,1652.699999988079,1669830408649,1652,HRV,HRV_0031,2022-11-30 17:50:09
41,"[{'imgObject': {}, 'id': 'raspberries', 'src': '/static/foodstim60/raspberries.jpg', 'key': 'u', 'origWidth': 411, 'origHeight': 411, 'width': 411, 'height': 411, 'widthPercent': 0.45, 'rescaleHeight': False, 'trialN': 41, 'loaded': True, 'loadedTime': 68315.40000000596, 'positionName': 'LEFT', 'positionCoords': [280.2, 244.5], 'bid': 0}, {'imgObject': {}, 'id': 'kiwi', 'src': '/static/foodstim60/kiwi.jpg', 'key': 'i', 'origWidth': 410, 'origHeight': 410, 'width': 410, 'height': 410, 'widthPercent': 0.45, 'rescaleHeight': False, 'trialN': 41, 'loaded': True, 'loadedTime': 68315.69999998808, 'positionName': 'RIGHT', 'positionCoords': [748.8, 245], 'bid': 0.02}]",68312.5,1669830408650,raspberries,kiwi,0.0,0.02,0.02,raspberries,1113.699999988079,1118,1118.199999988079,True,u,69932.29999998212,1619.7999999821186,1669830410270,1620,HRV,HRV_0031,2022-11-30 17:50:09
42,"[{'imgObject': {}, 'id': 'avocado', 'src': '/static/foodstim60/avocado.jpg', 'key': 'u', 'origWidth': 409, 'origHeight': 409, 'width': 409, 'height': 409, 'widthPercent': 0.45, 'rescaleHeight': False, 'trialN': 42, 'loaded': True, 'loadedTime': 69936.29999998212, 'positionName': 'LEFT', 'positionCoords': [282.2, 245.5], 'bid': 0.05}, {'imgObject': {}, 'id': 'granola w milk', 'src': '/static/foodstim60/granola w milk.jpg', 'key': 'i', 'origWidth': 410, 'origHeight': 410, 'width': 410, 'height': 410, 'widthPercent': 0.45, 'rescaleHeight': False, 'trialN': 42, 'loaded': True, 'loadedTime': 69936.5, 'positionName': 'RIGHT', 'positionCoords': [748.8, 245], 'bid': 0.06}]",69933.19999998808,1669830410271,avocado,granola w milk,0.05,0.06,0.009999999999999995,avocado,1148.2000000178814,1151,1151.0999999940395,True,u,71589.5,1656.300000011921,1669830411927,1656,HRV,HRV_0031,2022-11-30 17:50:09
43,"[{'imgObject': {}, 'id': 'steak', 'src': '/static/foodstim60/steak.jpg', 'key': 'u', 'origWidth': 410, 'origHeight': 410, 'width': 410, 'height': 410, 'widthPercent': 0.45, 'rescaleHeight': False, 'trialN': 43, 'loaded': True, 'loadedTime': 71593.40000000596, 'positionName': 'LEFT', 'positionCoords': [281.2, 245], 'bid': 4.95}, {'imgObject': {}, 'id': 'mac & cheese', 'src': '/static/foodstim60/mac & cheese.jpg', 'key': 'i', 'origWidth': 410, 'origHeight': 410, 'width': 410, 'height': 410, 'widthPercent': 0.45, 'rescaleHeight': False, 'trialN': 43, 'loaded': True, 'loadedTime': 71593.79999998212, 'positionName': 'RIGHT', 'positionCoords': [748.8, 245], 'bid': 9.95}]",71590.40000000596,1669830411928,steak,mac & cheese,4.95,9.95,4.999999999999999,mac & cheese,1010.8999999761581,1016,1015.8999999761581,True,i,73111.40000000596,1521.0,1669830413449,1521,HRV,HRV_0031,2022-11-30 17:50:09
44,"[{'imgObject': {}, 'id': 'veggieswithdip', 'src': '/static/foodstim60/veggieswithdip.jpg', 'key': 'u', 'origWidth': 409, 'origHeight': 409, 'width': 409, 'height': 409, 'widthPercent': 0.45, 'rescaleHeight': False, 'trialN': 44, 'loaded': True, 'loadedTime': 73115.09999999404, 'positionName': 'LEFT', 'positionCoords': [282.2, 245.5], 'bid': 0.15}, {'imgObject': {}, 'id': 'cheerios', 'src': '/static/foodstim60/cheerios.jpg', 'key': 'i', 'origWidth': 409, 'origHeight': 410, 'width': 409, 'height': 410, 'widthPercent': 0.45, 'rescaleHeight': False, 'trialN': 44, 'loaded': True, 'loadedTime': 73115.40000000596, 'positionName': 'RIGHT', 'positionCoords': [748.8, 245], 'bid': 7.33}]",73112.19999998808,1669830413450,veggieswithdip,cheerios,0.15,7.33,7.18,cheerios,873.7000000178814,877,877.0999999940395,True,i,74494.5,1382.300000011921,1669830414832,1382,HRV,HRV_0031,2022-11-30 17:50:09
45,"[{'imgObject': {}, 'id': 'omelette', 'src': '/static/foodstim60/omelette.jpg', 'key': 'u', 'origWidth': 410, 'origHeight': 409, 'width': 410, 'height': 409, 'widthPercent': 0.45, 'rescaleHeight': False, 'trialN': 45, 'loaded': True, 'loadedTime': 74498.40000000596, 'positionName': 'LEFT', 'positionCoords': [281.2, 245.5], 'bid': 0.09}, {'imgObject': {}, 'id': 'seaweed', 'src': '/static/foodstim60/seaweed.jpg', 'key': 'i', 'origWidth': 410, 'origHeight': 410, 'width': 410, 'height': 410, 'widthPercent': 0.45, 'rescaleHeight': False, 'trialN': 45, 'loaded': True, 'loadedTime': 74498.69999998808, 'positionName': 'RIGHT', 'positionCoords': [748.8, 245], 'bid': 0.01}]",74495.5,1669830414833,omelette,seaweed,0.09,0.01,-0.08,omelette,958.9000000059605,964,963.7999999821186,True,u,75962.59999999404,1467.0999999940395,1669830416300,1467,HRV,HRV_0031,2022-11-30 17:50:09
46,"[{'imgObject': {}, 'id': 'apple slices', 'src': '/static/foodstim60/apple slices.jpg', 'key': 'u', 'origWidth': 409, 'origHeight': 410, 'width': 409, 'height': 410, 'widthPercent': 0.45, 'rescaleHeight': False, 'trialN': 46, 'loaded': True, 'loadedTime': 75964.29999998212, 'positionName': 'LEFT', 'positionCoords': [282.2, 245], 'bid': 3.7}, {'imgObject': {}, 'id': 'cherries', 'src': '/static/foodstim60/cherries.jpg', 'key': 'i', 'origWidth': 410, 'origHeight': 411, 'width': 410, 'height': 411, 'widthPercent': 0.45, 'rescaleHeight': False, 'trialN': 46, 'loaded': True, 'loadedTime': 75964.59999999404, 'positionName': 'RIGHT', 'positionCoords': [748.8, 244.5], 'bid': 0.13}]",75963.0,1669830416300,apple slices,cherries,3.7,0.13,-3.5700000000000003,apple slices,851.2999999821186,857,857.0,True,u,77324.69999998808,1361.699999988079,1669830417662,1362,HRV,HRV_0031,2022-11-30 17:50:09
47,"[{'imgObject': {}, 'id': 'steak', 'src': '/static/foodstim60/steak.jpg', 'key': 'u', 'origWidth': 410, 'origHeight': 410, 'width': 410, 'height': 410, 'widthPercent': 0.45, 'rescaleHeight': False, 'trialN': 47, 'loaded': True, 'loadedTime': 77327, 'positionName': 'LEFT', 'positionCoords': [281.2, 245], 'bid': 4.95}, {'imgObject': {}, 'id': 'corn cob', 'src': '/static/foodstim60/corn cob.jpg', 'key': 'i', 'origWidth': 411, 'origHeight': 411, 'width': 411, 'height': 411, 'widthPercent': 0.45, 'rescaleHeight': False, 'trialN': 47, 'loaded': True, 'loadedTime': 77327.29999998212, 'positionName': 'RIGHT', 'positionCoords': [748.8, 244.5], 'bid': 9.9}]",77325.19999998808,1669830417663,steak,corn cob,4.95,9.9,4.95,steak,867.0,871,871.9000000059605,True,u,78701.09999999404,1375.9000000059605,1669830419038,1375,HRV,HRV_0031,2022-11-30 17:50:09
48,"[{'imgObject': {}, 'id': 'kiwi', 'src': '/static/foodstim60/kiwi.jpg', 'key': 'u', 'origWidth': 410, 'origHeight': 410, 'width': 410, 'height': 410, 'widthPercent': 0.45, 'rescaleHeight': False, 'trialN': 48, 'loaded': True, 'loadedTime': 78705.19999998808, 'positionName': 'LEFT', 'positionCoords': [281.2, 245], 'bid': 0.02}, {'imgObject': {}, 'id': 'burrito', 'src': '/static/foodstim60/burrito.jpg', 'key': 'i', 'origWidth': 410, 'origHeight': 410, 'width': 410, 'height': 410, 'widthPercent': 0.45, 'rescaleHeight': False, 'trialN': 48, 'loaded': True, 'loadedTime': 78705.5, 'positionName': 'RIGHT', 'positionCoords': [748.8, 245], 'bid': 0.09}]",78702.09999999404,1669830419039,kiwi,burrito,0.02,0.09,0.06999999999999999,burrito,1628.199999988079,1634,1633.300000011921,True,i,80840.29999998212,2138.199999988079,1669830421178,2139,HRV,HRV_0031,2022-11-30 17:50:09
49,"[{'imgObject': {}, 'id': 'edamame', 'src': '/static/foodstim60/edamame.jpg', 'key': 'u', 'origWidth': 409, 'origHeight': 410, 'width': 409, 'height': 410, 'widthPercent': 0.45, 'rescaleHeight': False, 'trialN': 49, 'loaded': True, 'loadedTime': 80843.79999998212, 'positionName': 'LEFT', 'positionCoords': [282.2, 245], 'bid': 0.02}, {'imgObject': {}, 'id': 'salmon', 'src': '/static/foodstim60/salmon.jpg', 'key': 'i', 'origWidth': 410, 'origHeight': 409, 'width': 410, 'height': 409, 'widthPercent': 0.45, 'rescaleHeight': False, 'trialN': 49, 'loaded': True, 'loadedTime': 80844.29999998212, 'positionName': 'RIGHT', 'positionCoords': [748.8, 245.5], 'bid': 0}]",80841.19999998808,1669830421178,edamame,salmon,0.02,0.0,-0.02,salmon,714.9000000059605,720,719.5999999940395,True,i,82061.19999998808,1220.0,1669830422398,1220,HRV,HRV_0031,2022-11-30 17:50:09
50,"[{'imgObject': {}, 'id': 'Grapes', 'src': '/static/foodstim60/Grapes.jpg', 'key': 'u', 'origWidth': 411, 'origHeight': 411, 'width': 411, 'height': 411, 'widthPercent': 0.45, 'rescaleHeight': False, 'trialN': 50, 'loaded': True, 'loadedTime': 82062.79999998212, 'positionName': 'LEFT', 'positionCoords': [280.2, 244.5], 'bid': 1.68}, {'imgObject': {}, 'id': 'kiwi', 'src': '/static/foodstim60/kiwi.jpg', 'key': 'i', 'origWidth': 410, 'origHeight': 410, 'width': 410, 'height': 410, 'widthPercent': 0.45, 'rescaleHeight': False, 'trialN': 50, 'loaded': True, 'loadedTime': 82063, 'positionName': 'RIGHT', 'positionCoords': [748.8, 245], 'bid': 0.02}]",82061.59999999404,1669830422399,Grapes,kiwi,1.68,0.02,-1.66,Grapes,994.1999999880791,999,998.8000000119209,True,u,83563.90000000596,1502.300000011921,1669830423901,1502,HRV,HRV_0031,2022-11-30 17:50:09
51,"[{'imgObject': {}, 'id': 'luckycharms', 'src': '/static/foodstim60/luckycharms.jpg', 'key': 'u', 'origWidth': 410, 'origHeight': 409, 'width': 410, 'height': 409, 'widthPercent': 0.45, 'rescaleHeight': False, 'trialN': 51, 'loaded': True, 'loadedTime': 83566.09999999404, 'positionName': 'LEFT', 'positionCoords': [281.2, 245.5], 'bid': 9.86}, {'imgObject': {}, 'id': 'eggs', 'src': '/static/foodstim60/eggs.jpg', 'key': 'i', 'origWidth': 409, 'origHeight': 409, 'width': 409, 'height': 409, 'widthPercent': 0.45, 'rescaleHeight': False, 'trialN': 51, 'loaded': True, 'loadedTime': 83566.40000000596, 'positionName': 'RIGHT', 'positionCoords': [748.8, 245.5], 'bid': 0.09}]",83564.5,1669830423902,luckycharms,eggs,9.86,0.09,-9.77,luckycharms,720.4000000059605,725,725.0,True,u,84794.5,1230.0,1669830425132,1230,HRV,HRV_0031,2022-11-30 17:50:09
52,"[{'imgObject': {}, 'id': 'seaweed', 'src': '/static/foodstim60/seaweed.jpg', 'key': 'u', 'origWidth': 410, 'origHeight': 410, 'width': 410, 'height': 410, 'widthPercent': 0.45, 'rescaleHeight': False, 'trialN': 52, 'loaded': True, 'loadedTime': 84798.29999998212, 'positionName': 'LEFT', 'positionCoords': [281.2, 245], 'bid': 0.01}, {'imgObject': {}, 'id': 'pear', 'src': '/static/foodstim60/pear.jpg', 'key': 'i', 'origWidth': 411, 'origHeight': 410, 'width': 411, 'height': 410, 'widthPercent': 0.45, 'rescaleHeight': False, 'trialN': 52, 'loaded': True, 'loadedTime': 84798.69999998808, 'positionName': 'RIGHT', 'positionCoords': [748.8, 245], 'bid': 1.52}]",84795.40000000596,1669830425133,seaweed,pear,0.01,1.52,1.51,pear,585.0999999940395,589,589.8999999761581,True,i,85886.29999998212,1090.8999999761581,1669830426224,1091,HRV,HRV_0031,2022-11-30 17:50:09
53,"[{'imgObject': {}, 'id': 'omelette', 'src': '/static/foodstim60/omelette.jpg', 'key': 'u', 'origWidth': 410, 'origHeight': 409, 'width': 410, 'height': 409, 'widthPercent': 0.45, 'rescaleHeight': False, 'trialN': 53, 'loaded': True, 'loadedTime': 85890.09999999404, 'positionName': 'LEFT', 'positionCoords': [281.2, 245.5], 'bid': 0.09}, {'imgObject': {}, 'id': 'baked potato', 'src': '/static/foodstim60/baked potato.jpg', 'key': 'i', 'origWidth': 409, 'origHeight': 410, 'width': 409, 'height': 410, 'widthPercent': 0.45, 'rescaleHeight': False, 'trialN': 53, 'loaded': True, 'loadedTime': 85890.40000000596, 'positionName': 'RIGHT', 'positionCoords': [748.8, 245], 'bid': 9.87}]",85887.19999998808,1669830426224,omelette,baked potato,0.09,9.87,9.78,baked potato,809.3000000119209,815,814.2000000178814,True,i,87202.90000000596,1315.7000000178814,1669830427540,1316,HRV,HRV_0031,2022-11-30 17:50:09
54,"[{'imgObject': {}, 'id': 'avocado', 'src': '/static/foodstim60/avocado.jpg', 'key': 'u', 'origWidth': 409, 'origHeight': 409, 'width': 409, 'height': 409, 'widthPercent': 0.45, 'rescaleHeight': False, 'trialN': 54, 'loaded': True, 'loadedTime': 87204.40000000596, 'positionName': 'LEFT', 'positionCoords': [282.2, 245.5], 'bid': 0.05}, {'imgObject': {}, 'id': 'mashed potato', 'src': '/static/foodstim60/mashed potato.jpg', 'key': 'i', 'origWidth': 409, 'origHeight': 409, 'width': 409, 'height': 409, 'widthPercent': 0.45, 'rescaleHeight': False, 'trialN': 54, 'loaded': True, 'loadedTime': 87204.5, 'positionName': 'RIGHT', 'positionCoords': [748.8, 245.5], 'bid': 0.08}]",87203.29999998212,1669830427540,avocado,mashed potato,0.05,0.08,0.03,mashed potato,982.7000000178814,989,988.5,True,i,88696.79999998212,1493.5,1669830429034,1494,HRV,HRV_0031,2022-11-30 17:50:09
55,"[{'imgObject': {}, 'id': 'blueberries', 'src': '/static/foodstim60/blueberries.jpg', 'key': 'u', 'origWidth': 411, 'origHeight': 411, 'width': 411, 'height': 411, 'widthPercent': 0.45, 'rescaleHeight': False, 'trialN': 55, 'loaded': True, 'loadedTime': 88700.59999999404, 'positionName': 'LEFT', 'positionCoords': [280.2, 244.5], 'bid': 0}, {'imgObject': {}, 'id': 'sushi w_condiments', 'src': '/static/foodstim60/sushi w_condiments.jpg', 'key': 'i', 'origWidth': 410, 'origHeight': 410, 'width': 410, 'height': 410, 'widthPercent': 0.45, 'rescaleHeight': False, 'trialN': 55, 'loaded': True, 'loadedTime': 88701, 'positionName': 'RIGHT', 'positionCoords': [748.8, 245], 'bid': 0.06}]",88697.69999998808,1669830429035,blueberries,sushi w_condiments,0.0,0.06,0.06,blueberries,785.4000000059605,790,790.2000000178814,True,u,89992.90000000596,1295.2000000178814,1669830430330,1295,HRV,HRV_0031,2022-11-30 17:50:09
56,"[{'imgObject': {}, 'id': 'raisin bran w milk', 'src': '/static/foodstim60/raisin bran w milk.jpg', 'key': 'u', 'origWidth': 411, 'origHeight': 411, 'width': 411, 'height': 411, 'widthPercent': 0.45, 'rescaleHeight': False, 'trialN': 56, 'loaded': True, 'loadedTime': 89994.79999998212, 'positionName': 'LEFT', 'positionCoords': [280.2, 244.5], 'bid': 0.09}, {'imgObject': {}, 'id': 'olives', 'src': '/static/foodstim60/olives.jpg', 'key': 'i', 'origWidth': 410, 'origHeight': 410, 'width': 410, 'height': 410, 'widthPercent': 0.45, 'rescaleHeight': False, 'trialN': 56, 'loaded': True, 'loadedTime': 89995.19999998808, 'positionName': 'RIGHT', 'positionCoords': [748.8, 245], 'bid': 0.09}]",89993.40000000596,1669830430330,raisin bran w milk,olives,0.09,0.09,0.0,raisin bran w milk,1033.5999999940395,1039,1038.5,True,u,91536.90000000596,1543.5,1669830431874,1544,HRV,HRV_0031,2022-11-30 17:50:09
57,"[{'imgObject': {}, 'id': 'froot loops w milk', 'src': '/static/foodstim60/froot loops w milk.jpg', 'key': 'u', 'origWidth': 410, 'origHeight': 410, 'width': 410, 'height': 410, 'widthPercent': 0.45, 'rescaleHeight': False, 'trialN': 57, 'loaded': True, 'loadedTime': 91539.09999999404, 'positionName': 'LEFT', 'positionCoords': [281.2, 245], 'bid': 9.94}, {'imgObject': {}, 'id': 'mac & cheese', 'src': '/static/foodstim60/mac & cheese.jpg', 'key': 'i', 'origWidth': 410, 'origHeight': 410, 'width': 410, 'height': 410, 'widthPercent': 0.45, 'rescaleHeight': False, 'trialN': 57, 'loaded': True, 'loadedTime': 91539.5, 'positionName': 'RIGHT', 'positionCoords': [748.8, 245], 'bid': 9.95}]",91537.5,1669830431875,froot loops w milk,mac & cheese,9.94,9.95,0.009999999999999787,mac & cheese,606.5999999940395,611,611.6999999880791,True,i,92650.40000000596,1112.9000000059605,1669830432987,1112,HRV,HRV_0031,2022-11-30 17:50:09
58,"[{'imgObject': {}, 'id': 'avocado', 'src': '/static/foodstim60/avocado.jpg', 'key': 'u', 'origWidth': 409, 'origHeight': 409, 'width': 409, 'height': 409, 'widthPercent': 0.45, 'rescaleHeight': False, 'trialN': 58, 'loaded': True, 'loadedTime': 92654.29999998212, 'positionName': 'LEFT', 'positionCoords': [282.2, 245.5], 'bid': 0.05}, {'imgObject': {}, 'id': 'lox', 'src': '/static/foodstim60/lox.jpg', 'key': 'i', 'origWidth': 410, 'origHeight': 411, 'width': 410, 'height': 411, 'widthPercent': 0.45, 'rescaleHeight': False, 'trialN': 58, 'loaded': True, 'loadedTime': 92654.59999999404, 'positionName': 'RIGHT', 'positionCoords': [748.8, 244.5], 'bid': 0.06}]",92651.29999998212,1669830432988,avocado,lox,0.05,0.06,0.009999999999999995,avocado,622.5,626,626.0,True,u,93779.40000000596,1128.1000000238419,1669830434116,1128,HRV,HRV_0031,2022-11-30 17:50:09
59,"[{'imgObject': {}, 'id': 'grilled chicken strips', 'src': '/static/foodstim60/grilled chicken strips.jpg', 'key': 'u', 'origWidth': 410, 'origHeight': 411, 'width': 410, 'height': 411, 'widthPercent': 0.45, 'rescaleHeight': False, 'trialN': 59, 'loaded': True, 'loadedTime': 93783.40000000596, 'positionName': 'LEFT', 'positionCoords': [281.2, 244.5], 'bid': 9.95}, {'imgObject': {}, 'id': 'rigatoni', 'src': '/static/foodstim60/rigatoni.jpg', 'key': 'i', 'origWidth': 411, 'origHeight': 411, 'width': 411, 'height': 411, 'widthPercent': 0.45, 'rescaleHeight': False, 'trialN': 59, 'loaded': True, 'loadedTime': 93783.69999998808, 'positionName': 'RIGHT', 'positionCoords': [748.8, 244.5], 'bid': 6.88}]",93780.40000000596,1669830434117,grilled chicken strips,rigatoni,9.95,6.88,-3.0699999999999994,grilled chicken strips,1218.8999999761581,1224,1224.0999999940395,True,u,95509.40000000596,1729.0,1669830435846,1729,HRV,HRV_0031,2022-11-30 17:50:09
60,"[{'imgObject': {}, 'id': 'strawberries', 'src': '/static/foodstim60/strawberries.jpg', 'key': 'u', 'origWidth': 410, 'origHeight': 410, 'width': 410, 'height': 410, 'widthPercent': 0.45, 'rescaleHeight': False, 'trialN': 60, 'loaded': True, 'loadedTime': 95510.59999999404, 'positionName': 'LEFT', 'positionCoords': [281.2, 245], 'bid': 5.0200000000000005}, {'imgObject': {}, 'id': 'Grapes', 'src': '/static/foodstim60/Grapes.jpg', 'key': 'i', 'origWidth': 411, 'origHeight': 411, 'width': 411, 'height': 411, 'widthPercent': 0.45, 'rescaleHeight': False, 'trialN': 60, 'loaded': True, 'loadedTime': 95510.69999998808, 'positionName': 'RIGHT', 'positionCoords': [748.8, 244.5], 'bid': 1.68}]",95510.0,1669830435847,strawberries,Grapes,5.0200000000000005,1.68,-3.3400000000000007,strawberries,788.1999999880791,793,793.0999999940395,True,u,96807.59999999404,1297.5999999940395,1669830437145,1298,HRV,HRV_0031,2022-11-30 17:50:09
61,"[{'imgObject': {}, 'id': 'tacos', 'src': '/static/foodstim60/tacos.jpg', 'key': 'u', 'origWidth': 411, 'origHeight': 411, 'width': 411, 'height': 411, 'widthPercent': 0.45, 'rescaleHeight': False, 'trialN': 61, 'loaded': True, 'loadedTime': 96811.40000000596, 'positionName': 'LEFT', 'positionCoords': [280.2, 244.5], 'bid': 1.47}, {'imgObject': {}, 'id': 'pear', 'src': '/static/foodstim60/pear.jpg', 'key': 'i', 'origWidth': 411, 'origHeight': 410, 'width': 411, 'height': 410, 'widthPercent': 0.45, 'rescaleHeight': False, 'trialN': 61, 'loaded': True, 'loadedTime': 96811.69999998808, 'positionName': 'RIGHT', 'positionCoords': [748.8, 245], 'bid': 1.52}]",96808.5,1669830437145,tacos,pear,1.47,1.52,0.050000000000000044,pear,1354.5,1360,1359.4000000059605,True,i,98672.79999998212,1864.2999999821186,1669830439010,1865,HRV,HRV_0031,2022-11-30 17:50:09
62,"[{'imgObject': {}, 'id': 'sweetpotato', 'src': '/static/foodstim60/sweetpotato.jpg', 'key': 'u', 'origWidth': 410, 'origHeight': 410, 'width': 410, 'height': 410, 'widthPercent': 0.45, 'rescaleHeight': False, 'trialN': 62, 'loaded': True, 'loadedTime': 98676.79999998212, 'positionName': 'LEFT', 'positionCoords': [281.2, 245], 'bid': 0.02}, {'imgObject': {}, 'id': 'mashed potato', 'src': '/static/foodstim60/mashed potato.jpg', 'key': 'i', 'origWidth': 409, 'origHeight': 409, 'width': 409, 'height': 409, 'widthPercent': 0.45, 'rescaleHeight': False, 'trialN': 62, 'loaded': True, 'loadedTime': 98677.09999999404, 'positionName': 'RIGHT', 'positionCoords': [748.8, 245.5], 'bid': 0.08}]",98673.69999998808,1669830439011,sweetpotato,mashed potato,0.02,0.08,0.06,mashed potato,1745.5,1751,1751.0999999940395,True,i,100929.90000000596,2256.2000000178814,1669830441267,2256,HRV,HRV_0031,2022-11-30 17:50:09
63,"[{'imgObject': {}, 'id': 'olives', 'src': '/static/foodstim60/olives.jpg', 'key': 'u', 'origWidth': 410, 'origHeight': 410, 'width': 410, 'height': 410, 'widthPercent': 0.45, 'rescaleHeight': False, 'trialN': 63, 'loaded': True, 'loadedTime': 100933.59999999404, 'positionName': 'LEFT', 'positionCoords': [281.2, 245], 'bid': 0.09}, {'imgObject': {}, 'id': 'fried eggs', 'src': '/static/foodstim60/fried eggs.jpg', 'key': 'i', 'origWidth': 410, 'origHeight': 410, 'width': 410, 'height': 410, 'widthPercent': 0.45, 'rescaleHeight': False, 'trialN': 63, 'loaded': True, 'loadedTime': 100933.90000000596, 'positionName': 'RIGHT', 'positionCoords': [748.8, 245], 'bid': 0.08}]",100930.59999999404,1669830441267,olives,fried eggs,0.09,0.08,-0.009999999999999995,fried eggs,1002.4000000059605,1008,1007.4000000059605,True,i,102438.40000000596,1507.800000011921,1669830442775,1508,HRV,HRV_0031,2022-11-30 17:50:09
64,"[{'imgObject': {}, 'id': 'hotdog w must', 'src': '/static/foodstim60/hotdog w must.jpg', 'key': 'u', 'origWidth': 409, 'origHeight': 409, 'width': 409, 'height': 409, 'widthPercent': 0.45, 'rescaleHeight': False, 'trialN': 64, 'loaded': True, 'loadedTime': 102442, 'positionName': 'LEFT', 'positionCoords': [282.2, 245.5], 'bid': 8.72}, {'imgObject': {}, 'id': 'luckycharms', 'src': '/static/foodstim60/luckycharms.jpg', 'key': 'i', 'origWidth': 410, 'origHeight': 409, 'width': 410, 'height': 409, 'widthPercent': 0.45, 'rescaleHeight': False, 'trialN': 64, 'loaded': True, 'loadedTime': 102442.40000000596, 'positionName': 'RIGHT', 'positionCoords': [748.8, 245.5], 'bid': 9.86}]",102439.29999998212,1669830442776,hotdog w must,luckycharms,8.72,9.86,1.1399999999999988,hotdog w must,832.4000000059605,835,834.8000000119209,True,u,103776.69999998808,1337.4000000059605,1669830444113,1337,HRV,HRV_0031,2022-11-30 17:50:09
65,"[{'imgObject': {}, 'id': 'baked potato', 'src': '/static/foodstim60/baked potato.jpg', 'key': 'u', 'origWidth': 409, 'origHeight': 410, 'width': 409, 'height': 410, 'widthPercent': 0.45, 'rescaleHeight': False, 'trialN': 65, 'loaded': True, 'loadedTime': 103780.5, 'positionName': 'LEFT', 'positionCoords': [282.2, 245], 'bid': 9.87}, {'imgObject': {}, 'id': 'froot loops w milk', 'src': '/static/foodstim60/froot loops w milk.jpg', 'key': 'i', 'origWidth': 410, 'origHeight': 410, 'width': 410, 'height': 410, 'widthPercent': 0.45, 'rescaleHeight': False, 'trialN': 65, 'loaded': True, 'loadedTime': 103780.90000000596, 'positionName': 'RIGHT', 'positionCoords': [748.8, 245], 'bid': 9.94}]",103777.5,1669830444114,baked potato,froot loops w milk,9.87,9.94,0.07000000000000028,baked potato,962.1999999880791,967,967.0999999940395,True,u,105247.19999998808,1469.699999988079,1669830445584,1470,HRV,HRV_0031,2022-11-30 17:50:09
66,"[{'imgObject': {}, 'id': 'turkeysandwich', 'src': '/static/foodstim60/turkeysandwich.jpg', 'key': 'u', 'origWidth': 409, 'origHeight': 409, 'width': 409, 'height': 409, 'widthPercent': 0.45, 'rescaleHeight': False, 'trialN': 66, 'loaded': True, 'loadedTime': 105248.40000000596, 'positionName': 'LEFT', 'positionCoords': [282.2, 245.5], 'bid': 0.12}, {'imgObject': {}, 'id': 'yogurt no spoon', 'src': '/static/foodstim60/yogurt no spoon.jpg', 'key': 'i', 'origWidth': 411, 'origHeight': 410, 'width': 411, 'height': 410, 'widthPercent': 0.45, 'rescaleHeight': False, 'trialN': 66, 'loaded': True, 'loadedTime': 105248.59999999404, 'positionName': 'RIGHT', 'positionCoords': [748.8, 245], 'bid': 0.12}]",105247.59999999404,1669830445584,turkeysandwich,yogurt no spoon,0.12,0.12,0.0,turkeysandwich,1325.300000011921,1330,1330.0,True,u,107080.5,1832.9000000059605,1669830447417,1833,HRV,HRV_0031,2022-11-30 17:50:09
67,"[{'imgObject': {}, 'id': 'rigatoni', 'src': '/static/foodstim60/rigatoni.jpg', 'key': 'u', 'origWidth': 411, 'origHeight': 411, 'width': 411, 'height': 411, 'widthPercent': 0.45, 'rescaleHeight': False, 'trialN': 67, 'loaded': True, 'loadedTime': 107082, 'positionName': 'LEFT', 'positionCoords': [280.2, 244.5], 'bid': 6.88}, {'imgObject': {}, 'id': 'bagel and cc', 'src': '/static/foodstim60/bagel and cc.jpg', 'key': 'i', 'origWidth': 410, 'origHeight': 410, 'width': 410, 'height': 410, 'widthPercent': 0.45, 'rescaleHeight': False, 'trialN': 67, 'loaded': True, 'loadedTime': 107082.19999998808, 'positionName': 'RIGHT', 'positionCoords': [748.8, 245], 'bid': 7.47}]",107080.90000000596,1669830447418,rigatoni,bagel and cc,6.88,7.47,0.5899999999999999,rigatoni,1099.699999988079,1104,1104.8999999761581,True,u,108686.5,1605.5999999940395,1669830449023,1605,HRV,HRV_0031,2022-11-30 17:50:09
68,"[{'imgObject': {}, 'id': 'cherries', 'src': '/static/foodstim60/cherries.jpg', 'key': 'u', 'origWidth': 410, 'origHeight': 411, 'width': 410, 'height': 411, 'widthPercent': 0.45, 'rescaleHeight': False, 'trialN': 68, 'loaded': True, 'loadedTime': 108690.40000000596, 'positionName': 'LEFT', 'positionCoords': [281.2, 244.5], 'bid': 0.13}, {'imgObject': {}, 'id': 'cantaloupe', 'src': '/static/foodstim60/cantaloupe.jpg', 'key': 'i', 'origWidth': 409, 'origHeight': 409, 'width': 409, 'height': 409, 'widthPercent': 0.45, 'rescaleHeight': False, 'trialN': 68, 'loaded': True, 'loadedTime': 108690.59999999404, 'positionName': 'RIGHT', 'positionCoords': [748.8, 245.5], 'bid': 0.15}]",108687.5,1669830449024,cherries,cantaloupe,0.13,0.15,0.01999999999999999,cantaloupe,905.2999999821186,912,912.1999999880791,True,i,110104.19999998808,1416.699999988079,1669830450441,1417,HRV,HRV_0031,2022-11-30 17:50:09
69,"[{'imgObject': {}, 'id': 'grilled chicken strips', 'src': '/static/foodstim60/grilled chicken strips.jpg', 'key': 'u', 'origWidth': 410, 'origHeight': 411, 'width': 410, 'height': 411, 'widthPercent': 0.45, 'rescaleHeight': False, 'trialN': 69, 'loaded': True, 'loadedTime': 110108, 'positionName': 'LEFT', 'positionCoords': [281.2, 244.5], 'bid': 9.95}, {'imgObject': {}, 'id': 'roastedpotatoes', 'src': '/static/foodstim60/roastedpotatoes.jpg', 'key': 'i', 'origWidth': 409, 'origHeight': 410, 'width': 409, 'height': 410, 'widthPercent': 0.45, 'rescaleHeight': False, 'trialN': 69, 'loaded': True, 'loadedTime': 110108.40000000596, 'positionName': 'RIGHT', 'positionCoords': [748.8, 245], 'bid': 9.9}]",110105.09999999404,1669830450442,grilled chicken strips,roastedpotatoes,9.95,9.9,-0.049999999999998934,grilled chicken strips,698.6999999880791,704,704.0999999940395,True,u,111312.0,1206.9000000059605,1669830451649,1207,HRV,HRV_0031,2022-11-30 17:50:09
70,"[{'imgObject': {}, 'id': 'fruitsalad', 'src': '/static/foodstim60/fruitsalad.jpg', 'key': 'u', 'origWidth': 410, 'origHeight': 410, 'width': 410, 'height': 410, 'widthPercent': 0.45, 'rescaleHeight': False, 'trialN': 70, 'loaded': True, 'loadedTime': 111314.19999998808, 'positionName': 'LEFT', 'positionCoords': [281.2, 245], 'bid': 1.09}, {'imgObject': {}, 'id': 'burger', 'src': '/static/foodstim60/burger.jpg', 'key': 'i', 'origWidth': 409, 'origHeight': 409, 'width': 409, 'height': 409, 'widthPercent': 0.45, 'rescaleHeight': False, 'trialN': 70, 'loaded': True, 'loadedTime': 111314.5, 'positionName': 'RIGHT', 'positionCoords': [748.8, 245.5], 'bid': 1.02}]",111312.5,1669830451649,fruitsalad,burger,1.09,1.02,-0.07000000000000006,burger,891.4000000059605,896,896.1999999880791,True,i,112712.0,1399.5,1669830453049,1400,HRV,HRV_0031,2022-11-30 17:50:09
71,"[{'imgObject': {}, 'id': 'popsicles', 'src': '/static/foodstim60/popsicles.jpg', 'key': 'u', 'origWidth': 410, 'origHeight': 410, 'width': 410, 'height': 410, 'widthPercent': 0.45, 'rescaleHeight': False, 'trialN': 71, 'loaded': True, 'loadedTime': 112715.79999998212, 'positionName': 'LEFT', 'positionCoords': [281.2, 245], 'bid': 9.95}, {'imgObject': {}, 'id': 'corn cob', 'src': '/static/foodstim60/corn cob.jpg', 'key': 'i', 'origWidth': 411, 'origHeight': 411, 'width': 411, 'height': 411, 'widthPercent': 0.45, 'rescaleHeight': False, 'trialN': 71, 'loaded': True, 'loadedTime': 112716.09999999404, 'positionName': 'RIGHT', 'positionCoords': [748.8, 244.5], 'bid': 9.9}]",112712.90000000596,1669830453050,popsicles,corn cob,9.95,9.9,-0.049999999999998934,popsicles,1140.5,1144,1144.7999999821186,True,u,114362.69999998808,1649.7999999821186,1669830454699,1649,HRV,HRV_0031,2022-11-30 17:50:09
72,"[{'imgObject': {}, 'id': 'mac & cheese', 'src': '/static/foodstim60/mac & cheese.jpg', 'key': 'u', 'origWidth': 410, 'origHeight': 410, 'width': 410, 'height': 410, 'widthPercent': 0.45, 'rescaleHeight': False, 'trialN': 72, 'loaded': True, 'loadedTime': 114366.29999998212, 'positionName': 'LEFT', 'positionCoords': [281.2, 245], 'bid': 9.95}, {'imgObject': {}, 'id': 'turkeysandwich', 'src': '/static/foodstim60/turkeysandwich.jpg', 'key': 'i', 'origWidth': 409, 'origHeight': 409, 'width': 409, 'height': 409, 'widthPercent': 0.45, 'rescaleHeight': False, 'trialN': 72, 'loaded': True, 'loadedTime': 114366.59999999404, 'positionName': 'RIGHT', 'positionCoords': [748.8, 245.5], 'bid': 0.12}]",114363.59999999404,1669830454700,mac & cheese,turkeysandwich,9.95,0.12,-9.83,mac & cheese,749.8000000119209,752,751.5999999940395,True,u,115617.19999998808,1253.5999999940395,1669830455954,1254,HRV,HRV_0031,2022-11-30 17:50:09
73,"[{'imgObject': {}, 'id': 'chicken nuggets2', 'src': '/static/foodstim60/chicken nuggets2.jpg', 'key': 'u', 'origWidth': 410, 'origHeight': 409, 'width': 410, 'height': 409, 'widthPercent': 0.45, 'rescaleHeight': False, 'trialN': 73, 'loaded': True, 'loadedTime': 115621, 'positionName': 'LEFT', 'positionCoords': [281.2, 245.5], 'bid': 9.9}, {'imgObject': {}, 'id': 'baked potato', 'src': '/static/foodstim60/baked potato.jpg', 'key': 'i', 'origWidth': 409, 'origHeight': 410, 'width': 409, 'height': 410, 'widthPercent': 0.45, 'rescaleHeight': False, 'trialN': 73, 'loaded': True, 'loadedTime': 115621.29999998212, 'positionName': 'RIGHT', 'positionCoords': [748.8, 245], 'bid': 9.87}]",115618.09999999404,1669830455955,chicken nuggets2,baked potato,9.9,9.87,-0.030000000000001137,chicken nuggets2,981.3000000119209,985,985.6999999880791,True,u,117105.59999999404,1487.5,1669830457442,1487,HRV,HRV_0031,2022-11-30 17:50:09
74,"[{'imgObject': {}, 'id': 'turkeysandwich', 'src': '/static/foodstim60/turkeysandwich.jpg', 'key': 'u', 'origWidth': 409, 'origHeight': 409, 'width': 409, 'height': 409, 'widthPercent': 0.45, 'rescaleHeight': False, 'trialN': 74, 'loaded': True, 'loadedTime': 117106.90000000596, 'positionName': 'LEFT', 'positionCoords': [282.2, 245.5], 'bid': 0.12}, {'imgObject': {}, 'id': 'avocado', 'src': '/static/foodstim60/avocado.jpg', 'key': 'i', 'origWidth': 409, 'origHeight': 409, 'width': 409, 'height': 409, 'widthPercent': 0.45, 'rescaleHeight': False, 'trialN': 74, 'loaded': True, 'loadedTime': 117107, 'positionName': 'RIGHT', 'positionCoords': [748.8, 245.5], 'bid': 0.05}]",117106.0,1669830457442,turkeysandwich,avocado,0.12,0.05,-0.06999999999999999,turkeysandwich,958.5,964,963.1999999880791,True,u,118570.59999999404,1464.5999999940395,1669830458907,1465,HRV,HRV_0031,2022-11-30 17:50:09
75,"[{'imgObject': {}, 'id': 'chicken nuggets2', 'src': '/static/foodstim60/chicken nuggets2.jpg', 'key': 'u', 'origWidth': 410, 'origHeight': 409, 'width': 410, 'height': 409, 'widthPercent': 0.45, 'rescaleHeight': False, 'trialN': 75, 'loaded': True, 'loadedTime': 118574.40000000596, 'positionName': 'LEFT', 'positionCoords': [281.2, 245.5], 'bid': 9.9}, {'imgObject': {}, 'id': 'mac & cheese', 'src': '/static/foodstim60/mac & cheese.jpg', 'key': 'i', 'origWidth': 410, 'origHeight': 410, 'width': 410, 'height': 410, 'widthPercent': 0.45, 'rescaleHeight': False, 'trialN': 75, 'loaded': True, 'loadedTime': 118574.79999998212, 'positionName': 'RIGHT', 'positionCoords': [748.8, 245], 'bid': 9.95}]",118571.5,1669830458908,chicken nuggets2,mac & cheese,9.9,9.95,0.049999999999998934,mac & cheese,838.7999999821186,841,841.0,True,i,119914.09999999404,1342.5999999940395,1669830460251,1343,HRV,HRV_0031,2022-11-30 17:50:09
76,"[{'imgObject': {}, 'id': 'tacos', 'src': '/static/foodstim60/tacos.jpg', 'key': 'u', 'origWidth': 411, 'origHeight': 411, 'width': 411, 'height': 411, 'widthPercent': 0.45, 'rescaleHeight': False, 'trialN': 76, 'loaded': True, 'loadedTime': 119917.90000000596, 'positionName': 'LEFT', 'positionCoords': [280.2, 244.5], 'bid': 1.47}, {'imgObject': {}, 'id': 'luckycharms', 'src': '/static/foodstim60/luckycharms.jpg', 'key': 'i', 'origWidth': 410, 'origHeight': 409, 'width': 410, 'height': 409, 'widthPercent': 0.45, 'rescaleHeight': False, 'trialN': 76, 'loaded': True, 'loadedTime': 119918.29999998212, 'positionName': 'RIGHT', 'positionCoords': [748.8, 245.5], 'bid': 9.86}]",119915.0,1669830460252,tacos,luckycharms,1.47,9.86,8.389999999999999,luckycharms,713.9000000059605,718,718.2999999821186,True,i,121134.0,1219.0,1669830461470,1218,HRV,HRV_0031,2022-11-30 17:50:09
77,"[{'imgObject': {}, 'id': 'ice cream sundae 002', 'src': '/static/foodstim60/ice cream sundae 002.jpg', 'key': 'u', 'origWidth': 409, 'origHeight': 409, 'width': 409, 'height': 409, 'widthPercent': 0.45, 'rescaleHeight': False, 'trialN': 77, 'loaded': True, 'loadedTime': 121135.19999998808, 'positionName': 'LEFT', 'positionCoords': [282.2, 245.5], 'bid': 4.93}, {'imgObject': {}, 'id': 'orange slices', 'src': '/static/foodstim60/orange slices.jpg', 'key': 'i', 'origWidth': 409, 'origHeight': 410, 'width': 409, 'height': 410, 'widthPercent': 0.45, 'rescaleHeight': False, 'trialN': 77, 'loaded': True, 'loadedTime': 121135.40000000596, 'positionName': 'RIGHT', 'positionCoords': [748.8, 245], 'bid': 4.93}]",121134.29999998212,1669830461471,ice cream sundae 002,orange slices,4.93,4.93,0.0,orange slices,1484.0,1489,1489.4000000059605,True,i,123128.69999998808,1994.4000000059605,1669830463465,1994,HRV,HRV_0031,2022-11-30 17:50:09
78,"[{'imgObject': {}, 'id': 'pear', 'src': '/static/foodstim60/pear.jpg', 'key': 'u', 'origWidth': 411, 'origHeight': 410, 'width': 411, 'height': 410, 'widthPercent': 0.45, 'rescaleHeight': False, 'trialN': 78, 'loaded': True, 'loadedTime': 123132.5, 'positionName': 'LEFT', 'positionCoords': [280.2, 245], 'bid': 1.52}, {'imgObject': {}, 'id': 'blackbeanswithrice', 'src': '/static/foodstim60/blackbeanswithrice.jpg', 'key': 'i', 'origWidth': 410, 'origHeight': 410, 'width': 410, 'height': 410, 'widthPercent': 0.45, 'rescaleHeight': False, 'trialN': 78, 'loaded': True, 'loadedTime': 123132.90000000596, 'positionName': 'RIGHT', 'positionCoords': [748.8, 245], 'bid': 0.12}]",123129.59999999404,1669830463466,pear,blackbeanswithrice,1.52,0.12,-1.4,pear,749.1999999880791,754,754.0,True,u,124388.59999999404,1259.0,1669830464725,1259,HRV,HRV_0031,2022-11-30 17:50:09
79,"[{'imgObject': {}, 'id': 'mashed potato', 'src': '/static/foodstim60/mashed potato.jpg', 'key': 'u', 'origWidth': 409, 'origHeight': 409, 'width': 409, 'height': 409, 'widthPercent': 0.45, 'rescaleHeight': False, 'trialN': 79, 'loaded': True, 'loadedTime': 124392.5, 'positionName': 'LEFT', 'positionCoords': [282.2, 245.5], 'bid': 0.08}, {'imgObject': {}, 'id': 'eggs', 'src': '/static/foodstim60/eggs.jpg', 'key': 'i', 'origWidth': 409, 'origHeight': 409, 'width': 409, 'height': 409, 'widthPercent': 0.45, 'rescaleHeight': False, 'trialN': 79, 'loaded': True, 'loadedTime': 124392.90000000596, 'positionName': 'RIGHT', 'positionCoords': [748.8, 245.5], 'bid': 0.09}]",124389.5,1669830464726,mashed potato,eggs,0.08,0.09,0.009999999999999995,mashed potato,1141.5999999940395,1147,1146.5999999940395,True,u,126036.90000000596,1647.4000000059605,1669830466373,1647,HRV,HRV_0031,2022-11-30 17:50:09
80,"[{'imgObject': {}, 'id': 'hashbrowns', 'src': '/static/foodstim60/hashbrowns.jpg', 'key': 'u', 'origWidth': 411, 'origHeight': 410, 'width': 411, 'height': 410, 'widthPercent': 0.45, 'rescaleHeight': False, 'trialN': 80, 'loaded': True, 'loadedTime': 126040.90000000596, 'positionName': 'LEFT', 'positionCoords': [280.2, 245], 'bid': 0.16}, {'imgObject': {}, 'id': 'raisin bran w milk', 'src': '/static/foodstim60/raisin bran w milk.jpg', 'key': 'i', 'origWidth': 411, 'origHeight': 411, 'width': 411, 'height': 411, 'widthPercent': 0.45, 'rescaleHeight': False, 'trialN': 80, 'loaded': True, 'loadedTime': 126041.19999998808, 'positionName': 'RIGHT', 'positionCoords': [748.8, 244.5], 'bid': 0.09}]",126037.90000000596,1669830466374,hashbrowns,raisin bran w milk,0.16,0.09,-0.07,hashbrowns,1056.699999988079,1061,1061.199999988079,True,u,127604.09999999404,1566.199999988079,1669830467940,1566,HRV,HRV_0031,2022-11-30 17:50:09
81,"[{'imgObject': {}, 'id': 'salad w chicken', 'src': '/static/foodstim60/salad w chicken.jpg', 'key': 'u', 'origWidth': 411, 'origHeight': 411, 'width': 411, 'height': 411, 'widthPercent': 0.45, 'rescaleHeight': False, 'trialN': 81, 'loaded': True, 'loadedTime': 127606, 'positionName': 'LEFT', 'positionCoords': [280.2, 244.5], 'bid': 0}, {'imgObject': {}, 'id': 'raspberries', 'src': '/static/foodstim60/raspberries.jpg', 'key': 'i', 'origWidth': 411, 'origHeight': 411, 'width': 411, 'height': 411, 'widthPercent': 0.45, 'rescaleHeight': False, 'trialN': 81, 'loaded': True, 'loadedTime': 127606.29999998212, 'positionName': 'RIGHT', 'positionCoords': [748.8, 244.5], 'bid': 0}]",127604.59999999404,1669830467941,salad w chicken,raspberries,0.0,0.0,0.0,salad w chicken,976.6999999880791,981,981.4000000059605,True,u,129091.0,1486.4000000059605,1669830469427,1486,HRV,HRV_0031,2022-11-30 17:50:09
82,"[{'imgObject': {}, 'id': 'strawberries', 'src': '/static/foodstim60/strawberries.jpg', 'key': 'u', 'origWidth': 410, 'origHeight': 410, 'width': 410, 'height': 410, 'widthPercent': 0.45, 'rescaleHeight': False, 'trialN': 82, 'loaded': True, 'loadedTime': 129094.90000000596, 'positionName': 'LEFT', 'positionCoords': [281.2, 245], 'bid': 5.0200000000000005}, {'imgObject': {}, 'id': 'roastedpotatoes', 'src': '/static/foodstim60/roastedpotatoes.jpg', 'key': 'i', 'origWidth': 409, 'origHeight': 410, 'width': 409, 'height': 410, 'widthPercent': 0.45, 'rescaleHeight': False, 'trialN': 82, 'loaded': True, 'loadedTime': 129095.19999998808, 'positionName': 'RIGHT', 'positionCoords': [748.8, 245], 'bid': 9.9}]",129091.79999998212,1669830469428,strawberries,roastedpotatoes,5.0200000000000005,9.9,4.88,roastedpotatoes,1004.6000000238419,1010,1009.5,True,i,130602.0,1510.2000000178814,1669830470938,1510,HRV,HRV_0031,2022-11-30 17:50:09
83,"[{'imgObject': {}, 'id': 'burger', 'src': '/static/foodstim60/burger.jpg', 'key': 'u', 'origWidth': 409, 'origHeight': 409, 'width': 409, 'height': 409, 'widthPercent': 0.45, 'rescaleHeight': False, 'trialN': 83, 'loaded': True, 'loadedTime': 130606.09999999404, 'positionName': 'LEFT', 'positionCoords': [282.2, 245.5], 'bid': 1.02}, {'imgObject': {}, 'id': 'burrito', 'src': '/static/foodstim60/burrito.jpg', 'key': 'i', 'origWidth': 410, 'origHeight': 410, 'width': 410, 'height': 410, 'widthPercent': 0.45, 'rescaleHeight': False, 'trialN': 83, 'loaded': True, 'loadedTime': 130606.40000000596, 'positionName': 'RIGHT', 'positionCoords': [748.8, 245], 'bid': 0.09}]",130602.90000000596,1669830470939,burger,burrito,1.02,0.09,-0.93,burger,860.0,865,864.3999999761581,True,u,131968.90000000596,1366.0,1669830472305,1366,HRV,HRV_0031,2022-11-30 17:50:09
84,"[{'imgObject': {}, 'id': 'grilled chicken strips', 'src': '/static/foodstim60/grilled chicken strips.jpg', 'key': 'u', 'origWidth': 410, 'origHeight': 411, 'width': 410, 'height': 411, 'widthPercent': 0.45, 'rescaleHeight': False, 'trialN': 84, 'loaded': True, 'loadedTime': 131973, 'positionName': 'LEFT', 'positionCoords': [281.2, 244.5], 'bid': 9.95}, {'imgObject': {}, 'id': 'luckycharms', 'src': '/static/foodstim60/luckycharms.jpg', 'key': 'i', 'origWidth': 410, 'origHeight': 409, 'width': 410, 'height': 409, 'widthPercent': 0.45, 'rescaleHeight': False, 'trialN': 84, 'loaded': True, 'loadedTime': 131973.19999998808, 'positionName': 'RIGHT', 'positionCoords': [748.8, 245.5], 'bid': 9.86}]",131969.90000000596,1669830472306,grilled chicken strips,luckycharms,9.95,9.86,-0.08999999999999986,grilled chicken strips,744.2999999821186,750,750.0,True,u,133224.90000000596,1255.0,1669830473561,1255,HRV,HRV_0031,2022-11-30 17:50:09
85,"[{'imgObject': {}, 'id': 'fried eggs', 'src': '/static/foodstim60/fried eggs.jpg', 'key': 'u', 'origWidth': 410, 'origHeight': 410, 'width': 410, 'height': 410, 'widthPercent': 0.45, 'rescaleHeight': False, 'trialN': 85, 'loaded': True, 'loadedTime': 133228.09999999404, 'positionName': 'LEFT', 'positionCoords': [281.2, 245], 'bid': 0.08}, {'imgObject': {}, 'id': 'mango', 'src': '/static/foodstim60/mango.jpg', 'key': 'i', 'origWidth': 411, 'origHeight': 411, 'width': 411, 'height': 411, 'widthPercent': 0.45, 'rescaleHeight': False, 'trialN': 85, 'loaded': True, 'loadedTime': 133228.59999999404, 'positionName': 'RIGHT', 'positionCoords': [748.8, 244.5], 'bid': 0.08}]",133225.59999999404,1669830473562,fried eggs,mango,0.08,0.08,0.0,fried eggs,1040.0,1044,1044.5,True,u,134775.09999999404,1549.5,1669830475111,1549,HRV,HRV_0031,2022-11-30 17:50:09
86,"[{'imgObject': {}, 'id': 'olives', 'src': '/static/foodstim60/olives.jpg', 'key': 'u', 'origWidth': 410, 'origHeight': 410, 'width': 410, 'height': 410, 'widthPercent': 0.45, 'rescaleHeight': False, 'trialN': 86, 'loaded': True, 'loadedTime': 134779.19999998808, 'positionName': 'LEFT', 'positionCoords': [281.2, 245], 'bid': 0.09}, {'imgObject': {}, 'id': 'burrito', 'src': '/static/foodstim60/burrito.jpg', 'key': 'i', 'origWidth': 410, 'origHeight': 410, 'width': 410, 'height': 410, 'widthPercent': 0.45, 'rescaleHeight': False, 'trialN': 86, 'loaded': True, 'loadedTime': 134779.5, 'positionName': 'RIGHT', 'positionCoords': [748.8, 245], 'bid': 0.09}]",134776.09999999404,1669830475112,olives,burrito,0.09,0.09,0.0,burrito,684.1999999880791,688,687.9000000059605,True,i,135967.69999998808,1191.5999999940395,1669830476304,1192,HRV,HRV_0031,2022-11-30 17:50:09
87,"[{'imgObject': {}, 'id': 'chicken nuggets2', 'src': '/static/foodstim60/chicken nuggets2.jpg', 'key': 'u', 'origWidth': 410, 'origHeight': 409, 'width': 410, 'height': 409, 'widthPercent': 0.45, 'rescaleHeight': False, 'trialN': 87, 'loaded': True, 'loadedTime': 135971.40000000596, 'positionName': 'LEFT', 'positionCoords': [281.2, 245.5], 'bid': 9.9}, {'imgObject': {}, 'id': 'turkey sandwich', 'src': '/static/foodstim60/turkey sandwich.jpg', 'key': 'i', 'origWidth': 409, 'origHeight': 409, 'width': 409, 'height': 409, 'widthPercent': 0.45, 'rescaleHeight': False, 'trialN': 87, 'loaded': True, 'loadedTime': 135971.79999998212, 'positionName': 'RIGHT', 'positionCoords': [748.8, 245.5], 'bid': 1.54}]",135968.59999999404,1669830476305,chicken nuggets2,turkey sandwich,9.9,1.54,-8.36,chicken nuggets2,927.5999999940395,932,932.0999999940395,True,u,137401.09999999404,1432.5,1669830477737,1432,HRV,HRV_0031,2022-11-30 17:50:09
88,"[{'imgObject': {}, 'id': 'blueberries', 'src': '/static/foodstim60/blueberries.jpg', 'key': 'u', 'origWidth': 411, 'origHeight': 411, 'width': 411, 'height': 411, 'widthPercent': 0.45, 'rescaleHeight': False, 'trialN': 88, 'loaded': True, 'loadedTime': 137405, 'positionName': 'LEFT', 'positionCoords': [280.2, 244.5], 'bid': 0}, {'imgObject': {}, 'id': 'eggsalad', 'src': '/static/foodstim60/eggsalad.jpg', 'key': 'i', 'origWidth': 410, 'origHeight': 409, 'width': 410, 'height': 409, 'widthPercent': 0.45, 'rescaleHeight': False, 'trialN': 88, 'loaded': True, 'loadedTime': 137405.40000000596, 'positionName': 'RIGHT', 'positionCoords': [748.8, 245.5], 'bid': 0}]",137402.0,1669830477738,blueberries,eggsalad,0.0,0.0,0.0,blueberries,783.2999999821186,788,788.1999999880791,True,u,138693.09999999404,1291.0999999940395,1669830479029,1291,HRV,HRV_0031,2022-11-30 17:50:09
89,"[{'imgObject': {}, 'id': 'granola w milk', 'src': '/static/foodstim60/granola w milk.jpg', 'key': 'u', 'origWidth': 410, 'origHeight': 410, 'width': 410, 'height': 410, 'widthPercent': 0.45, 'rescaleHeight': False, 'trialN': 89, 'loaded': True, 'loadedTime': 138697.19999998808, 'positionName': 'LEFT', 'positionCoords': [281.2, 245], 'bid': 0.06}, {'imgObject': {}, 'id': 'strawberries', 'src': '/static/foodstim60/strawberries.jpg', 'key': 'i', 'origWidth': 410, 'origHeight': 410, 'width': 410, 'height': 410, 'widthPercent': 0.45, 'rescaleHeight': False, 'trialN': 89, 'loaded': True, 'loadedTime': 138697.40000000596, 'positionName': 'RIGHT', 'positionCoords': [748.8, 245], 'bid': 5.0200000000000005}]",138694.09999999404,1669830479030,granola w milk,strawberries,0.06,5.0200000000000005,4.960000000000001,strawberries,702.0999999940395,706,705.3000000119209,True,i,139901.0,1206.9000000059605,1669830480237,1207,HRV,HRV_0031,2022-11-30 17:50:09
90,"[{'imgObject': {}, 'id': 'olives', 'src': '/static/foodstim60/olives.jpg', 'key': 'u', 'origWidth': 410, 'origHeight': 410, 'width': 410, 'height': 410, 'widthPercent': 0.45, 'rescaleHeight': False, 'trialN': 90, 'loaded': True, 'loadedTime': 142259.19999998808, 'positionName': 'LEFT', 'positionCoords': [281.2, 245], 'bid': 0.09}, {'imgObject': {}, 'id': 'roastedpotatoes', 'src': '/static/foodstim60/roastedpotatoes.jpg', 'key': 'i', 'origWidth': 409, 'origHeight': 410, 'width': 409, 'height': 410, 'widthPercent': 0.45, 'rescaleHeight': False, 'trialN': 90, 'loaded': True, 'loadedTime': 142259.5, 'positionName': 'RIGHT', 'positionCoords': [748.8, 245], 'bid': 9.9}]",142257.79999998212,1669830482594,olives,roastedpotatoes,0.09,9.9,9.81,roastedpotatoes,3318.0,3322,3322.100000023842,True,i,146084.90000000596,3827.100000023842,1669830486421,3827,HRV,HRV_0031,2022-11-30 17:50:09
91,"[{'imgObject': {}, 'id': 'eggs', 'src': '/static/foodstim60/eggs.jpg', 'key': 'u', 'origWidth': 409, 'origHeight': 409, 'width': 409, 'height': 409, 'widthPercent': 0.45, 'rescaleHeight': False, 'trialN': 91, 'loaded': True, 'loadedTime': 146088.59999999404, 'positionName': 'LEFT', 'positionCoords': [282.2, 245.5], 'bid': 0.09}, {'imgObject': {}, 'id': 'cocktailshrimp', 'src': '/static/foodstim60/cocktailshrimp.jpg', 'key': 'i', 'origWidth': 410, 'origHeight': 410, 'width': 410, 'height': 410, 'widthPercent': 0.45, 'rescaleHeight': False, 'trialN': 91, 'loaded': True, 'loadedTime': 146088.79999998212, 'positionName': 'RIGHT', 'positionCoords': [748.8, 245], 'bid': 0.02}]",146085.79999998212,1669830486422,eggs,cocktailshrimp,0.09,0.02,-0.06999999999999999,eggs,829.4000000059605,832,832.6000000238419,True,u,147423.59999999404,1337.800000011921,1669830487760,1338,HRV,HRV_0031,2022-11-30 17:50:09
92,"[{'imgObject': {}, 'id': 'mango', 'src': '/static/foodstim60/mango.jpg', 'key': 'u', 'origWidth': 411, 'origHeight': 411, 'width': 411, 'height': 411, 'widthPercent': 0.45, 'rescaleHeight': False, 'trialN': 92, 'loaded': True, 'loadedTime': 147427.5, 'positionName': 'LEFT', 'positionCoords': [280.2, 244.5], 'bid': 0.08}, {'imgObject': {}, 'id': 'raspberries', 'src': '/static/foodstim60/raspberries.jpg', 'key': 'i', 'origWidth': 411, 'origHeight': 411, 'width': 411, 'height': 411, 'widthPercent': 0.45, 'rescaleHeight': False, 'trialN': 92, 'loaded': True, 'loadedTime': 147427.79999998212, 'positionName': 'RIGHT', 'positionCoords': [748.8, 244.5], 'bid': 0}]",147424.5,1669830487761,mango,raspberries,0.08,0.0,-0.08,raspberries,1056.5999999940395,1060,1060.5999999940395,True,i,148989.90000000596,1565.4000000059605,1669830489326,1565,HRV,HRV_0031,2022-11-30 17:50:09
93,"[{'imgObject': {}, 'id': 'sushi w_condiments', 'src': '/static/foodstim60/sushi w_condiments.jpg', 'key': 'u', 'origWidth': 410, 'origHeight': 410, 'width': 410, 'height': 410, 'widthPercent': 0.45, 'rescaleHeight': False, 'trialN': 93, 'loaded': True, 'loadedTime': 148993.59999999404, 'positionName': 'LEFT', 'positionCoords': [281.2, 245], 'bid': 0.06}, {'imgObject': {}, 'id': 'raisin bran w milk', 'src': '/static/foodstim60/raisin bran w milk.jpg', 'key': 'i', 'origWidth': 411, 'origHeight': 411, 'width': 411, 'height': 411, 'widthPercent': 0.45, 'rescaleHeight': False, 'trialN': 93, 'loaded': True, 'loadedTime': 148993.90000000596, 'positionName': 'RIGHT', 'positionCoords': [748.8, 244.5], 'bid': 0.09}]",148990.79999998212,1669830489327,sushi w_condiments,raisin bran w milk,0.06,0.09,0.03,raisin bran w milk,836.7000000178814,841,841.7000000178814,True,i,150337.29999998212,1346.5,1669830490673,1346,HRV,HRV_0031,2022-11-30 17:50:09
94,"[{'imgObject': {}, 'id': 'fried eggs', 'src': '/static/foodstim60/fried eggs.jpg', 'key': 'u', 'origWidth': 410, 'origHeight': 410, 'width': 410, 'height': 410, 'widthPercent': 0.45, 'rescaleHeight': False, 'trialN': 94, 'loaded': True, 'loadedTime': 150338.40000000596, 'positionName': 'LEFT', 'positionCoords': [281.2, 245], 'bid': 0.08}, {'imgObject': {}, 'id': 'eggsalad', 'src': '/static/foodstim60/eggsalad.jpg', 'key': 'i', 'origWidth': 410, 'origHeight': 409, 'width': 410, 'height': 409, 'widthPercent': 0.45, 'rescaleHeight': False, 'trialN': 94, 'loaded': True, 'loadedTime': 150338.59999999404, 'positionName': 'RIGHT', 'positionCoords': [748.8, 245.5], 'bid': 0}]",150337.59999999404,1669830490674,fried eggs,eggsalad,0.08,0.0,-0.08,fried eggs,1219.199999988079,1224,1224.300000011921,True,u,152066.79999998212,1729.199999988079,1669830492403,1729,HRV,HRV_0031,2022-11-30 17:50:09
95,"[{'imgObject': {}, 'id': 'cheerios', 'src': '/static/foodstim60/cheerios.jpg', 'key': 'u', 'origWidth': 409, 'origHeight': 410, 'width': 409, 'height': 410, 'widthPercent': 0.45, 'rescaleHeight': False, 'trialN': 95, 'loaded': True, 'loadedTime': 152070.69999998808, 'positionName': 'LEFT', 'positionCoords': [282.2, 245], 'bid': 7.33}, {'imgObject': {}, 'id': 'banana', 'src': '/static/foodstim60/banana.jpg', 'key': 'i', 'origWidth': 410, 'origHeight': 410, 'width': 410, 'height': 410, 'widthPercent': 0.45, 'rescaleHeight': False, 'trialN': 95, 'loaded': True, 'loadedTime': 152071, 'positionName': 'RIGHT', 'positionCoords': [748.8, 245], 'bid': 4.8100000000000005}]",152067.69999998808,1669830492404,cheerios,banana,7.33,4.8100000000000005,-2.5199999999999996,cheerios,908.8000000119209,913,913.4000000059605,True,u,153486.09999999404,1418.4000000059605,1669830493822,1418,HRV,HRV_0031,2022-11-30 17:50:09
96,"[{'imgObject': {}, 'id': 'seaweed', 'src': '/static/foodstim60/seaweed.jpg', 'key': 'u', 'origWidth': 410, 'origHeight': 410, 'width': 410, 'height': 410, 'widthPercent': 0.45, 'rescaleHeight': False, 'trialN': 96, 'loaded': True, 'loadedTime': 153489.79999998212, 'positionName': 'LEFT', 'positionCoords': [281.2, 245], 'bid': 0.01}, {'imgObject': {}, 'id': 'kiwi', 'src': '/static/foodstim60/kiwi.jpg', 'key': 'i', 'origWidth': 410, 'origHeight': 410, 'width': 410, 'height': 410, 'widthPercent': 0.45, 'rescaleHeight': False, 'trialN': 96, 'loaded': True, 'loadedTime': 153490.19999998808, 'positionName': 'RIGHT', 'positionCoords': [748.8, 245], 'bid': 0.02}]",153487.0,1669830493823,seaweed,kiwi,0.01,0.02,0.01,kiwi,1218.5999999940395,1224,1223.7999999821186,True,i,155215.79999998212,1728.7999999821186,1669830495552,1729,HRV,HRV_0031,2022-11-30 17:50:09
97,"[{'imgObject': {}, 'id': 'chicken nuggets2', 'src': '/static/foodstim60/chicken nuggets2.jpg', 'key': 'u', 'origWidth': 410, 'origHeight': 409, 'width': 410, 'height': 409, 'widthPercent': 0.45, 'rescaleHeight': False, 'trialN': 97, 'loaded': True, 'loadedTime': 155217.40000000596, 'positionName': 'LEFT', 'positionCoords': [281.2, 245.5], 'bid': 9.9}, {'imgObject': {}, 'id': 'orange slices', 'src': '/static/foodstim60/orange slices.jpg', 'key': 'i', 'origWidth': 409, 'origHeight': 410, 'width': 409, 'height': 410, 'widthPercent': 0.45, 'rescaleHeight': False, 'trialN': 97, 'loaded': True, 'loadedTime': 155217.59999999404, 'positionName': 'RIGHT', 'positionCoords': [748.8, 245], 'bid': 4.93}]",155216.19999998808,1669830495552,chicken nuggets2,orange slices,9.9,4.93,-4.970000000000001,chicken nuggets2,744.0,746,746.5,True,u,156467.79999998212,1251.5999999940395,1669830496804,1252,HRV,HRV_0031,2022-11-30 17:50:09
98,"[{'imgObject': {}, 'id': 'fruitsalad', 'src': '/static/foodstim60/fruitsalad.jpg', 'key': 'u', 'origWidth': 410, 'origHeight': 410, 'width': 410, 'height': 410, 'widthPercent': 0.45, 'rescaleHeight': False, 'trialN': 98, 'loaded': True, 'loadedTime': 156471.90000000596, 'positionName': 'LEFT', 'positionCoords': [281.2, 245], 'bid': 1.09}, {'imgObject': {}, 'id': 'turkeysandwich', 'src': '/static/foodstim60/turkeysandwich.jpg', 'key': 'i', 'origWidth': 409, 'origHeight': 409, 'width': 409, 'height': 409, 'widthPercent': 0.45, 'rescaleHeight': False, 'trialN': 98, 'loaded': True, 'loadedTime': 156472.19999998808, 'positionName': 'RIGHT', 'positionCoords': [748.8, 245.5], 'bid': 0.12}]",156468.79999998212,1669830496805,fruitsalad,turkeysandwich,1.09,0.12,-0.9700000000000001,fruitsalad,915.8000000119209,921,921.2000000178814,True,u,157893.19999998808,1424.4000000059605,1669830498229,1424,HRV,HRV_0031,2022-11-30 17:50:09
99,"[{'imgObject': {}, 'id': 'bagel plain', 'src': '/static/foodstim60/bagel plain.jpg', 'key': 'u', 'origWidth': 410, 'origHeight': 410, 'width': 410, 'height': 410, 'widthPercent': 0.45, 'rescaleHeight': False, 'trialN': 99, 'loaded': True, 'loadedTime': 157895.59999999404, 'positionName': 'LEFT', 'positionCoords': [281.2, 245], 'bid': 8.5}, {'imgObject': {}, 'id': 'cheerios', 'src': '/static/foodstim60/cheerios.jpg', 'key': 'i', 'origWidth': 409, 'origHeight': 410, 'width': 409, 'height': 410, 'widthPercent': 0.45, 'rescaleHeight': False, 'trialN': 99, 'loaded': True, 'loadedTime': 157895.79999998212, 'positionName': 'RIGHT', 'positionCoords': [748.8, 245], 'bid': 7.33}]",157894.09999999404,1669830498230,bagel plain,cheerios,8.5,7.33,-1.17,bagel plain,623.5999999940395,629,628.6999999880791,True,u,159027.79999998212,1133.699999988079,1669830499364,1134,HRV,HRV_0031,2022-11-30 17:50:09
100,"[{'imgObject': {}, 'id': 'Grapes', 'src': '/static/foodstim60/Grapes.jpg', 'key': 'u', 'origWidth': 411, 'origHeight': 411, 'width': 411, 'height': 411, 'widthPercent': 0.45, 'rescaleHeight': False, 'trialN': 100, 'loaded': True, 'loadedTime': 159031.59999999404, 'positionName': 'LEFT', 'positionCoords': [280.2, 244.5], 'bid': 1.68}, {'imgObject': {}, 'id': 'turkey sandwich', 'src': '/static/foodstim60/turkey sandwich.jpg', 'key': 'i', 'origWidth': 409, 'origHeight': 409, 'width': 409, 'height': 409, 'widthPercent': 0.45, 'rescaleHeight': False, 'trialN': 100, 'loaded': True, 'loadedTime': 159031.90000000596, 'positionName': 'RIGHT', 'positionCoords': [748.8, 245.5], 'bid': 1.54}]",159028.69999998808,1669830499364,Grapes,turkey sandwich,1.68,1.54,-0.1399999999999999,Grapes,821.5999999940395,827,826.2000000178814,True,u,160359.90000000596,1331.2000000178814,1669830500696,1332,HRV,HRV_0031,2022-11-30 17:50:09
101,"[{'imgObject': {}, 'id': 'fruitsalad', 'src': '/static/foodstim60/fruitsalad.jpg', 'key': 'u', 'origWidth': 410, 'origHeight': 410, 'width': 410, 'height': 410, 'widthPercent': 0.45, 'rescaleHeight': False, 'trialN': 101, 'loaded': True, 'loadedTime': 160362.90000000596, 'positionName': 'LEFT', 'positionCoords': [281.2, 245], 'bid': 1.09}, {'imgObject': {}, 'id': 'olives', 'src': '/static/foodstim60/olives.jpg', 'key': 'i', 'origWidth': 410, 'origHeight': 410, 'width': 410, 'height': 410, 'widthPercent': 0.45, 'rescaleHeight': False, 'trialN': 101, 'loaded': True, 'loadedTime': 160363.29999998212, 'positionName': 'RIGHT', 'positionCoords': [748.8, 245], 'bid': 0.09}]",160360.59999999404,1669830500696,fruitsalad,olives,1.09,0.09,-1.0,fruitsalad,755.6999999880791,761,760.8000000119209,True,u,161626.40000000596,1265.800000011921,1669830501962,1266,HRV,HRV_0031,2022-11-30 17:50:09
102,"[{'imgObject': {}, 'id': 'cantaloupe', 'src': '/static/foodstim60/cantaloupe.jpg', 'key': 'u', 'origWidth': 409, 'origHeight': 409, 'width': 409, 'height': 409, 'widthPercent': 0.45, 'rescaleHeight': False, 'trialN': 102, 'loaded': True, 'loadedTime': 161630, 'positionName': 'LEFT', 'positionCoords': [282.2, 245.5], 'bid': 0.15}, {'imgObject': {}, 'id': 'banana', 'src': '/static/foodstim60/banana.jpg', 'key': 'i', 'origWidth': 410, 'origHeight': 410, 'width': 410, 'height': 410, 'widthPercent': 0.45, 'rescaleHeight': False, 'trialN': 102, 'loaded': True, 'loadedTime': 161630.40000000596, 'positionName': 'RIGHT', 'positionCoords': [748.8, 245], 'bid': 4.8100000000000005}]",161627.19999998808,1669830501963,cantaloupe,banana,0.15,4.8100000000000005,4.66,banana,765.3000000119209,770,770.2000000178814,True,i,162902.40000000596,1275.2000000178814,1669830503238,1275,HRV,HRV_0031,2022-11-30 17:50:09
103,"[{'imgObject': {}, 'id': 'popsicles', 'src': '/static/foodstim60/popsicles.jpg', 'key': 'u', 'origWidth': 410, 'origHeight': 410, 'width': 410, 'height': 410, 'widthPercent': 0.45, 'rescaleHeight': False, 'trialN': 103, 'loaded': True, 'loadedTime': 162906.19999998808, 'positionName': 'LEFT', 'positionCoords': [281.2, 245], 'bid': 9.95}, {'imgObject': {}, 'id': 'strawberries', 'src': '/static/foodstim60/strawberries.jpg', 'key': 'i', 'origWidth': 410, 'origHeight': 410, 'width': 410, 'height': 410, 'widthPercent': 0.45, 'rescaleHeight': False, 'trialN': 103, 'loaded': True, 'loadedTime': 162906.40000000596, 'positionName': 'RIGHT', 'positionCoords': [748.8, 245], 'bid': 5.0200000000000005}]",162903.29999998212,1669830503239,popsicles,strawberries,9.95,5.0200000000000005,-4.929999999999999,popsicles,618.0,623,622.9000000059605,True,u,164031.0,1127.7000000178814,1669830504367,1128,HRV,HRV_0031,2022-11-30 17:50:09
104,"[{'imgObject': {}, 'id': 'granola w milk', 'src': '/static/foodstim60/granola w milk.jpg', 'key': 'u', 'origWidth': 410, 'origHeight': 410, 'width': 410, 'height': 410, 'widthPercent': 0.45, 'rescaleHeight': False, 'trialN': 104, 'loaded': True, 'loadedTime': 164032.90000000596, 'positionName': 'LEFT', 'positionCoords': [281.2, 245], 'bid': 0.06}, {'imgObject': {}, 'id': 'eggs', 'src': '/static/foodstim60/eggs.jpg', 'key': 'i', 'origWidth': 409, 'origHeight': 409, 'width': 409, 'height': 409, 'widthPercent': 0.45, 'rescaleHeight': False, 'trialN': 104, 'loaded': True, 'loadedTime': 164033.09999999404, 'positionName': 'RIGHT', 'positionCoords': [748.8, 245.5], 'bid': 0.09}]",164031.5,1669830504367,granola w milk,eggs,0.06,0.09,0.03,eggs,815.7999999821186,821,820.6999999880791,True,i,165357.0,1325.5,1669830505693,1326,HRV,HRV_0031,2022-11-30 17:50:09
105,"[{'imgObject': {}, 'id': 'hotdog w must', 'src': '/static/foodstim60/hotdog w must.jpg', 'key': 'u', 'origWidth': 409, 'origHeight': 409, 'width': 409, 'height': 409, 'widthPercent': 0.45, 'rescaleHeight': False, 'trialN': 105, 'loaded': True, 'loadedTime': 165358.79999998212, 'positionName': 'LEFT', 'positionCoords': [282.2, 245.5], 'bid': 8.72}, {'imgObject': {}, 'id': 'baked potato', 'src': '/static/foodstim60/baked potato.jpg', 'key': 'i', 'origWidth': 409, 'origHeight': 410, 'width': 409, 'height': 410, 'widthPercent': 0.45, 'rescaleHeight': False, 'trialN': 105, 'loaded': True, 'loadedTime': 165359, 'positionName': 'RIGHT', 'positionCoords': [748.8, 245], 'bid': 9.87}]",165357.5,1669830505693,hotdog w must,baked potato,8.72,9.87,1.1499999999999986,baked potato,825.0,831,830.7999999821186,True,i,166693.19999998808,1335.699999988079,1669830507029,1336,HRV,HRV_0031,2022-11-30 17:50:09
106,"[{'imgObject': {}, 'id': 'bagel and cc', 'src': '/static/foodstim60/bagel and cc.jpg', 'key': 'u', 'origWidth': 410, 'origHeight': 410, 'width': 410, 'height': 410, 'widthPercent': 0.45, 'rescaleHeight': False, 'trialN': 106, 'loaded': True, 'loadedTime': 166697.09999999404, 'positionName': 'LEFT', 'positionCoords': [281.2, 245], 'bid': 7.47}, {'imgObject': {}, 'id': 'hashbrowns', 'src': '/static/foodstim60/hashbrowns.jpg', 'key': 'i', 'origWidth': 411, 'origHeight': 410, 'width': 411, 'height': 410, 'widthPercent': 0.45, 'rescaleHeight': False, 'trialN': 106, 'loaded': True, 'loadedTime': 166697.40000000596, 'positionName': 'RIGHT', 'positionCoords': [748.8, 245], 'bid': 0.16}]",166694.19999998808,1669830507030,bagel and cc,hashbrowns,7.47,0.16,-7.31,bagel and cc,1117.5,1121,1121.0,True,u,168320.29999998212,1626.0999999940395,1669830508656,1626,HRV,HRV_0031,2022-11-30 17:50:09
107,"[{'imgObject': {}, 'id': 'cherries', 'src': '/static/foodstim60/cherries.jpg', 'key': 'u', 'origWidth': 410, 'origHeight': 411, 'width': 410, 'height': 411, 'widthPercent': 0.45, 'rescaleHeight': False, 'trialN': 107, 'loaded': True, 'loadedTime': 168324, 'positionName': 'LEFT', 'positionCoords': [281.2, 244.5], 'bid': 0.13}, {'imgObject': {}, 'id': 'tacos', 'src': '/static/foodstim60/tacos.jpg', 'key': 'i', 'origWidth': 411, 'origHeight': 411, 'width': 411, 'height': 411, 'widthPercent': 0.45, 'rescaleHeight': False, 'trialN': 107, 'loaded': True, 'loadedTime': 168324.29999998212, 'positionName': 'RIGHT', 'positionCoords': [748.8, 244.5], 'bid': 1.47}]",168321.19999998808,1669830508657,cherries,tacos,0.13,1.47,1.3399999999999999,tacos,615.5,618,618.5,True,i,169444.90000000596,1123.7000000178814,1669830509781,1124,HRV,HRV_0031,2022-11-30 17:50:09
108,"[{'imgObject': {}, 'id': 'burger', 'src': '/static/foodstim60/burger.jpg', 'key': 'u', 'origWidth': 409, 'origHeight': 409, 'width': 409, 'height': 409, 'widthPercent': 0.45, 'rescaleHeight': False, 'trialN': 108, 'loaded': True, 'loadedTime': 169448.79999998212, 'positionName': 'LEFT', 'positionCoords': [282.2, 245.5], 'bid': 1.02}, {'imgObject': {}, 'id': 'tacos', 'src': '/static/foodstim60/tacos.jpg', 'key': 'i', 'origWidth': 411, 'origHeight': 411, 'width': 411, 'height': 411, 'widthPercent': 0.45, 'rescaleHeight': False, 'trialN': 108, 'loaded': True, 'loadedTime': 169449.19999998808, 'positionName': 'RIGHT', 'positionCoords': [748.8, 244.5], 'bid': 1.47}]",169445.79999998212,1669830509781,burger,tacos,1.02,1.47,0.44999999999999996,burger,702.8000000119209,708,707.7000000178814,True,u,170658.59999999404,1212.800000011921,1669830510994,1213,HRV,HRV_0031,2022-11-30 17:50:09
109,"[{'imgObject': {}, 'id': 'shreddedwheatwithmilk', 'src': '/static/foodstim60/shreddedwheatwithmilk.jpg', 'key': 'u', 'origWidth': 410, 'origHeight': 410, 'width': 410, 'height': 410, 'widthPercent': 0.45, 'rescaleHeight': False, 'trialN': 109, 'loaded': True, 'loadedTime': 170662.5, 'positionName': 'LEFT', 'positionCoords': [281.2, 245], 'bid': 0.04}, {'imgObject': {}, 'id': 'seaweed', 'src': '/static/foodstim60/seaweed.jpg', 'key': 'i', 'origWidth': 410, 'origHeight': 410, 'width': 410, 'height': 410, 'widthPercent': 0.45, 'rescaleHeight': False, 'trialN': 109, 'loaded': True, 'loadedTime': 170662.69999998808, 'positionName': 'RIGHT', 'positionCoords': [748.8, 245], 'bid': 0.01}]",170659.5,1669830510995,shreddedwheatwithmilk,seaweed,0.04,0.01,-0.03,shreddedwheatwithmilk,795.2999999821186,800,799.9000000059605,True,u,171962.59999999404,1303.0999999940395,1669830512298,1303,HRV,HRV_0031,2022-11-30 17:50:09
