trialN,stimuli,question,trialStartTime,trialStartTime_UNIX,stimulus1,rt,receivedResponse,rating,trialEndTime,trialDuration,stimulus1Loaded,exp,subjectId,date
0,"[{'imgObject': {}, 'id': 'hotdog w must', 'src': '/static/foodstim60/hotdog w must.jpg', 'key': 'NaN', 'origWidth': 409, 'origHeight': 409, 'width': 409, 'height': 409, 'widthPercent': 0.8, 'rescaleHeight': True, 'trialN': 0, 'loaded': True, 'loadedTime': 1948.0999999940395, 'positionName': 'CENTER', 'positionCoords': [515.5, 245.5]}]",Rate how much you want to eat this food from 0 (least) to 10 (most).,1899.0,1669829760264,hotdog w must,2346.9000000059605,True,9.06,4245.9000000059605,2346.9000000059605,True,HRV,HRV_0031,2022-11-30 17:38:16
1,"[{'imgObject': {}, 'id': 'rigatoni and sauce', 'src': '/static/foodstim60/rigatoni and sauce.jpg', 'key': 'NaN', 'origWidth': 410, 'origHeight': 411, 'width': 410, 'height': 411, 'widthPercent': 0.8, 'rescaleHeight': True, 'trialN': 1, 'loaded': True, 'loadedTime': 4253, 'positionName': 'CENTER', 'positionCoords': [515, 244.5]}]",Rate how much you want to eat this food from 0 (least) to 10 (most).,4249.9000000059605,1669829762615,rigatoni and sauce,1696.0,True,9.88,5945.9000000059605,1696.0,True,HRV,HRV_0031,2022-11-30 17:38:16
2,"[{'imgObject': {}, 'id': 'fruitsalad', 'src': '/static/foodstim60/fruitsalad.jpg', 'key': 'NaN', 'origWidth': 410, 'origHeight': 410, 'width': 410, 'height': 410, 'widthPercent': 0.8, 'rescaleHeight': True, 'trialN': 2, 'loaded': True, 'loadedTime': 5953.0999999940395, 'positionName': 'CENTER', 'positionCoords': [515, 245]}]",Rate how much you want to eat this food from 0 (least) to 10 (most).,5948.799999982119,1669829764313,fruitsalad,2330.4000000059605,True,2.86,8279.199999988079,2330.4000000059605,True,HRV,HRV_0031,2022-11-30 17:38:16
3,"[{'imgObject': {}, 'id': 'edamame', 'src': '/static/foodstim60/edamame.jpg', 'key': 'NaN', 'origWidth': 409, 'origHeight': 410, 'width': 409, 'height': 410, 'widthPercent': 0.8, 'rescaleHeight': True, 'trialN': 3, 'loaded': True, 'loadedTime': 8283.59999999404, 'positionName': 'CENTER', 'positionCoords': [515.5, 245]}]",Rate how much you want to eat this food from 0 (least) to 10 (most).,8280.799999982119,1669829766645,edamame,1731.9000000059605,True,0.12,10012.699999988079,1731.9000000059605,True,HRV,HRV_0031,2022-11-30 17:38:16
4,"[{'imgObject': {}, 'id': 'Tribe humus pita', 'src': '/static/foodstim60/Tribe humus pita.jpg', 'key': 'NaN', 'origWidth': 411, 'origHeight': 411, 'width': 411, 'height': 411, 'widthPercent': 0.8, 'rescaleHeight': True, 'trialN': 4, 'loaded': True, 'loadedTime': 10020.40000000596, 'positionName': 'CENTER', 'positionCoords': [514.5, 244.5]}]",Rate how much you want to eat this food from 0 (least) to 10 (most).,10015.799999982119,1669829768380,Tribe humus pita,3413.5,True,0.11,13429.299999982119,3413.5,True,HRV,HRV_0031,2022-11-30 17:38:16
5,"[{'imgObject': {}, 'id': 'omelette', 'src': '/static/foodstim60/omelette.jpg', 'key': 'NaN', 'origWidth': 410, 'origHeight': 409, 'width': 410, 'height': 409, 'widthPercent': 0.8, 'rescaleHeight': True, 'trialN': 5, 'loaded': True, 'loadedTime': 13436.40000000596, 'positionName': 'CENTER', 'positionCoords': [515, 245.5]}]",Rate how much you want to eat this food from 0 (least) to 10 (most).,13432.199999988079,1669829771797,omelette,2130.5,True,0.0,15562.699999988079,2130.5,True,HRV,HRV_0031,2022-11-30 17:38:16
6,"[{'imgObject': {}, 'id': 'fried eggs', 'src': '/static/foodstim60/fried eggs.jpg', 'key': 'NaN', 'origWidth': 410, 'origHeight': 410, 'width': 410, 'height': 410, 'widthPercent': 0.8, 'rescaleHeight': True, 'trialN': 6, 'loaded': True, 'loadedTime': 15570.59999999404, 'positionName': 'CENTER', 'positionCoords': [515, 245]}]",Rate how much you want to eat this food from 0 (least) to 10 (most).,15565.699999988079,1669829773930,fried eggs,1980.4000000059605,True,0.13,17546.09999999404,1980.4000000059605,True,HRV,HRV_0031,2022-11-30 17:38:16
7,"[{'imgObject': {}, 'id': 'cheerios', 'src': '/static/foodstim60/cheerios.jpg', 'key': 'NaN', 'origWidth': 409, 'origHeight': 410, 'width': 409, 'height': 410, 'widthPercent': 0.8, 'rescaleHeight': True, 'trialN': 7, 'loaded': True, 'loadedTime': 17553.90000000596, 'positionName': 'CENTER', 'positionCoords': [515.5, 245]}]",Rate how much you want to eat this food from 0 (least) to 10 (most).,17549.19999998808,1669829775914,cheerios,1963.5,True,4.98,19512.69999998808,1963.5,True,HRV,HRV_0031,2022-11-30 17:38:16
8,"[{'imgObject': {}, 'id': 'sushi w_condiments', 'src': '/static/foodstim60/sushi w_condiments.jpg', 'key': 'NaN', 'origWidth': 410, 'origHeight': 410, 'width': 410, 'height': 410, 'widthPercent': 0.8, 'rescaleHeight': True, 'trialN': 8, 'loaded': True, 'loadedTime': 19520.90000000596, 'positionName': 'CENTER', 'positionCoords': [515, 245]}]",Rate how much you want to eat this food from 0 (least) to 10 (most).,19516.69999998808,1669829777881,sushi w_condiments,1562.7000000178814,True,0.13,21079.40000000596,1562.7000000178814,True,HRV,HRV_0031,2022-11-30 17:38:16
9,"[{'imgObject': {}, 'id': 'veggieswithdip', 'src': '/static/foodstim60/veggieswithdip.jpg', 'key': 'NaN', 'origWidth': 409, 'origHeight': 409, 'width': 409, 'height': 409, 'widthPercent': 0.8, 'rescaleHeight': True, 'trialN': 9, 'loaded': True, 'loadedTime': 21085.79999998212, 'positionName': 'CENTER', 'positionCoords': [515.5, 245.5]}]",Rate how much you want to eat this food from 0 (least) to 10 (most).,21082.09999999404,1669829779446,veggieswithdip,1547.300000011921,True,0.02,22629.40000000596,1547.300000011921,True,HRV,HRV_0031,2022-11-30 17:38:16
10,"[{'imgObject': {}, 'id': 'rigatoni', 'src': '/static/foodstim60/rigatoni.jpg', 'key': 'NaN', 'origWidth': 411, 'origHeight': 411, 'width': 411, 'height': 411, 'widthPercent': 0.8, 'rescaleHeight': True, 'trialN': 10, 'loaded': True, 'loadedTime': 22636.5, 'positionName': 'CENTER', 'positionCoords': [514.5, 244.5]}]",Rate how much you want to eat this food from 0 (least) to 10 (most).,22632.40000000596,1669829780997,rigatoni,1680.5999999940395,True,6.7,24313.0,1680.5999999940395,True,HRV,HRV_0031,2022-11-30 17:38:16
11,"[{'imgObject': {}, 'id': 'tacos', 'src': '/static/foodstim60/tacos.jpg', 'key': 'NaN', 'origWidth': 411, 'origHeight': 411, 'width': 411, 'height': 411, 'widthPercent': 0.8, 'rescaleHeight': True, 'trialN': 11, 'loaded': True, 'loadedTime': 24321.90000000596, 'positionName': 'CENTER', 'positionCoords': [514.5, 244.5]}]",Rate how much you want to eat this food from 0 (least) to 10 (most).,24316.90000000596,1669829782681,tacos,1645.8999999761581,True,1.58,25962.79999998212,1645.8999999761581,True,HRV,HRV_0031,2022-11-30 17:38:16
12,"[{'imgObject': {}, 'id': 'turkey sandwich', 'src': '/static/foodstim60/turkey sandwich.jpg', 'key': 'NaN', 'origWidth': 409, 'origHeight': 409, 'width': 409, 'height': 409, 'widthPercent': 0.8, 'rescaleHeight': True, 'trialN': 12, 'loaded': True, 'loadedTime': 25971.40000000596, 'positionName': 'CENTER', 'positionCoords': [515.5, 245.5]}]",Rate how much you want to eat this food from 0 (least) to 10 (most).,25966.69999998808,1669829784331,turkey sandwich,1662.800000011921,True,0.77,27629.5,1662.800000011921,True,HRV,HRV_0031,2022-11-30 17:38:16
13,"[{'imgObject': {}, 'id': 'salad w chicken', 'src': '/static/foodstim60/salad w chicken.jpg', 'key': 'NaN', 'origWidth': 411, 'origHeight': 411, 'width': 411, 'height': 411, 'widthPercent': 0.8, 'rescaleHeight': True, 'trialN': 13, 'loaded': True, 'loadedTime': 27637.90000000596, 'positionName': 'CENTER', 'positionCoords': [514.5, 244.5]}]",Rate how much you want to eat this food from 0 (least) to 10 (most).,27633.09999999404,1669829785997,salad w chicken,1696.4000000059605,True,0.12,29329.5,1696.4000000059605,True,HRV,HRV_0031,2022-11-30 17:38:16
14,"[{'imgObject': {}, 'id': 'hashbrowns', 'src': '/static/foodstim60/hashbrowns.jpg', 'key': 'NaN', 'origWidth': 411, 'origHeight': 410, 'width': 411, 'height': 410, 'widthPercent': 0.8, 'rescaleHeight': True, 'trialN': 14, 'loaded': True, 'loadedTime': 29337.69999998808, 'positionName': 'CENTER', 'positionCoords': [514.5, 245]}]",Rate how much you want to eat this food from 0 (least) to 10 (most).,29333.19999998808,1669829787697,hashbrowns,2246.300000011921,True,0.15,31579.5,2246.300000011921,True,HRV,HRV_0031,2022-11-30 17:38:16
15,"[{'imgObject': {}, 'id': 'Grapes', 'src': '/static/foodstim60/Grapes.jpg', 'key': 'NaN', 'origWidth': 411, 'origHeight': 411, 'width': 411, 'height': 411, 'widthPercent': 0.8, 'rescaleHeight': True, 'trialN': 15, 'loaded': True, 'loadedTime': 31587.69999998808, 'positionName': 'CENTER', 'positionCoords': [514.5, 244.5]}]",Rate how much you want to eat this food from 0 (least) to 10 (most).,31582.79999998212,1669829789947,Grapes,1630.1000000238419,True,5.05,33212.90000000596,1630.1000000238419,True,HRV,HRV_0031,2022-11-30 17:38:16
16,"[{'imgObject': {}, 'id': 'salmon', 'src': '/static/foodstim60/salmon.jpg', 'key': 'NaN', 'origWidth': 410, 'origHeight': 409, 'width': 410, 'height': 409, 'widthPercent': 0.8, 'rescaleHeight': True, 'trialN': 16, 'loaded': True, 'loadedTime': 33221.79999998212, 'positionName': 'CENTER', 'positionCoords': [515, 245.5]}]",Rate how much you want to eat this food from 0 (least) to 10 (most).,33216.59999999404,1669829791581,salmon,1579.699999988079,True,0.04,34796.29999998212,1579.699999988079,True,HRV,HRV_0031,2022-11-30 17:38:16
17,"[{'imgObject': {}, 'id': 'mashed potato', 'src': '/static/foodstim60/mashed potato.jpg', 'key': 'NaN', 'origWidth': 409, 'origHeight': 409, 'width': 409, 'height': 409, 'widthPercent': 0.8, 'rescaleHeight': True, 'trialN': 17, 'loaded': True, 'loadedTime': 34805.19999998808, 'positionName': 'CENTER', 'positionCoords': [515.5, 245.5]}]",Rate how much you want to eat this food from 0 (least) to 10 (most).,34800.19999998808,1669829793164,mashed potato,1962.7000000178814,True,0.08,36762.90000000596,1962.7000000178814,True,HRV,HRV_0031,2022-11-30 17:38:16
18,"[{'imgObject': {}, 'id': 'lox', 'src': '/static/foodstim60/lox.jpg', 'key': 'NaN', 'origWidth': 410, 'origHeight': 411, 'width': 410, 'height': 411, 'widthPercent': 0.8, 'rescaleHeight': True, 'trialN': 18, 'loaded': True, 'loadedTime': 36772.09999999404, 'positionName': 'CENTER', 'positionCoords': [515, 244.5]}]",Rate how much you want to eat this food from 0 (least) to 10 (most).,36767.09999999404,1669829795131,lox,1645.9000000059605,True,0.0,38413.0,1645.9000000059605,True,HRV,HRV_0031,2022-11-30 17:38:16
19,"[{'imgObject': {}, 'id': 'burrito', 'src': '/static/foodstim60/burrito.jpg', 'key': 'NaN', 'origWidth': 410, 'origHeight': 410, 'width': 410, 'height': 410, 'widthPercent': 0.8, 'rescaleHeight': True, 'trialN': 19, 'loaded': True, 'loadedTime': 38422.19999998808, 'positionName': 'CENTER', 'positionCoords': [515, 245]}]",Rate how much you want to eat this food from 0 (least) to 10 (most).,38417.29999998212,1669829796781,burrito,2378.9000000059605,True,0.0,40796.19999998808,2378.9000000059605,True,HRV,HRV_0031,2022-11-30 17:38:16
20,"[{'imgObject': {}, 'id': 'granola w milk', 'src': '/static/foodstim60/granola w milk.jpg', 'key': 'NaN', 'origWidth': 410, 'origHeight': 410, 'width': 410, 'height': 410, 'widthPercent': 0.8, 'rescaleHeight': True, 'trialN': 20, 'loaded': True, 'loadedTime': 40805.19999998808, 'positionName': 'CENTER', 'positionCoords': [515, 245]}]",Rate how much you want to eat this food from 0 (least) to 10 (most).,40800.29999998212,1669829799164,granola w milk,1712.6000000238419,True,0.0,42512.90000000596,1712.6000000238419,True,HRV,HRV_0031,2022-11-30 17:38:16
21,"[{'imgObject': {}, 'id': 'chickenfingers', 'src': '/static/foodstim60/chickenfingers.jpg', 'key': 'NaN', 'origWidth': 410, 'origHeight': 410, 'width': 410, 'height': 410, 'widthPercent': 0.8, 'rescaleHeight': True, 'trialN': 21, 'loaded': True, 'loadedTime': 42521.09999999404, 'positionName': 'CENTER', 'positionCoords': [515, 245]}]",Rate how much you want to eat this food from 0 (least) to 10 (most).,42516.79999998212,1669829800881,chickenfingers,2396.100000023842,True,9.94,44912.90000000596,2396.100000023842,True,HRV,HRV_0031,2022-11-30 17:38:16
22,"[{'imgObject': {}, 'id': 'roastedpotatoes', 'src': '/static/foodstim60/roastedpotatoes.jpg', 'key': 'NaN', 'origWidth': 409, 'origHeight': 410, 'width': 409, 'height': 410, 'widthPercent': 0.8, 'rescaleHeight': True, 'trialN': 22, 'loaded': True, 'loadedTime': 44917.59999999404, 'positionName': 'CENTER', 'positionCoords': [515.5, 245]}]",Rate how much you want to eat this food from 0 (least) to 10 (most).,44914.79999998212,1669829803279,roastedpotatoes,1881.4000000059605,True,9.94,46796.19999998808,1881.4000000059605,True,HRV,HRV_0031,2022-11-30 17:38:16
23,"[{'imgObject': {}, 'id': 'yogurt no spoon', 'src': '/static/foodstim60/yogurt no spoon.jpg', 'key': 'NaN', 'origWidth': 411, 'origHeight': 410, 'width': 411, 'height': 410, 'widthPercent': 0.8, 'rescaleHeight': True, 'trialN': 23, 'loaded': True, 'loadedTime': 46805.5, 'positionName': 'CENTER', 'positionCoords': [514.5, 245]}]",Rate how much you want to eat this food from 0 (least) to 10 (most).,46800.19999998808,1669829805164,yogurt no spoon,1696.0999999940395,True,0.04,48496.29999998212,1696.0999999940395,True,HRV,HRV_0031,2022-11-30 17:38:16
24,"[{'imgObject': {}, 'id': 'raspberries', 'src': '/static/foodstim60/raspberries.jpg', 'key': 'NaN', 'origWidth': 411, 'origHeight': 411, 'width': 411, 'height': 411, 'widthPercent': 0.8, 'rescaleHeight': True, 'trialN': 24, 'loaded': True, 'loadedTime': 48505.19999998808, 'positionName': 'CENTER', 'positionCoords': [514.5, 244.5]}]",Rate how much you want to eat this food from 0 (least) to 10 (most).,48500.40000000596,1669829806864,raspberries,2029.199999988079,True,0.02,50529.59999999404,2029.199999988079,True,HRV,HRV_0031,2022-11-30 17:38:16
25,"[{'imgObject': {}, 'id': 'cherry tomato', 'src': '/static/foodstim60/cherry tomato.jpg', 'key': 'NaN', 'origWidth': 410, 'origHeight': 410, 'width': 410, 'height': 410, 'widthPercent': 0.8, 'rescaleHeight': True, 'trialN': 25, 'loaded': True, 'loadedTime': 50538.90000000596, 'positionName': 'CENTER', 'positionCoords': [515, 245]}]",Rate how much you want to eat this food from 0 (least) to 10 (most).,50534.19999998808,1669829808898,cherry tomato,1428.5999999940395,True,0.01,51962.79999998212,1428.5999999940395,True,HRV,HRV_0031,2022-11-30 17:38:16
26,"[{'imgObject': {}, 'id': 'ice cream sundae 002', 'src': '/static/foodstim60/ice cream sundae 002.jpg', 'key': 'NaN', 'origWidth': 409, 'origHeight': 409, 'width': 409, 'height': 409, 'widthPercent': 0.8, 'rescaleHeight': True, 'trialN': 26, 'loaded': True, 'loadedTime': 51970.09999999404, 'positionName': 'CENTER', 'positionCoords': [515.5, 245.5]}]",Rate how much you want to eat this food from 0 (least) to 10 (most).,51966.19999998808,1669829810330,ice cream sundae 002,2496.9000000059605,True,5.47,54463.09999999404,2496.9000000059605,True,HRV,HRV_0031,2022-11-30 17:38:16
27,"[{'imgObject': {}, 'id': 'turkeysandwich', 'src': '/static/foodstim60/turkeysandwich.jpg', 'key': 'NaN', 'origWidth': 409, 'origHeight': 409, 'width': 409, 'height': 409, 'widthPercent': 0.8, 'rescaleHeight': True, 'trialN': 27, 'loaded': True, 'loadedTime': 54470.69999998808, 'positionName': 'CENTER', 'positionCoords': [515.5, 245.5]}]",Rate how much you want to eat this food from 0 (least) to 10 (most).,54466.09999999404,1669829812830,turkeysandwich,1980.300000011921,True,0.0,56446.40000000596,1980.300000011921,True,HRV,HRV_0031,2022-11-30 17:38:16
28,"[{'imgObject': {}, 'id': 'steak', 'src': '/static/foodstim60/steak.jpg', 'key': 'NaN', 'origWidth': 410, 'origHeight': 410, 'width': 410, 'height': 410, 'widthPercent': 0.8, 'rescaleHeight': True, 'trialN': 28, 'loaded': True, 'loadedTime': 56453.40000000596, 'positionName': 'CENTER', 'positionCoords': [515, 245]}]",Rate how much you want to eat this food from 0 (least) to 10 (most).,56449.5,1669829814813,steak,2330.199999988079,True,5.08,58779.69999998808,2330.199999988079,True,HRV,HRV_0031,2022-11-30 17:38:16
29,"[{'imgObject': {}, 'id': 'blueberries', 'src': '/static/foodstim60/blueberries.jpg', 'key': 'NaN', 'origWidth': 411, 'origHeight': 411, 'width': 411, 'height': 411, 'widthPercent': 0.8, 'rescaleHeight': True, 'trialN': 29, 'loaded': True, 'loadedTime': 58783.19999998808, 'positionName': 'CENTER', 'positionCoords': [514.5, 244.5]}]",Rate how much you want to eat this food from 0 (least) to 10 (most).,58781.0,1669829817145,blueberries,1565.2999999821186,True,0.01,60346.29999998212,1565.2999999821186,True,HRV,HRV_0031,2022-11-30 17:38:16
30,"[{'imgObject': {}, 'id': 'apple slices', 'src': '/static/foodstim60/apple slices.jpg', 'key': 'NaN', 'origWidth': 409, 'origHeight': 410, 'width': 409, 'height': 410, 'widthPercent': 0.8, 'rescaleHeight': True, 'trialN': 30, 'loaded': True, 'loadedTime': 60350.79999998212, 'positionName': 'CENTER', 'positionCoords': [515.5, 245]}]",Rate how much you want to eat this food from 0 (least) to 10 (most).,60347.79999998212,1669829818711,apple slices,2082.0,True,2.13,62429.79999998212,2082.0,True,HRV,HRV_0031,2022-11-30 17:38:16
31,"[{'imgObject': {}, 'id': 'eggsalad', 'src': '/static/foodstim60/eggsalad.jpg', 'key': 'NaN', 'origWidth': 410, 'origHeight': 409, 'width': 410, 'height': 409, 'widthPercent': 0.8, 'rescaleHeight': True, 'trialN': 31, 'loaded': True, 'loadedTime': 62438.40000000596, 'positionName': 'CENTER', 'positionCoords': [515, 245.5]}]",Rate how much you want to eat this food from 0 (least) to 10 (most).,62433.40000000596,1669829820797,eggsalad,1312.8999999761581,True,0.06,63746.29999998212,1312.8999999761581,True,HRV,HRV_0031,2022-11-30 17:38:16
32,"[{'imgObject': {}, 'id': 'burger', 'src': '/static/foodstim60/burger.jpg', 'key': 'NaN', 'origWidth': 409, 'origHeight': 409, 'width': 409, 'height': 409, 'widthPercent': 0.8, 'rescaleHeight': True, 'trialN': 32, 'loaded': True, 'loadedTime': 63751.19999998808, 'positionName': 'CENTER', 'positionCoords': [515.5, 245.5]}]",Rate how much you want to eat this food from 0 (least) to 10 (most).,63748.19999998808,1669829822112,burger,2015.0,True,1.59,65763.19999998808,2015.0,True,HRV,HRV_0031,2022-11-30 17:38:16
33,"[{'imgObject': {}, 'id': 'eggs', 'src': '/static/foodstim60/eggs.jpg', 'key': 'NaN', 'origWidth': 409, 'origHeight': 409, 'width': 409, 'height': 409, 'widthPercent': 0.8, 'rescaleHeight': True, 'trialN': 33, 'loaded': True, 'loadedTime': 65771.90000000596, 'positionName': 'CENTER', 'positionCoords': [515.5, 245.5]}]",Rate how much you want to eat this food from 0 (least) to 10 (most).,65767.09999999404,1669829824131,eggs,1496.0999999940395,True,0.04,67263.19999998808,1496.0999999940395,True,HRV,HRV_0031,2022-11-30 17:38:16
34,"[{'imgObject': {}, 'id': 'bagel plain', 'src': '/static/foodstim60/bagel plain.jpg', 'key': 'NaN', 'origWidth': 410, 'origHeight': 410, 'width': 410, 'height': 410, 'widthPercent': 0.8, 'rescaleHeight': True, 'trialN': 34, 'loaded': True, 'loadedTime': 67266.59999999404, 'positionName': 'CENTER', 'positionCoords': [515, 245]}]",Rate how much you want to eat this food from 0 (least) to 10 (most).,67264.40000000596,1669829825628,bagel plain,1881.8999999761581,True,8.05,69146.29999998212,1881.8999999761581,True,HRV,HRV_0031,2022-11-30 17:38:16
35,"[{'imgObject': {}, 'id': 'kiwi', 'src': '/static/foodstim60/kiwi.jpg', 'key': 'NaN', 'origWidth': 410, 'origHeight': 410, 'width': 410, 'height': 410, 'widthPercent': 0.8, 'rescaleHeight': True, 'trialN': 35, 'loaded': True, 'loadedTime': 69150.40000000596, 'positionName': 'CENTER', 'positionCoords': [515, 245]}]",Rate how much you want to eat this food from 0 (least) to 10 (most).,69147.90000000596,1669829827511,kiwi,1448.7999999821186,True,0.04,70596.69999998808,1448.7999999821186,True,HRV,HRV_0031,2022-11-30 17:38:16
36,"[{'imgObject': {}, 'id': 'orange slices', 'src': '/static/foodstim60/orange slices.jpg', 'key': 'NaN', 'origWidth': 409, 'origHeight': 410, 'width': 409, 'height': 410, 'widthPercent': 0.8, 'rescaleHeight': True, 'trialN': 36, 'loaded': True, 'loadedTime': 70605.09999999404, 'positionName': 'CENTER', 'positionCoords': [515.5, 245]}]",Rate how much you want to eat this food from 0 (least) to 10 (most).,70600.69999998808,1669829828964,orange slices,1729.2000000178814,True,3.27,72329.90000000596,1729.2000000178814,True,HRV,HRV_0031,2022-11-30 17:38:16
37,"[{'imgObject': {}, 'id': 'pear', 'src': '/static/foodstim60/pear.jpg', 'key': 'NaN', 'origWidth': 411, 'origHeight': 410, 'width': 411, 'height': 410, 'widthPercent': 0.8, 'rescaleHeight': True, 'trialN': 37, 'loaded': True, 'loadedTime': 72337.59999999404, 'positionName': 'CENTER', 'positionCoords': [514.5, 245]}]",Rate how much you want to eat this food from 0 (least) to 10 (most).,72333.59999999404,1669829830697,pear,1479.5,True,3.13,73813.09999999404,1479.5,True,HRV,HRV_0031,2022-11-30 17:38:16
38,"[{'imgObject': {}, 'id': 'olives', 'src': '/static/foodstim60/olives.jpg', 'key': 'NaN', 'origWidth': 410, 'origHeight': 410, 'width': 410, 'height': 410, 'widthPercent': 0.8, 'rescaleHeight': True, 'trialN': 38, 'loaded': True, 'loadedTime': 73821.69999998808, 'positionName': 'CENTER', 'positionCoords': [515, 245]}]",Rate how much you want to eat this food from 0 (least) to 10 (most).,73816.79999998212,1669829832180,olives,1363.0,True,0.0,75179.79999998212,1363.0,True,HRV,HRV_0031,2022-11-30 17:38:16
39,"[{'imgObject': {}, 'id': 'mango', 'src': '/static/foodstim60/mango.jpg', 'key': 'NaN', 'origWidth': 411, 'origHeight': 411, 'width': 411, 'height': 411, 'widthPercent': 0.8, 'rescaleHeight': True, 'trialN': 39, 'loaded': True, 'loadedTime': 75188, 'positionName': 'CENTER', 'positionCoords': [514.5, 244.5]}]",Rate how much you want to eat this food from 0 (least) to 10 (most).,75183.29999998212,1669829833547,mango,1430.0,True,0.09,76613.29999998212,1430.0,True,HRV,HRV_0031,2022-11-30 17:38:16
40,"[{'imgObject': {}, 'id': 'cocktailshrimp', 'src': '/static/foodstim60/cocktailshrimp.jpg', 'key': 'NaN', 'origWidth': 410, 'origHeight': 410, 'width': 410, 'height': 410, 'widthPercent': 0.8, 'rescaleHeight': True, 'trialN': 40, 'loaded': True, 'loadedTime': 76616.69999998808, 'positionName': 'CENTER', 'positionCoords': [515, 245]}]",Rate how much you want to eat this food from 0 (least) to 10 (most).,76614.59999999404,1669829834978,cocktailshrimp,1481.9000000059605,True,0.0,78096.5,1481.9000000059605,True,HRV,HRV_0031,2022-11-30 17:38:16
41,"[{'imgObject': {}, 'id': 'chicken nuggets2', 'src': '/static/foodstim60/chicken nuggets2.jpg', 'key': 'NaN', 'origWidth': 410, 'origHeight': 409, 'width': 410, 'height': 409, 'widthPercent': 0.8, 'rescaleHeight': True, 'trialN': 41, 'loaded': True, 'loadedTime': 78103.5, 'positionName': 'CENTER', 'positionCoords': [515, 245.5]}]",Rate how much you want to eat this food from 0 (least) to 10 (most).,78099.29999998212,1669829836463,chicken nuggets2,1597.2000000178814,True,8.98,79696.5,1597.2000000178814,True,HRV,HRV_0031,2022-11-30 17:38:16
42,"[{'imgObject': {}, 'id': 'cantaloupe', 'src': '/static/foodstim60/cantaloupe.jpg', 'key': 'NaN', 'origWidth': 409, 'origHeight': 409, 'width': 409, 'height': 409, 'widthPercent': 0.8, 'rescaleHeight': True, 'trialN': 42, 'loaded': True, 'loadedTime': 79706.09999999404, 'positionName': 'CENTER', 'positionCoords': [515.5, 245.5]}]",Rate how much you want to eat this food from 0 (least) to 10 (most).,79701.29999998212,1669829838064,cantaloupe,2078.600000023842,True,0.09,81779.90000000596,2078.600000023842,True,HRV,HRV_0031,2022-11-30 17:38:16
43,"[{'imgObject': {}, 'id': 'grilled chicken strips', 'src': '/static/foodstim60/grilled chicken strips.jpg', 'key': 'NaN', 'origWidth': 410, 'origHeight': 411, 'width': 410, 'height': 411, 'widthPercent': 0.8, 'rescaleHeight': True, 'trialN': 43, 'loaded': True, 'loadedTime': 81787.69999998808, 'positionName': 'CENTER', 'positionCoords': [515, 244.5]}]",Rate how much you want to eat this food from 0 (least) to 10 (most).,81783.0,1669829840146,grilled chicken strips,2513.699999988079,True,9.950000000000001,84296.69999998808,2513.699999988079,True,HRV,HRV_0031,2022-11-30 17:38:16
44,"[{'imgObject': {}, 'id': 'seaweed', 'src': '/static/foodstim60/seaweed.jpg', 'key': 'NaN', 'origWidth': 410, 'origHeight': 410, 'width': 410, 'height': 410, 'widthPercent': 0.8, 'rescaleHeight': True, 'trialN': 44, 'loaded': True, 'loadedTime': 84303.69999998808, 'positionName': 'CENTER', 'positionCoords': [515, 245]}]",Rate how much you want to eat this food from 0 (least) to 10 (most).,84299.59999999404,1669829842663,seaweed,1863.800000011921,True,0.11,86163.40000000596,1863.800000011921,True,HRV,HRV_0031,2022-11-30 17:38:16
45,"[{'imgObject': {}, 'id': 'luckycharms', 'src': '/static/foodstim60/luckycharms.jpg', 'key': 'NaN', 'origWidth': 410, 'origHeight': 409, 'width': 410, 'height': 409, 'widthPercent': 0.8, 'rescaleHeight': True, 'trialN': 45, 'loaded': True, 'loadedTime': 86173, 'positionName': 'CENTER', 'positionCoords': [515, 245.5]}]",Rate how much you want to eat this food from 0 (least) to 10 (most).,86168.0,1669829844531,luckycharms,1662.0999999940395,True,9.98,87830.09999999404,1662.0999999940395,True,HRV,HRV_0031,2022-11-30 17:38:16
46,"[{'imgObject': {}, 'id': 'froot loops w milk', 'src': '/static/foodstim60/froot loops w milk.jpg', 'key': 'NaN', 'origWidth': 410, 'origHeight': 410, 'width': 410, 'height': 410, 'widthPercent': 0.8, 'rescaleHeight': True, 'trialN': 46, 'loaded': True, 'loadedTime': 87838.5, 'positionName': 'CENTER', 'positionCoords': [515, 245]}]",Rate how much you want to eat this food from 0 (least) to 10 (most).,87833.5,1669829846197,froot loops w milk,1496.4000000059605,True,9.870000000000001,89329.90000000596,1496.4000000059605,True,HRV,HRV_0031,2022-11-30 17:38:16
47,"[{'imgObject': {}, 'id': 'banana', 'src': '/static/foodstim60/banana.jpg', 'key': 'NaN', 'origWidth': 410, 'origHeight': 410, 'width': 410, 'height': 410, 'widthPercent': 0.8, 'rescaleHeight': True, 'trialN': 47, 'loaded': True, 'loadedTime': 89335.29999998212, 'positionName': 'CENTER', 'positionCoords': [515, 245]}]",Rate how much you want to eat this food from 0 (least) to 10 (most).,89331.90000000596,1669829847695,banana,1698.0999999940395,True,4.95,91030.0,1698.0999999940395,True,HRV,HRV_0031,2022-11-30 17:38:16
48,"[{'imgObject': {}, 'id': 'blackbeanswithrice', 'src': '/static/foodstim60/blackbeanswithrice.jpg', 'key': 'NaN', 'origWidth': 410, 'origHeight': 410, 'width': 410, 'height': 410, 'widthPercent': 0.8, 'rescaleHeight': True, 'trialN': 48, 'loaded': True, 'loadedTime': 91037.5, 'positionName': 'CENTER', 'positionCoords': [515, 245]}]",Rate how much you want to eat this food from 0 (least) to 10 (most).,91033.09999999404,1669829849396,blackbeanswithrice,1796.9000000059605,True,0.12,92830.0,1796.9000000059605,True,HRV,HRV_0031,2022-11-30 17:38:16
49,"[{'imgObject': {}, 'id': 'corn cob', 'src': '/static/foodstim60/corn cob.jpg', 'key': 'NaN', 'origWidth': 411, 'origHeight': 411, 'width': 411, 'height': 411, 'widthPercent': 0.8, 'rescaleHeight': True, 'trialN': 49, 'loaded': True, 'loadedTime': 92835.29999998212, 'positionName': 'CENTER', 'positionCoords': [514.5, 244.5]}]",Rate how much you want to eat this food from 0 (least) to 10 (most).,92832.19999998808,1669829851195,corn cob,2097.7000000178814,True,9.950000000000001,94929.90000000596,2097.7000000178814,True,HRV,HRV_0031,2022-11-30 17:38:16
50,"[{'imgObject': {}, 'id': 'raisin bran w milk', 'src': '/static/foodstim60/raisin bran w milk.jpg', 'key': 'NaN', 'origWidth': 411, 'origHeight': 411, 'width': 411, 'height': 411, 'widthPercent': 0.8, 'rescaleHeight': True, 'trialN': 50, 'loaded': True, 'loadedTime': 94937.69999998808, 'positionName': 'CENTER', 'positionCoords': [514.5, 244.5]}]",Rate how much you want to eat this food from 0 (least) to 10 (most).,94932.79999998212,1669829853296,raisin bran w milk,1863.9000000059605,True,0.0,96796.69999998808,1863.9000000059605,True,HRV,HRV_0031,2022-11-30 17:38:16
51,"[{'imgObject': {}, 'id': 'bagel and cc', 'src': '/static/foodstim60/bagel and cc.jpg', 'key': 'NaN', 'origWidth': 410, 'origHeight': 410, 'width': 410, 'height': 410, 'widthPercent': 0.8, 'rescaleHeight': True, 'trialN': 51, 'loaded': True, 'loadedTime': 96804.5, 'positionName': 'CENTER', 'positionCoords': [515, 245]}]",Rate how much you want to eat this food from 0 (least) to 10 (most).,96800.0,1669829855163,bagel and cc,1846.7999999821186,True,8.58,98646.79999998212,1846.7999999821186,True,HRV,HRV_0031,2022-11-30 17:38:16
52,"[{'imgObject': {}, 'id': 'sweetpotato', 'src': '/static/foodstim60/sweetpotato.jpg', 'key': 'NaN', 'origWidth': 410, 'origHeight': 410, 'width': 410, 'height': 410, 'widthPercent': 0.8, 'rescaleHeight': True, 'trialN': 52, 'loaded': True, 'loadedTime': 98655.5, 'positionName': 'CENTER', 'positionCoords': [515, 245]}]",Rate how much you want to eat this food from 0 (least) to 10 (most).,98650.5,1669829857013,sweetpotato,26163.09999999404,True,0.09,124813.59999999404,26163.09999999404,True,HRV,HRV_0031,2022-11-30 17:38:16
53,"[{'imgObject': {}, 'id': 'shreddedwheatwithmilk', 'src': '/static/foodstim60/shreddedwheatwithmilk.jpg', 'key': 'NaN', 'origWidth': 410, 'origHeight': 410, 'width': 410, 'height': 410, 'widthPercent': 0.8, 'rescaleHeight': True, 'trialN': 53, 'loaded': True, 'loadedTime': 124822.29999998212, 'positionName': 'CENTER', 'positionCoords': [515, 245]}]",Rate how much you want to eat this food from 0 (least) to 10 (most).,124817.19999998808,1669829883180,shreddedwheatwithmilk,2563.0999999940395,True,0.11,127380.29999998212,2563.0999999940395,True,HRV,HRV_0031,2022-11-30 17:38:16
54,"[{'imgObject': {}, 'id': 'popsicles', 'src': '/static/foodstim60/popsicles.jpg', 'key': 'NaN', 'origWidth': 410, 'origHeight': 410, 'width': 410, 'height': 410, 'widthPercent': 0.8, 'rescaleHeight': True, 'trialN': 54, 'loaded': True, 'loadedTime': 127388.79999998212, 'positionName': 'CENTER', 'positionCoords': [515, 245]}]",Rate how much you want to eat this food from 0 (least) to 10 (most).,127384.5,1669829885747,popsicles,1862.5,True,9.91,129247.0,1862.5,True,HRV,HRV_0031,2022-11-30 17:38:16
55,"[{'imgObject': {}, 'id': 'cherries', 'src': '/static/foodstim60/cherries.jpg', 'key': 'NaN', 'origWidth': 410, 'origHeight': 411, 'width': 410, 'height': 411, 'widthPercent': 0.8, 'rescaleHeight': True, 'trialN': 55, 'loaded': True, 'loadedTime': 129255.29999998212, 'positionName': 'CENTER', 'positionCoords': [515, 244.5]}]",Rate how much you want to eat this food from 0 (least) to 10 (most).,129250.59999999404,1669829887613,cherries,1746.4000000059605,True,0.05,130997.0,1746.4000000059605,True,HRV,HRV_0031,2022-11-30 17:38:16
56,"[{'imgObject': {}, 'id': 'mac & cheese', 'src': '/static/foodstim60/mac & cheese.jpg', 'key': 'NaN', 'origWidth': 410, 'origHeight': 410, 'width': 410, 'height': 410, 'widthPercent': 0.8, 'rescaleHeight': True, 'trialN': 56, 'loaded': True, 'loadedTime': 131000.59999999404, 'positionName': 'CENTER', 'positionCoords': [515, 245]}]",Rate how much you want to eat this food from 0 (least) to 10 (most).,130998.40000000596,1669829889361,mac & cheese,1782.0,True,9.83,132780.40000000596,1782.0,True,HRV,HRV_0031,2022-11-30 17:38:16
57,"[{'imgObject': {}, 'id': 'strawberries', 'src': '/static/foodstim60/strawberries.jpg', 'key': 'NaN', 'origWidth': 410, 'origHeight': 410, 'width': 410, 'height': 410, 'widthPercent': 0.8, 'rescaleHeight': True, 'trialN': 57, 'loaded': True, 'loadedTime': 132788.40000000596, 'positionName': 'CENTER', 'positionCoords': [515, 245]}]",Rate how much you want to eat this food from 0 (least) to 10 (most).,132784.29999998212,1669829891146,strawberries,1529.300000011921,True,8.02,134313.59999999404,1529.300000011921,True,HRV,HRV_0031,2022-11-30 17:38:16
58,"[{'imgObject': {}, 'id': 'baked potato', 'src': '/static/foodstim60/baked potato.jpg', 'key': 'NaN', 'origWidth': 409, 'origHeight': 410, 'width': 409, 'height': 410, 'widthPercent': 0.8, 'rescaleHeight': True, 'trialN': 58, 'loaded': True, 'loadedTime': 134317.90000000596, 'positionName': 'CENTER', 'positionCoords': [515.5, 245]}]",Rate how much you want to eat this food from 0 (least) to 10 (most).,134315.29999998212,1669829892678,baked potato,2098.5,True,9.94,136413.79999998212,2098.5,True,HRV,HRV_0031,2022-11-30 17:38:16
59,"[{'imgObject': {}, 'id': 'avocado', 'src': '/static/foodstim60/avocado.jpg', 'key': 'NaN', 'origWidth': 409, 'origHeight': 409, 'width': 409, 'height': 409, 'widthPercent': 0.8, 'rescaleHeight': True, 'trialN': 59, 'loaded': True, 'loadedTime': 136422.90000000596, 'positionName': 'CENTER', 'positionCoords': [515.5, 245.5]}]",Rate how much you want to eat this food from 0 (least) to 10 (most).,136418.0,1669829894780,avocado,1679.0999999940395,True,0.09,138097.09999999404,1679.0999999940395,True,HRV,HRV_0031,2022-11-30 17:38:16
