success,trial_type,trial_index,time_elapsed,internal_node_id,Block,TrialNumber,TrialTime,trialTimeDiff,FPS_avg,FPS_med,FPS_mode,TrialDur,winResizeTime,rt,block,button_pressed,MotCoh,MotDir,ColCoh,Color,ChoiceKey,Choice,Accuracy,RT,nFrames,FPS,PPD,missTrial,missTrialMsg,onsetDelay,fullScreenExitTime,canvCenter,TrialType,Score,BlockTrial,stimulus,button_labels,exp,subjectId,date
True,fullscreen,0,2384,0.0-0.0,0.0,1.0,,,,,,,,,,,,,,,,,,,,,,,,,,,,,,,,HRV,HRV_0031,2022-11-30 18:06:42
,wl-check-fps,1,7373,0.0-1.0,0.0,2.0,"[3028, 3028.7, 3042.1, 3058.9, 3076.4, 3093, 3109.3, 3125.7, 3143, 3160, 3175, 3193, 3209.1, 3225.7, 3242.9, 3259.8, 3275.8, 3292.9, 3309.1, 3326.5, 3342.3, 3358.9, 3375.8, 3392, 3409, 3425.1, 3442.5, 3458.8, 3475.9, 3492.1, 3509.3, 3525.8, 3541.2, 3558.6, 3575.8, 3592.8, 3608.8, 3626.1, 3642.1, 3659, 3675.6, 3692.3, 3708.8, 3725.6, 3742.3, 3758.8, 3775.6, 3792.5, 3808.9, 3826.2, 3843.3, 3859.1, 3876.4, 3892.8, 3908.9, 3925.9, 3943.2, 3959.2, 3976.3, 3992.5, 4009.6, 4025.6, 4042.9, 4059, 4075.7, 4092.3, 4109.7, 4125.6, 4142.3, 4159.5, 4175.6, 4192.7, 4208.8, 4225.3, 4243, 4258.8, 4275.7, 4292.4, 4309, 4325.7, 4342.2, 4358.6, 4375.2, 4393.1, 4409.2, 4426.1, 4442.1, 4458.8, 4474.5, 4491.5, 4508.5, 4525.3, 4542, 4559.1, 4575.4, 4592.5, 4609.2, 4626.2, 4642.8, 4660, 4676.5, 4692.5, 4708.9, 4726.5, 4742.1, 4759, 4776.1, 4792.6, 4809.4, 4825.6, 4842.9, 4859, 4876.5, 4892.7, 4909, 4926.1, 4942.3, 4959, 4976.1, 4992.4, 5009.5, 5025.8, 5043, 5059.2, 5075.6, 5092.6, 5109.3, 5125.5, 5141.6, 5159.1, 5176.3, 5192.8, 5209, 5225.8, 5243, 5259, 5276.3, 5292.3, 5309.1, 5326.4, 5342.3, 5359.7, 5375.8, 5392.6, 5409.7, 5426.1, 5442.4, 5459.7, 5475.9, 5492.2, 5509.5, 5525.6, 5542.3, 5559.1, 5575.5, 5592.3, 5609.1, 5625.9, 5642.2, 5659, 5676, 5692.9, 5708.9, 5726, 5742, 5759, 5776, 5793, 5809.4, 5825.7, 5842.3, 5859.8, 5876.3, 5892.5, 5909, 5925.6, 5942.4, 5959, 5975.5, 5992.9, 6009.5, 6025.8, 6042.4, 6058.6, 6076.3, 6092.7, 6109.1, 6126.4, 6142.3, 6159.1, 6175.6, 6192.2, 6209.4, 6225.7, 6242.5, 6259.1, 6275.8, 6292.4, 6308.9, 6325.5, 6342, 6359.1, 6376, 6392.1, 6408.8, 6426.3, 6442.1, 6458.8, 6475.8, 6492.4, 6509.2, 6526.3, 6543.7, 6558.8, 6575.7, 6592.1, 6608.9, 6625.3, 6642, 6659, 6675.5, 6692.4, 6709.1, 6725.6, 6742.3, 6759.5, 6775.9, 6792.8, 6809, 6825.9, 6842.7, 6858.5, 6875.7, 6892.8, 6909.2, 6925.6, 6942.3, 6959, 6976, 6992.4, 7009.5, 7025.8, 7042.5, 7059.7, 7075.9, 7092.2, 7109, 7125.5, 7142.1, 7159, 7175.6, 7192.6, 7208.9, 7226.3, 7241.7, 7259.3, 7275.5, 7292.5, 7309.6, 7325.8, 7342.5, 7359, 7376, 7392.3, 7409.6, 7425.7, 7442.9, 7458.9, 7476.1, 7492.3, 7509.4, 7525.9, 7542.5, 7559, 7576.2, 7592.7, 7608.9, 7625.5, 7642.2, 7658.6, 7675.8, 7692.3, 7708.9, 7726.3, 7742.1, 7759.3, 7775.5, 7792.3, 7809.6, 7825.6, 7842.3, 7858.8, 7875.6, 7892.2, 7908.9, 7926.1, 7942.1, 7959, 7976.3, 7992.4]","[3.1, 0.7, 13.4, 16.8, 17.5, 16.6, 16.3, 16.4, 17.3, 17, 15, 18, 16.1, 16.6, 17.2, 16.9, 16, 17.1, 16.2, 17.4, 15.8, 16.6, 16.9, 16.2, 17, 16.1, 17.4, 16.3, 17.1, 16.2, 17.2, 16.5, 15.4, 17.4, 17.2, 17, 16, 17.3, 16, 16.9, 16.6, 16.7, 16.5, 16.8, 16.7, 16.5, 16.8, 16.9, 16.4, 17.3, 17.1, 15.8, 17.3, 16.4, 16.1, 17, 17.3, 16, 17.1, 16.2, 17.1, 16, 17.3, 16.1, 16.7, 16.6, 17.4, 15.9, 16.7, 17.2, 16.1, 17.1, 16.1, 16.5, 17.7, 15.8, 16.9, 16.7, 16.6, 16.7, 16.5, 16.4, 16.6, 17.9, 16.1, 16.9, 16, 16.7, 15.7, 17, 17, 16.8, 16.7, 17.1, 16.3, 17.1, 16.7, 17, 16.6, 17.2, 16.5, 16, 16.4, 17.6, 15.6, 16.9, 17.1, 16.5, 16.8, 16.2, 17.3, 16.1, 17.5, 16.2, 16.3, 17.1, 16.2, 16.7, 17.1, 16.3, 17.1, 16.3, 17.2, 16.2, 16.4, 17, 16.7, 16.2, 16.1, 17.5, 17.2, 16.5, 16.2, 16.8, 17.2, 16, 17.3, 16, 16.8, 17.3, 15.9, 17.4, 16.1, 16.8, 17.1, 16.4, 16.3, 17.3, 16.2, 16.3, 17.3, 16.1, 16.7, 16.8, 16.4, 16.8, 16.8, 16.8, 16.3, 16.8, 17, 16.9, 16, 17.1, 16, 17, 17, 17, 16.4, 16.3, 16.6, 17.5, 16.5, 16.2, 16.5, 16.6, 16.8, 16.6, 16.5, 17.4, 16.6, 16.3, 16.6, 16.2, 17.7, 16.4, 16.4, 17.3, 15.9, 16.8, 16.5, 16.6, 17.2, 16.3, 16.8, 16.6, 16.7, 16.6, 16.5, 16.6, 16.5, 17.1, 16.9, 16.1, 16.7, 17.5, 15.8, 16.7, 17, 16.6, 16.8, 17.1, 17.4, 15.1, 16.9, 16.4, 16.8, 16.4, 16.7, 17, 16.5, 16.9, 16.7, 16.5, 16.7, 17.2, 16.4, 16.9, 16.2, 16.9, 16.8, 15.8, 17.2, 17.1, 16.4, 16.4, 16.7, 16.7, 17, 16.4, 17.1, 16.3, 16.7, 17.2, 16.2, 16.3, 16.8, 16.5, 16.6, 16.9, 16.6, 17, 16.3, 17.4, 15.4, 17.6, 16.2, 17, 17.1, 16.2, 16.7, 16.5, 17, 16.3, 17.3, 16.1, 17.2, 16, 17.2, 16.2, 17.1, 16.5, 16.6, 16.5, 17.2, 16.5, 16.2, 16.6, 16.7, 16.4, 17.2, 16.5, 16.6, 17.4, 15.8, 17.2, 16.2, 16.8, 17.3, 16, 16.7, 16.5, 16.8, 16.6, 16.7, 17.2, 16, 16.9, 17.3, 16.1]",60.0,60.0,60.0,4984.1,[],,,,,,,,,,,,,,,,,,,,,,,,,HRV,HRV_0031,2022-11-30 18:06:42
,wl-html-keyboard-response,2,29046,0.0-2.0-0.0,0.0,3.0,,,,,,,,19666.0,0.0,0,,,,,,,,,,,,,,,,,,,,,,HRV,HRV_0031,2022-11-30 18:06:42
,wl-rdm,3,36671,0.0-3.0-0.0,0.0,4.0,,,,,,,[],,,,0.0,0.0,87.9,0.0,u,0.0,True,2072.2999999821186,125.0,60.0,40.0,False,,3000.0,[],"[720, 450]",ColorTask_Demo,,,,,HRV,HRV_0031,2022-11-30 18:06:42
,wl-rdm,4,41554,0.0-3.0-1.0,0.0,5.0,,,,,,,[],,,,0.0,0.0,87.9,1.0,i,1.0,True,830.3000000119209,50.0,60.0,40.0,False,,2000.0,[],"[720, 450]",ColorTask_Demo,,,,,HRV,HRV_0031,2022-11-30 18:06:42
,wl-html-keyboard-response,5,47197,0.0-3.0-2.0,0.0,6.0,,,,,,,,3636.5,0.0,1,,,,,,,,,,,,,,,,,,,,,,HRV,HRV_0031,2022-11-30 18:06:42
,wl-html-keyboard-response,6,57042,0.0-4.0-0.0,0.0,7.0,,,,,,,,7840.799999982119,0.0,0,,,,,,,,,,,,,,,,,,,,,,HRV,HRV_0031,2022-11-30 18:06:42
,wl-html-keyboard-response,7,67005,0.0-5.0-0.0,0.0,8.0,,,,,,,,7957.9000000059605,0.0,0,,,,,,,,,,,,,,,,,,,,,,HRV,HRV_0031,2022-11-30 18:06:42
,wl-rdm,8,69222,0.0-6.0-0.0,0.0,9.0,,,,,,,[],,,,,,50.0,1.0,i,1.0,True,901.3000000119209,54.0,60.0,40.0,False,,238.76746973057948,[],"[720, 450]",ColorTask,1.0,1.0,,,HRV,HRV_0031,2022-11-30 18:06:42
,wl-rdm,9,71605,0.0-6.1-0.1,0.0,10.0,,,,,,,[],,,,,,56.4,1.0,i,1.0,True,924.9000000059605,56.0,60.0,40.0,False,,393.6489202744764,[],"[720, 450]",ColorTask,2.0,2.0,,,HRV,HRV_0031,2022-11-30 18:06:42
,wl-rdm,10,73654,0.0-6.2-0.2,0.0,11.0,,,,,,,[],,,,,,87.9,0.0,u,0.0,True,706.1999999880791,43.0,60.0,40.0,False,,273.5242243135882,[],"[720, 450]",ColorTask,3.0,3.0,,,HRV,HRV_0031,2022-11-30 18:06:42
,wl-rdm,11,75572,0.0-6.3-0.3,0.0,12.0,,,,,,,[],,,,,,87.9,0.0,u,0.0,True,623.3000000119209,38.0,60.0,40.0,False,,226.6095465495595,[],"[720, 450]",ColorTask,4.0,4.0,,,HRV,HRV_0031,2022-11-30 18:06:42
,wl-rdm,12,78138,0.0-6.4-0.4,0.0,13.0,,,,,,,[],,,,,,53.2,0.0,i,1.0,False,1189.0,72.0,60.0,40.0,False,,293.981529079941,[],"[720, 450]",ColorTask,3.0,5.0,,,HRV,HRV_0031,2022-11-30 18:06:42
,wl-rdm,13,80404,0.0-6.5-0.5,0.0,14.0,,,,,,,[],,,,,,56.4,0.0,i,1.0,False,905.8000000119209,55.0,60.0,40.0,False,,293.70771450048244,[],"[720, 450]",ColorTask,2.0,6.0,,,HRV,HRV_0031,2022-11-30 18:06:42
,wl-rdm,14,82671,0.0-6.6-0.6,0.0,15.0,,,,,,,[],,,,,,53.2,1.0,i,1.0,True,993.1999999880791,60.0,60.0,40.0,False,,211.4134296414064,[],"[720, 450]",ColorTask,3.0,7.0,,,HRV,HRV_0031,2022-11-30 18:06:42
,wl-rdm,15,84855,0.0-6.7-0.7,0.0,16.0,,,,,,,[],,,,,,62.5,1.0,i,1.0,True,770.5999999940395,47.0,60.0,40.0,False,,333.253663039485,[],"[720, 450]",ColorTask,4.0,8.0,,,HRV,HRV_0031,2022-11-30 18:06:42
,wl-rdm,16,87171,0.0-6.8-0.8,0.0,17.0,,,,,,,[],,,,,,50.0,1.0,i,1.0,True,1015.8999999761581,61.0,60.0,40.0,False,,248.10074957903618,[],"[720, 450]",ColorTask,5.0,9.0,,,HRV,HRV_0031,2022-11-30 18:06:42
,wl-rdm,17,89321,0.0-6.9-0.9,0.0,18.0,,,,,,,[],,,,,,73.6,1.0,i,1.0,True,733.5,44.0,60.0,40.0,False,,338.3825255115888,[],"[720, 450]",ColorTask,6.0,10.0,,,HRV,HRV_0031,2022-11-30 18:06:42
,wl-rdm,18,91804,0.0-6.10-0.10,0.0,19.0,,,,,,,[],,,,,,50.0,0.0,u,0.0,True,1080.2000000178814,65.0,60.0,40.0,False,,322.4395081916688,[],"[720, 450]",ColorTask,7.0,11.0,,,HRV,HRV_0031,2022-11-30 18:06:42
,wl-rdm,19,93887,0.0-6.11-0.11,0.0,20.0,,,,,,,[],,,,,,87.9,0.0,u,0.0,True,690.8000000119209,42.0,60.0,40.0,False,,315.39047221507633,[],"[720, 450]",ColorTask,8.0,12.0,,,HRV,HRV_0031,2022-11-30 18:06:42
,wl-rdm,20,96204,0.0-6.12-0.12,0.0,21.0,,,,,,,[],,,,,,53.2,0.0,i,1.0,False,892.8000000119209,54.0,60.0,40.0,False,,360.48024930889125,[],"[720, 450]",ColorTask,7.0,13.0,,,HRV,HRV_0031,2022-11-30 18:06:42
,wl-rdm,21,98303,0.0-6.13-0.13,0.0,22.0,,,,,,,[],,,,,,62.5,1.0,i,1.0,True,648.1999999880791,39.0,60.0,40.0,False,,381.4830351692634,[],"[720, 450]",ColorTask,8.0,14.0,,,HRV,HRV_0031,2022-11-30 18:06:42
,wl-rdm,22,100587,0.0-6.14-0.14,0.0,23.0,,,,,,,[],,,,,,62.5,0.0,u,0.0,True,870.5999999940395,53.0,60.0,40.0,False,,333.2841273609955,[],"[720, 450]",ColorTask,9.0,15.0,,,HRV,HRV_0031,2022-11-30 18:06:42
,wl-rdm,23,102787,0.0-6.15-0.15,0.0,24.0,,,,,,,[],,,,,,87.9,0.0,u,0.0,True,754.1999999880791,46.0,60.0,40.0,False,,372.96795742390714,[],"[720, 450]",ColorTask,10.0,16.0,,,HRV,HRV_0031,2022-11-30 18:06:42
,wl-rdm,24,105355,0.0-6.16-0.16,0.0,25.0,,,,,,,[],,,,,,56.4,0.0,i,1.0,False,1289.5999999940395,78.0,60.0,40.0,False,,201.74233251845214,[],"[720, 450]",ColorTask,9.0,17.0,,,HRV,HRV_0031,2022-11-30 18:06:42
,wl-rdm,25,107538,0.0-6.17-0.17,0.0,26.0,,,,,,,[],,,,,,87.9,0.0,u,0.0,True,771.9000000059605,47.0,60.0,40.0,False,,318.0485241624534,[],"[720, 450]",ColorTask,10.0,18.0,,,HRV,HRV_0031,2022-11-30 18:06:42
,wl-rdm,26,109921,0.0-6.18-0.18,0.0,27.0,,,,,,,[],,,,,,50.0,1.0,i,1.0,True,939.7999999821186,57.0,60.0,40.0,False,,354.4992489966939,[],"[720, 450]",ColorTask,11.0,19.0,,,HRV,HRV_0031,2022-11-30 18:06:42
,wl-rdm,27,112154,0.0-6.19-0.19,0.0,28.0,,,,,,,[],,,,,,73.6,0.0,u,0.0,True,875.0,53.0,60.0,40.0,False,,291.50177228626455,[],"[720, 450]",ColorTask,12.0,20.0,,,HRV,HRV_0031,2022-11-30 18:06:42
,wl-rdm,28,114138,0.0-6.20-0.20,0.0,29.0,,,,,,,[],,,,,,73.6,0.0,u,0.0,True,692.8000000119209,42.0,60.0,40.0,False,,219.97492644320826,[],"[720, 450]",ColorTask,13.0,21.0,,,HRV,HRV_0031,2022-11-30 18:06:42
,wl-rdm,29,116404,0.0-6.21-0.21,0.0,30.0,,,,,,,[],,,,,,53.2,0.0,i,1.0,False,979.5,59.0,60.0,40.0,False,,205.6447518432737,[],"[720, 450]",ColorTask,12.0,22.0,,,HRV,HRV_0031,2022-11-30 18:06:42
,wl-rdm,30,118603,0.0-6.22-0.22,0.0,31.0,,,,,,,[],,,,,,53.2,0.0,i,1.0,False,833.3999999761581,50.0,60.0,40.0,False,,296.9174702963765,[],"[720, 450]",ColorTask,11.0,23.0,,,HRV,HRV_0031,2022-11-30 18:06:42
,wl-rdm,31,120770,0.0-6.23-0.23,0.0,32.0,,,,,,,[],,,,,,50.0,0.0,u,0.0,True,874.6999999880791,53.0,60.0,40.0,False,,216.18518093729614,[],"[720, 450]",ColorTask,12.0,24.0,,,HRV,HRV_0031,2022-11-30 18:06:42
,wl-rdm,32,122953,0.0-6.24-0.24,0.0,33.0,,,,,,,[],,,,,,73.6,0.0,u,0.0,True,850.9000000059605,52.0,60.0,40.0,False,,249.51167431820173,[],"[720, 450]",ColorTask,13.0,25.0,,,HRV,HRV_0031,2022-11-30 18:06:42
,wl-rdm,33,125303,0.0-6.25-0.25,0.0,34.0,,,,,,,[],,,,,,53.2,1.0,i,1.0,True,991.8999999761581,60.0,60.0,40.0,False,,283.7691092361735,[],"[720, 450]",ColorTask,14.0,26.0,,,HRV,HRV_0031,2022-11-30 18:06:42
,wl-rdm,34,127671,0.0-6.26-0.26,0.0,35.0,,,,,,,[],,,,,,62.5,0.0,u,0.0,True,1071.7999999821186,65.0,60.0,40.0,False,,212.92804073521768,[],"[720, 450]",ColorTask,15.0,27.0,,,HRV,HRV_0031,2022-11-30 18:06:42
,wl-rdm,35,129854,0.0-6.27-0.27,0.0,36.0,,,,,,,[],,,,,,73.6,0.0,u,0.0,True,787.6999999880791,48.0,60.0,40.0,False,,310.74149887264434,[],"[720, 450]",ColorTask,16.0,28.0,,,HRV,HRV_0031,2022-11-30 18:06:42
,wl-rdm,36,131870,0.0-6.28-0.28,0.0,37.0,,,,,,,[],,,,,,62.5,1.0,i,1.0,True,707.7000000476837,43.0,60.0,40.0,False,,219.14697846747026,[],"[720, 450]",ColorTask,17.0,29.0,,,HRV,HRV_0031,2022-11-30 18:06:42
,wl-rdm,37,134053,0.0-6.29-0.29,0.0,38.0,,,,,,,[],,,,,,87.9,1.0,i,1.0,True,758.4000000059605,46.0,60.0,40.0,False,,346.1673714214004,[],"[720, 450]",ColorTask,18.0,30.0,,,HRV,HRV_0031,2022-11-30 18:06:42
,wl-rdm,38,136204,0.0-6.30-0.30,0.0,39.0,,,,,,,[],,,,,,73.6,0.0,u,0.0,True,730.9000000059605,44.0,60.0,40.0,False,,361.4298104825308,[],"[720, 450]",ColorTask,19.0,31.0,,,HRV,HRV_0031,2022-11-30 18:06:42
,wl-rdm,39,138354,0.0-6.31-0.31,0.0,40.0,,,,,,,[],,,,,,87.9,0.0,u,0.0,True,757.6000000238419,46.0,60.0,40.0,False,,329.8923030957255,[],"[720, 450]",ColorTask,20.0,32.0,,,HRV,HRV_0031,2022-11-30 18:06:42
,wl-rdm,40,141320,0.0-6.32-0.32,0.0,41.0,,,,,,,[],,,,,,50.0,1.0,i,1.0,True,1558.2000000178814,94.0,60.0,40.0,False,,348.90169566879086,[],"[720, 450]",ColorTask,21.0,33.0,,,HRV,HRV_0031,2022-11-30 18:06:42
,wl-rdm,41,143886,0.0-6.33-0.33,0.0,42.0,,,,,,,[],,,,,,53.2,0.0,i,1.0,False,1226.7000000178814,74.0,60.0,40.0,False,,263.97667699930275,[],"[720, 450]",ColorTask,20.0,34.0,,,HRV,HRV_0031,2022-11-30 18:06:42
,wl-rdm,42,146171,0.0-6.34-0.34,0.0,43.0,,,,,,,[],,,,,,50.0,0.0,i,1.0,False,971.7000000178814,59.0,60.0,40.0,False,,241.91231942386318,[],"[720, 450]",ColorTask,19.0,35.0,,,HRV,HRV_0031,2022-11-30 18:06:42
,wl-rdm,43,148637,0.0-6.35-0.35,0.0,44.0,,,,,,,[],,,,,,62.5,0.0,u,0.0,True,1001.0,61.0,60.0,40.0,False,,393.657032136683,[],"[720, 450]",ColorTask,20.0,36.0,,,HRV,HRV_0031,2022-11-30 18:06:42
,wl-rdm,44,151136,0.0-6.36-0.36,0.0,45.0,,,,,,,[],,,,,,62.5,0.0,u,0.0,True,1148.0999999940395,69.0,60.0,40.0,False,,293.43328991055796,[],"[720, 450]",ColorTask,21.0,37.0,,,HRV,HRV_0031,2022-11-30 18:06:42
,wl-rdm,45,153120,0.0-6.37-0.37,0.0,46.0,,,,,,,[],,,,,,87.9,0.0,u,0.0,True,679.9000000059605,41.0,60.0,40.0,False,,218.83393199304712,[],"[720, 450]",ColorTask,22.0,38.0,,,HRV,HRV_0031,2022-11-30 18:06:42
,wl-rdm,46,155103,0.0-6.38-0.38,0.0,47.0,,,,,,,[],,,,,,73.6,1.0,i,1.0,True,699.4999999701977,42.0,60.0,40.0,False,,207.1617538800683,[],"[720, 450]",ColorTask,23.0,39.0,,,HRV,HRV_0031,2022-11-30 18:06:42
,wl-rdm,47,157486,0.0-6.39-0.39,0.0,48.0,,,,,,,[],,,,,,73.6,0.0,u,0.0,True,922.0,56.0,60.0,40.0,False,,367.80352872925505,[],"[720, 450]",ColorTask,24.0,40.0,,,HRV,HRV_0031,2022-11-30 18:06:42
,wl-rdm,48,159653,0.0-6.40-0.40,0.0,49.0,,,,,,,[],,,,,,50.0,1.0,u,0.0,False,796.0,48.0,60.0,40.0,False,,284.8554912201563,[],"[720, 450]",ColorTask,23.0,41.0,,,HRV,HRV_0031,2022-11-30 18:06:42
,wl-rdm,49,161803,0.0-6.41-0.41,0.0,50.0,,,,,,,[],,,,,,56.4,1.0,i,1.0,True,813.4000000059605,49.0,60.0,40.0,False,,252.38761101834143,[],"[720, 450]",ColorTask,24.0,42.0,,,HRV,HRV_0031,2022-11-30 18:06:42
,wl-rdm,50,164086,0.0-6.42-0.42,0.0,51.0,,,,,,,[],,,,,,56.4,0.0,u,0.0,True,938.3000000119209,57.0,60.0,40.0,False,,260.88058552507357,[],"[720, 450]",ColorTask,25.0,43.0,,,HRV,HRV_0031,2022-11-30 18:06:42
,wl-rdm,51,166070,0.0-6.43-0.43,0.0,52.0,,,,,,,[],,,,,,62.5,0.0,u,0.0,True,664.4000000059605,40.0,60.0,40.0,False,,237.7900080166079,[],"[720, 450]",ColorTask,26.0,44.0,,,HRV,HRV_0031,2022-11-30 18:06:42
,wl-rdm,52,168470,0.0-6.44-0.44,0.0,53.0,,,,,,,[],,,,,,56.4,0.0,i,1.0,False,1006.9000000059605,61.0,60.0,40.0,False,,315.87092932113586,[],"[720, 450]",ColorTask,25.0,45.0,,,HRV,HRV_0031,2022-11-30 18:06:42
,wl-rdm,53,170703,0.0-6.45-0.45,0.0,54.0,,,,,,,[],,,,,,87.9,0.0,u,0.0,True,804.5,49.0,60.0,40.0,False,,343.3480157562866,[],"[720, 450]",ColorTask,26.0,46.0,,,HRV,HRV_0031,2022-11-30 18:06:42
,wl-rdm,54,173003,0.0-6.46-0.46,0.0,55.0,,,,,,,[],,,,,,56.4,1.0,i,1.0,True,971.1999999880791,59.0,60.0,40.0,False,,248.12299360705234,[],"[720, 450]",ColorTask,27.0,47.0,,,HRV,HRV_0031,2022-11-30 18:06:42
,wl-rdm,55,175303,0.0-6.47-0.47,0.0,56.0,,,,,,,[],,,,,,50.0,0.0,u,0.0,True,989.5999999940395,60.0,60.0,40.0,False,,231.62966793704118,[],"[720, 450]",ColorTask,28.0,48.0,,,HRV,HRV_0031,2022-11-30 18:06:42
,wl-rdm,56,177804,0.0-6.48-0.48,0.0,57.0,,,,,,,[],,,,,,56.4,0.0,i,1.0,False,1062.2000000178814,64.0,60.0,40.0,False,,375.9871030134286,[],"[720, 450]",ColorTask,27.0,49.0,,,HRV,HRV_0031,2022-11-30 18:06:42
,wl-rdm,57,180436,0.0-6.49-0.49,0.0,58.0,,,,,,,[],,,,,,62.5,0.0,i,1.0,False,1227.199999988079,74.0,60.0,40.0,False,,347.43999949259023,[],"[720, 450]",ColorTask,26.0,50.0,,,HRV,HRV_0031,2022-11-30 18:06:42
,wl-rdm,58,182453,0.0-6.50-0.50,0.0,59.0,,,,,,,[],,,,,,62.5,1.0,i,1.0,True,714.2999999821186,43.0,60.0,40.0,False,,246.20742974045277,[],"[720, 450]",ColorTask,27.0,51.0,,,HRV,HRV_0031,2022-11-30 18:06:42
,wl-rdm,59,184736,0.0-6.51-0.51,0.0,60.0,,,,,,,[],,,,,,56.4,1.0,i,1.0,True,917.0,55.0,60.0,40.0,False,,308.91661959275154,[],"[720, 450]",ColorTask,28.0,52.0,,,HRV,HRV_0031,2022-11-30 18:06:42
,wl-rdm,60,187086,0.0-6.52-0.52,0.0,61.0,,,,,,,[],,,,,,53.2,0.0,u,0.0,True,907.5,55.0,60.0,40.0,False,,361.7282030161184,[],"[720, 450]",ColorTask,29.0,53.0,,,HRV,HRV_0031,2022-11-30 18:06:42
,wl-rdm,61,189153,0.0-6.53-0.53,0.0,62.0,,,,,,,[],,,,,,73.6,0.0,u,0.0,True,700.5,42.0,60.0,40.0,False,,286.09364362849703,[],"[720, 450]",ColorTask,30.0,54.0,,,HRV,HRV_0031,2022-11-30 18:06:42
,wl-rdm,62,191302,0.0-6.54-0.54,0.0,63.0,,,,,,,[],,,,,,87.9,1.0,i,1.0,True,821.0,50.0,60.0,40.0,False,,245.4950009953257,[],"[720, 450]",ColorTask,31.0,55.0,,,HRV,HRV_0031,2022-11-30 18:06:42
,wl-rdm,63,193603,0.0-6.55-0.55,0.0,64.0,,,,,,,[],,,,,,56.4,0.0,u,0.0,True,848.0,51.0,60.0,40.0,False,,367.72760558572446,[],"[720, 450]",ColorTask,32.0,56.0,,,HRV,HRV_0031,2022-11-30 18:06:42
,wl-rdm,64,195670,0.0-6.56-0.56,0.0,65.0,,,,,,,[],,,,,,53.2,1.0,u,0.0,False,763.3000000119209,46.0,60.0,40.0,False,,225.1637885307114,[],"[720, 450]",ColorTask,31.0,57.0,,,HRV,HRV_0031,2022-11-30 18:06:42
,wl-rdm,65,197553,0.0-6.57-0.57,0.0,66.0,,,,,,,[],,,,,,73.6,1.0,i,1.0,True,561.5,34.0,60.0,40.0,False,,236.37726575887672,[],"[720, 450]",ColorTask,32.0,58.0,,,HRV,HRV_0031,2022-11-30 18:06:42
,wl-rdm,66,199902,0.0-6.58-0.58,0.0,67.0,,,,,,,[],,,,,,50.0,0.0,u,0.0,True,1048.8999999761581,63.0,60.0,40.0,False,,246.3178897764571,[],"[720, 450]",ColorTask,33.0,59.0,,,HRV,HRV_0031,2022-11-30 18:06:42
,wl-rdm,67,202002,0.0-6.59-0.59,0.0,68.0,,,,,,,[],,,,,,50.0,1.0,i,1.0,True,830.7000000178814,50.0,60.0,40.0,False,,207.7098536081844,[],"[720, 450]",ColorTask,34.0,60.0,,,HRV,HRV_0031,2022-11-30 18:06:42
,wl-rdm,68,203953,0.0-6.60-0.60,0.0,69.0,,,,,,,[],,,,,,62.5,1.0,i,1.0,True,598.1999999880791,36.0,60.0,40.0,False,,285.42989130546175,[],"[720, 450]",ColorTask,35.0,61.0,,,HRV,HRV_0031,2022-11-30 18:06:42
,wl-rdm,69,206203,0.0-6.61-0.61,0.0,70.0,,,,,,,[],,,,,,53.2,0.0,u,0.0,True,973.1999999880791,59.0,60.0,40.0,False,,204.28963989104795,[],"[720, 450]",ColorTask,36.0,62.0,,,HRV,HRV_0031,2022-11-30 18:06:42
,wl-rdm,70,208353,0.0-6.62-0.62,0.0,71.0,,,,,,,[],,,,,,87.9,0.0,u,0.0,True,732.3000000119209,44.0,60.0,40.0,False,,342.15271550435614,[],"[720, 450]",ColorTask,37.0,63.0,,,HRV,HRV_0031,2022-11-30 18:06:42
,wl-rdm,71,210703,0.0-6.63-0.63,0.0,72.0,,,,,,,[],,,,,,62.5,0.0,i,1.0,False,923.4000000059605,56.0,60.0,40.0,False,,350.31506787667047,[],"[720, 450]",ColorTask,36.0,64.0,,,HRV,HRV_0031,2022-11-30 18:06:42
,wl-rdm,72,212669,0.0-6.64-0.64,0.0,73.0,,,,,,,[],,,,,,73.6,1.0,i,1.0,True,647.2000000178814,39.0,60.0,40.0,False,,250.95301802933213,[],"[720, 450]",ColorTask,37.0,65.0,,,HRV,HRV_0031,2022-11-30 18:06:42
,wl-rdm,73,214869,0.0-6.65-0.65,0.0,74.0,,,,,,,[],,,,,,53.2,1.0,u,0.0,False,827.9000000059605,50.0,60.0,40.0,False,,296.33855991002196,[],"[720, 450]",ColorTask,36.0,66.0,,,HRV,HRV_0031,2022-11-30 18:06:42
,wl-rdm,74,217052,0.0-6.66-0.66,0.0,75.0,,,,,,,[],,,,,,56.4,0.0,u,0.0,True,888.7000000178814,54.0,60.0,40.0,False,,218.03114637410567,[],"[720, 450]",ColorTask,37.0,67.0,,,HRV,HRV_0031,2022-11-30 18:06:42
,wl-rdm,75,219469,0.0-6.67-0.67,0.0,76.0,,,,,,,[],,,,,,53.2,1.0,i,1.0,True,1116.2999999821186,67.0,60.0,40.0,False,,237.59920986108702,[],"[720, 450]",ColorTask,38.0,68.0,,,HRV,HRV_0031,2022-11-30 18:06:42
,wl-rdm,76,221836,0.0-6.68-0.68,0.0,77.0,,,,,,,[],,,,,,50.0,1.0,u,0.0,False,922.5000000298023,56.0,60.0,40.0,False,,370.88948695844823,[],"[720, 450]",ColorTask,37.0,69.0,,,HRV,HRV_0031,2022-11-30 18:06:42
,wl-rdm,77,223837,0.0-6.69-0.69,0.0,78.0,,,,,,,[],,,,,,87.9,1.0,i,1.0,True,586.3000000119209,36.0,60.0,40.0,False,,342.3641332030162,[],"[720, 450]",ColorTask,38.0,70.0,,,HRV,HRV_0031,2022-11-30 18:06:42
,wl-rdm,78,226003,0.0-6.70-0.70,0.0,79.0,,,,,,,[],,,,,,62.5,1.0,i,1.0,True,797.6000000238419,48.0,60.0,40.0,False,,302.03177313768873,[],"[720, 450]",ColorTask,39.0,71.0,,,HRV,HRV_0031,2022-11-30 18:06:42
,wl-rdm,79,227987,0.0-6.71-0.71,0.0,80.0,,,,,,,[],,,,,,62.5,0.0,u,0.0,True,684.5999999940395,41.0,60.0,40.0,False,,225.4555862797031,[],"[720, 450]",ColorTask,40.0,72.0,,,HRV,HRV_0031,2022-11-30 18:06:42
,wl-rdm,80,230137,0.0-6.72-0.72,0.0,81.0,,,,,,,[],,,,,,73.6,1.0,i,1.0,True,832.4000000059605,50.0,60.0,40.0,False,,235.36603420116364,[],"[720, 450]",ColorTask,41.0,73.0,,,HRV,HRV_0031,2022-11-30 18:06:42
,wl-rdm,81,232020,0.0-6.73-0.73,0.0,82.0,,,,,,,[],,,,,,87.9,1.0,i,1.0,True,590.3000000119209,36.0,60.0,40.0,False,,230.66835129544202,[],"[720, 450]",ColorTask,42.0,74.0,,,HRV,HRV_0031,2022-11-30 18:06:42
,wl-rdm,82,234253,0.0-6.74-0.74,0.0,83.0,,,,,,,[],,,,,,53.2,1.0,i,1.0,True,870.9000000059605,53.0,60.0,40.0,False,,287.9594059157232,[],"[720, 450]",ColorTask,43.0,75.0,,,HRV,HRV_0031,2022-11-30 18:06:42
,wl-rdm,83,236120,0.0-6.75-0.75,0.0,84.0,,,,,,,[],,,,,,87.9,1.0,i,1.0,True,498.59999999403954,30.0,60.0,40.0,False,,309.78548791922134,[],"[720, 450]",ColorTask,44.0,76.0,,,HRV,HRV_0031,2022-11-30 18:06:42
,wl-rdm,84,238202,0.0-6.76-0.76,0.0,85.0,,,,,,,[],,,,,,53.2,1.0,i,1.0,True,746.0999999940395,45.0,60.0,40.0,False,,273.49780450753815,[],"[720, 450]",ColorTask,45.0,77.0,,,HRV,HRV_0031,2022-11-30 18:06:42
,wl-rdm,85,240069,0.0-6.77-0.77,0.0,86.0,,,,,,,[],,,,,,73.6,1.0,i,1.0,True,530.4000000059605,32.0,60.0,40.0,False,,280.8599123691454,[],"[720, 450]",ColorTask,46.0,78.0,,,HRV,HRV_0031,2022-11-30 18:06:42
,wl-rdm,86,241902,0.0-6.78-0.78,0.0,87.0,,,,,,,[],,,,,,87.9,1.0,i,1.0,True,508.09999999403954,31.0,60.0,40.0,False,,244.0671607574836,[],"[720, 450]",ColorTask,47.0,79.0,,,HRV,HRV_0031,2022-11-30 18:06:42
,wl-rdm,87,244020,0.0-6.79-0.79,0.0,88.0,,,,,,,[],,,,,,56.4,0.0,u,0.0,True,833.1999999880791,50.0,60.0,40.0,False,,227.68187798808734,[],"[720, 450]",ColorTask,48.0,80.0,,,HRV,HRV_0031,2022-11-30 18:06:42
,wl-rdm,88,246202,0.0-6.80-0.80,0.0,89.0,,,,,,,[],,,,,,53.2,0.0,i,1.0,False,705.1000000238419,43.0,60.0,40.0,False,,395.9557754342575,[],"[720, 450]",ColorTask,47.0,81.0,,,HRV,HRV_0031,2022-11-30 18:06:42
,wl-rdm,89,248186,0.0-6.81-0.81,0.0,90.0,,,,,,,[],,,,,,50.0,1.0,i,1.0,True,625.6000000238419,38.0,60.0,40.0,False,,290.07254675603576,[],"[720, 450]",ColorTask,48.0,82.0,,,HRV,HRV_0031,2022-11-30 18:06:42
,wl-rdm,90,250702,0.0-6.82-0.82,0.0,91.0,,,,,,,[],,,,,,53.2,0.0,u,0.0,True,1135.300000011921,69.0,60.0,40.0,False,,296.8127855886663,[],"[720, 450]",ColorTask,49.0,83.0,,,HRV,HRV_0031,2022-11-30 18:06:42
,wl-rdm,91,252819,0.0-6.83-0.83,0.0,92.0,,,,,,,[],,,,,,50.0,0.0,i,1.0,False,784.1999999880791,47.0,60.0,40.0,False,,260.79389670202977,[],"[720, 450]",ColorTask,48.0,84.0,,,HRV,HRV_0031,2022-11-30 18:06:42
,wl-rdm,92,255019,0.0-6.84-0.84,0.0,93.0,,,,,,,[],,,,,,62.5,1.0,i,1.0,True,824.1999999880791,50.0,60.0,40.0,False,,295.15738611188186,[],"[720, 450]",ColorTask,49.0,85.0,,,HRV,HRV_0031,2022-11-30 18:06:42
,wl-rdm,93,257102,0.0-6.85-0.85,0.0,94.0,,,,,,,[],,,,,,73.6,0.0,u,0.0,True,716.4000000059605,43.0,60.0,40.0,False,,288.4776086244674,[],"[720, 450]",ColorTask,50.0,86.0,,,HRV,HRV_0031,2022-11-30 18:06:42
,wl-rdm,94,259452,0.0-6.86-0.86,0.0,95.0,,,,,,,[],,,,,,50.0,0.0,i,1.0,False,954.0999999940395,58.0,60.0,40.0,False,,323.97746835818896,[],"[720, 450]",ColorTask,49.0,87.0,,,HRV,HRV_0031,2022-11-30 18:06:42
,wl-rdm,95,261469,0.0-6.87-0.87,0.0,96.0,,,,,,,[],,,,,,73.6,1.0,i,1.0,True,722.3000000119209,44.0,60.0,40.0,False,,205.27215266161392,[],"[720, 450]",ColorTask,50.0,88.0,,,HRV,HRV_0031,2022-11-30 18:06:42
,wl-rdm,96,263603,0.0-6.88-0.88,0.0,97.0,,,,,,,[],,,,,,50.0,0.0,i,1.0,False,843.8999999761581,51.0,60.0,40.0,False,,225.58638504144787,[],"[720, 450]",ColorTask,49.0,89.0,,,HRV,HRV_0031,2022-11-30 18:06:42
,wl-rdm,97,266002,0.0-6.89-0.89,0.0,98.0,,,,,,,[],,,,,,53.2,1.0,u,0.0,False,945.4999999701977,57.0,60.0,40.0,False,,373.7711554359609,[],"[720, 450]",ColorTask,48.0,90.0,,,HRV,HRV_0031,2022-11-30 18:06:42
,wl-rdm,98,268069,0.0-6.90-0.90,0.0,99.0,,,,,,,[],,,,,,56.4,1.0,i,1.0,True,748.1000000238419,45.0,60.0,40.0,False,,267.0158611270544,[],"[720, 450]",ColorTask,49.0,91.0,,,HRV,HRV_0031,2022-11-30 18:06:42
,wl-rdm,99,270569,0.0-6.91-0.91,0.0,100.0,,,,,,,[],,,,,,62.5,0.0,u,0.0,True,1113.199999988079,67.0,60.0,40.0,False,,319.8094150272206,[],"[720, 450]",ColorTask,50.0,92.0,,,HRV,HRV_0031,2022-11-30 18:06:42
,wl-rdm,100,273035,0.0-6.92-0.92,0.0,101.0,,,,,,,[],,,,,,56.4,0.0,i,1.0,False,1123.0999999940395,68.0,60.0,40.0,False,,265.59062142604284,[],"[720, 450]",ColorTask,49.0,93.0,,,HRV,HRV_0031,2022-11-30 18:06:42
,wl-rdm,101,275169,0.0-6.93-0.93,0.0,102.0,,,,,,,[],,,,,,56.4,1.0,i,1.0,True,732.0,44.0,60.0,40.0,False,,345.557965688561,[],"[720, 450]",ColorTask,50.0,94.0,,,HRV,HRV_0031,2022-11-30 18:06:42
,wl-rdm,102,277119,0.0-6.94-0.94,0.0,103.0,,,,,,,[],,,,,,73.6,1.0,i,1.0,True,607.3000000119209,37.0,60.0,40.0,False,,260.00609935535897,[],"[720, 450]",ColorTask,51.0,95.0,,,HRV,HRV_0031,2022-11-30 18:06:42
,wl-rdm,103,279118,0.0-6.95-0.95,0.0,104.0,,,,,,,[],,,,,,56.4,1.0,u,0.0,False,606.6999999880791,37.0,60.0,40.0,False,,305.261706845404,[],"[720, 450]",ColorTask,50.0,96.0,,,HRV,HRV_0031,2022-11-30 18:06:42
,wl-rdm,104,281268,0.0-6.96-0.96,0.0,105.0,,,,,,,[],,,,,,56.4,1.0,u,0.0,False,837.5,51.0,60.0,40.0,False,,232.28952676630848,[],"[720, 450]",ColorTask,49.0,97.0,,,HRV,HRV_0031,2022-11-30 18:06:42
,wl-rdm,105,283570,0.0-6.97-0.97,0.0,106.0,,,,,,,[],,,,,,56.4,1.0,u,0.0,False,972.2000000178814,59.0,60.0,40.0,False,,261.263000190379,[],"[720, 450]",ColorTask,48.0,98.0,,,HRV,HRV_0031,2022-11-30 18:06:42
,wl-rdm,106,285619,0.0-6.98-0.98,0.0,107.0,,,,,,,[],,,,,,50.0,1.0,i,1.0,True,740.3000000119209,45.0,60.0,40.0,False,,229.22691107865762,[],"[720, 450]",ColorTask,49.0,99.0,,,HRV,HRV_0031,2022-11-30 18:06:42
,wl-rdm,107,288019,0.0-6.99-0.99,0.0,108.0,,,,,,,[],,,,,,53.2,1.0,i,1.0,True,940.9000000059605,57.0,60.0,40.0,False,,383.32278875235716,[],"[720, 450]",ColorTask,50.0,100.0,,,HRV,HRV_0031,2022-11-30 18:06:42
,wl-rdm,108,290002,0.0-6.100-0.100,0.0,109.0,,,,,,,[],,,,,,87.9,1.0,i,1.0,True,648.4999999701977,39.0,60.0,40.0,False,,272.4984169245467,[],"[720, 450]",ColorTask,51.0,101.0,,,HRV,HRV_0031,2022-11-30 18:06:42
,wl-rdm,109,291951,0.0-6.101-0.101,0.0,110.0,,,,,,,[],,,,,,87.9,1.0,i,1.0,True,572.6000000238419,35.0,60.0,40.0,False,,305.0174202695255,[],"[720, 450]",ColorTask,52.0,102.0,,,HRV,HRV_0031,2022-11-30 18:06:42
,wl-rdm,110,294218,0.0-6.102-0.102,0.0,111.0,,,,,,,[],,,,,,62.5,1.0,i,1.0,True,892.8000000119209,54.0,60.0,40.0,False,,316.4743685783364,[],"[720, 450]",ColorTask,53.0,103.0,,,HRV,HRV_0031,2022-11-30 18:06:42
,wl-rdm,111,296052,0.0-6.103-0.103,0.0,112.0,,,,,,,[],,,,,,87.9,1.0,i,1.0,True,521.6999999880791,32.0,60.0,40.0,False,,221.0032178662417,[],"[720, 450]",ColorTask,54.0,104.0,,,HRV,HRV_0031,2022-11-30 18:06:42
,wl-rdm,112,298218,0.0-6.104-0.104,0.0,113.0,,,,,,,[],,,,,,50.0,0.0,i,1.0,False,723.1999999880791,44.0,60.0,40.0,False,,376.0438178415247,[],"[720, 450]",ColorTask,53.0,105.0,,,HRV,HRV_0031,2022-11-30 18:06:42
,wl-rdm,113,300385,0.0-6.105-0.105,0.0,114.0,,,,,,,[],,,,,,62.5,1.0,i,1.0,True,721.8000000119209,44.0,60.0,40.0,False,,365.895330195548,[],"[720, 450]",ColorTask,54.0,106.0,,,HRV,HRV_0031,2022-11-30 18:06:42
,wl-rdm,114,302418,0.0-6.106-0.106,0.0,115.0,,,,,,,[],,,,,,73.6,0.0,u,0.0,True,588.6999999880791,36.0,60.0,40.0,False,,362.3551761556877,[],"[720, 450]",ColorTask,55.0,107.0,,,HRV,HRV_0031,2022-11-30 18:06:42
,wl-rdm,115,304319,0.0-6.107-0.107,0.0,116.0,,,,,,,[],,,,,,73.6,1.0,i,1.0,True,618.5000000298023,37.0,60.0,40.0,False,,209.03856504117607,[],"[720, 450]",ColorTask,56.0,108.0,,,HRV,HRV_0031,2022-11-30 18:06:42
,wl-html-keyboard-response,116,313261,0.0-7.0-0.0,1.0,117.0,,,,,,,,6932.9000000059605,1.0,0,,,,,,,,,,,,,,,,,,,,,,HRV,HRV_0031,2022-11-30 18:06:42
,wl-rdm,117,315702,0.0-8.0-0.0,1.0,118.0,,,,,,,[],,,,,,50.0,1.0,i,1.0,True,1145.7000000178814,69.0,60.0,40.0,False,,219.09909472625685,[],"[720, 450]",ColorTask,57.0,1.0,,,HRV,HRV_0031,2022-11-30 18:06:42
,wl-rdm,118,317635,0.0-8.1-0.1,1.0,119.0,,,,,,,[],,,,,,50.0,1.0,i,1.0,True,647.6999999880791,39.0,60.0,40.0,False,,228.83057815372962,[],"[720, 450]",ColorTask,58.0,2.0,,,HRV,HRV_0031,2022-11-30 18:06:42
,wl-rdm,119,319585,0.0-8.2-0.2,1.0,120.0,,,,,,,[],,,,,,87.9,1.0,i,1.0,True,522.0999999940395,32.0,60.0,40.0,False,,351.34231900289967,[],"[720, 450]",ColorTask,59.0,3.0,,,HRV,HRV_0031,2022-11-30 18:06:42
,wl-rdm,120,322202,0.0-8.3-0.3,1.0,121.0,,,,,,,[],,,,,,53.2,1.0,i,1.0,True,1272.6000000238419,77.0,60.0,40.0,False,,250.60447448008787,[],"[720, 450]",ColorTask,60.0,4.0,,,HRV,HRV_0031,2022-11-30 18:06:42
,wl-rdm,121,324118,0.0-8.4-0.4,1.0,122.0,,,,,,,[],,,,,,87.9,1.0,i,1.0,True,621.8000000119209,38.0,60.0,40.0,False,,231.61090608329846,[],"[720, 450]",ColorTask,61.0,5.0,,,HRV,HRV_0031,2022-11-30 18:06:42
,wl-rdm,122,325984,0.0-8.5-0.5,1.0,123.0,,,,,,,[],,,,,,73.6,1.0,i,1.0,True,581.6999999880791,35.0,60.0,40.0,False,,213.49657227758902,[],"[720, 450]",ColorTask,62.0,6.0,,,HRV,HRV_0031,2022-11-30 18:06:42
,wl-rdm,123,328168,0.0-8.6-0.6,1.0,124.0,,,,,,,[],,,,,,56.4,1.0,i,1.0,True,856.6999999880791,52.0,60.0,40.0,False,,242.3215304511643,[],"[720, 450]",ColorTask,63.0,7.0,,,HRV,HRV_0031,2022-11-30 18:06:42
,wl-rdm,124,330801,0.0-8.7-0.7,1.0,125.0,,,,,,,[],,,,,,53.2,1.0,i,1.0,True,1220.699999988079,74.0,60.0,40.0,False,,338.0083657388417,[],"[720, 450]",ColorTask,64.0,8.0,,,HRV,HRV_0031,2022-11-30 18:06:42
,wl-rdm,125,333317,0.0-8.8-0.8,1.0,126.0,,,,,,,[],,,,,,50.0,0.0,u,0.0,True,1248.7999999821186,75.0,60.0,40.0,False,,204.66510325734188,[],"[720, 450]",ColorTask,65.0,9.0,,,HRV,HRV_0031,2022-11-30 18:06:42
,wl-rdm,126,335519,0.0-8.9-0.9,1.0,127.0,,,,,,,[],,,,,,50.0,0.0,i,1.0,False,929.6999999880791,56.0,60.0,40.0,False,,214.5898278147925,[],"[720, 450]",ColorTask,64.0,10.0,,,HRV,HRV_0031,2022-11-30 18:06:42
,wl-rdm,127,337518,0.0-8.10-0.10,1.0,128.0,,,,,,,[],,,,,,73.6,1.0,i,1.0,True,643.1999999880791,39.0,60.0,40.0,False,,278.40663264542576,[],"[720, 450]",ColorTask,65.0,11.0,,,HRV,HRV_0031,2022-11-30 18:06:42
,wl-rdm,128,339619,0.0-8.11-0.11,1.0,129.0,,,,,,,[],,,,,,73.6,0.0,u,0.0,True,824.6999999880791,50.0,60.0,40.0,False,,215.6175165931389,[],"[720, 450]",ColorTask,66.0,12.0,,,HRV,HRV_0031,2022-11-30 18:06:42
,wl-rdm,129,341768,0.0-8.12-0.12,1.0,130.0,,,,,,,[],,,,,,73.6,1.0,i,1.0,True,789.0,48.0,60.0,40.0,False,,272.8524038486315,[],"[720, 450]",ColorTask,67.0,13.0,,,HRV,HRV_0031,2022-11-30 18:06:42
,wl-rdm,130,343768,0.0-8.13-0.13,1.0,131.0,,,,,,,[],,,,,,73.6,0.0,u,0.0,True,706.1999999880791,43.0,60.0,40.0,False,,225.1228151359963,[],"[720, 450]",ColorTask,68.0,14.0,,,HRV,HRV_0031,2022-11-30 18:06:42
,wl-rdm,131,345985,0.0-8.14-0.14,1.0,132.0,,,,,,,[],,,,,,87.9,0.0,u,0.0,True,737.6999999880791,45.0,60.0,40.0,False,,385.1227234490831,[],"[720, 450]",ColorTask,69.0,15.0,,,HRV,HRV_0031,2022-11-30 18:06:42
,wl-rdm,132,348168,0.0-8.15-0.15,1.0,133.0,,,,,,,[],,,,,,53.2,1.0,i,1.0,True,821.9000000059605,50.0,60.0,40.0,False,,275.58891825987394,[],"[720, 450]",ColorTask,70.0,16.0,,,HRV,HRV_0031,2022-11-30 18:06:42
,wl-rdm,133,350351,0.0-8.16-0.16,1.0,134.0,,,,,,,[],,,,,,53.2,1.0,u,0.0,False,831.4000000059605,50.0,60.0,40.0,False,,283.1575840693321,[],"[720, 450]",ColorTask,69.0,17.0,,,HRV,HRV_0031,2022-11-30 18:06:42
,wl-rdm,134,352485,0.0-8.17-0.17,1.0,135.0,,,,,,,[],,,,,,50.0,1.0,i,1.0,True,790.3000000119209,48.0,60.0,40.0,False,,252.94093336701943,[],"[720, 450]",ColorTask,70.0,18.0,,,HRV,HRV_0031,2022-11-30 18:06:42
,wl-rdm,135,354619,0.0-8.18-0.18,1.0,136.0,,,,,,,[],,,,,,87.9,0.0,u,0.0,True,750.6999999880791,45.0,60.0,40.0,False,,316.8547120971547,[],"[720, 450]",ColorTask,71.0,19.0,,,HRV,HRV_0031,2022-11-30 18:06:42
,wl-rdm,136,356669,0.0-8.19-0.19,1.0,137.0,,,,,,,[],,,,,,87.9,0.0,u,0.0,True,661.6999999880791,40.0,60.0,40.0,False,,317.5949747945759,[],"[720, 450]",ColorTask,72.0,20.0,,,HRV,HRV_0031,2022-11-30 18:06:42
,wl-rdm,137,359152,0.0-8.20-0.20,1.0,138.0,,,,,,,[],,,,,,62.5,0.0,i,1.0,False,1107.2999999821186,67.0,60.0,40.0,False,,286.4161369733474,[],"[720, 450]",ColorTask,71.0,21.0,,,HRV,HRV_0031,2022-11-30 18:06:42
,wl-rdm,138,361468,0.0-8.21-0.21,1.0,139.0,,,,,,,[],,,,,,50.0,0.0,u,0.0,True,904.2999999821186,55.0,60.0,40.0,False,,348.8060915505603,[],"[720, 450]",ColorTask,72.0,22.0,,,HRV,HRV_0031,2022-11-30 18:06:42
,wl-rdm,139,363367,0.0-8.22-0.22,1.0,140.0,,,,,,,[],,,,,,73.6,1.0,i,1.0,True,589.3999999761581,36.0,60.0,40.0,False,,242.7293384952175,[],"[720, 450]",ColorTask,73.0,23.0,,,HRV,HRV_0031,2022-11-30 18:06:42
,wl-rdm,140,365418,0.0-8.23-0.23,1.0,141.0,,,,,,,[],,,,,,62.5,0.0,u,0.0,True,718.9000000059605,44.0,60.0,40.0,False,,236.3285514877607,[],"[720, 450]",ColorTask,74.0,24.0,,,HRV,HRV_0031,2022-11-30 18:06:42
,wl-rdm,141,367634,0.0-8.24-0.24,1.0,142.0,,,,,,,[],,,,,,50.0,1.0,u,0.0,False,939.2000000178814,57.0,60.0,40.0,False,,211.54851982694922,[],"[720, 450]",ColorTask,73.0,25.0,,,HRV,HRV_0031,2022-11-30 18:06:42
,wl-rdm,142,369751,0.0-8.25-0.25,1.0,143.0,,,,,,,[],,,,,,56.4,0.0,i,1.0,False,722.0,44.0,60.0,40.0,False,,325.6173990655926,[],"[720, 450]",ColorTask,72.0,26.0,,,HRV,HRV_0031,2022-11-30 18:06:42
,wl-rdm,143,371851,0.0-8.26-0.26,1.0,144.0,,,,,,,[],,,,,,56.4,0.0,u,0.0,True,787.0,48.0,60.0,40.0,False,,247.71712962731087,[],"[720, 450]",ColorTask,73.0,27.0,,,HRV,HRV_0031,2022-11-30 18:06:42
,wl-rdm,144,374052,0.0-8.27-0.27,1.0,145.0,,,,,,,[],,,,,,50.0,1.0,i,1.0,True,873.8000000119209,53.0,60.0,40.0,False,,252.79822189097604,[],"[720, 450]",ColorTask,74.0,28.0,,,HRV,HRV_0031,2022-11-30 18:06:42
,wl-rdm,145,375984,0.0-8.28-0.28,1.0,146.0,,,,,,,[],,,,,,53.2,0.0,u,0.0,True,625.3000000119209,38.0,60.0,40.0,False,,220.72547835881747,[],"[720, 450]",ColorTask,75.0,29.0,,,HRV,HRV_0031,2022-11-30 18:06:42
,wl-rdm,146,378101,0.0-8.29-0.29,1.0,147.0,,,,,,,[],,,,,,53.2,1.0,i,1.0,True,773.4000000059605,47.0,60.0,40.0,False,,281.0062337997508,[],"[720, 450]",ColorTask,76.0,30.0,,,HRV,HRV_0031,2022-11-30 18:06:42
,wl-rdm,147,380168,0.0-8.30-0.30,1.0,148.0,,,,,,,[],,,,,,73.6,1.0,i,1.0,True,672.9000000059605,41.0,60.0,40.0,False,,314.69009964255235,[],"[720, 450]",ColorTask,77.0,31.0,,,HRV,HRV_0031,2022-11-30 18:06:42
,wl-rdm,148,382117,0.0-8.31-0.31,1.0,149.0,,,,,,,[],,,,,,62.5,1.0,i,1.0,True,655.5,40.0,60.0,40.0,False,,203.84641367093067,[],"[720, 450]",ColorTask,78.0,32.0,,,HRV,HRV_0031,2022-11-30 18:06:42
,wl-rdm,149,384351,0.0-8.32-0.32,1.0,150.0,,,,,,,[],,,,,,53.2,0.0,u,0.0,True,772.7000000178814,47.0,60.0,40.0,False,,382.435313854137,[],"[720, 450]",ColorTask,79.0,33.0,,,HRV,HRV_0031,2022-11-30 18:06:42
,wl-rdm,150,386401,0.0-8.33-0.33,1.0,151.0,,,,,,,[],,,,,,53.2,0.0,i,1.0,False,715.5999999940395,43.0,60.0,40.0,False,,265.8399497767668,[],"[720, 450]",ColorTask,78.0,34.0,,,HRV,HRV_0031,2022-11-30 18:06:42
,wl-rdm,151,388700,0.0-8.34-0.34,1.0,152.0,,,,,,,[],,,,,,73.6,0.0,u,0.0,True,871.5999999940395,53.0,60.0,40.0,False,,364.8251198960014,[],"[720, 450]",ColorTask,79.0,35.0,,,HRV,HRV_0031,2022-11-30 18:06:42
,wl-rdm,152,390884,0.0-8.35-0.35,1.0,153.0,,,,,,,[],,,,,,62.5,0.0,i,1.0,False,773.7999999821186,47.0,60.0,40.0,False,,330.13476750648204,[],"[720, 450]",ColorTask,78.0,36.0,,,HRV,HRV_0031,2022-11-30 18:06:42
,wl-rdm,153,392684,0.0-8.36-0.36,1.0,154.0,,,,,,,[],,,,,,87.9,0.0,i,1.0,False,519.0,32.0,60.0,40.0,False,,213.07953981070975,[],"[720, 450]",ColorTask,77.0,37.0,,,HRV,HRV_0031,2022-11-30 18:06:42
,wl-rdm,154,394705,0.0-8.37-0.37,1.0,155.0,,,,,,,[],,,,,,87.9,0.0,u,0.0,True,605.4000000357628,37.0,60.0,40.0,False,,319.13594394691864,[],"[720, 450]",ColorTask,78.0,38.0,,,HRV,HRV_0031,2022-11-30 18:06:42
,wl-rdm,155,396940,0.0-8.38-0.38,1.0,156.0,,,,,,,[],,,,,,50.0,0.0,i,1.0,False,774.5999999940395,47.0,60.0,40.0,False,,381.39323252670243,[],"[720, 450]",ColorTask,77.0,39.0,,,HRV,HRV_0031,2022-11-30 18:06:42
,wl-rdm,156,399343,0.0-8.39-0.39,1.0,157.0,,,,,,,[],,,,,,62.5,1.0,i,1.0,True,1036.2000000178814,63.0,60.0,40.0,False,,291.59873505629275,[],"[720, 450]",ColorTask,78.0,40.0,,,HRV,HRV_0031,2022-11-30 18:06:42
,wl-rdm,157,401513,0.0-8.40-0.40,1.0,158.0,,,,,,,[],,,,,,73.6,1.0,i,1.0,True,897.5999999940395,54.0,60.0,40.0,False,,216.11007578032243,[],"[720, 450]",ColorTask,79.0,41.0,,,HRV,HRV_0031,2022-11-30 18:06:42
,wl-rdm,158,403631,0.0-8.41-0.41,1.0,159.0,,,,,,,[],,,,,,56.4,1.0,i,1.0,True,739.3000000119209,45.0,60.0,40.0,False,,309.3728451033797,[],"[720, 450]",ColorTask,80.0,42.0,,,HRV,HRV_0031,2022-11-30 18:06:42
,wl-rdm,159,406099,0.0-8.42-0.42,1.0,160.0,,,,,,,[],,,,,,73.6,0.0,u,0.0,True,1075.5,65.0,60.0,40.0,False,,307.4639777066877,[],"[720, 450]",ColorTask,81.0,43.0,,,HRV,HRV_0031,2022-11-30 18:06:42
,wl-rdm,160,408168,0.0-8.43-0.43,1.0,161.0,,,,,,,[],,,,,,56.4,0.0,i,1.0,False,732.8000000119209,44.0,60.0,40.0,False,,260.6264004452902,[],"[720, 450]",ColorTask,80.0,44.0,,,HRV,HRV_0031,2022-11-30 18:06:42
,wl-rdm,161,410553,0.0-8.44-0.44,1.0,162.0,,,,,,,[],,,,,,62.5,0.0,u,0.0,True,1010.7000000178814,61.0,60.0,40.0,False,,296.43064873373874,[],"[720, 450]",ColorTask,81.0,45.0,,,HRV,HRV_0031,2022-11-30 18:06:42
,wl-rdm,162,412570,0.0-8.45-0.45,1.0,163.0,,,,,,,[],,,,,,53.2,1.0,i,1.0,True,621.6999999880791,38.0,60.0,40.0,False,,312.45724321746593,[],"[720, 450]",ColorTask,82.0,46.0,,,HRV,HRV_0031,2022-11-30 18:06:42
,wl-rdm,163,414955,0.0-8.46-0.46,1.0,164.0,,,,,,,[],,,,,,62.5,0.0,u,0.0,True,940.9000000357628,57.0,60.0,40.0,False,,359.9409298864078,[],"[720, 450]",ColorTask,83.0,47.0,,,HRV,HRV_0031,2022-11-30 18:06:42
,wl-rdm,164,417038,0.0-8.47-0.47,1.0,165.0,,,,,,,[],,,,,,87.9,0.0,u,0.0,True,787.9000000059605,48.0,60.0,40.0,False,,220.06983772324315,[],"[720, 450]",ColorTask,84.0,48.0,,,HRV,HRV_0031,2022-11-30 18:06:42
,wl-rdm,165,419072,0.0-8.48-0.48,1.0,166.0,,,,,,,[],,,,,,62.5,1.0,i,1.0,True,685.0999999940395,42.0,60.0,40.0,False,,274.4063459350072,[],"[720, 450]",ColorTask,85.0,49.0,,,HRV,HRV_0031,2022-11-30 18:06:42
,wl-rdm,166,421123,0.0-8.49-0.49,1.0,167.0,,,,,,,[],,,,,,87.9,1.0,i,1.0,True,739.0999999940395,45.0,60.0,40.0,False,,220.81617098712138,[],"[720, 450]",ColorTask,86.0,50.0,,,HRV,HRV_0031,2022-11-30 18:06:42
,wl-rdm,167,423657,0.0-8.50-0.50,1.0,168.0,,,,,,,[],,,,,,53.2,0.0,u,0.0,True,1212.7000000178814,73.0,60.0,40.0,False,,264.98684887763466,[],"[720, 450]",ColorTask,87.0,51.0,,,HRV,HRV_0031,2022-11-30 18:06:42
,wl-rdm,168,426108,0.0-8.51-0.51,1.0,169.0,,,,,,,[],,,,,,50.0,0.0,i,1.0,False,1008.7000000178814,61.0,60.0,40.0,False,,356.1796167998841,[],"[720, 450]",ColorTask,86.0,52.0,,,HRV,HRV_0031,2022-11-30 18:06:42
,wl-rdm,169,428224,0.0-8.52-0.52,1.0,170.0,,,,,,,[],,,,,,62.5,1.0,i,1.0,True,721.4000000059605,44.0,60.0,40.0,False,,322.8299619893048,[],"[720, 450]",ColorTask,87.0,53.0,,,HRV,HRV_0031,2022-11-30 18:06:42
,wl-rdm,170,430225,0.0-8.53-0.53,1.0,171.0,,,,,,,[],,,,,,73.6,0.0,u,0.0,True,706.1999999880791,43.0,60.0,40.0,False,,230.10964045729074,[],"[720, 450]",ColorTask,88.0,54.0,,,HRV,HRV_0031,2022-11-30 18:06:42
,wl-rdm,171,432441,0.0-8.54-0.54,1.0,172.0,,,,,,,[],,,,,,56.4,0.0,i,1.0,False,872.8000000119209,53.0,60.0,40.0,False,,268.71523926415443,[],"[720, 450]",ColorTask,87.0,55.0,,,HRV,HRV_0031,2022-11-30 18:06:42
,wl-rdm,172,434543,0.0-8.55-0.55,1.0,173.0,,,,,,,[],,,,,,62.5,1.0,i,1.0,True,759.5999999940395,46.0,60.0,40.0,False,,278.8855300622879,[],"[720, 450]",ColorTask,88.0,56.0,,,HRV,HRV_0031,2022-11-30 18:06:42
,wl-rdm,173,436926,0.0-8.56-0.56,1.0,174.0,,,,,,,[],,,,,,56.4,0.0,u,0.0,True,1005.6999999880791,61.0,60.0,40.0,False,,300.0079847162069,[],"[720, 450]",ColorTask,89.0,57.0,,,HRV,HRV_0031,2022-11-30 18:06:42
,wl-rdm,174,439476,0.0-8.57-0.57,1.0,175.0,,,,,,,[],,,,,,73.6,0.0,u,0.0,True,1206.4999999701977,73.0,60.0,40.0,False,,256.087723756015,[],"[720, 450]",ColorTask,90.0,58.0,,,HRV,HRV_0031,2022-11-30 18:06:42
,wl-rdm,175,441860,0.0-8.58-0.58,1.0,176.0,,,,,,,[],,,,,,56.4,1.0,i,1.0,True,974.6999999880791,59.0,60.0,40.0,False,,336.46356231398687,[],"[720, 450]",ColorTask,91.0,59.0,,,HRV,HRV_0031,2022-11-30 18:06:42
,wl-rdm,176,444176,0.0-8.59-0.59,1.0,177.0,,,,,,,[],,,,,,53.2,0.0,i,1.0,False,1009.9999999701977,61.0,60.0,40.0,False,,230.30008236178244,[],"[720, 450]",ColorTask,90.0,60.0,,,HRV,HRV_0031,2022-11-30 18:06:42
,wl-rdm,177,446443,0.0-8.60-0.60,1.0,178.0,,,,,,,[],,,,,,53.2,1.0,i,1.0,True,956.3999999761581,58.0,60.0,40.0,False,,249.5691682901102,[],"[720, 450]",ColorTask,91.0,61.0,,,HRV,HRV_0031,2022-11-30 18:06:42
,wl-rdm,178,448660,0.0-8.61-0.61,1.0,179.0,,,,,,,[],,,,,,87.9,1.0,i,1.0,True,757.5,46.0,60.0,40.0,False,,368.5117968567344,[],"[720, 450]",ColorTask,92.0,62.0,,,HRV,HRV_0031,2022-11-30 18:06:42
,wl-rdm,179,450977,0.0-8.62-0.62,1.0,180.0,,,,,,,[],,,,,,56.4,0.0,i,1.0,False,948.2999999821186,57.0,60.0,40.0,False,,298.68721660521027,[],"[720, 450]",ColorTask,91.0,63.0,,,HRV,HRV_0031,2022-11-30 18:06:42
,wl-rdm,180,453010,0.0-8.63-0.63,1.0,181.0,,,,,,,[],,,,,,73.6,0.0,u,0.0,True,742.1999999880791,45.0,60.0,40.0,False,,231.68421688679356,[],"[720, 450]",ColorTask,92.0,64.0,,,HRV,HRV_0031,2022-11-30 18:06:42
,wl-rdm,181,455128,0.0-8.64-0.64,1.0,182.0,,,,,,,[],,,,,,62.5,1.0,i,1.0,True,781.9000000059605,47.0,60.0,40.0,False,,275.0421197208131,[],"[720, 450]",ColorTask,93.0,65.0,,,HRV,HRV_0031,2022-11-30 18:06:42
,wl-rdm,182,457094,0.0-8.65-0.65,1.0,183.0,,,,,,,[],,,,,,87.9,0.0,u,0.0,True,656.4000000059605,40.0,60.0,40.0,False,,219.4152971266204,[],"[720, 450]",ColorTask,94.0,66.0,,,HRV,HRV_0031,2022-11-30 18:06:42
,wl-rdm,183,459311,0.0-8.66-0.66,1.0,184.0,,,,,,,[],,,,,,73.6,1.0,i,1.0,True,800.0,49.0,60.0,40.0,False,,334.30342201709345,[],"[720, 450]",ColorTask,95.0,67.0,,,HRV,HRV_0031,2022-11-30 18:06:42
,wl-rdm,184,462128,0.0-8.67-0.67,1.0,185.0,,,,,,,[],,,,,,50.0,0.0,i,1.0,False,1399.5999999940395,84.0,60.0,40.0,False,,335.783022449714,[],"[720, 450]",ColorTask,94.0,68.0,,,HRV,HRV_0031,2022-11-30 18:06:42
,wl-rdm,185,464144,0.0-8.68-0.68,1.0,186.0,,,,,,,[],,,,,,56.4,1.0,i,1.0,True,722.8000000119209,44.0,60.0,40.0,False,,204.33384834182598,[],"[720, 450]",ColorTask,95.0,69.0,,,HRV,HRV_0031,2022-11-30 18:06:42
,wl-rdm,186,466044,0.0-8.69-0.69,1.0,187.0,,,,,,,[],,,,,,87.9,1.0,i,1.0,True,629.3000000119209,38.0,60.0,40.0,False,,204.9986567872108,[],"[720, 450]",ColorTask,96.0,70.0,,,HRV,HRV_0031,2022-11-30 18:06:42
,wl-rdm,187,468693,0.0-8.70-0.70,1.0,188.0,,,,,,,[],,,,,,62.5,0.0,u,0.0,True,1274.0999999940395,77.0,60.0,40.0,False,,301.9798419637005,[],"[720, 450]",ColorTask,97.0,71.0,,,HRV,HRV_0031,2022-11-30 18:06:42
,wl-rdm,188,471010,0.0-8.71-0.71,1.0,189.0,,,,,,,[],,,,,,56.4,1.0,i,1.0,True,996.9000000059605,60.0,60.0,40.0,False,,260.8667535422517,[],"[720, 450]",ColorTask,98.0,72.0,,,HRV,HRV_0031,2022-11-30 18:06:42
,wl-rdm,189,473177,0.0-8.72-0.72,1.0,190.0,,,,,,,[],,,,,,50.0,0.0,u,0.0,True,838.6999999880791,51.0,60.0,40.0,False,,236.5259444593065,[],"[720, 450]",ColorTask,99.0,73.0,,,HRV,HRV_0031,2022-11-30 18:06:42
,wl-rdm,190,475561,0.0-8.73-0.73,1.0,191.0,,,,,,,[],,,,,,56.4,1.0,i,1.0,True,1066.699999988079,64.0,60.0,40.0,False,,256.27826805625403,[],"[720, 450]",ColorTask,100.0,74.0,,,HRV,HRV_0031,2022-11-30 18:06:42
,wl-rdm,191,477761,0.0-8.74-0.74,1.0,192.0,,,,,,,[],,,,,,56.4,1.0,i,1.0,True,866.0000000298023,52.0,60.0,40.0,False,,254.8801748855736,[],"[720, 450]",ColorTask,101.0,75.0,,,HRV,HRV_0031,2022-11-30 18:06:42
,wl-rdm,192,479645,0.0-8.75-0.75,1.0,193.0,,,,,,,[],,,,,,87.9,0.0,u,0.0,True,573.0999999940395,35.0,60.0,40.0,False,,241.0341626468333,[],"[720, 450]",ColorTask,102.0,76.0,,,HRV,HRV_0031,2022-11-30 18:06:42
,wl-rdm,193,481460,0.0-8.76-0.76,1.0,194.0,,,,,,,[],,,,,,73.6,0.0,u,0.0,True,529.1999999880791,32.0,60.0,40.0,False,,226.19811952027572,[],"[720, 450]",ColorTask,103.0,77.0,,,HRV,HRV_0031,2022-11-30 18:06:42
,wl-rdm,194,483561,0.0-8.77-0.77,1.0,195.0,,,,,,,[],,,,,,50.0,1.0,i,1.0,True,815.3000000417233,49.0,60.0,40.0,False,,219.50668068996333,[],"[720, 450]",ColorTask,104.0,78.0,,,HRV,HRV_0031,2022-11-30 18:06:42
,wl-rdm,195,485611,0.0-8.78-0.78,1.0,196.0,,,,,,,[],,,,,,56.4,1.0,i,1.0,True,642.6999999880791,39.0,60.0,40.0,False,,329.81716971521934,[],"[720, 450]",ColorTask,105.0,79.0,,,HRV,HRV_0031,2022-11-30 18:06:42
,wl-rdm,196,487960,0.0-8.79-0.79,1.0,197.0,,,,,,,[],,,,,,50.0,0.0,i,1.0,False,1044.8999999761581,63.0,60.0,40.0,False,,224.89027758017346,[],"[720, 450]",ColorTask,104.0,80.0,,,HRV,HRV_0031,2022-11-30 18:06:42
,wl-rdm,197,490009,0.0-8.80-0.80,1.0,198.0,,,,,,,[],,,,,,87.9,1.0,i,1.0,True,576.8000000119209,35.0,60.0,40.0,False,,397.41100829723695,[],"[720, 450]",ColorTask,105.0,81.0,,,HRV,HRV_0031,2022-11-30 18:06:42
,wl-rdm,198,492260,0.0-8.81-0.81,1.0,199.0,,,,,,,[],,,,,,62.5,0.0,i,1.0,False,837.5999999940395,51.0,60.0,40.0,False,,333.82369485553295,[],"[720, 450]",ColorTask,104.0,82.0,,,HRV,HRV_0031,2022-11-30 18:06:42
,wl-rdm,199,494511,0.0-8.82-0.82,1.0,200.0,,,,,,,[],,,,,,50.0,0.0,u,0.0,True,855.2999999821186,52.0,60.0,40.0,False,,324.02480849894766,[],"[720, 450]",ColorTask,105.0,83.0,,,HRV,HRV_0031,2022-11-30 18:06:42
,wl-rdm,200,496544,0.0-8.83-0.83,1.0,201.0,,,,,,,[],,,,,,87.9,1.0,i,1.0,True,705.1999999880791,43.0,60.0,40.0,False,,260.50666168294754,[],"[720, 450]",ColorTask,106.0,84.0,,,HRV,HRV_0031,2022-11-30 18:06:42
,wl-rdm,201,498644,0.0-8.84-0.84,1.0,202.0,,,,,,,[],,,,,,50.0,1.0,i,1.0,True,752.9000000059605,46.0,60.0,40.0,False,,265.31030661481736,[],"[720, 450]",ColorTask,107.0,85.0,,,HRV,HRV_0031,2022-11-30 18:06:42
,wl-rdm,202,500710,0.0-8.85-0.85,1.0,203.0,,,,,,,[],,,,,,56.4,0.0,u,0.0,True,720.0999999940395,44.0,60.0,40.0,False,,253.830658655048,[],"[720, 450]",ColorTask,108.0,86.0,,,HRV,HRV_0031,2022-11-30 18:06:42
,wl-rdm,203,502761,0.0-8.86-0.86,1.0,204.0,,,,,,,[],,,,,,56.4,1.0,i,1.0,True,736.8000000119209,45.0,60.0,40.0,False,,228.6751910393846,[],"[720, 450]",ColorTask,109.0,87.0,,,HRV,HRV_0031,2022-11-30 18:06:42
,wl-rdm,204,504861,0.0-8.87-0.87,1.0,205.0,,,,,,,[],,,,,,50.0,1.0,i,1.0,True,741.0,45.0,60.0,40.0,False,,280.776548158534,[],"[720, 450]",ColorTask,110.0,88.0,,,HRV,HRV_0031,2022-11-30 18:06:42
,wl-rdm,205,506827,0.0-8.88-0.88,1.0,206.0,,,,,,,[],,,,,,53.2,1.0,i,1.0,True,510.59999999403954,31.0,60.0,40.0,False,,382.9351645491407,[],"[720, 450]",ColorTask,111.0,89.0,,,HRV,HRV_0031,2022-11-30 18:06:42
,wl-rdm,206,509160,0.0-8.89-0.89,1.0,207.0,,,,,,,[],,,,,,53.2,0.0,i,1.0,False,1014.2000000178814,61.0,60.0,40.0,False,,238.6643262150699,[],"[720, 450]",ColorTask,110.0,90.0,,,HRV,HRV_0031,2022-11-30 18:06:42
,wl-rdm,207,511143,0.0-8.90-0.90,1.0,208.0,,,,,,,[],,,,,,73.6,1.0,i,1.0,True,625.6999999880791,38.0,60.0,40.0,False,,289.91972204939503,[],"[720, 450]",ColorTask,111.0,91.0,,,HRV,HRV_0031,2022-11-30 18:06:42
,wl-rdm,208,513110,0.0-8.91-0.91,1.0,209.0,,,,,,,[],,,,,,73.6,0.0,u,0.0,True,655.2999999821186,40.0,60.0,40.0,False,,239.61046336591772,[],"[720, 450]",ColorTask,112.0,92.0,,,HRV,HRV_0031,2022-11-30 18:06:42
,wl-rdm,209,515077,0.0-8.92-0.92,1.0,210.0,,,,,,,[],,,,,,62.5,0.0,u,0.0,True,593.1999999880791,36.0,60.0,40.0,False,,286.88658634042855,[],"[720, 450]",ColorTask,113.0,93.0,,,HRV,HRV_0031,2022-11-30 18:06:42
,wl-rdm,210,517077,0.0-8.93-0.93,1.0,211.0,,,,,,,[],,,,,,73.6,1.0,i,1.0,True,675.7999999821186,41.0,60.0,40.0,False,,237.3464583874873,[],"[720, 450]",ColorTask,114.0,94.0,,,HRV,HRV_0031,2022-11-30 18:06:42
,wl-rdm,211,519078,0.0-8.94-0.94,1.0,212.0,,,,,,,[],,,,,,62.5,1.0,i,1.0,True,592.0999999940395,36.0,60.0,40.0,False,,343.78274858437715,[],"[720, 450]",ColorTask,115.0,95.0,,,HRV,HRV_0031,2022-11-30 18:06:42
,wl-rdm,212,521261,0.0-8.95-0.95,1.0,213.0,,,,,,,[],,,,,,53.2,0.0,u,0.0,True,855.2000000178814,52.0,60.0,40.0,False,,260.3475815273987,[],"[720, 450]",ColorTask,116.0,96.0,,,HRV,HRV_0031,2022-11-30 18:06:42
,wl-rdm,213,523276,0.0-8.96-0.96,1.0,214.0,,,,,,,[],,,,,,53.2,0.0,u,0.0,True,672.8999999761581,41.0,60.0,40.0,False,,262.862138193547,[],"[720, 450]",ColorTask,117.0,97.0,,,HRV,HRV_0031,2022-11-30 18:06:42
,wl-rdm,214,525294,0.0-8.97-0.97,1.0,215.0,,,,,,,[],,,,,,62.5,1.0,i,1.0,True,726.6999999880791,44.0,60.0,40.0,False,,218.13527454434802,[],"[720, 450]",ColorTask,118.0,98.0,,,HRV,HRV_0031,2022-11-30 18:06:42
,wl-rdm,215,527376,0.0-8.98-0.98,1.0,216.0,,,,,,,[],,,,,,56.4,0.0,u,0.0,True,706.6999999880791,43.0,60.0,40.0,False,,288.65184017961803,[],"[720, 450]",ColorTask,119.0,99.0,,,HRV,HRV_0031,2022-11-30 18:06:42
,wl-rdm,216,529293,0.0-8.99-0.99,1.0,217.0,,,,,,,[],,,,,,87.9,1.0,i,1.0,True,618.3000000119209,38.0,60.0,40.0,False,,201.46242516420233,[],"[720, 450]",ColorTask,120.0,100.0,,,HRV,HRV_0031,2022-11-30 18:06:42
,wl-rdm,217,531160,0.0-8.100-0.100,1.0,218.0,,,,,,,[],,,,,,87.9,0.0,u,0.0,True,581.7000000178814,35.0,60.0,40.0,False,,207.90874953123418,[],"[720, 450]",ColorTask,121.0,101.0,,,HRV,HRV_0031,2022-11-30 18:06:42
,wl-rdm,218,533360,0.0-8.101-0.101,1.0,219.0,,,,,,,[],,,,,,50.0,1.0,u,0.0,False,854.7999999821186,52.0,60.0,40.0,False,,277.3077010982681,[],"[720, 450]",ColorTask,120.0,102.0,,,HRV,HRV_0031,2022-11-30 18:06:42
,wl-rdm,219,535328,0.0-8.102-0.102,1.0,220.0,,,,,,,[],,,,,,62.5,1.0,i,1.0,True,542.1000000238419,33.0,60.0,40.0,False,,338.1036700959805,[],"[720, 450]",ColorTask,121.0,103.0,,,HRV,HRV_0031,2022-11-30 18:06:42
,wl-rdm,220,537327,0.0-8.103-0.103,1.0,221.0,,,,,,,[],,,,,,56.4,0.0,u,0.0,True,639.0,39.0,60.0,40.0,False,,289.22328398699466,[],"[720, 450]",ColorTask,122.0,104.0,,,HRV,HRV_0031,2022-11-30 18:06:42
,wl-rdm,221,539261,0.0-8.104-0.104,1.0,222.0,,,,,,,[],,,,,,87.9,1.0,i,1.0,True,572.4000000059605,35.0,60.0,40.0,False,,277.744817764617,[],"[720, 450]",ColorTask,123.0,105.0,,,HRV,HRV_0031,2022-11-30 18:06:42
,wl-rdm,222,541210,0.0-8.105-0.105,1.0,223.0,,,,,,,[],,,,,,62.5,0.0,u,0.0,True,672.4000000059605,41.0,60.0,40.0,False,,201.8890575921223,[],"[720, 450]",ColorTask,124.0,106.0,,,HRV,HRV_0031,2022-11-30 18:06:42
,wl-rdm,223,543360,0.0-8.106-0.106,1.0,224.0,,,,,,,[],,,,,,53.2,0.0,i,1.0,False,790.2999999821186,48.0,60.0,40.0,False,,282.78204495400036,[],"[720, 450]",ColorTask,123.0,107.0,,,HRV,HRV_0031,2022-11-30 18:06:42
,wl-rdm,224,545343,0.0-8.107-0.107,1.0,225.0,,,,,,,[],,,,,,53.2,1.0,i,1.0,True,549.9000000357628,33.0,60.0,40.0,False,,350.74832759392723,[],"[720, 450]",ColorTask,124.0,108.0,,,HRV,HRV_0031,2022-11-30 18:06:42
,wl-html-button-response,225,547384,0.0-9.0-0.0,,,,,,,,,,2035.9000000059605,,0,,,,,,,,,,,,,,,,,,,,<h3>End of this session. Thank you!</h3><br>,['Close window'],HRV,HRV_0031,2022-11-30 18:06:42
