trialN,stimuli,trialStartTime,trialStartTime_UNIX,stimulus1,stimulus2,stimulus1Bid,stimulus2Bid,delta,selected,rt,rt_UNIX,rt_perfnow,receivedResponse,rsp,trialEndTime,trialDuration,trialEndTime_UNIX,trialDuration_UNIX,exp,subjectId,date
0,"[{'imgObject': {}, 'id': 'eggsalad', 'src': '/static/foodstim60/eggsalad.jpg', 'key': 'u', 'origWidth': 410, 'origHeight': 409, 'width': 410, 'height': 409, 'widthPercent': 0.45, 'rescaleHeight': False, 'trialN': 0, 'loaded': True, 'loadedTime': 4778.5, 'positionName': 'LEFT', 'positionCoords': [204.4, 307.5], 'bid': 7.57}, {'imgObject': {}, 'id': 'steak', 'src': '/static/foodstim60/steak.jpg', 'key': 'i', 'origWidth': 410, 'origHeight': 410, 'width': 410, 'height': 410, 'widthPercent': 0.45, 'rescaleHeight': False, 'trialN': 0, 'loaded': True, 'loadedTime': 4914.5, 'positionName': 'RIGHT', 'positionCoords': [665.6, 307], 'bid': 8.25}]",8704.0,1669831625303,eggsalad,steak,7.57,8.25,0.6799999999999997,steak,1068.6999999284744,1070,1070.0,True,i,10280.399999976158,1576.3999999761581,1669831626879,1576,HRV,HRV_0153,2022-11-30 18:12:50
1,"[{'imgObject': {}, 'id': 'hashbrowns', 'src': '/static/foodstim60/hashbrowns.jpg', 'key': 'u', 'origWidth': 411, 'origHeight': 410, 'width': 411, 'height': 410, 'widthPercent': 0.45, 'rescaleHeight': False, 'trialN': 1, 'loaded': True, 'loadedTime': 5032.5, 'positionName': 'LEFT', 'positionCoords': [203.4, 307], 'bid': 8.700000000000001}, {'imgObject': {}, 'id': 'cherries', 'src': '/static/foodstim60/cherries.jpg', 'key': 'i', 'origWidth': 410, 'origHeight': 411, 'width': 410, 'height': 411, 'widthPercent': 0.45, 'rescaleHeight': False, 'trialN': 1, 'loaded': True, 'loadedTime': 5240.899999976158, 'positionName': 'RIGHT', 'positionCoords': [665.6, 306.5], 'bid': 9.34}]",10280.799999952316,1669831626880,hashbrowns,cherries,8.700000000000001,9.34,0.6399999999999988,hashbrowns,980.3000000715256,981,981.8000000715256,True,u,11768.399999976158,1487.6000000238419,1669831628367,1487,HRV,HRV_0153,2022-11-30 18:12:50
2,"[{'imgObject': {}, 'id': 'chicken nuggets2', 'src': '/static/foodstim60/chicken nuggets2.jpg', 'key': 'u', 'origWidth': 410, 'origHeight': 409, 'width': 410, 'height': 409, 'widthPercent': 0.45, 'rescaleHeight': False, 'trialN': 2, 'loaded': True, 'loadedTime': 5506.399999976158, 'positionName': 'LEFT', 'positionCoords': [204.4, 307.5], 'bid': 9.56}, {'imgObject': {}, 'id': 'omelette', 'src': '/static/foodstim60/omelette.jpg', 'key': 'i', 'origWidth': 410, 'origHeight': 409, 'width': 410, 'height': 409, 'widthPercent': 0.45, 'rescaleHeight': False, 'trialN': 2, 'loaded': True, 'loadedTime': 5754.299999952316, 'positionName': 'RIGHT', 'positionCoords': [665.6, 307.5], 'bid': 9.32}]",11769.0,1669831628368,chicken nuggets2,omelette,9.56,9.32,-0.2400000000000002,chicken nuggets2,587.6000000238419,588,588.3999999761581,True,u,12864.899999976158,1095.8999999761581,1669831629464,1096,HRV,HRV_0153,2022-11-30 18:12:50
3,"[{'imgObject': {}, 'id': 'cocktailshrimp', 'src': '/static/foodstim60/cocktailshrimp.jpg', 'key': 'u', 'origWidth': 410, 'origHeight': 410, 'width': 410, 'height': 410, 'widthPercent': 0.45, 'rescaleHeight': False, 'trialN': 3, 'loaded': True, 'loadedTime': 5754.699999928474, 'positionName': 'LEFT', 'positionCoords': [204.4, 307], 'bid': 9}, {'imgObject': {}, 'id': 'eggs', 'src': '/static/foodstim60/eggs.jpg', 'key': 'i', 'origWidth': 409, 'origHeight': 409, 'width': 409, 'height': 409, 'widthPercent': 0.45, 'rescaleHeight': False, 'trialN': 3, 'loaded': True, 'loadedTime': 6020.199999928474, 'positionName': 'RIGHT', 'positionCoords': [665.6, 307.5], 'bid': 8.85}]",12865.399999976158,1669831629464,cocktailshrimp,eggs,9.0,8.85,-0.15000000000000036,cocktailshrimp,1019.1000000238419,1020,1020.0,True,u,14392.5,1527.1000000238419,1669831630991,1527,HRV,HRV_0153,2022-11-30 18:12:50
4,"[{'imgObject': {}, 'id': 'burger', 'src': '/static/foodstim60/burger.jpg', 'key': 'u', 'origWidth': 409, 'origHeight': 409, 'width': 409, 'height': 409, 'widthPercent': 0.45, 'rescaleHeight': False, 'trialN': 4, 'loaded': True, 'loadedTime': 6367.199999928474, 'positionName': 'LEFT', 'positionCoords': [205.4, 307.5], 'bid': 8.68}, {'imgObject': {}, 'id': 'strawberries', 'src': '/static/foodstim60/strawberries.jpg', 'key': 'i', 'origWidth': 410, 'origHeight': 410, 'width': 410, 'height': 410, 'widthPercent': 0.45, 'rescaleHeight': False, 'trialN': 4, 'loaded': True, 'loadedTime': 6382, 'positionName': 'RIGHT', 'positionCoords': [665.6, 307], 'bid': 8.73}]",14393.199999928474,1669831630992,burger,strawberries,8.68,8.73,0.05000000000000071,burger,723.4000000953674,724,724.3000000715256,True,u,15624.399999976158,1231.2000000476837,1669831632223,1231,HRV,HRV_0153,2022-11-30 18:12:50
5,"[{'imgObject': {}, 'id': 'fried eggs', 'src': '/static/foodstim60/fried eggs.jpg', 'key': 'u', 'origWidth': 410, 'origHeight': 410, 'width': 410, 'height': 410, 'widthPercent': 0.45, 'rescaleHeight': False, 'trialN': 5, 'loaded': True, 'loadedTime': 6508.199999928474, 'positionName': 'LEFT', 'positionCoords': [204.4, 307], 'bid': 9.23}, {'imgObject': {}, 'id': 'granola w milk', 'src': '/static/foodstim60/granola w milk.jpg', 'key': 'i', 'origWidth': 410, 'origHeight': 410, 'width': 410, 'height': 410, 'widthPercent': 0.45, 'rescaleHeight': False, 'trialN': 5, 'loaded': True, 'loadedTime': 6635.299999952316, 'positionName': 'RIGHT', 'positionCoords': [665.6, 307], 'bid': 9.6}]",15624.899999976158,1669831632224,fried eggs,granola w milk,9.23,9.6,0.3699999999999992,fried eggs,1683.7000000476837,1684,1684.3999999761581,True,u,17816.199999928474,2191.2999999523163,1669831634415,2191,HRV,HRV_0153,2022-11-30 18:12:50
6,"[{'imgObject': {}, 'id': 'chicken nuggets2', 'src': '/static/foodstim60/chicken nuggets2.jpg', 'key': 'u', 'origWidth': 410, 'origHeight': 409, 'width': 410, 'height': 409, 'widthPercent': 0.45, 'rescaleHeight': False, 'trialN': 6, 'loaded': True, 'loadedTime': 5393.399999976158, 'positionName': 'LEFT', 'positionCoords': [204.4, 307.5], 'bid': 9.56}, {'imgObject': {}, 'id': 'ice cream sundae 002', 'src': '/static/foodstim60/ice cream sundae 002.jpg', 'key': 'i', 'origWidth': 409, 'origHeight': 409, 'width': 409, 'height': 409, 'widthPercent': 0.45, 'rescaleHeight': False, 'trialN': 6, 'loaded': True, 'loadedTime': 6749.699999928474, 'positionName': 'RIGHT', 'positionCoords': [665.6, 307.5], 'bid': 9.51}]",17816.799999952316,1669831634416,chicken nuggets2,ice cream sundae 002,9.56,9.51,-0.05000000000000071,ice cream sundae 002,723.8000000715256,723,724.6000000238419,True,i,19047.899999976158,1231.1000000238419,1669831635646,1230,HRV,HRV_0153,2022-11-30 18:12:50
7,"[{'imgObject': {}, 'id': 'burrito', 'src': '/static/foodstim60/burrito.jpg', 'key': 'u', 'origWidth': 410, 'origHeight': 410, 'width': 410, 'height': 410, 'widthPercent': 0.45, 'rescaleHeight': False, 'trialN': 7, 'loaded': True, 'loadedTime': 6751.899999976158, 'positionName': 'LEFT', 'positionCoords': [204.4, 307], 'bid': 9.4}, {'imgObject': {}, 'id': 'grilled chicken strips', 'src': '/static/foodstim60/grilled chicken strips.jpg', 'key': 'i', 'origWidth': 410, 'origHeight': 411, 'width': 410, 'height': 411, 'widthPercent': 0.45, 'rescaleHeight': False, 'trialN': 7, 'loaded': True, 'loadedTime': 6847.899999976158, 'positionName': 'RIGHT', 'positionCoords': [665.6, 306.5], 'bid': 9.23}]",19048.600000023842,1669831635647,burrito,grilled chicken strips,9.4,9.23,-0.16999999999999993,grilled chicken strips,612.0,612,612.5999999046326,True,i,20168.899999976158,1120.2999999523163,1669831636767,1120,HRV,HRV_0153,2022-11-30 18:12:50
8,"[{'imgObject': {}, 'id': 'eggsalad', 'src': '/static/foodstim60/eggsalad.jpg', 'key': 'u', 'origWidth': 410, 'origHeight': 409, 'width': 410, 'height': 409, 'widthPercent': 0.45, 'rescaleHeight': False, 'trialN': 8, 'loaded': True, 'loadedTime': 4768.699999928474, 'positionName': 'LEFT', 'positionCoords': [204.4, 307.5], 'bid': 7.57}, {'imgObject': {}, 'id': 'raspberries', 'src': '/static/foodstim60/raspberries.jpg', 'key': 'i', 'origWidth': 411, 'origHeight': 411, 'width': 411, 'height': 411, 'widthPercent': 0.45, 'rescaleHeight': False, 'trialN': 8, 'loaded': True, 'loadedTime': 6852.5, 'positionName': 'RIGHT', 'positionCoords': [665.6, 306.5], 'bid': 9.31}]",20169.399999976158,1669831636767,eggsalad,raspberries,7.57,9.31,1.7400000000000002,eggsalad,715.1000000238419,716,715.7000000476837,True,u,21393.299999952316,1223.8999999761581,1669831637991,1224,HRV,HRV_0153,2022-11-30 18:12:50
9,"[{'imgObject': {}, 'id': 'cherries', 'src': '/static/foodstim60/cherries.jpg', 'key': 'u', 'origWidth': 410, 'origHeight': 411, 'width': 410, 'height': 411, 'widthPercent': 0.45, 'rescaleHeight': False, 'trialN': 9, 'loaded': True, 'loadedTime': 5245.199999928474, 'positionName': 'LEFT', 'positionCoords': [204.4, 306.5], 'bid': 9.34}, {'imgObject': {}, 'id': 'banana', 'src': '/static/foodstim60/banana.jpg', 'key': 'i', 'origWidth': 410, 'origHeight': 410, 'width': 410, 'height': 410, 'widthPercent': 0.45, 'rescaleHeight': False, 'trialN': 9, 'loaded': True, 'loadedTime': 6915.5, 'positionName': 'RIGHT', 'positionCoords': [665.6, 307], 'bid': 7.65}]",21393.600000023842,1669831637992,cherries,banana,9.34,7.65,-1.6899999999999995,cherries,1083.2999999523163,1084,1084.5,True,u,22984.5,1590.8999999761581,1669831639583,1591,HRV,HRV_0153,2022-11-30 18:12:50
10,"[{'imgObject': {}, 'id': 'burrito', 'src': '/static/foodstim60/burrito.jpg', 'key': 'u', 'origWidth': 410, 'origHeight': 410, 'width': 410, 'height': 410, 'widthPercent': 0.45, 'rescaleHeight': False, 'trialN': 10, 'loaded': True, 'loadedTime': 6754.600000023842, 'positionName': 'LEFT', 'positionCoords': [204.4, 307], 'bid': 9.4}, {'imgObject': {}, 'id': 'steak', 'src': '/static/foodstim60/steak.jpg', 'key': 'i', 'origWidth': 410, 'origHeight': 410, 'width': 410, 'height': 410, 'widthPercent': 0.45, 'rescaleHeight': False, 'trialN': 10, 'loaded': True, 'loadedTime': 4921.699999928474, 'positionName': 'RIGHT', 'positionCoords': [665.6, 307], 'bid': 8.25}]",22985.100000023842,1669831639583,burrito,steak,9.4,8.25,-1.1500000000000004,steak,739.5,741,740.5,True,i,24232.399999976158,1247.2999999523163,1669831640830,1247,HRV,HRV_0153,2022-11-30 18:12:50
11,"[{'imgObject': {}, 'id': 'burger', 'src': '/static/foodstim60/burger.jpg', 'key': 'u', 'origWidth': 409, 'origHeight': 409, 'width': 409, 'height': 409, 'widthPercent': 0.45, 'rescaleHeight': False, 'trialN': 11, 'loaded': True, 'loadedTime': 6378.199999928474, 'positionName': 'LEFT', 'positionCoords': [205.4, 307.5], 'bid': 8.68}, {'imgObject': {}, 'id': 'kiwi', 'src': '/static/foodstim60/kiwi.jpg', 'key': 'i', 'origWidth': 410, 'origHeight': 410, 'width': 410, 'height': 410, 'widthPercent': 0.45, 'rescaleHeight': False, 'trialN': 11, 'loaded': True, 'loadedTime': 7004.299999952316, 'positionName': 'RIGHT', 'positionCoords': [665.6, 307], 'bid': 8.45}]",24232.899999976158,1669831640831,burger,kiwi,8.68,8.45,-0.23000000000000043,burger,563.7000000476837,565,564.7000000476837,True,u,25304.199999928474,1071.2999999523163,1669831641902,1071,HRV,HRV_0153,2022-11-30 18:12:50
12,"[{'imgObject': {}, 'id': 'fruitsalad', 'src': '/static/foodstim60/fruitsalad.jpg', 'key': 'u', 'origWidth': 410, 'origHeight': 410, 'width': 410, 'height': 410, 'widthPercent': 0.45, 'rescaleHeight': False, 'trialN': 12, 'loaded': True, 'loadedTime': 7019.799999952316, 'positionName': 'LEFT', 'positionCoords': [204.4, 307], 'bid': 9.2}, {'imgObject': {}, 'id': 'luckycharms', 'src': '/static/foodstim60/luckycharms.jpg', 'key': 'i', 'origWidth': 410, 'origHeight': 409, 'width': 410, 'height': 409, 'widthPercent': 0.45, 'rescaleHeight': False, 'trialN': 12, 'loaded': True, 'loadedTime': 5653, 'positionName': 'RIGHT', 'positionCoords': [665.6, 307.5], 'bid': 9.4}]",25304.899999976158,1669831641903,fruitsalad,luckycharms,9.2,9.4,0.20000000000000107,fruitsalad,843.7000000476837,845,844.8999999761581,True,u,26656.0,1351.1000000238419,1669831643254,1351,HRV,HRV_0153,2022-11-30 18:12:50
13,"[{'imgObject': {}, 'id': 'burrito', 'src': '/static/foodstim60/burrito.jpg', 'key': 'u', 'origWidth': 410, 'origHeight': 410, 'width': 410, 'height': 410, 'widthPercent': 0.45, 'rescaleHeight': False, 'trialN': 13, 'loaded': True, 'loadedTime': 6758.5, 'positionName': 'LEFT', 'positionCoords': [204.4, 307], 'bid': 9.4}, {'imgObject': {}, 'id': 'pear', 'src': '/static/foodstim60/pear.jpg', 'key': 'i', 'origWidth': 411, 'origHeight': 410, 'width': 411, 'height': 410, 'widthPercent': 0.45, 'rescaleHeight': False, 'trialN': 13, 'loaded': True, 'loadedTime': 6694.199999928474, 'positionName': 'RIGHT', 'positionCoords': [665.6, 307], 'bid': 9.43}]",26656.5,1669831643255,burrito,pear,9.4,9.43,0.02999999999999936,pear,620.1000000238419,621,621.2999999523163,True,i,27784.799999952316,1128.2999999523163,1669831644383,1128,HRV,HRV_0153,2022-11-30 18:12:50
14,"[{'imgObject': {}, 'id': 'sushi w_condiments', 'src': '/static/foodstim60/sushi w_condiments.jpg', 'key': 'u', 'origWidth': 410, 'origHeight': 410, 'width': 410, 'height': 410, 'widthPercent': 0.45, 'rescaleHeight': False, 'trialN': 14, 'loaded': True, 'loadedTime': 6230.199999928474, 'positionName': 'LEFT', 'positionCoords': [204.4, 307], 'bid': 7.18}, {'imgObject': {}, 'id': 'shreddedwheatwithmilk', 'src': '/static/foodstim60/shreddedwheatwithmilk.jpg', 'key': 'i', 'origWidth': 410, 'origHeight': 410, 'width': 410, 'height': 410, 'widthPercent': 0.45, 'rescaleHeight': False, 'trialN': 14, 'loaded': True, 'loadedTime': 7100.399999976158, 'positionName': 'RIGHT', 'positionCoords': [665.6, 307], 'bid': 9.28}]",27785.399999976158,1669831644383,sushi w_condiments,shreddedwheatwithmilk,7.18,9.28,2.0999999999999996,sushi w_condiments,979.1000000238419,981,980.1000000238419,True,u,29272.600000023842,1487.2000000476837,1669831645871,1488,HRV,HRV_0153,2022-11-30 18:12:50
15,"[{'imgObject': {}, 'id': 'Tribe humus pita', 'src': '/static/foodstim60/Tribe humus pita.jpg', 'key': 'u', 'origWidth': 411, 'origHeight': 411, 'width': 411, 'height': 411, 'widthPercent': 0.45, 'rescaleHeight': False, 'trialN': 15, 'loaded': True, 'loadedTime': 7103.100000023842, 'positionName': 'LEFT', 'positionCoords': [203.4, 306.5], 'bid': 6.5}, {'imgObject': {}, 'id': 'froot loops w milk', 'src': '/static/foodstim60/froot loops w milk.jpg', 'key': 'i', 'origWidth': 410, 'origHeight': 410, 'width': 410, 'height': 410, 'widthPercent': 0.45, 'rescaleHeight': False, 'trialN': 15, 'loaded': True, 'loadedTime': 6683.799999952316, 'positionName': 'RIGHT', 'positionCoords': [665.6, 307], 'bid': 8.51}]",29273.199999928474,1669831645871,Tribe humus pita,froot loops w milk,6.5,8.51,2.01,Tribe humus pita,891.4000000953674,893,892.6000000238419,True,u,30671.5,1398.3000000715256,1669831647270,1399,HRV,HRV_0153,2022-11-30 18:12:50
16,"[{'imgObject': {}, 'id': 'salmon', 'src': '/static/foodstim60/salmon.jpg', 'key': 'u', 'origWidth': 410, 'origHeight': 409, 'width': 410, 'height': 409, 'widthPercent': 0.45, 'rescaleHeight': False, 'trialN': 16, 'loaded': True, 'loadedTime': 7126.399999976158, 'positionName': 'LEFT', 'positionCoords': [204.4, 307.5], 'bid': 9.56}, {'imgObject': {}, 'id': 'raisin bran w milk', 'src': '/static/foodstim60/raisin bran w milk.jpg', 'key': 'i', 'origWidth': 411, 'origHeight': 411, 'width': 411, 'height': 411, 'widthPercent': 0.45, 'rescaleHeight': False, 'trialN': 16, 'loaded': True, 'loadedTime': 7122.899999976158, 'positionName': 'RIGHT', 'positionCoords': [665.6, 306.5], 'bid': 9.23}]",30672.0,1669831647270,salmon,raisin bran w milk,9.56,9.23,-0.33000000000000007,salmon,788.6000000238419,790,789.6000000238419,True,u,31968.699999928474,1296.6999999284744,1669831648567,1297,HRV,HRV_0153,2022-11-30 18:12:50
17,"[{'imgObject': {}, 'id': 'apple slices', 'src': '/static/foodstim60/apple slices.jpg', 'key': 'u', 'origWidth': 409, 'origHeight': 410, 'width': 409, 'height': 410, 'widthPercent': 0.45, 'rescaleHeight': False, 'trialN': 17, 'loaded': True, 'loadedTime': 7477, 'positionName': 'LEFT', 'positionCoords': [205.4, 307], 'bid': 8.51}, {'imgObject': {}, 'id': 'roastedpotatoes', 'src': '/static/foodstim60/roastedpotatoes.jpg', 'key': 'i', 'origWidth': 409, 'origHeight': 410, 'width': 409, 'height': 410, 'widthPercent': 0.45, 'rescaleHeight': False, 'trialN': 17, 'loaded': True, 'loadedTime': 7507.699999928474, 'positionName': 'RIGHT', 'positionCoords': [665.6, 307], 'bid': 8.65}]",31969.299999952316,1669831648567,apple slices,roastedpotatoes,8.51,8.65,0.14000000000000057,roastedpotatoes,779.8000000715256,781,780.8000000715256,True,i,33255.10000002384,1285.8000000715256,1669831649853,1286,HRV,HRV_0153,2022-11-30 18:12:50
18,"[{'imgObject': {}, 'id': 'steak', 'src': '/static/foodstim60/steak.jpg', 'key': 'u', 'origWidth': 410, 'origHeight': 410, 'width': 410, 'height': 410, 'widthPercent': 0.45, 'rescaleHeight': False, 'trialN': 18, 'loaded': True, 'loadedTime': 4907.199999928474, 'positionName': 'LEFT', 'positionCoords': [204.4, 307], 'bid': 8.25}, {'imgObject': {}, 'id': 'turkeysandwich', 'src': '/static/foodstim60/turkeysandwich.jpg', 'key': 'i', 'origWidth': 409, 'origHeight': 409, 'width': 409, 'height': 409, 'widthPercent': 0.45, 'rescaleHeight': False, 'trialN': 18, 'loaded': True, 'loadedTime': 7512.100000023842, 'positionName': 'RIGHT', 'positionCoords': [665.6, 307.5], 'bid': 8.2}]",33255.699999928474,1669831649854,steak,turkeysandwich,8.25,8.2,-0.05000000000000071,steak,716.8000000715256,718,718.0,True,u,34481.0,1225.3000000715256,1669831651079,1225,HRV,HRV_0153,2022-11-30 18:12:50
19,"[{'imgObject': {}, 'id': 'turkey sandwich', 'src': '/static/foodstim60/turkey sandwich.jpg', 'key': 'u', 'origWidth': 409, 'origHeight': 409, 'width': 409, 'height': 409, 'widthPercent': 0.45, 'rescaleHeight': False, 'trialN': 19, 'loaded': True, 'loadedTime': 7285.600000023842, 'positionName': 'LEFT', 'positionCoords': [205.4, 307.5], 'bid': 8.81}, {'imgObject': {}, 'id': 'Grapes', 'src': '/static/foodstim60/Grapes.jpg', 'key': 'i', 'origWidth': 411, 'origHeight': 411, 'width': 411, 'height': 411, 'widthPercent': 0.45, 'rescaleHeight': False, 'trialN': 19, 'loaded': True, 'loadedTime': 7524.5, 'positionName': 'RIGHT', 'positionCoords': [665.6, 306.5], 'bid': 9.37}]",34481.5,1669831651080,turkey sandwich,Grapes,8.81,9.37,0.5599999999999987,turkey sandwich,779.0,779,779.8999999761581,True,u,35767.699999928474,1286.1999999284744,1669831652366,1286,HRV,HRV_0153,2022-11-30 18:12:50
20,"[{'imgObject': {}, 'id': 'chicken nuggets2', 'src': '/static/foodstim60/chicken nuggets2.jpg', 'key': 'u', 'origWidth': 410, 'origHeight': 409, 'width': 410, 'height': 409, 'widthPercent': 0.45, 'rescaleHeight': False, 'trialN': 20, 'loaded': True, 'loadedTime': 5389.799999952316, 'positionName': 'LEFT', 'positionCoords': [204.4, 307.5], 'bid': 9.56}, {'imgObject': {}, 'id': 'grilled chicken strips', 'src': '/static/foodstim60/grilled chicken strips.jpg', 'key': 'i', 'origWidth': 410, 'origHeight': 411, 'width': 410, 'height': 411, 'widthPercent': 0.45, 'rescaleHeight': False, 'trialN': 20, 'loaded': True, 'loadedTime': 6836.899999976158, 'positionName': 'RIGHT', 'positionCoords': [665.6, 306.5], 'bid': 9.23}]",35768.199999928474,1669831652366,chicken nuggets2,grilled chicken strips,9.56,9.23,-0.33000000000000007,chicken nuggets2,596.2000000476837,598,597.2000000476837,True,u,36872.60000002384,1104.4000000953674,1669831653471,1105,HRV,HRV_0153,2022-11-30 18:12:50
21,"[{'imgObject': {}, 'id': 'olives', 'src': '/static/foodstim60/olives.jpg', 'key': 'u', 'origWidth': 410, 'origHeight': 410, 'width': 410, 'height': 410, 'widthPercent': 0.45, 'rescaleHeight': False, 'trialN': 21, 'loaded': True, 'loadedTime': 7598.399999976158, 'positionName': 'LEFT', 'positionCoords': [204.4, 307], 'bid': 0.26}, {'imgObject': {}, 'id': 'bagel and cc', 'src': '/static/foodstim60/bagel and cc.jpg', 'key': 'i', 'origWidth': 410, 'origHeight': 410, 'width': 410, 'height': 410, 'widthPercent': 0.45, 'rescaleHeight': False, 'trialN': 21, 'loaded': True, 'loadedTime': 7604.199999928474, 'positionName': 'RIGHT', 'positionCoords': [665.6, 307], 'bid': 0.48}]",36873.199999928474,1669831653471,olives,bagel and cc,0.26,0.48,0.21999999999999997,olives,2035.5,2037,2036.6000000238419,True,u,39416.10000002384,2542.9000000953674,1669831656014,2543,HRV,HRV_0153,2022-11-30 18:12:50
22,"[{'imgObject': {}, 'id': 'raspberries', 'src': '/static/foodstim60/raspberries.jpg', 'key': 'u', 'origWidth': 411, 'origHeight': 411, 'width': 411, 'height': 411, 'widthPercent': 0.45, 'rescaleHeight': False, 'trialN': 22, 'loaded': True, 'loadedTime': 6858.899999976158, 'positionName': 'LEFT', 'positionCoords': [203.4, 306.5], 'bid': 9.31}, {'imgObject': {}, 'id': 'ice cream sundae 002', 'src': '/static/foodstim60/ice cream sundae 002.jpg', 'key': 'i', 'origWidth': 409, 'origHeight': 409, 'width': 409, 'height': 409, 'widthPercent': 0.45, 'rescaleHeight': False, 'trialN': 22, 'loaded': True, 'loadedTime': 6750.100000023842, 'positionName': 'RIGHT', 'positionCoords': [665.6, 307.5], 'bid': 9.51}]",39416.60000002384,1669831656015,raspberries,ice cream sundae 002,9.31,9.51,0.1999999999999993,ice cream sundae 002,1004.0,1005,1005.0,True,i,40927.199999928474,1510.5999999046326,1669831657525,1510,HRV,HRV_0153,2022-11-30 18:12:50
23,"[{'imgObject': {}, 'id': 'Grapes', 'src': '/static/foodstim60/Grapes.jpg', 'key': 'u', 'origWidth': 411, 'origHeight': 411, 'width': 411, 'height': 411, 'widthPercent': 0.45, 'rescaleHeight': False, 'trialN': 23, 'loaded': True, 'loadedTime': 7583.899999976158, 'positionName': 'LEFT', 'positionCoords': [203.4, 306.5], 'bid': 9.37}, {'imgObject': {}, 'id': 'luckycharms', 'src': '/static/foodstim60/luckycharms.jpg', 'key': 'i', 'origWidth': 410, 'origHeight': 409, 'width': 410, 'height': 409, 'widthPercent': 0.45, 'rescaleHeight': False, 'trialN': 23, 'loaded': True, 'loadedTime': 5511.100000023842, 'positionName': 'RIGHT', 'positionCoords': [665.6, 307.5], 'bid': 9.4}]",40927.799999952316,1669831657526,Grapes,luckycharms,9.37,9.4,0.030000000000001137,luckycharms,1308.8000000715256,1310,1309.8999999761581,True,i,42744.799999952316,1817.0,1669831659343,1817,HRV,HRV_0153,2022-11-30 18:12:50
24,"[{'imgObject': {}, 'id': 'turkeysandwich', 'src': '/static/foodstim60/turkeysandwich.jpg', 'key': 'u', 'origWidth': 409, 'origHeight': 409, 'width': 409, 'height': 409, 'widthPercent': 0.45, 'rescaleHeight': False, 'trialN': 24, 'loaded': True, 'loadedTime': 7512.699999928474, 'positionName': 'LEFT', 'positionCoords': [205.4, 307.5], 'bid': 8.2}, {'imgObject': {}, 'id': 'bagel plain', 'src': '/static/foodstim60/bagel plain.jpg', 'key': 'i', 'origWidth': 410, 'origHeight': 410, 'width': 410, 'height': 410, 'widthPercent': 0.45, 'rescaleHeight': False, 'trialN': 24, 'loaded': True, 'loadedTime': 7626.799999952316, 'positionName': 'RIGHT', 'positionCoords': [665.6, 307], 'bid': 0.87}]",42745.39999997616,1669831659343,turkeysandwich,bagel plain,8.2,0.87,-7.329999999999999,turkeysandwich,827.5,829,828.3999999761581,True,u,44081.199999928474,1335.7999999523163,1669831660679,1336,HRV,HRV_0153,2022-11-30 18:12:50
25,"[{'imgObject': {}, 'id': 'roastedpotatoes', 'src': '/static/foodstim60/roastedpotatoes.jpg', 'key': 'u', 'origWidth': 409, 'origHeight': 410, 'width': 409, 'height': 410, 'widthPercent': 0.45, 'rescaleHeight': False, 'trialN': 25, 'loaded': True, 'loadedTime': 7504.699999928474, 'positionName': 'LEFT', 'positionCoords': [205.4, 307], 'bid': 8.65}, {'imgObject': {}, 'id': 'olives', 'src': '/static/foodstim60/olives.jpg', 'key': 'i', 'origWidth': 410, 'origHeight': 410, 'width': 410, 'height': 410, 'widthPercent': 0.45, 'rescaleHeight': False, 'trialN': 25, 'loaded': True, 'loadedTime': 7603.199999928474, 'positionName': 'RIGHT', 'positionCoords': [665.6, 307], 'bid': 0.26}]",44081.5,1669831660680,roastedpotatoes,olives,8.65,0.26,-8.39,roastedpotatoes,947.0,948,948.0,True,u,45536.5,1455.0,1669831662135,1455,HRV,HRV_0153,2022-11-30 18:12:50
26,"[{'imgObject': {}, 'id': 'cantaloupe', 'src': '/static/foodstim60/cantaloupe.jpg', 'key': 'u', 'origWidth': 409, 'origHeight': 409, 'width': 409, 'height': 409, 'widthPercent': 0.45, 'rescaleHeight': False, 'trialN': 26, 'loaded': True, 'loadedTime': 7644.299999952316, 'positionName': 'LEFT', 'positionCoords': [205.4, 307.5], 'bid': 2.7}, {'imgObject': {}, 'id': 'steak', 'src': '/static/foodstim60/steak.jpg', 'key': 'i', 'origWidth': 410, 'origHeight': 410, 'width': 410, 'height': 410, 'widthPercent': 0.45, 'rescaleHeight': False, 'trialN': 26, 'loaded': True, 'loadedTime': 4922.299999952316, 'positionName': 'RIGHT', 'positionCoords': [665.6, 307], 'bid': 8.25}]",45537.10000002384,1669831662135,cantaloupe,steak,2.7,8.25,5.55,steak,707.2999999523163,709,708.5,True,i,46752.5,1215.3999999761581,1669831663350,1215,HRV,HRV_0153,2022-11-30 18:12:50
27,"[{'imgObject': {}, 'id': 'avocado', 'src': '/static/foodstim60/avocado.jpg', 'key': 'u', 'origWidth': 409, 'origHeight': 409, 'width': 409, 'height': 409, 'widthPercent': 0.45, 'rescaleHeight': False, 'trialN': 27, 'loaded': True, 'loadedTime': 7662.199999928474, 'positionName': 'LEFT', 'positionCoords': [205.4, 307.5], 'bid': 8.34}, {'imgObject': {}, 'id': 'rigatoni', 'src': '/static/foodstim60/rigatoni.jpg', 'key': 'i', 'origWidth': 411, 'origHeight': 411, 'width': 411, 'height': 411, 'widthPercent': 0.45, 'rescaleHeight': False, 'trialN': 27, 'loaded': True, 'loadedTime': 7744.899999976158, 'positionName': 'RIGHT', 'positionCoords': [665.6, 306.5], 'bid': 4.3100000000000005}]",46753.299999952316,1669831663351,avocado,rigatoni,8.34,4.3100000000000005,-4.029999999999999,avocado,739.5,741,740.5,True,u,47999.10000002384,1245.8000000715256,1669831664597,1246,HRV,HRV_0153,2022-11-30 18:12:50
28,"[{'imgObject': {}, 'id': 'chickenfingers', 'src': '/static/foodstim60/chickenfingers.jpg', 'key': 'u', 'origWidth': 410, 'origHeight': 410, 'width': 410, 'height': 410, 'widthPercent': 0.45, 'rescaleHeight': False, 'trialN': 28, 'loaded': True, 'loadedTime': 7794.799999952316, 'positionName': 'LEFT', 'positionCoords': [204.4, 307], 'bid': 8.290000000000001}, {'imgObject': {}, 'id': 'mango', 'src': '/static/foodstim60/mango.jpg', 'key': 'i', 'origWidth': 411, 'origHeight': 411, 'width': 411, 'height': 411, 'widthPercent': 0.45, 'rescaleHeight': False, 'trialN': 28, 'loaded': True, 'loadedTime': 7799, 'positionName': 'RIGHT', 'positionCoords': [665.6, 306.5], 'bid': 8.23}]",47999.699999928474,1669831664598,chickenfingers,mango,8.290000000000001,8.23,-0.0600000000000005,chickenfingers,589.0,590,590.0,True,u,49097.0,1097.3000000715256,1669831665695,1097,HRV,HRV_0153,2022-11-30 18:12:50
29,"[{'imgObject': {}, 'id': 'blueberries', 'src': '/static/foodstim60/blueberries.jpg', 'key': 'u', 'origWidth': 411, 'origHeight': 411, 'width': 411, 'height': 411, 'widthPercent': 0.45, 'rescaleHeight': False, 'trialN': 29, 'loaded': True, 'loadedTime': 7779.799999952316, 'positionName': 'LEFT', 'positionCoords': [203.4, 306.5], 'bid': 8.2}, {'imgObject': {}, 'id': 'banana', 'src': '/static/foodstim60/banana.jpg', 'key': 'i', 'origWidth': 410, 'origHeight': 410, 'width': 410, 'height': 410, 'widthPercent': 0.45, 'rescaleHeight': False, 'trialN': 29, 'loaded': True, 'loadedTime': 6915.699999928474, 'positionName': 'RIGHT', 'positionCoords': [665.6, 307], 'bid': 7.65}]",49097.60000002384,1669831665696,blueberries,banana,8.2,7.65,-0.5499999999999989,blueberries,659.0,660,660.0999999046326,True,u,50264.799999952316,1167.1999999284744,1669831666863,1167,HRV,HRV_0153,2022-11-30 18:12:50
30,"[{'imgObject': {}, 'id': 'cherry tomato', 'src': '/static/foodstim60/cherry tomato.jpg', 'key': 'u', 'origWidth': 410, 'origHeight': 410, 'width': 410, 'height': 410, 'widthPercent': 0.45, 'rescaleHeight': False, 'trialN': 30, 'loaded': True, 'loadedTime': 7786.100000023842, 'positionName': 'LEFT', 'positionCoords': [204.4, 307], 'bid': 4.29}, {'imgObject': {}, 'id': 'chickenfingers', 'src': '/static/foodstim60/chickenfingers.jpg', 'key': 'i', 'origWidth': 410, 'origHeight': 410, 'width': 410, 'height': 410, 'widthPercent': 0.45, 'rescaleHeight': False, 'trialN': 30, 'loaded': True, 'loadedTime': 7794.5, 'positionName': 'RIGHT', 'positionCoords': [665.6, 307], 'bid': 8.290000000000001}]",50265.39999997616,1669831666863,cherry tomato,chickenfingers,4.29,8.290000000000001,4.000000000000001,chickenfingers,595.1000000238419,597,596.2999999523163,True,i,51367.699999928474,1102.2999999523163,1669831667966,1103,HRV,HRV_0153,2022-11-30 18:12:50
31,"[{'imgObject': {}, 'id': 'luckycharms', 'src': '/static/foodstim60/luckycharms.jpg', 'key': 'u', 'origWidth': 410, 'origHeight': 409, 'width': 410, 'height': 409, 'widthPercent': 0.45, 'rescaleHeight': False, 'trialN': 31, 'loaded': True, 'loadedTime': 5649.399999976158, 'positionName': 'LEFT', 'positionCoords': [204.4, 307.5], 'bid': 9.4}, {'imgObject': {}, 'id': 'sweetpotato', 'src': '/static/foodstim60/sweetpotato.jpg', 'key': 'i', 'origWidth': 410, 'origHeight': 410, 'width': 410, 'height': 410, 'widthPercent': 0.45, 'rescaleHeight': False, 'trialN': 31, 'loaded': True, 'loadedTime': 7910.199999928474, 'positionName': 'RIGHT', 'positionCoords': [665.6, 307], 'bid': 9.37}]",51368.199999928474,1669831667966,luckycharms,sweetpotato,9.4,9.37,-0.030000000000001137,sweetpotato,692.5,694,693.4000000953674,True,i,52568.5,1200.3000000715256,1669831669167,1201,HRV,HRV_0153,2022-11-30 18:12:50
32,"[{'imgObject': {}, 'id': 'eggs', 'src': '/static/foodstim60/eggs.jpg', 'key': 'u', 'origWidth': 409, 'origHeight': 409, 'width': 409, 'height': 409, 'widthPercent': 0.45, 'rescaleHeight': False, 'trialN': 32, 'loaded': True, 'loadedTime': 6021.5, 'positionName': 'LEFT', 'positionCoords': [205.4, 307.5], 'bid': 8.85}, {'imgObject': {}, 'id': 'fried eggs', 'src': '/static/foodstim60/fried eggs.jpg', 'key': 'i', 'origWidth': 410, 'origHeight': 410, 'width': 410, 'height': 410, 'widthPercent': 0.45, 'rescaleHeight': False, 'trialN': 32, 'loaded': True, 'loadedTime': 6505.799999952316, 'positionName': 'RIGHT', 'positionCoords': [665.6, 307], 'bid': 9.23}]",52569.10000002384,1669831669167,eggs,fried eggs,8.85,9.23,0.3800000000000008,fried eggs,643.3999999761581,645,644.3999999761581,True,i,53720.39999997616,1151.2999999523163,1669831670318,1151,HRV,HRV_0153,2022-11-30 18:12:50
33,"[{'imgObject': {}, 'id': 'cherries', 'src': '/static/foodstim60/cherries.jpg', 'key': 'u', 'origWidth': 410, 'origHeight': 411, 'width': 410, 'height': 411, 'widthPercent': 0.45, 'rescaleHeight': False, 'trialN': 33, 'loaded': True, 'loadedTime': 5387.799999952316, 'positionName': 'LEFT', 'positionCoords': [204.4, 306.5], 'bid': 9.34}, {'imgObject': {}, 'id': 'sweetpotato', 'src': '/static/foodstim60/sweetpotato.jpg', 'key': 'i', 'origWidth': 410, 'origHeight': 410, 'width': 410, 'height': 410, 'widthPercent': 0.45, 'rescaleHeight': False, 'trialN': 33, 'loaded': True, 'loadedTime': 7809, 'positionName': 'RIGHT', 'positionCoords': [665.6, 307], 'bid': 9.37}]",53721.0,1669831670319,cherries,sweetpotato,9.34,9.37,0.02999999999999936,sweetpotato,620.1000000238419,621,621.2999999523163,True,i,54847.199999928474,1126.1999999284744,1669831671445,1126,HRV,HRV_0153,2022-11-30 18:12:50
34,"[{'imgObject': {}, 'id': 'cantaloupe', 'src': '/static/foodstim60/cantaloupe.jpg', 'key': 'u', 'origWidth': 409, 'origHeight': 409, 'width': 409, 'height': 409, 'widthPercent': 0.45, 'rescaleHeight': False, 'trialN': 34, 'loaded': True, 'loadedTime': 7628.100000023842, 'positionName': 'LEFT', 'positionCoords': [205.4, 307.5], 'bid': 2.7}, {'imgObject': {}, 'id': 'bagel and cc', 'src': '/static/foodstim60/bagel and cc.jpg', 'key': 'i', 'origWidth': 410, 'origHeight': 410, 'width': 410, 'height': 410, 'widthPercent': 0.45, 'rescaleHeight': False, 'trialN': 34, 'loaded': True, 'loadedTime': 7610.5, 'positionName': 'RIGHT', 'positionCoords': [665.6, 307], 'bid': 0.48}]",54847.799999952316,1669831671446,cantaloupe,bagel and cc,2.7,0.48,-2.22,cantaloupe,676.5,678,678.6000000238419,True,u,56032.0,1184.2000000476837,1669831672630,1184,HRV,HRV_0153,2022-11-30 18:12:50
35,"[{'imgObject': {}, 'id': 'fruitsalad', 'src': '/static/foodstim60/fruitsalad.jpg', 'key': 'u', 'origWidth': 410, 'origHeight': 410, 'width': 410, 'height': 410, 'widthPercent': 0.45, 'rescaleHeight': False, 'trialN': 35, 'loaded': True, 'loadedTime': 7016.199999928474, 'positionName': 'LEFT', 'positionCoords': [204.4, 307], 'bid': 9.2}, {'imgObject': {}, 'id': 'raisin bran w milk', 'src': '/static/foodstim60/raisin bran w milk.jpg', 'key': 'i', 'origWidth': 411, 'origHeight': 411, 'width': 411, 'height': 411, 'widthPercent': 0.45, 'rescaleHeight': False, 'trialN': 35, 'loaded': True, 'loadedTime': 7122.600000023842, 'positionName': 'RIGHT', 'positionCoords': [665.6, 306.5], 'bid': 9.23}]",56032.5,1669831672631,fruitsalad,raisin bran w milk,9.2,9.23,0.030000000000001137,fruitsalad,811.7999999523163,812,812.6999999284744,True,u,57352.799999952316,1320.2999999523163,1669831673951,1320,HRV,HRV_0153,2022-11-30 18:12:50
36,"[{'imgObject': {}, 'id': 'avocado', 'src': '/static/foodstim60/avocado.jpg', 'key': 'u', 'origWidth': 409, 'origHeight': 409, 'width': 409, 'height': 409, 'widthPercent': 0.45, 'rescaleHeight': False, 'trialN': 36, 'loaded': True, 'loadedTime': 7659, 'positionName': 'LEFT', 'positionCoords': [205.4, 307.5], 'bid': 8.34}, {'imgObject': {}, 'id': 'kiwi', 'src': '/static/foodstim60/kiwi.jpg', 'key': 'i', 'origWidth': 410, 'origHeight': 410, 'width': 410, 'height': 410, 'widthPercent': 0.45, 'rescaleHeight': False, 'trialN': 36, 'loaded': True, 'loadedTime': 7004.5, 'positionName': 'RIGHT', 'positionCoords': [665.6, 307], 'bid': 8.45}]",57353.5,1669831673951,avocado,kiwi,8.34,8.45,0.10999999999999943,kiwi,930.8999999761581,933,932.1999999284744,True,i,58792.699999928474,1439.1999999284744,1669831675391,1440,HRV,HRV_0153,2022-11-30 18:12:50
37,"[{'imgObject': {}, 'id': 'popsicles', 'src': '/static/foodstim60/popsicles.jpg', 'key': 'u', 'origWidth': 410, 'origHeight': 410, 'width': 410, 'height': 410, 'widthPercent': 0.45, 'rescaleHeight': False, 'trialN': 37, 'loaded': True, 'loadedTime': 7916.699999928474, 'positionName': 'LEFT', 'positionCoords': [204.4, 307], 'bid': 8.82}, {'imgObject': {}, 'id': 'burrito', 'src': '/static/foodstim60/burrito.jpg', 'key': 'i', 'origWidth': 410, 'origHeight': 410, 'width': 410, 'height': 410, 'widthPercent': 0.45, 'rescaleHeight': False, 'trialN': 37, 'loaded': True, 'loadedTime': 6755, 'positionName': 'RIGHT', 'positionCoords': [665.6, 307], 'bid': 9.4}]",58793.299999952316,1669831675391,popsicles,burrito,8.82,9.4,0.5800000000000001,burrito,779.6000000238419,781,780.6000000238419,True,i,60081.10000002384,1287.8000000715256,1669831676679,1288,HRV,HRV_0153,2022-11-30 18:12:50
38,"[{'imgObject': {}, 'id': 'pear', 'src': '/static/foodstim60/pear.jpg', 'key': 'u', 'origWidth': 411, 'origHeight': 410, 'width': 411, 'height': 410, 'widthPercent': 0.45, 'rescaleHeight': False, 'trialN': 38, 'loaded': True, 'loadedTime': 6729.899999976158, 'positionName': 'LEFT', 'positionCoords': [203.4, 307], 'bid': 9.43}, {'imgObject': {}, 'id': 'mac & cheese', 'src': '/static/foodstim60/mac & cheese.jpg', 'key': 'i', 'origWidth': 410, 'origHeight': 410, 'width': 410, 'height': 410, 'widthPercent': 0.45, 'rescaleHeight': False, 'trialN': 38, 'loaded': True, 'loadedTime': 7961.699999928474, 'positionName': 'RIGHT', 'positionCoords': [665.6, 307], 'bid': 9.46}]",60081.39999997616,1669831676679,pear,mac & cheese,9.43,9.46,0.030000000000001137,mac & cheese,643.0,645,644.1000000238419,True,i,61232.39999997616,1151.0,1669831677830,1151,HRV,HRV_0153,2022-11-30 18:12:50
39,"[{'imgObject': {}, 'id': 'froot loops w milk', 'src': '/static/foodstim60/froot loops w milk.jpg', 'key': 'u', 'origWidth': 410, 'origHeight': 410, 'width': 410, 'height': 410, 'widthPercent': 0.45, 'rescaleHeight': False, 'trialN': 39, 'loaded': True, 'loadedTime': 6689.699999928474, 'positionName': 'LEFT', 'positionCoords': [204.4, 307], 'bid': 8.51}, {'imgObject': {}, 'id': 'turkey sandwich', 'src': '/static/foodstim60/turkey sandwich.jpg', 'key': 'i', 'origWidth': 409, 'origHeight': 409, 'width': 409, 'height': 409, 'widthPercent': 0.45, 'rescaleHeight': False, 'trialN': 39, 'loaded': True, 'loadedTime': 7281.399999976158, 'positionName': 'RIGHT', 'positionCoords': [665.6, 307.5], 'bid': 8.81}]",61232.799999952316,1669831677831,froot loops w milk,turkey sandwich,8.51,8.81,0.3000000000000007,turkey sandwich,731.8000000715256,733,733.0,True,i,62472.299999952316,1239.5,1669831679070,1239,HRV,HRV_0153,2022-11-30 18:12:50
40,"[{'imgObject': {}, 'id': 'salad w chicken', 'src': '/static/foodstim60/salad w chicken.jpg', 'key': 'u', 'origWidth': 411, 'origHeight': 411, 'width': 411, 'height': 411, 'widthPercent': 0.45, 'rescaleHeight': False, 'trialN': 40, 'loaded': True, 'loadedTime': 7949.100000023842, 'positionName': 'LEFT', 'positionCoords': [203.4, 306.5], 'bid': 8.5}, {'imgObject': {}, 'id': 'chicken nuggets2', 'src': '/static/foodstim60/chicken nuggets2.jpg', 'key': 'i', 'origWidth': 410, 'origHeight': 409, 'width': 410, 'height': 409, 'widthPercent': 0.45, 'rescaleHeight': False, 'trialN': 40, 'loaded': True, 'loadedTime': 5508.5, 'positionName': 'RIGHT', 'positionCoords': [665.6, 307.5], 'bid': 9.56}]",62472.89999997616,1669831679071,salad w chicken,chicken nuggets2,8.5,9.56,1.0600000000000005,chicken nuggets2,643.8999999761581,645,644.7999999523163,True,i,63624.0,1151.1000000238419,1669831680222,1151,HRV,HRV_0153,2022-11-30 18:12:50
41,"[{'imgObject': {}, 'id': 'cheerios', 'src': '/static/foodstim60/cheerios.jpg', 'key': 'u', 'origWidth': 409, 'origHeight': 410, 'width': 409, 'height': 410, 'widthPercent': 0.45, 'rescaleHeight': False, 'trialN': 41, 'loaded': True, 'loadedTime': 8014.799999952316, 'positionName': 'LEFT', 'positionCoords': [205.4, 307], 'bid': 8.67}, {'imgObject': {}, 'id': 'roastedpotatoes', 'src': '/static/foodstim60/roastedpotatoes.jpg', 'key': 'i', 'origWidth': 409, 'origHeight': 410, 'width': 409, 'height': 410, 'widthPercent': 0.45, 'rescaleHeight': False, 'trialN': 41, 'loaded': True, 'loadedTime': 7497.899999976158, 'positionName': 'RIGHT', 'positionCoords': [665.6, 307], 'bid': 8.65}]",63624.60000002384,1669831680223,cheerios,roastedpotatoes,8.67,8.65,-0.019999999999999574,roastedpotatoes,916.3999999761581,917,917.2999999523163,True,i,65047.799999952316,1423.1999999284744,1669831681646,1423,HRV,HRV_0153,2022-11-30 18:12:50
42,"[{'imgObject': {}, 'id': 'cheerios', 'src': '/static/foodstim60/cheerios.jpg', 'key': 'u', 'origWidth': 409, 'origHeight': 410, 'width': 409, 'height': 410, 'widthPercent': 0.45, 'rescaleHeight': False, 'trialN': 42, 'loaded': True, 'loadedTime': 8049.5, 'positionName': 'LEFT', 'positionCoords': [205.4, 307], 'bid': 8.67}, {'imgObject': {}, 'id': 'froot loops w milk', 'src': '/static/foodstim60/froot loops w milk.jpg', 'key': 'i', 'origWidth': 410, 'origHeight': 410, 'width': 410, 'height': 410, 'widthPercent': 0.45, 'rescaleHeight': False, 'trialN': 42, 'loaded': True, 'loadedTime': 6688.5, 'positionName': 'RIGHT', 'positionCoords': [665.6, 307], 'bid': 8.51}]",65048.5,1669831681646,cheerios,froot loops w milk,8.67,8.51,-0.16000000000000014,froot loops w milk,907.8999999761581,910,909.1000000238419,True,i,66463.79999995232,1415.2999999523163,1669831683062,1416,HRV,HRV_0153,2022-11-30 18:12:50
43,"[{'imgObject': {}, 'id': 'corn cob', 'src': '/static/foodstim60/corn cob.jpg', 'key': 'u', 'origWidth': 411, 'origHeight': 411, 'width': 411, 'height': 411, 'widthPercent': 0.45, 'rescaleHeight': False, 'trialN': 43, 'loaded': True, 'loadedTime': 8059.799999952316, 'positionName': 'LEFT', 'positionCoords': [203.4, 306.5], 'bid': 5.17}, {'imgObject': {}, 'id': 'bagel plain', 'src': '/static/foodstim60/bagel plain.jpg', 'key': 'i', 'origWidth': 410, 'origHeight': 410, 'width': 410, 'height': 410, 'widthPercent': 0.45, 'rescaleHeight': False, 'trialN': 43, 'loaded': True, 'loadedTime': 7625.100000023842, 'positionName': 'RIGHT', 'positionCoords': [665.6, 307], 'bid': 0.87}]",66464.29999995232,1669831683062,corn cob,bagel plain,5.17,0.87,-4.3,corn cob,668.1000000238419,670,669.1000000238419,True,u,67640.0,1175.7000000476837,1669831684238,1176,HRV,HRV_0153,2022-11-30 18:12:50
44,"[{'imgObject': {}, 'id': 'avocado', 'src': '/static/foodstim60/avocado.jpg', 'key': 'u', 'origWidth': 409, 'origHeight': 409, 'width': 409, 'height': 409, 'widthPercent': 0.45, 'rescaleHeight': False, 'trialN': 44, 'loaded': True, 'loadedTime': 7667.199999928474, 'positionName': 'LEFT', 'positionCoords': [205.4, 307.5], 'bid': 8.34}, {'imgObject': {}, 'id': 'strawberries', 'src': '/static/foodstim60/strawberries.jpg', 'key': 'i', 'origWidth': 410, 'origHeight': 410, 'width': 410, 'height': 410, 'widthPercent': 0.45, 'rescaleHeight': False, 'trialN': 44, 'loaded': True, 'loadedTime': 6504, 'positionName': 'RIGHT', 'positionCoords': [665.6, 307], 'bid': 8.73}]",67640.29999995232,1669831684238,avocado,strawberries,8.34,8.73,0.39000000000000057,strawberries,500.3000000715256,502,501.3000000715256,True,i,68648.29999995232,1008.0,1669831685246,1008,HRV,HRV_0153,2022-11-30 18:12:50
45,"[{'imgObject': {}, 'id': 'olives', 'src': '/static/foodstim60/olives.jpg', 'key': 'u', 'origWidth': 410, 'origHeight': 410, 'width': 410, 'height': 410, 'widthPercent': 0.45, 'rescaleHeight': False, 'trialN': 45, 'loaded': True, 'loadedTime': 7599.899999976158, 'positionName': 'LEFT', 'positionCoords': [204.4, 307], 'bid': 0.26}, {'imgObject': {}, 'id': 'sushi w_condiments', 'src': '/static/foodstim60/sushi w_condiments.jpg', 'key': 'i', 'origWidth': 410, 'origHeight': 410, 'width': 410, 'height': 410, 'widthPercent': 0.45, 'rescaleHeight': False, 'trialN': 45, 'loaded': True, 'loadedTime': 6023.399999976158, 'positionName': 'RIGHT', 'positionCoords': [665.6, 307], 'bid': 7.18}]",68649.0,1669831685247,olives,sushi w_condiments,0.26,7.18,6.92,sushi w_condiments,747.2999999523163,749,748.8999999761581,True,i,69904.19999992847,1255.1999999284744,1669831686502,1255,HRV,HRV_0153,2022-11-30 18:12:50
46,"[{'imgObject': {}, 'id': 'mashed potato', 'src': '/static/foodstim60/mashed potato.jpg', 'key': 'u', 'origWidth': 409, 'origHeight': 409, 'width': 409, 'height': 409, 'widthPercent': 0.45, 'rescaleHeight': False, 'trialN': 46, 'loaded': True, 'loadedTime': 8050, 'positionName': 'LEFT', 'positionCoords': [205.4, 307.5], 'bid': 5.5}, {'imgObject': {}, 'id': 'blueberries', 'src': '/static/foodstim60/blueberries.jpg', 'key': 'i', 'origWidth': 411, 'origHeight': 411, 'width': 411, 'height': 411, 'widthPercent': 0.45, 'rescaleHeight': False, 'trialN': 46, 'loaded': True, 'loadedTime': 7776.399999976158, 'positionName': 'RIGHT', 'positionCoords': [665.6, 306.5], 'bid': 8.2}]",69904.69999992847,1669831686503,mashed potato,blueberries,5.5,8.2,2.6999999999999993,blueberries,659.8000000715256,661,660.9000000953674,True,i,71073.19999992847,1168.5,1669831687671,1168,HRV,HRV_0153,2022-11-30 18:12:50
47,"[{'imgObject': {}, 'id': 'fruitsalad', 'src': '/static/foodstim60/fruitsalad.jpg', 'key': 'u', 'origWidth': 410, 'origHeight': 410, 'width': 410, 'height': 410, 'widthPercent': 0.45, 'rescaleHeight': False, 'trialN': 47, 'loaded': True, 'loadedTime': 7007.399999976158, 'positionName': 'LEFT', 'positionCoords': [204.4, 307], 'bid': 9.2}, {'imgObject': {}, 'id': 'omelette', 'src': '/static/foodstim60/omelette.jpg', 'key': 'i', 'origWidth': 410, 'origHeight': 409, 'width': 410, 'height': 409, 'widthPercent': 0.45, 'rescaleHeight': False, 'trialN': 47, 'loaded': True, 'loadedTime': 5753.799999952316, 'positionName': 'RIGHT', 'positionCoords': [665.6, 307.5], 'bid': 9.32}]",71073.79999995232,1669831687672,fruitsalad,omelette,9.2,9.32,0.120000000000001,omelette,602.7000000476837,603,603.6000000238419,True,i,72184.69999992847,1110.8999999761581,1669831688783,1111,HRV,HRV_0153,2022-11-30 18:12:50
48,"[{'imgObject': {}, 'id': 'chickenfingers', 'src': '/static/foodstim60/chickenfingers.jpg', 'key': 'u', 'origWidth': 410, 'origHeight': 410, 'width': 410, 'height': 410, 'widthPercent': 0.45, 'rescaleHeight': False, 'trialN': 48, 'loaded': True, 'loadedTime': 7787.699999928474, 'positionName': 'LEFT', 'positionCoords': [204.4, 307], 'bid': 8.290000000000001}, {'imgObject': {}, 'id': 'pear', 'src': '/static/foodstim60/pear.jpg', 'key': 'i', 'origWidth': 411, 'origHeight': 410, 'width': 411, 'height': 410, 'widthPercent': 0.45, 'rescaleHeight': False, 'trialN': 48, 'loaded': True, 'loadedTime': 6719.899999976158, 'positionName': 'RIGHT', 'positionCoords': [665.6, 307], 'bid': 9.43}]",72185.29999995232,1669831688783,chickenfingers,pear,8.290000000000001,9.43,1.1399999999999988,chickenfingers,899.3000000715256,902,901.6000000238419,True,u,73591.69999992847,1406.3999999761581,1669831690190,1407,HRV,HRV_0153,2022-11-30 18:12:50
49,"[{'imgObject': {}, 'id': 'cantaloupe', 'src': '/static/foodstim60/cantaloupe.jpg', 'key': 'u', 'origWidth': 409, 'origHeight': 409, 'width': 409, 'height': 409, 'widthPercent': 0.45, 'rescaleHeight': False, 'trialN': 49, 'loaded': True, 'loadedTime': 7630.299999952316, 'positionName': 'LEFT', 'positionCoords': [205.4, 307.5], 'bid': 2.7}, {'imgObject': {}, 'id': 'baked potato', 'src': '/static/foodstim60/baked potato.jpg', 'key': 'i', 'origWidth': 409, 'origHeight': 410, 'width': 409, 'height': 410, 'widthPercent': 0.45, 'rescaleHeight': False, 'trialN': 49, 'loaded': True, 'loadedTime': 8100.5, 'positionName': 'RIGHT', 'positionCoords': [665.6, 307], 'bid': 7.640000000000001}]",73592.19999992847,1669831690190,cantaloupe,baked potato,2.7,7.640000000000001,4.94,baked potato,788.2000000476837,790,789.4000000953674,True,i,74888.60000002384,1296.4000000953674,1669831691487,1297,HRV,HRV_0153,2022-11-30 18:12:50
50,"[{'imgObject': {}, 'id': 'hotdog w must', 'src': '/static/foodstim60/hotdog w must.jpg', 'key': 'u', 'origWidth': 409, 'origHeight': 409, 'width': 409, 'height': 409, 'widthPercent': 0.45, 'rescaleHeight': False, 'trialN': 50, 'loaded': True, 'loadedTime': 8129.899999976158, 'positionName': 'LEFT', 'positionCoords': [205.4, 307.5], 'bid': 9.12}, {'imgObject': {}, 'id': 'grilled chicken strips', 'src': '/static/foodstim60/grilled chicken strips.jpg', 'key': 'i', 'origWidth': 410, 'origHeight': 411, 'width': 410, 'height': 411, 'widthPercent': 0.45, 'rescaleHeight': False, 'trialN': 50, 'loaded': True, 'loadedTime': 6758.699999928474, 'positionName': 'RIGHT', 'positionCoords': [665.6, 306.5], 'bid': 9.23}]",74889.10000002384,1669831691487,hotdog w must,grilled chicken strips,9.12,9.23,0.11000000000000121,grilled chicken strips,691.7999999523163,693,692.7999999523163,True,i,76088.39999997616,1199.2999999523163,1669831692686,1199,HRV,HRV_0153,2022-11-30 18:12:50
51,"[{'imgObject': {}, 'id': 'cherry tomato', 'src': '/static/foodstim60/cherry tomato.jpg', 'key': 'u', 'origWidth': 410, 'origHeight': 410, 'width': 410, 'height': 410, 'widthPercent': 0.45, 'rescaleHeight': False, 'trialN': 51, 'loaded': True, 'loadedTime': 7780.100000023842, 'positionName': 'LEFT', 'positionCoords': [204.4, 307], 'bid': 4.29}, {'imgObject': {}, 'id': 'blackbeanswithrice', 'src': '/static/foodstim60/blackbeanswithrice.jpg', 'key': 'i', 'origWidth': 410, 'origHeight': 410, 'width': 410, 'height': 410, 'widthPercent': 0.45, 'rescaleHeight': False, 'trialN': 51, 'loaded': True, 'loadedTime': 8325.100000023842, 'positionName': 'RIGHT', 'positionCoords': [665.6, 307], 'bid': 4.6000000000000005}]",76089.0,1669831692687,cherry tomato,blackbeanswithrice,4.29,4.6000000000000005,0.3100000000000005,blackbeanswithrice,667.6000000238419,669,668.6999999284744,True,i,77264.19999992847,1175.1999999284744,1669831693862,1175,HRV,HRV_0153,2022-11-30 18:12:50
52,"[{'imgObject': {}, 'id': 'popsicles', 'src': '/static/foodstim60/popsicles.jpg', 'key': 'u', 'origWidth': 410, 'origHeight': 410, 'width': 410, 'height': 410, 'widthPercent': 0.45, 'rescaleHeight': False, 'trialN': 52, 'loaded': True, 'loadedTime': 7911.299999952316, 'positionName': 'LEFT', 'positionCoords': [204.4, 307], 'bid': 8.82}, {'imgObject': {}, 'id': 'raisin bran w milk', 'src': '/static/foodstim60/raisin bran w milk.jpg', 'key': 'i', 'origWidth': 411, 'origHeight': 411, 'width': 411, 'height': 411, 'widthPercent': 0.45, 'rescaleHeight': False, 'trialN': 52, 'loaded': True, 'loadedTime': 7117.600000023842, 'positionName': 'RIGHT', 'positionCoords': [665.6, 306.5], 'bid': 9.23}]",77264.89999997616,1669831693863,popsicles,raisin bran w milk,8.82,9.23,0.41000000000000014,popsicles,627.7000000476837,629,628.7000000476837,True,u,78400.0,1135.1000000238419,1669831694998,1135,HRV,HRV_0153,2022-11-30 18:12:50
53,"[{'imgObject': {}, 'id': 'apple slices', 'src': '/static/foodstim60/apple slices.jpg', 'key': 'u', 'origWidth': 409, 'origHeight': 410, 'width': 409, 'height': 410, 'widthPercent': 0.45, 'rescaleHeight': False, 'trialN': 53, 'loaded': True, 'loadedTime': 7479.100000023842, 'positionName': 'LEFT', 'positionCoords': [205.4, 307], 'bid': 8.51}, {'imgObject': {}, 'id': 'strawberries', 'src': '/static/foodstim60/strawberries.jpg', 'key': 'i', 'origWidth': 410, 'origHeight': 410, 'width': 410, 'height': 410, 'widthPercent': 0.45, 'rescaleHeight': False, 'trialN': 53, 'loaded': True, 'loadedTime': 6501.5, 'positionName': 'RIGHT', 'positionCoords': [665.6, 307], 'bid': 8.73}]",78400.60000002384,1669831694999,apple slices,strawberries,8.51,8.73,0.22000000000000064,strawberries,619.8999999761581,620,620.8999999761581,True,i,79528.0,1127.3999999761581,1669831696126,1127,HRV,HRV_0153,2022-11-30 18:12:50
54,"[{'imgObject': {}, 'id': 'orange slices', 'src': '/static/foodstim60/orange slices.jpg', 'key': 'u', 'origWidth': 409, 'origHeight': 410, 'width': 409, 'height': 410, 'widthPercent': 0.45, 'rescaleHeight': False, 'trialN': 54, 'loaded': True, 'loadedTime': 8336.399999976158, 'positionName': 'LEFT', 'positionCoords': [205.4, 307], 'bid': 8.81}, {'imgObject': {}, 'id': 'luckycharms', 'src': '/static/foodstim60/luckycharms.jpg', 'key': 'i', 'origWidth': 410, 'origHeight': 409, 'width': 410, 'height': 409, 'widthPercent': 0.45, 'rescaleHeight': False, 'trialN': 54, 'loaded': True, 'loadedTime': 5515.299999952316, 'positionName': 'RIGHT', 'positionCoords': [665.6, 307.5], 'bid': 9.4}]",79528.39999997616,1669831696126,orange slices,luckycharms,8.81,9.4,0.5899999999999999,orange slices,636.2000000476837,637,637.2000000476837,True,u,80672.69999992847,1144.2999999523163,1669831697271,1145,HRV,HRV_0153,2022-11-30 18:12:50
55,"[{'imgObject': {}, 'id': 'fried eggs', 'src': '/static/foodstim60/fried eggs.jpg', 'key': 'u', 'origWidth': 410, 'origHeight': 410, 'width': 410, 'height': 410, 'widthPercent': 0.45, 'rescaleHeight': False, 'trialN': 55, 'loaded': True, 'loadedTime': 6514.399999976158, 'positionName': 'LEFT', 'positionCoords': [204.4, 307], 'bid': 9.23}, {'imgObject': {}, 'id': 'Tribe humus pita', 'src': '/static/foodstim60/Tribe humus pita.jpg', 'key': 'i', 'origWidth': 411, 'origHeight': 411, 'width': 411, 'height': 411, 'widthPercent': 0.45, 'rescaleHeight': False, 'trialN': 55, 'loaded': True, 'loadedTime': 7117, 'positionName': 'RIGHT', 'positionCoords': [665.6, 306.5], 'bid': 6.5}]",80673.19999992847,1669831697271,fried eggs,Tribe humus pita,9.23,6.5,-2.7300000000000004,Tribe humus pita,587.3000000715256,588,588.3000000715256,True,i,81768.60000002384,1095.4000000953674,1669831698367,1096,HRV,HRV_0153,2022-11-30 18:12:50
56,"[{'imgObject': {}, 'id': 'banana', 'src': '/static/foodstim60/banana.jpg', 'key': 'u', 'origWidth': 410, 'origHeight': 410, 'width': 410, 'height': 410, 'widthPercent': 0.45, 'rescaleHeight': False, 'trialN': 56, 'loaded': True, 'loadedTime': 6924, 'positionName': 'LEFT', 'positionCoords': [204.4, 307], 'bid': 7.65}, {'imgObject': {}, 'id': 'rigatoni and sauce', 'src': '/static/foodstim60/rigatoni and sauce.jpg', 'key': 'i', 'origWidth': 410, 'origHeight': 411, 'width': 410, 'height': 411, 'widthPercent': 0.45, 'rescaleHeight': False, 'trialN': 56, 'loaded': True, 'loadedTime': 8345, 'positionName': 'RIGHT', 'positionCoords': [665.6, 306.5], 'bid': 5.28}]",81769.19999992847,1669831698367,banana,rigatoni and sauce,7.65,5.28,-2.37,rigatoni and sauce,507.2000000476837,509,508.5,True,i,82783.5,1014.3000000715256,1669831699381,1014,HRV,HRV_0153,2022-11-30 18:12:50
57,"[{'imgObject': {}, 'id': 'banana', 'src': '/static/foodstim60/banana.jpg', 'key': 'u', 'origWidth': 410, 'origHeight': 410, 'width': 410, 'height': 410, 'widthPercent': 0.45, 'rescaleHeight': False, 'trialN': 57, 'loaded': True, 'loadedTime': 6914, 'positionName': 'LEFT', 'positionCoords': [204.4, 307], 'bid': 7.65}, {'imgObject': {}, 'id': 'seaweed', 'src': '/static/foodstim60/seaweed.jpg', 'key': 'i', 'origWidth': 410, 'origHeight': 410, 'width': 410, 'height': 410, 'widthPercent': 0.45, 'rescaleHeight': False, 'trialN': 57, 'loaded': True, 'loadedTime': 8505.399999976158, 'positionName': 'RIGHT', 'positionCoords': [665.6, 307], 'bid': 0.64}]",82784.10000002384,1669831699382,banana,seaweed,7.65,0.64,-7.010000000000001,banana,820.5,822,821.5999999046326,True,u,84112.19999992847,1328.0999999046326,1669831700710,1328,HRV,HRV_0153,2022-11-30 18:12:50
58,"[{'imgObject': {}, 'id': 'seaweed', 'src': '/static/foodstim60/seaweed.jpg', 'key': 'u', 'origWidth': 410, 'origHeight': 410, 'width': 410, 'height': 410, 'widthPercent': 0.45, 'rescaleHeight': False, 'trialN': 58, 'loaded': True, 'loadedTime': 8505.699999928474, 'positionName': 'LEFT', 'positionCoords': [204.4, 307], 'bid': 0.64}, {'imgObject': {}, 'id': 'mashed potato', 'src': '/static/foodstim60/mashed potato.jpg', 'key': 'i', 'origWidth': 409, 'origHeight': 409, 'width': 409, 'height': 409, 'widthPercent': 0.45, 'rescaleHeight': False, 'trialN': 58, 'loaded': True, 'loadedTime': 8057.399999976158, 'positionName': 'RIGHT', 'positionCoords': [665.6, 307.5], 'bid': 5.5}]",84112.5,1669831700710,seaweed,mashed potato,0.64,5.5,4.86,mashed potato,724.1000000238419,726,725.1999999284744,True,i,85344.19999992847,1231.6999999284744,1669831701942,1232,HRV,HRV_0153,2022-11-30 18:12:50
59,"[{'imgObject': {}, 'id': 'edamame', 'src': '/static/foodstim60/edamame.jpg', 'key': 'u', 'origWidth': 409, 'origHeight': 410, 'width': 409, 'height': 410, 'widthPercent': 0.45, 'rescaleHeight': False, 'trialN': 59, 'loaded': True, 'loadedTime': 8513.799999952316, 'positionName': 'LEFT', 'positionCoords': [205.4, 307], 'bid': 0.6}, {'imgObject': {}, 'id': 'baked potato', 'src': '/static/foodstim60/baked potato.jpg', 'key': 'i', 'origWidth': 409, 'origHeight': 410, 'width': 409, 'height': 410, 'widthPercent': 0.45, 'rescaleHeight': False, 'trialN': 59, 'loaded': True, 'loadedTime': 8101.799999952316, 'positionName': 'RIGHT', 'positionCoords': [665.6, 307], 'bid': 7.640000000000001}]",85344.69999992847,1669831701943,edamame,baked potato,0.6,7.640000000000001,7.040000000000001,baked potato,748.3000000715256,749,749.6000000238419,True,i,86600.60000002384,1255.9000000953674,1669831703199,1256,HRV,HRV_0153,2022-11-30 18:12:50
60,"[{'imgObject': {}, 'id': 'turkey sandwich', 'src': '/static/foodstim60/turkey sandwich.jpg', 'key': 'u', 'origWidth': 409, 'origHeight': 409, 'width': 409, 'height': 409, 'widthPercent': 0.45, 'rescaleHeight': False, 'trialN': 60, 'loaded': True, 'loadedTime': 7285.399999976158, 'positionName': 'LEFT', 'positionCoords': [205.4, 307.5], 'bid': 8.81}, {'imgObject': {}, 'id': 'strawberries', 'src': '/static/foodstim60/strawberries.jpg', 'key': 'i', 'origWidth': 410, 'origHeight': 410, 'width': 410, 'height': 410, 'widthPercent': 0.45, 'rescaleHeight': False, 'trialN': 60, 'loaded': True, 'loadedTime': 6386.899999976158, 'positionName': 'RIGHT', 'positionCoords': [665.6, 307], 'bid': 8.73}]",86601.39999997616,1669831703199,turkey sandwich,strawberries,8.81,8.73,-0.08000000000000007,strawberries,627.2000000476837,629,628.3999999761581,True,i,87736.69999992847,1135.2999999523163,1669831704335,1136,HRV,HRV_0153,2022-11-30 18:12:50
61,"[{'imgObject': {}, 'id': 'omelette', 'src': '/static/foodstim60/omelette.jpg', 'key': 'u', 'origWidth': 410, 'origHeight': 409, 'width': 410, 'height': 409, 'widthPercent': 0.45, 'rescaleHeight': False, 'trialN': 61, 'loaded': True, 'loadedTime': 5653.699999928474, 'positionName': 'LEFT', 'positionCoords': [204.4, 307.5], 'bid': 9.32}, {'imgObject': {}, 'id': 'raspberries', 'src': '/static/foodstim60/raspberries.jpg', 'key': 'i', 'origWidth': 411, 'origHeight': 411, 'width': 411, 'height': 411, 'widthPercent': 0.45, 'rescaleHeight': False, 'trialN': 61, 'loaded': True, 'loadedTime': 6858.5, 'positionName': 'RIGHT', 'positionCoords': [665.6, 306.5], 'bid': 9.31}]",87737.29999995232,1669831704335,omelette,raspberries,9.32,9.31,-0.009999999999999787,omelette,803.2000000476837,804,804.2000000476837,True,u,89047.60000002384,1310.3000000715256,1669831705646,1311,HRV,HRV_0153,2022-11-30 18:12:50
62,"[{'imgObject': {}, 'id': 'salad w chicken', 'src': '/static/foodstim60/salad w chicken.jpg', 'key': 'u', 'origWidth': 411, 'origHeight': 411, 'width': 411, 'height': 411, 'widthPercent': 0.45, 'rescaleHeight': False, 'trialN': 62, 'loaded': True, 'loadedTime': 7951.5, 'positionName': 'LEFT', 'positionCoords': [203.4, 306.5], 'bid': 8.5}, {'imgObject': {}, 'id': 'hashbrowns', 'src': '/static/foodstim60/hashbrowns.jpg', 'key': 'i', 'origWidth': 411, 'origHeight': 410, 'width': 411, 'height': 410, 'widthPercent': 0.45, 'rescaleHeight': False, 'trialN': 62, 'loaded': True, 'loadedTime': 5199.399999976158, 'positionName': 'RIGHT', 'positionCoords': [665.6, 307], 'bid': 8.700000000000001}]",89048.19999992847,1669831705646,salad w chicken,hashbrowns,8.5,8.700000000000001,0.20000000000000107,salad w chicken,652.3000000715256,653,653.3000000715256,True,u,90208.5,1160.3000000715256,1669831706806,1160,HRV,HRV_0153,2022-11-30 18:12:50
63,"[{'imgObject': {}, 'id': 'Tribe humus pita', 'src': '/static/foodstim60/Tribe humus pita.jpg', 'key': 'u', 'origWidth': 411, 'origHeight': 411, 'width': 411, 'height': 411, 'widthPercent': 0.45, 'rescaleHeight': False, 'trialN': 63, 'loaded': True, 'loadedTime': 7107.399999976158, 'positionName': 'LEFT', 'positionCoords': [203.4, 306.5], 'bid': 6.5}, {'imgObject': {}, 'id': 'rigatoni and sauce', 'src': '/static/foodstim60/rigatoni and sauce.jpg', 'key': 'i', 'origWidth': 410, 'origHeight': 411, 'width': 410, 'height': 411, 'widthPercent': 0.45, 'rescaleHeight': False, 'trialN': 63, 'loaded': True, 'loadedTime': 8345.299999952316, 'positionName': 'RIGHT', 'positionCoords': [665.6, 306.5], 'bid': 5.28}]",90209.19999992847,1669831706807,Tribe humus pita,rigatoni and sauce,6.5,5.28,-1.2199999999999998,rigatoni and sauce,787.4000000953674,788,788.3000000715256,True,i,91504.39999997616,1295.2000000476837,1669831708102,1295,HRV,HRV_0153,2022-11-30 18:12:50
64,"[{'imgObject': {}, 'id': 'raspberries', 'src': '/static/foodstim60/raspberries.jpg', 'key': 'u', 'origWidth': 411, 'origHeight': 411, 'width': 411, 'height': 411, 'widthPercent': 0.45, 'rescaleHeight': False, 'trialN': 64, 'loaded': True, 'loadedTime': 6856.600000023842, 'positionName': 'LEFT', 'positionCoords': [203.4, 306.5], 'bid': 9.31}, {'imgObject': {}, 'id': 'fried eggs', 'src': '/static/foodstim60/fried eggs.jpg', 'key': 'i', 'origWidth': 410, 'origHeight': 410, 'width': 410, 'height': 410, 'widthPercent': 0.45, 'rescaleHeight': False, 'trialN': 64, 'loaded': True, 'loadedTime': 6626.399999976158, 'positionName': 'RIGHT', 'positionCoords': [665.6, 307], 'bid': 9.23}]",91504.89999997616,1669831708103,raspberries,fried eggs,9.31,9.23,-0.08000000000000007,fried eggs,747.7000000476837,749,748.7000000476837,True,i,92759.19999992847,1254.2999999523163,1669831709357,1254,HRV,HRV_0153,2022-11-30 18:12:50
65,"[{'imgObject': {}, 'id': 'cheerios', 'src': '/static/foodstim60/cheerios.jpg', 'key': 'u', 'origWidth': 409, 'origHeight': 410, 'width': 409, 'height': 410, 'widthPercent': 0.45, 'rescaleHeight': False, 'trialN': 65, 'loaded': True, 'loadedTime': 8049.100000023842, 'positionName': 'LEFT', 'positionCoords': [205.4, 307], 'bid': 8.67}, {'imgObject': {}, 'id': 'mango', 'src': '/static/foodstim60/mango.jpg', 'key': 'i', 'origWidth': 411, 'origHeight': 411, 'width': 411, 'height': 411, 'widthPercent': 0.45, 'rescaleHeight': False, 'trialN': 65, 'loaded': True, 'loadedTime': 7799.600000023842, 'positionName': 'RIGHT', 'positionCoords': [665.6, 306.5], 'bid': 8.23}]",92759.79999995232,1669831709358,cheerios,mango,8.67,8.23,-0.4399999999999995,mango,1228.8000000715256,1229,1229.8000000715256,True,i,94497.0,1737.2000000476837,1669831711095,1737,HRV,HRV_0153,2022-11-30 18:12:50
66,"[{'imgObject': {}, 'id': 'blueberries', 'src': '/static/foodstim60/blueberries.jpg', 'key': 'u', 'origWidth': 411, 'origHeight': 411, 'width': 411, 'height': 411, 'widthPercent': 0.45, 'rescaleHeight': False, 'trialN': 66, 'loaded': True, 'loadedTime': 7774.399999976158, 'positionName': 'LEFT', 'positionCoords': [203.4, 306.5], 'bid': 8.2}, {'imgObject': {}, 'id': 'rigatoni', 'src': '/static/foodstim60/rigatoni.jpg', 'key': 'i', 'origWidth': 411, 'origHeight': 411, 'width': 411, 'height': 411, 'widthPercent': 0.45, 'rescaleHeight': False, 'trialN': 66, 'loaded': True, 'loadedTime': 7741.699999928474, 'positionName': 'RIGHT', 'positionCoords': [665.6, 306.5], 'bid': 4.3100000000000005}]",94497.5,1669831711095,blueberries,rigatoni,8.2,4.3100000000000005,-3.889999999999999,blueberries,1659.3999999761581,1661,1660.5,True,u,96664.69999992847,2167.1999999284744,1669831713263,2168,HRV,HRV_0153,2022-11-30 18:12:50
67,"[{'imgObject': {}, 'id': 'cherries', 'src': '/static/foodstim60/cherries.jpg', 'key': 'u', 'origWidth': 410, 'origHeight': 411, 'width': 410, 'height': 411, 'widthPercent': 0.45, 'rescaleHeight': False, 'trialN': 67, 'loaded': True, 'loadedTime': 5245.899999976158, 'positionName': 'LEFT', 'positionCoords': [204.4, 306.5], 'bid': 9.34}, {'imgObject': {}, 'id': 'yogurt no spoon', 'src': '/static/foodstim60/yogurt no spoon.jpg', 'key': 'i', 'origWidth': 411, 'origHeight': 410, 'width': 411, 'height': 410, 'widthPercent': 0.45, 'rescaleHeight': False, 'trialN': 67, 'loaded': True, 'loadedTime': 8510.600000023842, 'positionName': 'RIGHT', 'positionCoords': [665.6, 307], 'bid': 9.46}]",96665.19999992847,1669831713263,cherries,yogurt no spoon,9.34,9.46,0.120000000000001,yogurt no spoon,843.3000000715256,845,844.4000000953674,True,i,98016.60000002384,1351.4000000953674,1669831714614,1351,HRV,HRV_0153,2022-11-30 18:12:50
68,"[{'imgObject': {}, 'id': 'blueberries', 'src': '/static/foodstim60/blueberries.jpg', 'key': 'u', 'origWidth': 411, 'origHeight': 411, 'width': 411, 'height': 411, 'widthPercent': 0.45, 'rescaleHeight': False, 'trialN': 68, 'loaded': True, 'loadedTime': 7746, 'positionName': 'LEFT', 'positionCoords': [203.4, 306.5], 'bid': 8.2}, {'imgObject': {}, 'id': 'sweetpotato', 'src': '/static/foodstim60/sweetpotato.jpg', 'key': 'i', 'origWidth': 410, 'origHeight': 410, 'width': 410, 'height': 410, 'widthPercent': 0.45, 'rescaleHeight': False, 'trialN': 68, 'loaded': True, 'loadedTime': 7910.899999976158, 'positionName': 'RIGHT', 'positionCoords': [665.6, 307], 'bid': 9.37}]",98017.19999992847,1669831714615,blueberries,sweetpotato,8.2,9.37,1.17,blueberries,755.4000000953674,757,756.5,True,u,99280.29999995232,1263.1000000238419,1669831715878,1263,HRV,HRV_0153,2022-11-30 18:12:50
69,"[{'imgObject': {}, 'id': 'baked potato', 'src': '/static/foodstim60/baked potato.jpg', 'key': 'u', 'origWidth': 409, 'origHeight': 410, 'width': 409, 'height': 410, 'widthPercent': 0.45, 'rescaleHeight': False, 'trialN': 69, 'loaded': True, 'loadedTime': 8097.5, 'positionName': 'LEFT', 'positionCoords': [205.4, 307], 'bid': 7.640000000000001}, {'imgObject': {}, 'id': 'chickenfingers', 'src': '/static/foodstim60/chickenfingers.jpg', 'key': 'i', 'origWidth': 410, 'origHeight': 410, 'width': 410, 'height': 410, 'widthPercent': 0.45, 'rescaleHeight': False, 'trialN': 69, 'loaded': True, 'loadedTime': 7793, 'positionName': 'RIGHT', 'positionCoords': [665.6, 307], 'bid': 8.290000000000001}]",99280.89999997616,1669831715879,baked potato,chickenfingers,7.640000000000001,8.290000000000001,0.6500000000000004,chickenfingers,611.7000000476837,613,612.7000000476837,True,i,100400.10000002384,1119.2000000476837,1669831716998,1119,HRV,HRV_0153,2022-11-30 18:12:50
70,"[{'imgObject': {}, 'id': 'tacos', 'src': '/static/foodstim60/tacos.jpg', 'key': 'u', 'origWidth': 411, 'origHeight': 411, 'width': 411, 'height': 411, 'widthPercent': 0.45, 'rescaleHeight': False, 'trialN': 70, 'loaded': True, 'loadedTime': 8541.5, 'positionName': 'LEFT', 'positionCoords': [203.4, 306.5], 'bid': 8.34}, {'imgObject': {}, 'id': 'mac & cheese', 'src': '/static/foodstim60/mac & cheese.jpg', 'key': 'i', 'origWidth': 410, 'origHeight': 410, 'width': 410, 'height': 410, 'widthPercent': 0.45, 'rescaleHeight': False, 'trialN': 70, 'loaded': True, 'loadedTime': 7977.799999952316, 'positionName': 'RIGHT', 'positionCoords': [665.6, 307], 'bid': 9.46}]",100400.69999992847,1669831716999,tacos,mac & cheese,8.34,9.46,1.120000000000001,mac & cheese,611.9000000953674,613,612.9000000953674,True,i,101520.0,1119.3000000715256,1669831718118,1119,HRV,HRV_0153,2022-11-30 18:12:50
71,"[{'imgObject': {}, 'id': 'Tribe humus pita', 'src': '/static/foodstim60/Tribe humus pita.jpg', 'key': 'u', 'origWidth': 411, 'origHeight': 411, 'width': 411, 'height': 411, 'widthPercent': 0.45, 'rescaleHeight': False, 'trialN': 71, 'loaded': True, 'loadedTime': 7117.399999976158, 'positionName': 'LEFT', 'positionCoords': [203.4, 306.5], 'bid': 6.5}, {'imgObject': {}, 'id': 'sushi w_condiments', 'src': '/static/foodstim60/sushi w_condiments.jpg', 'key': 'i', 'origWidth': 410, 'origHeight': 410, 'width': 410, 'height': 410, 'widthPercent': 0.45, 'rescaleHeight': False, 'trialN': 71, 'loaded': True, 'loadedTime': 6229.699999928474, 'positionName': 'RIGHT', 'positionCoords': [665.6, 307], 'bid': 7.18}]",101520.5,1669831718118,Tribe humus pita,sushi w_condiments,6.5,7.18,0.6799999999999997,Tribe humus pita,700.1000000238419,702,701.2999999523163,True,u,102728.79999995232,1208.2999999523163,1669831719327,1209,HRV,HRV_0153,2022-11-30 18:12:50
72,"[{'imgObject': {}, 'id': 'cocktailshrimp', 'src': '/static/foodstim60/cocktailshrimp.jpg', 'key': 'u', 'origWidth': 410, 'origHeight': 410, 'width': 410, 'height': 410, 'widthPercent': 0.45, 'rescaleHeight': False, 'trialN': 72, 'loaded': True, 'loadedTime': 5756.699999928474, 'positionName': 'LEFT', 'positionCoords': [204.4, 307], 'bid': 9}, {'imgObject': {}, 'id': 'rigatoni', 'src': '/static/foodstim60/rigatoni.jpg', 'key': 'i', 'origWidth': 411, 'origHeight': 411, 'width': 411, 'height': 411, 'widthPercent': 0.45, 'rescaleHeight': False, 'trialN': 72, 'loaded': True, 'loadedTime': 7744.100000023842, 'positionName': 'RIGHT', 'positionCoords': [665.6, 306.5], 'bid': 4.3100000000000005}]",102729.39999997616,1669831719327,cocktailshrimp,rigatoni,9.0,4.3100000000000005,-4.6899999999999995,rigatoni,619.0,620,620.1000000238419,True,i,103856.79999995232,1127.3999999761581,1669831720455,1128,HRV,HRV_0153,2022-11-30 18:12:50
73,"[{'imgObject': {}, 'id': 'popsicles', 'src': '/static/foodstim60/popsicles.jpg', 'key': 'u', 'origWidth': 410, 'origHeight': 410, 'width': 410, 'height': 410, 'widthPercent': 0.45, 'rescaleHeight': False, 'trialN': 73, 'loaded': True, 'loadedTime': 7914.799999952316, 'positionName': 'LEFT', 'positionCoords': [204.4, 307], 'bid': 8.82}, {'imgObject': {}, 'id': 'cantaloupe', 'src': '/static/foodstim60/cantaloupe.jpg', 'key': 'i', 'origWidth': 409, 'origHeight': 409, 'width': 409, 'height': 409, 'widthPercent': 0.45, 'rescaleHeight': False, 'trialN': 73, 'loaded': True, 'loadedTime': 7635, 'positionName': 'RIGHT', 'positionCoords': [665.6, 307.5], 'bid': 2.7}]",103857.5,1669831720455,popsicles,cantaloupe,8.82,2.7,-6.12,popsicles,915.0,917,916.6000000238419,True,u,105280.5,1423.0,1669831721878,1423,HRV,HRV_0153,2022-11-30 18:12:50
74,"[{'imgObject': {}, 'id': 'froot loops w milk', 'src': '/static/foodstim60/froot loops w milk.jpg', 'key': 'u', 'origWidth': 410, 'origHeight': 410, 'width': 410, 'height': 410, 'widthPercent': 0.45, 'rescaleHeight': False, 'trialN': 74, 'loaded': True, 'loadedTime': 6686.600000023842, 'positionName': 'LEFT', 'positionCoords': [204.4, 307], 'bid': 8.51}, {'imgObject': {}, 'id': 'apple slices', 'src': '/static/foodstim60/apple slices.jpg', 'key': 'i', 'origWidth': 409, 'origHeight': 410, 'width': 409, 'height': 410, 'widthPercent': 0.45, 'rescaleHeight': False, 'trialN': 74, 'loaded': True, 'loadedTime': 7483.600000023842, 'positionName': 'RIGHT', 'positionCoords': [665.6, 307], 'bid': 8.51}]",105281.10000002384,1669831721879,froot loops w milk,apple slices,8.51,8.51,0.0,froot loops w milk,795.3999999761581,798,798.0,True,u,106583.39999997616,1302.2999999523163,1669831723181,1302,HRV,HRV_0153,2022-11-30 18:12:50
75,"[{'imgObject': {}, 'id': 'veggieswithdip', 'src': '/static/foodstim60/veggieswithdip.jpg', 'key': 'u', 'origWidth': 409, 'origHeight': 409, 'width': 409, 'height': 409, 'widthPercent': 0.45, 'rescaleHeight': False, 'trialN': 75, 'loaded': True, 'loadedTime': 8583.299999952316, 'positionName': 'LEFT', 'positionCoords': [205.4, 307.5], 'bid': 0.7000000000000001}, {'imgObject': {}, 'id': 'Tribe humus pita', 'src': '/static/foodstim60/Tribe humus pita.jpg', 'key': 'i', 'origWidth': 411, 'origHeight': 411, 'width': 411, 'height': 411, 'widthPercent': 0.45, 'rescaleHeight': False, 'trialN': 75, 'loaded': True, 'loadedTime': 7113.100000023842, 'positionName': 'RIGHT', 'positionCoords': [665.6, 306.5], 'bid': 6.5}]",106583.79999995232,1669831723182,veggieswithdip,Tribe humus pita,0.7000000000000001,6.5,5.8,Tribe humus pita,1229.3000000715256,1230,1230.3999999761581,True,i,108320.19999992847,1736.3999999761581,1669831724918,1736,HRV,HRV_0153,2022-11-30 18:12:50
76,"[{'imgObject': {}, 'id': 'tacos', 'src': '/static/foodstim60/tacos.jpg', 'key': 'u', 'origWidth': 411, 'origHeight': 411, 'width': 411, 'height': 411, 'widthPercent': 0.45, 'rescaleHeight': False, 'trialN': 76, 'loaded': True, 'loadedTime': 8547.699999928474, 'positionName': 'LEFT', 'positionCoords': [203.4, 306.5], 'bid': 8.34}, {'imgObject': {}, 'id': 'salad w chicken', 'src': '/static/foodstim60/salad w chicken.jpg', 'key': 'i', 'origWidth': 411, 'origHeight': 411, 'width': 411, 'height': 411, 'widthPercent': 0.45, 'rescaleHeight': False, 'trialN': 76, 'loaded': True, 'loadedTime': 7951.899999976158, 'positionName': 'RIGHT', 'positionCoords': [665.6, 306.5], 'bid': 8.5}]",108320.69999992847,1669831724919,tacos,salad w chicken,8.34,8.5,0.16000000000000014,salad w chicken,556.0,557,556.9000000953674,True,i,109384.69999992847,1064.0,1669831725983,1064,HRV,HRV_0153,2022-11-30 18:12:50
77,"[{'imgObject': {}, 'id': 'mango', 'src': '/static/foodstim60/mango.jpg', 'key': 'u', 'origWidth': 411, 'origHeight': 411, 'width': 411, 'height': 411, 'widthPercent': 0.45, 'rescaleHeight': False, 'trialN': 77, 'loaded': True, 'loadedTime': 7796.299999952316, 'positionName': 'LEFT', 'positionCoords': [203.4, 306.5], 'bid': 8.23}, {'imgObject': {}, 'id': 'turkeysandwich', 'src': '/static/foodstim60/turkeysandwich.jpg', 'key': 'i', 'origWidth': 409, 'origHeight': 409, 'width': 409, 'height': 409, 'widthPercent': 0.45, 'rescaleHeight': False, 'trialN': 77, 'loaded': True, 'loadedTime': 7516, 'positionName': 'RIGHT', 'positionCoords': [665.6, 307.5], 'bid': 8.2}]",109385.5,1669831725983,mango,turkeysandwich,8.23,8.2,-0.030000000000001137,turkeysandwich,683.0,685,684.2999999523163,True,i,110576.89999997616,1191.3999999761581,1669831727175,1192,HRV,HRV_0153,2022-11-30 18:12:50
78,"[{'imgObject': {}, 'id': 'Grapes', 'src': '/static/foodstim60/Grapes.jpg', 'key': 'u', 'origWidth': 411, 'origHeight': 411, 'width': 411, 'height': 411, 'widthPercent': 0.45, 'rescaleHeight': False, 'trialN': 78, 'loaded': True, 'loadedTime': 7584.600000023842, 'positionName': 'LEFT', 'positionCoords': [203.4, 306.5], 'bid': 9.37}, {'imgObject': {}, 'id': 'cherries', 'src': '/static/foodstim60/cherries.jpg', 'key': 'i', 'origWidth': 410, 'origHeight': 411, 'width': 410, 'height': 411, 'widthPercent': 0.45, 'rescaleHeight': False, 'trialN': 78, 'loaded': True, 'loadedTime': 5389, 'positionName': 'RIGHT', 'positionCoords': [665.6, 306.5], 'bid': 9.34}]",110577.39999997616,1669831727175,Grapes,cherries,9.37,9.34,-0.02999999999999936,Grapes,803.1000000238419,804,804.1000000238419,True,u,111888.69999992847,1311.2999999523163,1669831728487,1312,HRV,HRV_0153,2022-11-30 18:12:50
79,"[{'imgObject': {}, 'id': 'veggieswithdip', 'src': '/static/foodstim60/veggieswithdip.jpg', 'key': 'u', 'origWidth': 409, 'origHeight': 409, 'width': 409, 'height': 409, 'widthPercent': 0.45, 'rescaleHeight': False, 'trialN': 79, 'loaded': True, 'loadedTime': 8585.199999928474, 'positionName': 'LEFT', 'positionCoords': [205.4, 307.5], 'bid': 0.7000000000000001}, {'imgObject': {}, 'id': 'blackbeanswithrice', 'src': '/static/foodstim60/blackbeanswithrice.jpg', 'key': 'i', 'origWidth': 410, 'origHeight': 410, 'width': 410, 'height': 410, 'widthPercent': 0.45, 'rescaleHeight': False, 'trialN': 79, 'loaded': True, 'loadedTime': 8331.799999952316, 'positionName': 'RIGHT', 'positionCoords': [665.6, 307], 'bid': 4.6000000000000005}]",111889.29999995232,1669831728487,veggieswithdip,blackbeanswithrice,0.7000000000000001,4.6000000000000005,3.9000000000000004,blackbeanswithrice,563.2000000476837,564,564.2000000476837,True,i,112960.60000002384,1071.3000000715256,1669831729558,1071,HRV,HRV_0153,2022-11-30 18:12:50
80,"[{'imgObject': {}, 'id': 'lox', 'src': '/static/foodstim60/lox.jpg', 'key': 'u', 'origWidth': 410, 'origHeight': 411, 'width': 410, 'height': 411, 'widthPercent': 0.45, 'rescaleHeight': False, 'trialN': 80, 'loaded': True, 'loadedTime': 8579, 'positionName': 'LEFT', 'positionCoords': [204.4, 306.5], 'bid': 1.76}, {'imgObject': {}, 'id': 'eggsalad', 'src': '/static/foodstim60/eggsalad.jpg', 'key': 'i', 'origWidth': 410, 'origHeight': 409, 'width': 410, 'height': 409, 'widthPercent': 0.45, 'rescaleHeight': False, 'trialN': 80, 'loaded': True, 'loadedTime': 4774.600000023842, 'positionName': 'RIGHT', 'positionCoords': [665.6, 307.5], 'bid': 7.57}]",112961.10000002384,1669831729559,lox,eggsalad,1.76,7.57,5.8100000000000005,eggsalad,819.3999999761581,820,820.3999999761581,True,i,114288.29999995232,1327.1999999284744,1669831730886,1327,HRV,HRV_0153,2022-11-30 18:12:50
81,"[{'imgObject': {}, 'id': 'olives', 'src': '/static/foodstim60/olives.jpg', 'key': 'u', 'origWidth': 410, 'origHeight': 410, 'width': 410, 'height': 410, 'widthPercent': 0.45, 'rescaleHeight': False, 'trialN': 81, 'loaded': True, 'loadedTime': 7595.399999976158, 'positionName': 'LEFT', 'positionCoords': [204.4, 307], 'bid': 0.26}, {'imgObject': {}, 'id': 'lox', 'src': '/static/foodstim60/lox.jpg', 'key': 'i', 'origWidth': 410, 'origHeight': 411, 'width': 410, 'height': 411, 'widthPercent': 0.45, 'rescaleHeight': False, 'trialN': 81, 'loaded': True, 'loadedTime': 8577.299999952316, 'positionName': 'RIGHT', 'positionCoords': [665.6, 306.5], 'bid': 1.76}]",114288.89999997616,1669831730887,olives,lox,0.26,1.76,1.5,olives,883.7000000476837,885,884.7999999523163,True,u,115680.19999992847,1391.2999999523163,1669831732278,1391,HRV,HRV_0153,2022-11-30 18:12:50
82,"[{'imgObject': {}, 'id': 'hotdog w must', 'src': '/static/foodstim60/hotdog w must.jpg', 'key': 'u', 'origWidth': 409, 'origHeight': 409, 'width': 409, 'height': 409, 'widthPercent': 0.45, 'rescaleHeight': False, 'trialN': 82, 'loaded': True, 'loadedTime': 8298.899999976158, 'positionName': 'LEFT', 'positionCoords': [205.4, 307.5], 'bid': 9.12}, {'imgObject': {}, 'id': 'raspberries', 'src': '/static/foodstim60/raspberries.jpg', 'key': 'i', 'origWidth': 411, 'origHeight': 411, 'width': 411, 'height': 411, 'widthPercent': 0.45, 'rescaleHeight': False, 'trialN': 82, 'loaded': True, 'loadedTime': 6859.299999952316, 'positionName': 'RIGHT', 'positionCoords': [665.6, 306.5], 'bid': 9.31}]",115680.69999992847,1669831732279,hotdog w must,raspberries,9.12,9.31,0.19000000000000128,raspberries,667.9000000953674,669,668.9000000953674,True,i,116856.10000002384,1175.4000000953674,1669831733454,1175,HRV,HRV_0153,2022-11-30 18:12:50
83,"[{'imgObject': {}, 'id': 'tacos', 'src': '/static/foodstim60/tacos.jpg', 'key': 'u', 'origWidth': 411, 'origHeight': 411, 'width': 411, 'height': 411, 'widthPercent': 0.45, 'rescaleHeight': False, 'trialN': 83, 'loaded': True, 'loadedTime': 8549.299999952316, 'positionName': 'LEFT', 'positionCoords': [203.4, 306.5], 'bid': 8.34}, {'imgObject': {}, 'id': 'cheerios', 'src': '/static/foodstim60/cheerios.jpg', 'key': 'i', 'origWidth': 409, 'origHeight': 410, 'width': 409, 'height': 410, 'widthPercent': 0.45, 'rescaleHeight': False, 'trialN': 83, 'loaded': True, 'loadedTime': 7981.399999976158, 'positionName': 'RIGHT', 'positionCoords': [665.6, 307], 'bid': 8.67}]",116856.69999992847,1669831733455,tacos,cheerios,8.34,8.67,0.33000000000000007,tacos,747.8000000715256,748,748.8000000715256,True,u,118112.89999997616,1256.2000000476837,1669831734711,1256,HRV,HRV_0153,2022-11-30 18:12:50
84,"[{'imgObject': {}, 'id': 'rigatoni and sauce', 'src': '/static/foodstim60/rigatoni and sauce.jpg', 'key': 'u', 'origWidth': 410, 'origHeight': 411, 'width': 410, 'height': 411, 'widthPercent': 0.45, 'rescaleHeight': False, 'trialN': 84, 'loaded': True, 'loadedTime': 8345.699999928474, 'positionName': 'LEFT', 'positionCoords': [204.4, 306.5], 'bid': 5.28}, {'imgObject': {}, 'id': 'mashed potato', 'src': '/static/foodstim60/mashed potato.jpg', 'key': 'i', 'origWidth': 409, 'origHeight': 409, 'width': 409, 'height': 409, 'widthPercent': 0.45, 'rescaleHeight': False, 'trialN': 84, 'loaded': True, 'loadedTime': 8053.699999928474, 'positionName': 'RIGHT', 'positionCoords': [665.6, 307.5], 'bid': 5.5}]",118113.39999997616,1669831734711,rigatoni and sauce,mashed potato,5.28,5.5,0.21999999999999975,rigatoni and sauce,691.7000000476837,693,692.8999999761581,True,u,119312.89999997616,1199.5,1669831735911,1200,HRV,HRV_0153,2022-11-30 18:12:50
85,"[{'imgObject': {}, 'id': 'veggieswithdip', 'src': '/static/foodstim60/veggieswithdip.jpg', 'key': 'u', 'origWidth': 409, 'origHeight': 409, 'width': 409, 'height': 409, 'widthPercent': 0.45, 'rescaleHeight': False, 'trialN': 85, 'loaded': True, 'loadedTime': 8583.699999928474, 'positionName': 'LEFT', 'positionCoords': [205.4, 307.5], 'bid': 0.7000000000000001}, {'imgObject': {}, 'id': 'blueberries', 'src': '/static/foodstim60/blueberries.jpg', 'key': 'i', 'origWidth': 411, 'origHeight': 411, 'width': 411, 'height': 411, 'widthPercent': 0.45, 'rescaleHeight': False, 'trialN': 85, 'loaded': True, 'loadedTime': 7774.799999952316, 'positionName': 'RIGHT', 'positionCoords': [665.6, 306.5], 'bid': 8.2}]",119313.60000002384,1669831735911,veggieswithdip,blueberries,0.7000000000000001,8.2,7.499999999999999,blueberries,890.8999999761581,892,891.8999999761581,True,i,120712.5,1398.8999999761581,1669831737310,1399,HRV,HRV_0153,2022-11-30 18:12:50
86,"[{'imgObject': {}, 'id': 'hotdog w must', 'src': '/static/foodstim60/hotdog w must.jpg', 'key': 'u', 'origWidth': 409, 'origHeight': 409, 'width': 409, 'height': 409, 'widthPercent': 0.45, 'rescaleHeight': False, 'trialN': 86, 'loaded': True, 'loadedTime': 8130.5, 'positionName': 'LEFT', 'positionCoords': [205.4, 307.5], 'bid': 9.12}, {'imgObject': {}, 'id': 'Grapes', 'src': '/static/foodstim60/Grapes.jpg', 'key': 'i', 'origWidth': 411, 'origHeight': 411, 'width': 411, 'height': 411, 'widthPercent': 0.45, 'rescaleHeight': False, 'trialN': 86, 'loaded': True, 'loadedTime': 7586.399999976158, 'positionName': 'RIGHT', 'positionCoords': [665.6, 306.5], 'bid': 9.37}]",120713.0,1669831737311,hotdog w must,Grapes,9.12,9.37,0.25,hotdog w must,739.6000000238419,741,740.6999999284744,True,u,121960.19999992847,1247.1999999284744,1669831738558,1247,HRV,HRV_0153,2022-11-30 18:12:50
87,"[{'imgObject': {}, 'id': 'mac & cheese', 'src': '/static/foodstim60/mac & cheese.jpg', 'key': 'u', 'origWidth': 410, 'origHeight': 410, 'width': 410, 'height': 410, 'widthPercent': 0.45, 'rescaleHeight': False, 'trialN': 87, 'loaded': True, 'loadedTime': 7954, 'positionName': 'LEFT', 'positionCoords': [204.4, 307], 'bid': 9.46}, {'imgObject': {}, 'id': 'sweetpotato', 'src': '/static/foodstim60/sweetpotato.jpg', 'key': 'i', 'origWidth': 410, 'origHeight': 410, 'width': 410, 'height': 410, 'widthPercent': 0.45, 'rescaleHeight': False, 'trialN': 87, 'loaded': True, 'loadedTime': 7908.299999952316, 'positionName': 'RIGHT', 'positionCoords': [665.6, 307], 'bid': 9.37}]",121960.79999995232,1669831738559,mac & cheese,sweetpotato,9.46,9.37,-0.09000000000000163,mac & cheese,883.8000000715256,885,885.3000000715256,True,u,123352.10000002384,1391.3000000715256,1669831739950,1391,HRV,HRV_0153,2022-11-30 18:12:50
88,"[{'imgObject': {}, 'id': 'burger', 'src': '/static/foodstim60/burger.jpg', 'key': 'u', 'origWidth': 409, 'origHeight': 409, 'width': 409, 'height': 409, 'widthPercent': 0.45, 'rescaleHeight': False, 'trialN': 88, 'loaded': True, 'loadedTime': 6378.899999976158, 'positionName': 'LEFT', 'positionCoords': [205.4, 307.5], 'bid': 8.68}, {'imgObject': {}, 'id': 'edamame', 'src': '/static/foodstim60/edamame.jpg', 'key': 'i', 'origWidth': 409, 'origHeight': 410, 'width': 409, 'height': 410, 'widthPercent': 0.45, 'rescaleHeight': False, 'trialN': 88, 'loaded': True, 'loadedTime': 8541.199999928474, 'positionName': 'RIGHT', 'positionCoords': [665.6, 307], 'bid': 0.6}]",123352.69999992847,1669831739951,burger,edamame,8.68,0.6,-8.08,burger,836.0,837,837.0,True,u,124697.19999992847,1344.5,1669831741295,1344,HRV,HRV_0153,2022-11-30 18:12:50
89,"[{'imgObject': {}, 'id': 'ice cream sundae 002', 'src': '/static/foodstim60/ice cream sundae 002.jpg', 'key': 'u', 'origWidth': 409, 'origHeight': 409, 'width': 409, 'height': 409, 'widthPercent': 0.45, 'rescaleHeight': False, 'trialN': 89, 'loaded': True, 'loadedTime': 6735.299999952316, 'positionName': 'LEFT', 'positionCoords': [205.4, 307.5], 'bid': 9.51}, {'imgObject': {}, 'id': 'salmon', 'src': '/static/foodstim60/salmon.jpg', 'key': 'i', 'origWidth': 410, 'origHeight': 409, 'width': 410, 'height': 409, 'widthPercent': 0.45, 'rescaleHeight': False, 'trialN': 89, 'loaded': True, 'loadedTime': 7128.299999952316, 'positionName': 'RIGHT', 'positionCoords': [665.6, 307.5], 'bid': 9.56}]",124697.5,1669831741295,ice cream sundae 002,salmon,9.51,9.56,0.05000000000000071,salmon,691.0,692,692.0,True,i,125896.69999992847,1199.1999999284744,1669831742495,1200,HRV,HRV_0153,2022-11-30 18:12:50
90,"[{'imgObject': {}, 'id': 'pear', 'src': '/static/foodstim60/pear.jpg', 'key': 'u', 'origWidth': 411, 'origHeight': 410, 'width': 411, 'height': 410, 'widthPercent': 0.45, 'rescaleHeight': False, 'trialN': 90, 'loaded': True, 'loadedTime': 6726.199999928474, 'positionName': 'LEFT', 'positionCoords': [203.4, 307], 'bid': 9.43}, {'imgObject': {}, 'id': 'granola w milk', 'src': '/static/foodstim60/granola w milk.jpg', 'key': 'i', 'origWidth': 410, 'origHeight': 410, 'width': 410, 'height': 410, 'widthPercent': 0.45, 'rescaleHeight': False, 'trialN': 90, 'loaded': True, 'loadedTime': 6637.699999928474, 'positionName': 'RIGHT', 'positionCoords': [665.6, 307], 'bid': 9.6}]",244665.10000002384,1669831861263,pear,granola w milk,9.43,9.6,0.16999999999999993,pear,2459.399999976158,2461,2460.399999976158,True,u,247632.60000002384,2967.5,1669831864231,2968,HRV,HRV_0153,2022-11-30 18:12:50
91,"[{'imgObject': {}, 'id': 'grilled chicken strips', 'src': '/static/foodstim60/grilled chicken strips.jpg', 'key': 'u', 'origWidth': 410, 'origHeight': 411, 'width': 410, 'height': 411, 'widthPercent': 0.45, 'rescaleHeight': False, 'trialN': 91, 'loaded': True, 'loadedTime': 6844.100000023842, 'positionName': 'LEFT', 'positionCoords': [204.4, 306.5], 'bid': 9.23}, {'imgObject': {}, 'id': 'orange slices', 'src': '/static/foodstim60/orange slices.jpg', 'key': 'i', 'origWidth': 409, 'origHeight': 410, 'width': 409, 'height': 410, 'widthPercent': 0.45, 'rescaleHeight': False, 'trialN': 91, 'loaded': True, 'loadedTime': 8335.5, 'positionName': 'RIGHT', 'positionCoords': [665.6, 307], 'bid': 8.81}]",247633.19999992847,1669831864231,grilled chicken strips,orange slices,9.23,8.81,-0.41999999999999993,grilled chicken strips,715.3000000715256,716,716.0,True,u,248856.39999997616,1223.2000000476837,1669831865454,1223,HRV,HRV_0153,2022-11-30 18:12:50
92,"[{'imgObject': {}, 'id': 'veggieswithdip', 'src': '/static/foodstim60/veggieswithdip.jpg', 'key': 'u', 'origWidth': 409, 'origHeight': 409, 'width': 409, 'height': 409, 'widthPercent': 0.45, 'rescaleHeight': False, 'trialN': 92, 'loaded': True, 'loadedTime': 8584.899999976158, 'positionName': 'LEFT', 'positionCoords': [205.4, 307.5], 'bid': 0.7000000000000001}, {'imgObject': {}, 'id': 'bagel plain', 'src': '/static/foodstim60/bagel plain.jpg', 'key': 'i', 'origWidth': 410, 'origHeight': 410, 'width': 410, 'height': 410, 'widthPercent': 0.45, 'rescaleHeight': False, 'trialN': 92, 'loaded': True, 'loadedTime': 7623.899999976158, 'positionName': 'RIGHT', 'positionCoords': [665.6, 307], 'bid': 0.87}]",248857.0,1669831865455,veggieswithdip,bagel plain,0.7000000000000001,0.87,0.16999999999999993,bagel plain,563.6999999284744,564,564.2999999523163,True,i,249928.19999992847,1071.1999999284744,1669831866526,1071,HRV,HRV_0153,2022-11-30 18:12:50
93,"[{'imgObject': {}, 'id': 'cantaloupe', 'src': '/static/foodstim60/cantaloupe.jpg', 'key': 'u', 'origWidth': 409, 'origHeight': 409, 'width': 409, 'height': 409, 'widthPercent': 0.45, 'rescaleHeight': False, 'trialN': 93, 'loaded': True, 'loadedTime': 7640.699999928474, 'positionName': 'LEFT', 'positionCoords': [205.4, 307.5], 'bid': 2.7}, {'imgObject': {}, 'id': 'bagel plain', 'src': '/static/foodstim60/bagel plain.jpg', 'key': 'i', 'origWidth': 410, 'origHeight': 410, 'width': 410, 'height': 410, 'widthPercent': 0.45, 'rescaleHeight': False, 'trialN': 93, 'loaded': True, 'loadedTime': 7622, 'positionName': 'RIGHT', 'positionCoords': [665.6, 307], 'bid': 0.87}]",249928.69999992847,1669831866527,cantaloupe,bagel plain,2.7,0.87,-1.83,cantaloupe,619.9000000953674,620,620.6000000238419,True,u,251056.19999992847,1127.5,1669831867654,1127,HRV,HRV_0153,2022-11-30 18:12:50
94,"[{'imgObject': {}, 'id': 'popsicles', 'src': '/static/foodstim60/popsicles.jpg', 'key': 'u', 'origWidth': 410, 'origHeight': 410, 'width': 410, 'height': 410, 'widthPercent': 0.45, 'rescaleHeight': False, 'trialN': 94, 'loaded': True, 'loadedTime': 7935.899999976158, 'positionName': 'LEFT', 'positionCoords': [204.4, 307], 'bid': 8.82}, {'imgObject': {}, 'id': 'salad w chicken', 'src': '/static/foodstim60/salad w chicken.jpg', 'key': 'i', 'origWidth': 411, 'origHeight': 411, 'width': 411, 'height': 411, 'widthPercent': 0.45, 'rescaleHeight': False, 'trialN': 94, 'loaded': True, 'loadedTime': 7948.600000023842, 'positionName': 'RIGHT', 'positionCoords': [665.6, 306.5], 'bid': 8.5}]",251056.79999995232,1669831867655,popsicles,salad w chicken,8.82,8.5,-0.3200000000000003,salad w chicken,883.8999999761581,885,884.7000000476837,True,i,252448.89999997616,1392.1000000238419,1669831869047,1392,HRV,HRV_0153,2022-11-30 18:12:50
95,"[{'imgObject': {}, 'id': 'corn cob', 'src': '/static/foodstim60/corn cob.jpg', 'key': 'u', 'origWidth': 411, 'origHeight': 411, 'width': 411, 'height': 411, 'widthPercent': 0.45, 'rescaleHeight': False, 'trialN': 95, 'loaded': True, 'loadedTime': 8062.299999952316, 'positionName': 'LEFT', 'positionCoords': [203.4, 306.5], 'bid': 5.17}, {'imgObject': {}, 'id': 'rigatoni', 'src': '/static/foodstim60/rigatoni.jpg', 'key': 'i', 'origWidth': 411, 'origHeight': 411, 'width': 411, 'height': 411, 'widthPercent': 0.45, 'rescaleHeight': False, 'trialN': 95, 'loaded': True, 'loadedTime': 7745.199999928474, 'positionName': 'RIGHT', 'positionCoords': [665.6, 306.5], 'bid': 4.3100000000000005}]",252449.69999992847,1669831869048,corn cob,rigatoni,5.17,4.3100000000000005,-0.8599999999999994,rigatoni,666.8000000715256,667,667.4000000953674,True,i,253624.69999992847,1175.0,1669831870223,1175,HRV,HRV_0153,2022-11-30 18:12:50
96,"[{'imgObject': {}, 'id': 'bagel and cc', 'src': '/static/foodstim60/bagel and cc.jpg', 'key': 'u', 'origWidth': 410, 'origHeight': 410, 'width': 410, 'height': 410, 'widthPercent': 0.45, 'rescaleHeight': False, 'trialN': 96, 'loaded': True, 'loadedTime': 7609.899999976158, 'positionName': 'LEFT', 'positionCoords': [204.4, 307], 'bid': 0.48}, {'imgObject': {}, 'id': 'eggsalad', 'src': '/static/foodstim60/eggsalad.jpg', 'key': 'i', 'origWidth': 410, 'origHeight': 409, 'width': 410, 'height': 409, 'widthPercent': 0.45, 'rescaleHeight': False, 'trialN': 96, 'loaded': True, 'loadedTime': 4775.399999976158, 'positionName': 'RIGHT', 'positionCoords': [665.6, 307.5], 'bid': 7.57}]",253625.39999997616,1669831870223,bagel and cc,eggsalad,0.48,7.57,7.09,eggsalad,627.7000000476837,629,628.3999999761581,True,i,254760.69999992847,1135.2999999523163,1669831871359,1136,HRV,HRV_0153,2022-11-30 18:12:50
97,"[{'imgObject': {}, 'id': 'omelette', 'src': '/static/foodstim60/omelette.jpg', 'key': 'u', 'origWidth': 410, 'origHeight': 409, 'width': 410, 'height': 409, 'widthPercent': 0.45, 'rescaleHeight': False, 'trialN': 97, 'loaded': True, 'loadedTime': 5753.299999952316, 'positionName': 'LEFT', 'positionCoords': [204.4, 307.5], 'bid': 9.32}, {'imgObject': {}, 'id': 'baked potato', 'src': '/static/foodstim60/baked potato.jpg', 'key': 'i', 'origWidth': 409, 'origHeight': 410, 'width': 409, 'height': 410, 'widthPercent': 0.45, 'rescaleHeight': False, 'trialN': 97, 'loaded': True, 'loadedTime': 8097.899999976158, 'positionName': 'RIGHT', 'positionCoords': [665.6, 307], 'bid': 7.640000000000001}]",254761.19999992847,1669831871359,omelette,baked potato,9.32,7.640000000000001,-1.6799999999999997,baked potato,611.3000000715256,613,612.2000000476837,True,i,255880.39999997616,1119.2000000476837,1669831872479,1120,HRV,HRV_0153,2022-11-30 18:12:50
98,"[{'imgObject': {}, 'id': 'cherries', 'src': '/static/foodstim60/cherries.jpg', 'key': 'u', 'origWidth': 410, 'origHeight': 411, 'width': 410, 'height': 411, 'widthPercent': 0.45, 'rescaleHeight': False, 'trialN': 98, 'loaded': True, 'loadedTime': 5233, 'positionName': 'LEFT', 'positionCoords': [204.4, 306.5], 'bid': 9.34}, {'imgObject': {}, 'id': 'salmon', 'src': '/static/foodstim60/salmon.jpg', 'key': 'i', 'origWidth': 410, 'origHeight': 409, 'width': 410, 'height': 409, 'widthPercent': 0.45, 'rescaleHeight': False, 'trialN': 98, 'loaded': True, 'loadedTime': 7124.100000023842, 'positionName': 'RIGHT', 'positionCoords': [665.6, 307.5], 'bid': 9.56}]",255881.0,1669831872479,cherries,salmon,9.34,9.56,0.22000000000000064,salmon,795.6000000238419,796,796.2999999523163,True,i,257184.10000002384,1303.1000000238419,1669831873782,1303,HRV,HRV_0153,2022-11-30 18:12:50
99,"[{'imgObject': {}, 'id': 'granola w milk', 'src': '/static/foodstim60/granola w milk.jpg', 'key': 'u', 'origWidth': 410, 'origHeight': 410, 'width': 410, 'height': 410, 'widthPercent': 0.45, 'rescaleHeight': False, 'trialN': 99, 'loaded': True, 'loadedTime': 6677.399999976158, 'positionName': 'LEFT', 'positionCoords': [204.4, 307], 'bid': 9.6}, {'imgObject': {}, 'id': 'chicken nuggets2', 'src': '/static/foodstim60/chicken nuggets2.jpg', 'key': 'i', 'origWidth': 410, 'origHeight': 409, 'width': 410, 'height': 409, 'widthPercent': 0.45, 'rescaleHeight': False, 'trialN': 99, 'loaded': True, 'loadedTime': 5507.699999928474, 'positionName': 'RIGHT', 'positionCoords': [665.6, 307.5], 'bid': 9.56}]",257184.60000002384,1669831873783,granola w milk,chicken nuggets2,9.6,9.56,-0.03999999999999915,chicken nuggets2,484.0,485,485.09999990463257,True,i,258175.19999992847,990.5999999046326,1669831874773,990,HRV,HRV_0153,2022-11-30 18:12:50
100,"[{'imgObject': {}, 'id': 'popsicles', 'src': '/static/foodstim60/popsicles.jpg', 'key': 'u', 'origWidth': 410, 'origHeight': 410, 'width': 410, 'height': 410, 'widthPercent': 0.45, 'rescaleHeight': False, 'trialN': 100, 'loaded': True, 'loadedTime': 7930.600000023842, 'positionName': 'LEFT', 'positionCoords': [204.4, 307], 'bid': 8.82}, {'imgObject': {}, 'id': 'orange slices', 'src': '/static/foodstim60/orange slices.jpg', 'key': 'i', 'origWidth': 409, 'origHeight': 410, 'width': 409, 'height': 410, 'widthPercent': 0.45, 'rescaleHeight': False, 'trialN': 100, 'loaded': True, 'loadedTime': 8335.799999952316, 'positionName': 'RIGHT', 'positionCoords': [665.6, 307], 'bid': 8.81}]",258175.69999992847,1669831874774,popsicles,orange slices,8.82,8.81,-0.009999999999999787,orange slices,621.1000000238419,622,622.2000000476837,True,i,259305.0,1129.3000000715256,1669831875903,1129,HRV,HRV_0153,2022-11-30 18:12:50
101,"[{'imgObject': {}, 'id': 'kiwi', 'src': '/static/foodstim60/kiwi.jpg', 'key': 'u', 'origWidth': 410, 'origHeight': 410, 'width': 410, 'height': 410, 'widthPercent': 0.45, 'rescaleHeight': False, 'trialN': 101, 'loaded': True, 'loadedTime': 6927.899999976158, 'positionName': 'LEFT', 'positionCoords': [204.4, 307], 'bid': 8.45}, {'imgObject': {}, 'id': 'orange slices', 'src': '/static/foodstim60/orange slices.jpg', 'key': 'i', 'origWidth': 409, 'origHeight': 410, 'width': 409, 'height': 410, 'widthPercent': 0.45, 'rescaleHeight': False, 'trialN': 101, 'loaded': True, 'loadedTime': 8336, 'positionName': 'RIGHT', 'positionCoords': [665.6, 307], 'bid': 8.81}]",259305.69999992847,1669831875904,kiwi,orange slices,8.45,8.81,0.3600000000000012,orange slices,690.9000000953674,693,693.3000000715256,True,i,260505.69999992847,1200.0,1669831877104,1200,HRV,HRV_0153,2022-11-30 18:12:50
102,"[{'imgObject': {}, 'id': 'banana', 'src': '/static/foodstim60/banana.jpg', 'key': 'u', 'origWidth': 410, 'origHeight': 410, 'width': 410, 'height': 410, 'widthPercent': 0.45, 'rescaleHeight': False, 'trialN': 102, 'loaded': True, 'loadedTime': 6911.600000023842, 'positionName': 'LEFT', 'positionCoords': [204.4, 307], 'bid': 7.65}, {'imgObject': {}, 'id': 'eggsalad', 'src': '/static/foodstim60/eggsalad.jpg', 'key': 'i', 'origWidth': 410, 'origHeight': 409, 'width': 410, 'height': 409, 'widthPercent': 0.45, 'rescaleHeight': False, 'trialN': 102, 'loaded': True, 'loadedTime': 4776.199999928474, 'positionName': 'RIGHT', 'positionCoords': [665.6, 307.5], 'bid': 7.57}]",260506.19999992847,1669831877104,banana,eggsalad,7.65,7.57,-0.08000000000000007,eggsalad,610.3000000715256,612,611.3000000715256,True,i,261624.60000002384,1118.4000000953674,1669831878223,1119,HRV,HRV_0153,2022-11-30 18:12:50
103,"[{'imgObject': {}, 'id': 'luckycharms', 'src': '/static/foodstim60/luckycharms.jpg', 'key': 'u', 'origWidth': 410, 'origHeight': 409, 'width': 410, 'height': 409, 'widthPercent': 0.45, 'rescaleHeight': False, 'trialN': 103, 'loaded': True, 'loadedTime': 5652.100000023842, 'positionName': 'LEFT', 'positionCoords': [204.4, 307.5], 'bid': 9.4}, {'imgObject': {}, 'id': 'chicken nuggets2', 'src': '/static/foodstim60/chicken nuggets2.jpg', 'key': 'i', 'origWidth': 410, 'origHeight': 409, 'width': 410, 'height': 409, 'widthPercent': 0.45, 'rescaleHeight': False, 'trialN': 103, 'loaded': True, 'loadedTime': 5394, 'positionName': 'RIGHT', 'positionCoords': [665.6, 307.5], 'bid': 9.56}]",261625.19999992847,1669831878223,luckycharms,chicken nuggets2,9.4,9.56,0.16000000000000014,chicken nuggets2,467.3000000715256,469,468.40000009536743,True,i,262600.60000002384,975.4000000953674,1669831879199,976,HRV,HRV_0153,2022-11-30 18:12:50
104,"[{'imgObject': {}, 'id': 'hotdog w must', 'src': '/static/foodstim60/hotdog w must.jpg', 'key': 'u', 'origWidth': 409, 'origHeight': 409, 'width': 409, 'height': 409, 'widthPercent': 0.45, 'rescaleHeight': False, 'trialN': 104, 'loaded': True, 'loadedTime': 8130.299999952316, 'positionName': 'LEFT', 'positionCoords': [205.4, 307.5], 'bid': 9.12}, {'imgObject': {}, 'id': 'mac & cheese', 'src': '/static/foodstim60/mac & cheese.jpg', 'key': 'i', 'origWidth': 410, 'origHeight': 410, 'width': 410, 'height': 410, 'widthPercent': 0.45, 'rescaleHeight': False, 'trialN': 104, 'loaded': True, 'loadedTime': 7980.100000023842, 'positionName': 'RIGHT', 'positionCoords': [665.6, 307], 'bid': 9.46}]",262601.10000002384,1669831879199,hotdog w must,mac & cheese,9.12,9.46,0.34000000000000163,mac & cheese,707.3999999761581,709,708.2999999523163,True,i,263816.2999999523,1215.1999999284744,1669831880414,1215,HRV,HRV_0153,2022-11-30 18:12:50
105,"[{'imgObject': {}, 'id': 'sweetpotato', 'src': '/static/foodstim60/sweetpotato.jpg', 'key': 'u', 'origWidth': 410, 'origHeight': 410, 'width': 410, 'height': 410, 'widthPercent': 0.45, 'rescaleHeight': False, 'trialN': 105, 'loaded': True, 'loadedTime': 7802.5, 'positionName': 'LEFT', 'positionCoords': [204.4, 307], 'bid': 9.37}, {'imgObject': {}, 'id': 'granola w milk', 'src': '/static/foodstim60/granola w milk.jpg', 'key': 'i', 'origWidth': 410, 'origHeight': 410, 'width': 410, 'height': 410, 'widthPercent': 0.45, 'rescaleHeight': False, 'trialN': 105, 'loaded': True, 'loadedTime': 6676.199999928474, 'positionName': 'RIGHT', 'positionCoords': [665.6, 307], 'bid': 9.6}]",263816.7999999523,1669831880415,sweetpotato,granola w milk,9.37,9.6,0.23000000000000043,sweetpotato,996.3999999761581,997,997.3999999761581,True,u,265320.1999999285,1503.3999999761581,1669831881918,1503,HRV,HRV_0153,2022-11-30 18:12:50
106,"[{'imgObject': {}, 'id': 'raisin bran w milk', 'src': '/static/foodstim60/raisin bran w milk.jpg', 'key': 'u', 'origWidth': 411, 'origHeight': 411, 'width': 411, 'height': 411, 'widthPercent': 0.45, 'rescaleHeight': False, 'trialN': 106, 'loaded': True, 'loadedTime': 7120.799999952316, 'positionName': 'LEFT', 'positionCoords': [203.4, 306.5], 'bid': 9.23}, {'imgObject': {}, 'id': 'mashed potato', 'src': '/static/foodstim60/mashed potato.jpg', 'key': 'i', 'origWidth': 409, 'origHeight': 409, 'width': 409, 'height': 409, 'widthPercent': 0.45, 'rescaleHeight': False, 'trialN': 106, 'loaded': True, 'loadedTime': 8052.299999952316, 'positionName': 'RIGHT', 'positionCoords': [665.6, 307.5], 'bid': 5.5}]",265320.7999999523,1669831881919,raisin bran w milk,mashed potato,9.23,5.5,-3.7300000000000004,mashed potato,683.8000000715256,685,684.8999999761581,True,i,266513.10000002384,1192.3000000715256,1669831883111,1192,HRV,HRV_0153,2022-11-30 18:12:50
107,"[{'imgObject': {}, 'id': 'salmon', 'src': '/static/foodstim60/salmon.jpg', 'key': 'u', 'origWidth': 410, 'origHeight': 409, 'width': 410, 'height': 409, 'widthPercent': 0.45, 'rescaleHeight': False, 'trialN': 107, 'loaded': True, 'loadedTime': 7126.699999928474, 'positionName': 'LEFT', 'positionCoords': [204.4, 307.5], 'bid': 9.56}, {'imgObject': {}, 'id': 'apple slices', 'src': '/static/foodstim60/apple slices.jpg', 'key': 'i', 'origWidth': 409, 'origHeight': 410, 'width': 409, 'height': 410, 'widthPercent': 0.45, 'rescaleHeight': False, 'trialN': 107, 'loaded': True, 'loadedTime': 7483.299999952316, 'positionName': 'RIGHT', 'positionCoords': [665.6, 307], 'bid': 8.51}]",266513.6999999285,1669831883112,salmon,apple slices,9.56,8.51,-1.0500000000000007,apple slices,962.9000000953674,964,964.0,True,i,267985.10000002384,1471.4000000953674,1669831884583,1471,HRV,HRV_0153,2022-11-30 18:12:50
108,"[{'imgObject': {}, 'id': 'bagel plain', 'src': '/static/foodstim60/bagel plain.jpg', 'key': 'u', 'origWidth': 410, 'origHeight': 410, 'width': 410, 'height': 410, 'widthPercent': 0.45, 'rescaleHeight': False, 'trialN': 108, 'loaded': True, 'loadedTime': 7627.299999952316, 'positionName': 'LEFT', 'positionCoords': [204.4, 307], 'bid': 0.87}, {'imgObject': {}, 'id': 'sushi w_condiments', 'src': '/static/foodstim60/sushi w_condiments.jpg', 'key': 'i', 'origWidth': 410, 'origHeight': 410, 'width': 410, 'height': 410, 'widthPercent': 0.45, 'rescaleHeight': False, 'trialN': 108, 'loaded': True, 'loadedTime': 6230.899999976158, 'positionName': 'RIGHT', 'positionCoords': [665.6, 307], 'bid': 7.18}]",267985.6999999285,1669831884584,bagel plain,sushi w_condiments,0.87,7.18,6.31,sushi w_condiments,626.8000000715256,628,627.8000000715256,True,i,269120.6999999285,1135.0,1669831885719,1135,HRV,HRV_0153,2022-11-30 18:12:50
