trialN,stimuli,question,trialStartTime,trialStartTime_UNIX,stimulus1,rt,receivedResponse,rating,trialEndTime,trialDuration,stimulus1Loaded,exp,subjectId,date
0,"[{'imgObject': {}, 'id': 'bagel and cc', 'src': '/static/foodstim60/bagel and cc.jpg', 'key': 'NaN', 'origWidth': 410, 'origHeight': 410, 'width': 410, 'height': 410, 'widthPercent': 0.8, 'rescaleHeight': True, 'trialN': 0, 'loaded': True, 'loadedTime': 3379.5, 'positionName': 'CENTER', 'positionCoords': [435, 307]}]",Rate how much you want to eat this food from 0 (least) to 10 (most).,5200.5,1669831377996,bagel and cc,5158.099999904633,True,0.8200000000000001,10358.599999904633,5158.099999904633,True,HRV,HRV_0153,2022-11-30 18:04:20
1,"[{'imgObject': {}, 'id': 'bagel plain', 'src': '/static/foodstim60/bagel plain.jpg', 'key': 'NaN', 'origWidth': 410, 'origHeight': 410, 'width': 410, 'height': 410, 'widthPercent': 0.8, 'rescaleHeight': True, 'trialN': 1, 'loaded': True, 'loadedTime': 3385.7999999523163, 'positionName': 'CENTER', 'positionCoords': [435, 307]}]",Rate how much you want to eat this food from 0 (least) to 10 (most).,10364.5,1669831383160,bagel plain,2730.2999999523163,True,0.81,13094.799999952316,2730.2999999523163,True,HRV,HRV_0153,2022-11-30 18:04:20
2,"[{'imgObject': {}, 'id': 'sweetpotato', 'src': '/static/foodstim60/sweetpotato.jpg', 'key': 'NaN', 'origWidth': 410, 'origHeight': 410, 'width': 410, 'height': 410, 'widthPercent': 0.8, 'rescaleHeight': True, 'trialN': 2, 'loaded': True, 'loadedTime': 3573.899999976158, 'positionName': 'CENTER', 'positionCoords': [435, 307]}]",Rate how much you want to eat this food from 0 (least) to 10 (most).,13097.299999952316,1669831385893,sweetpotato,2701.399999976158,True,5.26,15798.699999928474,2701.399999976158,True,HRV,HRV_0153,2022-11-30 18:04:20
3,"[{'imgObject': {}, 'id': 'chicken nuggets2', 'src': '/static/foodstim60/chicken nuggets2.jpg', 'key': 'NaN', 'origWidth': 410, 'origHeight': 409, 'width': 410, 'height': 409, 'widthPercent': 0.8, 'rescaleHeight': True, 'trialN': 3, 'loaded': True, 'loadedTime': 3440.899999976158, 'positionName': 'CENTER', 'positionCoords': [435, 307.5]}]",Rate how much you want to eat this food from 0 (least) to 10 (most).,15801.199999928474,1669831388597,chicken nuggets2,1365.3999999761581,True,9.450000000000001,17166.599999904633,1365.3999999761581,True,HRV,HRV_0153,2022-11-30 18:04:20
4,"[{'imgObject': {}, 'id': 'Grapes', 'src': '/static/foodstim60/Grapes.jpg', 'key': 'NaN', 'origWidth': 411, 'origHeight': 411, 'width': 411, 'height': 411, 'widthPercent': 0.8, 'rescaleHeight': True, 'trialN': 4, 'loaded': True, 'loadedTime': 3393, 'positionName': 'CENTER', 'positionCoords': [434.5, 306.5]}]",Rate how much you want to eat this food from 0 (least) to 10 (most).,17169.5,1669831389965,Grapes,997.1999999284744,True,9.59,18166.699999928474,997.1999999284744,True,HRV,HRV_0153,2022-11-30 18:04:20
5,"[{'imgObject': {}, 'id': 'rigatoni', 'src': '/static/foodstim60/rigatoni.jpg', 'key': 'NaN', 'origWidth': 411, 'origHeight': 411, 'width': 411, 'height': 411, 'widthPercent': 0.8, 'rescaleHeight': True, 'trialN': 5, 'loaded': True, 'loadedTime': 3399.1999999284744, 'positionName': 'CENTER', 'positionCoords': [434.5, 306.5]}]",Rate how much you want to eat this food from 0 (least) to 10 (most).,18169.899999976158,1669831390966,rigatoni,1652.8999999761581,True,1.67,19822.799999952316,1652.8999999761581,True,HRV,HRV_0153,2022-11-30 18:04:20
6,"[{'imgObject': {}, 'id': 'baked potato', 'src': '/static/foodstim60/baked potato.jpg', 'key': 'NaN', 'origWidth': 409, 'origHeight': 410, 'width': 409, 'height': 410, 'widthPercent': 0.8, 'rescaleHeight': True, 'trialN': 6, 'loaded': True, 'loadedTime': 3601.0999999046326, 'positionName': 'CENTER', 'positionCoords': [435.5, 307]}]",Rate how much you want to eat this food from 0 (least) to 10 (most).,19825.299999952316,1669831392621,baked potato,1221.5,True,9.14,21046.799999952316,1221.5,True,HRV,HRV_0153,2022-11-30 18:04:20
7,"[{'imgObject': {}, 'id': 'hotdog w must', 'src': '/static/foodstim60/hotdog w must.jpg', 'key': 'NaN', 'origWidth': 409, 'origHeight': 409, 'width': 409, 'height': 409, 'widthPercent': 0.8, 'rescaleHeight': True, 'trialN': 7, 'loaded': True, 'loadedTime': 3696.2999999523163, 'positionName': 'CENTER', 'positionCoords': [435.5, 307.5]}]",Rate how much you want to eat this food from 0 (least) to 10 (most).,21049.399999976158,1669831393845,hotdog w must,1949.3999999761581,True,8.540000000000001,22998.799999952316,1949.3999999761581,True,HRV,HRV_0153,2022-11-30 18:04:20
8,"[{'imgObject': {}, 'id': 'fried eggs', 'src': '/static/foodstim60/fried eggs.jpg', 'key': 'NaN', 'origWidth': 410, 'origHeight': 410, 'width': 410, 'height': 410, 'widthPercent': 0.8, 'rescaleHeight': True, 'trialN': 8, 'loaded': True, 'loadedTime': 3594.399999976158, 'positionName': 'CENTER', 'positionCoords': [435, 307]}]",Rate how much you want to eat this food from 0 (least) to 10 (most).,23002.0,1669831395798,fried eggs,1093.8999999761581,True,9.09,24095.899999976158,1093.8999999761581,True,HRV,HRV_0153,2022-11-30 18:04:20
9,"[{'imgObject': {}, 'id': 'rigatoni and sauce', 'src': '/static/foodstim60/rigatoni and sauce.jpg', 'key': 'NaN', 'origWidth': 410, 'origHeight': 411, 'width': 410, 'height': 411, 'widthPercent': 0.8, 'rescaleHeight': True, 'trialN': 9, 'loaded': True, 'loadedTime': 3597.6999999284744, 'positionName': 'CENTER', 'positionCoords': [435, 306.5]}]",Rate how much you want to eat this food from 0 (least) to 10 (most).,24103.099999904633,1669831396899,rigatoni and sauce,1623.5,True,6.78,25726.599999904633,1623.5,True,HRV,HRV_0153,2022-11-30 18:04:20
10,"[{'imgObject': {}, 'id': 'raisin bran w milk', 'src': '/static/foodstim60/raisin bran w milk.jpg', 'key': 'NaN', 'origWidth': 411, 'origHeight': 411, 'width': 411, 'height': 411, 'widthPercent': 0.8, 'rescaleHeight': True, 'trialN': 10, 'loaded': True, 'loadedTime': 3753.5, 'positionName': 'CENTER', 'positionCoords': [434.5, 306.5]}]",Rate how much you want to eat this food from 0 (least) to 10 (most).,25730.099999904633,1669831398526,raisin bran w milk,1268.5,True,8.31,26998.599999904633,1268.5,True,HRV,HRV_0153,2022-11-30 18:04:20
11,"[{'imgObject': {}, 'id': 'burger', 'src': '/static/foodstim60/burger.jpg', 'key': 'NaN', 'origWidth': 409, 'origHeight': 409, 'width': 409, 'height': 409, 'widthPercent': 0.8, 'rescaleHeight': True, 'trialN': 11, 'loaded': True, 'loadedTime': 3756.2999999523163, 'positionName': 'CENTER', 'positionCoords': [435.5, 307.5]}]",Rate how much you want to eat this food from 0 (least) to 10 (most).,27002.0,1669831399798,burger,1340.6999999284744,True,9.42,28342.699999928474,1340.6999999284744,True,HRV,HRV_0153,2022-11-30 18:04:20
12,"[{'imgObject': {}, 'id': 'edamame', 'src': '/static/foodstim60/edamame.jpg', 'key': 'NaN', 'origWidth': 409, 'origHeight': 410, 'width': 409, 'height': 410, 'widthPercent': 0.8, 'rescaleHeight': True, 'trialN': 12, 'loaded': True, 'loadedTime': 3833.899999976158, 'positionName': 'CENTER', 'positionCoords': [435.5, 307]}]",Rate how much you want to eat this food from 0 (least) to 10 (most).,28345.199999928474,1669831401141,edamame,1565.3999999761581,True,1.78,29910.599999904633,1565.3999999761581,True,HRV,HRV_0153,2022-11-30 18:04:20
13,"[{'imgObject': {}, 'id': 'raspberries', 'src': '/static/foodstim60/raspberries.jpg', 'key': 'NaN', 'origWidth': 411, 'origHeight': 411, 'width': 411, 'height': 411, 'widthPercent': 0.8, 'rescaleHeight': True, 'trialN': 13, 'loaded': True, 'loadedTime': 3816.2999999523163, 'positionName': 'CENTER', 'positionCoords': [434.5, 306.5]}]",Rate how much you want to eat this food from 0 (least) to 10 (most).,29913.899999976158,1669831402710,raspberries,1364.7999999523163,True,9.76,31278.699999928474,1364.7999999523163,True,HRV,HRV_0153,2022-11-30 18:04:20
14,"[{'imgObject': {}, 'id': 'orange slices', 'src': '/static/foodstim60/orange slices.jpg', 'key': 'NaN', 'origWidth': 409, 'origHeight': 410, 'width': 409, 'height': 410, 'widthPercent': 0.8, 'rescaleHeight': True, 'trialN': 14, 'loaded': True, 'loadedTime': 3856.5999999046326, 'positionName': 'CENTER', 'positionCoords': [435.5, 307]}]",Rate how much you want to eat this food from 0 (least) to 10 (most).,31282.699999928474,1669831404079,orange slices,1020.0,True,9.65,32302.699999928474,1020.0,True,HRV,HRV_0153,2022-11-30 18:04:20
15,"[{'imgObject': {}, 'id': 'omelette', 'src': '/static/foodstim60/omelette.jpg', 'key': 'NaN', 'origWidth': 410, 'origHeight': 409, 'width': 410, 'height': 409, 'widthPercent': 0.8, 'rescaleHeight': True, 'trialN': 15, 'loaded': True, 'loadedTime': 3859.1999999284744, 'positionName': 'CENTER', 'positionCoords': [435, 307.5]}]",Rate how much you want to eat this food from 0 (least) to 10 (most).,32305.099999904633,1669831405101,omelette,1229.5,True,9.43,33534.59999990463,1229.5,True,HRV,HRV_0153,2022-11-30 18:04:20
16,"[{'imgObject': {}, 'id': 'luckycharms', 'src': '/static/foodstim60/luckycharms.jpg', 'key': 'NaN', 'origWidth': 410, 'origHeight': 409, 'width': 410, 'height': 409, 'widthPercent': 0.8, 'rescaleHeight': True, 'trialN': 16, 'loaded': True, 'loadedTime': 3997.1999999284744, 'positionName': 'CENTER', 'positionCoords': [435, 307.5]}]",Rate how much you want to eat this food from 0 (least) to 10 (most).,33536.699999928474,1669831406333,luckycharms,1013.8999999761581,True,9.57,34550.59999990463,1013.8999999761581,True,HRV,HRV_0153,2022-11-30 18:04:20
17,"[{'imgObject': {}, 'id': 'lox', 'src': '/static/foodstim60/lox.jpg', 'key': 'NaN', 'origWidth': 410, 'origHeight': 411, 'width': 410, 'height': 411, 'widthPercent': 0.8, 'rescaleHeight': True, 'trialN': 17, 'loaded': True, 'loadedTime': 3866.1999999284744, 'positionName': 'CENTER', 'positionCoords': [435, 306.5]}]",Rate how much you want to eat this food from 0 (least) to 10 (most).,34552.799999952316,1669831407349,lox,1853.8999999761581,True,1.76,36406.699999928474,1853.8999999761581,True,HRV,HRV_0153,2022-11-30 18:04:20
18,"[{'imgObject': {}, 'id': 'cheerios', 'src': '/static/foodstim60/cheerios.jpg', 'key': 'NaN', 'origWidth': 409, 'origHeight': 410, 'width': 409, 'height': 410, 'widthPercent': 0.8, 'rescaleHeight': True, 'trialN': 18, 'loaded': True, 'loadedTime': 4038.2999999523163, 'positionName': 'CENTER', 'positionCoords': [435.5, 307]}]",Rate how much you want to eat this food from 0 (least) to 10 (most).,36409.09999990463,1669831409205,cheerios,1133.8000000715256,True,9.32,37542.89999997616,1133.8000000715256,True,HRV,HRV_0153,2022-11-30 18:04:20
19,"[{'imgObject': {}, 'id': 'eggs', 'src': '/static/foodstim60/eggs.jpg', 'key': 'NaN', 'origWidth': 409, 'origHeight': 409, 'width': 409, 'height': 409, 'widthPercent': 0.8, 'rescaleHeight': True, 'trialN': 19, 'loaded': True, 'loadedTime': 4044.1999999284744, 'positionName': 'CENTER', 'positionCoords': [435.5, 307.5]}]",Rate how much you want to eat this food from 0 (least) to 10 (most).,37545.39999997616,1669831410341,eggs,1197.3999999761581,True,9.540000000000001,38742.799999952316,1197.3999999761581,True,HRV,HRV_0153,2022-11-30 18:04:20
20,"[{'imgObject': {}, 'id': 'roastedpotatoes', 'src': '/static/foodstim60/roastedpotatoes.jpg', 'key': 'NaN', 'origWidth': 409, 'origHeight': 410, 'width': 409, 'height': 410, 'widthPercent': 0.8, 'rescaleHeight': True, 'trialN': 20, 'loaded': True, 'loadedTime': 4053.5999999046326, 'positionName': 'CENTER', 'positionCoords': [435.5, 307]}]",Rate how much you want to eat this food from 0 (least) to 10 (most).,38745.699999928474,1669831411542,roastedpotatoes,1141.0,True,9.42,39886.699999928474,1141.0,True,HRV,HRV_0153,2022-11-30 18:04:20
21,"[{'imgObject': {}, 'id': 'burrito', 'src': '/static/foodstim60/burrito.jpg', 'key': 'NaN', 'origWidth': 410, 'origHeight': 410, 'width': 410, 'height': 410, 'widthPercent': 0.8, 'rescaleHeight': True, 'trialN': 21, 'loaded': True, 'loadedTime': 4058.899999976158, 'positionName': 'CENTER', 'positionCoords': [435, 307]}]",Rate how much you want to eat this food from 0 (least) to 10 (most).,39890.39999997616,1669831412686,burrito,1020.1999999284744,True,9.21,40910.59999990463,1020.1999999284744,True,HRV,HRV_0153,2022-11-30 18:04:20
22,"[{'imgObject': {}, 'id': 'banana', 'src': '/static/foodstim60/banana.jpg', 'key': 'NaN', 'origWidth': 410, 'origHeight': 410, 'width': 410, 'height': 410, 'widthPercent': 0.8, 'rescaleHeight': True, 'trialN': 22, 'loaded': True, 'loadedTime': 4046.6999999284744, 'positionName': 'CENTER', 'positionCoords': [435, 307]}]",Rate how much you want to eat this food from 0 (least) to 10 (most).,40912.89999997616,1669831413709,banana,1021.7999999523163,True,7.95,41934.699999928474,1021.7999999523163,True,HRV,HRV_0153,2022-11-30 18:04:20
23,"[{'imgObject': {}, 'id': 'mac & cheese', 'src': '/static/foodstim60/mac & cheese.jpg', 'key': 'NaN', 'origWidth': 410, 'origHeight': 410, 'width': 410, 'height': 410, 'widthPercent': 0.8, 'rescaleHeight': True, 'trialN': 23, 'loaded': True, 'loadedTime': 4154.599999904633, 'positionName': 'CENTER', 'positionCoords': [435, 307]}]",Rate how much you want to eat this food from 0 (least) to 10 (most).,41937.299999952316,1669831414733,mac & cheese,1957.2999999523163,True,9.65,43894.59999990463,1957.2999999523163,True,HRV,HRV_0153,2022-11-30 18:04:20
24,"[{'imgObject': {}, 'id': 'granola w milk', 'src': '/static/foodstim60/granola w milk.jpg', 'key': 'NaN', 'origWidth': 410, 'origHeight': 410, 'width': 410, 'height': 410, 'widthPercent': 0.8, 'rescaleHeight': True, 'trialN': 24, 'loaded': True, 'loadedTime': 4172.699999928474, 'positionName': 'CENTER', 'positionCoords': [435, 307]}]",Rate how much you want to eat this food from 0 (least) to 10 (most).,43897.09999990463,1669831416693,granola w milk,1149.6000000238419,True,9.65,45046.699999928474,1149.6000000238419,True,HRV,HRV_0153,2022-11-30 18:04:20
25,"[{'imgObject': {}, 'id': 'fruitsalad', 'src': '/static/foodstim60/fruitsalad.jpg', 'key': 'NaN', 'origWidth': 410, 'origHeight': 410, 'width': 410, 'height': 410, 'widthPercent': 0.8, 'rescaleHeight': True, 'trialN': 25, 'loaded': True, 'loadedTime': 4192.299999952316, 'positionName': 'CENTER', 'positionCoords': [435, 307]}]",Rate how much you want to eat this food from 0 (least) to 10 (most).,45049.5,1669831417846,fruitsalad,1165.1999999284744,True,9.620000000000001,46214.699999928474,1165.1999999284744,True,HRV,HRV_0153,2022-11-30 18:04:20
26,"[{'imgObject': {}, 'id': 'shreddedwheatwithmilk', 'src': '/static/foodstim60/shreddedwheatwithmilk.jpg', 'key': 'NaN', 'origWidth': 410, 'origHeight': 410, 'width': 410, 'height': 410, 'widthPercent': 0.8, 'rescaleHeight': True, 'trialN': 26, 'loaded': True, 'loadedTime': 4200, 'positionName': 'CENTER', 'positionCoords': [435, 307]}]",Rate how much you want to eat this food from 0 (least) to 10 (most).,46217.5,1669831419014,shreddedwheatwithmilk,965.0999999046326,True,9.450000000000001,47182.59999990463,965.0999999046326,True,HRV,HRV_0153,2022-11-30 18:04:20
27,"[{'imgObject': {}, 'id': 'grilled chicken strips', 'src': '/static/foodstim60/grilled chicken strips.jpg', 'key': 'NaN', 'origWidth': 410, 'origHeight': 411, 'width': 410, 'height': 411, 'widthPercent': 0.8, 'rescaleHeight': True, 'trialN': 27, 'loaded': True, 'loadedTime': 4203.699999928474, 'positionName': 'CENTER', 'positionCoords': [435, 306.5]}]",Rate how much you want to eat this food from 0 (least) to 10 (most).,47185.799999952316,1669831419982,grilled chicken strips,964.8999999761581,True,9.4,48150.699999928474,964.8999999761581,True,HRV,HRV_0153,2022-11-30 18:04:20
28,"[{'imgObject': {}, 'id': 'steak', 'src': '/static/foodstim60/steak.jpg', 'key': 'NaN', 'origWidth': 410, 'origHeight': 410, 'width': 410, 'height': 410, 'widthPercent': 0.8, 'rescaleHeight': True, 'trialN': 28, 'loaded': True, 'loadedTime': 4267.099999904633, 'positionName': 'CENTER', 'positionCoords': [435, 307]}]",Rate how much you want to eat this food from 0 (least) to 10 (most).,48153.5,1669831420949,steak,965.1999999284744,True,9.51,49118.699999928474,965.1999999284744,True,HRV,HRV_0153,2022-11-30 18:04:20
29,"[{'imgObject': {}, 'id': 'eggsalad', 'src': '/static/foodstim60/eggsalad.jpg', 'key': 'NaN', 'origWidth': 410, 'origHeight': 409, 'width': 410, 'height': 409, 'widthPercent': 0.8, 'rescaleHeight': True, 'trialN': 29, 'loaded': True, 'loadedTime': 4390.799999952316, 'positionName': 'CENTER', 'positionCoords': [435, 307.5]}]",Rate how much you want to eat this food from 0 (least) to 10 (most).,49121.199999928474,1669831421917,eggsalad,925.5,True,9.51,50046.699999928474,925.5,True,HRV,HRV_0153,2022-11-30 18:04:20
30,"[{'imgObject': {}, 'id': 'salmon', 'src': '/static/foodstim60/salmon.jpg', 'key': 'NaN', 'origWidth': 410, 'origHeight': 409, 'width': 410, 'height': 409, 'widthPercent': 0.8, 'rescaleHeight': True, 'trialN': 30, 'loaded': True, 'loadedTime': 4393.599999904633, 'positionName': 'CENTER', 'positionCoords': [435, 307.5]}]",Rate how much you want to eat this food from 0 (least) to 10 (most).,50049.699999928474,1669831422846,salmon,661.0,True,9.51,50710.699999928474,661.0,True,HRV,HRV_0153,2022-11-30 18:04:20
31,"[{'imgObject': {}, 'id': 'turkeysandwich', 'src': '/static/foodstim60/turkeysandwich.jpg', 'key': 'NaN', 'origWidth': 409, 'origHeight': 409, 'width': 409, 'height': 409, 'widthPercent': 0.8, 'rescaleHeight': True, 'trialN': 31, 'loaded': True, 'loadedTime': 4397.5, 'positionName': 'CENTER', 'positionCoords': [435.5, 307.5]}]",Rate how much you want to eat this food from 0 (least) to 10 (most).,50713.89999997616,1669831423510,turkeysandwich,2236.899999976158,True,9.4,52950.799999952316,2236.899999976158,True,HRV,HRV_0153,2022-11-30 18:04:20
32,"[{'imgObject': {}, 'id': 'blackbeanswithrice', 'src': '/static/foodstim60/blackbeanswithrice.jpg', 'key': 'NaN', 'origWidth': 410, 'origHeight': 410, 'width': 410, 'height': 410, 'widthPercent': 0.8, 'rescaleHeight': True, 'trialN': 32, 'loaded': True, 'loadedTime': 4411.799999952316, 'positionName': 'CENTER', 'positionCoords': [435, 307]}]",Rate how much you want to eat this food from 0 (least) to 10 (most).,52953.699999928474,1669831425750,blackbeanswithrice,1725.0,True,5.75,54678.699999928474,1725.0,True,HRV,HRV_0153,2022-11-30 18:04:20
33,"[{'imgObject': {}, 'id': 'sushi w_condiments', 'src': '/static/foodstim60/sushi w_condiments.jpg', 'key': 'NaN', 'origWidth': 410, 'origHeight': 410, 'width': 410, 'height': 410, 'widthPercent': 0.8, 'rescaleHeight': True, 'trialN': 33, 'loaded': True, 'loadedTime': 4400.399999976158, 'positionName': 'CENTER', 'positionCoords': [435, 307]}]",Rate how much you want to eat this food from 0 (least) to 10 (most).,54681.09999990463,1669831427477,sushi w_condiments,1141.5,True,8.01,55822.59999990463,1141.5,True,HRV,HRV_0153,2022-11-30 18:04:20
34,"[{'imgObject': {}, 'id': 'kiwi', 'src': '/static/foodstim60/kiwi.jpg', 'key': 'NaN', 'origWidth': 410, 'origHeight': 410, 'width': 410, 'height': 410, 'widthPercent': 0.8, 'rescaleHeight': True, 'trialN': 34, 'loaded': True, 'loadedTime': 4408.5, 'positionName': 'CENTER', 'positionCoords': [435, 307]}]",Rate how much you want to eat this food from 0 (least) to 10 (most).,55824.89999997616,1669831428621,kiwi,1597.7999999523163,True,8.06,57422.699999928474,1597.7999999523163,True,HRV,HRV_0153,2022-11-30 18:04:20
35,"[{'imgObject': {}, 'id': 'corn cob', 'src': '/static/foodstim60/corn cob.jpg', 'key': 'NaN', 'origWidth': 411, 'origHeight': 411, 'width': 411, 'height': 411, 'widthPercent': 0.8, 'rescaleHeight': True, 'trialN': 35, 'loaded': True, 'loadedTime': 4527.599999904633, 'positionName': 'CENTER', 'positionCoords': [434.5, 306.5]}]",Rate how much you want to eat this food from 0 (least) to 10 (most).,57425.0,1669831430221,corn cob,1645.7999999523163,True,5.64,59070.799999952316,1645.7999999523163,True,HRV,HRV_0153,2022-11-30 18:04:20
36,"[{'imgObject': {}, 'id': 'Tribe humus pita', 'src': '/static/foodstim60/Tribe humus pita.jpg', 'key': 'NaN', 'origWidth': 411, 'origHeight': 411, 'width': 411, 'height': 411, 'widthPercent': 0.8, 'rescaleHeight': True, 'trialN': 36, 'loaded': True, 'loadedTime': 4514.299999952316, 'positionName': 'CENTER', 'positionCoords': [434.5, 306.5]}]",Rate how much you want to eat this food from 0 (least) to 10 (most).,59073.699999928474,1669831431870,Tribe humus pita,1581.2000000476837,True,7.57,60654.89999997616,1581.2000000476837,True,HRV,HRV_0153,2022-11-30 18:04:20
37,"[{'imgObject': {}, 'id': 'blueberries', 'src': '/static/foodstim60/blueberries.jpg', 'key': 'NaN', 'origWidth': 411, 'origHeight': 411, 'width': 411, 'height': 411, 'widthPercent': 0.8, 'rescaleHeight': True, 'trialN': 37, 'loaded': True, 'loadedTime': 4543.299999952316, 'positionName': 'CENTER', 'positionCoords': [434.5, 306.5]}]",Rate how much you want to eat this food from 0 (least) to 10 (most).,60657.199999928474,1669831433453,blueberries,1005.5,True,8.15,61662.699999928474,1005.5,True,HRV,HRV_0153,2022-11-30 18:04:20
38,"[{'imgObject': {}, 'id': 'ice cream sundae 002', 'src': '/static/foodstim60/ice cream sundae 002.jpg', 'key': 'NaN', 'origWidth': 409, 'origHeight': 409, 'width': 409, 'height': 409, 'widthPercent': 0.8, 'rescaleHeight': True, 'trialN': 38, 'loaded': True, 'loadedTime': 4534.699999928474, 'positionName': 'CENTER', 'positionCoords': [435.5, 307.5]}]",Rate how much you want to eat this food from 0 (least) to 10 (most).,61665.0,1669831434461,ice cream sundae 002,1453.6999999284744,True,9.92,63118.699999928474,1453.6999999284744,True,HRV,HRV_0153,2022-11-30 18:04:20
39,"[{'imgObject': {}, 'id': 'veggieswithdip', 'src': '/static/foodstim60/veggieswithdip.jpg', 'key': 'NaN', 'origWidth': 409, 'origHeight': 409, 'width': 409, 'height': 409, 'widthPercent': 0.8, 'rescaleHeight': True, 'trialN': 39, 'loaded': True, 'loadedTime': 4663, 'positionName': 'CENTER', 'positionCoords': [435.5, 307.5]}]",Rate how much you want to eat this food from 0 (least) to 10 (most).,63121.799999952316,1669831435918,veggieswithdip,1516.7999999523163,True,0.8200000000000001,64638.59999990463,1516.7999999523163,True,HRV,HRV_0153,2022-11-30 18:04:20
40,"[{'imgObject': {}, 'id': 'apple slices', 'src': '/static/foodstim60/apple slices.jpg', 'key': 'NaN', 'origWidth': 409, 'origHeight': 410, 'width': 409, 'height': 410, 'widthPercent': 0.8, 'rescaleHeight': True, 'trialN': 40, 'loaded': True, 'loadedTime': 4558.699999928474, 'positionName': 'CENTER', 'positionCoords': [435.5, 307]}]",Rate how much you want to eat this food from 0 (least) to 10 (most).,64641.0,1669831437437,apple slices,1317.6999999284744,True,8.28,65958.69999992847,1317.6999999284744,True,HRV,HRV_0153,2022-11-30 18:04:20
41,"[{'imgObject': {}, 'id': 'mango', 'src': '/static/foodstim60/mango.jpg', 'key': 'NaN', 'origWidth': 411, 'origHeight': 411, 'width': 411, 'height': 411, 'widthPercent': 0.8, 'rescaleHeight': True, 'trialN': 41, 'loaded': True, 'loadedTime': 4671, 'positionName': 'CENTER', 'positionCoords': [434.5, 306.5]}]",Rate how much you want to eat this food from 0 (least) to 10 (most).,65960.69999992847,1669831438757,mango,878.0,True,8.78,66838.69999992847,878.0,True,HRV,HRV_0153,2022-11-30 18:04:20
42,"[{'imgObject': {}, 'id': 'salad w chicken', 'src': '/static/foodstim60/salad w chicken.jpg', 'key': 'NaN', 'origWidth': 411, 'origHeight': 411, 'width': 411, 'height': 411, 'widthPercent': 0.8, 'rescaleHeight': True, 'trialN': 42, 'loaded': True, 'loadedTime': 4709.699999928474, 'positionName': 'CENTER', 'positionCoords': [434.5, 306.5]}]",Rate how much you want to eat this food from 0 (least) to 10 (most).,66841.39999997616,1669831439637,salad w chicken,1237.3999999761581,True,9.6,68078.79999995232,1237.3999999761581,True,HRV,HRV_0153,2022-11-30 18:04:20
43,"[{'imgObject': {}, 'id': 'popsicles', 'src': '/static/foodstim60/popsicles.jpg', 'key': 'NaN', 'origWidth': 410, 'origHeight': 410, 'width': 410, 'height': 410, 'widthPercent': 0.8, 'rescaleHeight': True, 'trialN': 43, 'loaded': True, 'loadedTime': 4678.099999904633, 'positionName': 'CENTER', 'positionCoords': [435, 307]}]",Rate how much you want to eat this food from 0 (least) to 10 (most).,68081.29999995232,1669831440877,popsicles,1261.2999999523163,True,8.81,69342.59999990463,1261.2999999523163,True,HRV,HRV_0153,2022-11-30 18:04:20
44,"[{'imgObject': {}, 'id': 'froot loops w milk', 'src': '/static/foodstim60/froot loops w milk.jpg', 'key': 'NaN', 'origWidth': 410, 'origHeight': 410, 'width': 410, 'height': 410, 'widthPercent': 0.8, 'rescaleHeight': True, 'trialN': 44, 'loaded': True, 'loadedTime': 4673.699999928474, 'positionName': 'CENTER', 'positionCoords': [435, 307]}]",Rate how much you want to eat this food from 0 (least) to 10 (most).,69345.09999990463,1669831442141,froot loops w milk,765.6000000238419,True,8.82,70110.69999992847,765.6000000238419,True,HRV,HRV_0153,2022-11-30 18:04:20
45,"[{'imgObject': {}, 'id': 'pear', 'src': '/static/foodstim60/pear.jpg', 'key': 'NaN', 'origWidth': 411, 'origHeight': 410, 'width': 411, 'height': 410, 'widthPercent': 0.8, 'rescaleHeight': True, 'trialN': 45, 'loaded': True, 'loadedTime': 4821.799999952316, 'positionName': 'CENTER', 'positionCoords': [434.5, 307]}]",Rate how much you want to eat this food from 0 (least) to 10 (most).,70113.29999995232,1669831442909,pear,749.3999999761581,True,8.84,70862.69999992847,749.3999999761581,True,HRV,HRV_0153,2022-11-30 18:04:20
46,"[{'imgObject': {}, 'id': 'cocktailshrimp', 'src': '/static/foodstim60/cocktailshrimp.jpg', 'key': 'NaN', 'origWidth': 410, 'origHeight': 410, 'width': 410, 'height': 410, 'widthPercent': 0.8, 'rescaleHeight': True, 'trialN': 46, 'loaded': True, 'loadedTime': 4841.299999952316, 'positionName': 'CENTER', 'positionCoords': [435, 307]}]",Rate how much you want to eat this food from 0 (least) to 10 (most).,70865.19999992847,1669831443661,cocktailshrimp,1173.5,True,9.040000000000001,72038.69999992847,1173.5,True,HRV,HRV_0153,2022-11-30 18:04:20
47,"[{'imgObject': {}, 'id': 'chickenfingers', 'src': '/static/foodstim60/chickenfingers.jpg', 'key': 'NaN', 'origWidth': 410, 'origHeight': 410, 'width': 410, 'height': 410, 'widthPercent': 0.8, 'rescaleHeight': True, 'trialN': 47, 'loaded': True, 'loadedTime': 4948.699999928474, 'positionName': 'CENTER', 'positionCoords': [435, 307]}]",Rate how much you want to eat this food from 0 (least) to 10 (most).,72041.29999995232,1669831444837,chickenfingers,781.5,True,9.15,72822.79999995232,781.5,True,HRV,HRV_0153,2022-11-30 18:04:20
48,"[{'imgObject': {}, 'id': 'cherries', 'src': '/static/foodstim60/cherries.jpg', 'key': 'NaN', 'origWidth': 410, 'origHeight': 411, 'width': 410, 'height': 411, 'widthPercent': 0.8, 'rescaleHeight': True, 'trialN': 48, 'loaded': True, 'loadedTime': 4952.099999904633, 'positionName': 'CENTER', 'positionCoords': [435, 306.5]}]",Rate how much you want to eat this food from 0 (least) to 10 (most).,72825.59999990463,1669831445622,cherries,725.1000000238419,True,9.07,73550.69999992847,725.1000000238419,True,HRV,HRV_0153,2022-11-30 18:04:20
49,"[{'imgObject': {}, 'id': 'strawberries', 'src': '/static/foodstim60/strawberries.jpg', 'key': 'NaN', 'origWidth': 410, 'origHeight': 410, 'width': 410, 'height': 410, 'widthPercent': 0.8, 'rescaleHeight': True, 'trialN': 49, 'loaded': True, 'loadedTime': 4955.399999976158, 'positionName': 'CENTER', 'positionCoords': [435, 307]}]",Rate how much you want to eat this food from 0 (least) to 10 (most).,73553.59999990463,1669831446350,strawberries,1133.3000000715256,True,9.15,74686.89999997616,1133.3000000715256,True,HRV,HRV_0153,2022-11-30 18:04:20
50,"[{'imgObject': {}, 'id': 'cherry tomato', 'src': '/static/foodstim60/cherry tomato.jpg', 'key': 'NaN', 'origWidth': 410, 'origHeight': 410, 'width': 410, 'height': 410, 'widthPercent': 0.8, 'rescaleHeight': True, 'trialN': 50, 'loaded': True, 'loadedTime': 4963.099999904633, 'positionName': 'CENTER', 'positionCoords': [435, 307]}]",Rate how much you want to eat this food from 0 (least) to 10 (most).,74689.69999992847,1669831447486,cherry tomato,1092.8999999761581,True,9.31,75782.59999990463,1092.8999999761581,True,HRV,HRV_0153,2022-11-30 18:04:20
51,"[{'imgObject': {}, 'id': 'mashed potato', 'src': '/static/foodstim60/mashed potato.jpg', 'key': 'NaN', 'origWidth': 409, 'origHeight': 409, 'width': 409, 'height': 409, 'widthPercent': 0.8, 'rescaleHeight': True, 'trialN': 51, 'loaded': True, 'loadedTime': 4970.099999904633, 'positionName': 'CENTER', 'positionCoords': [435.5, 307.5]}]",Rate how much you want to eat this food from 0 (least) to 10 (most).,75785.19999992847,1669831448581,mashed potato,2373.399999976158,True,6.59,78158.59999990463,2373.399999976158,True,HRV,HRV_0153,2022-11-30 18:04:20
52,"[{'imgObject': {}, 'id': 'cantaloupe', 'src': '/static/foodstim60/cantaloupe.jpg', 'key': 'NaN', 'origWidth': 409, 'origHeight': 409, 'width': 409, 'height': 409, 'widthPercent': 0.8, 'rescaleHeight': True, 'trialN': 52, 'loaded': True, 'loadedTime': 5052.599999904633, 'positionName': 'CENTER', 'positionCoords': [435.5, 307.5]}]",Rate how much you want to eat this food from 0 (least) to 10 (most).,78161.5,1669831450958,cantaloupe,1069.1999999284744,True,3.46,79230.69999992847,1069.1999999284744,True,HRV,HRV_0153,2022-11-30 18:04:20
53,"[{'imgObject': {}, 'id': 'tacos', 'src': '/static/foodstim60/tacos.jpg', 'key': 'NaN', 'origWidth': 411, 'origHeight': 411, 'width': 411, 'height': 411, 'widthPercent': 0.8, 'rescaleHeight': True, 'trialN': 53, 'loaded': True, 'loadedTime': 5081.5, 'positionName': 'CENTER', 'positionCoords': [434.5, 306.5]}]",Rate how much you want to eat this food from 0 (least) to 10 (most).,79234.5,1669831452031,tacos,1332.0999999046326,True,9.46,80566.59999990463,1332.0999999046326,True,HRV,HRV_0153,2022-11-30 18:04:20
54,"[{'imgObject': {}, 'id': 'turkey sandwich', 'src': '/static/foodstim60/turkey sandwich.jpg', 'key': 'NaN', 'origWidth': 409, 'origHeight': 409, 'width': 409, 'height': 409, 'widthPercent': 0.8, 'rescaleHeight': True, 'trialN': 54, 'loaded': True, 'loadedTime': 5060.099999904633, 'positionName': 'CENTER', 'positionCoords': [435.5, 307.5]}]",Rate how much you want to eat this food from 0 (least) to 10 (most).,80568.89999997616,1669831453365,turkey sandwich,1245.7999999523163,True,9.35,81814.69999992847,1245.7999999523163,True,HRV,HRV_0153,2022-11-30 18:04:20
55,"[{'imgObject': {}, 'id': 'seaweed', 'src': '/static/foodstim60/seaweed.jpg', 'key': 'NaN', 'origWidth': 410, 'origHeight': 410, 'width': 410, 'height': 410, 'widthPercent': 0.8, 'rescaleHeight': True, 'trialN': 55, 'loaded': True, 'loadedTime': 5084.699999928474, 'positionName': 'CENTER', 'positionCoords': [435, 307]}]",Rate how much you want to eat this food from 0 (least) to 10 (most).,81816.89999997616,1669831454613,seaweed,1357.8999999761581,True,1.96,83174.79999995232,1357.8999999761581,True,HRV,HRV_0153,2022-11-30 18:04:20
56,"[{'imgObject': {}, 'id': 'olives', 'src': '/static/foodstim60/olives.jpg', 'key': 'NaN', 'origWidth': 410, 'origHeight': 410, 'width': 410, 'height': 410, 'widthPercent': 0.8, 'rescaleHeight': True, 'trialN': 56, 'loaded': True, 'loadedTime': 5088.299999952316, 'positionName': 'CENTER', 'positionCoords': [435, 307]}]",Rate how much you want to eat this food from 0 (least) to 10 (most).,83177.19999992847,1669831455974,olives,1037.5,True,0.7000000000000001,84214.69999992847,1037.5,True,HRV,HRV_0153,2022-11-30 18:04:20
57,"[{'imgObject': {}, 'id': 'avocado', 'src': '/static/foodstim60/avocado.jpg', 'key': 'NaN', 'origWidth': 409, 'origHeight': 409, 'width': 409, 'height': 409, 'widthPercent': 0.8, 'rescaleHeight': True, 'trialN': 57, 'loaded': True, 'loadedTime': 5178.699999928474, 'positionName': 'CENTER', 'positionCoords': [435.5, 307.5]}]",Rate how much you want to eat this food from 0 (least) to 10 (most).,84217.0,1669831457013,avocado,1389.5999999046326,True,5.71,85606.59999990463,1389.5999999046326,True,HRV,HRV_0153,2022-11-30 18:04:20
58,"[{'imgObject': {}, 'id': 'yogurt no spoon', 'src': '/static/foodstim60/yogurt no spoon.jpg', 'key': 'NaN', 'origWidth': 411, 'origHeight': 410, 'width': 411, 'height': 410, 'widthPercent': 0.8, 'rescaleHeight': True, 'trialN': 58, 'loaded': True, 'loadedTime': 5192.399999976158, 'positionName': 'CENTER', 'positionCoords': [434.5, 307]}]",Rate how much you want to eat this food from 0 (least) to 10 (most).,85608.59999990463,1669831458405,yogurt no spoon,1086.1000000238419,True,9.290000000000001,86694.69999992847,1086.1000000238419,True,HRV,HRV_0153,2022-11-30 18:04:20
59,"[{'imgObject': {}, 'id': 'hashbrowns', 'src': '/static/foodstim60/hashbrowns.jpg', 'key': 'NaN', 'origWidth': 411, 'origHeight': 410, 'width': 411, 'height': 410, 'widthPercent': 0.8, 'rescaleHeight': True, 'trialN': 59, 'loaded': True, 'loadedTime': 5199.099999904633, 'positionName': 'CENTER', 'positionCoords': [434.5, 307]}]",Rate how much you want to eat this food from 0 (least) to 10 (most).,86697.89999997616,1669831459494,hashbrowns,950.0,True,9.32,87647.89999997616,950.0,True,HRV,HRV_0153,2022-11-30 18:04:20
