success,trial_type,trial_index,time_elapsed,internal_node_id,missTrial,missTrialMsg,Block,TrialNumber,TrialTime,trialTimeDiff,FPS_avg,FPS_med,FPS_mode,TrialDur,winResizeTime,rt,block,button_pressed,MotCoh,MotDir,ColCoh,Color,ChoiceKey,Choice,Accuracy,RT,nFrames,FPS,PPD,onsetDelay,fullScreenExitTime,canvCenter,TrialType,Score,BlockTrial,stimulus,button_labels,exp,subjectId,date
True,fullscreen,0,6683,0.0-0.0,True,undefinedblurEvent ,0.0,0.0,,,,,,,,,,,,,,,,,,,,,,,,,,,,,,HRV,HRV_0153,2022-11-30 18:22:31
,wl-check-fps,1,11915,0.0-1.0,,,0.0,1.0,"[8484.8, 8500.5, 8539.6, 8565.4, 8587.9, 8600.6, 8602.8, 8614.9, 8630.1, 8647.7, 8664.8, 8680.4, 8697.5, 8714.7, 8730.6, 8747.5, 8763.5, 8780, 8797.1, 8813.9, 8830.7, 8847.7, 8863.4, 8880.3, 8897.9, 8913.5, 8930.1, 8947.7, 8963.6, 8980.6, 8997.6, 9015.9, 9031.6, 9048.1, 9064.3, 9081.1, 9097.9, 9113.6, 9130.8, 9149.6, 9163.4, 9182.6, 9198.3, 9213.6, 9230.5, 9249.1, 9265.8, 9280.6, 9297.3, 9314.6, 9330, 9347, 9363.6, 9380.2, 9397.4, 9415, 9430, 9449.5, 9463.2, 9479.8, 9498.8, 9513.1, 9532.7, 9546.4, 9564.3, 9582.2, 9600.3, 9613.4, 9630.2, 9648, 9662.9, 9681.8, 9697.2, 9723.7, 9733.6, 9748.9, 9766.4, 9782.4, 9809.7, 9815.2, 9832.2, 9848.8, 9898.5, 9899.9, 9914.3, 9931.7, 9950.6, 9964.8, 9981.5, 9998, 10030.5, 10048.2, 10064.5, 10081.7, 10098.5, 10114.1, 10131.4, 10148.7, 10164.3, 10181.6, 10198.6, 10214.7, 10250.4, 10265.6, 10281.3, 10297.9, 10314.6, 10331.2, 10348.4, 10364.4, 10381, 10398.5, 10415.4, 10432, 10448.7, 10464.4, 10481.5, 10498.3, 10514, 10531.1, 10548.7, 10564.9, 10580.8, 10597.7, 10614.8, 10633.1, 10663.6, 10682.8, 10699.3, 10714.6, 10732.6, 10749.9, 10765.3, 10782.5, 10799.3, 10814.9, 10831.8, 10849.3, 10864.3, 10882.1, 10899.2, 10915.6, 10933.6, 10950, 10965.9, 10982.1, 10999, 11015.3, 11032.7, 11048, 11065.4, 11080.7, 11099.2, 11114.6, 11131.6, 11148.4, 11165.2, 11181.8, 11199.2, 11214.7, 11231.4, 11248.1, 11267.8, 11282.4, 11299.1, 11315.4, 11331.8, 11349.2, 11365.4, 11382.2, 11398.9, 11415.2, 11431.8, 11467.7, 11480.8, 11498.4, 11514.1, 11531, 11547.5, 11564.1, 11580.9, 11597.5, 11614.1, 11630.6, 11647.5, 11663.8, 11681, 11697.9, 11714, 11732.5, 11748.7, 11764.1, 11781.1, 11797.6, 11813.9, 11831, 11847.5, 11864, 11880.6, 11897.6, 11913.8, 11931.3, 11947.3, 11963.8, 11980.6, 11997.2, 12014.1, 12030.5, 12049.1, 12067, 12084, 12097.9, 12113.4, 12130.4, 12149, 12165.4, 12183.1, 12197.5, 12213.4, 12230.3, 12249.5, 12267.9, 12287, 12297.2, 12313.2, 12331, 12347.4, 12365.3, 12382.3, 12399.3, 12415.5, 12432.8, 12449.3, 12465.1, 12481.7, 12499.5, 12515.5, 12532.9, 12547.2, 12563.4, 12580.1, 12598.7, 12615.2, 12632.5, 12646.5, 12663.2, 12683, 12696.4, 12714.3, 12729, 12752.5, 12781.5, 12797.2, 12812.8, 12830.2, 12846.2, 12863, 12879.8, 12896.5, 12912.9, 12930, 12946.3, 12962.6, 12979.4, 12996.3, 13029.2, 13046.6, 13062.9, 13079.7, 13096.2, 13112.5, 13129.4, 13145.9, 13162.5, 13179.7, 13195.9, 13212.7, 13229.7, 13245.8, 13263.1, 13279.5, 13296.9, 13313.2, 13329.5, 13345.9, 13363.1, 13379.6, 13396.2, 13412.2, 13429.9, 13446.4, 13462.6, 13479.4, 13496.5, 13512.8, 13529.5, 13546.3, 13562.4, 13579.3, 13596.7]","[94, 15.7, 39.1, 25.8, 22.5, 12.7, 2.2, 12.1, 15.2, 17.6, 17.1, 15.6, 17.1, 17.2, 15.9, 16.9, 16, 16.5, 17.1, 16.8, 16.8, 17, 15.7, 16.9, 17.6, 15.6, 16.6, 17.6, 15.9, 17, 17, 18.3, 15.7, 16.5, 16.2, 16.8, 16.8, 15.7, 17.2, 18.8, 13.8, 19.2, 15.7, 15.3, 16.9, 18.6, 16.7, 14.8, 16.7, 17.3, 15.4, 17, 16.6, 16.6, 17.2, 17.6, 15, 19.5, 13.7, 16.6, 19, 14.3, 19.6, 13.7, 17.9, 17.9, 18.1, 13.1, 16.8, 17.8, 14.9, 18.9, 15.4, 26.5, 9.9, 15.3, 17.5, 16, 27.3, 5.5, 17, 16.6, 49.7, 1.4, 14.4, 17.4, 18.9, 14.2, 16.7, 16.5, 32.5, 17.7, 16.3, 17.2, 16.8, 15.6, 17.3, 17.3, 15.6, 17.3, 17, 16.1, 35.7, 15.2, 15.7, 16.6, 16.7, 16.6, 17.2, 16, 16.6, 17.5, 16.9, 16.6, 16.7, 15.7, 17.1, 16.8, 15.7, 17.1, 17.6, 16.2, 15.9, 16.9, 17.1, 18.3, 30.5, 19.2, 16.5, 15.3, 18, 17.3, 15.4, 17.2, 16.8, 15.6, 16.9, 17.5, 15, 17.8, 17.1, 16.4, 18, 16.4, 15.9, 16.2, 16.9, 16.3, 17.4, 15.3, 17.4, 15.3, 18.5, 15.4, 17, 16.8, 16.8, 16.6, 17.4, 15.5, 16.7, 16.7, 19.7, 14.6, 16.7, 16.3, 16.4, 17.4, 16.2, 16.8, 16.7, 16.3, 16.6, 35.9, 13.1, 17.6, 15.7, 16.9, 16.5, 16.6, 16.8, 16.6, 16.6, 16.5, 16.9, 16.3, 17.2, 16.9, 16.1, 18.5, 16.2, 15.4, 17, 16.5, 16.3, 17.1, 16.5, 16.5, 16.6, 17, 16.2, 17.5, 16, 16.5, 16.8, 16.6, 16.9, 16.4, 18.6, 17.9, 17, 13.9, 15.5, 17, 18.6, 16.4, 17.7, 14.4, 15.9, 16.9, 19.2, 18.4, 19.1, 10.2, 16, 17.8, 16.4, 17.9, 17, 17, 16.2, 17.3, 16.5, 15.8, 16.6, 17.8, 16, 17.4, 14.3, 16.2, 16.7, 18.6, 16.5, 17.3, 14, 16.7, 19.8, 13.4, 17.9, 14.7, 23.5, 29, 15.7, 15.6, 17.4, 16, 16.8, 16.8, 16.7, 16.4, 17.1, 16.3, 16.3, 16.8, 16.9, 32.9, 17.4, 16.3, 16.8, 16.5, 16.3, 16.9, 16.5, 16.6, 17.2, 16.2, 16.8, 17, 16.1, 17.3, 16.4, 17.4, 16.3, 16.3, 16.4, 17.2, 16.5, 16.6, 16, 17.7, 16.5, 16.2, 16.8, 17.1, 16.3, 16.7, 16.8, 16.1, 16.9, 17.4]",58.0,61.0,60.0,5221.7,[],,,,,,,,,,,,,,,,,,,,,,,HRV,HRV_0153,2022-11-30 18:22:31
,wl-html-keyboard-response,2,21706,0.0-2.0-0.0,,,0.0,2.0,,,,,,,,7752.299999952316,0.0,0,,,,,,,,,,,,,,,,,,,,HRV,HRV_0153,2022-11-30 18:22:31
,wl-rdm,3,28923,0.0-3.0-0.0,False,,0.0,3.0,,,,,,,[],,,,0.0,0.0,87.9,0.0,u,0.0,True,1524.2999999523163,92.0,60.0,40.0,3000.0,[],"[640, 512]",ColorTask_Demo,,,,,HRV,HRV_0153,2022-11-30 18:22:31
,wl-rdm,4,33970,0.0-3.0-1.0,False,,0.0,4.0,,,,,,,[],,,,0.0,0.0,87.9,1.0,i,1.0,True,955.3000000715256,58.0,60.0,40.0,2000.0,[],"[640, 512]",ColorTask_Demo,,,,,HRV,HRV_0153,2022-11-30 18:22:31
,wl-html-keyboard-response,5,39314,0.0-3.0-2.0,,,0.0,5.0,,,,,,,,3336.5,0.0,1,,,,,,,,,,,,,,,,,,,,HRV,HRV_0153,2022-11-30 18:22:31
,wl-html-keyboard-response,6,47306,0.0-4.0-0.0,,,0.0,6.0,,,,,,,,5985.699999928474,0.0,0,,,,,,,,,,,,,,,,,,,,HRV,HRV_0153,2022-11-30 18:22:31
,wl-html-keyboard-response,7,71796,0.0-5.0-0.0,,,0.0,7.0,,,,,,,,22482.5,0.0,0,,,,,,,,,,,,,,,,,,,,HRV,HRV_0153,2022-11-30 18:22:31
,wl-rdm,8,75310,0.0-6.0-0.0,False,,0.0,8.0,,,,,,,[],,,,,,73.6,0.0,u,0.0,True,2104.1999999284744,126.0,60.0,40.0,337.39021119857426,[],"[640, 512]",ColorTask,1.0,1.0,,,HRV,HRV_0153,2022-11-30 18:22:31
,wl-rdm,9,78024,0.0-6.1-0.1,False,,0.0,9.0,,,,,,,[],,,,,,73.6,0.0,u,0.0,True,1340.1999999284744,81.0,60.0,40.0,294.2864588856174,[],"[640, 512]",ColorTask,2.0,2.0,,,HRV,HRV_0153,2022-11-30 18:22:31
,wl-rdm,10,79989,0.0-6.2-0.2,False,,0.0,10.0,,,,,,,[],,,,,,73.6,0.0,u,0.0,True,668.1000000238419,40.0,60.0,40.0,221.39631258783757,[],"[640, 512]",ColorTask,3.0,3.0,,,HRV,HRV_0153,2022-11-30 18:22:31
,wl-rdm,11,81973,0.0-6.3-0.3,False,,0.0,11.0,,,,,,,[],,,,,,62.5,1.0,i,1.0,True,609.7999999523163,38.0,60.0,40.0,263.09819196295774,[],"[640, 512]",ColorTask,4.0,4.0,,,HRV,HRV_0153,2022-11-30 18:22:31
,wl-rdm,12,84205,0.0-6.4-0.4,False,,0.0,12.0,,,,,,,[],,,,,,56.4,0.0,i,1.0,False,842.9000000953674,51.0,60.0,40.0,307.4826713321491,[],"[640, 512]",ColorTask,3.0,5.0,,,HRV,HRV_0153,2022-11-30 18:22:31
,wl-rdm,13,86221,0.0-6.5-0.5,False,,0.0,13.0,,,,,,,[],,,,,,53.2,0.0,u,0.0,True,736.0,44.0,60.0,40.0,201.61149827712987,[],"[640, 512]",ColorTask,4.0,6.0,,,HRV,HRV_0153,2022-11-30 18:22:31
,wl-rdm,14,88503,0.0-6.6-0.6,False,,0.0,14.0,,,,,,,[],,,,,,50.0,1.0,i,1.0,True,840.5,51.0,60.0,40.0,364.9790344104218,[],"[640, 512]",ColorTask,5.0,7.0,,,HRV,HRV_0153,2022-11-30 18:22:31
,wl-rdm,15,90619,0.0-6.7-0.7,False,,0.0,15.0,,,,,,,[],,,,,,87.9,0.0,u,0.0,True,637.5999999046326,39.0,60.0,40.0,389.8056360140229,[],"[640, 512]",ColorTask,6.0,8.0,,,HRV,HRV_0153,2022-11-30 18:22:31
,wl-rdm,16,93435,0.0-6.8-0.8,False,,0.0,16.0,,,,,,,[],,,,,,56.4,1.0,u,0.0,False,1421.7000000476837,86.0,60.0,40.0,311.564067129426,[],"[640, 512]",ColorTask,5.0,9.0,,,HRV,HRV_0153,2022-11-30 18:22:31
,wl-rdm,17,95752,0.0-6.9-0.9,False,,0.0,17.0,,,,,,,[],,,,,,62.5,0.0,i,1.0,False,1000.1000000238419,60.0,60.0,40.0,245.46701081624127,[],"[640, 512]",ColorTask,4.0,10.0,,,HRV,HRV_0153,2022-11-30 18:22:31
,wl-rdm,18,98217,0.0-6.10-0.10,False,,0.0,18.0,,,,,,,[],,,,,,73.6,0.0,u,0.0,True,1046.7999999523163,63.0,60.0,40.0,339.8933248495697,[],"[640, 512]",ColorTask,5.0,11.0,,,HRV,HRV_0153,2022-11-30 18:22:31
,wl-rdm,19,101049,0.0-6.11-0.11,False,,0.0,19.0,,,,,,,[],,,,,,50.0,0.0,u,0.0,True,1421.5,86.0,60.0,40.0,344.7418459074869,[],"[640, 512]",ColorTask,6.0,12.0,,,HRV,HRV_0153,2022-11-30 18:22:31
,wl-rdm,20,103664,0.0-6.12-0.12,False,,0.0,20.0,,,,,,,[],,,,,,50.0,1.0,i,1.0,True,1172.5,70.0,60.0,40.0,355.961062607129,[],"[640, 512]",ColorTask,7.0,13.0,,,HRV,HRV_0153,2022-11-30 18:22:31
,wl-rdm,21,107231,0.0-6.13-0.13,False,,0.0,21.0,,,,,,,[],,,,,,56.4,0.0,u,0.0,True,2084.7999999523163,125.0,60.0,40.0,399.945628176518,[],"[640, 512]",ColorTask,8.0,14.0,,,HRV,HRV_0153,2022-11-30 18:22:31
,wl-rdm,22,109913,0.0-6.14-0.14,False,,0.0,22.0,,,,,,,[],,,,,,53.2,0.0,u,0.0,True,1239.8000000715256,75.0,60.0,40.0,364.0849811834472,[],"[640, 512]",ColorTask,9.0,15.0,,,HRV,HRV_0153,2022-11-30 18:22:31
,wl-rdm,23,112096,0.0-6.15-0.15,False,,0.0,23.0,,,,,,,[],,,,,,73.6,0.0,u,0.0,True,729.5,44.0,60.0,40.0,376.0425171474629,[],"[640, 512]",ColorTask,10.0,16.0,,,HRV,HRV_0153,2022-11-30 18:22:31
,wl-rdm,24,114262,0.0-6.16-0.16,False,,0.0,24.0,,,,,,,[],,,,,,73.6,1.0,i,1.0,True,855.8000000715256,51.0,60.0,40.0,230.8412128248928,[],"[640, 512]",ColorTask,11.0,17.0,,,HRV,HRV_0153,2022-11-30 18:22:31
,wl-rdm,25,116628,0.0-6.17-0.17,False,,0.0,25.0,,,,,,,[],,,,,,62.5,1.0,i,1.0,True,921.4000000953674,55.0,60.0,40.0,365.4905044539221,[],"[640, 512]",ColorTask,12.0,18.0,,,HRV,HRV_0153,2022-11-30 18:22:31
,wl-rdm,26,118927,0.0-6.18-0.18,False,,0.0,26.0,,,,,,,[],,,,,,50.0,0.0,i,1.0,False,941.2999999523163,57.0,60.0,40.0,281.2024852060363,[],"[640, 512]",ColorTask,11.0,19.0,,,HRV,HRV_0153,2022-11-30 18:22:31
,wl-rdm,27,121275,0.0-6.19-0.19,False,,0.0,27.0,,,,,,,[],,,,,,50.0,1.0,u,0.0,False,1038.2999999523163,63.0,60.0,40.0,226.10591063333254,[],"[640, 512]",ColorTask,10.0,20.0,,,HRV,HRV_0153,2022-11-30 18:22:31
,wl-rdm,28,123375,0.0-6.20-0.20,False,,0.0,28.0,,,,,,,[],,,,,,53.2,0.0,u,0.0,True,831.8999999761581,50.0,60.0,40.0,201.3504947991324,[],"[640, 512]",ColorTask,11.0,21.0,,,HRV,HRV_0153,2022-11-30 18:22:31
,wl-rdm,29,125891,0.0-6.21-0.21,False,,0.0,29.0,,,,,,,[],,,,,,62.5,1.0,i,1.0,True,1155.8999998569489,70.0,60.0,40.0,271.8510727834951,[],"[640, 512]",ColorTask,12.0,22.0,,,HRV,HRV_0153,2022-11-30 18:22:31
,wl-rdm,30,128073,0.0-6.22-0.22,False,,0.0,30.0,,,,,,,[],,,,,,62.5,0.0,u,0.0,True,707.3999999761581,43.0,60.0,40.0,398.5494278676646,[],"[640, 512]",ColorTask,13.0,23.0,,,HRV,HRV_0153,2022-11-30 18:22:31
,wl-rdm,31,130305,0.0-6.23-0.23,False,,0.0,31.0,,,,,,,[],,,,,,50.0,1.0,u,0.0,False,871.8999999761581,53.0,60.0,40.0,271.9992614936821,[],"[640, 512]",ColorTask,12.0,24.0,,,HRV,HRV_0153,2022-11-30 18:22:31
,wl-rdm,32,132621,0.0-6.24-0.24,False,,0.0,32.0,,,,,,,[],,,,,,62.5,1.0,i,1.0,True,1002.5999999046326,58.0,60.0,40.0,236.63416461547786,[],"[640, 512]",ColorTask,13.0,25.0,,,HRV,HRV_0153,2022-11-30 18:22:31
,wl-rdm,33,134687,0.0-6.25-0.25,False,,0.0,33.0,,,,,,,[],,,,,,53.2,0.0,u,0.0,True,764.9000000953674,46.0,60.0,40.0,233.24578215886342,[],"[640, 512]",ColorTask,14.0,26.0,,,HRV,HRV_0153,2022-11-30 18:22:31
,wl-rdm,34,138153,0.0-6.26-0.26,False,,0.0,34.0,,,,,,,[],,,,,,56.4,0.0,u,0.0,True,2063.5000001192093,124.0,60.0,40.0,328.87985299302386,[],"[640, 512]",ColorTask,15.0,27.0,,,HRV,HRV_0153,2022-11-30 18:22:31
,wl-rdm,35,140503,0.0-6.27-0.27,False,,0.0,35.0,,,,,,,[],,,,,,73.6,1.0,u,0.0,False,1024.9999998807907,62.0,60.0,40.0,236.0975402258279,[],"[640, 512]",ColorTask,14.0,28.0,,,HRV,HRV_0153,2022-11-30 18:22:31
,wl-rdm,36,142418,0.0-6.28-0.28,False,,0.0,36.0,,,,,,,[],,,,,,73.6,0.0,u,0.0,True,622.0000001192093,38.0,60.0,40.0,216.21000029397038,[],"[640, 512]",ColorTask,15.0,29.0,,,HRV,HRV_0153,2022-11-30 18:22:31
,wl-rdm,37,144434,0.0-6.29-0.29,False,,0.0,37.0,,,,,,,[],,,,,,50.0,0.0,u,0.0,True,678.3999999761581,41.0,60.0,40.0,254.5822236639034,[],"[640, 512]",ColorTask,16.0,30.0,,,HRV,HRV_0153,2022-11-30 18:22:31
,wl-rdm,38,147101,0.0-6.30-0.30,False,,0.0,38.0,,,,,,,[],,,,,,53.2,0.0,i,1.0,False,1304.8999999761581,78.0,60.0,40.0,276.3767783129636,[],"[640, 512]",ColorTask,15.0,31.0,,,HRV,HRV_0153,2022-11-30 18:22:31
,wl-rdm,39,149482,0.0-6.31-0.31,False,,0.0,39.0,,,,,,,[],,,,,,53.2,1.0,i,1.0,True,988.8000000715256,59.0,60.0,40.0,331.8633629043503,[],"[640, 512]",ColorTask,16.0,32.0,,,HRV,HRV_0153,2022-11-30 18:22:31
,wl-rdm,40,151598,0.0-6.32-0.32,False,,0.0,40.0,,,,,,,[],,,,,,87.9,1.0,i,1.0,True,691.1999999284744,42.0,60.0,40.0,347.8069621943066,[],"[640, 512]",ColorTask,17.0,33.0,,,HRV,HRV_0153,2022-11-30 18:22:31
,wl-rdm,41,153765,0.0-6.33-0.33,False,,0.0,41.0,,,,,,,[],,,,,,50.0,0.0,u,0.0,True,802.8999999761581,46.0,60.0,40.0,289.79176523775675,[],"[640, 512]",ColorTask,18.0,34.0,,,HRV,HRV_0153,2022-11-30 18:22:31
,wl-rdm,42,155964,0.0-6.34-0.34,False,,0.0,42.0,,,,,,,[],,,,,,62.5,1.0,u,0.0,False,822.5000001192093,49.0,60.0,40.0,297.8605504671916,[],"[640, 512]",ColorTask,17.0,35.0,,,HRV,HRV_0153,2022-11-30 18:22:31
,wl-rdm,43,158246,0.0-6.35-0.35,False,,0.0,43.0,,,,,,,[],,,,,,62.5,1.0,u,0.0,False,898.6999999284744,52.0,60.0,40.0,327.5960959505505,[],"[640, 512]",ColorTask,16.0,36.0,,,HRV,HRV_0153,2022-11-30 18:22:31
,wl-rdm,44,160780,0.0-6.36-0.36,False,,0.0,44.0,,,,,,,[],,,,,,62.5,1.0,i,1.0,True,1210.6000000238419,73.0,60.0,40.0,243.479045554533,[],"[640, 512]",ColorTask,17.0,37.0,,,HRV,HRV_0153,2022-11-30 18:22:31
,wl-rdm,45,162765,0.0-6.37-0.37,False,,0.0,45.0,,,,,,,[],,,,,,62.5,0.0,u,0.0,True,688.3999999761581,41.0,60.0,40.0,228.99991198361323,[],"[640, 512]",ColorTask,18.0,38.0,,,HRV,HRV_0153,2022-11-30 18:22:31
,wl-rdm,46,165261,0.0-6.38-0.38,False,,0.0,46.0,,,,,,,[],,,,,,53.2,1.0,i,1.0,True,1072.5,64.0,60.0,40.0,351.3179934333706,[],"[640, 512]",ColorTask,19.0,39.0,,,HRV,HRV_0153,2022-11-30 18:22:31
,wl-rdm,47,167276,0.0-6.39-0.39,False,,0.0,47.0,,,,,,,[],,,,,,87.9,1.0,i,1.0,True,726.6000000238419,44.0,60.0,40.0,201.5593679854921,[],"[640, 512]",ColorTask,20.0,40.0,,,HRV,HRV_0153,2022-11-30 18:22:31
,wl-rdm,48,169659,0.0-6.40-0.40,False,,0.0,48.0,,,,,,,[],,,,,,50.0,0.0,i,1.0,False,1027.6999999284744,62.0,60.0,40.0,269.74467665604345,[],"[640, 512]",ColorTask,19.0,41.0,,,HRV,HRV_0153,2022-11-30 18:22:31
,wl-rdm,49,171925,0.0-6.41-0.41,False,,0.0,49.0,,,,,,,[],,,,,,56.4,1.0,i,1.0,True,974.6000000238419,59.0,60.0,40.0,228.85336773725732,[],"[640, 512]",ColorTask,20.0,42.0,,,HRV,HRV_0153,2022-11-30 18:22:31
,wl-rdm,50,174509,0.0-6.42-0.42,False,,0.0,50.0,,,,,,,[],,,,,,53.2,1.0,u,0.0,False,1290.7000000476837,76.0,60.0,40.0,222.32161645774954,[],"[640, 512]",ColorTask,19.0,43.0,,,HRV,HRV_0153,2022-11-30 18:22:31
,wl-rdm,51,176758,0.0-6.43-0.43,False,,0.0,51.0,,,,,,,[],,,,,,87.9,0.0,u,0.0,True,941.8000000715256,57.0,60.0,40.0,209.7244590528578,[],"[640, 512]",ColorTask,20.0,44.0,,,HRV,HRV_0153,2022-11-30 18:22:31
,wl-rdm,52,179056,0.0-6.44-0.44,False,,0.0,52.0,,,,,,,[],,,,,,53.2,1.0,u,0.0,False,930.1000000238419,57.0,60.0,40.0,283.6022632073863,[],"[640, 512]",ColorTask,19.0,45.0,,,HRV,HRV_0153,2022-11-30 18:22:31
,wl-rdm,53,181572,0.0-6.45-0.45,False,,0.0,53.0,,,,,,,[],,,,,,56.4,1.0,i,1.0,True,1236.2000000476837,74.0,60.0,40.0,201.44581027431445,[],"[640, 512]",ColorTask,20.0,46.0,,,HRV,HRV_0153,2022-11-30 18:22:31
,wl-rdm,54,183638,0.0-6.46-0.46,False,,0.0,54.0,,,,,,,[],,,,,,73.6,1.0,i,1.0,True,769.4999998807907,46.0,60.0,40.0,225.75769567134046,[],"[640, 512]",ColorTask,21.0,47.0,,,HRV,HRV_0153,2022-11-30 18:22:31
,wl-rdm,55,188037,0.0-6.47-0.47,True,RT_timeout ,0.0,54.0,,,,,,,[],,,,,,53.2,1.0,,,,,179.0,60.0,40.0,289.64100281781714,[],"[640, 512]",ColorTask,20.0,48.0,,,HRV,HRV_0153,2022-11-30 18:22:31
,wl-rdm,56,190853,0.0-6.48-0.48,False,,0.0,55.0,,,,,,,[],,,,,,56.4,0.0,u,0.0,True,1443.7000000476837,87.0,60.0,40.0,298.1218407015134,[],"[640, 512]",ColorTask,21.0,49.0,,,HRV,HRV_0153,2022-11-30 18:22:31
,wl-rdm,57,192969,0.0-6.49-0.49,False,,0.0,56.0,,,,,,,[],,,,,,87.9,0.0,u,0.0,True,705.3999998569489,42.0,60.0,40.0,346.0525542526424,[],"[640, 512]",ColorTask,22.0,50.0,,,HRV,HRV_0153,2022-11-30 18:22:31
,wl-rdm,58,195318,0.0-6.50-0.50,False,,0.0,57.0,,,,,,,[],,,,,,53.2,1.0,i,1.0,True,1067.7999999523163,63.0,60.0,40.0,215.04695880506418,[],"[640, 512]",ColorTask,23.0,51.0,,,HRV,HRV_0153,2022-11-30 18:22:31
,wl-rdm,59,197917,0.0-6.51-0.51,False,,0.0,58.0,,,,,,,[],,,,,,50.0,1.0,u,0.0,False,1317.3999999761581,77.0,60.0,40.0,205.94862036736643,[],"[640, 512]",ColorTask,22.0,52.0,,,HRV,HRV_0153,2022-11-30 18:22:31
,wl-rdm,60,200366,0.0-6.52-0.52,False,,0.0,59.0,,,,,,,[],,,,,,56.4,1.0,i,1.0,True,1074.2999999523163,64.0,60.0,40.0,299.17802693184046,[],"[640, 512]",ColorTask,23.0,53.0,,,HRV,HRV_0153,2022-11-30 18:22:31
,wl-rdm,61,202715,0.0-6.53-0.53,False,,0.0,60.0,,,,,,,[],,,,,,62.5,1.0,i,1.0,True,888.2000000476837,54.0,60.0,40.0,382.6785782669882,[],"[640, 512]",ColorTask,24.0,54.0,,,HRV,HRV_0153,2022-11-30 18:22:31
,wl-rdm,62,204947,0.0-6.54-0.54,False,,0.0,61.0,,,,,,,[],,,,,,56.4,0.0,u,0.0,True,758.0000001192093,46.0,60.0,40.0,357.2602447639048,[],"[640, 512]",ColorTask,25.0,55.0,,,HRV,HRV_0153,2022-11-30 18:22:31
,wl-rdm,63,207064,0.0-6.55-0.55,False,,0.0,62.0,,,,,,,[],,,,,,73.6,1.0,i,1.0,True,740.3000000715256,45.0,60.0,40.0,316.16090836560033,[],"[640, 512]",ColorTask,26.0,56.0,,,HRV,HRV_0153,2022-11-30 18:22:31
,wl-rdm,64,208997,0.0-6.56-0.56,False,,0.0,63.0,,,,,,,[],,,,,,87.9,1.0,i,1.0,True,642.9000000953674,39.0,60.0,40.0,227.16373463640812,[],"[640, 512]",ColorTask,27.0,57.0,,,HRV,HRV_0153,2022-11-30 18:22:31
,wl-rdm,65,211628,0.0-6.57-0.57,False,,0.0,64.0,,,,,,,[],,,,,,53.2,1.0,u,0.0,False,1287.8999999761581,77.0,60.0,40.0,257.5451996554465,[],"[640, 512]",ColorTask,26.0,58.0,,,HRV,HRV_0153,2022-11-30 18:22:31
,wl-rdm,66,214178,0.0-6.58-0.58,False,,0.0,65.0,,,,,,,[],,,,,,62.5,0.0,u,0.0,True,1227.7999999523163,73.0,60.0,40.0,251.48144355696203,[],"[640, 512]",ColorTask,27.0,59.0,,,HRV,HRV_0153,2022-11-30 18:22:31
,wl-rdm,67,218327,0.0-6.59-0.59,False,,0.0,66.0,,,,,,,[],,,,,,50.0,0.0,u,0.0,True,2691.100000023842,161.0,60.0,40.0,381.22090291052234,[],"[640, 512]",ColorTask,28.0,60.0,,,HRV,HRV_0153,2022-11-30 18:22:31
,wl-rdm,68,220559,0.0-6.60-0.60,False,,0.0,67.0,,,,,,,[],,,,,,56.4,1.0,i,1.0,True,913.8000000715256,54.0,60.0,40.0,233.38240493358063,[],"[640, 512]",ColorTask,29.0,61.0,,,HRV,HRV_0153,2022-11-30 18:22:31
,wl-rdm,69,223924,0.0-6.61-0.61,False,,0.0,68.0,,,,,,,[],,,,,,73.6,1.0,i,1.0,True,2002.5,119.0,60.0,40.0,297.5100316999724,[],"[640, 512]",ColorTask,30.0,62.0,,,HRV,HRV_0153,2022-11-30 18:22:31
,wl-rdm,70,226474,0.0-6.62-0.62,False,,0.0,69.0,,,,,,,[],,,,,,56.4,0.0,u,0.0,True,1216.2000000476837,74.0,60.0,40.0,220.85206143967412,[],"[640, 512]",ColorTask,31.0,63.0,,,HRV,HRV_0153,2022-11-30 18:22:31
,wl-rdm,71,229456,0.0-6.63-0.63,False,,0.0,70.0,,,,,,,[],,,,,,50.0,0.0,i,1.0,False,1547.3999999761581,93.0,60.0,40.0,380.357810685603,[],"[640, 512]",ColorTask,30.0,64.0,,,HRV,HRV_0153,2022-11-30 18:22:31
,wl-rdm,72,232188,0.0-6.64-0.64,False,,0.0,71.0,,,,,,,[],,,,,,62.5,1.0,i,1.0,True,1424.8000000715256,85.0,60.0,40.0,236.18373888572143,[],"[640, 512]",ColorTask,31.0,65.0,,,HRV,HRV_0153,2022-11-30 18:22:31
,wl-rdm,73,234187,0.0-6.65-0.65,False,,0.0,72.0,,,,,,,[],,,,,,87.9,0.0,u,0.0,True,693.2999999523163,40.0,60.0,40.0,245.0702230452252,[],"[640, 512]",ColorTask,32.0,66.0,,,HRV,HRV_0153,2022-11-30 18:22:31
,wl-rdm,74,236904,0.0-6.66-0.66,False,,0.0,73.0,,,,,,,[],,,,,,56.4,1.0,i,1.0,True,1423.3000000715256,86.0,60.0,40.0,207.23627210790735,[],"[640, 512]",ColorTask,33.0,67.0,,,HRV,HRV_0153,2022-11-30 18:22:31
,wl-rdm,75,239170,0.0-6.67-0.67,False,,0.0,74.0,,,,,,,[],,,,,,87.9,1.0,i,1.0,True,821.2000000476837,50.0,60.0,40.0,364.98344522694356,[],"[640, 512]",ColorTask,34.0,68.0,,,HRV,HRV_0153,2022-11-30 18:22:31
,wl-rdm,76,241302,0.0-6.68-0.68,False,,0.0,75.0,,,,,,,[],,,,,,73.6,0.0,u,0.0,True,692.0,42.0,60.0,40.0,357.31649660502796,[],"[640, 512]",ColorTask,35.0,69.0,,,HRV,HRV_0153,2022-11-30 18:22:31
,wl-rdm,77,243502,0.0-6.69-0.69,False,,0.0,76.0,,,,,,,[],,,,,,87.9,1.0,i,1.0,True,785.1999999284744,47.0,60.0,40.0,337.399351523735,[],"[640, 512]",ColorTask,36.0,70.0,,,HRV,HRV_0153,2022-11-30 18:22:31
,wl-rdm,78,245600,0.0-6.70-0.70,False,,0.0,77.0,,,,,,,[],,,,,,73.6,0.0,u,0.0,True,672.2000000476837,41.0,60.0,40.0,335.1348690717639,[],"[640, 512]",ColorTask,37.0,71.0,,,HRV,HRV_0153,2022-11-30 18:22:31
,wl-rdm,79,247816,0.0-6.71-0.71,False,,0.0,78.0,,,,,,,[],,,,,,62.5,0.0,i,1.0,False,905.2000000476837,54.0,60.0,40.0,244.29392669510938,[],"[640, 512]",ColorTask,36.0,72.0,,,HRV,HRV_0153,2022-11-30 18:22:31
,wl-rdm,80,250199,0.0-6.72-0.72,False,,0.0,79.0,,,,,,,[],,,,,,53.2,0.0,u,0.0,True,1004.8999999761581,61.0,60.0,40.0,300.4429073092876,[],"[640, 512]",ColorTask,37.0,73.0,,,HRV,HRV_0153,2022-11-30 18:22:31
,wl-rdm,81,252214,0.0-6.73-0.73,False,,0.0,80.0,,,,,,,[],,,,,,53.2,1.0,i,1.0,True,649.1999999284744,39.0,60.0,40.0,288.106345130392,[],"[640, 512]",ColorTask,38.0,74.0,,,HRV,HRV_0153,2022-11-30 18:22:31
,wl-rdm,82,254214,0.0-6.74-0.74,False,,0.0,81.0,,,,,,,[],,,,,,73.6,1.0,i,1.0,True,664.7999999523163,40.0,60.0,40.0,282.9697845057665,[],"[640, 512]",ColorTask,39.0,75.0,,,HRV,HRV_0153,2022-11-30 18:22:31
,wl-rdm,83,256779,0.0-6.75-0.75,False,,0.0,82.0,,,,,,,[],,,,,,62.5,0.0,u,0.0,True,1194.0999999046326,71.0,60.0,40.0,299.33003401441226,[],"[640, 512]",ColorTask,40.0,76.0,,,HRV,HRV_0153,2022-11-30 18:22:31
,wl-rdm,84,258762,0.0-6.76-0.76,False,,0.0,83.0,,,,,,,[],,,,,,73.6,1.0,i,1.0,True,703.6000000238419,42.0,60.0,40.0,207.02599756258536,[],"[640, 512]",ColorTask,41.0,77.0,,,HRV,HRV_0153,2022-11-30 18:22:31
,wl-rdm,85,261745,0.0-6.77-0.77,False,,0.0,84.0,,,,,,,[],,,,,,87.9,0.0,u,0.0,True,1671.2000000476837,100.0,60.0,40.0,225.2219339311782,[],"[640, 512]",ColorTask,42.0,78.0,,,HRV,HRV_0153,2022-11-30 18:22:31
,wl-rdm,86,264094,0.0-6.78-0.78,False,,0.0,85.0,,,,,,,[],,,,,,50.0,1.0,i,1.0,True,901.1000000238419,54.0,60.0,40.0,381.6126988450354,[],"[640, 512]",ColorTask,43.0,79.0,,,HRV,HRV_0153,2022-11-30 18:22:31
,wl-rdm,87,266460,0.0-6.79-0.79,False,,0.0,86.0,,,,,,,[],,,,,,87.9,0.0,u,0.0,True,989.1000000238419,60.0,60.0,40.0,286.81495346444086,[],"[640, 512]",ColorTask,44.0,80.0,,,HRV,HRV_0153,2022-11-30 18:22:31
,wl-rdm,88,268647,0.0-6.80-0.80,False,,0.0,87.0,,,,,,,[],,,,,,62.5,0.0,u,0.0,True,877.8999999761581,52.0,60.0,40.0,218.54483740316567,[],"[640, 512]",ColorTask,45.0,81.0,,,HRV,HRV_0153,2022-11-30 18:22:31
,wl-rdm,89,271058,0.0-6.81-0.81,False,,0.0,88.0,,,,,,,[],,,,,,53.2,1.0,i,1.0,True,1088.3999999761581,66.0,60.0,40.0,241.8262999551169,[],"[640, 512]",ColorTask,46.0,82.0,,,HRV,HRV_0153,2022-11-30 18:22:31
,wl-rdm,90,273407,0.0-6.82-0.82,False,,0.0,89.0,,,,,,,[],,,,,,62.5,0.0,i,1.0,False,897.7000000476837,54.0,60.0,40.0,370.58860318418954,[],"[640, 512]",ColorTask,45.0,83.0,,,HRV,HRV_0153,2022-11-30 18:22:31
,wl-rdm,91,275340,0.0-6.83-0.83,False,,0.0,90.0,,,,,,,[],,,,,,87.9,0.0,u,0.0,True,586.7000000476837,35.0,60.0,40.0,279.46313717824637,[],"[640, 512]",ColorTask,46.0,84.0,,,HRV,HRV_0153,2022-11-30 18:22:31
,wl-rdm,92,277389,0.0-6.84-0.84,False,,0.0,91.0,,,,,,,[],,,,,,53.2,1.0,i,1.0,True,667.3000000715256,40.0,60.0,40.0,301.7628521306045,[],"[640, 512]",ColorTask,47.0,85.0,,,HRV,HRV_0153,2022-11-30 18:22:31
,wl-rdm,93,279956,0.0-6.85-0.85,False,,0.0,92.0,,,,,,,[],,,,,,56.4,1.0,i,1.0,True,1243.5,75.0,60.0,40.0,237.55737822463223,[],"[640, 512]",ColorTask,48.0,86.0,,,HRV,HRV_0153,2022-11-30 18:22:31
,wl-rdm,94,282121,0.0-6.86-0.86,False,,0.0,93.0,,,,,,,[],,,,,,87.9,1.0,i,1.0,True,862.1000000238419,52.0,60.0,40.0,226.18678868355036,[],"[640, 512]",ColorTask,49.0,87.0,,,HRV,HRV_0153,2022-11-30 18:22:31
,wl-rdm,95,284404,0.0-6.87-0.87,False,,0.0,94.0,,,,,,,[],,,,,,56.4,1.0,i,1.0,True,886.0,52.0,60.0,40.0,321.14850121035,[],"[640, 512]",ColorTask,50.0,88.0,,,HRV,HRV_0153,2022-11-30 18:22:31
,wl-rdm,96,286387,0.0-6.88-0.88,False,,0.0,95.0,,,,,,,[],,,,,,73.6,1.0,i,1.0,True,608.2000000476837,37.0,60.0,40.0,284.22490020450323,[],"[640, 512]",ColorTask,51.0,89.0,,,HRV,HRV_0153,2022-11-30 18:22:31
,wl-rdm,97,288852,0.0-6.89-0.89,False,,0.0,96.0,,,,,,,[],,,,,,53.2,0.0,u,0.0,True,1191.8000000715256,72.0,60.0,40.0,207.5086805939425,[],"[640, 512]",ColorTask,52.0,90.0,,,HRV,HRV_0153,2022-11-30 18:22:31
,wl-rdm,98,290868,0.0-6.90-0.90,False,,0.0,97.0,,,,,,,[],,,,,,62.5,0.0,u,0.0,True,625.5,38.0,60.0,40.0,304.3433481459204,[],"[640, 512]",ColorTask,53.0,91.0,,,HRV,HRV_0153,2022-11-30 18:22:31
,wl-rdm,99,292935,0.0-6.91-0.91,False,,0.0,98.0,,,,,,,[],,,,,,50.0,1.0,u,0.0,False,630.8000000715256,38.0,60.0,40.0,375.9685804954265,[],"[640, 512]",ColorTask,52.0,92.0,,,HRV,HRV_0153,2022-11-30 18:22:31
,wl-rdm,100,295200,0.0-6.92-0.92,False,,0.0,99.0,,,,,,,[],,,,,,53.2,0.0,i,1.0,False,973.2000000476837,58.0,60.0,40.0,213.73465918661847,[],"[640, 512]",ColorTask,51.0,93.0,,,HRV,HRV_0153,2022-11-30 18:22:31
,wl-rdm,101,298100,0.0-6.93-0.93,False,,0.0,100.0,,,,,,,[],,,,,,56.4,0.0,u,0.0,True,1604.9000000953674,97.0,60.0,40.0,202.69185919696028,[],"[640, 512]",ColorTask,52.0,94.0,,,HRV,HRV_0153,2022-11-30 18:22:31
,wl-rdm,102,300249,0.0-6.94-0.94,False,,0.0,101.0,,,,,,,[],,,,,,73.6,0.0,u,0.0,True,746.0,45.0,60.0,40.0,321.47584134592,[],"[640, 512]",ColorTask,53.0,95.0,,,HRV,HRV_0153,2022-11-30 18:22:31
,wl-rdm,103,302298,0.0-6.95-0.95,False,,0.0,102.0,,,,,,,[],,,,,,56.4,0.0,u,0.0,True,738.2000000476837,45.0,60.0,40.0,234.9595784299922,[],"[640, 512]",ColorTask,54.0,96.0,,,HRV,HRV_0153,2022-11-30 18:22:31
,wl-rdm,104,304530,0.0-6.96-0.96,False,,0.0,103.0,,,,,,,[],,,,,,73.6,1.0,i,1.0,True,905.2999999523163,55.0,60.0,40.0,240.14022832073493,[],"[640, 512]",ColorTask,55.0,97.0,,,HRV,HRV_0153,2022-11-30 18:22:31
,wl-rdm,105,306847,0.0-6.97-0.97,False,,0.0,104.0,,,,,,,[],,,,,,50.0,1.0,u,0.0,False,1031.0,62.0,60.0,40.0,224.8625049743401,[],"[640, 512]",ColorTask,54.0,98.0,,,HRV,HRV_0153,2022-11-30 18:22:31
,wl-rdm,106,308946,0.0-6.98-0.98,False,,0.0,105.0,,,,,,,[],,,,,,87.9,1.0,i,1.0,True,778.6999999284744,47.0,60.0,40.0,237.48002256678433,[],"[640, 512]",ColorTask,55.0,99.0,,,HRV,HRV_0153,2022-11-30 18:22:31
,wl-rdm,107,311195,0.0-6.99-0.99,False,,0.0,106.0,,,,,,,[],,,,,,53.2,0.0,u,0.0,True,877.8999999761581,52.0,60.0,40.0,288.74058380904205,[],"[640, 512]",ColorTask,56.0,100.0,,,HRV,HRV_0153,2022-11-30 18:22:31
,wl-rdm,108,313494,0.0-6.100-0.100,False,,0.0,107.0,,,,,,,[],,,,,,50.0,0.0,u,0.0,True,923.8999999761581,56.0,60.0,40.0,297.6153126919394,[],"[640, 512]",ColorTask,57.0,101.0,,,HRV,HRV_0153,2022-11-30 18:22:31
,wl-rdm,109,315711,0.0-6.101-0.101,False,,0.0,108.0,,,,,,,[],,,,,,50.0,0.0,i,1.0,False,931.9999998807907,56.0,60.0,40.0,205.14065595485908,[],"[640, 512]",ColorTask,56.0,102.0,,,HRV,HRV_0153,2022-11-30 18:22:31
,wl-rdm,110,317626,0.0-6.102-0.102,False,,0.0,109.0,,,,,,,[],,,,,,87.9,0.0,u,0.0,True,511.7000000476837,31.0,60.0,40.0,324.34434291544864,[],"[640, 512]",ColorTask,57.0,103.0,,,HRV,HRV_0153,2022-11-30 18:22:31
,wl-rdm,111,319731,0.0-6.103-0.103,False,,0.0,110.0,,,,,,,[],,,,,,87.9,1.0,i,1.0,True,708.8999999761581,43.0,60.0,40.0,318.0878585278394,[],"[640, 512]",ColorTask,58.0,104.0,,,HRV,HRV_0153,2022-11-30 18:22:31
,wl-rdm,112,322008,0.0-6.104-0.104,False,,0.0,111.0,,,,,,,[],,,,,,56.4,0.0,i,1.0,False,972.1999999284744,59.0,60.0,40.0,219.5129434547468,[],"[640, 512]",ColorTask,57.0,105.0,,,HRV,HRV_0153,2022-11-30 18:22:31
,wl-rdm,113,324540,0.0-6.105-0.105,False,,0.0,112.0,,,,,,,[],,,,,,56.4,1.0,u,0.0,False,1102.6000000238419,65.0,60.0,40.0,352.92663291549394,[],"[640, 512]",ColorTask,56.0,106.0,,,HRV,HRV_0153,2022-11-30 18:22:31
,wl-rdm,114,326640,0.0-6.106-0.106,False,,0.0,113.0,,,,,,,[],,,,,,87.9,0.0,u,0.0,True,704.6000000238419,43.0,60.0,40.0,323.9646349889958,[],"[640, 512]",ColorTask,57.0,107.0,,,HRV,HRV_0153,2022-11-30 18:22:31
,wl-rdm,115,328572,0.0-6.107-0.107,False,,0.0,114.0,,,,,,,[],,,,,,87.9,1.0,i,1.0,True,517.3000000715256,30.0,60.0,40.0,337.84231895770085,[],"[640, 512]",ColorTask,58.0,108.0,,,HRV,HRV_0153,2022-11-30 18:22:31
,wl-rdm,116,331089,0.0-6.108-0.108,False,,0.0,115.0,,,,,,,[],,,,,,50.0,1.0,i,1.0,True,1237.8999999761581,75.0,60.0,40.0,201.52282151897415,[],"[640, 512]",ColorTask,59.0,109.0,,,HRV,HRV_0153,2022-11-30 18:22:31
,wl-html-keyboard-response,117,339914,0.0-7.0-0.0,,,1.0,116.0,,,,,,,,6809.300000071526,1.0,0,,,,,,,,,,,,,,,,,,,,HRV,HRV_0153,2022-11-30 18:22:31
,wl-rdm,118,342052,0.0-8.0-0.0,False,,1.0,117.0,,,,,,,[],,,,,,87.9,0.0,u,0.0,True,687.6000000238419,42.0,60.0,40.0,358.7559790421863,[],"[640, 512]",ColorTask,60.0,1.0,,,HRV,HRV_0153,2022-11-30 18:22:31
,wl-rdm,119,344251,0.0-8.1-0.1,False,,1.0,118.0,,,,,,,[],,,,,,73.6,0.0,u,0.0,True,908.1999999284744,55.0,60.0,40.0,215.82522804142192,[],"[640, 512]",ColorTask,61.0,2.0,,,HRV,HRV_0153,2022-11-30 18:22:31
,wl-rdm,120,346267,0.0-8.2-0.2,False,,1.0,119.0,,,,,,,[],,,,,,73.6,0.0,u,0.0,True,671.2999999523163,41.0,60.0,40.0,234.4648818699726,[],"[640, 512]",ColorTask,62.0,3.0,,,HRV,HRV_0153,2022-11-30 18:22:31
,wl-rdm,121,348300,0.0-8.3-0.3,False,,1.0,120.0,,,,,,,[],,,,,,56.4,0.0,u,0.0,True,703.7000000476837,42.0,60.0,40.0,260.03133932808737,[],"[640, 512]",ColorTask,63.0,4.0,,,HRV,HRV_0153,2022-11-30 18:22:31
,wl-rdm,122,350165,0.0-8.4-0.4,False,,1.0,121.0,,,,,,,[],,,,,,73.6,1.0,i,1.0,True,441.40000009536743,27.0,60.0,40.0,343.673040341613,[],"[640, 512]",ColorTask,64.0,5.0,,,HRV,HRV_0153,2022-11-30 18:22:31
,wl-rdm,123,352799,0.0-8.5-0.5,False,,1.0,122.0,,,,,,,[],,,,,,53.2,0.0,u,0.0,True,1356.3000000715256,82.0,60.0,40.0,200.1204900283331,[],"[640, 512]",ColorTask,65.0,6.0,,,HRV,HRV_0153,2022-11-30 18:22:31
,wl-rdm,124,354831,0.0-8.6-0.6,False,,1.0,123.0,,,,,,,[],,,,,,87.9,1.0,i,1.0,True,709.6999999284744,41.0,60.0,40.0,241.86337012225167,[],"[640, 512]",ColorTask,66.0,7.0,,,HRV,HRV_0153,2022-11-30 18:22:31
,wl-rdm,125,357081,0.0-8.7-0.7,False,,1.0,124.0,,,,,,,[],,,,,,73.6,1.0,i,1.0,True,796.8000000715256,48.0,60.0,40.0,373.667320865849,[],"[640, 512]",ColorTask,67.0,8.0,,,HRV,HRV_0153,2022-11-30 18:22:31
,wl-rdm,126,359231,0.0-8.8-0.8,False,,1.0,125.0,,,,,,,[],,,,,,50.0,1.0,u,0.0,False,758.7999999523163,46.0,60.0,40.0,290.75850455956993,[],"[640, 512]",ColorTask,66.0,9.0,,,HRV,HRV_0153,2022-11-30 18:22:31
,wl-rdm,127,361296,0.0-8.9-0.9,False,,1.0,126.0,,,,,,,[],,,,,,73.6,0.0,u,0.0,True,663.7000000476837,40.0,60.0,40.0,319.07243816486175,[],"[640, 512]",ColorTask,67.0,10.0,,,HRV,HRV_0153,2022-11-30 18:22:31
,wl-rdm,128,363844,0.0-8.10-0.10,False,,1.0,127.0,,,,,,,[],,,,,,53.2,1.0,u,0.0,False,1087.1000000238419,65.0,60.0,40.0,399.427928715994,[],"[640, 512]",ColorTask,66.0,11.0,,,HRV,HRV_0153,2022-11-30 18:22:31
,wl-rdm,129,365794,0.0-8.11-0.11,False,,1.0,128.0,,,,,,,[],,,,,,73.6,1.0,i,1.0,True,645.4999998807907,38.0,60.0,40.0,244.5032952684561,[],"[640, 512]",ColorTask,67.0,12.0,,,HRV,HRV_0153,2022-11-30 18:22:31
,wl-rdm,130,367977,0.0-8.12-0.12,False,,1.0,129.0,,,,,,,[],,,,,,62.5,0.0,u,0.0,True,895.3999999761581,54.0,60.0,40.0,201.44020075772696,[],"[640, 512]",ColorTask,68.0,13.0,,,HRV,HRV_0153,2022-11-30 18:22:31
,wl-rdm,131,369960,0.0-8.13-0.13,False,,1.0,130.0,,,,,,,[],,,,,,62.5,1.0,u,0.0,False,564.8999999761581,34.0,60.0,40.0,349.652093235615,[],"[640, 512]",ColorTask,67.0,14.0,,,HRV,HRV_0153,2022-11-30 18:22:31
,wl-rdm,132,371877,0.0-8.14-0.14,False,,1.0,131.0,,,,,,,[],,,,,,62.5,1.0,i,1.0,True,606.3000000715256,37.0,60.0,40.0,203.92846239805962,[],"[640, 512]",ColorTask,68.0,15.0,,,HRV,HRV_0153,2022-11-30 18:22:31
,wl-rdm,133,373742,0.0-8.15-0.15,False,,1.0,132.0,,,,,,,[],,,,,,87.9,1.0,i,1.0,True,517.6999999284744,31.0,60.0,40.0,273.15502070467346,[],"[640, 512]",ColorTask,69.0,16.0,,,HRV,HRV_0153,2022-11-30 18:22:31
,wl-rdm,134,376141,0.0-8.16-0.16,False,,1.0,133.0,,,,,,,[],,,,,,50.0,0.0,i,1.0,False,986.6000000238419,58.0,60.0,40.0,342.06828062791186,[],"[640, 512]",ColorTask,68.0,17.0,,,HRV,HRV_0153,2022-11-30 18:22:31
,wl-rdm,135,378074,0.0-8.17-0.17,False,,1.0,134.0,,,,,,,[],,,,,,87.9,1.0,i,1.0,True,637.4999998807907,39.0,60.0,40.0,213.0117658314855,[],"[640, 512]",ColorTask,69.0,18.0,,,HRV,HRV_0153,2022-11-30 18:22:31
,wl-rdm,136,380107,0.0-8.18-0.18,False,,1.0,135.0,,,,,,,[],,,,,,50.0,1.0,u,0.0,False,708.2999999523163,41.0,60.0,40.0,262.59122857702175,[],"[640, 512]",ColorTask,68.0,19.0,,,HRV,HRV_0153,2022-11-30 18:22:31
,wl-rdm,137,382655,0.0-8.19-0.19,False,,1.0,136.0,,,,,,,[],,,,,,62.5,1.0,i,1.0,True,1139.6999999284744,68.0,60.0,40.0,327.3585521017228,[],"[640, 512]",ColorTask,69.0,20.0,,,HRV,HRV_0153,2022-11-30 18:22:31
,wl-rdm,138,385321,0.0-8.20-0.20,False,,1.0,137.0,,,,,,,[],,,,,,50.0,1.0,u,0.0,False,1362.8999999761581,82.0,60.0,40.0,229.63582139925884,[],"[640, 512]",ColorTask,68.0,21.0,,,HRV,HRV_0153,2022-11-30 18:22:31
,wl-rdm,139,387437,0.0-8.21-0.21,False,,1.0,138.0,,,,,,,[],,,,,,87.9,0.0,u,0.0,True,685.5,40.0,60.0,40.0,363.99356824287906,[],"[640, 512]",ColorTask,69.0,22.0,,,HRV,HRV_0153,2022-11-30 18:22:31
,wl-rdm,140,390920,0.0-8.22-0.22,False,,1.0,139.0,,,,,,,[],,,,,,50.0,0.0,i,1.0,False,2031.3999999761581,122.0,60.0,40.0,373.06423225496036,[],"[640, 512]",ColorTask,68.0,23.0,,,HRV,HRV_0153,2022-11-30 18:22:31
,wl-rdm,141,392802,0.0-8.23-0.23,False,,1.0,140.0,,,,,,,[],,,,,,53.2,1.0,u,0.0,False,496.0,30.0,60.0,40.0,314.7824781485598,[],"[640, 512]",ColorTask,67.0,24.0,,,HRV,HRV_0153,2022-11-30 18:22:31
,wl-rdm,142,395235,0.0-8.24-0.24,False,,1.0,141.0,,,,,,,[],,,,,,50.0,1.0,i,1.0,True,988.2000000476837,60.0,60.0,40.0,358.43776625373533,[],"[640, 512]",ColorTask,68.0,25.0,,,HRV,HRV_0153,2022-11-30 18:22:31
,wl-rdm,143,397300,0.0-8.25-0.25,False,,1.0,142.0,,,,,,,[],,,,,,56.4,0.0,i,1.0,False,722.6000000238419,44.0,60.0,40.0,251.34082032991648,[],"[640, 512]",ColorTask,67.0,26.0,,,HRV,HRV_0153,2022-11-30 18:22:31
,wl-rdm,144,399250,0.0-8.26-0.26,False,,1.0,143.0,,,,,,,[],,,,,,62.5,1.0,i,1.0,True,522.3999999761581,32.0,60.0,40.0,345.5671254566704,[],"[640, 512]",ColorTask,68.0,27.0,,,HRV,HRV_0153,2022-11-30 18:22:31
,wl-rdm,145,401183,0.0-8.27-0.27,False,,1.0,144.0,,,,,,,[],,,,,,87.9,1.0,i,1.0,True,557.6000000238419,34.0,60.0,40.0,298.40496633915615,[],"[640, 512]",ColorTask,69.0,28.0,,,HRV,HRV_0153,2022-11-30 18:22:31
,wl-rdm,146,403382,0.0-8.28-0.28,False,,1.0,145.0,,,,,,,[],,,,,,56.4,1.0,u,0.0,False,822.8000000715256,50.0,60.0,40.0,257.4260949396781,[],"[640, 512]",ColorTask,68.0,29.0,,,HRV,HRV_0153,2022-11-30 18:22:31
,wl-rdm,147,405298,0.0-8.29-0.29,False,,1.0,146.0,,,,,,,[],,,,,,73.6,1.0,i,1.0,True,528.5999999046326,32.0,60.0,40.0,308.50898006088926,[],"[640, 512]",ColorTask,69.0,30.0,,,HRV,HRV_0153,2022-11-30 18:22:31
,wl-rdm,148,407364,0.0-8.30-0.30,False,,1.0,147.0,,,,,,,[],,,,,,56.4,1.0,i,1.0,True,655.3999999761581,40.0,60.0,40.0,323.72037796084237,[],"[640, 512]",ColorTask,70.0,31.0,,,HRV,HRV_0153,2022-11-30 18:22:31
,wl-rdm,149,409247,0.0-8.31-0.31,False,,1.0,148.0,,,,,,,[],,,,,,73.6,1.0,i,1.0,True,501.2000000476837,30.0,60.0,40.0,315.32894386101384,[],"[640, 512]",ColorTask,71.0,32.0,,,HRV,HRV_0153,2022-11-30 18:22:31
,wl-rdm,150,411113,0.0-8.32-0.32,False,,1.0,149.0,,,,,,,[],,,,,,53.2,1.0,i,1.0,True,547.2000000476837,33.0,60.0,40.0,240.87058629450527,[],"[640, 512]",ColorTask,72.0,33.0,,,HRV,HRV_0153,2022-11-30 18:22:31
,wl-rdm,151,413146,0.0-8.33-0.33,False,,1.0,150.0,,,,,,,[],,,,,,87.9,0.0,u,0.0,True,721.9999998807907,44.0,60.0,40.0,215.88993498995376,[],"[640, 512]",ColorTask,73.0,34.0,,,HRV,HRV_0153,2022-11-30 18:22:31
,wl-rdm,152,415195,0.0-8.34-0.34,False,,1.0,151.0,,,,,,,[],,,,,,73.6,1.0,i,1.0,True,645.6000000238419,39.0,60.0,40.0,319.9887900623033,[],"[640, 512]",ColorTask,74.0,35.0,,,HRV,HRV_0153,2022-11-30 18:22:31
,wl-rdm,153,417862,0.0-8.35-0.35,False,,1.0,152.0,,,,,,,[],,,,,,53.2,1.0,i,1.0,True,1376.2000000476837,83.0,60.0,40.0,212.11096687048843,[],"[640, 512]",ColorTask,75.0,36.0,,,HRV,HRV_0153,2022-11-30 18:22:31
,wl-rdm,154,420576,0.0-8.36-0.36,False,,1.0,153.0,,,,,,,[],,,,,,62.5,1.0,i,1.0,True,1339.4000000953674,81.0,60.0,40.0,288.2045568867029,[],"[640, 512]",ColorTask,76.0,37.0,,,HRV,HRV_0153,2022-11-30 18:22:31
,wl-rdm,155,423026,0.0-8.37-0.37,False,,1.0,154.0,,,,,,,[],,,,,,56.4,1.0,i,1.0,True,1122.2000000476837,68.0,60.0,40.0,249.36856457276286,[],"[640, 512]",ColorTask,77.0,38.0,,,HRV,HRV_0153,2022-11-30 18:22:31
,wl-rdm,156,425425,0.0-8.38-0.38,False,,1.0,155.0,,,,,,,[],,,,,,73.6,0.0,u,0.0,True,996.1999999284744,60.0,60.0,40.0,326.04593441837255,[],"[640, 512]",ColorTask,78.0,39.0,,,HRV,HRV_0153,2022-11-30 18:22:31
,wl-rdm,157,428408,0.0-8.39-0.39,False,,1.0,156.0,,,,,,,[],,,,,,56.4,0.0,u,0.0,True,1681.2999999523163,101.0,60.0,40.0,220.57802517272444,[],"[640, 512]",ColorTask,79.0,40.0,,,HRV,HRV_0153,2022-11-30 18:22:31
,wl-rdm,158,430423,0.0-8.40-0.40,False,,1.0,157.0,,,,,,,[],,,,,,56.4,0.0,u,0.0,True,712.2000000476837,43.0,60.0,40.0,219.53912313886795,[],"[640, 512]",ColorTask,80.0,41.0,,,HRV,HRV_0153,2022-11-30 18:22:31
,wl-rdm,159,432439,0.0-8.41-0.41,False,,1.0,158.0,,,,,,,[],,,,,,50.0,1.0,u,0.0,False,666.9999998807907,40.0,60.0,40.0,280.72374481307327,[],"[640, 512]",ColorTask,79.0,42.0,,,HRV,HRV_0153,2022-11-30 18:22:31
,wl-rdm,160,434605,0.0-8.42-0.42,False,,1.0,159.0,,,,,,,[],,,,,,87.9,1.0,i,1.0,True,702.8000000715256,42.0,60.0,40.0,334.2864090102512,[],"[640, 512]",ColorTask,80.0,43.0,,,HRV,HRV_0153,2022-11-30 18:22:31
,wl-rdm,161,436621,0.0-8.43-0.43,False,,1.0,160.0,,,,,,,[],,,,,,73.6,0.0,u,0.0,True,711.4000000953674,43.0,60.0,40.0,210.20046501544587,[],"[640, 512]",ColorTask,81.0,44.0,,,HRV,HRV_0153,2022-11-30 18:22:31
,wl-rdm,162,438604,0.0-8.44-0.44,False,,1.0,161.0,,,,,,,[],,,,,,53.2,0.0,i,1.0,False,644.2000000476837,39.0,60.0,40.0,265.7284228651372,[],"[640, 512]",ColorTask,80.0,45.0,,,HRV,HRV_0153,2022-11-30 18:22:31
,wl-rdm,163,440519,0.0-8.45-0.45,False,,1.0,162.0,,,,,,,[],,,,,,56.4,1.0,u,0.0,False,514.7999999523163,31.0,60.0,40.0,322.39030427996215,[],"[640, 512]",ColorTask,79.0,46.0,,,HRV,HRV_0153,2022-11-30 18:22:31
,wl-rdm,164,442586,0.0-8.46-0.46,False,,1.0,163.0,,,,,,,[],,,,,,73.6,0.0,u,0.0,True,771.2000000476837,47.0,60.0,40.0,206.65589727480722,[],"[640, 512]",ColorTask,80.0,47.0,,,HRV,HRV_0153,2022-11-30 18:22:31
,wl-rdm,165,445270,0.0-8.47-0.47,False,,1.0,164.0,,,,,,,[],,,,,,50.0,1.0,i,1.0,True,1409.3000000715256,85.0,60.0,40.0,201.8022693596796,[],"[640, 512]",ColorTask,81.0,48.0,,,HRV,HRV_0153,2022-11-30 18:22:31
,wl-rdm,166,447151,0.0-8.48-0.48,False,,1.0,165.0,,,,,,,[],,,,,,73.6,0.0,u,0.0,True,532.1000000238419,32.0,60.0,40.0,279.6046767923407,[],"[640, 512]",ColorTask,82.0,49.0,,,HRV,HRV_0153,2022-11-30 18:22:31
,wl-rdm,167,449300,0.0-8.49-0.49,False,,1.0,166.0,,,,,,,[],,,,,,62.5,1.0,i,1.0,True,826.5999999046326,50.0,60.0,40.0,243.05254132408498,[],"[640, 512]",ColorTask,83.0,50.0,,,HRV,HRV_0153,2022-11-30 18:22:31
,wl-rdm,168,451400,0.0-8.50-0.50,False,,1.0,167.0,,,,,,,[],,,,,,53.2,0.0,u,0.0,True,672.1000000238419,41.0,60.0,40.0,333.7137764259262,[],"[640, 512]",ColorTask,84.0,51.0,,,HRV,HRV_0153,2022-11-30 18:22:31
,wl-rdm,169,453482,0.0-8.51-0.51,False,,1.0,168.0,,,,,,,[],,,,,,87.9,1.0,i,1.0,True,696.0999999046326,42.0,60.0,40.0,302.77459003653814,[],"[640, 512]",ColorTask,85.0,52.0,,,HRV,HRV_0153,2022-11-30 18:22:31
,wl-rdm,170,455398,0.0-8.52-0.52,False,,1.0,169.0,,,,,,,[],,,,,,53.2,0.0,u,0.0,True,647.6000000238419,39.0,60.0,40.0,208.9157203261292,[],"[640, 512]",ColorTask,86.0,53.0,,,HRV,HRV_0153,2022-11-30 18:22:31
,wl-rdm,171,457447,0.0-8.53-0.53,False,,1.0,170.0,,,,,,,[],,,,,,73.6,0.0,i,1.0,False,640.0,39.0,60.0,40.0,319.4891011724649,[],"[640, 512]",ColorTask,85.0,54.0,,,HRV,HRV_0153,2022-11-30 18:22:31
,wl-rdm,172,459413,0.0-8.54-0.54,False,,1.0,171.0,,,,,,,[],,,,,,53.2,0.0,u,0.0,True,509.1999999284744,31.0,60.0,40.0,373.0913570174861,[],"[640, 512]",ColorTask,86.0,55.0,,,HRV,HRV_0153,2022-11-30 18:22:31
,wl-rdm,173,461629,0.0-8.55-0.55,False,,1.0,172.0,,,,,,,[],,,,,,56.4,1.0,u,0.0,False,936.1999999284744,55.0,60.0,40.0,210.4555411889777,[],"[640, 512]",ColorTask,85.0,56.0,,,HRV,HRV_0153,2022-11-30 18:22:31
,wl-rdm,174,463713,0.0-8.56-0.56,False,,1.0,173.0,,,,,,,[],,,,,,53.2,1.0,i,1.0,True,680.9000000953674,41.0,60.0,40.0,347.32173990499336,[],"[640, 512]",ColorTask,86.0,57.0,,,HRV,HRV_0153,2022-11-30 18:22:31
,wl-rdm,175,465878,0.0-8.57-0.57,False,,1.0,174.0,,,,,,,[],,,,,,62.5,0.0,u,0.0,True,885.1000000238419,52.0,60.0,40.0,211.1655568489345,[],"[640, 512]",ColorTask,87.0,58.0,,,HRV,HRV_0153,2022-11-30 18:22:31
,wl-rdm,176,468060,0.0-8.58-0.58,False,,1.0,175.0,,,,,,,[],,,,,,50.0,0.0,u,0.0,True,886.5,54.0,60.0,40.0,212.98136389332308,[],"[640, 512]",ColorTask,88.0,59.0,,,HRV,HRV_0153,2022-11-30 18:22:31
,wl-rdm,177,470160,0.0-8.59-0.59,False,,1.0,176.0,,,,,,,[],,,,,,53.2,0.0,i,1.0,False,664.2000000476837,40.0,60.0,40.0,360.1888180703505,[],"[640, 512]",ColorTask,87.0,60.0,,,HRV,HRV_0153,2022-11-30 18:22:31
,wl-rdm,178,472121,0.0-8.60-0.60,False,,1.0,177.0,,,,,,,[],,,,,,87.9,0.0,u,0.0,True,524.5,32.0,60.0,40.0,365.0016226864784,[],"[640, 512]",ColorTask,88.0,61.0,,,HRV,HRV_0153,2022-11-30 18:22:31
,wl-rdm,179,474275,0.0-8.61-0.61,False,,1.0,178.0,,,,,,,[],,,,,,50.0,0.0,i,1.0,False,804.4000000953674,48.0,60.0,40.0,271.73999582301445,[],"[640, 512]",ColorTask,87.0,62.0,,,HRV,HRV_0153,2022-11-30 18:22:31
,wl-rdm,180,476274,0.0-8.62-0.62,False,,1.0,179.0,,,,,,,[],,,,,,87.9,0.0,u,0.0,True,612.2000000476837,37.0,60.0,40.0,308.33095232658235,[],"[640, 512]",ColorTask,88.0,63.0,,,HRV,HRV_0153,2022-11-30 18:22:31
,wl-rdm,181,478407,0.0-8.63-0.63,False,,1.0,180.0,,,,,,,[],,,,,,73.6,1.0,i,1.0,True,814.7000000476837,49.0,60.0,40.0,242.9394129230094,[],"[640, 512]",ColorTask,89.0,64.0,,,HRV,HRV_0153,2022-11-30 18:22:31
,wl-rdm,182,480740,0.0-8.64-0.64,False,,1.0,181.0,,,,,,,[],,,,,,53.2,0.0,u,0.0,True,854.8000000715256,51.0,60.0,40.0,383.4865229726679,[],"[640, 512]",ColorTask,90.0,65.0,,,HRV,HRV_0153,2022-11-30 18:22:31
,wl-rdm,183,482890,0.0-8.65-0.65,False,,1.0,182.0,,,,,,,[],,,,,,87.9,0.0,i,1.0,False,838.8999998569489,50.0,60.0,40.0,246.51775814601618,[],"[640, 512]",ColorTask,89.0,66.0,,,HRV,HRV_0153,2022-11-30 18:22:31
,wl-rdm,184,485188,0.0-8.66-0.66,False,,1.0,183.0,,,,,,,[],,,,,,53.2,0.0,u,0.0,True,861.5,51.0,60.0,40.0,350.6063007571888,[],"[640, 512]",ColorTask,90.0,67.0,,,HRV,HRV_0153,2022-11-30 18:22:31
,wl-rdm,185,487170,0.0-8.67-0.67,False,,1.0,184.0,,,,,,,[],,,,,,62.5,1.0,i,1.0,True,661.6000000238419,40.0,60.0,40.0,233.67993627333638,[],"[640, 512]",ColorTask,91.0,68.0,,,HRV,HRV_0153,2022-11-30 18:22:31
,wl-rdm,186,489369,0.0-8.68-0.68,False,,1.0,185.0,,,,,,,[],,,,,,56.4,1.0,u,0.0,False,904.4000000953674,55.0,60.0,40.0,217.11779243117422,[],"[640, 512]",ColorTask,90.0,69.0,,,HRV,HRV_0153,2022-11-30 18:22:31
,wl-rdm,187,491569,0.0-8.69-0.69,False,,1.0,186.0,,,,,,,[],,,,,,53.2,0.0,u,0.0,True,771.8000000715256,46.0,60.0,40.0,337.34345929751635,[],"[640, 512]",ColorTask,91.0,70.0,,,HRV,HRV_0153,2022-11-30 18:22:31
,wl-rdm,188,493518,0.0-8.70-0.70,False,,1.0,187.0,,,,,,,[],,,,,,73.6,0.0,u,0.0,True,657.3000000715256,40.0,60.0,40.0,206.31260372222516,[],"[640, 512]",ColorTask,92.0,71.0,,,HRV,HRV_0153,2022-11-30 18:22:31
,wl-rdm,189,495337,0.0-8.71-0.71,False,,1.0,188.0,,,,,,,[],,,,,,87.9,0.0,u,0.0,True,532.2000000476837,32.0,60.0,40.0,230.34706499055176,[],"[640, 512]",ColorTask,93.0,72.0,,,HRV,HRV_0153,2022-11-30 18:22:31
,wl-rdm,190,497417,0.0-8.72-0.72,False,,1.0,189.0,,,,,,,[],,,,,,62.5,1.0,i,1.0,True,712.4999998807907,43.0,60.0,40.0,292.55806494246843,[],"[640, 512]",ColorTask,94.0,73.0,,,HRV,HRV_0153,2022-11-30 18:22:31
,wl-rdm,191,500084,0.0-8.73-0.73,False,,1.0,190.0,,,,,,,[],,,,,,62.5,0.0,u,0.0,True,1354.6000000238419,82.0,60.0,40.0,228.59211387182643,[],"[640, 512]",ColorTask,95.0,74.0,,,HRV,HRV_0153,2022-11-30 18:22:31
,wl-rdm,192,502465,0.0-8.74-0.74,False,,1.0,191.0,,,,,,,[],,,,,,56.4,0.0,i,1.0,False,919.5000001192093,55.0,60.0,40.0,374.7549677063465,[],"[640, 512]",ColorTask,94.0,75.0,,,HRV,HRV_0153,2022-11-30 18:22:31
,wl-rdm,193,504865,0.0-8.75-0.75,False,,1.0,192.0,,,,,,,[],,,,,,56.4,0.0,u,0.0,True,1095.6999998092651,66.0,60.0,40.0,225.89045138294279,[],"[640, 512]",ColorTask,95.0,76.0,,,HRV,HRV_0153,2022-11-30 18:22:31
,wl-rdm,194,507364,0.0-8.76-0.76,False,,1.0,193.0,,,,,,,[],,,,,,50.0,0.0,i,1.0,False,1168.4000000953674,71.0,60.0,40.0,245.724690605776,[],"[640, 512]",ColorTask,94.0,77.0,,,HRV,HRV_0153,2022-11-30 18:22:31
,wl-rdm,195,509330,0.0-8.77-0.77,False,,1.0,194.0,,,,,,,[],,,,,,87.9,0.0,u,0.0,True,671.8000000715256,41.0,60.0,40.0,213.9974466816633,[],"[640, 512]",ColorTask,95.0,78.0,,,HRV,HRV_0153,2022-11-30 18:22:31
,wl-rdm,196,511563,0.0-8.78-0.78,False,,1.0,195.0,,,,,,,[],,,,,,62.5,0.0,u,0.0,True,943.7000000476837,57.0,60.0,40.0,225.66148885747043,[],"[640, 512]",ColorTask,96.0,79.0,,,HRV,HRV_0153,2022-11-30 18:22:31
,wl-rdm,197,513429,0.0-8.79-0.79,False,,1.0,196.0,,,,,,,[],,,,,,62.5,1.0,i,1.0,True,586.9000000953674,35.0,60.0,40.0,204.9120285733949,[],"[640, 512]",ColorTask,97.0,80.0,,,HRV,HRV_0153,2022-11-30 18:22:31
,wl-rdm,198,515394,0.0-8.80-0.80,False,,1.0,197.0,,,,,,,[],,,,,,56.4,0.0,u,0.0,True,637.5,38.0,60.0,40.0,256.25266311630895,[],"[640, 512]",ColorTask,98.0,81.0,,,HRV,HRV_0153,2022-11-30 18:22:31
,wl-rdm,199,517410,0.0-8.81-0.81,False,,1.0,198.0,,,,,,,[],,,,,,50.0,0.0,u,0.0,True,554.7000000476837,34.0,60.0,40.0,382.1217852514901,[],"[640, 512]",ColorTask,99.0,82.0,,,HRV,HRV_0153,2022-11-30 18:22:31
,wl-rdm,200,519576,0.0-8.82-0.82,False,,1.0,199.0,,,,,,,[],,,,,,62.5,0.0,u,0.0,True,846.7000000476837,51.0,60.0,40.0,234.17349940234146,[],"[640, 512]",ColorTask,100.0,83.0,,,HRV,HRV_0153,2022-11-30 18:22:31
,wl-rdm,201,521609,0.0-8.83-0.83,False,,1.0,200.0,,,,,,,[],,,,,,50.0,1.0,i,1.0,True,726.6999999284744,42.0,60.0,40.0,238.0469327493618,[],"[640, 512]",ColorTask,101.0,84.0,,,HRV,HRV_0153,2022-11-30 18:22:31
,wl-rdm,202,523741,0.0-8.84-0.84,False,,1.0,201.0,,,,,,,[],,,,,,53.2,1.0,u,0.0,False,708.2000000476837,43.0,60.0,40.0,333.7853497376432,[],"[640, 512]",ColorTask,100.0,85.0,,,HRV,HRV_0153,2022-11-30 18:22:31
,wl-rdm,203,525725,0.0-8.85-0.85,False,,1.0,202.0,,,,,,,[],,,,,,53.2,1.0,i,1.0,True,652.5999999046326,39.0,60.0,40.0,261.919455705581,[],"[640, 512]",ColorTask,101.0,86.0,,,HRV,HRV_0153,2022-11-30 18:22:31
,wl-rdm,204,527840,0.0-8.86-0.86,False,,1.0,203.0,,,,,,,[],,,,,,56.4,1.0,i,1.0,True,688.8000000715256,42.0,60.0,40.0,299.81063823076147,[],"[640, 512]",ColorTask,102.0,87.0,,,HRV,HRV_0153,2022-11-30 18:22:31
,wl-rdm,205,529873,0.0-8.87-0.87,False,,1.0,204.0,,,,,,,[],,,,,,50.0,0.0,i,1.0,False,621.7999999523163,38.0,60.0,40.0,323.70399885988496,[],"[640, 512]",ColorTask,101.0,88.0,,,HRV,HRV_0153,2022-11-30 18:22:31
,wl-rdm,206,532156,0.0-8.88-0.88,False,,1.0,205.0,,,,,,,[],,,,,,56.4,0.0,u,0.0,True,788.299999833107,48.0,60.0,40.0,372.44368715163785,[],"[640, 512]",ColorTask,102.0,89.0,,,HRV,HRV_0153,2022-11-30 18:22:31
,wl-rdm,207,534407,0.0-8.89-0.89,False,,1.0,206.0,,,,,,,[],,,,,,50.0,0.0,i,1.0,False,835.7000000476837,50.0,60.0,40.0,344.6206888601552,[],"[640, 512]",ColorTask,101.0,90.0,,,HRV,HRV_0153,2022-11-30 18:22:31
,wl-rdm,208,536637,0.0-8.90-0.90,False,,1.0,207.0,,,,,,,[],,,,,,56.4,0.0,u,0.0,True,792.6000000238419,47.0,60.0,40.0,366.00678504952504,[],"[640, 512]",ColorTask,102.0,91.0,,,HRV,HRV_0153,2022-11-30 18:22:31
,wl-rdm,209,538788,0.0-8.91-0.91,False,,1.0,208.0,,,,,,,[],,,,,,62.5,0.0,u,0.0,True,684.8999999761581,41.0,60.0,40.0,385.252929786211,[],"[640, 512]",ColorTask,103.0,92.0,,,HRV,HRV_0153,2022-11-30 18:22:31
,wl-rdm,210,540886,0.0-8.92-0.92,False,,1.0,209.0,,,,,,,[],,,,,,87.9,1.0,i,1.0,True,657.5,40.0,60.0,40.0,369.24268566947484,[],"[640, 512]",ColorTask,104.0,93.0,,,HRV,HRV_0153,2022-11-30 18:22:31
,wl-rdm,211,542737,0.0-8.93-0.93,False,,1.0,210.0,,,,,,,[],,,,,,62.5,0.0,u,0.0,True,560.5,34.0,60.0,40.0,227.47921421526402,[],"[640, 512]",ColorTask,105.0,94.0,,,HRV,HRV_0153,2022-11-30 18:22:31
,wl-rdm,212,544868,0.0-8.94-0.94,False,,1.0,211.0,,,,,,,[],,,,,,53.2,1.0,i,1.0,True,677.2000000476837,41.0,60.0,40.0,356.8797154923966,[],"[640, 512]",ColorTask,106.0,95.0,,,HRV,HRV_0153,2022-11-30 18:22:31
,wl-rdm,213,546851,0.0-8.95-0.95,False,,1.0,212.0,,,,,,,[],,,,,,87.9,1.0,i,1.0,True,644.1999999284744,39.0,60.0,40.0,253.9789652809562,[],"[640, 512]",ColorTask,107.0,96.0,,,HRV,HRV_0153,2022-11-30 18:22:31
,wl-rdm,214,548933,0.0-8.96-0.96,False,,1.0,213.0,,,,,,,[],,,,,,53.2,1.0,i,1.0,True,803.1000000238419,48.0,60.0,40.0,210.9302473632298,[],"[640, 512]",ColorTask,108.0,97.0,,,HRV,HRV_0153,2022-11-30 18:22:31
,wl-rdm,215,550983,0.0-8.97-0.97,False,,1.0,214.0,,,,,,,[],,,,,,62.5,0.0,u,0.0,True,615.1000000238419,37.0,60.0,40.0,362.7950693599879,[],"[640, 512]",ColorTask,109.0,98.0,,,HRV,HRV_0153,2022-11-30 18:22:31
,wl-rdm,216,553215,0.0-8.98-0.98,False,,1.0,215.0,,,,,,,[],,,,,,50.0,1.0,u,0.0,False,931.0,56.0,60.0,40.0,221.7453191579426,[],"[640, 512]",ColorTask,108.0,99.0,,,HRV,HRV_0153,2022-11-30 18:22:31
,wl-rdm,217,555199,0.0-8.99-0.99,False,,1.0,216.0,,,,,,,[],,,,,,56.4,1.0,i,1.0,True,515.5000001192093,31.0,60.0,40.0,399.1032398308801,[],"[640, 512]",ColorTask,109.0,100.0,,,HRV,HRV_0153,2022-11-30 18:22:31
,wl-rdm,218,557281,0.0-8.100-0.100,False,,1.0,217.0,,,,,,,[],,,,,,56.4,1.0,u,0.0,False,771.8000000715256,46.0,60.0,40.0,221.56032800985446,[],"[640, 512]",ColorTask,108.0,101.0,,,HRV,HRV_0153,2022-11-30 18:22:31
,wl-rdm,219,559097,0.0-8.101-0.101,False,,1.0,218.0,,,,,,,[],,,,,,87.9,1.0,i,1.0,True,530.2999999523163,32.0,60.0,40.0,206.38628187983863,[],"[640, 512]",ColorTask,109.0,102.0,,,HRV,HRV_0153,2022-11-30 18:22:31
,wl-rdm,220,561013,0.0-8.102-0.102,False,,1.0,219.0,,,,,,,[],,,,,,73.6,1.0,i,1.0,True,459.2999999523163,28.0,60.0,40.0,378.4773977044447,[],"[640, 512]",ColorTask,110.0,103.0,,,HRV,HRV_0153,2022-11-30 18:22:31
,wl-rdm,221,562829,0.0-8.103-0.103,False,,1.0,220.0,,,,,,,[],,,,,,50.0,1.0,i,1.0,True,459.1999999284744,28.0,60.0,40.0,267.1622204311821,[],"[640, 512]",ColorTask,111.0,104.0,,,HRV,HRV_0153,2022-11-30 18:22:31
,wl-rdm,222,564845,0.0-8.104-0.104,False,,1.0,221.0,,,,,,,[],,,,,,87.9,0.0,u,0.0,True,654.8999999761581,40.0,60.0,40.0,274.37884412725805,[],"[640, 512]",ColorTask,112.0,105.0,,,HRV,HRV_0153,2022-11-30 18:22:31
,wl-rdm,223,566728,0.0-8.105-0.105,False,,1.0,222.0,,,,,,,[],,,,,,73.6,1.0,i,1.0,True,589.5999999046326,36.0,60.0,40.0,200.17162070667277,[],"[640, 512]",ColorTask,113.0,106.0,,,HRV,HRV_0153,2022-11-30 18:22:31
,wl-rdm,224,569061,0.0-8.106-0.106,False,,1.0,223.0,,,,,,,[],,,,,,50.0,0.0,u,0.0,True,909.5,55.0,60.0,40.0,366.1207813524427,[],"[640, 512]",ColorTask,114.0,107.0,,,HRV,HRV_0153,2022-11-30 18:22:31
,wl-rdm,225,571326,0.0-8.107-0.107,False,,1.0,224.0,,,,,,,[],,,,,,62.5,0.0,i,1.0,False,902.6999999284744,54.0,60.0,40.0,298.35146445323676,[],"[640, 512]",ColorTask,113.0,108.0,,,HRV,HRV_0153,2022-11-30 18:22:31
,wl-html-button-response,226,574274,0.0-9.0-0.0,,,,,,,,,,,,2939.1999999284744,,0,,,,,,,,,,,,,,,,,,<h3>End of this session. Thank you!</h3><br>,['Close window'],HRV,HRV_0153,2022-11-30 18:22:31
