success,trial_type,trial_index,time_elapsed,internal_node_id,missTrial,missTrialMsg,Block,TrialNumber,TrialTime,trialTimeDiff,FPS_avg,FPS_med,FPS_mode,TrialDur,winResizeTime,rt,block,button_pressed,MotCoh,MotDir,ColCoh,Color,ChoiceKey,Choice,Accuracy,RT,nFrames,FPS,PPD,onsetDelay,fullScreenExitTime,canvCenter,TrialType,Score,BlockTrial,stimulus,button_labels,exp,subjectId,date
True,fullscreen,0,43950,0.0-0.0,True,undefinedblurEvent ,0.0,0.0,,,,,,,,,,,,,,,,,,,,,,,,,,,,,,HRV,HRV_0265,2022-11-30 20:06:05
,wl-check-fps,1,48936,0.0-1.0,,,0.0,1.0,"[44413.1, 44414.2, 44428, 44444.5, 44461.4, 44477.8, 44494.8, 44511.4, 44527.8, 44544.7, 44561.2, 44578, 44594.6, 44611.2, 44628.1, 44644.4, 44661.4, 44677.9, 44694.7, 44711.3, 44727.8, 44744.6, 44761.3, 44777.7, 44794.7, 44811.1, 44828.1, 44844.5, 44861.3, 44878.1, 44894.6, 44911.3, 44928, 44944.6, 44961.2, 44977.9, 44994.6, 45011.1, 45027.9, 45044.7, 45061.4, 45077.9, 45094.5, 45111.3, 45127.9, 45144.4, 45161.3, 45177.9, 45194.4, 45211.2, 45227.8, 45244.6, 45261.3, 45280.9, 45294.5, 45311.4, 45328, 45344.6, 45361.2, 45377.9, 45394.4, 45411, 45427.7, 45444.5, 45461, 45478, 45494.4, 45511.3, 45527.9, 45544.5, 45561.8, 45577.9, 45594.9, 45611.2, 45627.9, 45644.9, 45661.2, 45678.2, 45694.7, 45711.3, 45728, 45744.5, 45761.4, 45777.8, 45794.3, 45811, 45827.7, 45844.4, 45861.2, 45877.9, 45894.5, 45911.1, 45928.4, 45944.7, 45961.2, 45978, 45994.5, 46011.2, 46027.7, 46044.6, 46061.2, 46077.9, 46094.5, 46111.2, 46127.8, 46144.6, 46161, 46177.7, 46194.3, 46210.9, 46227.6, 46244.4, 46261.1, 46277.9, 46294.5, 46311.3, 46327.9, 46344.5, 46361.2, 46378, 46394.6, 46411, 46427.7, 46444.3, 46461.2, 46477.8, 46494.5, 46511.2, 46527.9, 46544.5, 46561.2, 46577.9, 46594.5, 46611, 46627.7, 46644.3, 46661, 46677.8, 46694.3, 46711.1, 46727.8, 46744.5, 46761.2, 46777.8, 46794.4, 46811.1, 46827.6, 46844.5, 46861.2, 46877.6, 46894.5, 46911.2, 46927.9, 46944.4, 46961.2, 46977.6, 46994.5, 47011.1, 47027.8, 47044.4, 47061.1, 47077.8, 47094.6, 47111.2, 47127.8, 47144.3, 47161.2, 47177.9, 47194.5, 47211, 47227.8, 47244.4, 47261.1, 47277.7, 47294.6, 47311.1, 47327.8, 47344.5, 47361.2, 47377.8, 47394.5, 47411.1, 47427.6, 47444.3, 47461.2, 47477.7, 47494.5, 47511.2, 47527.7, 47544.5, 47561.1, 47577.6, 47594.3, 47611.2, 47627.6, 47644.5, 47661.1, 47677.8, 47694.5, 47711.1, 47727.8, 47744.4, 47761.1, 47777.8, 47794.4, 47810.9, 47827.5, 47844.4, 47860.9, 47877.7, 47894.5, 47911.1, 47927.9, 47944.5, 47961.1, 47977.9, 47994.4, 48010.9, 48027.8, 48044.4, 48061.1, 48077.6, 48094.5, 48110.9, 48127.7, 48144.4, 48161.3, 48177.6, 48194.3, 48210.9, 48227.6, 48244.2, 48261.1, 48277.8, 48294.4, 48311.1, 48327.7, 48344.3, 48361.1, 48377.8, 48394.2, 48410.8, 48427.6, 48444.4, 48461.1, 48477.8, 48494.4, 48510.9, 48527.7, 48544.5, 48561.1, 48577.8, 48594.4, 48610.9, 48627.6, 48644.2, 48661.1, 48677.8, 48694.4, 48711, 48727.7, 48744.3, 48761, 48777.7, 48794.3, 48810.9, 48827.7, 48844.4, 48860.9, 48877.5, 48894.3, 48911, 48927.7, 48944.3, 48960.9, 48977.8, 48994.3, 49011, 49027.6, 49044.2, 49061, 49077.7, 49094.3, 49110.9, 49127.7, 49144.3, 49161.1, 49177.7, 49194.2, 49210.8, 49227.5, 49244.4, 49260.8, 49277.6, 49294.3, 49311.1, 49327.7, 49344.5, 49361, 49377.5]","[1.2, 1.1, 13.8, 16.5, 16.9, 16.4, 17, 16.6, 16.4, 16.9, 16.5, 16.8, 16.6, 16.6, 16.9, 16.3, 17, 16.5, 16.8, 16.6, 16.5, 16.8, 16.7, 16.4, 17, 16.4, 17, 16.4, 16.8, 16.8, 16.5, 16.7, 16.7, 16.6, 16.6, 16.7, 16.7, 16.5, 16.8, 16.8, 16.7, 16.5, 16.6, 16.8, 16.6, 16.5, 16.9, 16.6, 16.5, 16.8, 16.6, 16.8, 16.7, 19.6, 13.6, 16.9, 16.6, 16.6, 16.6, 16.7, 16.5, 16.6, 16.7, 16.8, 16.5, 17, 16.4, 16.9, 16.6, 16.6, 17.3, 16.1, 17, 16.3, 16.7, 17, 16.3, 17, 16.5, 16.6, 16.7, 16.5, 16.9, 16.4, 16.5, 16.7, 16.7, 16.7, 16.8, 16.7, 16.6, 16.6, 17.3, 16.3, 16.5, 16.8, 16.5, 16.7, 16.5, 16.9, 16.6, 16.7, 16.6, 16.7, 16.6, 16.8, 16.4, 16.7, 16.6, 16.6, 16.7, 16.8, 16.7, 16.8, 16.6, 16.8, 16.6, 16.6, 16.7, 16.8, 16.6, 16.4, 16.7, 16.6, 16.9, 16.6, 16.7, 16.7, 16.7, 16.6, 16.7, 16.7, 16.6, 16.5, 16.7, 16.6, 16.7, 16.8, 16.5, 16.8, 16.7, 16.7, 16.7, 16.6, 16.6, 16.7, 16.5, 16.9, 16.7, 16.4, 16.9, 16.7, 16.7, 16.5, 16.8, 16.4, 16.9, 16.6, 16.7, 16.6, 16.7, 16.7, 16.8, 16.6, 16.6, 16.5, 16.9, 16.7, 16.6, 16.5, 16.8, 16.6, 16.7, 16.6, 16.9, 16.5, 16.7, 16.7, 16.7, 16.6, 16.7, 16.6, 16.5, 16.7, 16.9, 16.5, 16.8, 16.7, 16.5, 16.8, 16.6, 16.5, 16.7, 16.9, 16.4, 16.9, 16.6, 16.7, 16.7, 16.6, 16.7, 16.6, 16.7, 16.7, 16.6, 16.5, 16.6, 16.9, 16.5, 16.8, 16.8, 16.6, 16.8, 16.6, 16.6, 16.8, 16.5, 16.5, 16.9, 16.6, 16.7, 16.5, 16.9, 16.4, 16.8, 16.7, 16.9, 16.3, 16.7, 16.6, 16.7, 16.6, 16.9, 16.7, 16.6, 16.7, 16.6, 16.6, 16.8, 16.7, 16.4, 16.6, 16.8, 16.8, 16.7, 16.7, 16.6, 16.5, 16.8, 16.8, 16.6, 16.7, 16.6, 16.5, 16.7, 16.6, 16.9, 16.7, 16.6, 16.6, 16.7, 16.6, 16.7, 16.7, 16.6, 16.6, 16.8, 16.7, 16.5, 16.6, 16.8, 16.7, 16.7, 16.6, 16.6, 16.9, 16.5, 16.7, 16.6, 16.6, 16.8, 16.7, 16.6, 16.6, 16.8, 16.6, 16.8, 16.6, 16.5, 16.6, 16.7, 16.9, 16.4, 16.8, 16.7, 16.8, 16.6, 16.8, 16.5, 16.5]",60.0,60.0,60.0,4982.4,[],,,,,,,,,,,,,,,,,,,,,,,HRV,HRV_0265,2022-11-30 20:06:05
,wl-html-keyboard-response,2,59565,0.0-2.0-0.0,,,0.0,2.0,,,,,,,,8619.19999885559,0.0,0,,,,,,,,,,,,,,,,,,,,HRV,HRV_0265,2022-11-30 20:06:05
,wl-rdm,3,70283,0.0-3.0-0.0,False,too_early ,0.0,3.0,,,,,,,[],,,,0.0,0.0,87.9,0.0,u,0.0,True,2966.7000007629395,178.0,60.0,40.0,3000.0,[],"[683, 384]",ColorTask_Demo,,,,,HRV,HRV_0265,2022-11-30 20:06:05
,wl-rdm,4,76299,0.0-3.0-1.0,False,,0.0,4.0,,,,,,,[],,,,0.0,0.0,87.9,1.0,i,1.0,True,1930.5000019073486,116.0,60.0,40.0,2000.0,[],"[683, 384]",ColorTask_Demo,,,,,HRV,HRV_0265,2022-11-30 20:06:05
,wl-html-keyboard-response,5,80645,0.0-3.0-2.0,,,0.0,5.0,,,,,,,,2338.0,0.0,1,,,,,,,,,,,,,,,,,,,,HRV,HRV_0265,2022-11-30 20:06:05
,wl-html-keyboard-response,6,88285,0.0-4.0-0.0,,,0.0,6.0,,,,,,,,5634.5,0.0,0,,,,,,,,,,,,,,,,,,,,HRV,HRV_0265,2022-11-30 20:06:05
,wl-html-keyboard-response,7,106237,0.0-5.0-0.0,,,0.0,7.0,,,,,,,,15943.70000076294,0.0,0,,,,,,,,,,,,,,,,,,,,HRV,HRV_0265,2022-11-30 20:06:05
,wl-rdm,8,108764,0.0-6.0-0.0,False,,0.0,8.0,,,,,,,[],,,,,,53.2,1.0,u,0.0,False,1243.8000011444092,75.0,60.0,40.0,208.12910093315458,[],"[683, 384]",ColorTask,-1.0,1.0,,,HRV,HRV_0265,2022-11-30 20:06:05
,wl-rdm,9,112047,0.0-6.1-0.1,False,,0.0,9.0,,,,,,,[],,,,,,56.4,1.0,u,0.0,False,1984.8999996185303,120.0,60.0,40.0,200.2368242467614,[],"[683, 384]",ColorTask,-2.0,2.0,,,HRV,HRV_0265,2022-11-30 20:06:05
,wl-rdm,10,114296,0.0-6.2-0.2,False,,0.0,10.0,,,,,,,[],,,,,,73.6,0.0,u,0.0,True,923.6999988555908,56.0,60.0,40.0,239.7744952826635,[],"[683, 384]",ColorTask,-1.0,3.0,,,HRV,HRV_0265,2022-11-30 20:06:05
,wl-rdm,11,116530,0.0-6.3-0.3,False,,0.0,11.0,,,,,,,[],,,,,,87.9,0.0,u,0.0,True,787.1999988555908,48.0,60.0,40.0,379.53323893377944,[],"[683, 384]",ColorTask,0.0,4.0,,,HRV,HRV_0265,2022-11-30 20:06:05
,wl-rdm,12,118696,0.0-6.4-0.4,False,,0.0,12.0,,,,,,,[],,,,,,73.6,0.0,u,0.0,True,779.1000003814697,47.0,60.0,40.0,313.48153199508687,[],"[683, 384]",ColorTask,1.0,5.0,,,HRV,HRV_0265,2022-11-30 20:06:05
,wl-rdm,13,121246,0.0-6.5-0.5,False,,0.0,13.0,,,,,,,[],,,,,,56.4,1.0,i,1.0,True,1072.6999988555908,65.0,60.0,40.0,389.6776149983085,[],"[683, 384]",ColorTask,2.0,6.0,,,HRV,HRV_0265,2022-11-30 20:06:05
,wl-rdm,14,123329,0.0-6.6-0.6,False,,0.0,14.0,,,,,,,[],,,,,,73.6,0.0,u,0.0,True,734.9000015258789,45.0,60.0,40.0,257.6342920312335,[],"[683, 384]",ColorTask,3.0,7.0,,,HRV,HRV_0265,2022-11-30 20:06:05
,wl-rdm,15,125229,0.0-6.7-0.7,False,,0.0,15.0,,,,,,,[],,,,,,87.9,0.0,i,1.0,False,485.5,30.0,60.0,40.0,341.5182766934045,[],"[683, 384]",ColorTask,2.0,8.0,,,HRV,HRV_0265,2022-11-30 20:06:05
,wl-rdm,16,127812,0.0-6.8-0.8,False,,0.0,16.0,,,,,,,[],,,,,,56.4,1.0,i,1.0,True,1221.1000003814697,74.0,60.0,40.0,269.88843480258936,[],"[683, 384]",ColorTask,3.0,9.0,,,HRV,HRV_0265,2022-11-30 20:06:05
,wl-rdm,17,130079,0.0-6.9-0.9,False,,0.0,17.0,,,,,,,[],,,,,,56.4,0.0,u,0.0,True,819.5,50.0,60.0,40.0,359.04429339027246,[],"[683, 384]",ColorTask,4.0,10.0,,,HRV,HRV_0265,2022-11-30 20:06:05
,wl-rdm,18,132779,0.0-6.10-0.10,False,,0.0,18.0,,,,,,,[],,,,,,62.5,1.0,u,0.0,False,1352.3999977111816,82.0,60.0,40.0,252.7901308380638,[],"[683, 384]",ColorTask,3.0,11.0,,,HRV,HRV_0265,2022-11-30 20:06:05
,wl-rdm,19,134712,0.0-6.11-0.11,False,,0.0,19.0,,,,,,,[],,,,,,73.6,1.0,i,1.0,True,609.1000003814697,37.0,60.0,40.0,235.91933596365817,[],"[683, 384]",ColorTask,4.0,12.0,,,HRV,HRV_0265,2022-11-30 20:06:05
,wl-rdm,20,137178,0.0-6.12-0.12,False,,0.0,20.0,,,,,,,[],,,,,,56.4,0.0,i,1.0,False,1177.6999988555908,71.0,60.0,40.0,223.87146448109092,[],"[683, 384]",ColorTask,3.0,13.0,,,HRV,HRV_0265,2022-11-30 20:06:05
,wl-rdm,21,139745,0.0-6.13-0.13,False,,0.0,21.0,,,,,,,[],,,,,,53.2,0.0,u,0.0,True,1144.2999992370605,69.0,60.0,40.0,340.3575653302793,[],"[683, 384]",ColorTask,4.0,14.0,,,HRV,HRV_0265,2022-11-30 20:06:05
,wl-rdm,22,142711,0.0-6.14-0.14,False,,0.0,22.0,,,,,,,[],,,,,,73.6,0.0,u,0.0,True,1542.1000003814697,93.0,60.0,40.0,354.83163259651633,[],"[683, 384]",ColorTask,5.0,15.0,,,HRV,HRV_0265,2022-11-30 20:06:05
,wl-rdm,23,144778,0.0-6.15-0.15,False,,0.0,23.0,,,,,,,[],,,,,,87.9,0.0,u,0.0,True,677.8999996185303,41.0,60.0,40.0,313.56520659964923,[],"[683, 384]",ColorTask,6.0,16.0,,,HRV,HRV_0265,2022-11-30 20:06:05
,wl-rdm,24,147328,0.0-6.16-0.16,False,,0.0,24.0,,,,,,,[],,,,,,50.0,0.0,u,0.0,True,1151.8999996185303,70.0,60.0,40.0,313.5835202179827,[],"[683, 384]",ColorTask,7.0,17.0,,,HRV,HRV_0265,2022-11-30 20:06:05
,wl-rdm,25,149678,0.0-6.17-0.17,False,,0.0,25.0,,,,,,,[],,,,,,73.6,1.0,i,1.0,True,910.3999996185303,55.0,60.0,40.0,377.1519728836477,[],"[683, 384]",ColorTask,8.0,18.0,,,HRV,HRV_0265,2022-11-30 20:06:05
,wl-rdm,26,151811,0.0-6.18-0.18,False,,0.0,26.0,,,,,,,[],,,,,,53.2,0.0,u,0.0,True,826.4999980926514,50.0,60.0,40.0,219.25019631533425,[],"[683, 384]",ColorTask,9.0,19.0,,,HRV,HRV_0265,2022-11-30 20:06:05
,wl-rdm,27,153944,0.0-6.19-0.19,False,,0.0,27.0,,,,,,,[],,,,,,50.0,1.0,u,0.0,False,675.7999992370605,41.0,60.0,40.0,375.5520503456378,[],"[683, 384]",ColorTask,8.0,20.0,,,HRV,HRV_0265,2022-11-30 20:06:05
,wl-rdm,28,155977,0.0-6.20-0.20,False,,0.0,28.0,,,,,,,[],,,,,,56.4,0.0,u,0.0,True,611.1000003814697,37.0,60.0,40.0,336.0439145065053,[],"[683, 384]",ColorTask,9.0,21.0,,,HRV,HRV_0265,2022-11-30 20:06:05
,wl-rdm,29,157978,0.0-6.21-0.21,False,,0.0,29.0,,,,,,,[],,,,,,56.4,0.0,u,0.0,True,632.7999992370605,38.0,60.0,40.0,298.8952360454982,[],"[683, 384]",ColorTask,10.0,22.0,,,HRV,HRV_0265,2022-11-30 20:06:05
,wl-rdm,30,160243,0.0-6.22-0.22,False,,0.0,30.0,,,,,,,[],,,,,,87.9,0.0,u,0.0,True,985.6000003814697,60.0,60.0,40.0,211.33705211156663,[],"[683, 384]",ColorTask,11.0,23.0,,,HRV,HRV_0265,2022-11-30 20:06:05
,wl-rdm,31,162527,0.0-6.23-0.23,False,,0.0,31.0,,,,,,,[],,,,,,53.2,1.0,u,0.0,False,866.0,52.0,60.0,40.0,338.1041463002937,[],"[683, 384]",ColorTask,10.0,24.0,,,HRV,HRV_0265,2022-11-30 20:06:05
,wl-rdm,32,164593,0.0-6.24-0.24,False,,0.0,32.0,,,,,,,[],,,,,,73.6,1.0,i,1.0,True,714.6999988555908,43.0,60.0,40.0,293.26467269088084,[],"[683, 384]",ColorTask,11.0,25.0,,,HRV,HRV_0265,2022-11-30 20:06:05
,wl-rdm,33,166593,0.0-6.25-0.25,False,,0.0,33.0,,,,,,,[],,,,,,53.2,0.0,u,0.0,True,718.4999980926514,44.0,60.0,40.0,212.27780584802716,[],"[683, 384]",ColorTask,12.0,26.0,,,HRV,HRV_0265,2022-11-30 20:06:05
,wl-rdm,34,169593,0.0-6.26-0.26,False,,0.0,34.0,,,,,,,[],,,,,,53.2,1.0,u,0.0,False,1709.5000019073486,103.0,60.0,40.0,200.54850761427926,[],"[683, 384]",ColorTask,11.0,27.0,,,HRV,HRV_0265,2022-11-30 20:06:05
,wl-rdm,35,171676,0.0-6.27-0.27,False,,0.0,35.0,,,,,,,[],,,,,,73.6,0.0,u,0.0,True,741.8000011444092,45.0,60.0,40.0,275.6933701250514,[],"[683, 384]",ColorTask,12.0,28.0,,,HRV,HRV_0265,2022-11-30 20:06:05
,wl-rdm,36,174242,0.0-6.28-0.28,False,,0.0,36.0,,,,,,,[],,,,,,50.0,1.0,u,0.0,False,1086.7999992370605,66.0,60.0,40.0,394.24431197897695,[],"[683, 384]",ColorTask,11.0,29.0,,,HRV,HRV_0265,2022-11-30 20:06:05
,wl-rdm,37,177559,0.0-6.29-0.29,False,,0.0,37.0,,,,,,,[],,,,,,73.6,1.0,i,1.0,True,2031.6000003814697,122.0,60.0,40.0,223.09760941632203,[],"[683, 384]",ColorTask,12.0,30.0,,,HRV,HRV_0265,2022-11-30 20:06:05
,wl-rdm,38,179579,0.0-6.30-0.30,False,,0.0,38.0,,,,,,,[],,,,,,87.9,1.0,i,1.0,True,655.0999984741211,40.0,60.0,40.0,278.4755235332511,[],"[683, 384]",ColorTask,13.0,31.0,,,HRV,HRV_0265,2022-11-30 20:06:05
,wl-rdm,39,182042,0.0-6.31-0.31,False,,0.0,39.0,,,,,,,[],,,,,,73.6,1.0,i,1.0,True,1157.5,70.0,60.0,40.0,227.85682930499058,[],"[683, 384]",ColorTask,14.0,32.0,,,HRV,HRV_0265,2022-11-30 20:06:05
,wl-rdm,40,184042,0.0-6.32-0.32,False,,0.0,40.0,,,,,,,[],,,,,,53.2,0.0,i,1.0,False,703.1000003814697,43.0,60.0,40.0,214.53747591615007,[],"[683, 384]",ColorTask,13.0,33.0,,,HRV,HRV_0265,2022-11-30 20:06:05
,wl-rdm,41,186225,0.0-6.33-0.33,False,,0.0,41.0,,,,,,,[],,,,,,50.0,1.0,u,0.0,False,893.1000003814697,54.0,60.0,40.0,200.85458368973377,[],"[683, 384]",ColorTask,12.0,34.0,,,HRV,HRV_0265,2022-11-30 20:06:05
,wl-rdm,42,188442,0.0-6.34-0.34,False,,0.0,42.0,,,,,,,[],,,,,,87.9,1.0,i,1.0,True,762.7000007629395,46.0,60.0,40.0,381.15865452176274,[],"[683, 384]",ColorTask,13.0,35.0,,,HRV,HRV_0265,2022-11-30 20:06:05
,wl-rdm,43,190592,0.0-6.35-0.35,False,,0.0,43.0,,,,,,,[],,,,,,62.5,1.0,i,1.0,True,786.3999996185303,48.0,60.0,40.0,278.57808217923036,[],"[683, 384]",ColorTask,14.0,36.0,,,HRV,HRV_0265,2022-11-30 20:06:05
,wl-rdm,44,192908,0.0-6.36-0.36,False,,0.0,44.0,,,,,,,[],,,,,,56.4,0.0,u,0.0,True,1016.0000019073486,61.0,60.0,40.0,222.35147534077447,[],"[683, 384]",ColorTask,15.0,37.0,,,HRV,HRV_0265,2022-11-30 20:06:05
,wl-rdm,45,195008,0.0-6.37-0.37,False,,0.0,45.0,,,,,,,[],,,,,,62.5,0.0,u,0.0,True,668.4000015258789,41.0,60.0,40.0,335.87927239074884,[],"[683, 384]",ColorTask,16.0,38.0,,,HRV,HRV_0265,2022-11-30 20:06:05
,wl-rdm,46,197141,0.0-6.38-0.38,False,,0.0,46.0,,,,,,,[],,,,,,73.6,1.0,i,1.0,True,803.0,49.0,60.0,40.0,240.04789522177128,[],"[683, 384]",ColorTask,17.0,39.0,,,HRV,HRV_0265,2022-11-30 20:06:05
,wl-rdm,47,199658,0.0-6.39-0.39,False,,0.0,47.0,,,,,,,[],,,,,,53.2,1.0,u,0.0,False,1201.5,73.0,60.0,40.0,226.49061416005463,[],"[683, 384]",ColorTask,16.0,40.0,,,HRV,HRV_0265,2022-11-30 20:06:05
,wl-rdm,48,201824,0.0-6.40-0.40,False,,0.0,48.0,,,,,,,[],,,,,,62.5,0.0,u,0.0,True,812.1999988555908,49.0,60.0,40.0,294.3158254936074,[],"[683, 384]",ColorTask,17.0,41.0,,,HRV,HRV_0265,2022-11-30 20:06:05
,wl-rdm,49,204108,0.0-6.41-0.41,False,,0.0,49.0,,,,,,,[],,,,,,62.5,1.0,i,1.0,True,927.4000015258789,56.0,60.0,40.0,267.0970679676376,[],"[683, 384]",ColorTask,18.0,42.0,,,HRV,HRV_0265,2022-11-30 20:06:05
,wl-rdm,50,206807,0.0-6.42-0.42,False,,0.0,50.0,,,,,,,[],,,,,,50.0,0.0,u,0.0,True,1382.099998474121,83.0,60.0,40.0,244.02918163177654,[],"[683, 384]",ColorTask,19.0,43.0,,,HRV,HRV_0265,2022-11-30 20:06:05
,wl-rdm,51,209557,0.0-6.43-0.43,False,,0.0,51.0,,,,,,,[],,,,,,53.2,1.0,i,1.0,True,1399.3999996185303,84.0,60.0,40.0,276.95580410804314,[],"[683, 384]",ColorTask,20.0,44.0,,,HRV,HRV_0265,2022-11-30 20:06:05
,wl-rdm,52,212757,0.0-6.44-0.44,False,,0.0,52.0,,,,,,,[],,,,,,53.2,1.0,i,1.0,True,1798.8999996185303,108.0,60.0,40.0,331.8169197569385,[],"[683, 384]",ColorTask,21.0,45.0,,,HRV,HRV_0265,2022-11-30 20:06:05
,wl-rdm,53,215523,0.0-6.45-0.45,False,,0.0,53.0,,,,,,,[],,,,,,50.0,1.0,u,0.0,False,1306.7999992370605,79.0,60.0,40.0,389.63135537974813,[],"[683, 384]",ColorTask,20.0,46.0,,,HRV,HRV_0265,2022-11-30 20:06:05
,wl-rdm,54,217923,0.0-6.46-0.46,False,,0.0,54.0,,,,,,,[],,,,,,87.9,0.0,u,0.0,True,975.0,59.0,60.0,40.0,343.31488586681644,[],"[683, 384]",ColorTask,21.0,47.0,,,HRV,HRV_0265,2022-11-30 20:06:05
,wl-rdm,55,220456,0.0-6.47-0.47,False,,0.0,55.0,,,,,,,[],,,,,,50.0,1.0,u,0.0,False,1105.2000007629395,67.0,60.0,40.0,344.70370348028143,[],"[683, 384]",ColorTask,20.0,48.0,,,HRV,HRV_0265,2022-11-30 20:06:05
,wl-rdm,56,223406,0.0-6.48-0.48,False,,0.0,56.0,,,,,,,[],,,,,,56.4,0.0,u,0.0,True,1555.3000011444092,94.0,60.0,40.0,305.27436694656706,[],"[683, 384]",ColorTask,21.0,49.0,,,HRV,HRV_0265,2022-11-30 20:06:05
,wl-rdm,57,225356,0.0-6.49-0.49,False,,0.0,57.0,,,,,,,[],,,,,,87.9,1.0,i,1.0,True,566.2999992370605,34.0,60.0,40.0,302.3689149151447,[],"[683, 384]",ColorTask,22.0,50.0,,,HRV,HRV_0265,2022-11-30 20:06:05
,wl-rdm,58,229089,0.0-6.50-0.50,False,,0.0,58.0,,,,,,,[],,,,,,53.2,0.0,i,1.0,False,2419.0,146.0,60.0,40.0,224.2628245886269,[],"[683, 384]",ColorTask,21.0,51.0,,,HRV,HRV_0265,2022-11-30 20:06:05
,wl-rdm,59,231972,0.0-6.51-0.51,False,,0.0,59.0,,,,,,,[],,,,,,53.2,1.0,i,1.0,True,1602.6999988555908,97.0,60.0,40.0,200.6550783561337,[],"[683, 384]",ColorTask,22.0,52.0,,,HRV,HRV_0265,2022-11-30 20:06:05
,wl-rdm,60,234906,0.0-6.52-0.52,False,,0.0,60.0,,,,,,,[],,,,,,50.0,0.0,u,0.0,True,1501.7000007629395,91.0,60.0,40.0,337.2755878454809,[],"[683, 384]",ColorTask,23.0,53.0,,,HRV,HRV_0265,2022-11-30 20:06:05
,wl-rdm,61,238539,0.0-6.53-0.53,False,,0.0,61.0,,,,,,,[],,,,,,56.4,1.0,u,0.0,False,2285.0,138.0,60.0,40.0,282.0163074212307,[],"[683, 384]",ColorTask,22.0,54.0,,,HRV,HRV_0265,2022-11-30 20:06:05
,wl-rdm,62,240522,0.0-6.54-0.54,False,,0.0,62.0,,,,,,,[],,,,,,73.6,1.0,i,1.0,True,558.2000007629395,34.0,60.0,40.0,337.56015701635,[],"[683, 384]",ColorTask,23.0,55.0,,,HRV,HRV_0265,2022-11-30 20:06:05
,wl-rdm,63,242505,0.0-6.55-0.55,False,,0.0,63.0,,,,,,,[],,,,,,73.6,0.0,u,0.0,True,642.0,39.0,60.0,40.0,267.15690101607277,[],"[683, 384]",ColorTask,24.0,56.0,,,HRV,HRV_0265,2022-11-30 20:06:05
,wl-rdm,64,244622,0.0-6.56-0.56,False,,0.0,64.0,,,,,,,[],,,,,,62.5,0.0,u,0.0,True,657.4000015258789,40.0,60.0,40.0,393.9103876211852,[],"[683, 384]",ColorTask,25.0,57.0,,,HRV,HRV_0265,2022-11-30 20:06:05
,wl-rdm,65,246872,0.0-6.57-0.57,False,,0.0,65.0,,,,,,,[],,,,,,50.0,0.0,u,0.0,True,874.5,53.0,60.0,40.0,310.2804145750943,[],"[683, 384]",ColorTask,26.0,58.0,,,HRV,HRV_0265,2022-11-30 20:06:05
,wl-rdm,66,248938,0.0-6.58-0.58,False,,0.0,66.0,,,,,,,[],,,,,,53.2,0.0,u,0.0,True,586.2999992370605,36.0,60.0,40.0,389.39426621965447,[],"[683, 384]",ColorTask,27.0,59.0,,,HRV,HRV_0265,2022-11-30 20:06:05
,wl-rdm,67,251088,0.0-6.59-0.59,False,,0.0,67.0,,,,,,,[],,,,,,56.4,1.0,u,0.0,False,857.0,52.0,60.0,40.0,209.86584548552565,[],"[683, 384]",ColorTask,26.0,60.0,,,HRV,HRV_0265,2022-11-30 20:06:05
,wl-rdm,68,253204,0.0-6.60-0.60,False,,0.0,68.0,,,,,,,[],,,,,,62.5,1.0,i,1.0,True,743.3999996185303,45.0,60.0,40.0,287.4319796786669,[],"[683, 384]",ColorTask,27.0,61.0,,,HRV,HRV_0265,2022-11-30 20:06:05
,wl-rdm,69,255537,0.0-6.61-0.61,False,,0.0,69.0,,,,,,,[],,,,,,62.5,0.0,u,0.0,True,1002.1000003814697,61.0,60.0,40.0,242.7694161027602,[],"[683, 384]",ColorTask,28.0,62.0,,,HRV,HRV_0265,2022-11-30 20:06:05
,wl-rdm,70,257521,0.0-6.62-0.62,False,,0.0,70.0,,,,,,,[],,,,,,73.6,0.0,i,1.0,False,691.3000011444092,42.0,60.0,40.0,203.09109653624319,[],"[683, 384]",ColorTask,27.0,63.0,,,HRV,HRV_0265,2022-11-30 20:06:05
,wl-rdm,71,259637,0.0-6.63-0.63,False,,0.0,71.0,,,,,,,[],,,,,,50.0,1.0,u,0.0,False,754.8999996185303,46.0,60.0,40.0,292.53024938885665,[],"[683, 384]",ColorTask,26.0,64.0,,,HRV,HRV_0265,2022-11-30 20:06:05
,wl-rdm,72,262554,0.0-6.64-0.64,False,,0.0,72.0,,,,,,,[],,,,,,56.4,0.0,u,0.0,True,1447.8000011444092,87.0,60.0,40.0,383.9184987855371,[],"[683, 384]",ColorTask,27.0,65.0,,,HRV,HRV_0265,2022-11-30 20:06:05
,wl-rdm,73,265237,0.0-6.65-0.65,False,,0.0,73.0,,,,,,,[],,,,,,56.4,1.0,u,0.0,False,1252.3999996185303,76.0,60.0,40.0,338.99270580333416,[],"[683, 384]",ColorTask,26.0,66.0,,,HRV,HRV_0265,2022-11-30 20:06:05
,wl-rdm,74,267320,0.0-6.66-0.66,False,,0.0,74.0,,,,,,,[],,,,,,87.9,0.0,u,0.0,True,762.8999996185303,46.0,60.0,40.0,233.59399832681893,[],"[683, 384]",ColorTask,27.0,67.0,,,HRV,HRV_0265,2022-11-30 20:06:05
,wl-rdm,75,269220,0.0-6.67-0.67,False,,0.0,75.0,,,,,,,[],,,,,,87.9,0.0,u,0.0,True,539.4000015258789,33.0,60.0,40.0,298.92377938426574,[],"[683, 384]",ColorTask,28.0,68.0,,,HRV,HRV_0265,2022-11-30 20:06:05
,wl-rdm,76,271620,0.0-6.68-0.68,False,,0.0,76.0,,,,,,,[],,,,,,56.4,1.0,i,1.0,True,1018.4000015258789,62.0,60.0,40.0,308.138836106967,[],"[683, 384]",ColorTask,29.0,69.0,,,HRV,HRV_0265,2022-11-30 20:06:05
,wl-rdm,77,274336,0.0-6.69-0.69,False,,0.0,77.0,,,,,,,[],,,,,,56.4,1.0,u,0.0,False,1262.5,76.0,60.0,40.0,367.75734443886097,[],"[683, 384]",ColorTask,28.0,70.0,,,HRV,HRV_0265,2022-11-30 20:06:05
,wl-rdm,78,277519,0.0-6.70-0.70,False,,0.0,78.0,,,,,,,[],,,,,,56.4,1.0,i,1.0,True,1858.1000003814697,112.0,60.0,40.0,248.7292832727817,[],"[683, 384]",ColorTask,29.0,71.0,,,HRV,HRV_0265,2022-11-30 20:06:05
,wl-rdm,79,280203,0.0-6.71-0.71,False,,0.0,79.0,,,,,,,[],,,,,,50.0,1.0,i,1.0,True,1322.1000003814697,80.0,60.0,40.0,276.2455133062862,[],"[683, 384]",ColorTask,30.0,72.0,,,HRV,HRV_0265,2022-11-30 20:06:05
,wl-rdm,80,282219,0.0-6.72-0.72,False,,0.0,80.0,,,,,,,[],,,,,,56.4,0.0,u,0.0,True,694.5,42.0,60.0,40.0,262.76070597552336,[],"[683, 384]",ColorTask,31.0,73.0,,,HRV,HRV_0265,2022-11-30 20:06:05
,wl-rdm,81,284969,0.0-6.73-0.73,False,,0.0,81.0,,,,,,,[],,,,,,62.5,0.0,u,0.0,True,1407.5,85.0,60.0,40.0,261.4941530892636,[],"[683, 384]",ColorTask,32.0,74.0,,,HRV,HRV_0265,2022-11-30 20:06:05
,wl-rdm,82,286969,0.0-6.74-0.74,False,,0.0,82.0,,,,,,,[],,,,,,87.9,1.0,i,1.0,True,636.0,39.0,60.0,40.0,272.38152438752405,[],"[683, 384]",ColorTask,33.0,75.0,,,HRV,HRV_0265,2022-11-30 20:06:05
,wl-rdm,83,289552,0.0-6.75-0.75,False,,0.0,83.0,,,,,,,[],,,,,,62.5,1.0,i,1.0,True,1159.8999996185303,70.0,60.0,40.0,349.50272924938326,[],"[683, 384]",ColorTask,34.0,76.0,,,HRV,HRV_0265,2022-11-30 20:06:05
,wl-rdm,84,291418,0.0-6.76-0.76,False,,0.0,84.0,,,,,,,[],,,,,,53.2,1.0,i,1.0,True,574.8000011444092,35.0,60.0,40.0,201.45020818844935,[],"[683, 384]",ColorTask,35.0,77.0,,,HRV,HRV_0265,2022-11-30 20:06:05
,wl-rdm,85,293485,0.0-6.77-0.77,False,,0.0,85.0,,,,,,,[],,,,,,62.5,1.0,i,1.0,True,759.4000015258789,46.0,60.0,40.0,237.47570351247177,[],"[683, 384]",ColorTask,36.0,78.0,,,HRV,HRV_0265,2022-11-30 20:06:05
,wl-rdm,86,295851,0.0-6.78-0.78,False,,0.0,86.0,,,,,,,[],,,,,,50.0,1.0,u,0.0,False,959.2999992370605,58.0,60.0,40.0,330.43726748794995,[],"[683, 384]",ColorTask,35.0,79.0,,,HRV,HRV_0265,2022-11-30 20:06:05
,wl-rdm,87,297785,0.0-6.79-0.79,False,,0.0,87.0,,,,,,,[],,,,,,87.9,1.0,u,0.0,False,573.7999992370605,35.0,60.0,40.0,281.61346058991455,[],"[683, 384]",ColorTask,34.0,80.0,,,HRV,HRV_0265,2022-11-30 20:06:05
,wl-rdm,88,300168,0.0-6.80-0.80,False,,0.0,88.0,,,,,,,[],,,,,,73.6,0.0,u,0.0,True,985.6000003814697,60.0,60.0,40.0,326.67127739148896,[],"[683, 384]",ColorTask,35.0,81.0,,,HRV,HRV_0265,2022-11-30 20:06:05
,wl-rdm,89,302618,0.0-6.81-0.81,False,,0.0,89.0,,,,,,,[],,,,,,62.5,0.0,u,0.0,True,1057.6999988555908,64.0,60.0,40.0,304.723342264621,[],"[683, 384]",ColorTask,36.0,82.0,,,HRV,HRV_0265,2022-11-30 20:06:05
,wl-rdm,90,306101,0.0-6.82-0.82,False,,0.0,90.0,,,,,,,[],,,,,,50.0,0.0,u,0.0,True,2126.199998855591,128.0,60.0,40.0,279.71514369999545,[],"[683, 384]",ColorTask,37.0,83.0,,,HRV,HRV_0265,2022-11-30 20:06:05
,wl-rdm,91,308068,0.0-6.83-0.83,False,,0.0,91.0,,,,,,,[],,,,,,73.6,1.0,i,1.0,True,685.1999988555908,42.0,60.0,40.0,208.70024498242682,[],"[683, 384]",ColorTask,38.0,84.0,,,HRV,HRV_0265,2022-11-30 20:06:05
,wl-rdm,92,311234,0.0-6.84-0.84,False,,0.0,92.0,,,,,,,[],,,,,,56.4,0.0,u,0.0,True,1686.099998474121,102.0,60.0,40.0,394.83487417634274,[],"[683, 384]",ColorTask,39.0,85.0,,,HRV,HRV_0265,2022-11-30 20:06:05
,wl-rdm,93,313450,0.0-6.85-0.85,False,,0.0,93.0,,,,,,,[],,,,,,50.0,1.0,i,1.0,True,820.8000011444092,50.0,60.0,40.0,309.2495237019293,[],"[683, 384]",ColorTask,40.0,86.0,,,HRV,HRV_0265,2022-11-30 20:06:05
,wl-rdm,94,316867,0.0-6.86-0.86,False,,0.0,94.0,,,,,,,[],,,,,,87.9,1.0,i,1.0,True,2036.2000007629395,123.0,60.0,40.0,299.1008197192126,[],"[683, 384]",ColorTask,41.0,87.0,,,HRV,HRV_0265,2022-11-30 20:06:05
,wl-rdm,95,319017,0.0-6.87-0.87,False,,0.0,95.0,,,,,,,[],,,,,,62.5,1.0,i,1.0,True,804.1000003814697,49.0,60.0,40.0,251.14927629641218,[],"[683, 384]",ColorTask,42.0,88.0,,,HRV,HRV_0265,2022-11-30 20:06:05
,wl-rdm,96,321416,0.0-6.88-0.88,False,,0.0,96.0,,,,,,,[],,,,,,50.0,0.0,u,0.0,True,1112.7000007629395,67.0,60.0,40.0,226.86609908324178,[],"[683, 384]",ColorTask,43.0,89.0,,,HRV,HRV_0265,2022-11-30 20:06:05
,wl-rdm,97,323700,0.0-6.89-0.89,False,,0.0,97.0,,,,,,,[],,,,,,62.5,0.0,u,0.0,True,893.2999992370605,54.0,60.0,40.0,300.497987258025,[],"[683, 384]",ColorTask,44.0,90.0,,,HRV,HRV_0265,2022-11-30 20:06:05
,wl-rdm,98,326050,0.0-6.90-0.90,False,,0.0,98.0,,,,,,,[],,,,,,62.5,0.0,u,0.0,True,1026.099998474121,62.0,60.0,40.0,243.2220620211786,[],"[683, 384]",ColorTask,45.0,91.0,,,HRV,HRV_0265,2022-11-30 20:06:05
,wl-rdm,99,328683,0.0-6.91-0.91,False,,0.0,99.0,,,,,,,[],,,,,,53.2,0.0,i,1.0,False,1240.5,75.0,60.0,40.0,306.8209971646527,[],"[683, 384]",ColorTask,44.0,92.0,,,HRV,HRV_0265,2022-11-30 20:06:05
,wl-rdm,100,330783,0.0-6.92-0.92,False,,0.0,100.0,,,,,,,[],,,,,,87.9,1.0,i,1.0,True,645.5,39.0,60.0,40.0,371.5124778659158,[],"[683, 384]",ColorTask,45.0,93.0,,,HRV,HRV_0265,2022-11-30 20:06:05
,wl-rdm,101,332799,0.0-6.93-0.93,False,,0.0,101.0,,,,,,,[],,,,,,73.6,0.0,u,0.0,True,705.5,43.0,60.0,40.0,231.22558124682968,[],"[683, 384]",ColorTask,46.0,94.0,,,HRV,HRV_0265,2022-11-30 20:06:05
,wl-rdm,102,334749,0.0-6.94-0.94,False,,0.0,102.0,,,,,,,[],,,,,,87.9,1.0,i,1.0,True,570.2000007629395,35.0,60.0,40.0,314.7616392264355,[],"[683, 384]",ColorTask,47.0,95.0,,,HRV,HRV_0265,2022-11-30 20:06:05
,wl-rdm,103,338499,0.0-6.95-0.95,False,,0.0,103.0,,,,,,,[],,,,,,53.2,0.0,i,1.0,False,2451.0,148.0,60.0,40.0,200.19627543333186,[],"[683, 384]",ColorTask,46.0,96.0,,,HRV,HRV_0265,2022-11-30 20:06:05
,wl-rdm,104,340482,0.0-6.96-0.96,False,,0.0,104.0,,,,,,,[],,,,,,62.5,1.0,i,1.0,True,557.7000007629395,34.0,60.0,40.0,339.11002989650217,[],"[683, 384]",ColorTask,47.0,97.0,,,HRV,HRV_0265,2022-11-30 20:06:05
,wl-rdm,105,343282,0.0-6.97-0.97,False,,0.0,105.0,,,,,,,[],,,,,,50.0,0.0,i,1.0,False,1345.0,81.0,60.0,40.0,370.5664855512324,[],"[683, 384]",ColorTask,46.0,98.0,,,HRV,HRV_0265,2022-11-30 20:06:05
,wl-rdm,106,345465,0.0-6.98-0.98,False,,0.0,106.0,,,,,,,[],,,,,,53.2,1.0,u,0.0,False,775.2000007629395,47.0,60.0,40.0,331.8115287835726,[],"[683, 384]",ColorTask,45.0,99.0,,,HRV,HRV_0265,2022-11-30 20:06:05
,wl-rdm,107,347881,0.0-6.99-0.99,False,,0.0,107.0,,,,,,,[],,,,,,73.6,1.0,i,1.0,True,1119.5,68.0,60.0,40.0,207.98312650838852,[],"[683, 384]",ColorTask,46.0,100.0,,,HRV,HRV_0265,2022-11-30 20:06:05
,wl-rdm,108,350081,0.0-6.100-0.100,False,,0.0,108.0,,,,,,,[],,,,,,87.9,0.0,u,0.0,True,778.8999996185303,47.0,60.0,40.0,345.27097847304526,[],"[683, 384]",ColorTask,47.0,101.0,,,HRV,HRV_0265,2022-11-30 20:06:05
,wl-rdm,109,352898,0.0-6.101-0.101,False,,0.0,109.0,,,,,,,[],,,,,,62.5,1.0,i,1.0,True,1349.2000007629395,81.0,60.0,40.0,393.31802329205175,[],"[683, 384]",ColorTask,48.0,102.0,,,HRV,HRV_0265,2022-11-30 20:06:05
,wl-rdm,110,356048,0.0-6.102-0.102,False,,0.0,110.0,,,,,,,[],,,,,,50.0,0.0,u,0.0,True,1756.0,106.0,60.0,40.0,304.25234305867025,[],"[683, 384]",ColorTask,49.0,103.0,,,HRV,HRV_0265,2022-11-30 20:06:05
,wl-rdm,111,358914,0.0-6.103-0.103,False,,0.0,111.0,,,,,,,[],,,,,,53.2,0.0,i,1.0,False,1546.0,93.0,60.0,40.0,255.27329219289504,[],"[683, 384]",ColorTask,48.0,104.0,,,HRV,HRV_0265,2022-11-30 20:06:05
,wl-rdm,112,361330,0.0-6.104-0.104,False,,0.0,112.0,,,,,,,[],,,,,,50.0,0.0,u,0.0,True,1013.0,61.0,60.0,40.0,328.0258429045643,[],"[683, 384]",ColorTask,49.0,105.0,,,HRV,HRV_0265,2022-11-30 20:06:05
,wl-rdm,113,363197,0.0-6.105-0.105,False,,0.0,113.0,,,,,,,[],,,,,,87.9,1.0,i,1.0,True,578.1999988555908,35.0,60.0,40.0,205.39622735841053,[],"[683, 384]",ColorTask,50.0,106.0,,,HRV,HRV_0265,2022-11-30 20:06:05
,wl-rdm,114,365230,0.0-6.106-0.106,False,,0.0,114.0,,,,,,,[],,,,,,62.5,0.0,u,0.0,True,756.2000007629395,46.0,60.0,40.0,209.61157198895762,[],"[683, 384]",ColorTask,51.0,107.0,,,HRV,HRV_0265,2022-11-30 20:06:05
,wl-rdm,115,367347,0.0-6.107-0.107,False,,0.0,115.0,,,,,,,[],,,,,,87.9,0.0,u,0.0,True,656.6000003814697,40.0,60.0,40.0,375.49900495393,[],"[683, 384]",ColorTask,52.0,108.0,,,HRV,HRV_0265,2022-11-30 20:06:05
,wl-html-keyboard-response,116,377220,0.0-7.0-0.0,,,1.0,116.0,,,,,,,,7975.60000038147,1.0,0,,,,,,,,,,,,,,,,,,,,HRV,HRV_0265,2022-11-30 20:06:05
,wl-rdm,117,379596,0.0-8.0-0.0,False,,1.0,117.0,,,,,,,[],,,,,,62.5,0.0,u,0.0,True,903.0,55.0,60.0,40.0,390.06899324606854,[],"[683, 384]",ColorTask,53.0,1.0,,,HRV,HRV_0265,2022-11-30 20:06:05
,wl-rdm,118,381562,0.0-8.1-0.1,False,,1.0,118.0,,,,,,,[],,,,,,56.4,1.0,i,1.0,True,560.3000011444092,34.0,60.0,40.0,328.75269571114507,[],"[683, 384]",ColorTask,54.0,2.0,,,HRV,HRV_0265,2022-11-30 20:06:05
,wl-rdm,119,383679,0.0-8.2-0.2,False,,1.0,119.0,,,,,,,[],,,,,,56.4,0.0,u,0.0,True,670.6000003814697,41.0,60.0,40.0,366.0184623878455,[],"[683, 384]",ColorTask,55.0,3.0,,,HRV,HRV_0265,2022-11-30 20:06:05
,wl-rdm,120,386445,0.0-8.3-0.3,False,,1.0,120.0,,,,,,,[],,,,,,50.0,0.0,u,0.0,True,1497.7999992370605,90.0,60.0,40.0,203.2793672270792,[],"[683, 384]",ColorTask,56.0,4.0,,,HRV,HRV_0265,2022-11-30 20:06:05
,wl-rdm,121,388812,0.0-8.4-0.4,False,,1.0,121.0,,,,,,,[],,,,,,53.2,0.0,u,0.0,True,1086.0,66.0,60.0,40.0,211.52703709928613,[],"[683, 384]",ColorTask,57.0,5.0,,,HRV,HRV_0265,2022-11-30 20:06:05
,wl-rdm,122,390929,0.0-8.5-0.5,False,,1.0,122.0,,,,,,,[],,,,,,87.9,1.0,i,1.0,True,747.6000003814697,45.0,60.0,40.0,292.2776493627365,[],"[683, 384]",ColorTask,58.0,6.0,,,HRV,HRV_0265,2022-11-30 20:06:05
,wl-rdm,123,393395,0.0-8.6-0.6,False,,1.0,123.0,,,,,,,[],,,,,,50.0,1.0,u,0.0,False,1127.5,68.0,60.0,40.0,254.07967034665518,[],"[683, 384]",ColorTask,57.0,7.0,,,HRV,HRV_0265,2022-11-30 20:06:05
,wl-rdm,124,396111,0.0-8.7-0.7,False,,1.0,124.0,,,,,,,[],,,,,,62.5,1.0,i,1.0,True,1359.1000003814697,82.0,60.0,40.0,267.42912644758127,[],"[683, 384]",ColorTask,58.0,8.0,,,HRV,HRV_0265,2022-11-30 20:06:05
,wl-rdm,125,398595,0.0-8.8-0.8,False,,1.0,125.0,,,,,,,[],,,,,,73.6,0.0,u,0.0,True,1061.3000011444092,64.0,60.0,40.0,338.4257613981707,[],"[683, 384]",ColorTask,59.0,9.0,,,HRV,HRV_0265,2022-11-30 20:06:05
,wl-rdm,126,400561,0.0-8.9-0.9,False,,1.0,126.0,,,,,,,[],,,,,,62.5,1.0,i,1.0,True,626.1999988555908,38.0,60.0,40.0,262.38540689876305,[],"[683, 384]",ColorTask,60.0,10.0,,,HRV,HRV_0265,2022-11-30 20:06:05
,wl-rdm,127,402811,0.0-8.10-0.10,False,,1.0,127.0,,,,,,,[],,,,,,50.0,1.0,u,0.0,False,963.5999984741211,58.0,60.0,40.0,221.29112948899214,[],"[683, 384]",ColorTask,59.0,11.0,,,HRV,HRV_0265,2022-11-30 20:06:05
,wl-rdm,128,404694,0.0-8.11-0.11,False,,1.0,128.0,,,,,,,[],,,,,,73.6,1.0,i,1.0,True,528.2999992370605,32.0,60.0,40.0,276.4744289962275,[],"[683, 384]",ColorTask,60.0,12.0,,,HRV,HRV_0265,2022-11-30 20:06:05
,wl-rdm,129,406677,0.0-8.12-0.12,False,,1.0,129.0,,,,,,,[],,,,,,50.0,1.0,u,0.0,False,674.8999996185303,41.0,60.0,40.0,220.62211461749405,[],"[683, 384]",ColorTask,59.0,13.0,,,HRV,HRV_0265,2022-11-30 20:06:05
,wl-rdm,130,408911,0.0-8.13-0.13,False,,1.0,130.0,,,,,,,[],,,,,,50.0,1.0,u,0.0,False,760.0999984741211,46.0,60.0,40.0,395.83582768825414,[],"[683, 384]",ColorTask,58.0,14.0,,,HRV,HRV_0265,2022-11-30 20:06:05
,wl-rdm,131,411427,0.0-8.14-0.14,False,,1.0,131.0,,,,,,,[],,,,,,50.0,1.0,u,0.0,False,1046.1000003814697,63.0,60.0,40.0,393.55770302265523,[],"[683, 384]",ColorTask,57.0,15.0,,,HRV,HRV_0265,2022-11-30 20:06:05
,wl-rdm,132,413377,0.0-8.15-0.15,False,,1.0,132.0,,,,,,,[],,,,,,73.6,1.0,i,1.0,True,620.5,38.0,60.0,40.0,250.13791801997772,[],"[683, 384]",ColorTask,58.0,16.0,,,HRV,HRV_0265,2022-11-30 20:06:05
,wl-rdm,133,415793,0.0-8.16-0.16,False,,1.0,133.0,,,,,,,[],,,,,,53.2,0.0,u,0.0,True,1044.6000003814697,63.0,60.0,40.0,284.35009987160583,[],"[683, 384]",ColorTask,59.0,17.0,,,HRV,HRV_0265,2022-11-30 20:06:05
,wl-rdm,134,418360,0.0-8.17-0.17,False,,1.0,134.0,,,,,,,[],,,,,,62.5,0.0,u,0.0,True,1184.8999996185303,72.0,60.0,40.0,293.0016270056143,[],"[683, 384]",ColorTask,60.0,18.0,,,HRV,HRV_0265,2022-11-30 20:06:05
,wl-rdm,135,420376,0.0-8.18-0.18,False,,1.0,135.0,,,,,,,[],,,,,,73.6,1.0,i,1.0,True,687.6999988555908,42.0,60.0,40.0,241.43849288711024,[],"[683, 384]",ColorTask,61.0,19.0,,,HRV,HRV_0265,2022-11-30 20:06:05
,wl-rdm,136,422426,0.0-8.19-0.19,False,,1.0,136.0,,,,,,,[],,,,,,62.5,0.0,u,0.0,True,758.8999996185303,46.0,60.0,40.0,215.403422780167,[],"[683, 384]",ColorTask,62.0,20.0,,,HRV,HRV_0265,2022-11-30 20:06:05
,wl-rdm,137,424809,0.0-8.20-0.20,False,,1.0,137.0,,,,,,,[],,,,,,50.0,1.0,u,0.0,False,1049.3000011444092,63.0,60.0,40.0,266.2163238196491,[],"[683, 384]",ColorTask,61.0,21.0,,,HRV,HRV_0265,2022-11-30 20:06:05
,wl-rdm,138,427276,0.0-8.21-0.21,False,,1.0,138.0,,,,,,,[],,,,,,87.9,0.0,u,0.0,True,1038.1999988555908,63.0,60.0,40.0,334.3416796099621,[],"[683, 384]",ColorTask,62.0,22.0,,,HRV,HRV_0265,2022-11-30 20:06:05
,wl-rdm,139,429342,0.0-8.22-0.22,False,,1.0,139.0,,,,,,,[],,,,,,73.6,0.0,u,0.0,True,695.3999996185303,42.0,60.0,40.0,308.2359668159905,[],"[683, 384]",ColorTask,63.0,23.0,,,HRV,HRV_0265,2022-11-30 20:06:05
,wl-rdm,140,431526,0.0-8.23-0.23,False,,1.0,140.0,,,,,,,[],,,,,,53.2,0.0,u,0.0,True,874.2000007629395,53.0,60.0,40.0,246.70092554164563,[],"[683, 384]",ColorTask,64.0,24.0,,,HRV,HRV_0265,2022-11-30 20:06:05
,wl-rdm,141,433709,0.0-8.24-0.24,False,,1.0,141.0,,,,,,,[],,,,,,53.2,1.0,u,0.0,False,707.2000007629395,43.0,60.0,40.0,390.0842790422058,[],"[683, 384]",ColorTask,63.0,25.0,,,HRV,HRV_0265,2022-11-30 20:06:05
,wl-rdm,142,436108,0.0-8.25-0.25,False,,1.0,142.0,,,,,,,[],,,,,,56.4,1.0,u,0.0,False,1132.0,68.0,60.0,40.0,214.30141846440017,[],"[683, 384]",ColorTask,62.0,26.0,,,HRV,HRV_0265,2022-11-30 20:06:05
,wl-rdm,143,437958,0.0-8.26-0.26,False,,1.0,143.0,,,,,,,[],,,,,,87.9,0.0,u,0.0,True,532.5,32.0,60.0,40.0,257.799937619657,[],"[683, 384]",ColorTask,63.0,27.0,,,HRV,HRV_0265,2022-11-30 20:06:05
,wl-rdm,144,439692,0.0-8.27-0.27,False,,1.0,144.0,,,,,,,[],,,,,,87.9,1.0,i,1.0,True,425.5,26.0,60.0,40.0,244.63426843796634,[],"[683, 384]",ColorTask,64.0,28.0,,,HRV,HRV_0265,2022-11-30 20:06:05
,wl-rdm,145,441692,0.0-8.28-0.28,False,,1.0,145.0,,,,,,,[],,,,,,87.9,0.0,u,0.0,True,604.8999996185303,37.0,60.0,40.0,326.0727756197347,[],"[683, 384]",ColorTask,65.0,29.0,,,HRV,HRV_0265,2022-11-30 20:06:05
,wl-rdm,146,443441,0.0-8.29-0.29,False,,1.0,146.0,,,,,,,[],,,,,,73.6,1.0,i,1.0,True,411.1999988555908,25.0,60.0,40.0,263.0869688497845,[],"[683, 384]",ColorTask,66.0,30.0,,,HRV,HRV_0265,2022-11-30 20:06:05
,wl-rdm,147,445441,0.0-8.30-0.30,False,,1.0,147.0,,,,,,,[],,,,,,62.5,0.0,u,0.0,True,605.6999988555908,37.0,60.0,40.0,310.6775158259501,[],"[683, 384]",ColorTask,67.0,31.0,,,HRV,HRV_0265,2022-11-30 20:06:05
,wl-rdm,148,447191,0.0-8.31-0.31,False,,1.0,148.0,,,,,,,[],,,,,,73.6,1.0,i,1.0,True,406.6000003814697,25.0,60.0,40.0,265.96844129485953,[],"[683, 384]",ColorTask,68.0,32.0,,,HRV,HRV_0265,2022-11-30 20:06:05
,wl-rdm,149,449108,0.0-8.32-0.32,False,,1.0,149.0,,,,,,,[],,,,,,56.4,0.0,u,0.0,True,647.7000007629395,39.0,60.0,40.0,214.78527456062287,[],"[683, 384]",ColorTask,69.0,33.0,,,HRV,HRV_0265,2022-11-30 20:06:05
,wl-rdm,150,450974,0.0-8.33-0.33,False,,1.0,150.0,,,,,,,[],,,,,,62.5,1.0,i,1.0,True,468.79999923706055,29.0,60.0,40.0,317.2045451441914,[],"[683, 384]",ColorTask,70.0,34.0,,,HRV,HRV_0265,2022-11-30 20:06:05
,wl-rdm,151,452907,0.0-8.34-0.34,False,,1.0,151.0,,,,,,,[],,,,,,53.2,1.0,u,0.0,False,616.5,37.0,60.0,40.0,241.35091234698794,[],"[683, 384]",ColorTask,69.0,35.0,,,HRV,HRV_0265,2022-11-30 20:06:05
,wl-rdm,152,454924,0.0-8.35-0.35,False,,1.0,152.0,,,,,,,[],,,,,,73.6,0.0,u,0.0,True,685.3999996185303,42.0,60.0,40.0,235.65168230960452,[],"[683, 384]",ColorTask,70.0,36.0,,,HRV,HRV_0265,2022-11-30 20:06:05
,wl-rdm,153,456874,0.0-8.36-0.36,False,,1.0,153.0,,,,,,,[],,,,,,56.4,0.0,u,0.0,True,611.5999984741211,37.0,60.0,40.0,262.5315488953893,[],"[683, 384]",ColorTask,71.0,37.0,,,HRV,HRV_0265,2022-11-30 20:06:05
,wl-rdm,154,458840,0.0-8.37-0.37,False,,1.0,154.0,,,,,,,[],,,,,,62.5,1.0,u,0.0,False,487.29999923706055,30.0,60.0,40.0,397.43532410283126,[],"[683, 384]",ColorTask,70.0,38.0,,,HRV,HRV_0265,2022-11-30 20:06:05
,wl-rdm,155,460657,0.0-8.38-0.38,False,,1.0,155.0,,,,,,,[],,,,,,56.4,1.0,i,1.0,True,513.3999996185303,31.0,60.0,40.0,219.78502858509742,[],"[683, 384]",ColorTask,71.0,39.0,,,HRV,HRV_0265,2022-11-30 20:06:05
,wl-rdm,156,462623,0.0-8.39-0.39,False,,1.0,156.0,,,,,,,[],,,,,,73.6,1.0,i,1.0,True,507.1000003814697,31.0,60.0,40.0,374.74784913458063,[],"[683, 384]",ColorTask,72.0,40.0,,,HRV,HRV_0265,2022-11-30 20:06:05
,wl-rdm,157,464673,0.0-8.40-0.40,False,,1.0,157.0,,,,,,,[],,,,,,50.0,0.0,u,0.0,True,752.7999992370605,46.0,60.0,40.0,208.6502964769532,[],"[683, 384]",ColorTask,73.0,41.0,,,HRV,HRV_0265,2022-11-30 20:06:05
,wl-rdm,158,466757,0.0-8.41-0.41,False,,1.0,158.0,,,,,,,[],,,,,,53.2,1.0,u,0.0,False,776.7999992370605,47.0,60.0,40.0,216.951961665209,[],"[683, 384]",ColorTask,72.0,42.0,,,HRV,HRV_0265,2022-11-30 20:06:05
,wl-rdm,159,468673,0.0-8.42-0.42,False,,1.0,159.0,,,,,,,[],,,,,,62.5,0.0,u,0.0,True,537.2999992370605,33.0,60.0,40.0,298.8929159586921,[],"[683, 384]",ColorTask,73.0,43.0,,,HRV,HRV_0265,2022-11-30 20:06:05
,wl-rdm,160,470657,0.0-8.43-0.43,False,,1.0,160.0,,,,,,,[],,,,,,56.4,0.0,u,0.0,True,673.8000011444092,41.0,60.0,40.0,225.87719475791724,[],"[683, 384]",ColorTask,74.0,44.0,,,HRV,HRV_0265,2022-11-30 20:06:05
,wl-rdm,161,472489,0.0-8.44-0.44,False,,1.0,161.0,,,,,,,[],,,,,,53.2,0.0,u,0.0,True,464.9000015258789,28.0,60.0,40.0,289.62203415844317,[],"[683, 384]",ColorTask,75.0,45.0,,,HRV,HRV_0265,2022-11-30 20:06:05
,wl-rdm,162,474739,0.0-8.45-0.45,False,,1.0,162.0,,,,,,,[],,,,,,56.4,1.0,i,1.0,True,948.2999992370605,57.0,60.0,40.0,218.950797406664,[],"[683, 384]",ColorTask,76.0,46.0,,,HRV,HRV_0265,2022-11-30 20:06:05
,wl-rdm,163,476556,0.0-8.46-0.46,False,,1.0,163.0,,,,,,,[],,,,,,73.6,0.0,u,0.0,True,506.70000076293945,31.0,60.0,40.0,242.6473635134845,[],"[683, 384]",ColorTask,77.0,47.0,,,HRV,HRV_0265,2022-11-30 20:06:05
,wl-rdm,164,478573,0.0-8.47-0.47,False,,1.0,164.0,,,,,,,[],,,,,,53.2,0.0,u,0.0,True,715.7000007629395,43.0,60.0,40.0,240.65534592560385,[],"[683, 384]",ColorTask,78.0,48.0,,,HRV,HRV_0265,2022-11-30 20:06:05
,wl-rdm,165,480656,0.0-8.48-0.48,False,,1.0,165.0,,,,,,,[],,,,,,73.6,0.0,u,0.0,True,699.1000003814697,42.0,60.0,40.0,309.2109288983097,[],"[683, 384]",ColorTask,79.0,49.0,,,HRV,HRV_0265,2022-11-30 20:06:05
,wl-rdm,166,482790,0.0-8.49-0.49,False,,1.0,166.0,,,,,,,[],,,,,,56.4,1.0,u,0.0,False,798.3999996185303,48.0,60.0,40.0,261.86615593756727,[],"[683, 384]",ColorTask,78.0,50.0,,,HRV,HRV_0265,2022-11-30 20:06:05
,wl-rdm,167,484906,0.0-8.50-0.50,False,,1.0,167.0,,,,,,,[],,,,,,50.0,0.0,u,0.0,True,666.7999992370605,40.0,60.0,40.0,366.60364013062974,[],"[683, 384]",ColorTask,79.0,51.0,,,HRV,HRV_0265,2022-11-30 20:06:05
,wl-rdm,168,486973,0.0-8.51-0.51,False,,1.0,168.0,,,,,,,[],,,,,,56.4,0.0,u,0.0,True,589.7000007629395,36.0,60.0,40.0,386.8810754401694,[],"[683, 384]",ColorTask,80.0,52.0,,,HRV,HRV_0265,2022-11-30 20:06:05
,wl-rdm,169,489139,0.0-8.52-0.52,False,,1.0,169.0,,,,,,,[],,,,,,50.0,0.0,u,0.0,True,698.1000003814697,42.0,60.0,40.0,391.1929907330226,[],"[683, 384]",ColorTask,81.0,53.0,,,HRV,HRV_0265,2022-11-30 20:06:05
,wl-rdm,170,491139,0.0-8.53-0.53,False,,1.0,170.0,,,,,,,[],,,,,,87.9,1.0,i,1.0,True,647.1000003814697,39.0,60.0,40.0,293.9977374122982,[],"[683, 384]",ColorTask,82.0,54.0,,,HRV,HRV_0265,2022-11-30 20:06:05
,wl-rdm,171,493556,0.0-8.54-0.54,False,,1.0,171.0,,,,,,,[],,,,,,87.9,1.0,i,1.0,True,954.3999996185303,58.0,60.0,40.0,370.68009442234523,[],"[683, 384]",ColorTask,83.0,55.0,,,HRV,HRV_0265,2022-11-30 20:06:05
,wl-rdm,172,495672,0.0-8.55-0.55,False,,1.0,172.0,,,,,,,[],,,,,,50.0,1.0,u,0.0,False,703.2999992370605,43.0,60.0,40.0,318.0061684984174,[],"[683, 384]",ColorTask,82.0,56.0,,,HRV,HRV_0265,2022-11-30 20:06:05
,wl-rdm,173,497755,0.0-8.56-0.56,False,,1.0,173.0,,,,,,,[],,,,,,73.6,1.0,u,0.0,False,777.3999977111816,47.0,60.0,40.0,228.75040131522695,[],"[683, 384]",ColorTask,81.0,57.0,,,HRV,HRV_0265,2022-11-30 20:06:05
,wl-rdm,174,499755,0.0-8.57-0.57,False,,1.0,174.0,,,,,,,[],,,,,,56.4,0.0,u,0.0,True,616.1000003814697,37.0,60.0,40.0,308.6004876915617,[],"[683, 384]",ColorTask,82.0,58.0,,,HRV,HRV_0265,2022-11-30 20:06:05
,wl-rdm,175,503222,0.0-8.58-0.58,False,,1.0,175.0,,,,,,,[],,,,,,50.0,1.0,u,0.0,False,2003.8000011444092,121.0,60.0,40.0,394.14639314093876,[],"[683, 384]",ColorTask,81.0,59.0,,,HRV,HRV_0265,2022-11-30 20:06:05
,wl-rdm,176,505221,0.0-8.59-0.59,False,,1.0,176.0,,,,,,,[],,,,,,50.0,0.0,i,1.0,False,688.5,42.0,60.0,40.0,235.90065440504725,[],"[683, 384]",ColorTask,80.0,60.0,,,HRV,HRV_0265,2022-11-30 20:06:05
,wl-rdm,177,507305,0.0-8.60-0.60,False,,1.0,177.0,,,,,,,[],,,,,,87.9,0.0,u,0.0,True,746.8999996185303,45.0,60.0,40.0,250.8528685997272,[],"[683, 384]",ColorTask,81.0,61.0,,,HRV,HRV_0265,2022-11-30 20:06:05
,wl-rdm,178,509155,0.0-8.61-0.61,False,,1.0,178.0,,,,,,,[],,,,,,62.5,0.0,u,0.0,True,493.0,30.0,60.0,40.0,270.27026315086425,[],"[683, 384]",ColorTask,82.0,62.0,,,HRV,HRV_0265,2022-11-30 20:06:05
,wl-rdm,179,511554,0.0-8.62-0.62,False,,1.0,179.0,,,,,,,[],,,,,,53.2,0.0,i,1.0,False,977.0000019073486,59.0,60.0,40.0,333.50073149734726,[],"[683, 384]",ColorTask,81.0,63.0,,,HRV,HRV_0265,2022-11-30 20:06:05
,wl-rdm,180,513337,0.0-8.63-0.63,False,,1.0,180.0,,,,,,,[],,,,,,62.5,0.0,u,0.0,True,480.1000003814697,29.0,60.0,40.0,219.4248269659681,[],"[683, 384]",ColorTask,82.0,64.0,,,HRV,HRV_0265,2022-11-30 20:06:05
,wl-rdm,181,515104,0.0-8.64-0.64,False,,1.0,181.0,,,,,,,[],,,,,,87.9,0.0,u,0.0,True,439.79999923706055,27.0,60.0,40.0,236.44805074988142,[],"[683, 384]",ColorTask,83.0,65.0,,,HRV,HRV_0265,2022-11-30 20:06:05
,wl-rdm,182,517637,0.0-8.65-0.65,False,,1.0,182.0,,,,,,,[],,,,,,50.0,0.0,u,0.0,True,1221.1999988555908,74.0,60.0,40.0,231.28829833630945,[],"[683, 384]",ColorTask,84.0,66.0,,,HRV,HRV_0265,2022-11-30 20:06:05
,wl-rdm,183,520154,0.0-8.66-0.66,False,,1.0,183.0,,,,,,,[],,,,,,53.2,0.0,u,0.0,True,1225.2999992370605,74.0,60.0,40.0,212.91243002189958,[],"[683, 384]",ColorTask,85.0,67.0,,,HRV,HRV_0265,2022-11-30 20:06:05
,wl-rdm,184,522637,0.0-8.67-0.67,False,,1.0,184.0,,,,,,,[],,,,,,53.2,1.0,u,0.0,False,1161.0,70.0,60.0,40.0,235.85276738829387,[],"[683, 384]",ColorTask,84.0,68.0,,,HRV,HRV_0265,2022-11-30 20:06:05
,wl-rdm,185,524553,0.0-8.68-0.68,False,,1.0,185.0,,,,,,,[],,,,,,87.9,1.0,u,0.0,False,554.2999992370605,34.0,60.0,40.0,274.96801124841693,[],"[683, 384]",ColorTask,83.0,69.0,,,HRV,HRV_0265,2022-11-30 20:06:05
,wl-rdm,186,526287,0.0-8.69-0.69,False,,1.0,186.0,,,,,,,[],,,,,,73.6,0.0,i,1.0,False,395.6999988555908,24.0,60.0,40.0,263.1790367112519,[],"[683, 384]",ColorTask,82.0,70.0,,,HRV,HRV_0265,2022-11-30 20:06:05
,wl-rdm,187,529053,0.0-8.70-0.70,False,,1.0,187.0,,,,,,,[],,,,,,62.5,1.0,i,1.0,True,1467.6000003814697,89.0,60.0,40.0,225.1757927911418,[],"[683, 384]",ColorTask,83.0,71.0,,,HRV,HRV_0265,2022-11-30 20:06:05
,wl-rdm,188,531486,0.0-8.71-0.71,False,,1.0,188.0,,,,,,,[],,,,,,73.6,1.0,i,1.0,True,967.3999996185303,59.0,60.0,40.0,373.2873081577435,[],"[683, 384]",ColorTask,84.0,72.0,,,HRV,HRV_0265,2022-11-30 20:06:05
,wl-rdm,189,533970,0.0-8.72-0.72,False,,1.0,189.0,,,,,,,[],,,,,,53.2,1.0,u,0.0,False,1078.5,65.0,60.0,40.0,327.82298240357954,[],"[683, 384]",ColorTask,83.0,73.0,,,HRV,HRV_0265,2022-11-30 20:06:05
,wl-rdm,190,535886,0.0-8.73-0.73,False,,1.0,190.0,,,,,,,[],,,,,,53.2,1.0,u,0.0,False,599.7999973297119,36.0,60.0,40.0,233.96651765812794,[],"[683, 384]",ColorTask,82.0,74.0,,,HRV,HRV_0265,2022-11-30 20:06:05
,wl-rdm,191,538486,0.0-8.74-0.74,False,,1.0,191.0,,,,,,,[],,,,,,56.4,1.0,u,0.0,False,1274.900001525879,77.0,60.0,40.0,235.0028123361471,[],"[683, 384]",ColorTask,81.0,75.0,,,HRV,HRV_0265,2022-11-30 20:06:05
,wl-rdm,192,540786,0.0-8.75-0.75,False,,1.0,192.0,,,,,,,[],,,,,,53.2,1.0,u,0.0,False,879.7999992370605,53.0,60.0,40.0,346.4063390777832,[],"[683, 384]",ColorTask,80.0,76.0,,,HRV,HRV_0265,2022-11-30 20:06:05
,wl-rdm,193,542651,0.0-8.76-0.76,False,,1.0,193.0,,,,,,,[],,,,,,56.4,1.0,i,1.0,True,491.29999923706055,30.0,60.0,40.0,291.7409012793893,[],"[683, 384]",ColorTask,81.0,77.0,,,HRV,HRV_0265,2022-11-30 20:06:05
,wl-rdm,194,545068,0.0-8.77-0.77,False,,1.0,194.0,,,,,,,[],,,,,,62.5,1.0,i,1.0,True,945.0000019073486,57.0,60.0,40.0,384.9076396581794,[],"[683, 384]",ColorTask,82.0,78.0,,,HRV,HRV_0265,2022-11-30 20:06:05
,wl-rdm,195,547785,0.0-8.78-0.78,False,,1.0,195.0,,,,,,,[],,,,,,53.2,1.0,u,0.0,False,1300.6000003814697,79.0,60.0,40.0,323.14819647360156,[],"[683, 384]",ColorTask,81.0,79.0,,,HRV,HRV_0265,2022-11-30 20:06:05
,wl-rdm,196,549834,0.0-8.79-0.79,False,,1.0,196.0,,,,,,,[],,,,,,87.9,0.0,u,0.0,True,695.1000003814697,42.0,60.0,40.0,270.40793075866304,[],"[683, 384]",ColorTask,82.0,80.0,,,HRV,HRV_0265,2022-11-30 20:06:05
,wl-rdm,197,551934,0.0-8.80-0.80,False,,1.0,197.0,,,,,,,[],,,,,,53.2,0.0,u,0.0,True,695.7000007629395,42.0,60.0,40.0,344.1029620302438,[],"[683, 384]",ColorTask,83.0,81.0,,,HRV,HRV_0265,2022-11-30 20:06:05
,wl-rdm,198,554017,0.0-8.81-0.81,False,,1.0,198.0,,,,,,,[],,,,,,73.6,0.0,u,0.0,True,684.7000007629395,42.0,60.0,40.0,304.2064202504773,[],"[683, 384]",ColorTask,84.0,82.0,,,HRV,HRV_0265,2022-11-30 20:06:05
,wl-rdm,199,556384,0.0-8.82-0.82,False,,1.0,199.0,,,,,,,[],,,,,,50.0,0.0,u,0.0,True,1020.8999996185303,62.0,60.0,40.0,260.431848438339,[],"[683, 384]",ColorTask,85.0,83.0,,,HRV,HRV_0265,2022-11-30 20:06:05
,wl-rdm,200,558317,0.0-8.83-0.83,False,,1.0,200.0,,,,,,,[],,,,,,87.9,1.0,i,1.0,True,566.2000007629395,34.0,60.0,40.0,286.60124066228065,[],"[683, 384]",ColorTask,86.0,84.0,,,HRV,HRV_0265,2022-11-30 20:06:05
,wl-rdm,201,560484,0.0-8.84-0.84,False,,1.0,201.0,,,,,,,[],,,,,,62.5,1.0,i,1.0,True,798.1999988555908,48.0,60.0,40.0,308.19310711003004,[],"[683, 384]",ColorTask,87.0,85.0,,,HRV,HRV_0265,2022-11-30 20:06:05
,wl-rdm,202,562600,0.0-8.85-0.85,False,,1.0,202.0,,,,,,,[],,,,,,53.2,1.0,i,1.0,True,782.5000019073486,47.0,60.0,40.0,262.3716818595401,[],"[683, 384]",ColorTask,88.0,86.0,,,HRV,HRV_0265,2022-11-30 20:06:05
,wl-rdm,203,564550,0.0-8.86-0.86,False,,1.0,203.0,,,,,,,[],,,,,,87.9,0.0,u,0.0,True,523.9000015258789,32.0,60.0,40.0,348.2858154946813,[],"[683, 384]",ColorTask,89.0,87.0,,,HRV,HRV_0265,2022-11-30 20:06:05
,wl-rdm,204,566416,0.0-8.87-0.87,False,,1.0,204.0,,,,,,,[],,,,,,50.0,0.0,u,0.0,True,571.8000011444092,35.0,60.0,40.0,211.87240625598403,[],"[683, 384]",ColorTask,90.0,88.0,,,HRV,HRV_0265,2022-11-30 20:06:05
,wl-rdm,205,568750,0.0-8.88-0.88,False,,1.0,205.0,,,,,,,[],,,,,,62.5,1.0,i,1.0,True,995.7000007629395,60.0,60.0,40.0,252.89307119764115,[],"[683, 384]",ColorTask,91.0,89.0,,,HRV,HRV_0265,2022-11-30 20:06:05
,wl-rdm,206,570666,0.0-8.89-0.89,False,,1.0,206.0,,,,,,,[],,,,,,56.4,1.0,i,1.0,True,523.0,32.0,60.0,40.0,306.63709171630705,[],"[683, 384]",ColorTask,92.0,90.0,,,HRV,HRV_0265,2022-11-30 20:06:05
,wl-rdm,207,572733,0.0-8.90-0.90,False,,1.0,207.0,,,,,,,[],,,,,,73.6,0.0,u,0.0,True,701.8999996185303,43.0,60.0,40.0,281.05860874860605,[],"[683, 384]",ColorTask,93.0,91.0,,,HRV,HRV_0265,2022-11-30 20:06:05
,wl-rdm,208,574783,0.0-8.91-0.91,False,,1.0,208.0,,,,,,,[],,,,,,62.5,0.0,u,0.0,True,582.9999980926514,35.0,60.0,40.0,388.03419768636786,[],"[683, 384]",ColorTask,94.0,92.0,,,HRV,HRV_0265,2022-11-30 20:06:05
,wl-rdm,209,576788,0.0-8.92-0.92,False,,1.0,209.0,,,,,,,[],,,,,,73.6,0.0,u,0.0,True,614.8999996185303,37.0,60.0,40.0,320.6019496136337,[],"[683, 384]",ColorTask,95.0,93.0,,,HRV,HRV_0265,2022-11-30 20:06:05
,wl-rdm,210,578916,0.0-8.93-0.93,False,,1.0,210.0,,,,,,,[],,,,,,50.0,0.0,i,1.0,False,726.3999996185303,44.0,60.0,40.0,325.8637342223118,[],"[683, 384]",ColorTask,94.0,94.0,,,HRV,HRV_0265,2022-11-30 20:06:05
,wl-rdm,211,581332,0.0-8.94-0.94,False,,1.0,211.0,,,,,,,[],,,,,,87.9,1.0,i,1.0,True,958.3999977111816,58.0,60.0,40.0,384.95908069791597,[],"[683, 384]",ColorTask,95.0,95.0,,,HRV,HRV_0265,2022-11-30 20:06:05
,wl-rdm,212,583266,0.0-8.95-0.95,False,,1.0,212.0,,,,,,,[],,,,,,56.4,0.0,u,0.0,True,581.8999996185303,35.0,60.0,40.0,297.6910733419554,[],"[683, 384]",ColorTask,96.0,96.0,,,HRV,HRV_0265,2022-11-30 20:06:05
,wl-rdm,213,585149,0.0-8.96-0.96,False,,1.0,213.0,,,,,,,[],,,,,,87.9,1.0,i,1.0,True,534.1999988555908,33.0,60.0,40.0,257.6050225086377,[],"[683, 384]",ColorTask,97.0,97.0,,,HRV,HRV_0265,2022-11-30 20:06:05
,wl-rdm,214,587215,0.0-8.97-0.97,False,,1.0,214.0,,,,,,,[],,,,,,73.6,1.0,i,1.0,True,639.5,39.0,60.0,40.0,362.1215963714532,[],"[683, 384]",ColorTask,98.0,98.0,,,HRV,HRV_0265,2022-11-30 20:06:05
,wl-rdm,215,589098,0.0-8.98-0.98,False,,1.0,215.0,,,,,,,[],,,,,,87.9,1.0,i,1.0,True,534.1000003814697,33.0,60.0,40.0,263.41277495283816,[],"[683, 384]",ColorTask,99.0,99.0,,,HRV,HRV_0265,2022-11-30 20:06:05
,wl-rdm,216,591081,0.0-8.99-0.99,False,,1.0,216.0,,,,,,,[],,,,,,56.4,0.0,i,1.0,False,557.8000011444092,34.0,60.0,40.0,347.4205345615989,[],"[683, 384]",ColorTask,98.0,100.0,,,HRV,HRV_0265,2022-11-30 20:06:05
,wl-rdm,217,593548,0.0-8.100-0.100,False,,1.0,217.0,,,,,,,[],,,,,,53.2,0.0,u,0.0,True,1107.3999996185303,67.0,60.0,40.0,267.597302140172,[],"[683, 384]",ColorTask,99.0,101.0,,,HRV,HRV_0265,2022-11-30 20:06:05
,wl-rdm,218,595681,0.0-8.101-0.101,False,,1.0,218.0,,,,,,,[],,,,,,50.0,1.0,u,0.0,False,748.3999996185303,45.0,60.0,40.0,303.38157130653127,[],"[683, 384]",ColorTask,98.0,102.0,,,HRV,HRV_0265,2022-11-30 20:06:05
,wl-rdm,219,597664,0.0-8.102-0.102,False,,1.0,219.0,,,,,,,[],,,,,,87.9,0.0,u,0.0,True,576.8999996185303,35.0,60.0,40.0,323.52870205607394,[],"[683, 384]",ColorTask,99.0,103.0,,,HRV,HRV_0265,2022-11-30 20:06:05
,wl-rdm,220,599765,0.0-8.103-0.103,False,,1.0,220.0,,,,,,,[],,,,,,56.4,0.0,u,0.0,True,669.3999996185303,41.0,60.0,40.0,343.76535127840657,[],"[683, 384]",ColorTask,100.0,104.0,,,HRV,HRV_0265,2022-11-30 20:06:05
,wl-rdm,221,601748,0.0-8.104-0.104,False,,1.0,221.0,,,,,,,[],,,,,,56.4,1.0,u,0.0,False,656.1000003814697,40.0,60.0,40.0,242.4284471662197,[],"[683, 384]",ColorTask,99.0,105.0,,,HRV,HRV_0265,2022-11-30 20:06:05
,wl-rdm,222,603647,0.0-8.105-0.105,False,,1.0,222.0,,,,,,,[],,,,,,62.5,1.0,i,1.0,True,568.2000007629395,35.0,60.0,40.0,252.42669593912262,[],"[683, 384]",ColorTask,100.0,106.0,,,HRV,HRV_0265,2022-11-30 20:06:05
,wl-rdm,223,605614,0.0-8.106-0.106,False,,1.0,223.0,,,,,,,[],,,,,,62.5,0.0,i,1.0,False,572.2999992370605,35.0,60.0,40.0,331.9405673469138,[],"[683, 384]",ColorTask,99.0,107.0,,,HRV,HRV_0265,2022-11-30 20:06:05
,wl-rdm,224,607447,0.0-8.107-0.107,False,,1.0,224.0,,,,,,,[],,,,,,87.9,0.0,u,0.0,True,547.3999996185303,33.0,60.0,40.0,201.40792175368784,[],"[683, 384]",ColorTask,100.0,108.0,,,HRV,HRV_0265,2022-11-30 20:06:05
,wl-html-button-response,225,608504,0.0-9.0-0.0,,,,,,,,,,,,1054.1999988555908,,0,,,,,,,,,,,,,,,,,,<h3>End of this session. Thank you!</h3><br>,['Close window'],HRV,HRV_0265,2022-11-30 20:06:05
