trialN,stimuli,trialStartTime,trialStartTime_UNIX,stimulus1,stimulus2,stimulus1Bid,stimulus2Bid,delta,selected,rt,rt_UNIX,rt_perfnow,receivedResponse,rsp,trialEndTime,trialDuration,trialEndTime_UNIX,trialDuration_UNIX,exp,subjectId,date
0,"[{'imgObject': {}, 'id': 'granola w milk', 'src': '/static/foodstim60/granola w milk.jpg', 'key': 'u', 'origWidth': 410, 'origHeight': 410, 'width': 410, 'height': 410, 'widthPercent': 0.45, 'rescaleHeight': False, 'trialN': 0, 'loaded': True, 'loadedTime': 44485.39999961853, 'positionName': 'LEFT', 'positionCoords': [245.68, 179], 'bid': 0}, {'imgObject': {}, 'id': 'pear', 'src': '/static/foodstim60/pear.jpg', 'key': 'i', 'origWidth': 411, 'origHeight': 410, 'width': 411, 'height': 410, 'widthPercent': 0.45, 'rescaleHeight': False, 'trialN': 0, 'loaded': True, 'loadedTime': 44507.30000114441, 'positionName': 'RIGHT', 'positionCoords': [710.32, 179], 'bid': 0.1}]",44818.80000114441,1669837917031,granola w milk,pear,0.0,0.1,0.1,pear,1330.6999988555908,1331,1331.0,True,i,46660.70000076294,1841.8999996185303,1669837918873,1842,HRV,HRV_0265,2022-11-30 19:55:52
1,"[{'imgObject': {}, 'id': 'steak', 'src': '/static/foodstim60/steak.jpg', 'key': 'u', 'origWidth': 410, 'origHeight': 410, 'width': 410, 'height': 410, 'widthPercent': 0.45, 'rescaleHeight': False, 'trialN': 1, 'loaded': True, 'loadedTime': 44520.10000038147, 'positionName': 'LEFT', 'positionCoords': [245.68, 179], 'bid': 9.77}, {'imgObject': {}, 'id': 'tacos', 'src': '/static/foodstim60/tacos.jpg', 'key': 'i', 'origWidth': 411, 'origHeight': 411, 'width': 411, 'height': 411, 'widthPercent': 0.45, 'rescaleHeight': False, 'trialN': 1, 'loaded': True, 'loadedTime': 44536.20000076294, 'positionName': 'RIGHT', 'positionCoords': [710.32, 178.5], 'bid': 8.17}]",46661.0,1669837918873,steak,tacos,9.77,8.17,-1.5999999999999996,steak,618.8000011444092,619,619.2000007629395,True,u,47796.30000114441,1135.3000011444092,1669837920008,1135,HRV,HRV_0265,2022-11-30 19:55:52
2,"[{'imgObject': {}, 'id': 'grilled chicken strips', 'src': '/static/foodstim60/grilled chicken strips.jpg', 'key': 'u', 'origWidth': 410, 'origHeight': 411, 'width': 410, 'height': 411, 'widthPercent': 0.45, 'rescaleHeight': False, 'trialN': 2, 'loaded': True, 'loadedTime': 44544.89999961853, 'positionName': 'LEFT', 'positionCoords': [245.68, 178.5], 'bid': 4.89}, {'imgObject': {}, 'id': 'salad w chicken', 'src': '/static/foodstim60/salad w chicken.jpg', 'key': 'i', 'origWidth': 411, 'origHeight': 411, 'width': 411, 'height': 411, 'widthPercent': 0.45, 'rescaleHeight': False, 'trialN': 2, 'loaded': True, 'loadedTime': 44553.60000038147, 'positionName': 'RIGHT', 'positionCoords': [710.32, 178.5], 'bid': 5.07}]",47796.60000038147,1669837920009,grilled chicken strips,salad w chicken,4.89,5.07,0.1800000000000006,grilled chicken strips,782.7000007629395,783,783.0,True,u,49098.20000076294,1301.6000003814697,1669837921310,1301,HRV,HRV_0265,2022-11-30 19:55:52
3,"[{'imgObject': {}, 'id': 'mashed potato', 'src': '/static/foodstim60/mashed potato.jpg', 'key': 'u', 'origWidth': 409, 'origHeight': 409, 'width': 409, 'height': 409, 'widthPercent': 0.45, 'rescaleHeight': False, 'trialN': 3, 'loaded': True, 'loadedTime': 44563.60000038147, 'positionName': 'LEFT', 'positionCoords': [246.68, 179.5], 'bid': 0.16}, {'imgObject': {}, 'id': 'eggs', 'src': '/static/foodstim60/eggs.jpg', 'key': 'i', 'origWidth': 409, 'origHeight': 409, 'width': 409, 'height': 409, 'widthPercent': 0.45, 'rescaleHeight': False, 'trialN': 3, 'loaded': True, 'loadedTime': 44569.39999961853, 'positionName': 'RIGHT', 'positionCoords': [710.32, 179.5], 'bid': 2.1}]",49098.39999961853,1669837921310,mashed potato,eggs,0.16,2.1,1.9400000000000002,eggs,716.7000007629395,718,717.2000007629395,True,i,50318.89999961853,1220.5,1669837922531,1221,HRV,HRV_0265,2022-11-30 19:55:52
4,"[{'imgObject': {}, 'id': 'cocktailshrimp', 'src': '/static/foodstim60/cocktailshrimp.jpg', 'key': 'u', 'origWidth': 410, 'origHeight': 410, 'width': 410, 'height': 410, 'widthPercent': 0.45, 'rescaleHeight': False, 'trialN': 4, 'loaded': True, 'loadedTime': 44577.89999961853, 'positionName': 'LEFT', 'positionCoords': [245.68, 179], 'bid': 0.18}, {'imgObject': {}, 'id': 'hotdog w must', 'src': '/static/foodstim60/hotdog w must.jpg', 'key': 'i', 'origWidth': 409, 'origHeight': 409, 'width': 409, 'height': 409, 'widthPercent': 0.45, 'rescaleHeight': False, 'trialN': 4, 'loaded': True, 'loadedTime': 44578.30000114441, 'positionName': 'RIGHT', 'positionCoords': [710.32, 179.5], 'bid': 0.1}]",50319.10000038147,1669837922531,cocktailshrimp,hotdog w must,0.18,0.1,-0.07999999999999999,cocktailshrimp,660.2000007629395,661,660.6000003814697,True,u,51491.20000076294,1172.1000003814697,1669837923703,1172,HRV,HRV_0265,2022-11-30 19:55:52
5,"[{'imgObject': {}, 'id': 'mac & cheese', 'src': '/static/foodstim60/mac & cheese.jpg', 'key': 'u', 'origWidth': 410, 'origHeight': 410, 'width': 410, 'height': 410, 'widthPercent': 0.45, 'rescaleHeight': False, 'trialN': 5, 'loaded': True, 'loadedTime': 44596.20000076294, 'positionName': 'LEFT', 'positionCoords': [245.68, 179], 'bid': 9.91}, {'imgObject': {}, 'id': 'tacos', 'src': '/static/foodstim60/tacos.jpg', 'key': 'i', 'origWidth': 411, 'origHeight': 411, 'width': 411, 'height': 411, 'widthPercent': 0.45, 'rescaleHeight': False, 'trialN': 5, 'loaded': True, 'loadedTime': 44536.39999961853, 'positionName': 'RIGHT', 'positionCoords': [710.32, 178.5], 'bid': 8.17}]",51491.5,1669837923704,mac & cheese,tacos,9.91,8.17,-1.7400000000000002,mac & cheese,593.2000007629395,593,593.6000003814697,True,u,52594.60000038147,1103.1000003814697,1669837924807,1103,HRV,HRV_0265,2022-11-30 19:55:52
6,"[{'imgObject': {}, 'id': 'blackbeanswithrice', 'src': '/static/foodstim60/blackbeanswithrice.jpg', 'key': 'u', 'origWidth': 410, 'origHeight': 410, 'width': 410, 'height': 410, 'widthPercent': 0.45, 'rescaleHeight': False, 'trialN': 6, 'loaded': True, 'loadedTime': 44599, 'positionName': 'LEFT', 'positionCoords': [245.68, 179], 'bid': 6.17}, {'imgObject': {}, 'id': 'rigatoni and sauce', 'src': '/static/foodstim60/rigatoni and sauce.jpg', 'key': 'i', 'origWidth': 410, 'origHeight': 411, 'width': 410, 'height': 411, 'widthPercent': 0.45, 'rescaleHeight': False, 'trialN': 6, 'loaded': True, 'loadedTime': 44609.70000076294, 'positionName': 'RIGHT', 'positionCoords': [710.32, 178.5], 'bid': 9.83}]",52594.89999961853,1669837924807,blackbeanswithrice,rigatoni and sauce,6.17,9.83,3.66,blackbeanswithrice,649.4000015258789,650,649.7000007629395,True,u,53769.80000114441,1174.900001525879,1669837925982,1175,HRV,HRV_0265,2022-11-30 19:55:52
7,"[{'imgObject': {}, 'id': 'turkey sandwich', 'src': '/static/foodstim60/turkey sandwich.jpg', 'key': 'u', 'origWidth': 409, 'origHeight': 409, 'width': 409, 'height': 409, 'widthPercent': 0.45, 'rescaleHeight': False, 'trialN': 7, 'loaded': True, 'loadedTime': 44660.39999961853, 'positionName': 'LEFT', 'positionCoords': [246.68, 179.5], 'bid': 4.3500000000000005}, {'imgObject': {}, 'id': 'veggieswithdip', 'src': '/static/foodstim60/veggieswithdip.jpg', 'key': 'i', 'origWidth': 409, 'origHeight': 409, 'width': 409, 'height': 409, 'widthPercent': 0.45, 'rescaleHeight': False, 'trialN': 7, 'loaded': True, 'loadedTime': 44673.20000076294, 'positionName': 'RIGHT', 'positionCoords': [710.32, 179.5], 'bid': 4.5600000000000005}]",53770.0,1669837925982,turkey sandwich,veggieswithdip,4.3500000000000005,4.5600000000000005,0.20999999999999996,turkey sandwich,743.7000007629395,744,744.1000003814697,True,u,55021.60000038147,1251.6000003814697,1669837927234,1252,HRV,HRV_0265,2022-11-30 19:55:52
8,"[{'imgObject': {}, 'id': 'luckycharms', 'src': '/static/foodstim60/luckycharms.jpg', 'key': 'u', 'origWidth': 410, 'origHeight': 409, 'width': 410, 'height': 409, 'widthPercent': 0.45, 'rescaleHeight': False, 'trialN': 8, 'loaded': True, 'loadedTime': 44682, 'positionName': 'LEFT', 'positionCoords': [245.68, 179.5], 'bid': 9.81}, {'imgObject': {}, 'id': 'mac & cheese', 'src': '/static/foodstim60/mac & cheese.jpg', 'key': 'i', 'origWidth': 410, 'origHeight': 410, 'width': 410, 'height': 410, 'widthPercent': 0.45, 'rescaleHeight': False, 'trialN': 8, 'loaded': True, 'loadedTime': 44589.30000114441, 'positionName': 'RIGHT', 'positionCoords': [710.32, 179], 'bid': 9.91}]",55021.89999961853,1669837927234,luckycharms,mac & cheese,9.81,9.91,0.09999999999999964,luckycharms,762.9000015258789,763,763.2000007629395,True,u,56294.80000114441,1272.900001525879,1669837928507,1273,HRV,HRV_0265,2022-11-30 19:55:52
9,"[{'imgObject': {}, 'id': 'cherries', 'src': '/static/foodstim60/cherries.jpg', 'key': 'u', 'origWidth': 410, 'origHeight': 411, 'width': 410, 'height': 411, 'widthPercent': 0.45, 'rescaleHeight': False, 'trialN': 9, 'loaded': True, 'loadedTime': 44521.30000114441, 'positionName': 'LEFT', 'positionCoords': [245.68, 178.5], 'bid': 3.06}, {'imgObject': {}, 'id': 'omelette', 'src': '/static/foodstim60/omelette.jpg', 'key': 'i', 'origWidth': 410, 'origHeight': 409, 'width': 410, 'height': 409, 'widthPercent': 0.45, 'rescaleHeight': False, 'trialN': 9, 'loaded': True, 'loadedTime': 44556.30000114441, 'positionName': 'RIGHT', 'positionCoords': [710.32, 179.5], 'bid': 3.3000000000000003}]",56295.10000038147,1669837928507,cherries,omelette,3.06,3.3000000000000003,0.2400000000000002,omelette,678.5,679,678.8999996185303,True,i,57484.89999961853,1189.7999992370605,1669837929697,1190,HRV,HRV_0265,2022-11-30 19:55:52
10,"[{'imgObject': {}, 'id': 'fruitsalad', 'src': '/static/foodstim60/fruitsalad.jpg', 'key': 'u', 'origWidth': 410, 'origHeight': 410, 'width': 410, 'height': 410, 'widthPercent': 0.45, 'rescaleHeight': False, 'trialN': 10, 'loaded': True, 'loadedTime': 44608.20000076294, 'positionName': 'LEFT', 'positionCoords': [245.68, 179], 'bid': 3.03}, {'imgObject': {}, 'id': 'eggs', 'src': '/static/foodstim60/eggs.jpg', 'key': 'i', 'origWidth': 409, 'origHeight': 409, 'width': 409, 'height': 409, 'widthPercent': 0.45, 'rescaleHeight': False, 'trialN': 10, 'loaded': True, 'loadedTime': 44569.5, 'positionName': 'RIGHT', 'positionCoords': [710.32, 179.5], 'bid': 2.1}]",57485.10000038147,1669837929697,fruitsalad,eggs,3.03,2.1,-0.9299999999999997,eggs,1134.8999996185303,1135,1135.2000007629395,True,i,59138.0,1652.8999996185303,1669837931350,1653,HRV,HRV_0265,2022-11-30 19:55:52
11,"[{'imgObject': {}, 'id': 'cherries', 'src': '/static/foodstim60/cherries.jpg', 'key': 'u', 'origWidth': 410, 'origHeight': 411, 'width': 410, 'height': 411, 'widthPercent': 0.45, 'rescaleHeight': False, 'trialN': 11, 'loaded': True, 'loadedTime': 44528.5, 'positionName': 'LEFT', 'positionCoords': [245.68, 178.5], 'bid': 3.06}, {'imgObject': {}, 'id': 'lox', 'src': '/static/foodstim60/lox.jpg', 'key': 'i', 'origWidth': 410, 'origHeight': 411, 'width': 410, 'height': 411, 'widthPercent': 0.45, 'rescaleHeight': False, 'trialN': 11, 'loaded': True, 'loadedTime': 44620.89999961853, 'positionName': 'RIGHT', 'positionCoords': [710.32, 178.5], 'bid': 0.19}]",59138.20000076294,1669837931350,cherries,lox,3.06,0.19,-2.87,cherries,835.8999996185303,837,836.2999992370605,True,u,60495.30000114441,1357.1000003814697,1669837932707,1357,HRV,HRV_0265,2022-11-30 19:55:52
12,"[{'imgObject': {}, 'id': 'sushi w_condiments', 'src': '/static/foodstim60/sushi w_condiments.jpg', 'key': 'u', 'origWidth': 410, 'origHeight': 410, 'width': 410, 'height': 410, 'widthPercent': 0.45, 'rescaleHeight': False, 'trialN': 12, 'loaded': True, 'loadedTime': 44621.80000114441, 'positionName': 'LEFT', 'positionCoords': [245.68, 179], 'bid': 4.86}, {'imgObject': {}, 'id': 'cherries', 'src': '/static/foodstim60/cherries.jpg', 'key': 'i', 'origWidth': 410, 'origHeight': 411, 'width': 410, 'height': 411, 'widthPercent': 0.45, 'rescaleHeight': False, 'trialN': 12, 'loaded': True, 'loadedTime': 44529, 'positionName': 'RIGHT', 'positionCoords': [710.32, 178.5], 'bid': 3.06}]",60495.5,1669837932708,sushi w_condiments,cherries,4.86,3.06,-1.8000000000000003,sushi w_condiments,691.1000003814697,691,691.5,True,u,61701.20000076294,1205.7000007629395,1669837933913,1205,HRV,HRV_0265,2022-11-30 19:55:52
13,"[{'imgObject': {}, 'id': 'veggieswithdip', 'src': '/static/foodstim60/veggieswithdip.jpg', 'key': 'u', 'origWidth': 409, 'origHeight': 409, 'width': 409, 'height': 409, 'widthPercent': 0.45, 'rescaleHeight': False, 'trialN': 13, 'loaded': True, 'loadedTime': 44673.5, 'positionName': 'LEFT', 'positionCoords': [246.68, 179.5], 'bid': 4.5600000000000005}, {'imgObject': {}, 'id': 'chickenfingers', 'src': '/static/foodstim60/chickenfingers.jpg', 'key': 'i', 'origWidth': 410, 'origHeight': 410, 'width': 410, 'height': 410, 'widthPercent': 0.45, 'rescaleHeight': False, 'trialN': 13, 'loaded': True, 'loadedTime': 44632.70000076294, 'positionName': 'RIGHT', 'positionCoords': [710.32, 179], 'bid': 3.38}]",61701.39999961853,1669837933914,veggieswithdip,chickenfingers,4.5600000000000005,3.38,-1.1800000000000006,chickenfingers,660.3000011444092,660,660.7000007629395,True,i,62882.80000114441,1181.400001525879,1669837935095,1181,HRV,HRV_0265,2022-11-30 19:55:52
14,"[{'imgObject': {}, 'id': 'Grapes', 'src': '/static/foodstim60/Grapes.jpg', 'key': 'u', 'origWidth': 411, 'origHeight': 411, 'width': 411, 'height': 411, 'widthPercent': 0.45, 'rescaleHeight': False, 'trialN': 14, 'loaded': True, 'loadedTime': 44639.89999961853, 'positionName': 'LEFT', 'positionCoords': [244.68, 178.5], 'bid': 5}, {'imgObject': {}, 'id': 'fried eggs', 'src': '/static/foodstim60/fried eggs.jpg', 'key': 'i', 'origWidth': 410, 'origHeight': 410, 'width': 410, 'height': 410, 'widthPercent': 0.45, 'rescaleHeight': False, 'trialN': 14, 'loaded': True, 'loadedTime': 44649.30000114441, 'positionName': 'RIGHT', 'positionCoords': [710.32, 179], 'bid': 7.34}]",62883.10000038147,1669837935095,Grapes,fried eggs,5.0,7.34,2.34,fried eggs,1053.7999992370605,1054,1054.2999992370605,True,i,64456.89999961853,1573.7999992370605,1669837936669,1574,HRV,HRV_0265,2022-11-30 19:55:52
15,"[{'imgObject': {}, 'id': 'seaweed', 'src': '/static/foodstim60/seaweed.jpg', 'key': 'u', 'origWidth': 410, 'origHeight': 410, 'width': 410, 'height': 410, 'widthPercent': 0.45, 'rescaleHeight': False, 'trialN': 15, 'loaded': True, 'loadedTime': 44650.20000076294, 'positionName': 'LEFT', 'positionCoords': [245.68, 179], 'bid': 1.53}, {'imgObject': {}, 'id': 'raspberries', 'src': '/static/foodstim60/raspberries.jpg', 'key': 'i', 'origWidth': 411, 'origHeight': 411, 'width': 411, 'height': 411, 'widthPercent': 0.45, 'rescaleHeight': False, 'trialN': 15, 'loaded': True, 'loadedTime': 44671.10000038147, 'positionName': 'RIGHT', 'positionCoords': [710.32, 178.5], 'bid': 1.6}]",64457.10000038147,1669837936669,seaweed,raspberries,1.53,1.6,0.07000000000000006,seaweed,849.6000003814697,850,850.2000007629395,True,u,65816.10000038147,1359.0,1669837938028,1359,HRV,HRV_0265,2022-11-30 19:55:52
16,"[{'imgObject': {}, 'id': 'granola w milk', 'src': '/static/foodstim60/granola w milk.jpg', 'key': 'u', 'origWidth': 410, 'origHeight': 410, 'width': 410, 'height': 410, 'widthPercent': 0.45, 'rescaleHeight': False, 'trialN': 16, 'loaded': True, 'loadedTime': 44486.10000038147, 'positionName': 'LEFT', 'positionCoords': [245.68, 179], 'bid': 0}, {'imgObject': {}, 'id': 'lox', 'src': '/static/foodstim60/lox.jpg', 'key': 'i', 'origWidth': 410, 'origHeight': 411, 'width': 410, 'height': 411, 'widthPercent': 0.45, 'rescaleHeight': False, 'trialN': 16, 'loaded': True, 'loadedTime': 44619.5, 'positionName': 'RIGHT', 'positionCoords': [710.32, 178.5], 'bid': 0.19}]",65816.30000114441,1669837938028,granola w milk,lox,0.0,0.19,0.19,granola w milk,1114.3999996185303,1115,1114.8999996185303,True,u,67450.70000076294,1634.3999996185303,1669837939663,1635,HRV,HRV_0265,2022-11-30 19:55:52
17,"[{'imgObject': {}, 'id': 'omelette', 'src': '/static/foodstim60/omelette.jpg', 'key': 'u', 'origWidth': 410, 'origHeight': 409, 'width': 410, 'height': 409, 'widthPercent': 0.45, 'rescaleHeight': False, 'trialN': 17, 'loaded': True, 'loadedTime': 44556.39999961853, 'positionName': 'LEFT', 'positionCoords': [245.68, 179.5], 'bid': 3.3000000000000003}, {'imgObject': {}, 'id': 'cantaloupe', 'src': '/static/foodstim60/cantaloupe.jpg', 'key': 'i', 'origWidth': 409, 'origHeight': 409, 'width': 409, 'height': 409, 'widthPercent': 0.45, 'rescaleHeight': False, 'trialN': 17, 'loaded': True, 'loadedTime': 44682.80000114441, 'positionName': 'RIGHT', 'positionCoords': [710.32, 179.5], 'bid': 0.19}]",67450.89999961853,1669837939663,omelette,cantaloupe,3.3000000000000003,0.19,-3.1100000000000003,omelette,819.4000015258789,820,819.8000011444092,True,u,68772.60000038147,1321.7000007629395,1669837940985,1322,HRV,HRV_0265,2022-11-30 19:55:52
18,"[{'imgObject': {}, 'id': 'corn cob', 'src': '/static/foodstim60/corn cob.jpg', 'key': 'u', 'origWidth': 411, 'origHeight': 411, 'width': 411, 'height': 411, 'widthPercent': 0.45, 'rescaleHeight': False, 'trialN': 18, 'loaded': True, 'loadedTime': 44692, 'positionName': 'LEFT', 'positionCoords': [244.68, 178.5], 'bid': 5.2}, {'imgObject': {}, 'id': 'burrito', 'src': '/static/foodstim60/burrito.jpg', 'key': 'i', 'origWidth': 410, 'origHeight': 410, 'width': 410, 'height': 410, 'widthPercent': 0.45, 'rescaleHeight': False, 'trialN': 18, 'loaded': True, 'loadedTime': 44701.80000114441, 'positionName': 'RIGHT', 'positionCoords': [710.32, 179], 'bid': 6.05}]",68772.80000114441,1669837940985,corn cob,burrito,5.2,6.05,0.8499999999999996,burrito,902.8999996185303,903,903.5,True,i,70193.70000076294,1420.8999996185303,1669837942406,1421,HRV,HRV_0265,2022-11-30 19:55:52
19,"[{'imgObject': {}, 'id': 'pear', 'src': '/static/foodstim60/pear.jpg', 'key': 'u', 'origWidth': 411, 'origHeight': 410, 'width': 411, 'height': 410, 'widthPercent': 0.45, 'rescaleHeight': False, 'trialN': 19, 'loaded': True, 'loadedTime': 44505.30000114441, 'positionName': 'LEFT', 'positionCoords': [244.68, 179], 'bid': 0.1}, {'imgObject': {}, 'id': 'mango', 'src': '/static/foodstim60/mango.jpg', 'key': 'i', 'origWidth': 411, 'origHeight': 411, 'width': 411, 'height': 411, 'widthPercent': 0.45, 'rescaleHeight': False, 'trialN': 19, 'loaded': True, 'loadedTime': 44704.30000114441, 'positionName': 'RIGHT', 'positionCoords': [710.32, 178.5], 'bid': 0.22}]",70193.89999961853,1669837942406,pear,mango,0.1,0.22,0.12,pear,956.2000007629395,957,956.7000007629395,True,u,71654.39999961853,1460.5,1669837943866,1460,HRV,HRV_0265,2022-11-30 19:55:52
20,"[{'imgObject': {}, 'id': 'hotdog w must', 'src': '/static/foodstim60/hotdog w must.jpg', 'key': 'u', 'origWidth': 409, 'origHeight': 409, 'width': 409, 'height': 409, 'widthPercent': 0.45, 'rescaleHeight': False, 'trialN': 20, 'loaded': True, 'loadedTime': 44587.80000114441, 'positionName': 'LEFT', 'positionCoords': [246.68, 179.5], 'bid': 0.1}, {'imgObject': {}, 'id': 'edamame', 'src': '/static/foodstim60/edamame.jpg', 'key': 'i', 'origWidth': 409, 'origHeight': 410, 'width': 409, 'height': 410, 'widthPercent': 0.45, 'rescaleHeight': False, 'trialN': 20, 'loaded': True, 'loadedTime': 44704.60000038147, 'positionName': 'RIGHT', 'positionCoords': [710.32, 179], 'bid': 0.22}]",71654.5,1669837943867,hotdog w must,edamame,0.1,0.22,0.12,edamame,721.2000007629395,721,721.6000003814697,True,i,72889.5,1235.0,1669837945102,1235,HRV,HRV_0265,2022-11-30 19:55:52
21,"[{'imgObject': {}, 'id': 'lox', 'src': '/static/foodstim60/lox.jpg', 'key': 'u', 'origWidth': 410, 'origHeight': 411, 'width': 410, 'height': 411, 'widthPercent': 0.45, 'rescaleHeight': False, 'trialN': 21, 'loaded': True, 'loadedTime': 44619.60000038147, 'positionName': 'LEFT', 'positionCoords': [245.68, 178.5], 'bid': 0.19}, {'imgObject': {}, 'id': 'mashed potato', 'src': '/static/foodstim60/mashed potato.jpg', 'key': 'i', 'origWidth': 409, 'origHeight': 409, 'width': 409, 'height': 409, 'widthPercent': 0.45, 'rescaleHeight': False, 'trialN': 21, 'loaded': True, 'loadedTime': 44562.39999961853, 'positionName': 'RIGHT', 'positionCoords': [710.32, 179.5], 'bid': 0.16}]",72889.80000114441,1669837945102,lox,mashed potato,0.19,0.16,-0.03,mashed potato,837.3999996185303,838,837.8999996185303,True,i,74248.39999961853,1358.599998474121,1669837946460,1358,HRV,HRV_0265,2022-11-30 19:55:52
22,"[{'imgObject': {}, 'id': 'sushi w_condiments', 'src': '/static/foodstim60/sushi w_condiments.jpg', 'key': 'u', 'origWidth': 410, 'origHeight': 410, 'width': 410, 'height': 410, 'widthPercent': 0.45, 'rescaleHeight': False, 'trialN': 22, 'loaded': True, 'loadedTime': 44623.30000114441, 'positionName': 'LEFT', 'positionCoords': [245.68, 179], 'bid': 4.86}, {'imgObject': {}, 'id': 'cheerios', 'src': '/static/foodstim60/cheerios.jpg', 'key': 'i', 'origWidth': 409, 'origHeight': 410, 'width': 409, 'height': 410, 'widthPercent': 0.45, 'rescaleHeight': False, 'trialN': 22, 'loaded': True, 'loadedTime': 44714.30000114441, 'positionName': 'RIGHT', 'positionCoords': [710.32, 179], 'bid': 0.12}]",74248.5,1669837946461,sushi w_condiments,cheerios,4.86,0.12,-4.74,sushi w_condiments,795.3999996185303,795,795.7000007629395,True,u,75553.80000114441,1305.3000011444092,1669837947766,1305,HRV,HRV_0265,2022-11-30 19:55:52
23,"[{'imgObject': {}, 'id': 'seaweed', 'src': '/static/foodstim60/seaweed.jpg', 'key': 'u', 'origWidth': 410, 'origHeight': 410, 'width': 410, 'height': 410, 'widthPercent': 0.45, 'rescaleHeight': False, 'trialN': 23, 'loaded': True, 'loadedTime': 44658.80000114441, 'positionName': 'LEFT', 'positionCoords': [245.68, 179], 'bid': 1.53}, {'imgObject': {}, 'id': 'olives', 'src': '/static/foodstim60/olives.jpg', 'key': 'i', 'origWidth': 410, 'origHeight': 410, 'width': 410, 'height': 410, 'widthPercent': 0.45, 'rescaleHeight': False, 'trialN': 23, 'loaded': True, 'loadedTime': 44722.30000114441, 'positionName': 'RIGHT', 'positionCoords': [710.32, 179], 'bid': 0.25}]",75554.0,1669837947766,seaweed,olives,1.53,0.25,-1.28,seaweed,900.2000007629395,901,900.6000003814697,True,u,76959.89999961853,1405.8999996185303,1669837949172,1406,HRV,HRV_0265,2022-11-30 19:55:52
24,"[{'imgObject': {}, 'id': 'froot loops w milk', 'src': '/static/foodstim60/froot loops w milk.jpg', 'key': 'u', 'origWidth': 410, 'origHeight': 410, 'width': 410, 'height': 410, 'widthPercent': 0.45, 'rescaleHeight': False, 'trialN': 24, 'loaded': True, 'loadedTime': 44724.20000076294, 'positionName': 'LEFT', 'positionCoords': [245.68, 179], 'bid': 4.88}, {'imgObject': {}, 'id': 'burger', 'src': '/static/foodstim60/burger.jpg', 'key': 'i', 'origWidth': 409, 'origHeight': 409, 'width': 409, 'height': 409, 'widthPercent': 0.45, 'rescaleHeight': False, 'trialN': 24, 'loaded': True, 'loadedTime': 44734.20000076294, 'positionName': 'RIGHT', 'positionCoords': [710.32, 179.5], 'bid': 7.56}]",76960.30000114441,1669837949172,froot loops w milk,burger,4.88,7.56,2.6799999999999997,froot loops w milk,593.6999988555908,595,594.2999992370605,True,u,78066.0,1105.6999988555908,1669837950278,1106,HRV,HRV_0265,2022-11-30 19:55:52
25,"[{'imgObject': {}, 'id': 'corn cob', 'src': '/static/foodstim60/corn cob.jpg', 'key': 'u', 'origWidth': 411, 'origHeight': 411, 'width': 411, 'height': 411, 'widthPercent': 0.45, 'rescaleHeight': False, 'trialN': 25, 'loaded': True, 'loadedTime': 44693.30000114441, 'positionName': 'LEFT', 'positionCoords': [244.68, 178.5], 'bid': 5.2}, {'imgObject': {}, 'id': 'steak', 'src': '/static/foodstim60/steak.jpg', 'key': 'i', 'origWidth': 410, 'origHeight': 410, 'width': 410, 'height': 410, 'widthPercent': 0.45, 'rescaleHeight': False, 'trialN': 25, 'loaded': True, 'loadedTime': 44509.10000038147, 'positionName': 'RIGHT', 'positionCoords': [710.32, 179], 'bid': 9.77}]",78066.20000076294,1669837950278,corn cob,steak,5.2,9.77,4.569999999999999,corn cob,597.2999992370605,598,597.6999988555908,True,u,79184.20000076294,1118.0,1669837951396,1118,HRV,HRV_0265,2022-11-30 19:55:52
26,"[{'imgObject': {}, 'id': 'lox', 'src': '/static/foodstim60/lox.jpg', 'key': 'u', 'origWidth': 410, 'origHeight': 411, 'width': 410, 'height': 411, 'widthPercent': 0.45, 'rescaleHeight': False, 'trialN': 26, 'loaded': True, 'loadedTime': 44620, 'positionName': 'LEFT', 'positionCoords': [245.68, 178.5], 'bid': 0.19}, {'imgObject': {}, 'id': 'eggsalad', 'src': '/static/foodstim60/eggsalad.jpg', 'key': 'i', 'origWidth': 410, 'origHeight': 409, 'width': 410, 'height': 409, 'widthPercent': 0.45, 'rescaleHeight': False, 'trialN': 26, 'loaded': True, 'loadedTime': 44737.39999961853, 'positionName': 'RIGHT', 'positionCoords': [710.32, 179.5], 'bid': 0.12}]",79184.5,1669837951397,lox,eggsalad,0.19,0.12,-0.07,eggsalad,1239.3000011444092,1239,1239.7000007629395,True,i,80938.80000114441,1754.3000011444092,1669837953151,1754,HRV,HRV_0265,2022-11-30 19:55:52
27,"[{'imgObject': {}, 'id': 'chicken nuggets2', 'src': '/static/foodstim60/chicken nuggets2.jpg', 'key': 'u', 'origWidth': 410, 'origHeight': 409, 'width': 410, 'height': 409, 'widthPercent': 0.45, 'rescaleHeight': False, 'trialN': 27, 'loaded': True, 'loadedTime': 44747.10000038147, 'positionName': 'LEFT', 'positionCoords': [245.68, 179.5], 'bid': 8.49}, {'imgObject': {}, 'id': 'eggs', 'src': '/static/foodstim60/eggs.jpg', 'key': 'i', 'origWidth': 409, 'origHeight': 409, 'width': 409, 'height': 409, 'widthPercent': 0.45, 'rescaleHeight': False, 'trialN': 27, 'loaded': True, 'loadedTime': 44568.10000038147, 'positionName': 'RIGHT', 'positionCoords': [710.32, 179.5], 'bid': 2.1}]",80939.0,1669837953151,chicken nuggets2,eggs,8.49,2.1,-6.390000000000001,chicken nuggets2,3332.300001144409,3333,3332.7000007629395,True,u,84775.5,3836.5,1669837956988,3837,HRV,HRV_0265,2022-11-30 19:55:52
28,"[{'imgObject': {}, 'id': 'mac & cheese', 'src': '/static/foodstim60/mac & cheese.jpg', 'key': 'u', 'origWidth': 410, 'origHeight': 410, 'width': 410, 'height': 410, 'widthPercent': 0.45, 'rescaleHeight': False, 'trialN': 28, 'loaded': True, 'loadedTime': 44589.70000076294, 'positionName': 'LEFT', 'positionCoords': [245.68, 179], 'bid': 9.91}, {'imgObject': {}, 'id': 'Tribe humus pita', 'src': '/static/foodstim60/Tribe humus pita.jpg', 'key': 'i', 'origWidth': 411, 'origHeight': 411, 'width': 411, 'height': 411, 'widthPercent': 0.45, 'rescaleHeight': False, 'trialN': 28, 'loaded': True, 'loadedTime': 44748.30000114441, 'positionName': 'RIGHT', 'positionCoords': [710.32, 178.5], 'bid': 6.78}]",84775.70000076294,1669837956988,mac & cheese,Tribe humus pita,9.91,6.78,-3.13,Tribe humus pita,171.79999923706055,172,172.19999885559082,True,i,85460.80000114441,685.1000003814697,1669837957673,685,HRV,HRV_0265,2022-11-30 19:55:52
29,"[{'imgObject': {}, 'id': 'lox', 'src': '/static/foodstim60/lox.jpg', 'key': 'u', 'origWidth': 410, 'origHeight': 411, 'width': 410, 'height': 411, 'widthPercent': 0.45, 'rescaleHeight': False, 'trialN': 29, 'loaded': True, 'loadedTime': 44619.80000114441, 'positionName': 'LEFT', 'positionCoords': [245.68, 178.5], 'bid': 0.19}, {'imgObject': {}, 'id': 'Grapes', 'src': '/static/foodstim60/Grapes.jpg', 'key': 'i', 'origWidth': 411, 'origHeight': 411, 'width': 411, 'height': 411, 'widthPercent': 0.45, 'rescaleHeight': False, 'trialN': 29, 'loaded': True, 'loadedTime': 44639.80000114441, 'positionName': 'RIGHT', 'positionCoords': [710.32, 178.5], 'bid': 5}]",85461.10000038147,1669837957673,lox,Grapes,0.19,5.0,4.81,Grapes,584.7000007629395,585,585.0,True,i,86550.10000038147,1089.0,1669837958762,1089,HRV,HRV_0265,2022-11-30 19:55:52
30,"[{'imgObject': {}, 'id': 'turkey sandwich', 'src': '/static/foodstim60/turkey sandwich.jpg', 'key': 'u', 'origWidth': 409, 'origHeight': 409, 'width': 409, 'height': 409, 'widthPercent': 0.45, 'rescaleHeight': False, 'trialN': 30, 'loaded': True, 'loadedTime': 44662.80000114441, 'positionName': 'LEFT', 'positionCoords': [246.68, 179.5], 'bid': 4.3500000000000005}, {'imgObject': {}, 'id': 'burrito', 'src': '/static/foodstim60/burrito.jpg', 'key': 'i', 'origWidth': 410, 'origHeight': 410, 'width': 410, 'height': 410, 'widthPercent': 0.45, 'rescaleHeight': False, 'trialN': 30, 'loaded': True, 'loadedTime': 44701.70000076294, 'positionName': 'RIGHT', 'positionCoords': [710.32, 179], 'bid': 6.05}]",86550.30000114441,1669837958762,turkey sandwich,burrito,4.3500000000000005,6.05,1.6999999999999993,burrito,615.3999996185303,616,615.6999988555908,True,i,87668.89999961853,1118.599998474121,1669837959881,1119,HRV,HRV_0265,2022-11-30 19:55:52
31,"[{'imgObject': {}, 'id': 'turkey sandwich', 'src': '/static/foodstim60/turkey sandwich.jpg', 'key': 'u', 'origWidth': 409, 'origHeight': 409, 'width': 409, 'height': 409, 'widthPercent': 0.45, 'rescaleHeight': False, 'trialN': 31, 'loaded': True, 'loadedTime': 44662.20000076294, 'positionName': 'LEFT', 'positionCoords': [246.68, 179.5], 'bid': 4.3500000000000005}, {'imgObject': {}, 'id': 'seaweed', 'src': '/static/foodstim60/seaweed.jpg', 'key': 'i', 'origWidth': 410, 'origHeight': 410, 'width': 410, 'height': 410, 'widthPercent': 0.45, 'rescaleHeight': False, 'trialN': 31, 'loaded': True, 'loadedTime': 44651.89999961853, 'positionName': 'RIGHT', 'positionCoords': [710.32, 179], 'bid': 1.53}]",87669.0,1669837959881,turkey sandwich,seaweed,4.3500000000000005,1.53,-2.8200000000000003,turkey sandwich,585.8999996185303,586,586.2000007629395,True,u,88758.39999961853,1089.3999996185303,1669837960971,1090,HRV,HRV_0265,2022-11-30 19:55:52
32,"[{'imgObject': {}, 'id': 'blueberries', 'src': '/static/foodstim60/blueberries.jpg', 'key': 'u', 'origWidth': 411, 'origHeight': 411, 'width': 411, 'height': 411, 'widthPercent': 0.45, 'rescaleHeight': False, 'trialN': 32, 'loaded': True, 'loadedTime': 44750, 'positionName': 'LEFT', 'positionCoords': [244.68, 178.5], 'bid': 3.52}, {'imgObject': {}, 'id': 'corn cob', 'src': '/static/foodstim60/corn cob.jpg', 'key': 'i', 'origWidth': 411, 'origHeight': 411, 'width': 411, 'height': 411, 'widthPercent': 0.45, 'rescaleHeight': False, 'trialN': 32, 'loaded': True, 'loadedTime': 44693.5, 'positionName': 'RIGHT', 'positionCoords': [710.32, 178.5], 'bid': 5.2}]",88758.70000076294,1669837960971,blueberries,corn cob,3.52,5.2,1.6800000000000002,corn cob,561.2999992370605,562,561.7999992370605,True,i,89830.10000038147,1071.3999996185303,1669837962042,1071,HRV,HRV_0265,2022-11-30 19:55:52
33,"[{'imgObject': {}, 'id': 'cheerios', 'src': '/static/foodstim60/cheerios.jpg', 'key': 'u', 'origWidth': 409, 'origHeight': 410, 'width': 409, 'height': 410, 'widthPercent': 0.45, 'rescaleHeight': False, 'trialN': 33, 'loaded': True, 'loadedTime': 44713.89999961853, 'positionName': 'LEFT', 'positionCoords': [246.68, 179], 'bid': 0.12}, {'imgObject': {}, 'id': 'hashbrowns', 'src': '/static/foodstim60/hashbrowns.jpg', 'key': 'i', 'origWidth': 411, 'origHeight': 410, 'width': 411, 'height': 410, 'widthPercent': 0.45, 'rescaleHeight': False, 'trialN': 33, 'loaded': True, 'loadedTime': 44759.10000038147, 'positionName': 'RIGHT', 'positionCoords': [710.32, 179], 'bid': 0}]",89830.39999961853,1669837962042,cheerios,hashbrowns,0.12,0.0,-0.12,cheerios,638.9000015258789,640,639.3000011444092,True,u,90980.80000114441,1150.400001525879,1669837963193,1151,HRV,HRV_0265,2022-11-30 19:55:52
34,"[{'imgObject': {}, 'id': 'rigatoni', 'src': '/static/foodstim60/rigatoni.jpg', 'key': 'u', 'origWidth': 411, 'origHeight': 411, 'width': 411, 'height': 411, 'widthPercent': 0.45, 'rescaleHeight': False, 'trialN': 34, 'loaded': True, 'loadedTime': 44761, 'positionName': 'LEFT', 'positionCoords': [244.68, 178.5], 'bid': 4.83}, {'imgObject': {}, 'id': 'sweetpotato', 'src': '/static/foodstim60/sweetpotato.jpg', 'key': 'i', 'origWidth': 410, 'origHeight': 410, 'width': 410, 'height': 410, 'widthPercent': 0.45, 'rescaleHeight': False, 'trialN': 34, 'loaded': True, 'loadedTime': 44767.80000114441, 'positionName': 'RIGHT', 'positionCoords': [710.32, 179], 'bid': 6.97}]",90981.0,1669837963193,rigatoni,sweetpotato,4.83,6.97,2.1399999999999997,sweetpotato,733.3999996185303,734,733.8999996185303,True,i,92223.5,1242.5,1669837964436,1243,HRV,HRV_0265,2022-11-30 19:55:52
35,"[{'imgObject': {}, 'id': 'popsicles', 'src': '/static/foodstim60/popsicles.jpg', 'key': 'u', 'origWidth': 410, 'origHeight': 410, 'width': 410, 'height': 410, 'widthPercent': 0.45, 'rescaleHeight': False, 'trialN': 35, 'loaded': True, 'loadedTime': 44770.20000076294, 'positionName': 'LEFT', 'positionCoords': [245.68, 179], 'bid': 4.95}, {'imgObject': {}, 'id': 'corn cob', 'src': '/static/foodstim60/corn cob.jpg', 'key': 'i', 'origWidth': 411, 'origHeight': 411, 'width': 411, 'height': 411, 'widthPercent': 0.45, 'rescaleHeight': False, 'trialN': 35, 'loaded': True, 'loadedTime': 44693.39999961853, 'positionName': 'RIGHT', 'positionCoords': [710.32, 178.5], 'bid': 5.2}]",92223.60000038147,1669837964436,popsicles,corn cob,4.95,5.2,0.25,corn cob,671.2999992370605,671,671.7999992370605,True,i,93406.10000038147,1182.5,1669837965618,1182,HRV,HRV_0265,2022-11-30 19:55:52
36,"[{'imgObject': {}, 'id': 'froot loops w milk', 'src': '/static/foodstim60/froot loops w milk.jpg', 'key': 'u', 'origWidth': 410, 'origHeight': 410, 'width': 410, 'height': 410, 'widthPercent': 0.45, 'rescaleHeight': False, 'trialN': 36, 'loaded': True, 'loadedTime': 44724, 'positionName': 'LEFT', 'positionCoords': [245.68, 179], 'bid': 4.88}, {'imgObject': {}, 'id': 'omelette', 'src': '/static/foodstim60/omelette.jpg', 'key': 'i', 'origWidth': 410, 'origHeight': 409, 'width': 410, 'height': 409, 'widthPercent': 0.45, 'rescaleHeight': False, 'trialN': 36, 'loaded': True, 'loadedTime': 44561.80000114441, 'positionName': 'RIGHT', 'positionCoords': [710.32, 179.5], 'bid': 3.3000000000000003}]",93406.39999961853,1669837965618,froot loops w milk,omelette,4.88,3.3000000000000003,-1.5799999999999996,froot loops w milk,527.1000003814697,528,527.5,True,u,94447.5,1041.1000003814697,1669837966660,1042,HRV,HRV_0265,2022-11-30 19:55:52
37,"[{'imgObject': {}, 'id': 'popsicles', 'src': '/static/foodstim60/popsicles.jpg', 'key': 'u', 'origWidth': 410, 'origHeight': 410, 'width': 410, 'height': 410, 'widthPercent': 0.45, 'rescaleHeight': False, 'trialN': 37, 'loaded': True, 'loadedTime': 44769.89999961853, 'positionName': 'LEFT', 'positionCoords': [245.68, 179], 'bid': 4.95}, {'imgObject': {}, 'id': 'chicken nuggets2', 'src': '/static/foodstim60/chicken nuggets2.jpg', 'key': 'i', 'origWidth': 410, 'origHeight': 409, 'width': 410, 'height': 409, 'widthPercent': 0.45, 'rescaleHeight': False, 'trialN': 37, 'loaded': True, 'loadedTime': 44746.60000038147, 'positionName': 'RIGHT', 'positionCoords': [710.32, 179.5], 'bid': 8.49}]",94447.70000076294,1669837966660,popsicles,chicken nuggets2,4.95,8.49,3.54,chicken nuggets2,635.6999988555908,636,636.1999988555908,True,i,95597.70000076294,1150.0,1669837967810,1150,HRV,HRV_0265,2022-11-30 19:55:52
38,"[{'imgObject': {}, 'id': 'luckycharms', 'src': '/static/foodstim60/luckycharms.jpg', 'key': 'u', 'origWidth': 410, 'origHeight': 409, 'width': 410, 'height': 409, 'widthPercent': 0.45, 'rescaleHeight': False, 'trialN': 38, 'loaded': True, 'loadedTime': 44681.70000076294, 'positionName': 'LEFT', 'positionCoords': [245.68, 179.5], 'bid': 9.81}, {'imgObject': {}, 'id': 'omelette', 'src': '/static/foodstim60/omelette.jpg', 'key': 'i', 'origWidth': 410, 'origHeight': 409, 'width': 410, 'height': 409, 'widthPercent': 0.45, 'rescaleHeight': False, 'trialN': 38, 'loaded': True, 'loadedTime': 44554.5, 'positionName': 'RIGHT', 'positionCoords': [710.32, 179.5], 'bid': 3.3000000000000003}]",95597.89999961853,1669837967810,luckycharms,omelette,9.81,3.3000000000000003,-6.51,luckycharms,575.4000015258789,576,575.7000007629395,True,u,96686.60000038147,1088.7000007629395,1669837968899,1089,HRV,HRV_0265,2022-11-30 19:55:52
39,"[{'imgObject': {}, 'id': 'raisin bran w milk', 'src': '/static/foodstim60/raisin bran w milk.jpg', 'key': 'u', 'origWidth': 411, 'origHeight': 411, 'width': 411, 'height': 411, 'widthPercent': 0.45, 'rescaleHeight': False, 'trialN': 39, 'loaded': True, 'loadedTime': 44771.60000038147, 'positionName': 'LEFT', 'positionCoords': [244.68, 178.5], 'bid': 0.27}, {'imgObject': {}, 'id': 'bagel plain', 'src': '/static/foodstim60/bagel plain.jpg', 'key': 'i', 'origWidth': 410, 'origHeight': 410, 'width': 410, 'height': 410, 'widthPercent': 0.45, 'rescaleHeight': False, 'trialN': 39, 'loaded': True, 'loadedTime': 44778, 'positionName': 'RIGHT', 'positionCoords': [710.32, 179], 'bid': 0.37}]",96686.80000114441,1669837968899,raisin bran w milk,bagel plain,0.27,0.37,0.09999999999999998,bagel plain,631.0,631,631.2999992370605,True,i,97822.39999961853,1135.599998474121,1669837970034,1135,HRV,HRV_0265,2022-11-30 19:55:52
40,"[{'imgObject': {}, 'id': 'steak', 'src': '/static/foodstim60/steak.jpg', 'key': 'u', 'origWidth': 410, 'origHeight': 410, 'width': 410, 'height': 410, 'widthPercent': 0.45, 'rescaleHeight': False, 'trialN': 40, 'loaded': True, 'loadedTime': 44520.5, 'positionName': 'LEFT', 'positionCoords': [245.68, 179], 'bid': 9.77}, {'imgObject': {}, 'id': 'fruitsalad', 'src': '/static/foodstim60/fruitsalad.jpg', 'key': 'i', 'origWidth': 410, 'origHeight': 410, 'width': 410, 'height': 410, 'widthPercent': 0.45, 'rescaleHeight': False, 'trialN': 40, 'loaded': True, 'loadedTime': 44608.39999961853, 'positionName': 'RIGHT', 'positionCoords': [710.32, 179], 'bid': 3.03}]",97822.5,1669837970035,steak,fruitsalad,9.77,3.03,-6.74,steak,494.3999996185303,494,494.8000011444092,True,u,98824.89999961853,1002.3999996185303,1669837971037,1002,HRV,HRV_0265,2022-11-30 19:55:52
41,"[{'imgObject': {}, 'id': 'mac & cheese', 'src': '/static/foodstim60/mac & cheese.jpg', 'key': 'u', 'origWidth': 410, 'origHeight': 410, 'width': 410, 'height': 410, 'widthPercent': 0.45, 'rescaleHeight': False, 'trialN': 41, 'loaded': True, 'loadedTime': 44596.80000114441, 'positionName': 'LEFT', 'positionCoords': [245.68, 179], 'bid': 9.91}, {'imgObject': {}, 'id': 'salmon', 'src': '/static/foodstim60/salmon.jpg', 'key': 'i', 'origWidth': 410, 'origHeight': 409, 'width': 410, 'height': 409, 'widthPercent': 0.45, 'rescaleHeight': False, 'trialN': 41, 'loaded': True, 'loadedTime': 44781.89999961853, 'positionName': 'RIGHT', 'positionCoords': [710.32, 179.5], 'bid': 3.52}]",98825.20000076294,1669837971037,mac & cheese,salmon,9.91,3.52,-6.390000000000001,mac & cheese,586.3999996185303,587,586.8999996185303,True,u,99929.60000038147,1104.3999996185303,1669837972142,1105,HRV,HRV_0265,2022-11-30 19:55:52
42,"[{'imgObject': {}, 'id': 'ice cream sundae 002', 'src': '/static/foodstim60/ice cream sundae 002.jpg', 'key': 'u', 'origWidth': 409, 'origHeight': 409, 'width': 409, 'height': 409, 'widthPercent': 0.45, 'rescaleHeight': False, 'trialN': 42, 'loaded': True, 'loadedTime': 44783.60000038147, 'positionName': 'LEFT', 'positionCoords': [246.68, 179.5], 'bid': 0.34}, {'imgObject': {}, 'id': 'cantaloupe', 'src': '/static/foodstim60/cantaloupe.jpg', 'key': 'i', 'origWidth': 409, 'origHeight': 409, 'width': 409, 'height': 409, 'widthPercent': 0.45, 'rescaleHeight': False, 'trialN': 42, 'loaded': True, 'loadedTime': 44683.89999961853, 'positionName': 'RIGHT', 'positionCoords': [710.32, 179.5], 'bid': 0.19}]",99929.80000114441,1669837972142,ice cream sundae 002,cantaloupe,0.34,0.19,-0.15000000000000002,cantaloupe,1135.7999992370605,1136,1136.5,True,i,101587.89999961853,1658.099998474121,1669837973800,1658,HRV,HRV_0265,2022-11-30 19:55:52
43,"[{'imgObject': {}, 'id': 'cherry tomato', 'src': '/static/foodstim60/cherry tomato.jpg', 'key': 'u', 'origWidth': 410, 'origHeight': 410, 'width': 410, 'height': 410, 'widthPercent': 0.45, 'rescaleHeight': False, 'trialN': 43, 'loaded': True, 'loadedTime': 44784.5, 'positionName': 'LEFT', 'positionCoords': [245.68, 179], 'bid': 0.02}, {'imgObject': {}, 'id': 'raisin bran w milk', 'src': '/static/foodstim60/raisin bran w milk.jpg', 'key': 'i', 'origWidth': 411, 'origHeight': 411, 'width': 411, 'height': 411, 'widthPercent': 0.45, 'rescaleHeight': False, 'trialN': 43, 'loaded': True, 'loadedTime': 44772, 'positionName': 'RIGHT', 'positionCoords': [710.32, 178.5], 'bid': 0.27}]",101588.10000038147,1669837973800,cherry tomato,raisin bran w milk,0.02,0.27,0.25,cherry tomato,723.2999992370605,724,723.6000003814697,True,u,102823.89999961853,1235.7999992370605,1669837975036,1236,HRV,HRV_0265,2022-11-30 19:55:52
44,"[{'imgObject': {}, 'id': 'yogurt no spoon', 'src': '/static/foodstim60/yogurt no spoon.jpg', 'key': 'u', 'origWidth': 411, 'origHeight': 410, 'width': 411, 'height': 410, 'widthPercent': 0.45, 'rescaleHeight': False, 'trialN': 44, 'loaded': True, 'loadedTime': 44793.80000114441, 'positionName': 'LEFT', 'positionCoords': [244.68, 179], 'bid': 1.36}, {'imgObject': {}, 'id': 'orange slices', 'src': '/static/foodstim60/orange slices.jpg', 'key': 'i', 'origWidth': 409, 'origHeight': 410, 'width': 409, 'height': 410, 'widthPercent': 0.45, 'rescaleHeight': False, 'trialN': 44, 'loaded': True, 'loadedTime': 44796.30000114441, 'positionName': 'RIGHT', 'positionCoords': [710.32, 179], 'bid': 4.3100000000000005}]",102824.10000038147,1669837975036,yogurt no spoon,orange slices,1.36,4.3100000000000005,2.95,orange slices,562.3999996185303,554,562.7999992370605,True,i,103897.60000038147,1073.5,1669837976101,1065,HRV,HRV_0265,2022-11-30 19:55:52
45,"[{'imgObject': {}, 'id': 'salmon', 'src': '/static/foodstim60/salmon.jpg', 'key': 'u', 'origWidth': 410, 'origHeight': 409, 'width': 410, 'height': 409, 'widthPercent': 0.45, 'rescaleHeight': False, 'trialN': 45, 'loaded': True, 'loadedTime': 44780.30000114441, 'positionName': 'LEFT', 'positionCoords': [245.68, 179.5], 'bid': 3.52}, {'imgObject': {}, 'id': 'popsicles', 'src': '/static/foodstim60/popsicles.jpg', 'key': 'i', 'origWidth': 410, 'origHeight': 410, 'width': 410, 'height': 410, 'widthPercent': 0.45, 'rescaleHeight': False, 'trialN': 45, 'loaded': True, 'loadedTime': 44769, 'positionName': 'RIGHT', 'positionCoords': [710.32, 179], 'bid': 4.95}]",103897.80000114441,1669837976101,salmon,popsicles,3.52,4.95,1.4300000000000002,popsicles,597.0999984741211,598,597.3999996185303,True,i,104999.80000114441,1102.0,1669837977203,1102,HRV,HRV_0265,2022-11-30 19:55:52
46,"[{'imgObject': {}, 'id': 'blackbeanswithrice', 'src': '/static/foodstim60/blackbeanswithrice.jpg', 'key': 'u', 'origWidth': 410, 'origHeight': 410, 'width': 410, 'height': 410, 'widthPercent': 0.45, 'rescaleHeight': False, 'trialN': 46, 'loaded': True, 'loadedTime': 44598.39999961853, 'positionName': 'LEFT', 'positionCoords': [245.68, 179], 'bid': 6.17}, {'imgObject': {}, 'id': 'ice cream sundae 002', 'src': '/static/foodstim60/ice cream sundae 002.jpg', 'key': 'i', 'origWidth': 409, 'origHeight': 409, 'width': 409, 'height': 409, 'widthPercent': 0.45, 'rescaleHeight': False, 'trialN': 46, 'loaded': True, 'loadedTime': 44782, 'positionName': 'RIGHT', 'positionCoords': [710.32, 179.5], 'bid': 0.34}]",105000.10000038147,1669837977203,blackbeanswithrice,ice cream sundae 002,6.17,0.34,-5.83,blackbeanswithrice,589.7999992370605,591,590.2000007629395,True,u,106104.5,1104.3999996185303,1669837978308,1105,HRV,HRV_0265,2022-11-30 19:55:52
47,"[{'imgObject': {}, 'id': 'yogurt no spoon', 'src': '/static/foodstim60/yogurt no spoon.jpg', 'key': 'u', 'origWidth': 411, 'origHeight': 410, 'width': 411, 'height': 410, 'widthPercent': 0.45, 'rescaleHeight': False, 'trialN': 47, 'loaded': True, 'loadedTime': 44786.30000114441, 'positionName': 'LEFT', 'positionCoords': [244.68, 179], 'bid': 1.36}, {'imgObject': {}, 'id': 'raspberries', 'src': '/static/foodstim60/raspberries.jpg', 'key': 'i', 'origWidth': 411, 'origHeight': 411, 'width': 411, 'height': 411, 'widthPercent': 0.45, 'rescaleHeight': False, 'trialN': 47, 'loaded': True, 'loadedTime': 44669.60000038147, 'positionName': 'RIGHT', 'positionCoords': [710.32, 178.5], 'bid': 1.6}]",106104.70000076294,1669837978308,yogurt no spoon,raspberries,1.36,1.6,0.24,raspberries,615.2999992370605,616,615.6999988555908,True,i,107239.0,1134.2999992370605,1669837979442,1134,HRV,HRV_0265,2022-11-30 19:55:52
48,"[{'imgObject': {}, 'id': 'baked potato', 'src': '/static/foodstim60/baked potato.jpg', 'key': 'u', 'origWidth': 409, 'origHeight': 410, 'width': 409, 'height': 410, 'widthPercent': 0.45, 'rescaleHeight': False, 'trialN': 48, 'loaded': True, 'loadedTime': 44797.60000038147, 'positionName': 'LEFT', 'positionCoords': [246.68, 179], 'bid': 0.22}, {'imgObject': {}, 'id': 'mango', 'src': '/static/foodstim60/mango.jpg', 'key': 'i', 'origWidth': 411, 'origHeight': 411, 'width': 411, 'height': 411, 'widthPercent': 0.45, 'rescaleHeight': False, 'trialN': 48, 'loaded': True, 'loadedTime': 44704.10000038147, 'positionName': 'RIGHT', 'positionCoords': [710.32, 178.5], 'bid': 0.22}]",107239.30000114441,1669837979443,baked potato,mango,0.22,0.22,0.0,baked potato,661.3999996185303,661,661.6999988555908,True,u,108417.70000076294,1178.3999996185303,1669837980621,1178,HRV,HRV_0265,2022-11-30 19:55:52
49,"[{'imgObject': {}, 'id': 'hashbrowns', 'src': '/static/foodstim60/hashbrowns.jpg', 'key': 'u', 'origWidth': 411, 'origHeight': 410, 'width': 411, 'height': 410, 'widthPercent': 0.45, 'rescaleHeight': False, 'trialN': 49, 'loaded': True, 'loadedTime': 44758.89999961853, 'positionName': 'LEFT', 'positionCoords': [244.68, 179], 'bid': 0}, {'imgObject': {}, 'id': 'baked potato', 'src': '/static/foodstim60/baked potato.jpg', 'key': 'i', 'origWidth': 409, 'origHeight': 410, 'width': 409, 'height': 410, 'widthPercent': 0.45, 'rescaleHeight': False, 'trialN': 49, 'loaded': True, 'loadedTime': 44797.70000076294, 'positionName': 'RIGHT', 'positionCoords': [710.32, 179], 'bid': 0.22}]",108417.89999961853,1669837980621,hashbrowns,baked potato,0.0,0.22,0.22,hashbrowns,580.8000011444092,582,581.4000015258789,True,u,109505.10000038147,1087.2000007629395,1669837981708,1087,HRV,HRV_0265,2022-11-30 19:55:52
50,"[{'imgObject': {}, 'id': 'edamame', 'src': '/static/foodstim60/edamame.jpg', 'key': 'u', 'origWidth': 409, 'origHeight': 410, 'width': 409, 'height': 410, 'widthPercent': 0.45, 'rescaleHeight': False, 'trialN': 50, 'loaded': True, 'loadedTime': 44711.80000114441, 'positionName': 'LEFT', 'positionCoords': [246.68, 179], 'bid': 0.22}, {'imgObject': {}, 'id': 'baked potato', 'src': '/static/foodstim60/baked potato.jpg', 'key': 'i', 'origWidth': 409, 'origHeight': 410, 'width': 409, 'height': 410, 'widthPercent': 0.45, 'rescaleHeight': False, 'trialN': 50, 'loaded': True, 'loadedTime': 44797.89999961853, 'positionName': 'RIGHT', 'positionCoords': [710.32, 179], 'bid': 0.22}]",109505.39999961853,1669837981709,edamame,baked potato,0.22,0.22,0.0,baked potato,627.4000015258789,627,627.7000007629395,True,i,110640.39999961853,1135.0,1669837982844,1135,HRV,HRV_0265,2022-11-30 19:55:52
51,"[{'imgObject': {}, 'id': 'granola w milk', 'src': '/static/foodstim60/granola w milk.jpg', 'key': 'u', 'origWidth': 410, 'origHeight': 410, 'width': 410, 'height': 410, 'widthPercent': 0.45, 'rescaleHeight': False, 'trialN': 51, 'loaded': True, 'loadedTime': 44486.60000038147, 'positionName': 'LEFT', 'positionCoords': [245.68, 179], 'bid': 0}, {'imgObject': {}, 'id': 'olives', 'src': '/static/foodstim60/olives.jpg', 'key': 'i', 'origWidth': 410, 'origHeight': 410, 'width': 410, 'height': 410, 'widthPercent': 0.45, 'rescaleHeight': False, 'trialN': 51, 'loaded': True, 'loadedTime': 44722.39999961853, 'positionName': 'RIGHT', 'positionCoords': [710.32, 179], 'bid': 0.25}]",110640.5,1669837982844,granola w milk,olives,0.0,0.25,0.25,granola w milk,742.3000011444092,743,742.7000007629395,True,u,111893.20000076294,1252.7000007629395,1669837984097,1253,HRV,HRV_0265,2022-11-30 19:55:52
52,"[{'imgObject': {}, 'id': 'cherry tomato', 'src': '/static/foodstim60/cherry tomato.jpg', 'key': 'u', 'origWidth': 410, 'origHeight': 410, 'width': 410, 'height': 410, 'widthPercent': 0.45, 'rescaleHeight': False, 'trialN': 52, 'loaded': True, 'loadedTime': 44784.70000076294, 'positionName': 'LEFT', 'positionCoords': [245.68, 179], 'bid': 0.02}, {'imgObject': {}, 'id': 'pear', 'src': '/static/foodstim60/pear.jpg', 'key': 'i', 'origWidth': 411, 'origHeight': 410, 'width': 411, 'height': 410, 'widthPercent': 0.45, 'rescaleHeight': False, 'trialN': 52, 'loaded': True, 'loadedTime': 44506.89999961853, 'positionName': 'RIGHT', 'positionCoords': [710.32, 179], 'bid': 0.1}]",111893.39999961853,1669837984097,cherry tomato,pear,0.02,0.1,0.08,pear,593.9000015258789,594,594.3000011444092,True,i,112996.30000114441,1102.900001525879,1669837985200,1103,HRV,HRV_0265,2022-11-30 19:55:52
53,"[{'imgObject': {}, 'id': 'veggieswithdip', 'src': '/static/foodstim60/veggieswithdip.jpg', 'key': 'u', 'origWidth': 409, 'origHeight': 409, 'width': 409, 'height': 409, 'widthPercent': 0.45, 'rescaleHeight': False, 'trialN': 53, 'loaded': True, 'loadedTime': 44673.60000038147, 'positionName': 'LEFT', 'positionCoords': [246.68, 179.5], 'bid': 4.5600000000000005}, {'imgObject': {}, 'id': 'rigatoni', 'src': '/static/foodstim60/rigatoni.jpg', 'key': 'i', 'origWidth': 411, 'origHeight': 411, 'width': 411, 'height': 411, 'widthPercent': 0.45, 'rescaleHeight': False, 'trialN': 53, 'loaded': True, 'loadedTime': 44759.30000114441, 'positionName': 'RIGHT', 'positionCoords': [710.32, 178.5], 'bid': 4.83}]",112996.5,1669837985200,veggieswithdip,rigatoni,4.5600000000000005,4.83,0.2699999999999996,veggieswithdip,830.8000011444092,831,831.3999996185303,True,u,114338.5,1342.0,1669837986542,1342,HRV,HRV_0265,2022-11-30 19:55:52
54,"[{'imgObject': {}, 'id': 'bagel plain', 'src': '/static/foodstim60/bagel plain.jpg', 'key': 'u', 'origWidth': 410, 'origHeight': 410, 'width': 410, 'height': 410, 'widthPercent': 0.45, 'rescaleHeight': False, 'trialN': 54, 'loaded': True, 'loadedTime': 44780, 'positionName': 'LEFT', 'positionCoords': [245.68, 179], 'bid': 0.37}, {'imgObject': {}, 'id': 'mango', 'src': '/static/foodstim60/mango.jpg', 'key': 'i', 'origWidth': 411, 'origHeight': 411, 'width': 411, 'height': 411, 'widthPercent': 0.45, 'rescaleHeight': False, 'trialN': 54, 'loaded': True, 'loadedTime': 44701.89999961853, 'positionName': 'RIGHT', 'positionCoords': [710.32, 178.5], 'bid': 0.22}]",114338.70000076294,1669837986542,bagel plain,mango,0.37,0.22,-0.15,bagel plain,768.2999992370605,769,768.6000003814697,True,u,115628.89999961853,1290.1999988555908,1669837987832,1290,HRV,HRV_0265,2022-11-30 19:55:52
55,"[{'imgObject': {}, 'id': 'luckycharms', 'src': '/static/foodstim60/luckycharms.jpg', 'key': 'u', 'origWidth': 410, 'origHeight': 409, 'width': 410, 'height': 409, 'widthPercent': 0.45, 'rescaleHeight': False, 'trialN': 55, 'loaded': True, 'loadedTime': 44681.80000114441, 'positionName': 'LEFT', 'positionCoords': [245.68, 179.5], 'bid': 9.81}, {'imgObject': {}, 'id': 'apple slices', 'src': '/static/foodstim60/apple slices.jpg', 'key': 'i', 'origWidth': 409, 'origHeight': 410, 'width': 409, 'height': 410, 'widthPercent': 0.45, 'rescaleHeight': False, 'trialN': 55, 'loaded': True, 'loadedTime': 44799.89999961853, 'positionName': 'RIGHT', 'positionCoords': [710.32, 179], 'bid': 5.01}]",115629.10000038147,1669837987832,luckycharms,apple slices,9.81,5.01,-4.800000000000001,luckycharms,601.7999992370605,603,602.2999992370605,True,u,116734.5,1105.3999996185303,1669837988938,1106,HRV,HRV_0265,2022-11-30 19:55:52
56,"[{'imgObject': {}, 'id': 'orange slices', 'src': '/static/foodstim60/orange slices.jpg', 'key': 'u', 'origWidth': 409, 'origHeight': 410, 'width': 409, 'height': 410, 'widthPercent': 0.45, 'rescaleHeight': False, 'trialN': 56, 'loaded': True, 'loadedTime': 44794.89999961853, 'positionName': 'LEFT', 'positionCoords': [246.68, 179], 'bid': 4.3100000000000005}, {'imgObject': {}, 'id': 'salmon', 'src': '/static/foodstim60/salmon.jpg', 'key': 'i', 'origWidth': 410, 'origHeight': 409, 'width': 410, 'height': 409, 'widthPercent': 0.45, 'rescaleHeight': False, 'trialN': 56, 'loaded': True, 'loadedTime': 44781.30000114441, 'positionName': 'RIGHT', 'positionCoords': [710.32, 179.5], 'bid': 3.52}]",116734.70000076294,1669837988938,orange slices,salmon,4.3100000000000005,3.52,-0.7900000000000005,salmon,790.6999988555908,791,791.1999988555908,True,i,118040.70000076294,1306.0,1669837990244,1306,HRV,HRV_0265,2022-11-30 19:55:52
57,"[{'imgObject': {}, 'id': 'mashed potato', 'src': '/static/foodstim60/mashed potato.jpg', 'key': 'u', 'origWidth': 409, 'origHeight': 409, 'width': 409, 'height': 409, 'widthPercent': 0.45, 'rescaleHeight': False, 'trialN': 57, 'loaded': True, 'loadedTime': 44563.89999961853, 'positionName': 'LEFT', 'positionCoords': [246.68, 179.5], 'bid': 0.16}, {'imgObject': {}, 'id': 'bagel plain', 'src': '/static/foodstim60/bagel plain.jpg', 'key': 'i', 'origWidth': 410, 'origHeight': 410, 'width': 410, 'height': 410, 'widthPercent': 0.45, 'rescaleHeight': False, 'trialN': 57, 'loaded': True, 'loadedTime': 44779.5, 'positionName': 'RIGHT', 'positionCoords': [710.32, 179], 'bid': 0.37}]",118040.89999961853,1669837990244,mashed potato,bagel plain,0.16,0.37,0.21,bagel plain,645.3000011444092,646,645.8000011444092,True,i,119190.0,1149.1000003814697,1669837991393,1149,HRV,HRV_0265,2022-11-30 19:55:52
58,"[{'imgObject': {}, 'id': 'chickenfingers', 'src': '/static/foodstim60/chickenfingers.jpg', 'key': 'u', 'origWidth': 410, 'origHeight': 410, 'width': 410, 'height': 410, 'widthPercent': 0.45, 'rescaleHeight': False, 'trialN': 58, 'loaded': True, 'loadedTime': 44632.20000076294, 'positionName': 'LEFT', 'positionCoords': [245.68, 179], 'bid': 3.38}, {'imgObject': {}, 'id': 'blueberries', 'src': '/static/foodstim60/blueberries.jpg', 'key': 'i', 'origWidth': 411, 'origHeight': 411, 'width': 411, 'height': 411, 'widthPercent': 0.45, 'rescaleHeight': False, 'trialN': 58, 'loaded': True, 'loadedTime': 44750.20000076294, 'positionName': 'RIGHT', 'positionCoords': [710.32, 178.5], 'bid': 3.52}]",119190.30000114441,1669837991394,chickenfingers,blueberries,3.38,3.52,0.14000000000000012,chickenfingers,614.8999996185303,615,615.3999996185303,True,u,120310.39999961853,1120.099998474121,1669837992514,1120,HRV,HRV_0265,2022-11-30 19:55:52
59,"[{'imgObject': {}, 'id': 'Tribe humus pita', 'src': '/static/foodstim60/Tribe humus pita.jpg', 'key': 'u', 'origWidth': 411, 'origHeight': 411, 'width': 411, 'height': 411, 'widthPercent': 0.45, 'rescaleHeight': False, 'trialN': 59, 'loaded': True, 'loadedTime': 44747.30000114441, 'positionName': 'LEFT', 'positionCoords': [244.68, 178.5], 'bid': 6.78}, {'imgObject': {}, 'id': 'fried eggs', 'src': '/static/foodstim60/fried eggs.jpg', 'key': 'i', 'origWidth': 410, 'origHeight': 410, 'width': 410, 'height': 410, 'widthPercent': 0.45, 'rescaleHeight': False, 'trialN': 59, 'loaded': True, 'loadedTime': 44649.10000038147, 'positionName': 'RIGHT', 'positionCoords': [710.32, 179], 'bid': 7.34}]",120310.60000038147,1669837992514,Tribe humus pita,fried eggs,6.78,7.34,0.5599999999999996,fried eggs,695.2000007629395,696,695.7000007629395,True,i,121515.39999961853,1204.7999992370605,1669837993719,1205,HRV,HRV_0265,2022-11-30 19:55:52
60,"[{'imgObject': {}, 'id': 'fruitsalad', 'src': '/static/foodstim60/fruitsalad.jpg', 'key': 'u', 'origWidth': 410, 'origHeight': 410, 'width': 410, 'height': 410, 'widthPercent': 0.45, 'rescaleHeight': False, 'trialN': 60, 'loaded': True, 'loadedTime': 44606.80000114441, 'positionName': 'LEFT', 'positionCoords': [245.68, 179], 'bid': 3.03}, {'imgObject': {}, 'id': 'rigatoni', 'src': '/static/foodstim60/rigatoni.jpg', 'key': 'i', 'origWidth': 411, 'origHeight': 411, 'width': 411, 'height': 411, 'widthPercent': 0.45, 'rescaleHeight': False, 'trialN': 60, 'loaded': True, 'loadedTime': 44760.5, 'positionName': 'RIGHT', 'positionCoords': [710.32, 178.5], 'bid': 4.83}]",121515.60000038147,1669837993719,fruitsalad,rigatoni,3.03,4.83,1.8000000000000003,rigatoni,473.0,473,473.29999923706055,True,i,122503.0,987.3999996185303,1669837994706,987,HRV,HRV_0265,2022-11-30 19:55:52
61,"[{'imgObject': {}, 'id': 'cocktailshrimp', 'src': '/static/foodstim60/cocktailshrimp.jpg', 'key': 'u', 'origWidth': 410, 'origHeight': 410, 'width': 410, 'height': 410, 'widthPercent': 0.45, 'rescaleHeight': False, 'trialN': 61, 'loaded': True, 'loadedTime': 44571.20000076294, 'positionName': 'LEFT', 'positionCoords': [245.68, 179], 'bid': 0.18}, {'imgObject': {}, 'id': 'bagel and cc', 'src': '/static/foodstim60/bagel and cc.jpg', 'key': 'i', 'origWidth': 410, 'origHeight': 410, 'width': 410, 'height': 410, 'widthPercent': 0.45, 'rescaleHeight': False, 'trialN': 61, 'loaded': True, 'loadedTime': 44801.60000038147, 'positionName': 'RIGHT', 'positionCoords': [710.32, 179], 'bid': 4.97}]",122503.10000038147,1669837994706,cocktailshrimp,bagel and cc,0.18,4.97,4.79,bagel and cc,620.5,621,620.8999996185303,True,i,123639.30000114441,1136.2000007629395,1669837995843,1137,HRV,HRV_0265,2022-11-30 19:55:52
62,"[{'imgObject': {}, 'id': 'cheerios', 'src': '/static/foodstim60/cheerios.jpg', 'key': 'u', 'origWidth': 409, 'origHeight': 410, 'width': 409, 'height': 410, 'widthPercent': 0.45, 'rescaleHeight': False, 'trialN': 62, 'loaded': True, 'loadedTime': 44714.60000038147, 'positionName': 'LEFT', 'positionCoords': [246.68, 179], 'bid': 0.12}, {'imgObject': {}, 'id': 'yogurt no spoon', 'src': '/static/foodstim60/yogurt no spoon.jpg', 'key': 'i', 'origWidth': 411, 'origHeight': 410, 'width': 411, 'height': 410, 'widthPercent': 0.45, 'rescaleHeight': False, 'trialN': 62, 'loaded': True, 'loadedTime': 44794.70000076294, 'positionName': 'RIGHT', 'positionCoords': [710.32, 179], 'bid': 1.36}]",123639.39999961853,1669837995843,cheerios,yogurt no spoon,0.12,1.36,1.2400000000000002,cheerios,639.6000003814697,640,639.9000015258789,True,u,124781.20000076294,1141.8000011444092,1669837996985,1142,HRV,HRV_0265,2022-11-30 19:55:52
63,"[{'imgObject': {}, 'id': 'burger', 'src': '/static/foodstim60/burger.jpg', 'key': 'u', 'origWidth': 409, 'origHeight': 409, 'width': 409, 'height': 409, 'widthPercent': 0.45, 'rescaleHeight': False, 'trialN': 63, 'loaded': True, 'loadedTime': 44735.89999961853, 'positionName': 'LEFT', 'positionCoords': [246.68, 179.5], 'bid': 7.56}, {'imgObject': {}, 'id': 'tacos', 'src': '/static/foodstim60/tacos.jpg', 'key': 'i', 'origWidth': 411, 'origHeight': 411, 'width': 411, 'height': 411, 'widthPercent': 0.45, 'rescaleHeight': False, 'trialN': 63, 'loaded': True, 'loadedTime': 44535.30000114441, 'positionName': 'RIGHT', 'positionCoords': [710.32, 178.5], 'bid': 8.17}]",124781.39999961853,1669837996985,burger,tacos,7.56,8.17,0.6100000000000003,burger,567.1000003814697,567,567.4000015258789,True,u,125870.30000114441,1088.900001525879,1669837998074,1089,HRV,HRV_0265,2022-11-30 19:55:52
64,"[{'imgObject': {}, 'id': 'omelette', 'src': '/static/foodstim60/omelette.jpg', 'key': 'u', 'origWidth': 410, 'origHeight': 409, 'width': 410, 'height': 409, 'widthPercent': 0.45, 'rescaleHeight': False, 'trialN': 64, 'loaded': True, 'loadedTime': 44555.80000114441, 'positionName': 'LEFT', 'positionCoords': [245.68, 179.5], 'bid': 3.3000000000000003}, {'imgObject': {}, 'id': 'fruitsalad', 'src': '/static/foodstim60/fruitsalad.jpg', 'key': 'i', 'origWidth': 410, 'origHeight': 410, 'width': 410, 'height': 410, 'widthPercent': 0.45, 'rescaleHeight': False, 'trialN': 64, 'loaded': True, 'loadedTime': 44608.5, 'positionName': 'RIGHT', 'positionCoords': [710.32, 179], 'bid': 3.03}]",125870.60000038147,1669837998074,omelette,fruitsalad,3.3000000000000003,3.03,-0.27000000000000046,omelette,1047.2999992370605,1048,1047.7000007629395,True,u,127421.39999961853,1550.7999992370605,1669837999625,1551,HRV,HRV_0265,2022-11-30 19:55:52
65,"[{'imgObject': {}, 'id': 'seaweed', 'src': '/static/foodstim60/seaweed.jpg', 'key': 'u', 'origWidth': 410, 'origHeight': 410, 'width': 410, 'height': 410, 'widthPercent': 0.45, 'rescaleHeight': False, 'trialN': 65, 'loaded': True, 'loadedTime': 44652.10000038147, 'positionName': 'LEFT', 'positionCoords': [245.68, 179], 'bid': 1.53}, {'imgObject': {}, 'id': 'shreddedwheatwithmilk', 'src': '/static/foodstim60/shreddedwheatwithmilk.jpg', 'key': 'i', 'origWidth': 410, 'origHeight': 410, 'width': 410, 'height': 410, 'widthPercent': 0.45, 'rescaleHeight': False, 'trialN': 65, 'loaded': True, 'loadedTime': 44803.10000038147, 'positionName': 'RIGHT', 'positionCoords': [710.32, 179], 'bid': 0.12}]",127421.60000038147,1669837999625,seaweed,shreddedwheatwithmilk,1.53,0.12,-1.4100000000000001,shreddedwheatwithmilk,575.5,576,575.7000007629395,True,i,128509.39999961853,1087.7999992370605,1669838000713,1088,HRV,HRV_0265,2022-11-30 19:55:52
66,"[{'imgObject': {}, 'id': 'kiwi', 'src': '/static/foodstim60/kiwi.jpg', 'key': 'u', 'origWidth': 410, 'origHeight': 410, 'width': 410, 'height': 410, 'widthPercent': 0.45, 'rescaleHeight': False, 'trialN': 66, 'loaded': True, 'loadedTime': 44803.39999961853, 'positionName': 'LEFT', 'positionCoords': [245.68, 179], 'bid': 0.87}, {'imgObject': {}, 'id': 'sweetpotato', 'src': '/static/foodstim60/sweetpotato.jpg', 'key': 'i', 'origWidth': 410, 'origHeight': 410, 'width': 410, 'height': 410, 'widthPercent': 0.45, 'rescaleHeight': False, 'trialN': 66, 'loaded': True, 'loadedTime': 44768.39999961853, 'positionName': 'RIGHT', 'positionCoords': [710.32, 179], 'bid': 6.97}]",128509.60000038147,1669838000713,kiwi,sweetpotato,0.87,6.97,6.1,kiwi,512.2000007629395,513,512.7000007629395,True,u,129527.5,1017.8999996185303,1669838001731,1018,HRV,HRV_0265,2022-11-30 19:55:52
67,"[{'imgObject': {}, 'id': 'omelette', 'src': '/static/foodstim60/omelette.jpg', 'key': 'u', 'origWidth': 410, 'origHeight': 409, 'width': 410, 'height': 409, 'widthPercent': 0.45, 'rescaleHeight': False, 'trialN': 67, 'loaded': True, 'loadedTime': 44556.20000076294, 'positionName': 'LEFT', 'positionCoords': [245.68, 179.5], 'bid': 3.3000000000000003}, {'imgObject': {}, 'id': 'turkeysandwich', 'src': '/static/foodstim60/turkeysandwich.jpg', 'key': 'i', 'origWidth': 409, 'origHeight': 409, 'width': 409, 'height': 409, 'widthPercent': 0.45, 'rescaleHeight': False, 'trialN': 67, 'loaded': True, 'loadedTime': 44806.30000114441, 'positionName': 'RIGHT', 'positionCoords': [710.32, 179.5], 'bid': 4.3500000000000005}]",129527.80000114441,1669838001731,omelette,turkeysandwich,3.3000000000000003,4.3500000000000005,1.0500000000000003,turkeysandwich,868.1999988555908,869,868.5,True,i,130901.60000038147,1373.7999992370605,1669838003105,1374,HRV,HRV_0265,2022-11-30 19:55:52
68,"[{'imgObject': {}, 'id': 'seaweed', 'src': '/static/foodstim60/seaweed.jpg', 'key': 'u', 'origWidth': 410, 'origHeight': 410, 'width': 410, 'height': 410, 'widthPercent': 0.45, 'rescaleHeight': False, 'trialN': 68, 'loaded': True, 'loadedTime': 44652.30000114441, 'positionName': 'LEFT', 'positionCoords': [245.68, 179], 'bid': 1.53}, {'imgObject': {}, 'id': 'burger', 'src': '/static/foodstim60/burger.jpg', 'key': 'i', 'origWidth': 409, 'origHeight': 409, 'width': 409, 'height': 409, 'widthPercent': 0.45, 'rescaleHeight': False, 'trialN': 68, 'loaded': True, 'loadedTime': 44735.89999961853, 'positionName': 'RIGHT', 'positionCoords': [710.32, 179.5], 'bid': 7.56}]",130901.70000076294,1669838003105,seaweed,burger,1.53,7.56,6.029999999999999,burger,919.2999992370605,920,919.6000003814697,True,i,132337.8000011444,1436.1000003814697,1669838004541,1436,HRV,HRV_0265,2022-11-30 19:55:52
69,"[{'imgObject': {}, 'id': 'Grapes', 'src': '/static/foodstim60/Grapes.jpg', 'key': 'u', 'origWidth': 411, 'origHeight': 411, 'width': 411, 'height': 411, 'widthPercent': 0.45, 'rescaleHeight': False, 'trialN': 69, 'loaded': True, 'loadedTime': 44640, 'positionName': 'LEFT', 'positionCoords': [244.68, 178.5], 'bid': 5}, {'imgObject': {}, 'id': 'bagel and cc', 'src': '/static/foodstim60/bagel and cc.jpg', 'key': 'i', 'origWidth': 410, 'origHeight': 410, 'width': 410, 'height': 410, 'widthPercent': 0.45, 'rescaleHeight': False, 'trialN': 69, 'loaded': True, 'loadedTime': 44801.70000076294, 'positionName': 'RIGHT', 'positionCoords': [710.32, 179], 'bid': 4.97}]",132338.0,1669838004541,Grapes,bagel and cc,5.0,4.97,-0.03000000000000025,bagel and cc,668.5,669,668.8999996185303,True,i,133510.0,1172.0,1669838005713,1172,HRV,HRV_0265,2022-11-30 19:55:52
70,"[{'imgObject': {}, 'id': 'cantaloupe', 'src': '/static/foodstim60/cantaloupe.jpg', 'key': 'u', 'origWidth': 409, 'origHeight': 409, 'width': 409, 'height': 409, 'widthPercent': 0.45, 'rescaleHeight': False, 'trialN': 70, 'loaded': True, 'loadedTime': 44691.80000114441, 'positionName': 'LEFT', 'positionCoords': [246.68, 179.5], 'bid': 0.19}, {'imgObject': {}, 'id': 'cherry tomato', 'src': '/static/foodstim60/cherry tomato.jpg', 'key': 'i', 'origWidth': 410, 'origHeight': 410, 'width': 410, 'height': 410, 'widthPercent': 0.45, 'rescaleHeight': False, 'trialN': 70, 'loaded': True, 'loadedTime': 44783.60000038147, 'positionName': 'RIGHT', 'positionCoords': [710.32, 179], 'bid': 0.02}]",133510.20000076294,1669838005714,cantaloupe,cherry tomato,0.19,0.02,-0.17,cantaloupe,639.0,639,639.2999992370605,True,u,134659.89999961853,1149.6999988555908,1669838006863,1149,HRV,HRV_0265,2022-11-30 19:55:52
71,"[{'imgObject': {}, 'id': 'mashed potato', 'src': '/static/foodstim60/mashed potato.jpg', 'key': 'u', 'origWidth': 409, 'origHeight': 409, 'width': 409, 'height': 409, 'widthPercent': 0.45, 'rescaleHeight': False, 'trialN': 71, 'loaded': True, 'loadedTime': 44564.10000038147, 'positionName': 'LEFT', 'positionCoords': [246.68, 179.5], 'bid': 0.16}, {'imgObject': {}, 'id': 'popsicles', 'src': '/static/foodstim60/popsicles.jpg', 'key': 'i', 'origWidth': 410, 'origHeight': 410, 'width': 410, 'height': 410, 'widthPercent': 0.45, 'rescaleHeight': False, 'trialN': 71, 'loaded': True, 'loadedTime': 44770.39999961853, 'positionName': 'RIGHT', 'positionCoords': [710.32, 179], 'bid': 4.95}]",134660.20000076294,1669838006863,mashed potato,popsicles,0.16,4.95,4.79,popsicles,574.6999988555908,576,575.1000003814697,True,i,135749.20000076294,1089.0,1669838007953,1090,HRV,HRV_0265,2022-11-30 19:55:52
72,"[{'imgObject': {}, 'id': 'raspberries', 'src': '/static/foodstim60/raspberries.jpg', 'key': 'u', 'origWidth': 411, 'origHeight': 411, 'width': 411, 'height': 411, 'widthPercent': 0.45, 'rescaleHeight': False, 'trialN': 72, 'loaded': True, 'loadedTime': 44670.80000114441, 'positionName': 'LEFT', 'positionCoords': [244.68, 178.5], 'bid': 1.6}, {'imgObject': {}, 'id': 'avocado', 'src': '/static/foodstim60/avocado.jpg', 'key': 'i', 'origWidth': 409, 'origHeight': 409, 'width': 409, 'height': 409, 'widthPercent': 0.45, 'rescaleHeight': False, 'trialN': 72, 'loaded': True, 'loadedTime': 44807.70000076294, 'positionName': 'RIGHT', 'positionCoords': [710.32, 179.5], 'bid': 0.15}]",135749.39999961853,1669838007953,raspberries,avocado,1.6,0.15,-1.4500000000000002,avocado,734.7000007629395,735,735.2000007629395,True,i,137007.60000038147,1258.2000007629395,1669838009211,1258,HRV,HRV_0265,2022-11-30 19:55:52
73,"[{'imgObject': {}, 'id': 'luckycharms', 'src': '/static/foodstim60/luckycharms.jpg', 'key': 'u', 'origWidth': 410, 'origHeight': 409, 'width': 410, 'height': 409, 'widthPercent': 0.45, 'rescaleHeight': False, 'trialN': 73, 'loaded': True, 'loadedTime': 44682.10000038147, 'positionName': 'LEFT', 'positionCoords': [245.68, 179.5], 'bid': 9.81}, {'imgObject': {}, 'id': 'burrito', 'src': '/static/foodstim60/burrito.jpg', 'key': 'i', 'origWidth': 410, 'origHeight': 410, 'width': 410, 'height': 410, 'widthPercent': 0.45, 'rescaleHeight': False, 'trialN': 73, 'loaded': True, 'loadedTime': 44700, 'positionName': 'RIGHT', 'positionCoords': [710.32, 179], 'bid': 6.05}]",137007.8000011444,1669838009211,luckycharms,burrito,9.81,6.05,-3.7600000000000007,luckycharms,803.5,804,804.0,True,u,138327.3000011444,1319.5,1669838010531,1320,HRV,HRV_0265,2022-11-30 19:55:52
74,"[{'imgObject': {}, 'id': 'burger', 'src': '/static/foodstim60/burger.jpg', 'key': 'u', 'origWidth': 409, 'origHeight': 409, 'width': 409, 'height': 409, 'widthPercent': 0.45, 'rescaleHeight': False, 'trialN': 74, 'loaded': True, 'loadedTime': 44736.10000038147, 'positionName': 'LEFT', 'positionCoords': [246.68, 179.5], 'bid': 7.56}, {'imgObject': {}, 'id': 'apple slices', 'src': '/static/foodstim60/apple slices.jpg', 'key': 'i', 'origWidth': 409, 'origHeight': 410, 'width': 409, 'height': 410, 'widthPercent': 0.45, 'rescaleHeight': False, 'trialN': 74, 'loaded': True, 'loadedTime': 44799.39999961853, 'positionName': 'RIGHT', 'positionCoords': [710.32, 179], 'bid': 5.01}]",138327.5,1669838010531,burger,apple slices,7.56,5.01,-2.55,burger,546.1000003814697,546,546.6000003814697,True,u,139393.5,1066.0,1669838011597,1066,HRV,HRV_0265,2022-11-30 19:55:52
75,"[{'imgObject': {}, 'id': 'sweetpotato', 'src': '/static/foodstim60/sweetpotato.jpg', 'key': 'u', 'origWidth': 410, 'origHeight': 410, 'width': 410, 'height': 410, 'widthPercent': 0.45, 'rescaleHeight': False, 'trialN': 75, 'loaded': True, 'loadedTime': 44768.20000076294, 'positionName': 'LEFT', 'positionCoords': [245.68, 179], 'bid': 6.97}, {'imgObject': {}, 'id': 'fried eggs', 'src': '/static/foodstim60/fried eggs.jpg', 'key': 'i', 'origWidth': 410, 'origHeight': 410, 'width': 410, 'height': 410, 'widthPercent': 0.45, 'rescaleHeight': False, 'trialN': 75, 'loaded': True, 'loadedTime': 44648.20000076294, 'positionName': 'RIGHT', 'positionCoords': [710.32, 179], 'bid': 7.34}]",139393.8000011444,1669838011597,sweetpotato,fried eggs,6.97,7.34,0.3700000000000001,sweetpotato,1123.8999996185303,1125,1124.2999992370605,True,u,141024.10000038147,1630.2999992370605,1669838013227,1630,HRV,HRV_0265,2022-11-30 19:55:52
76,"[{'imgObject': {}, 'id': 'baked potato', 'src': '/static/foodstim60/baked potato.jpg', 'key': 'u', 'origWidth': 409, 'origHeight': 410, 'width': 409, 'height': 410, 'widthPercent': 0.45, 'rescaleHeight': False, 'trialN': 76, 'loaded': True, 'loadedTime': 44798, 'positionName': 'LEFT', 'positionCoords': [246.68, 179], 'bid': 0.22}, {'imgObject': {}, 'id': 'eggsalad', 'src': '/static/foodstim60/eggsalad.jpg', 'key': 'i', 'origWidth': 410, 'origHeight': 409, 'width': 410, 'height': 409, 'widthPercent': 0.45, 'rescaleHeight': False, 'trialN': 76, 'loaded': True, 'loadedTime': 44737.60000038147, 'positionName': 'RIGHT', 'positionCoords': [710.32, 179.5], 'bid': 0.12}]",141024.39999961853,1669838013228,baked potato,eggsalad,0.22,0.12,-0.1,baked potato,1062.6000003814697,1063,1062.900001525879,True,u,142592.39999961853,1568.0,1669838014796,1568,HRV,HRV_0265,2022-11-30 19:55:52
77,"[{'imgObject': {}, 'id': 'rigatoni', 'src': '/static/foodstim60/rigatoni.jpg', 'key': 'u', 'origWidth': 411, 'origHeight': 411, 'width': 411, 'height': 411, 'widthPercent': 0.45, 'rescaleHeight': False, 'trialN': 77, 'loaded': True, 'loadedTime': 44760.60000038147, 'positionName': 'LEFT', 'positionCoords': [244.68, 178.5], 'bid': 4.83}, {'imgObject': {}, 'id': 'eggsalad', 'src': '/static/foodstim60/eggsalad.jpg', 'key': 'i', 'origWidth': 410, 'origHeight': 409, 'width': 410, 'height': 409, 'widthPercent': 0.45, 'rescaleHeight': False, 'trialN': 77, 'loaded': True, 'loadedTime': 44745, 'positionName': 'RIGHT', 'positionCoords': [710.32, 179.5], 'bid': 0.12}]",142592.70000076294,1669838014796,rigatoni,eggsalad,4.83,0.12,-4.71,rigatoni,524.5,525,525.0,True,u,143635.20000076294,1042.5,1669838015839,1043,HRV,HRV_0265,2022-11-30 19:55:52
78,"[{'imgObject': {}, 'id': 'Grapes', 'src': '/static/foodstim60/Grapes.jpg', 'key': 'u', 'origWidth': 411, 'origHeight': 411, 'width': 411, 'height': 411, 'widthPercent': 0.45, 'rescaleHeight': False, 'trialN': 78, 'loaded': True, 'loadedTime': 44632.89999961853, 'positionName': 'LEFT', 'positionCoords': [244.68, 178.5], 'bid': 5}, {'imgObject': {}, 'id': 'burrito', 'src': '/static/foodstim60/burrito.jpg', 'key': 'i', 'origWidth': 410, 'origHeight': 410, 'width': 410, 'height': 410, 'widthPercent': 0.45, 'rescaleHeight': False, 'trialN': 78, 'loaded': True, 'loadedTime': 44701.70000076294, 'positionName': 'RIGHT', 'positionCoords': [710.32, 179], 'bid': 6.05}]",143635.3000011444,1669838015839,Grapes,burrito,5.0,6.05,1.0499999999999998,Grapes,580.5999984741211,581,581.0,True,u,144739.20000076294,1103.8999996185303,1669838016943,1104,HRV,HRV_0265,2022-11-30 19:55:52
79,"[{'imgObject': {}, 'id': 'blackbeanswithrice', 'src': '/static/foodstim60/blackbeanswithrice.jpg', 'key': 'u', 'origWidth': 410, 'origHeight': 410, 'width': 410, 'height': 410, 'widthPercent': 0.45, 'rescaleHeight': False, 'trialN': 79, 'loaded': True, 'loadedTime': 44599.20000076294, 'positionName': 'LEFT', 'positionCoords': [245.68, 179], 'bid': 6.17}, {'imgObject': {}, 'id': 'turkeysandwich', 'src': '/static/foodstim60/turkeysandwich.jpg', 'key': 'i', 'origWidth': 409, 'origHeight': 409, 'width': 409, 'height': 409, 'widthPercent': 0.45, 'rescaleHeight': False, 'trialN': 79, 'loaded': True, 'loadedTime': 44806, 'positionName': 'RIGHT', 'positionCoords': [710.32, 179.5], 'bid': 4.3500000000000005}]",144739.39999961853,1669838016943,blackbeanswithrice,turkeysandwich,6.17,4.3500000000000005,-1.8199999999999994,blackbeanswithrice,1271.400001525879,1272,1271.8000011444092,True,u,146517.8000011444,1778.400001525879,1669838018721,1778,HRV,HRV_0265,2022-11-30 19:55:52
80,"[{'imgObject': {}, 'id': 'avocado', 'src': '/static/foodstim60/avocado.jpg', 'key': 'u', 'origWidth': 409, 'origHeight': 409, 'width': 409, 'height': 409, 'widthPercent': 0.45, 'rescaleHeight': False, 'trialN': 80, 'loaded': True, 'loadedTime': 44808.10000038147, 'positionName': 'LEFT', 'positionCoords': [246.68, 179.5], 'bid': 0.15}, {'imgObject': {}, 'id': 'cocktailshrimp', 'src': '/static/foodstim60/cocktailshrimp.jpg', 'key': 'i', 'origWidth': 410, 'origHeight': 410, 'width': 410, 'height': 410, 'widthPercent': 0.45, 'rescaleHeight': False, 'trialN': 80, 'loaded': True, 'loadedTime': 44577.10000038147, 'positionName': 'RIGHT', 'positionCoords': [710.32, 179], 'bid': 0.18}]",146518.0,1669838018721,avocado,cocktailshrimp,0.15,0.18,0.03,cocktailshrimp,712.1000003814697,713,712.5,True,i,147748.39999961853,1230.3999996185303,1669838019952,1231,HRV,HRV_0265,2022-11-30 19:55:52
81,"[{'imgObject': {}, 'id': 'rigatoni and sauce', 'src': '/static/foodstim60/rigatoni and sauce.jpg', 'key': 'u', 'origWidth': 410, 'origHeight': 411, 'width': 410, 'height': 411, 'widthPercent': 0.45, 'rescaleHeight': False, 'trialN': 81, 'loaded': True, 'loadedTime': 44610, 'positionName': 'LEFT', 'positionCoords': [245.68, 178.5], 'bid': 9.83}, {'imgObject': {}, 'id': 'burger', 'src': '/static/foodstim60/burger.jpg', 'key': 'i', 'origWidth': 409, 'origHeight': 409, 'width': 409, 'height': 409, 'widthPercent': 0.45, 'rescaleHeight': False, 'trialN': 81, 'loaded': True, 'loadedTime': 44736, 'positionName': 'RIGHT', 'positionCoords': [710.32, 179.5], 'bid': 7.56}]",147748.60000038147,1669838019952,rigatoni and sauce,burger,9.83,7.56,-2.2700000000000005,rigatoni and sauce,527.1000003814697,527,527.6000003814697,True,u,148782.10000038147,1033.5,1669838020985,1033,HRV,HRV_0265,2022-11-30 19:55:52
82,"[{'imgObject': {}, 'id': 'apple slices', 'src': '/static/foodstim60/apple slices.jpg', 'key': 'u', 'origWidth': 409, 'origHeight': 410, 'width': 409, 'height': 410, 'widthPercent': 0.45, 'rescaleHeight': False, 'trialN': 82, 'loaded': True, 'loadedTime': 44799.60000038147, 'positionName': 'LEFT', 'positionCoords': [246.68, 179], 'bid': 5.01}, {'imgObject': {}, 'id': 'bagel and cc', 'src': '/static/foodstim60/bagel and cc.jpg', 'key': 'i', 'origWidth': 410, 'origHeight': 410, 'width': 410, 'height': 410, 'widthPercent': 0.45, 'rescaleHeight': False, 'trialN': 82, 'loaded': True, 'loadedTime': 44801.5, 'positionName': 'RIGHT', 'positionCoords': [710.32, 179], 'bid': 4.97}]",148782.3000011444,1669838020986,apple slices,bagel and cc,5.01,4.97,-0.040000000000000036,bagel and cc,752.0,752,752.2999992370605,True,i,150054.5,1272.1999988555908,1669838022258,1272,HRV,HRV_0265,2022-11-30 19:55:52
83,"[{'imgObject': {}, 'id': 'roastedpotatoes', 'src': '/static/foodstim60/roastedpotatoes.jpg', 'key': 'u', 'origWidth': 409, 'origHeight': 410, 'width': 409, 'height': 410, 'widthPercent': 0.45, 'rescaleHeight': False, 'trialN': 83, 'loaded': True, 'loadedTime': 44818.30000114441, 'positionName': 'LEFT', 'positionCoords': [246.68, 179], 'bid': 9.8}, {'imgObject': {}, 'id': 'sweetpotato', 'src': '/static/foodstim60/sweetpotato.jpg', 'key': 'i', 'origWidth': 410, 'origHeight': 410, 'width': 410, 'height': 410, 'widthPercent': 0.45, 'rescaleHeight': False, 'trialN': 83, 'loaded': True, 'loadedTime': 44768.70000076294, 'positionName': 'RIGHT', 'positionCoords': [710.32, 179], 'bid': 6.97}]",150054.70000076294,1669838022258,roastedpotatoes,sweetpotato,9.8,6.97,-2.830000000000001,sweetpotato,650.2999992370605,651,650.6999988555908,True,i,151220.70000076294,1166.0,1669838023424,1166,HRV,HRV_0265,2022-11-30 19:55:52
84,"[{'imgObject': {}, 'id': 'cherry tomato', 'src': '/static/foodstim60/cherry tomato.jpg', 'key': 'u', 'origWidth': 410, 'origHeight': 410, 'width': 410, 'height': 410, 'widthPercent': 0.45, 'rescaleHeight': False, 'trialN': 84, 'loaded': True, 'loadedTime': 44784.89999961853, 'positionName': 'LEFT', 'positionCoords': [245.68, 179], 'bid': 0.02}, {'imgObject': {}, 'id': 'avocado', 'src': '/static/foodstim60/avocado.jpg', 'key': 'i', 'origWidth': 409, 'origHeight': 409, 'width': 409, 'height': 409, 'widthPercent': 0.45, 'rescaleHeight': False, 'trialN': 84, 'loaded': True, 'loadedTime': 44807.89999961853, 'positionName': 'RIGHT', 'positionCoords': [710.32, 179.5], 'bid': 0.15}]",151220.89999961853,1669838023424,cherry tomato,avocado,0.02,0.15,0.13,cherry tomato,947.7000007629395,948,948.1000003814697,True,u,152677.3000011444,1456.400001525879,1669838024881,1457,HRV,HRV_0265,2022-11-30 19:55:52
85,"[{'imgObject': {}, 'id': 'chicken nuggets2', 'src': '/static/foodstim60/chicken nuggets2.jpg', 'key': 'u', 'origWidth': 410, 'origHeight': 409, 'width': 410, 'height': 409, 'widthPercent': 0.45, 'rescaleHeight': False, 'trialN': 85, 'loaded': True, 'loadedTime': 44747.10000038147, 'positionName': 'LEFT', 'positionCoords': [245.68, 179.5], 'bid': 8.49}, {'imgObject': {}, 'id': 'blackbeanswithrice', 'src': '/static/foodstim60/blackbeanswithrice.jpg', 'key': 'i', 'origWidth': 410, 'origHeight': 410, 'width': 410, 'height': 410, 'widthPercent': 0.45, 'rescaleHeight': False, 'trialN': 85, 'loaded': True, 'loadedTime': 44597.10000038147, 'positionName': 'RIGHT', 'positionCoords': [710.32, 179], 'bid': 6.17}]",152677.5,1669838024881,chicken nuggets2,blackbeanswithrice,8.49,6.17,-2.3200000000000003,chicken nuggets2,786.3000011444092,787,786.8000011444092,True,u,153982.5,1305.0,1669838026186,1305,HRV,HRV_0265,2022-11-30 19:55:52
86,"[{'imgObject': {}, 'id': 'steak', 'src': '/static/foodstim60/steak.jpg', 'key': 'u', 'origWidth': 410, 'origHeight': 410, 'width': 410, 'height': 410, 'widthPercent': 0.45, 'rescaleHeight': False, 'trialN': 86, 'loaded': True, 'loadedTime': 44519.30000114441, 'positionName': 'LEFT', 'positionCoords': [245.68, 179], 'bid': 9.77}, {'imgObject': {}, 'id': 'Tribe humus pita', 'src': '/static/foodstim60/Tribe humus pita.jpg', 'key': 'i', 'origWidth': 411, 'origHeight': 411, 'width': 411, 'height': 411, 'widthPercent': 0.45, 'rescaleHeight': False, 'trialN': 86, 'loaded': True, 'loadedTime': 44748.80000114441, 'positionName': 'RIGHT', 'positionCoords': [710.32, 178.5], 'bid': 6.78}]",153982.70000076294,1669838026186,steak,Tribe humus pita,9.77,6.78,-2.9899999999999993,steak,499.8999996185303,500,500.1000003814697,True,u,155002.0,1019.2999992370605,1669838027205,1019,HRV,HRV_0265,2022-11-30 19:55:52
87,"[{'imgObject': {}, 'id': 'sushi w_condiments', 'src': '/static/foodstim60/sushi w_condiments.jpg', 'key': 'u', 'origWidth': 410, 'origHeight': 410, 'width': 410, 'height': 410, 'widthPercent': 0.45, 'rescaleHeight': False, 'trialN': 87, 'loaded': True, 'loadedTime': 44622.89999961853, 'positionName': 'LEFT', 'positionCoords': [245.68, 179], 'bid': 4.86}, {'imgObject': {}, 'id': 'apple slices', 'src': '/static/foodstim60/apple slices.jpg', 'key': 'i', 'origWidth': 409, 'origHeight': 410, 'width': 409, 'height': 410, 'widthPercent': 0.45, 'rescaleHeight': False, 'trialN': 87, 'loaded': True, 'loadedTime': 44799.80000114441, 'positionName': 'RIGHT', 'positionCoords': [710.32, 179], 'bid': 5.01}]",155002.3000011444,1669838027206,sushi w_condiments,apple slices,4.86,5.01,0.14999999999999947,sushi w_condiments,880.0,880,880.3999996185303,True,u,156392.3000011444,1390.0,1669838028596,1390,HRV,HRV_0265,2022-11-30 19:55:52
88,"[{'imgObject': {}, 'id': 'turkeysandwich', 'src': '/static/foodstim60/turkeysandwich.jpg', 'key': 'u', 'origWidth': 409, 'origHeight': 409, 'width': 409, 'height': 409, 'widthPercent': 0.45, 'rescaleHeight': False, 'trialN': 88, 'loaded': True, 'loadedTime': 44806.39999961853, 'positionName': 'LEFT', 'positionCoords': [246.68, 179.5], 'bid': 4.3500000000000005}, {'imgObject': {}, 'id': 'pear', 'src': '/static/foodstim60/pear.jpg', 'key': 'i', 'origWidth': 411, 'origHeight': 410, 'width': 411, 'height': 410, 'widthPercent': 0.45, 'rescaleHeight': False, 'trialN': 88, 'loaded': True, 'loadedTime': 44507.60000038147, 'positionName': 'RIGHT', 'positionCoords': [710.32, 179], 'bid': 0.1}]",156392.5,1669838028596,turkeysandwich,pear,4.3500000000000005,0.1,-4.250000000000001,turkeysandwich,735.2000007629395,736,735.7000007629395,True,u,157644.39999961853,1251.8999996185303,1669838029848,1252,HRV,HRV_0265,2022-11-30 19:55:52
89,"[{'imgObject': {}, 'id': 'strawberries', 'src': '/static/foodstim60/strawberries.jpg', 'key': 'u', 'origWidth': 410, 'origHeight': 410, 'width': 410, 'height': 410, 'widthPercent': 0.45, 'rescaleHeight': False, 'trialN': 89, 'loaded': True, 'loadedTime': 44814.5, 'positionName': 'LEFT', 'positionCoords': [245.68, 179], 'bid': 5.07}, {'imgObject': {}, 'id': 'mango', 'src': '/static/foodstim60/mango.jpg', 'key': 'i', 'origWidth': 411, 'origHeight': 411, 'width': 411, 'height': 411, 'widthPercent': 0.45, 'rescaleHeight': False, 'trialN': 89, 'loaded': True, 'loadedTime': 44704.5, 'positionName': 'RIGHT', 'positionCoords': [710.32, 178.5], 'bid': 0.22}]",157644.70000076294,1669838029848,strawberries,mango,5.07,0.22,-4.8500000000000005,strawberries,762.0,762,762.3999996185303,True,u,158918.3000011444,1273.6000003814697,1669838031122,1274,HRV,HRV_0265,2022-11-30 19:55:52
90,"[{'imgObject': {}, 'id': 'eggs', 'src': '/static/foodstim60/eggs.jpg', 'key': 'u', 'origWidth': 409, 'origHeight': 409, 'width': 409, 'height': 409, 'widthPercent': 0.45, 'rescaleHeight': False, 'trialN': 90, 'loaded': True, 'loadedTime': 44569.70000076294, 'positionName': 'LEFT', 'positionCoords': [246.68, 179.5], 'bid': 2.1}, {'imgObject': {}, 'id': 'veggieswithdip', 'src': '/static/foodstim60/veggieswithdip.jpg', 'key': 'i', 'origWidth': 409, 'origHeight': 409, 'width': 409, 'height': 409, 'widthPercent': 0.45, 'rescaleHeight': False, 'trialN': 90, 'loaded': True, 'loadedTime': 44680, 'positionName': 'RIGHT', 'positionCoords': [710.32, 179.5], 'bid': 4.5600000000000005}]",161626.5,1669838033830,eggs,veggieswithdip,2.1,4.5600000000000005,2.4600000000000004,eggs,2294.1000003814697,2288,2294.5,True,u,164438.3000011444,2811.800001144409,1669838036636,2806,HRV,HRV_0265,2022-11-30 19:55:52
91,"[{'imgObject': {}, 'id': 'shreddedwheatwithmilk', 'src': '/static/foodstim60/shreddedwheatwithmilk.jpg', 'key': 'u', 'origWidth': 410, 'origHeight': 410, 'width': 410, 'height': 410, 'widthPercent': 0.45, 'rescaleHeight': False, 'trialN': 91, 'loaded': True, 'loadedTime': 44802.89999961853, 'positionName': 'LEFT', 'positionCoords': [245.68, 179], 'bid': 0.12}, {'imgObject': {}, 'id': 'eggsalad', 'src': '/static/foodstim60/eggsalad.jpg', 'key': 'i', 'origWidth': 410, 'origHeight': 409, 'width': 410, 'height': 409, 'widthPercent': 0.45, 'rescaleHeight': False, 'trialN': 91, 'loaded': True, 'loadedTime': 44736.39999961853, 'positionName': 'RIGHT', 'positionCoords': [710.32, 179.5], 'bid': 0.12}]",164438.5,1669838036636,shreddedwheatwithmilk,eggsalad,0.12,0.12,0.0,shreddedwheatwithmilk,850.8999996185303,851,851.3000011444092,True,u,165813.70000076294,1375.2000007629395,1669838038011,1375,HRV,HRV_0265,2022-11-30 19:55:52
92,"[{'imgObject': {}, 'id': 'chickenfingers', 'src': '/static/foodstim60/chickenfingers.jpg', 'key': 'u', 'origWidth': 410, 'origHeight': 410, 'width': 410, 'height': 410, 'widthPercent': 0.45, 'rescaleHeight': False, 'trialN': 92, 'loaded': True, 'loadedTime': 44632.5, 'positionName': 'LEFT', 'positionCoords': [245.68, 179], 'bid': 3.38}, {'imgObject': {}, 'id': 'mango', 'src': '/static/foodstim60/mango.jpg', 'key': 'i', 'origWidth': 411, 'origHeight': 411, 'width': 411, 'height': 411, 'widthPercent': 0.45, 'rescaleHeight': False, 'trialN': 92, 'loaded': True, 'loadedTime': 44703.80000114441, 'positionName': 'RIGHT', 'positionCoords': [710.32, 178.5], 'bid': 0.22}]",165813.89999961853,1669838038011,chickenfingers,mango,3.38,0.22,-3.1599999999999997,chickenfingers,585.3000011444092,586,585.6000003814697,True,u,166917.3000011444,1103.400001525879,1669838039115,1104,HRV,HRV_0265,2022-11-30 19:55:52
93,"[{'imgObject': {}, 'id': 'cherries', 'src': '/static/foodstim60/cherries.jpg', 'key': 'u', 'origWidth': 410, 'origHeight': 411, 'width': 410, 'height': 411, 'widthPercent': 0.45, 'rescaleHeight': False, 'trialN': 93, 'loaded': True, 'loadedTime': 44529.20000076294, 'positionName': 'LEFT', 'positionCoords': [245.68, 178.5], 'bid': 3.06}, {'imgObject': {}, 'id': 'roastedpotatoes', 'src': '/static/foodstim60/roastedpotatoes.jpg', 'key': 'i', 'origWidth': 409, 'origHeight': 410, 'width': 409, 'height': 410, 'widthPercent': 0.45, 'rescaleHeight': False, 'trialN': 93, 'loaded': True, 'loadedTime': 44818.20000076294, 'positionName': 'RIGHT', 'positionCoords': [710.32, 179], 'bid': 9.8}]",166917.60000038147,1669838039115,cherries,roastedpotatoes,3.06,9.8,6.74,roastedpotatoes,1966.7000007629395,1967,1967.1000003814697,True,i,169401.70000076294,2484.1000003814697,1669838041599,2484,HRV,HRV_0265,2022-11-30 19:55:52
94,"[{'imgObject': {}, 'id': 'kiwi', 'src': '/static/foodstim60/kiwi.jpg', 'key': 'u', 'origWidth': 410, 'origHeight': 410, 'width': 410, 'height': 410, 'widthPercent': 0.45, 'rescaleHeight': False, 'trialN': 94, 'loaded': True, 'loadedTime': 44804.5, 'positionName': 'LEFT', 'positionCoords': [245.68, 179], 'bid': 0.87}, {'imgObject': {}, 'id': 'edamame', 'src': '/static/foodstim60/edamame.jpg', 'key': 'i', 'origWidth': 409, 'origHeight': 410, 'width': 409, 'height': 410, 'widthPercent': 0.45, 'rescaleHeight': False, 'trialN': 94, 'loaded': True, 'loadedTime': 44705.70000076294, 'positionName': 'RIGHT', 'positionCoords': [710.32, 179], 'bid': 0.22}]",169401.89999961853,1669838041599,kiwi,edamame,0.87,0.22,-0.65,kiwi,681.5,682,681.9000015258789,True,u,170596.20000076294,1194.3000011444092,1669838042793,1194,HRV,HRV_0265,2022-11-30 19:55:52
95,"[{'imgObject': {}, 'id': 'froot loops w milk', 'src': '/static/foodstim60/froot loops w milk.jpg', 'key': 'u', 'origWidth': 410, 'origHeight': 410, 'width': 410, 'height': 410, 'widthPercent': 0.45, 'rescaleHeight': False, 'trialN': 95, 'loaded': True, 'loadedTime': 44729.80000114441, 'positionName': 'LEFT', 'positionCoords': [245.68, 179], 'bid': 4.88}, {'imgObject': {}, 'id': 'shreddedwheatwithmilk', 'src': '/static/foodstim60/shreddedwheatwithmilk.jpg', 'key': 'i', 'origWidth': 410, 'origHeight': 410, 'width': 410, 'height': 410, 'widthPercent': 0.45, 'rescaleHeight': False, 'trialN': 95, 'loaded': True, 'loadedTime': 44803.20000076294, 'positionName': 'RIGHT', 'positionCoords': [710.32, 179], 'bid': 0.12}]",170596.3000011444,1669838042794,froot loops w milk,shreddedwheatwithmilk,4.88,0.12,-4.76,froot loops w milk,492.5,492,492.8999996185303,True,u,171609.5,1013.1999988555908,1669838043807,1013,HRV,HRV_0265,2022-11-30 19:55:52
96,"[{'imgObject': {}, 'id': 'mashed potato', 'src': '/static/foodstim60/mashed potato.jpg', 'key': 'u', 'origWidth': 409, 'origHeight': 409, 'width': 409, 'height': 409, 'widthPercent': 0.45, 'rescaleHeight': False, 'trialN': 96, 'loaded': True, 'loadedTime': 44563.39999961853, 'positionName': 'LEFT', 'positionCoords': [246.68, 179.5], 'bid': 0.16}, {'imgObject': {}, 'id': 'pear', 'src': '/static/foodstim60/pear.jpg', 'key': 'i', 'origWidth': 411, 'origHeight': 410, 'width': 411, 'height': 410, 'widthPercent': 0.45, 'rescaleHeight': False, 'trialN': 96, 'loaded': True, 'loadedTime': 44507.80000114441, 'positionName': 'RIGHT', 'positionCoords': [710.32, 179], 'bid': 0.1}]",171609.70000076294,1669838043807,mashed potato,pear,0.16,0.1,-0.06,mashed potato,537.7999992370605,538,538.2999992370605,True,u,172666.3000011444,1056.6000003814697,1669838044863,1056,HRV,HRV_0265,2022-11-30 19:55:52
97,"[{'imgObject': {}, 'id': 'lox', 'src': '/static/foodstim60/lox.jpg', 'key': 'u', 'origWidth': 410, 'origHeight': 411, 'width': 410, 'height': 411, 'widthPercent': 0.45, 'rescaleHeight': False, 'trialN': 97, 'loaded': True, 'loadedTime': 44617.80000114441, 'positionName': 'LEFT', 'positionCoords': [245.68, 178.5], 'bid': 0.19}, {'imgObject': {}, 'id': 'cocktailshrimp', 'src': '/static/foodstim60/cocktailshrimp.jpg', 'key': 'i', 'origWidth': 410, 'origHeight': 410, 'width': 410, 'height': 410, 'widthPercent': 0.45, 'rescaleHeight': False, 'trialN': 97, 'loaded': True, 'loadedTime': 44569.89999961853, 'positionName': 'RIGHT', 'positionCoords': [710.32, 179], 'bid': 0.18}]",172666.39999961853,1669838044864,lox,cocktailshrimp,0.19,0.18,-0.010000000000000009,cocktailshrimp,456.5,457,456.9000015258789,True,i,173639.70000076294,973.3000011444092,1669838045837,973,HRV,HRV_0265,2022-11-30 19:55:52
98,"[{'imgObject': {}, 'id': 'edamame', 'src': '/static/foodstim60/edamame.jpg', 'key': 'u', 'origWidth': 409, 'origHeight': 410, 'width': 409, 'height': 410, 'widthPercent': 0.45, 'rescaleHeight': False, 'trialN': 98, 'loaded': True, 'loadedTime': 44712.5, 'positionName': 'LEFT', 'positionCoords': [246.68, 179], 'bid': 0.22}, {'imgObject': {}, 'id': 'cantaloupe', 'src': '/static/foodstim60/cantaloupe.jpg', 'key': 'i', 'origWidth': 409, 'origHeight': 409, 'width': 409, 'height': 409, 'widthPercent': 0.45, 'rescaleHeight': False, 'trialN': 98, 'loaded': True, 'loadedTime': 44690.80000114441, 'positionName': 'RIGHT', 'positionCoords': [710.32, 179.5], 'bid': 0.19}]",173640.0,1669838045837,edamame,cantaloupe,0.22,0.19,-0.03,cantaloupe,753.1000003814697,754,753.3000011444092,True,i,174907.8000011444,1267.8000011444092,1669838047105,1268,HRV,HRV_0265,2022-11-30 19:55:52
99,"[{'imgObject': {}, 'id': 'chicken nuggets2', 'src': '/static/foodstim60/chicken nuggets2.jpg', 'key': 'u', 'origWidth': 410, 'origHeight': 409, 'width': 410, 'height': 409, 'widthPercent': 0.45, 'rescaleHeight': False, 'trialN': 99, 'loaded': True, 'loadedTime': 44746.89999961853, 'positionName': 'LEFT', 'positionCoords': [245.68, 179.5], 'bid': 8.49}, {'imgObject': {}, 'id': 'steak', 'src': '/static/foodstim60/steak.jpg', 'key': 'i', 'origWidth': 410, 'origHeight': 410, 'width': 410, 'height': 410, 'widthPercent': 0.45, 'rescaleHeight': False, 'trialN': 99, 'loaded': True, 'loadedTime': 44519.80000114441, 'positionName': 'RIGHT', 'positionCoords': [710.32, 179], 'bid': 9.77}]",174908.0,1669838047105,chicken nuggets2,steak,8.49,9.77,1.2799999999999994,chicken nuggets2,478.70000076293945,479,479.20000076293945,True,u,175895.89999961853,987.8999996185303,1669838048093,988,HRV,HRV_0265,2022-11-30 19:55:52
100,"[{'imgObject': {}, 'id': 'raisin bran w milk', 'src': '/static/foodstim60/raisin bran w milk.jpg', 'key': 'u', 'origWidth': 411, 'origHeight': 411, 'width': 411, 'height': 411, 'widthPercent': 0.45, 'rescaleHeight': False, 'trialN': 100, 'loaded': True, 'loadedTime': 44770.60000038147, 'positionName': 'LEFT', 'positionCoords': [244.68, 178.5], 'bid': 0.27}, {'imgObject': {}, 'id': 'raspberries', 'src': '/static/foodstim60/raspberries.jpg', 'key': 'i', 'origWidth': 411, 'origHeight': 411, 'width': 411, 'height': 411, 'widthPercent': 0.45, 'rescaleHeight': False, 'trialN': 100, 'loaded': True, 'loadedTime': 44670.60000038147, 'positionName': 'RIGHT', 'positionCoords': [710.32, 178.5], 'bid': 1.6}]",175896.10000038147,1669838048093,raisin bran w milk,raspberries,0.27,1.6,1.33,raisin bran w milk,540.0,541,540.2999992370605,True,u,176952.89999961853,1056.7999992370605,1669838049150,1057,HRV,HRV_0265,2022-11-30 19:55:52
101,"[{'imgObject': {}, 'id': 'kiwi', 'src': '/static/foodstim60/kiwi.jpg', 'key': 'u', 'origWidth': 410, 'origHeight': 410, 'width': 410, 'height': 410, 'widthPercent': 0.45, 'rescaleHeight': False, 'trialN': 101, 'loaded': True, 'loadedTime': 44804.70000076294, 'positionName': 'LEFT', 'positionCoords': [245.68, 179], 'bid': 0.87}, {'imgObject': {}, 'id': 'blueberries', 'src': '/static/foodstim60/blueberries.jpg', 'key': 'i', 'origWidth': 411, 'origHeight': 411, 'width': 411, 'height': 411, 'widthPercent': 0.45, 'rescaleHeight': False, 'trialN': 101, 'loaded': True, 'loadedTime': 44750.30000114441, 'positionName': 'RIGHT', 'positionCoords': [710.32, 178.5], 'bid': 3.52}]",176953.3000011444,1669838049151,kiwi,blueberries,0.87,3.52,2.65,blueberries,687.8999996185303,688,688.3999996185303,True,i,178158.3000011444,1205.0,1669838050356,1205,HRV,HRV_0265,2022-11-30 19:55:52
102,"[{'imgObject': {}, 'id': 'burrito', 'src': '/static/foodstim60/burrito.jpg', 'key': 'u', 'origWidth': 410, 'origHeight': 410, 'width': 410, 'height': 410, 'widthPercent': 0.45, 'rescaleHeight': False, 'trialN': 102, 'loaded': True, 'loadedTime': 44701.20000076294, 'positionName': 'LEFT', 'positionCoords': [245.68, 179], 'bid': 6.05}, {'imgObject': {}, 'id': 'raisin bran w milk', 'src': '/static/foodstim60/raisin bran w milk.jpg', 'key': 'i', 'origWidth': 411, 'origHeight': 411, 'width': 411, 'height': 411, 'widthPercent': 0.45, 'rescaleHeight': False, 'trialN': 102, 'loaded': True, 'loadedTime': 44772, 'positionName': 'RIGHT', 'positionCoords': [710.32, 178.5], 'bid': 0.27}]",178158.5,1669838050356,burrito,raisin bran w milk,6.05,0.27,-5.779999999999999,burrito,598.1000003814697,598,598.7000007629395,True,u,179261.39999961853,1102.8999996185303,1669838051459,1103,HRV,HRV_0265,2022-11-30 19:55:52
103,"[{'imgObject': {}, 'id': 'hashbrowns', 'src': '/static/foodstim60/hashbrowns.jpg', 'key': 'u', 'origWidth': 411, 'origHeight': 410, 'width': 411, 'height': 410, 'widthPercent': 0.45, 'rescaleHeight': False, 'trialN': 103, 'loaded': True, 'loadedTime': 44758.60000038147, 'positionName': 'LEFT', 'positionCoords': [244.68, 179], 'bid': 0}, {'imgObject': {}, 'id': 'granola w milk', 'src': '/static/foodstim60/granola w milk.jpg', 'key': 'i', 'origWidth': 410, 'origHeight': 410, 'width': 410, 'height': 410, 'widthPercent': 0.45, 'rescaleHeight': False, 'trialN': 103, 'loaded': True, 'loadedTime': 44484.89999961853, 'positionName': 'RIGHT', 'positionCoords': [710.32, 179], 'bid': 0}]",179261.70000076294,1669838051459,hashbrowns,granola w milk,0.0,0.0,0.0,hashbrowns,530.1000003814697,530,530.5,True,u,180313.70000076294,1052.0,1669838052511,1052,HRV,HRV_0265,2022-11-30 19:55:52
104,"[{'imgObject': {}, 'id': 'salmon', 'src': '/static/foodstim60/salmon.jpg', 'key': 'u', 'origWidth': 410, 'origHeight': 409, 'width': 410, 'height': 409, 'widthPercent': 0.45, 'rescaleHeight': False, 'trialN': 104, 'loaded': True, 'loadedTime': 44781.60000038147, 'positionName': 'LEFT', 'positionCoords': [245.68, 179.5], 'bid': 3.52}, {'imgObject': {}, 'id': 'edamame', 'src': '/static/foodstim60/edamame.jpg', 'key': 'i', 'origWidth': 409, 'origHeight': 410, 'width': 409, 'height': 410, 'widthPercent': 0.45, 'rescaleHeight': False, 'trialN': 104, 'loaded': True, 'loadedTime': 44712.70000076294, 'positionName': 'RIGHT', 'positionCoords': [710.32, 179], 'bid': 0.22}]",180314.0,1669838052511,salmon,edamame,3.52,0.22,-3.3,salmon,526.3999996185303,527,526.8000011444092,True,u,181348.20000076294,1034.2000007629395,1669838053545,1034,HRV,HRV_0265,2022-11-30 19:55:52
105,"[{'imgObject': {}, 'id': 'froot loops w milk', 'src': '/static/foodstim60/froot loops w milk.jpg', 'key': 'u', 'origWidth': 410, 'origHeight': 410, 'width': 410, 'height': 410, 'widthPercent': 0.45, 'rescaleHeight': False, 'trialN': 105, 'loaded': True, 'loadedTime': 44724.39999961853, 'positionName': 'LEFT', 'positionCoords': [245.68, 179], 'bid': 4.88}, {'imgObject': {}, 'id': 'strawberries', 'src': '/static/foodstim60/strawberries.jpg', 'key': 'i', 'origWidth': 410, 'origHeight': 410, 'width': 410, 'height': 410, 'widthPercent': 0.45, 'rescaleHeight': False, 'trialN': 105, 'loaded': True, 'loadedTime': 44816, 'positionName': 'RIGHT', 'positionCoords': [710.32, 179], 'bid': 5.07}]",181348.39999961853,1669838053546,froot loops w milk,strawberries,4.88,5.07,0.1900000000000004,froot loops w milk,497.9000015258789,498,498.5,True,u,182352.0,1003.6000003814697,1669838054549,1003,HRV,HRV_0265,2022-11-30 19:55:52
106,"[{'imgObject': {}, 'id': 'Grapes', 'src': '/static/foodstim60/Grapes.jpg', 'key': 'u', 'origWidth': 411, 'origHeight': 411, 'width': 411, 'height': 411, 'widthPercent': 0.45, 'rescaleHeight': False, 'trialN': 106, 'loaded': True, 'loadedTime': 44639.10000038147, 'positionName': 'LEFT', 'positionCoords': [244.68, 178.5], 'bid': 5}, {'imgObject': {}, 'id': 'roastedpotatoes', 'src': '/static/foodstim60/roastedpotatoes.jpg', 'key': 'i', 'origWidth': 409, 'origHeight': 410, 'width': 409, 'height': 410, 'widthPercent': 0.45, 'rescaleHeight': False, 'trialN': 106, 'loaded': True, 'loadedTime': 44817.89999961853, 'positionName': 'RIGHT', 'positionCoords': [710.32, 179], 'bid': 9.8}]",182352.20000076294,1669838054549,Grapes,roastedpotatoes,5.0,9.8,4.800000000000001,roastedpotatoes,766.6000003814697,767,766.8999996185303,True,i,183625.39999961853,1273.1999988555908,1669838055823,1274,HRV,HRV_0265,2022-11-30 19:55:52
107,"[{'imgObject': {}, 'id': 'blueberries', 'src': '/static/foodstim60/blueberries.jpg', 'key': 'u', 'origWidth': 411, 'origHeight': 411, 'width': 411, 'height': 411, 'widthPercent': 0.45, 'rescaleHeight': False, 'trialN': 107, 'loaded': True, 'loadedTime': 44749.89999961853, 'positionName': 'LEFT', 'positionCoords': [244.68, 178.5], 'bid': 3.52}, {'imgObject': {}, 'id': 'eggs', 'src': '/static/foodstim60/eggs.jpg', 'key': 'i', 'origWidth': 409, 'origHeight': 409, 'width': 409, 'height': 409, 'widthPercent': 0.45, 'rescaleHeight': False, 'trialN': 107, 'loaded': True, 'loadedTime': 44569.80000114441, 'positionName': 'RIGHT', 'positionCoords': [710.32, 179.5], 'bid': 2.1}]",183625.70000076294,1669838055823,blueberries,eggs,3.52,2.1,-1.42,eggs,602.6000003814697,603,603.0,True,i,184744.8000011444,1119.1000003814697,1669838056942,1119,HRV,HRV_0265,2022-11-30 19:55:52
108,"[{'imgObject': {}, 'id': 'rigatoni and sauce', 'src': '/static/foodstim60/rigatoni and sauce.jpg', 'key': 'u', 'origWidth': 410, 'origHeight': 411, 'width': 410, 'height': 411, 'widthPercent': 0.45, 'rescaleHeight': False, 'trialN': 108, 'loaded': True, 'loadedTime': 44610.20000076294, 'positionName': 'LEFT', 'positionCoords': [245.68, 178.5], 'bid': 9.83}, {'imgObject': {}, 'id': 'chickenfingers', 'src': '/static/foodstim60/chickenfingers.jpg', 'key': 'i', 'origWidth': 410, 'origHeight': 410, 'width': 410, 'height': 410, 'widthPercent': 0.45, 'rescaleHeight': False, 'trialN': 108, 'loaded': True, 'loadedTime': 44632.60000038147, 'positionName': 'RIGHT', 'positionCoords': [710.32, 179], 'bid': 3.38}]",184745.0,1669838056942,rigatoni and sauce,chickenfingers,9.83,3.38,-6.45,chickenfingers,528.1000003814697,529,528.5,True,i,185785.8000011444,1040.8000011444092,1669838057983,1041,HRV,HRV_0265,2022-11-30 19:55:52
