trialN,stimuli,trialStartTime,trialStartTime_UNIX,stimulus1,stimulus2,stimulus1Bid,stimulus2Bid,delta,selected,rt,rt_UNIX,rt_perfnow,receivedResponse,rsp,trialEndTime,trialDuration,trialEndTime_UNIX,trialDuration_UNIX,exp,subjectId,date
0,"[{'imgObject': {}, 'id': 'yogurt no spoon', 'src': '/static/foodstim60/yogurt no spoon.jpg', 'key': 'u', 'origWidth': 411, 'origHeight': 410, 'width': 411, 'height': 410, 'widthPercent': 0.45, 'rescaleHeight': False, 'trialN': 0, 'loaded': True, 'loadedTime': 3015.100000023842, 'positionName': 'LEFT', 'positionCoords': [326.28, 227], 'bid': 0.24}, {'imgObject': {}, 'id': 'olives', 'src': '/static/foodstim60/olives.jpg', 'key': 'i', 'origWidth': 410, 'origHeight': 410, 'width': 410, 'height': 410, 'widthPercent': 0.45, 'rescaleHeight': False, 'trialN': 0, 'loaded': True, 'loadedTime': 3031.5, 'positionName': 'RIGHT', 'positionCoords': [798.72, 227], 'bid': 0.15}]",3216.7000000476837,1669830600149,yogurt no spoon,olives,0.24,0.15,-0.09,yogurt no spoon,2193.2999999523163,2194,2193.899999976158,True,u,5928.700000047684,2712.0,1669830602861,2712,HRV,HRV_0109,2022-11-30 17:53:55
1,"[{'imgObject': {}, 'id': 'raspberries', 'src': '/static/foodstim60/raspberries.jpg', 'key': 'u', 'origWidth': 411, 'origHeight': 411, 'width': 411, 'height': 411, 'widthPercent': 0.45, 'rescaleHeight': False, 'trialN': 1, 'loaded': True, 'loadedTime': 3037.900000035763, 'positionName': 'LEFT', 'positionCoords': [326.28, 226.5], 'bid': 0.29}, {'imgObject': {}, 'id': 'rigatoni', 'src': '/static/foodstim60/rigatoni.jpg', 'key': 'i', 'origWidth': 411, 'origHeight': 411, 'width': 411, 'height': 411, 'widthPercent': 0.45, 'rescaleHeight': False, 'trialN': 1, 'loaded': True, 'loadedTime': 3067.2000000476837, 'positionName': 'RIGHT', 'positionCoords': [798.72, 226.5], 'bid': 0.15}]",5929.600000023842,1669830602862,raspberries,rigatoni,0.29,0.15,-0.13999999999999999,raspberries,808.3999999761581,809,808.8999999761581,True,u,7243.0,1313.3999999761581,1669830604175,1313,HRV,HRV_0109,2022-11-30 17:53:55
2,"[{'imgObject': {}, 'id': 'salad w chicken', 'src': '/static/foodstim60/salad w chicken.jpg', 'key': 'u', 'origWidth': 411, 'origHeight': 411, 'width': 411, 'height': 411, 'widthPercent': 0.45, 'rescaleHeight': False, 'trialN': 2, 'loaded': True, 'loadedTime': 3072.600000023842, 'positionName': 'LEFT', 'positionCoords': [326.28, 226.5], 'bid': 6.78}, {'imgObject': {}, 'id': 'cocktailshrimp', 'src': '/static/foodstim60/cocktailshrimp.jpg', 'key': 'i', 'origWidth': 410, 'origHeight': 410, 'width': 410, 'height': 410, 'widthPercent': 0.45, 'rescaleHeight': False, 'trialN': 2, 'loaded': True, 'loadedTime': 3086.2000000476837, 'positionName': 'RIGHT', 'positionCoords': [798.72, 227], 'bid': 3.5500000000000003}]",7243.5,1669830604175,salad w chicken,cocktailshrimp,6.78,3.5500000000000003,-3.23,salad w chicken,974.7000000476837,976,975.2000000476837,True,u,8734.800000011921,1491.300000011921,1669830605667,1492,HRV,HRV_0109,2022-11-30 17:53:55
3,"[{'imgObject': {}, 'id': 'turkeysandwich', 'src': '/static/foodstim60/turkeysandwich.jpg', 'key': 'u', 'origWidth': 409, 'origHeight': 409, 'width': 409, 'height': 409, 'widthPercent': 0.45, 'rescaleHeight': False, 'trialN': 3, 'loaded': True, 'loadedTime': 3091.5, 'positionName': 'LEFT', 'positionCoords': [328.28, 227.5], 'bid': 2.59}, {'imgObject': {}, 'id': 'fried eggs', 'src': '/static/foodstim60/fried eggs.jpg', 'key': 'i', 'origWidth': 410, 'origHeight': 410, 'width': 410, 'height': 410, 'widthPercent': 0.45, 'rescaleHeight': False, 'trialN': 3, 'loaded': True, 'loadedTime': 3092.400000035763, 'positionName': 'RIGHT', 'positionCoords': [798.72, 227], 'bid': 0.16}]",8735.200000047684,1669830605667,turkeysandwich,fried eggs,2.59,0.16,-2.4299999999999997,fried eggs,970.8999999761581,972,971.3999999761581,True,i,10211.400000035763,1476.199999988079,1669830607143,1476,HRV,HRV_0109,2022-11-30 17:53:55
4,"[{'imgObject': {}, 'id': 'cherries', 'src': '/static/foodstim60/cherries.jpg', 'key': 'u', 'origWidth': 410, 'origHeight': 411, 'width': 410, 'height': 411, 'widthPercent': 0.45, 'rescaleHeight': False, 'trialN': 4, 'loaded': True, 'loadedTime': 3099.7000000476837, 'positionName': 'LEFT', 'positionCoords': [327.28, 226.5], 'bid': 3.21}, {'imgObject': {}, 'id': 'rigatoni and sauce', 'src': '/static/foodstim60/rigatoni and sauce.jpg', 'key': 'i', 'origWidth': 410, 'origHeight': 411, 'width': 410, 'height': 411, 'widthPercent': 0.45, 'rescaleHeight': False, 'trialN': 4, 'loaded': True, 'loadedTime': 3105.300000011921, 'positionName': 'RIGHT', 'positionCoords': [798.72, 226.5], 'bid': 0.18}]",10211.800000011921,1669830607144,cherries,rigatoni and sauce,3.21,0.18,-3.03,cherries,1942.699999988079,1943,1943.199999988079,True,u,12666.900000035763,2455.100000023842,1669830609599,2455,HRV,HRV_0109,2022-11-30 17:53:55
5,"[{'imgObject': {}, 'id': 'fruitsalad', 'src': '/static/foodstim60/fruitsalad.jpg', 'key': 'u', 'origWidth': 410, 'origHeight': 410, 'width': 410, 'height': 410, 'widthPercent': 0.45, 'rescaleHeight': False, 'trialN': 5, 'loaded': True, 'loadedTime': 3108.900000035763, 'positionName': 'LEFT', 'positionCoords': [327.28, 227], 'bid': 0.29}, {'imgObject': {}, 'id': 'luckycharms', 'src': '/static/foodstim60/luckycharms.jpg', 'key': 'i', 'origWidth': 410, 'origHeight': 409, 'width': 410, 'height': 409, 'widthPercent': 0.45, 'rescaleHeight': False, 'trialN': 5, 'loaded': True, 'loadedTime': 3112.800000011921, 'positionName': 'RIGHT', 'positionCoords': [798.72, 227.5], 'bid': 0.15}]",12667.200000047684,1669830609599,fruitsalad,luckycharms,0.29,0.15,-0.13999999999999999,fruitsalad,791.8999999761581,793,792.3999999761581,True,u,13972.600000023842,1305.3999999761581,1669830610905,1306,HRV,HRV_0109,2022-11-30 17:53:55
6,"[{'imgObject': {}, 'id': 'mac & cheese', 'src': '/static/foodstim60/mac & cheese.jpg', 'key': 'u', 'origWidth': 410, 'origHeight': 410, 'width': 410, 'height': 410, 'widthPercent': 0.45, 'rescaleHeight': False, 'trialN': 6, 'loaded': True, 'loadedTime': 3042.800000011921, 'positionName': 'LEFT', 'positionCoords': [327.28, 227], 'bid': 0.2}, {'imgObject': {}, 'id': 'burrito', 'src': '/static/foodstim60/burrito.jpg', 'key': 'i', 'origWidth': 410, 'origHeight': 410, 'width': 410, 'height': 410, 'widthPercent': 0.45, 'rescaleHeight': False, 'trialN': 6, 'loaded': True, 'loadedTime': 3052.7000000476837, 'positionName': 'RIGHT', 'positionCoords': [798.72, 227], 'bid': 3.21}]",13973.0,1669830610905,mac & cheese,burrito,0.2,3.21,3.01,burrito,845.2000000476837,846,845.8000000119209,True,i,15322.700000047684,1349.7000000476837,1669830612255,1350,HRV,HRV_0109,2022-11-30 17:53:55
7,"[{'imgObject': {}, 'id': 'mac & cheese', 'src': '/static/foodstim60/mac & cheese.jpg', 'key': 'u', 'origWidth': 410, 'origHeight': 410, 'width': 410, 'height': 410, 'widthPercent': 0.45, 'rescaleHeight': False, 'trialN': 7, 'loaded': True, 'loadedTime': 3046, 'positionName': 'LEFT', 'positionCoords': [327.28, 227], 'bid': 0.2}, {'imgObject': {}, 'id': 'popsicles', 'src': '/static/foodstim60/popsicles.jpg', 'key': 'i', 'origWidth': 410, 'origHeight': 410, 'width': 410, 'height': 410, 'widthPercent': 0.45, 'rescaleHeight': False, 'trialN': 7, 'loaded': True, 'loadedTime': 3056.5, 'positionName': 'RIGHT', 'positionCoords': [798.72, 227], 'bid': 0.26}]",15322.900000035763,1669830612255,mac & cheese,popsicles,0.2,0.26,0.06,popsicles,663.1999999880791,664,663.5999999642372,True,i,16492.30000001192,1169.3999999761581,1669830613424,1169,HRV,HRV_0109,2022-11-30 17:53:55
8,"[{'imgObject': {}, 'id': 'banana', 'src': '/static/foodstim60/banana.jpg', 'key': 'u', 'origWidth': 410, 'origHeight': 410, 'width': 410, 'height': 410, 'widthPercent': 0.45, 'rescaleHeight': False, 'trialN': 8, 'loaded': True, 'loadedTime': 3061.2000000476837, 'positionName': 'LEFT', 'positionCoords': [327.28, 227], 'bid': 0.07}, {'imgObject': {}, 'id': 'bagel plain', 'src': '/static/foodstim60/bagel plain.jpg', 'key': 'i', 'origWidth': 410, 'origHeight': 410, 'width': 410, 'height': 410, 'widthPercent': 0.45, 'rescaleHeight': False, 'trialN': 8, 'loaded': True, 'loadedTime': 3062.400000035763, 'positionName': 'RIGHT', 'positionCoords': [798.72, 227], 'bid': 0.07}]",16492.700000047684,1669830613425,banana,bagel plain,0.07,0.07,0.0,banana,878.5999999642372,879,878.8999999761581,True,u,17882.30000001192,1389.5999999642372,1669830614814,1389,HRV,HRV_0109,2022-11-30 17:53:55
9,"[{'imgObject': {}, 'id': 'corn cob', 'src': '/static/foodstim60/corn cob.jpg', 'key': 'u', 'origWidth': 411, 'origHeight': 411, 'width': 411, 'height': 411, 'widthPercent': 0.45, 'rescaleHeight': False, 'trialN': 9, 'loaded': True, 'loadedTime': 3066.900000035763, 'positionName': 'LEFT', 'positionCoords': [326.28, 226.5], 'bid': 0.27}, {'imgObject': {}, 'id': 'mango', 'src': '/static/foodstim60/mango.jpg', 'key': 'i', 'origWidth': 411, 'origHeight': 411, 'width': 411, 'height': 411, 'widthPercent': 0.45, 'rescaleHeight': False, 'trialN': 9, 'loaded': True, 'loadedTime': 3113.600000023842, 'positionName': 'RIGHT', 'positionCoords': [798.72, 226.5], 'bid': 0.22}]",17882.600000023842,1669830614815,corn cob,mango,0.27,0.22,-0.05000000000000002,mango,839.3999999761581,840,839.8999999761581,True,i,19234.900000035763,1352.300000011921,1669830616167,1352,HRV,HRV_0109,2022-11-30 17:53:55
10,"[{'imgObject': {}, 'id': 'roastedpotatoes', 'src': '/static/foodstim60/roastedpotatoes.jpg', 'key': 'u', 'origWidth': 409, 'origHeight': 410, 'width': 409, 'height': 410, 'widthPercent': 0.45, 'rescaleHeight': False, 'trialN': 10, 'loaded': True, 'loadedTime': 3117.800000011921, 'positionName': 'LEFT', 'positionCoords': [328.28, 227], 'bid': 1.71}, {'imgObject': {}, 'id': 'turkeysandwich', 'src': '/static/foodstim60/turkeysandwich.jpg', 'key': 'i', 'origWidth': 409, 'origHeight': 409, 'width': 409, 'height': 409, 'widthPercent': 0.45, 'rescaleHeight': False, 'trialN': 10, 'loaded': True, 'loadedTime': 3087.100000023842, 'positionName': 'RIGHT', 'positionCoords': [798.72, 227.5], 'bid': 2.59}]",19235.0,1669830616167,roastedpotatoes,turkeysandwich,1.71,2.59,0.8799999999999999,turkeysandwich,1151.6000000238419,1152,1152.2000000476837,True,i,20892.900000035763,1657.9000000357628,1669830617825,1658,HRV,HRV_0109,2022-11-30 17:53:55
11,"[{'imgObject': {}, 'id': 'raspberries', 'src': '/static/foodstim60/raspberries.jpg', 'key': 'u', 'origWidth': 411, 'origHeight': 411, 'width': 411, 'height': 411, 'widthPercent': 0.45, 'rescaleHeight': False, 'trialN': 11, 'loaded': True, 'loadedTime': 3037.900000035763, 'positionName': 'LEFT', 'positionCoords': [326.28, 226.5], 'bid': 0.29}, {'imgObject': {}, 'id': 'burger', 'src': '/static/foodstim60/burger.jpg', 'key': 'i', 'origWidth': 409, 'origHeight': 409, 'width': 409, 'height': 409, 'widthPercent': 0.45, 'rescaleHeight': False, 'trialN': 11, 'loaded': True, 'loadedTime': 3122.100000023842, 'positionName': 'RIGHT', 'positionCoords': [798.72, 227.5], 'bid': 1.66}]",20893.200000047684,1669830617825,raspberries,burger,0.29,1.66,1.3699999999999999,raspberries,739.6999999880791,740,739.8999999761581,True,u,22137.900000035763,1244.699999988079,1669830619070,1245,HRV,HRV_0109,2022-11-30 17:53:55
12,"[{'imgObject': {}, 'id': 'yogurt no spoon', 'src': '/static/foodstim60/yogurt no spoon.jpg', 'key': 'u', 'origWidth': 411, 'origHeight': 410, 'width': 411, 'height': 410, 'widthPercent': 0.45, 'rescaleHeight': False, 'trialN': 12, 'loaded': True, 'loadedTime': 3014.600000023842, 'positionName': 'LEFT', 'positionCoords': [326.28, 227], 'bid': 0.24}, {'imgObject': {}, 'id': 'mac & cheese', 'src': '/static/foodstim60/mac & cheese.jpg', 'key': 'i', 'origWidth': 410, 'origHeight': 410, 'width': 410, 'height': 410, 'widthPercent': 0.45, 'rescaleHeight': False, 'trialN': 12, 'loaded': True, 'loadedTime': 3045.800000011921, 'positionName': 'RIGHT', 'positionCoords': [798.72, 227], 'bid': 0.2}]",22138.400000035763,1669830619070,yogurt no spoon,mac & cheese,0.24,0.2,-0.03999999999999998,yogurt no spoon,937,938,937.5,True,u,23587.600000023842,1449.199999988079,1669830620520,1450,HRV,HRV_0109,2022-11-30 17:53:55
13,"[{'imgObject': {}, 'id': 'eggsalad', 'src': '/static/foodstim60/eggsalad.jpg', 'key': 'u', 'origWidth': 410, 'origHeight': 409, 'width': 410, 'height': 409, 'widthPercent': 0.45, 'rescaleHeight': False, 'trialN': 13, 'loaded': True, 'loadedTime': 3126.7000000476837, 'positionName': 'LEFT', 'positionCoords': [327.28, 227.5], 'bid': 0.26}, {'imgObject': {}, 'id': 'pear', 'src': '/static/foodstim60/pear.jpg', 'key': 'i', 'origWidth': 411, 'origHeight': 410, 'width': 411, 'height': 410, 'widthPercent': 0.45, 'rescaleHeight': False, 'trialN': 13, 'loaded': True, 'loadedTime': 3127, 'positionName': 'RIGHT', 'positionCoords': [798.72, 227], 'bid': 0.49}]",23587.900000035763,1669830620520,eggsalad,pear,0.26,0.49,0.22999999999999998,eggsalad,1230.699999988079,1231,1231.300000011921,True,u,25329.900000035763,1742.0,1669830622262,1742,HRV,HRV_0109,2022-11-30 17:53:55
14,"[{'imgObject': {}, 'id': 'cheerios', 'src': '/static/foodstim60/cheerios.jpg', 'key': 'u', 'origWidth': 409, 'origHeight': 410, 'width': 409, 'height': 410, 'widthPercent': 0.45, 'rescaleHeight': False, 'trialN': 14, 'loaded': True, 'loadedTime': 3130.900000035763, 'positionName': 'LEFT', 'positionCoords': [328.28, 227], 'bid': 0.16}, {'imgObject': {}, 'id': 'rigatoni and sauce', 'src': '/static/foodstim60/rigatoni and sauce.jpg', 'key': 'i', 'origWidth': 410, 'origHeight': 411, 'width': 410, 'height': 411, 'widthPercent': 0.45, 'rescaleHeight': False, 'trialN': 14, 'loaded': True, 'loadedTime': 3100.600000023842, 'positionName': 'RIGHT', 'positionCoords': [798.72, 226.5], 'bid': 0.18}]",25330.30000001192,1669830622262,cheerios,rigatoni and sauce,0.16,0.18,0.01999999999999999,cheerios,1153.199999988079,1154,1153.699999988079,True,u,26993.200000047684,1662.9000000357628,1669830623925,1663,HRV,HRV_0109,2022-11-30 17:53:55
15,"[{'imgObject': {}, 'id': 'cherries', 'src': '/static/foodstim60/cherries.jpg', 'key': 'u', 'origWidth': 410, 'origHeight': 411, 'width': 410, 'height': 411, 'widthPercent': 0.45, 'rescaleHeight': False, 'trialN': 15, 'loaded': True, 'loadedTime': 3095.900000035763, 'positionName': 'LEFT', 'positionCoords': [327.28, 226.5], 'bid': 3.21}, {'imgObject': {}, 'id': 'omelette', 'src': '/static/foodstim60/omelette.jpg', 'key': 'i', 'origWidth': 410, 'origHeight': 409, 'width': 410, 'height': 409, 'widthPercent': 0.45, 'rescaleHeight': False, 'trialN': 15, 'loaded': True, 'loadedTime': 3135.600000023842, 'positionName': 'RIGHT', 'positionCoords': [798.72, 227.5], 'bid': 0.4}]",26993.700000047684,1669830623926,cherries,omelette,3.21,0.4,-2.81,omelette,889.7999999523163,890,890.1999999880791,True,i,28398.700000047684,1405.0,1669830625331,1405,HRV,HRV_0109,2022-11-30 17:53:55
16,"[{'imgObject': {}, 'id': 'blueberries', 'src': '/static/foodstim60/blueberries.jpg', 'key': 'u', 'origWidth': 411, 'origHeight': 411, 'width': 411, 'height': 411, 'widthPercent': 0.45, 'rescaleHeight': False, 'trialN': 16, 'loaded': True, 'loadedTime': 3140.400000035763, 'positionName': 'LEFT', 'positionCoords': [326.28, 226.5], 'bid': 2.89}, {'imgObject': {}, 'id': 'sushi w_condiments', 'src': '/static/foodstim60/sushi w_condiments.jpg', 'key': 'i', 'origWidth': 410, 'origHeight': 410, 'width': 410, 'height': 410, 'widthPercent': 0.45, 'rescaleHeight': False, 'trialN': 16, 'loaded': True, 'loadedTime': 3144.100000023842, 'positionName': 'RIGHT', 'positionCoords': [798.72, 227], 'bid': 7.4}]",28399.0,1669830625331,blueberries,sushi w_condiments,2.89,7.4,4.51,blueberries,875.2000000476837,876,875.6000000238419,True,u,29786.700000047684,1387.7000000476837,1669830626719,1388,HRV,HRV_0109,2022-11-30 17:53:55
17,"[{'imgObject': {}, 'id': 'corn cob', 'src': '/static/foodstim60/corn cob.jpg', 'key': 'u', 'origWidth': 411, 'origHeight': 411, 'width': 411, 'height': 411, 'widthPercent': 0.45, 'rescaleHeight': False, 'trialN': 17, 'loaded': True, 'loadedTime': 3067.2000000476837, 'positionName': 'LEFT', 'positionCoords': [326.28, 226.5], 'bid': 0.27}, {'imgObject': {}, 'id': 'olives', 'src': '/static/foodstim60/olives.jpg', 'key': 'i', 'origWidth': 410, 'origHeight': 410, 'width': 410, 'height': 410, 'widthPercent': 0.45, 'rescaleHeight': False, 'trialN': 17, 'loaded': True, 'loadedTime': 3032.5, 'positionName': 'RIGHT', 'positionCoords': [798.72, 227], 'bid': 0.15}]",29787.0,1669830626719,corn cob,olives,0.27,0.15,-0.12000000000000002,olives,679.2000000476837,680,679.7000000476837,True,i,30981.400000035763,1194.4000000357628,1669830627913,1194,HRV,HRV_0109,2022-11-30 17:53:55
18,"[{'imgObject': {}, 'id': 'omelette', 'src': '/static/foodstim60/omelette.jpg', 'key': 'u', 'origWidth': 410, 'origHeight': 409, 'width': 410, 'height': 409, 'widthPercent': 0.45, 'rescaleHeight': False, 'trialN': 18, 'loaded': True, 'loadedTime': 3136.5, 'positionName': 'LEFT', 'positionCoords': [327.28, 227.5], 'bid': 0.4}, {'imgObject': {}, 'id': 'mashed potato', 'src': '/static/foodstim60/mashed potato.jpg', 'key': 'i', 'origWidth': 409, 'origHeight': 409, 'width': 409, 'height': 409, 'widthPercent': 0.45, 'rescaleHeight': False, 'trialN': 18, 'loaded': True, 'loadedTime': 3145.5, 'positionName': 'RIGHT', 'positionCoords': [798.72, 227.5], 'bid': 0.26}]",30981.80000001192,1669830627914,omelette,mashed potato,0.4,0.26,-0.14,omelette,1556,1556,1556.4000000357628,True,u,33055.10000002384,2073.300000011921,1669830629987,2073,HRV,HRV_0109,2022-11-30 17:53:55
19,"[{'imgObject': {}, 'id': 'rigatoni', 'src': '/static/foodstim60/rigatoni.jpg', 'key': 'u', 'origWidth': 411, 'origHeight': 411, 'width': 411, 'height': 411, 'widthPercent': 0.45, 'rescaleHeight': False, 'trialN': 19, 'loaded': True, 'loadedTime': 3071.400000035763, 'positionName': 'LEFT', 'positionCoords': [326.28, 226.5], 'bid': 0.15}, {'imgObject': {}, 'id': 'luckycharms', 'src': '/static/foodstim60/luckycharms.jpg', 'key': 'i', 'origWidth': 410, 'origHeight': 409, 'width': 410, 'height': 409, 'widthPercent': 0.45, 'rescaleHeight': False, 'trialN': 19, 'loaded': True, 'loadedTime': 3112.300000011921, 'positionName': 'RIGHT', 'positionCoords': [798.72, 227.5], 'bid': 0.15}]",33055.40000003576,1669830629987,rigatoni,luckycharms,0.15,0.15,0.0,luckycharms,652,653,652.5999999642372,True,i,34211.80000001192,1156.3999999761581,1669830631144,1157,HRV,HRV_0109,2022-11-30 17:53:55
20,"[{'imgObject': {}, 'id': 'fried eggs', 'src': '/static/foodstim60/fried eggs.jpg', 'key': 'u', 'origWidth': 410, 'origHeight': 410, 'width': 410, 'height': 410, 'widthPercent': 0.45, 'rescaleHeight': False, 'trialN': 20, 'loaded': True, 'loadedTime': 3091.600000023842, 'positionName': 'LEFT', 'positionCoords': [327.28, 227], 'bid': 0.16}, {'imgObject': {}, 'id': 'bagel plain', 'src': '/static/foodstim60/bagel plain.jpg', 'key': 'i', 'origWidth': 410, 'origHeight': 410, 'width': 410, 'height': 410, 'widthPercent': 0.45, 'rescaleHeight': False, 'trialN': 20, 'loaded': True, 'loadedTime': 3062.5, 'positionName': 'RIGHT', 'positionCoords': [798.72, 227], 'bid': 0.07}]",34212.10000002384,1669830631144,fried eggs,bagel plain,0.16,0.07,-0.09,fried eggs,702.6000000238419,703,703.0,True,u,35430.700000047684,1218.6000000238419,1669830632363,1219,HRV,HRV_0109,2022-11-30 17:53:55
21,"[{'imgObject': {}, 'id': 'apple slices', 'src': '/static/foodstim60/apple slices.jpg', 'key': 'u', 'origWidth': 409, 'origHeight': 410, 'width': 409, 'height': 410, 'widthPercent': 0.45, 'rescaleHeight': False, 'trialN': 21, 'loaded': True, 'loadedTime': 3149.300000011921, 'positionName': 'LEFT', 'positionCoords': [328.28, 227], 'bid': 0.13}, {'imgObject': {}, 'id': 'mango', 'src': '/static/foodstim60/mango.jpg', 'key': 'i', 'origWidth': 411, 'origHeight': 411, 'width': 411, 'height': 411, 'widthPercent': 0.45, 'rescaleHeight': False, 'trialN': 21, 'loaded': True, 'loadedTime': 3113.7000000476837, 'positionName': 'RIGHT', 'positionCoords': [798.72, 226.5], 'bid': 0.22}]",35430.90000003576,1669830632363,apple slices,mango,0.13,0.22,0.09,apple slices,683.1999999880791,684,683.8999999761581,True,u,36630.10000002384,1199.199999988079,1669830633563,1200,HRV,HRV_0109,2022-11-30 17:53:55
22,"[{'imgObject': {}, 'id': 'turkey sandwich', 'src': '/static/foodstim60/turkey sandwich.jpg', 'key': 'u', 'origWidth': 409, 'origHeight': 409, 'width': 409, 'height': 409, 'widthPercent': 0.45, 'rescaleHeight': False, 'trialN': 22, 'loaded': True, 'loadedTime': 3150.5, 'positionName': 'LEFT', 'positionCoords': [328.28, 227.5], 'bid': 1.66}, {'imgObject': {}, 'id': 'orange slices', 'src': '/static/foodstim60/orange slices.jpg', 'key': 'i', 'origWidth': 409, 'origHeight': 410, 'width': 409, 'height': 410, 'widthPercent': 0.45, 'rescaleHeight': False, 'trialN': 22, 'loaded': True, 'loadedTime': 3154.600000023842, 'positionName': 'RIGHT', 'positionCoords': [798.72, 227], 'bid': 1.78}]",36630.200000047684,1669830633563,turkey sandwich,orange slices,1.66,1.78,0.1200000000000001,turkey sandwich,740.8999999761581,741,741.3999999761581,True,u,37884.90000003576,1254.699999988079,1669830634817,1254,HRV,HRV_0109,2022-11-30 17:53:55
23,"[{'imgObject': {}, 'id': 'bagel plain', 'src': '/static/foodstim60/bagel plain.jpg', 'key': 'u', 'origWidth': 410, 'origHeight': 410, 'width': 410, 'height': 410, 'widthPercent': 0.45, 'rescaleHeight': False, 'trialN': 23, 'loaded': True, 'loadedTime': 3062.300000011921, 'positionName': 'LEFT', 'positionCoords': [327.28, 227], 'bid': 0.07}, {'imgObject': {}, 'id': 'yogurt no spoon', 'src': '/static/foodstim60/yogurt no spoon.jpg', 'key': 'i', 'origWidth': 411, 'origHeight': 410, 'width': 411, 'height': 410, 'widthPercent': 0.45, 'rescaleHeight': False, 'trialN': 23, 'loaded': True, 'loadedTime': 3014.400000035763, 'positionName': 'RIGHT', 'positionCoords': [798.72, 227], 'bid': 0.24}]",37885.10000002384,1669830634818,bagel plain,yogurt no spoon,0.07,0.24,0.16999999999999998,yogurt no spoon,789.1000000238419,789,789.5,True,i,39182.200000047684,1297.1000000238419,1669830636115,1297,HRV,HRV_0109,2022-11-30 17:53:55
24,"[{'imgObject': {}, 'id': 'luckycharms', 'src': '/static/foodstim60/luckycharms.jpg', 'key': 'u', 'origWidth': 410, 'origHeight': 409, 'width': 410, 'height': 409, 'widthPercent': 0.45, 'rescaleHeight': False, 'trialN': 24, 'loaded': True, 'loadedTime': 3109.7000000476837, 'positionName': 'LEFT', 'positionCoords': [327.28, 227.5], 'bid': 0.15}, {'imgObject': {}, 'id': 'froot loops w milk', 'src': '/static/foodstim60/froot loops w milk.jpg', 'key': 'i', 'origWidth': 410, 'origHeight': 410, 'width': 410, 'height': 410, 'widthPercent': 0.45, 'rescaleHeight': False, 'trialN': 24, 'loaded': True, 'loadedTime': 3157.400000035763, 'positionName': 'RIGHT', 'positionCoords': [798.72, 227], 'bid': 0.15}]",39182.5,1669830636115,luckycharms,froot loops w milk,0.15,0.15,0.0,froot loops w milk,995.7000000476837,996,996.2000000476837,True,i,40696.200000047684,1513.7000000476837,1669830637629,1514,HRV,HRV_0109,2022-11-30 17:53:55
25,"[{'imgObject': {}, 'id': 'turkeysandwich', 'src': '/static/foodstim60/turkeysandwich.jpg', 'key': 'u', 'origWidth': 409, 'origHeight': 409, 'width': 409, 'height': 409, 'widthPercent': 0.45, 'rescaleHeight': False, 'trialN': 25, 'loaded': True, 'loadedTime': 3086.2000000476837, 'positionName': 'LEFT', 'positionCoords': [328.28, 227.5], 'bid': 2.59}, {'imgObject': {}, 'id': 'cherry tomato', 'src': '/static/foodstim60/cherry tomato.jpg', 'key': 'i', 'origWidth': 410, 'origHeight': 410, 'width': 410, 'height': 410, 'widthPercent': 0.45, 'rescaleHeight': False, 'trialN': 25, 'loaded': True, 'loadedTime': 3158.7000000476837, 'positionName': 'RIGHT', 'positionCoords': [798.72, 227], 'bid': 2.17}]",40696.40000003576,1669830637629,turkeysandwich,cherry tomato,2.59,2.17,-0.41999999999999993,cherry tomato,889.5999999642372,890,890.0999999642372,True,i,42095.10000002384,1398.699999988079,1669830639028,1399,HRV,HRV_0109,2022-11-30 17:53:55
26,"[{'imgObject': {}, 'id': 'burrito', 'src': '/static/foodstim60/burrito.jpg', 'key': 'u', 'origWidth': 410, 'origHeight': 410, 'width': 410, 'height': 410, 'widthPercent': 0.45, 'rescaleHeight': False, 'trialN': 26, 'loaded': True, 'loadedTime': 3049.900000035763, 'positionName': 'LEFT', 'positionCoords': [327.28, 227], 'bid': 3.21}, {'imgObject': {}, 'id': 'tacos', 'src': '/static/foodstim60/tacos.jpg', 'key': 'i', 'origWidth': 411, 'origHeight': 411, 'width': 411, 'height': 411, 'widthPercent': 0.45, 'rescaleHeight': False, 'trialN': 26, 'loaded': True, 'loadedTime': 3162.600000023842, 'positionName': 'RIGHT', 'positionCoords': [798.72, 226.5], 'bid': 5.97}]",42095.30000001192,1669830639028,burrito,tacos,3.21,5.97,2.76,burrito,890.8000000119209,891,891.3000000119209,True,u,43503.30000001192,1408.0,1669830640436,1408,HRV,HRV_0109,2022-11-30 17:53:55
27,"[{'imgObject': {}, 'id': 'sushi w_condiments', 'src': '/static/foodstim60/sushi w_condiments.jpg', 'key': 'u', 'origWidth': 410, 'origHeight': 410, 'width': 410, 'height': 410, 'widthPercent': 0.45, 'rescaleHeight': False, 'trialN': 27, 'loaded': True, 'loadedTime': 3144.600000023842, 'positionName': 'LEFT', 'positionCoords': [327.28, 227], 'bid': 7.4}, {'imgObject': {}, 'id': 'salad w chicken', 'src': '/static/foodstim60/salad w chicken.jpg', 'key': 'i', 'origWidth': 411, 'origHeight': 411, 'width': 411, 'height': 411, 'widthPercent': 0.45, 'rescaleHeight': False, 'trialN': 27, 'loaded': True, 'loadedTime': 3080, 'positionName': 'RIGHT', 'positionCoords': [798.72, 226.5], 'bid': 6.78}]",43503.60000002384,1669830640436,sushi w_condiments,salad w chicken,7.4,6.78,-0.6200000000000001,salad w chicken,594.6999999880791,595,594.8999999761581,True,i,44608.10000002384,1104.5,1669830641541,1105,HRV,HRV_0109,2022-11-30 17:53:55
28,"[{'imgObject': {}, 'id': 'shreddedwheatwithmilk', 'src': '/static/foodstim60/shreddedwheatwithmilk.jpg', 'key': 'u', 'origWidth': 410, 'origHeight': 410, 'width': 410, 'height': 410, 'widthPercent': 0.45, 'rescaleHeight': False, 'trialN': 28, 'loaded': True, 'loadedTime': 3167.7000000476837, 'positionName': 'LEFT', 'positionCoords': [327.28, 227], 'bid': 0.33}, {'imgObject': {}, 'id': 'orange slices', 'src': '/static/foodstim60/orange slices.jpg', 'key': 'i', 'origWidth': 409, 'origHeight': 410, 'width': 409, 'height': 410, 'widthPercent': 0.45, 'rescaleHeight': False, 'trialN': 28, 'loaded': True, 'loadedTime': 3154.600000023842, 'positionName': 'RIGHT', 'positionCoords': [798.72, 227], 'bid': 1.78}]",44608.40000003576,1669830641541,shreddedwheatwithmilk,orange slices,0.33,1.78,1.45,orange slices,889.8000000119209,890,890.3000000119209,True,i,46010.90000003576,1402.5,1669830642943,1402,HRV,HRV_0109,2022-11-30 17:53:55
29,"[{'imgObject': {}, 'id': 'tacos', 'src': '/static/foodstim60/tacos.jpg', 'key': 'u', 'origWidth': 411, 'origHeight': 411, 'width': 411, 'height': 411, 'widthPercent': 0.45, 'rescaleHeight': False, 'trialN': 29, 'loaded': True, 'loadedTime': 3163.300000011921, 'positionName': 'LEFT', 'positionCoords': [326.28, 226.5], 'bid': 5.97}, {'imgObject': {}, 'id': 'salad w chicken', 'src': '/static/foodstim60/salad w chicken.jpg', 'key': 'i', 'origWidth': 411, 'origHeight': 411, 'width': 411, 'height': 411, 'widthPercent': 0.45, 'rescaleHeight': False, 'trialN': 29, 'loaded': True, 'loadedTime': 3079.800000011921, 'positionName': 'RIGHT', 'positionCoords': [798.72, 226.5], 'bid': 6.78}]",46011.30000001192,1669830642944,tacos,salad w chicken,5.97,6.78,0.8100000000000005,salad w chicken,902.9000000357628,903,903.3000000119209,True,i,47423.80000001192,1412.5,1669830644356,1412,HRV,HRV_0109,2022-11-30 17:53:55
30,"[{'imgObject': {}, 'id': 'luckycharms', 'src': '/static/foodstim60/luckycharms.jpg', 'key': 'u', 'origWidth': 410, 'origHeight': 409, 'width': 410, 'height': 409, 'widthPercent': 0.45, 'rescaleHeight': False, 'trialN': 30, 'loaded': True, 'loadedTime': 3112.7000000476837, 'positionName': 'LEFT', 'positionCoords': [327.28, 227.5], 'bid': 0.15}, {'imgObject': {}, 'id': 'chicken nuggets2', 'src': '/static/foodstim60/chicken nuggets2.jpg', 'key': 'i', 'origWidth': 410, 'origHeight': 409, 'width': 410, 'height': 409, 'widthPercent': 0.45, 'rescaleHeight': False, 'trialN': 30, 'loaded': True, 'loadedTime': 3168.7000000476837, 'positionName': 'RIGHT', 'positionCoords': [798.72, 227.5], 'bid': 0.1}]",47424.10000002384,1669830644357,luckycharms,chicken nuggets2,0.15,0.1,-0.04999999999999999,chicken nuggets2,946,946,946.5,True,i,48875.0,1450.8999999761581,1669830645808,1451,HRV,HRV_0109,2022-11-30 17:53:55
31,"[{'imgObject': {}, 'id': 'cocktailshrimp', 'src': '/static/foodstim60/cocktailshrimp.jpg', 'key': 'u', 'origWidth': 410, 'origHeight': 410, 'width': 410, 'height': 410, 'widthPercent': 0.45, 'rescaleHeight': False, 'trialN': 31, 'loaded': True, 'loadedTime': 3085.900000035763, 'positionName': 'LEFT', 'positionCoords': [327.28, 227], 'bid': 3.5500000000000003}, {'imgObject': {}, 'id': 'salmon', 'src': '/static/foodstim60/salmon.jpg', 'key': 'i', 'origWidth': 410, 'origHeight': 409, 'width': 410, 'height': 409, 'widthPercent': 0.45, 'rescaleHeight': False, 'trialN': 31, 'loaded': True, 'loadedTime': 3173.100000023842, 'positionName': 'RIGHT', 'positionCoords': [798.72, 227.5], 'bid': 5.65}]",48875.5,1669830645808,cocktailshrimp,salmon,3.5500000000000003,5.65,2.1,salmon,758.6000000238419,759,759.3000000119209,True,i,50152.60000002384,1277.1000000238419,1669830647085,1277,HRV,HRV_0109,2022-11-30 17:53:55
32,"[{'imgObject': {}, 'id': 'ice cream sundae 002', 'src': '/static/foodstim60/ice cream sundae 002.jpg', 'key': 'u', 'origWidth': 409, 'origHeight': 409, 'width': 409, 'height': 409, 'widthPercent': 0.45, 'rescaleHeight': False, 'trialN': 32, 'loaded': True, 'loadedTime': 3173.900000035763, 'positionName': 'LEFT', 'positionCoords': [328.28, 227.5], 'bid': 0.31}, {'imgObject': {}, 'id': 'bagel and cc', 'src': '/static/foodstim60/bagel and cc.jpg', 'key': 'i', 'origWidth': 410, 'origHeight': 410, 'width': 410, 'height': 410, 'widthPercent': 0.45, 'rescaleHeight': False, 'trialN': 32, 'loaded': True, 'loadedTime': 3177.7000000476837, 'positionName': 'RIGHT', 'positionCoords': [798.72, 227], 'bid': 0.16}]",50152.90000003576,1669830647085,ice cream sundae 002,bagel and cc,0.31,0.16,-0.15,ice cream sundae 002,649.3000000119209,650,649.8000000119209,True,u,51320.30000001192,1167.3999999761581,1669830648253,1168,HRV,HRV_0109,2022-11-30 17:53:55
33,"[{'imgObject': {}, 'id': 'salad w chicken', 'src': '/static/foodstim60/salad w chicken.jpg', 'key': 'u', 'origWidth': 411, 'origHeight': 411, 'width': 411, 'height': 411, 'widthPercent': 0.45, 'rescaleHeight': False, 'trialN': 33, 'loaded': True, 'loadedTime': 3079.5, 'positionName': 'LEFT', 'positionCoords': [326.28, 226.5], 'bid': 6.78}, {'imgObject': {}, 'id': 'veggieswithdip', 'src': '/static/foodstim60/veggieswithdip.jpg', 'key': 'i', 'origWidth': 409, 'origHeight': 409, 'width': 409, 'height': 409, 'widthPercent': 0.45, 'rescaleHeight': False, 'trialN': 33, 'loaded': True, 'loadedTime': 3178.7000000476837, 'positionName': 'RIGHT', 'positionCoords': [798.72, 227.5], 'bid': 4.7700000000000005}]",51320.60000002384,1669830648253,salad w chicken,veggieswithdip,6.78,4.7700000000000005,-2.01,salad w chicken,795.1999999880791,796,795.6000000238419,True,u,52627.10000002384,1306.5,1669830649560,1307,HRV,HRV_0109,2022-11-30 17:53:55
34,"[{'imgObject': {}, 'id': 'mashed potato', 'src': '/static/foodstim60/mashed potato.jpg', 'key': 'u', 'origWidth': 409, 'origHeight': 409, 'width': 409, 'height': 409, 'widthPercent': 0.45, 'rescaleHeight': False, 'trialN': 34, 'loaded': True, 'loadedTime': 3145.5, 'positionName': 'LEFT', 'positionCoords': [328.28, 227.5], 'bid': 0.26}, {'imgObject': {}, 'id': 'cheerios', 'src': '/static/foodstim60/cheerios.jpg', 'key': 'i', 'origWidth': 409, 'origHeight': 410, 'width': 409, 'height': 410, 'widthPercent': 0.45, 'rescaleHeight': False, 'trialN': 34, 'loaded': True, 'loadedTime': 3135.400000035763, 'positionName': 'RIGHT', 'positionCoords': [798.72, 227], 'bid': 0.16}]",52627.40000003576,1669830649560,mashed potato,cheerios,0.26,0.16,-0.1,cheerios,743.5999999642372,744,744.1999999880791,True,i,53886.0,1258.5999999642372,1669830650818,1258,HRV,HRV_0109,2022-11-30 17:53:55
35,"[{'imgObject': {}, 'id': 'edamame', 'src': '/static/foodstim60/edamame.jpg', 'key': 'u', 'origWidth': 409, 'origHeight': 410, 'width': 409, 'height': 410, 'widthPercent': 0.45, 'rescaleHeight': False, 'trialN': 35, 'loaded': True, 'loadedTime': 3179.800000011921, 'positionName': 'LEFT', 'positionCoords': [328.28, 227], 'bid': 3.86}, {'imgObject': {}, 'id': 'lox', 'src': '/static/foodstim60/lox.jpg', 'key': 'i', 'origWidth': 410, 'origHeight': 411, 'width': 410, 'height': 411, 'widthPercent': 0.45, 'rescaleHeight': False, 'trialN': 35, 'loaded': True, 'loadedTime': 3184.800000011921, 'positionName': 'RIGHT', 'positionCoords': [798.72, 226.5], 'bid': 3.69}]",53886.200000047684,1669830650819,edamame,lox,3.86,3.69,-0.16999999999999993,lox,933.1999999880791,933,933.5999999642372,True,i,55332.200000047684,1446.0,1669830652265,1446,HRV,HRV_0109,2022-11-30 17:53:55
36,"[{'imgObject': {}, 'id': 'fruitsalad', 'src': '/static/foodstim60/fruitsalad.jpg', 'key': 'u', 'origWidth': 410, 'origHeight': 410, 'width': 410, 'height': 410, 'widthPercent': 0.45, 'rescaleHeight': False, 'trialN': 36, 'loaded': True, 'loadedTime': 3106.2000000476837, 'positionName': 'LEFT', 'positionCoords': [327.28, 227], 'bid': 0.29}, {'imgObject': {}, 'id': 'turkey sandwich', 'src': '/static/foodstim60/turkey sandwich.jpg', 'key': 'i', 'origWidth': 409, 'origHeight': 409, 'width': 409, 'height': 409, 'widthPercent': 0.45, 'rescaleHeight': False, 'trialN': 36, 'loaded': True, 'loadedTime': 3153.600000023842, 'positionName': 'RIGHT', 'positionCoords': [798.72, 227.5], 'bid': 1.66}]",55332.5,1669830652265,fruitsalad,turkey sandwich,0.29,1.66,1.3699999999999999,turkey sandwich,781.6000000238419,782,782.2000000476837,True,i,56623.10000002384,1290.6000000238419,1669830653556,1291,HRV,HRV_0109,2022-11-30 17:53:55
37,"[{'imgObject': {}, 'id': 'froot loops w milk', 'src': '/static/foodstim60/froot loops w milk.jpg', 'key': 'u', 'origWidth': 410, 'origHeight': 410, 'width': 410, 'height': 410, 'widthPercent': 0.45, 'rescaleHeight': False, 'trialN': 37, 'loaded': True, 'loadedTime': 3158.5, 'positionName': 'LEFT', 'positionCoords': [327.28, 227], 'bid': 0.15}, {'imgObject': {}, 'id': 'bagel plain', 'src': '/static/foodstim60/bagel plain.jpg', 'key': 'i', 'origWidth': 410, 'origHeight': 410, 'width': 410, 'height': 410, 'widthPercent': 0.45, 'rescaleHeight': False, 'trialN': 37, 'loaded': True, 'loadedTime': 3061.600000023842, 'positionName': 'RIGHT', 'positionCoords': [798.72, 227], 'bid': 0.07}]",56623.40000003576,1669830653556,froot loops w milk,bagel plain,0.15,0.07,-0.07999999999999999,bagel plain,650.8000000119209,652,651.8000000119209,True,i,57787.10000002384,1163.699999988079,1669830654720,1164,HRV,HRV_0109,2022-11-30 17:53:55
38,"[{'imgObject': {}, 'id': 'popsicles', 'src': '/static/foodstim60/popsicles.jpg', 'key': 'u', 'origWidth': 410, 'origHeight': 410, 'width': 410, 'height': 410, 'widthPercent': 0.45, 'rescaleHeight': False, 'trialN': 38, 'loaded': True, 'loadedTime': 3053.800000011921, 'positionName': 'LEFT', 'positionCoords': [327.28, 227], 'bid': 0.26}, {'imgObject': {}, 'id': 'veggieswithdip', 'src': '/static/foodstim60/veggieswithdip.jpg', 'key': 'i', 'origWidth': 409, 'origHeight': 409, 'width': 409, 'height': 409, 'widthPercent': 0.45, 'rescaleHeight': False, 'trialN': 38, 'loaded': True, 'loadedTime': 3178.600000023842, 'positionName': 'RIGHT', 'positionCoords': [798.72, 227.5], 'bid': 4.7700000000000005}]",57787.10000002384,1669830654720,popsicles,veggieswithdip,0.26,4.7700000000000005,4.510000000000001,veggieswithdip,743.1999999880791,743,743.6000000238419,True,i,59034.60000002384,1247.5,1669830655967,1247,HRV,HRV_0109,2022-11-30 17:53:55
39,"[{'imgObject': {}, 'id': 'orange slices', 'src': '/static/foodstim60/orange slices.jpg', 'key': 'u', 'origWidth': 409, 'origHeight': 410, 'width': 409, 'height': 410, 'widthPercent': 0.45, 'rescaleHeight': False, 'trialN': 39, 'loaded': True, 'loadedTime': 3154.800000011921, 'positionName': 'LEFT', 'positionCoords': [328.28, 227], 'bid': 1.78}, {'imgObject': {}, 'id': 'olives', 'src': '/static/foodstim60/olives.jpg', 'key': 'i', 'origWidth': 410, 'origHeight': 410, 'width': 410, 'height': 410, 'widthPercent': 0.45, 'rescaleHeight': False, 'trialN': 39, 'loaded': True, 'loadedTime': 3032.7000000476837, 'positionName': 'RIGHT', 'positionCoords': [798.72, 227], 'bid': 0.15}]",59034.90000003576,1669830655967,orange slices,olives,1.78,0.15,-1.6300000000000001,orange slices,735.3000000119209,736,735.6999999880791,True,u,60280.5,1245.5999999642372,1669830657213,1246,HRV,HRV_0109,2022-11-30 17:53:55
40,"[{'imgObject': {}, 'id': 'raisin bran w milk', 'src': '/static/foodstim60/raisin bran w milk.jpg', 'key': 'u', 'origWidth': 411, 'origHeight': 411, 'width': 411, 'height': 411, 'widthPercent': 0.45, 'rescaleHeight': False, 'trialN': 40, 'loaded': True, 'loadedTime': 3185.100000023842, 'positionName': 'LEFT', 'positionCoords': [326.28, 226.5], 'bid': 0}, {'imgObject': {}, 'id': 'hashbrowns', 'src': '/static/foodstim60/hashbrowns.jpg', 'key': 'i', 'origWidth': 411, 'origHeight': 410, 'width': 411, 'height': 410, 'widthPercent': 0.45, 'rescaleHeight': False, 'trialN': 40, 'loaded': True, 'loadedTime': 3187, 'positionName': 'RIGHT', 'positionCoords': [798.72, 227], 'bid': 0.13}]",60280.700000047684,1669830657213,raisin bran w milk,hashbrowns,0.0,0.13,0.13,raisin bran w milk,1921.3999999761581,1922,1922.0,True,u,62720.700000047684,2440.0,1669830659653,2440,HRV,HRV_0109,2022-11-30 17:53:55
41,"[{'imgObject': {}, 'id': 'ice cream sundae 002', 'src': '/static/foodstim60/ice cream sundae 002.jpg', 'key': 'u', 'origWidth': 409, 'origHeight': 409, 'width': 409, 'height': 409, 'widthPercent': 0.45, 'rescaleHeight': False, 'trialN': 41, 'loaded': True, 'loadedTime': 3174.100000023842, 'positionName': 'LEFT', 'positionCoords': [328.28, 227.5], 'bid': 0.31}, {'imgObject': {}, 'id': 'raspberries', 'src': '/static/foodstim60/raspberries.jpg', 'key': 'i', 'origWidth': 411, 'origHeight': 411, 'width': 411, 'height': 411, 'widthPercent': 0.45, 'rescaleHeight': False, 'trialN': 41, 'loaded': True, 'loadedTime': 3037.600000023842, 'positionName': 'RIGHT', 'positionCoords': [798.72, 226.5], 'bid': 0.29}]",62720.90000003576,1669830659654,ice cream sundae 002,raspberries,0.31,0.29,-0.020000000000000018,raspberries,681.3000000119209,681,682.0,True,i,63919.90000003576,1199.0,1669830660852,1198,HRV,HRV_0109,2022-11-30 17:53:55
42,"[{'imgObject': {}, 'id': 'cheerios', 'src': '/static/foodstim60/cheerios.jpg', 'key': 'u', 'origWidth': 409, 'origHeight': 410, 'width': 409, 'height': 410, 'widthPercent': 0.45, 'rescaleHeight': False, 'trialN': 42, 'loaded': True, 'loadedTime': 3131.7000000476837, 'positionName': 'LEFT', 'positionCoords': [328.28, 227], 'bid': 0.16}, {'imgObject': {}, 'id': 'bagel and cc', 'src': '/static/foodstim60/bagel and cc.jpg', 'key': 'i', 'origWidth': 410, 'origHeight': 410, 'width': 410, 'height': 410, 'widthPercent': 0.45, 'rescaleHeight': False, 'trialN': 42, 'loaded': True, 'loadedTime': 3177.800000011921, 'positionName': 'RIGHT', 'positionCoords': [798.72, 227], 'bid': 0.16}]",63920.10000002384,1669830660853,cheerios,bagel and cc,0.16,0.16,0.0,cheerios,714.1000000238419,714,714.6999999880791,True,u,65150.90000003576,1230.800000011921,1669830662083,1230,HRV,HRV_0109,2022-11-30 17:53:55
43,"[{'imgObject': {}, 'id': 'lox', 'src': '/static/foodstim60/lox.jpg', 'key': 'u', 'origWidth': 410, 'origHeight': 411, 'width': 410, 'height': 411, 'widthPercent': 0.45, 'rescaleHeight': False, 'trialN': 43, 'loaded': True, 'loadedTime': 3184.7000000476837, 'positionName': 'LEFT', 'positionCoords': [327.28, 226.5], 'bid': 3.69}, {'imgObject': {}, 'id': 'mashed potato', 'src': '/static/foodstim60/mashed potato.jpg', 'key': 'i', 'origWidth': 409, 'origHeight': 409, 'width': 409, 'height': 409, 'widthPercent': 0.45, 'rescaleHeight': False, 'trialN': 43, 'loaded': True, 'loadedTime': 3144.7000000476837, 'positionName': 'RIGHT', 'positionCoords': [798.72, 227.5], 'bid': 0.26}]",65151.200000047684,1669830662084,lox,mashed potato,3.69,0.26,-3.4299999999999997,lox,732.3999999761581,733,732.8999999761581,True,u,66395.60000002384,1244.3999999761581,1669830663328,1244,HRV,HRV_0109,2022-11-30 17:53:55
44,"[{'imgObject': {}, 'id': 'fruitsalad', 'src': '/static/foodstim60/fruitsalad.jpg', 'key': 'u', 'origWidth': 410, 'origHeight': 410, 'width': 410, 'height': 410, 'widthPercent': 0.45, 'rescaleHeight': False, 'trialN': 44, 'loaded': True, 'loadedTime': 3106, 'positionName': 'LEFT', 'positionCoords': [327.28, 227], 'bid': 0.29}, {'imgObject': {}, 'id': 'tacos', 'src': '/static/foodstim60/tacos.jpg', 'key': 'i', 'origWidth': 411, 'origHeight': 411, 'width': 411, 'height': 411, 'widthPercent': 0.45, 'rescaleHeight': False, 'trialN': 44, 'loaded': True, 'loadedTime': 3166.2000000476837, 'positionName': 'RIGHT', 'positionCoords': [798.72, 226.5], 'bid': 5.97}]",66395.90000003576,1669830663328,fruitsalad,tacos,0.29,5.97,5.68,fruitsalad,734.5,735,735.0,True,u,67641.60000002384,1245.699999988079,1669830664574,1246,HRV,HRV_0109,2022-11-30 17:53:55
45,"[{'imgObject': {}, 'id': 'salad w chicken', 'src': '/static/foodstim60/salad w chicken.jpg', 'key': 'u', 'origWidth': 411, 'origHeight': 411, 'width': 411, 'height': 411, 'widthPercent': 0.45, 'rescaleHeight': False, 'trialN': 45, 'loaded': True, 'loadedTime': 3080.100000023842, 'positionName': 'LEFT', 'positionCoords': [326.28, 226.5], 'bid': 6.78}, {'imgObject': {}, 'id': 'turkeysandwich', 'src': '/static/foodstim60/turkeysandwich.jpg', 'key': 'i', 'origWidth': 409, 'origHeight': 409, 'width': 409, 'height': 409, 'widthPercent': 0.45, 'rescaleHeight': False, 'trialN': 45, 'loaded': True, 'loadedTime': 3087, 'positionName': 'RIGHT', 'positionCoords': [798.72, 227.5], 'bid': 2.59}]",67641.90000003576,1669830664574,salad w chicken,turkeysandwich,6.78,2.59,-4.19,salad w chicken,816.8999999761581,818,817.5999999642372,True,u,68975.90000003576,1334.0,1669830665909,1335,HRV,HRV_0109,2022-11-30 17:53:55
46,"[{'imgObject': {}, 'id': 'baked potato', 'src': '/static/foodstim60/baked potato.jpg', 'key': 'u', 'origWidth': 409, 'origHeight': 410, 'width': 409, 'height': 410, 'widthPercent': 0.45, 'rescaleHeight': False, 'trialN': 46, 'loaded': True, 'loadedTime': 3191.600000023842, 'positionName': 'LEFT', 'positionCoords': [328.28, 227], 'bid': 0.29}, {'imgObject': {}, 'id': 'raspberries', 'src': '/static/foodstim60/raspberries.jpg', 'key': 'i', 'origWidth': 411, 'origHeight': 411, 'width': 411, 'height': 411, 'widthPercent': 0.45, 'rescaleHeight': False, 'trialN': 46, 'loaded': True, 'loadedTime': 3042.100000023842, 'positionName': 'RIGHT', 'positionCoords': [798.72, 226.5], 'bid': 0.29}]",68976.20000004768,1669830665909,baked potato,raspberries,0.29,0.29,0.0,raspberries,585.8999999761581,586,586.3999999761581,True,i,70067.30000001192,1091.0999999642372,1669830667000,1091,HRV,HRV_0109,2022-11-30 17:53:55
47,"[{'imgObject': {}, 'id': 'popsicles', 'src': '/static/foodstim60/popsicles.jpg', 'key': 'u', 'origWidth': 410, 'origHeight': 410, 'width': 410, 'height': 410, 'widthPercent': 0.45, 'rescaleHeight': False, 'trialN': 47, 'loaded': True, 'loadedTime': 3056.800000011921, 'positionName': 'LEFT', 'positionCoords': [327.28, 227], 'bid': 0.26}, {'imgObject': {}, 'id': 'mashed potato', 'src': '/static/foodstim60/mashed potato.jpg', 'key': 'i', 'origWidth': 409, 'origHeight': 409, 'width': 409, 'height': 409, 'widthPercent': 0.45, 'rescaleHeight': False, 'trialN': 47, 'loaded': True, 'loadedTime': 3145.300000011921, 'positionName': 'RIGHT', 'positionCoords': [798.72, 227.5], 'bid': 0.26}]",70067.5,1669830667000,popsicles,mashed potato,0.26,0.26,0.0,popsicles,1095.4000000357628,1096,1095.800000011921,True,u,71677.0,1609.5,1669830668610,1610,HRV,HRV_0109,2022-11-30 17:53:55
48,"[{'imgObject': {}, 'id': 'granola w milk', 'src': '/static/foodstim60/granola w milk.jpg', 'key': 'u', 'origWidth': 410, 'origHeight': 410, 'width': 410, 'height': 410, 'widthPercent': 0.45, 'rescaleHeight': False, 'trialN': 48, 'loaded': True, 'loadedTime': 3192.600000023842, 'positionName': 'LEFT', 'positionCoords': [327.28, 227], 'bid': 0.55}, {'imgObject': {}, 'id': 'burger', 'src': '/static/foodstim60/burger.jpg', 'key': 'i', 'origWidth': 409, 'origHeight': 409, 'width': 409, 'height': 409, 'widthPercent': 0.45, 'rescaleHeight': False, 'trialN': 48, 'loaded': True, 'loadedTime': 3122.2000000476837, 'positionName': 'RIGHT', 'positionCoords': [798.72, 227.5], 'bid': 1.66}]",71677.20000004768,1669830668610,granola w milk,burger,0.55,1.66,1.1099999999999999,burger,652.8999999761581,653,653.5,True,i,72844.10000002384,1166.8999999761581,1669830669777,1167,HRV,HRV_0109,2022-11-30 17:53:55
49,"[{'imgObject': {}, 'id': 'banana', 'src': '/static/foodstim60/banana.jpg', 'key': 'u', 'origWidth': 410, 'origHeight': 410, 'width': 410, 'height': 410, 'widthPercent': 0.45, 'rescaleHeight': False, 'trialN': 49, 'loaded': True, 'loadedTime': 3056.900000035763, 'positionName': 'LEFT', 'positionCoords': [327.28, 227], 'bid': 0.07}, {'imgObject': {}, 'id': 'mango', 'src': '/static/foodstim60/mango.jpg', 'key': 'i', 'origWidth': 411, 'origHeight': 411, 'width': 411, 'height': 411, 'widthPercent': 0.45, 'rescaleHeight': False, 'trialN': 49, 'loaded': True, 'loadedTime': 3113.5, 'positionName': 'RIGHT', 'positionCoords': [798.72, 226.5], 'bid': 0.22}]",72844.30000001192,1669830669777,banana,mango,0.07,0.22,0.15,banana,614,614,614.6000000238419,True,u,73964.0,1119.699999988079,1669830670897,1120,HRV,HRV_0109,2022-11-30 17:53:55
50,"[{'imgObject': {}, 'id': 'lox', 'src': '/static/foodstim60/lox.jpg', 'key': 'u', 'origWidth': 410, 'origHeight': 411, 'width': 410, 'height': 411, 'widthPercent': 0.45, 'rescaleHeight': False, 'trialN': 50, 'loaded': True, 'loadedTime': 3184.800000011921, 'positionName': 'LEFT', 'positionCoords': [327.28, 226.5], 'bid': 3.69}, {'imgObject': {}, 'id': 'tacos', 'src': '/static/foodstim60/tacos.jpg', 'key': 'i', 'origWidth': 411, 'origHeight': 411, 'width': 411, 'height': 411, 'widthPercent': 0.45, 'rescaleHeight': False, 'trialN': 50, 'loaded': True, 'loadedTime': 3163.600000023842, 'positionName': 'RIGHT', 'positionCoords': [798.72, 226.5], 'bid': 5.97}]",73964.30000001192,1669830670897,lox,tacos,3.69,5.97,2.28,tacos,549.9000000357628,550,550.1000000238419,True,i,75025.80000001192,1061.5,1669830671958,1061,HRV,HRV_0109,2022-11-30 17:53:55
51,"[{'imgObject': {}, 'id': 'omelette', 'src': '/static/foodstim60/omelette.jpg', 'key': 'u', 'origWidth': 410, 'origHeight': 409, 'width': 410, 'height': 409, 'widthPercent': 0.45, 'rescaleHeight': False, 'trialN': 51, 'loaded': True, 'loadedTime': 3136.7000000476837, 'positionName': 'LEFT', 'positionCoords': [327.28, 227.5], 'bid': 0.4}, {'imgObject': {}, 'id': 'raisin bran w milk', 'src': '/static/foodstim60/raisin bran w milk.jpg', 'key': 'i', 'origWidth': 411, 'origHeight': 411, 'width': 411, 'height': 411, 'widthPercent': 0.45, 'rescaleHeight': False, 'trialN': 51, 'loaded': True, 'loadedTime': 3185.900000035763, 'positionName': 'RIGHT', 'positionCoords': [798.72, 226.5], 'bid': 0}]",75026.10000002384,1669830671959,omelette,raisin bran w milk,0.4,0.0,-0.4,omelette,696,696,696.6000000238419,True,u,76226.90000003576,1200.800000011921,1669830673159,1200,HRV,HRV_0109,2022-11-30 17:53:55
52,"[{'imgObject': {}, 'id': 'baked potato', 'src': '/static/foodstim60/baked potato.jpg', 'key': 'u', 'origWidth': 409, 'origHeight': 410, 'width': 409, 'height': 410, 'widthPercent': 0.45, 'rescaleHeight': False, 'trialN': 52, 'loaded': True, 'loadedTime': 3187.900000035763, 'positionName': 'LEFT', 'positionCoords': [328.28, 227], 'bid': 0.29}, {'imgObject': {}, 'id': 'fruitsalad', 'src': '/static/foodstim60/fruitsalad.jpg', 'key': 'i', 'origWidth': 410, 'origHeight': 410, 'width': 410, 'height': 410, 'widthPercent': 0.45, 'rescaleHeight': False, 'trialN': 52, 'loaded': True, 'loadedTime': 3108.900000035763, 'positionName': 'RIGHT', 'positionCoords': [798.72, 227], 'bid': 0.29}]",76227.20000004768,1669830673160,baked potato,fruitsalad,0.29,0.29,0.0,baked potato,783.5,784,784.0999999642372,True,u,77520.90000003576,1293.699999988079,1669830674453,1293,HRV,HRV_0109,2022-11-30 17:53:55
53,"[{'imgObject': {}, 'id': 'grilled chicken strips', 'src': '/static/foodstim60/grilled chicken strips.jpg', 'key': 'u', 'origWidth': 410, 'origHeight': 411, 'width': 410, 'height': 411, 'widthPercent': 0.45, 'rescaleHeight': False, 'trialN': 53, 'loaded': True, 'loadedTime': 3193.7000000476837, 'positionName': 'LEFT', 'positionCoords': [327.28, 226.5], 'bid': 6.71}, {'imgObject': {}, 'id': 'ice cream sundae 002', 'src': '/static/foodstim60/ice cream sundae 002.jpg', 'key': 'i', 'origWidth': 409, 'origHeight': 409, 'width': 409, 'height': 409, 'widthPercent': 0.45, 'rescaleHeight': False, 'trialN': 53, 'loaded': True, 'loadedTime': 3174.2000000476837, 'positionName': 'RIGHT', 'positionCoords': [798.72, 227.5], 'bid': 0.31}]",77521.10000002384,1669830674454,grilled chicken strips,ice cream sundae 002,6.71,0.31,-6.4,grilled chicken strips,601,601,601.3999999761581,True,u,78630.80000001192,1109.699999988079,1669830675563,1109,HRV,HRV_0109,2022-11-30 17:53:55
54,"[{'imgObject': {}, 'id': 'chicken nuggets2', 'src': '/static/foodstim60/chicken nuggets2.jpg', 'key': 'u', 'origWidth': 410, 'origHeight': 409, 'width': 410, 'height': 409, 'widthPercent': 0.45, 'rescaleHeight': False, 'trialN': 54, 'loaded': True, 'loadedTime': 3168.800000011921, 'positionName': 'LEFT', 'positionCoords': [327.28, 227.5], 'bid': 0.1}, {'imgObject': {}, 'id': 'apple slices', 'src': '/static/foodstim60/apple slices.jpg', 'key': 'i', 'origWidth': 409, 'origHeight': 410, 'width': 409, 'height': 410, 'widthPercent': 0.45, 'rescaleHeight': False, 'trialN': 54, 'loaded': True, 'loadedTime': 3149.100000023842, 'positionName': 'RIGHT', 'positionCoords': [798.72, 227], 'bid': 0.13}]",78631.10000002384,1669830675564,chicken nuggets2,apple slices,0.1,0.13,0.03,chicken nuggets2,859.1999999880791,859,859.5,True,u,79993.90000003576,1362.800000011921,1669830676926,1362,HRV,HRV_0109,2022-11-30 17:53:55
55,"[{'imgObject': {}, 'id': 'edamame', 'src': '/static/foodstim60/edamame.jpg', 'key': 'u', 'origWidth': 409, 'origHeight': 410, 'width': 409, 'height': 410, 'widthPercent': 0.45, 'rescaleHeight': False, 'trialN': 55, 'loaded': True, 'loadedTime': 3179.5, 'positionName': 'LEFT', 'positionCoords': [328.28, 227], 'bid': 3.86}, {'imgObject': {}, 'id': 'strawberries', 'src': '/static/foodstim60/strawberries.jpg', 'key': 'i', 'origWidth': 410, 'origHeight': 410, 'width': 410, 'height': 410, 'widthPercent': 0.45, 'rescaleHeight': False, 'trialN': 55, 'loaded': True, 'loadedTime': 3193.800000011921, 'positionName': 'RIGHT', 'positionCoords': [798.72, 227], 'bid': 3.5500000000000003}]",79994.20000004768,1669830676927,edamame,strawberries,3.86,3.5500000000000003,-0.3099999999999996,edamame,688.6999999880791,689,689.1999999880791,True,u,81191.5,1197.2999999523163,1669830678124,1197,HRV,HRV_0109,2022-11-30 17:53:55
56,"[{'imgObject': {}, 'id': 'pear', 'src': '/static/foodstim60/pear.jpg', 'key': 'u', 'origWidth': 411, 'origHeight': 410, 'width': 411, 'height': 410, 'widthPercent': 0.45, 'rescaleHeight': False, 'trialN': 56, 'loaded': True, 'loadedTime': 3127.7000000476837, 'positionName': 'LEFT', 'positionCoords': [326.28, 227], 'bid': 0.49}, {'imgObject': {}, 'id': 'seaweed', 'src': '/static/foodstim60/seaweed.jpg', 'key': 'i', 'origWidth': 410, 'origHeight': 410, 'width': 410, 'height': 410, 'widthPercent': 0.45, 'rescaleHeight': False, 'trialN': 56, 'loaded': True, 'loadedTime': 3199.300000011921, 'positionName': 'RIGHT', 'positionCoords': [798.72, 227], 'bid': 0.07}]",81191.70000004768,1669830678124,pear,seaweed,0.49,0.07,-0.42,pear,593.0999999642372,594,593.2999999523163,True,u,82294.5,1102.7999999523163,1669830679227,1103,HRV,HRV_0109,2022-11-30 17:53:55
57,"[{'imgObject': {}, 'id': 'baked potato', 'src': '/static/foodstim60/baked potato.jpg', 'key': 'u', 'origWidth': 409, 'origHeight': 410, 'width': 409, 'height': 410, 'widthPercent': 0.45, 'rescaleHeight': False, 'trialN': 57, 'loaded': True, 'loadedTime': 3187.800000011921, 'positionName': 'LEFT', 'positionCoords': [328.28, 227], 'bid': 0.29}, {'imgObject': {}, 'id': 'froot loops w milk', 'src': '/static/foodstim60/froot loops w milk.jpg', 'key': 'i', 'origWidth': 410, 'origHeight': 410, 'width': 410, 'height': 410, 'widthPercent': 0.45, 'rescaleHeight': False, 'trialN': 57, 'loaded': True, 'loadedTime': 3158.7000000476837, 'positionName': 'RIGHT', 'positionCoords': [798.72, 227], 'bid': 0.15}]",82294.80000001192,1669830679227,baked potato,froot loops w milk,0.29,0.15,-0.13999999999999999,baked potato,739.3000000119209,740,739.6999999880791,True,u,83549.90000003576,1255.1000000238419,1669830680483,1256,HRV,HRV_0109,2022-11-30 17:53:55
58,"[{'imgObject': {}, 'id': 'salmon', 'src': '/static/foodstim60/salmon.jpg', 'key': 'u', 'origWidth': 410, 'origHeight': 409, 'width': 410, 'height': 409, 'widthPercent': 0.45, 'rescaleHeight': False, 'trialN': 58, 'loaded': True, 'loadedTime': 3169.7000000476837, 'positionName': 'LEFT', 'positionCoords': [327.28, 227.5], 'bid': 5.65}, {'imgObject': {}, 'id': 'baked potato', 'src': '/static/foodstim60/baked potato.jpg', 'key': 'i', 'origWidth': 409, 'origHeight': 410, 'width': 409, 'height': 410, 'widthPercent': 0.45, 'rescaleHeight': False, 'trialN': 58, 'loaded': True, 'loadedTime': 3187.900000035763, 'positionName': 'RIGHT', 'positionCoords': [798.72, 227], 'bid': 0.29}]",83550.10000002384,1669830680483,salmon,baked potato,5.65,0.29,-5.36,salmon,580.1000000238419,580,580.6999999880791,True,u,84635.30000001192,1085.199999988079,1669830681568,1085,HRV,HRV_0109,2022-11-30 17:53:55
59,"[{'imgObject': {}, 'id': 'raisin bran w milk', 'src': '/static/foodstim60/raisin bran w milk.jpg', 'key': 'u', 'origWidth': 411, 'origHeight': 411, 'width': 411, 'height': 411, 'widthPercent': 0.45, 'rescaleHeight': False, 'trialN': 59, 'loaded': True, 'loadedTime': 3185.800000011921, 'positionName': 'LEFT', 'positionCoords': [326.28, 226.5], 'bid': 0}, {'imgObject': {}, 'id': 'rigatoni', 'src': '/static/foodstim60/rigatoni.jpg', 'key': 'i', 'origWidth': 411, 'origHeight': 411, 'width': 411, 'height': 411, 'widthPercent': 0.45, 'rescaleHeight': False, 'trialN': 59, 'loaded': True, 'loadedTime': 3068, 'positionName': 'RIGHT', 'positionCoords': [798.72, 226.5], 'bid': 0.15}]",84635.60000002384,1669830681568,raisin bran w milk,rigatoni,0.0,0.15,0.15,rigatoni,582.6000000238419,583,583.1000000238419,True,i,85724.60000002384,1089.0,1669830682657,1089,HRV,HRV_0109,2022-11-30 17:53:55
60,"[{'imgObject': {}, 'id': 'avocado', 'src': '/static/foodstim60/avocado.jpg', 'key': 'u', 'origWidth': 409, 'origHeight': 409, 'width': 409, 'height': 409, 'widthPercent': 0.45, 'rescaleHeight': False, 'trialN': 60, 'loaded': True, 'loadedTime': 3200.5, 'positionName': 'LEFT', 'positionCoords': [328.28, 227.5], 'bid': 3.29}, {'imgObject': {}, 'id': 'grilled chicken strips', 'src': '/static/foodstim60/grilled chicken strips.jpg', 'key': 'i', 'origWidth': 410, 'origHeight': 411, 'width': 410, 'height': 411, 'widthPercent': 0.45, 'rescaleHeight': False, 'trialN': 60, 'loaded': True, 'loadedTime': 3193.600000023842, 'positionName': 'RIGHT', 'positionCoords': [798.72, 226.5], 'bid': 6.71}]",85725.0,1669830682658,avocado,grilled chicken strips,3.29,6.71,3.42,avocado,757.2000000476837,757,757.6000000238419,True,u,87000.20000004768,1275.2000000476837,1669830683933,1275,HRV,HRV_0109,2022-11-30 17:53:55
61,"[{'imgObject': {}, 'id': 'lox', 'src': '/static/foodstim60/lox.jpg', 'key': 'u', 'origWidth': 410, 'origHeight': 411, 'width': 410, 'height': 411, 'widthPercent': 0.45, 'rescaleHeight': False, 'trialN': 61, 'loaded': True, 'loadedTime': 3184, 'positionName': 'LEFT', 'positionCoords': [327.28, 226.5], 'bid': 3.69}, {'imgObject': {}, 'id': 'cocktailshrimp', 'src': '/static/foodstim60/cocktailshrimp.jpg', 'key': 'i', 'origWidth': 410, 'origHeight': 410, 'width': 410, 'height': 410, 'widthPercent': 0.45, 'rescaleHeight': False, 'trialN': 61, 'loaded': True, 'loadedTime': 3085.400000035763, 'positionName': 'RIGHT', 'positionCoords': [798.72, 227], 'bid': 3.5500000000000003}]",87000.40000003576,1669830683933,lox,cocktailshrimp,3.69,3.5500000000000003,-0.13999999999999968,lox,634.1999999880791,635,634.6999999880791,True,u,88143.10000002384,1142.699999988079,1669830685076,1143,HRV,HRV_0109,2022-11-30 17:53:55
62,"[{'imgObject': {}, 'id': 'cherry tomato', 'src': '/static/foodstim60/cherry tomato.jpg', 'key': 'u', 'origWidth': 410, 'origHeight': 410, 'width': 410, 'height': 410, 'widthPercent': 0.45, 'rescaleHeight': False, 'trialN': 62, 'loaded': True, 'loadedTime': 3159.300000011921, 'positionName': 'LEFT', 'positionCoords': [327.28, 227], 'bid': 2.17}, {'imgObject': {}, 'id': 'veggieswithdip', 'src': '/static/foodstim60/veggieswithdip.jpg', 'key': 'i', 'origWidth': 409, 'origHeight': 409, 'width': 409, 'height': 409, 'widthPercent': 0.45, 'rescaleHeight': False, 'trialN': 62, 'loaded': True, 'loadedTime': 3178.600000023842, 'positionName': 'RIGHT', 'positionCoords': [798.72, 227.5], 'bid': 4.7700000000000005}]",88143.40000003576,1669830685076,cherry tomato,veggieswithdip,2.17,4.7700000000000005,2.6000000000000005,cherry tomato,613,613,613.3000000119209,True,u,89260.10000002384,1116.699999988079,1669830686193,1117,HRV,HRV_0109,2022-11-30 17:53:55
63,"[{'imgObject': {}, 'id': 'hotdog w must', 'src': '/static/foodstim60/hotdog w must.jpg', 'key': 'u', 'origWidth': 409, 'origHeight': 409, 'width': 409, 'height': 409, 'widthPercent': 0.45, 'rescaleHeight': False, 'trialN': 63, 'loaded': True, 'loadedTime': 3201.7000000476837, 'positionName': 'LEFT', 'positionCoords': [328.28, 227.5], 'bid': 0.35}, {'imgObject': {}, 'id': 'sushi w_condiments', 'src': '/static/foodstim60/sushi w_condiments.jpg', 'key': 'i', 'origWidth': 410, 'origHeight': 410, 'width': 410, 'height': 410, 'widthPercent': 0.45, 'rescaleHeight': False, 'trialN': 63, 'loaded': True, 'loadedTime': 3141, 'positionName': 'RIGHT', 'positionCoords': [798.72, 227], 'bid': 7.4}]",89260.40000003576,1669830686193,hotdog w must,sushi w_condiments,0.35,7.4,7.050000000000001,sushi w_condiments,639.5,640,639.8999999761581,True,i,90406.80000001192,1146.3999999761581,1669830687339,1146,HRV,HRV_0109,2022-11-30 17:53:55
64,"[{'imgObject': {}, 'id': 'blueberries', 'src': '/static/foodstim60/blueberries.jpg', 'key': 'u', 'origWidth': 411, 'origHeight': 411, 'width': 411, 'height': 411, 'widthPercent': 0.45, 'rescaleHeight': False, 'trialN': 64, 'loaded': True, 'loadedTime': 3140.7000000476837, 'positionName': 'LEFT', 'positionCoords': [326.28, 226.5], 'bid': 2.89}, {'imgObject': {}, 'id': 'orange slices', 'src': '/static/foodstim60/orange slices.jpg', 'key': 'i', 'origWidth': 409, 'origHeight': 410, 'width': 409, 'height': 410, 'widthPercent': 0.45, 'rescaleHeight': False, 'trialN': 64, 'loaded': True, 'loadedTime': 3153.7000000476837, 'positionName': 'RIGHT', 'positionCoords': [798.72, 227], 'bid': 1.78}]",90407.10000002384,1669830687340,blueberries,orange slices,2.89,1.78,-1.11,blueberries,658.6999999880791,659,659.1000000238419,True,u,91572.30000001192,1165.199999988079,1669830688505,1165,HRV,HRV_0109,2022-11-30 17:53:55
65,"[{'imgObject': {}, 'id': 'granola w milk', 'src': '/static/foodstim60/granola w milk.jpg', 'key': 'u', 'origWidth': 410, 'origHeight': 410, 'width': 410, 'height': 410, 'widthPercent': 0.45, 'rescaleHeight': False, 'trialN': 65, 'loaded': True, 'loadedTime': 3192.600000023842, 'positionName': 'LEFT', 'positionCoords': [327.28, 227], 'bid': 0.55}, {'imgObject': {}, 'id': 'corn cob', 'src': '/static/foodstim60/corn cob.jpg', 'key': 'i', 'origWidth': 411, 'origHeight': 411, 'width': 411, 'height': 411, 'widthPercent': 0.45, 'rescaleHeight': False, 'trialN': 65, 'loaded': True, 'loadedTime': 3065.300000011921, 'positionName': 'RIGHT', 'positionCoords': [798.72, 226.5], 'bid': 0.27}]",91572.40000003576,1669830688505,granola w milk,corn cob,0.55,0.27,-0.28,corn cob,613.1999999880791,613,613.5,True,i,92691.10000002384,1118.699999988079,1669830689624,1119,HRV,HRV_0109,2022-11-30 17:53:55
66,"[{'imgObject': {}, 'id': 'blackbeanswithrice', 'src': '/static/foodstim60/blackbeanswithrice.jpg', 'key': 'u', 'origWidth': 410, 'origHeight': 410, 'width': 410, 'height': 410, 'widthPercent': 0.45, 'rescaleHeight': False, 'trialN': 66, 'loaded': True, 'loadedTime': 3201.7000000476837, 'positionName': 'LEFT', 'positionCoords': [327.28, 227], 'bid': 0.26}, {'imgObject': {}, 'id': 'mango', 'src': '/static/foodstim60/mango.jpg', 'key': 'i', 'origWidth': 411, 'origHeight': 411, 'width': 411, 'height': 411, 'widthPercent': 0.45, 'rescaleHeight': False, 'trialN': 66, 'loaded': True, 'loadedTime': 3113.5, 'positionName': 'RIGHT', 'positionCoords': [798.72, 226.5], 'bid': 0.22}]",92691.40000003576,1669830689624,blackbeanswithrice,mango,0.26,0.22,-0.04000000000000001,blackbeanswithrice,1302.800000011921,1303,1303.300000011921,True,u,94499.0,1807.5999999642372,1669830691432,1808,HRV,HRV_0109,2022-11-30 17:53:55
67,"[{'imgObject': {}, 'id': 'eggsalad', 'src': '/static/foodstim60/eggsalad.jpg', 'key': 'u', 'origWidth': 410, 'origHeight': 409, 'width': 410, 'height': 409, 'widthPercent': 0.45, 'rescaleHeight': False, 'trialN': 67, 'loaded': True, 'loadedTime': 3126.800000011921, 'positionName': 'LEFT', 'positionCoords': [327.28, 227.5], 'bid': 0.26}, {'imgObject': {}, 'id': 'corn cob', 'src': '/static/foodstim60/corn cob.jpg', 'key': 'i', 'origWidth': 411, 'origHeight': 411, 'width': 411, 'height': 411, 'widthPercent': 0.45, 'rescaleHeight': False, 'trialN': 67, 'loaded': True, 'loadedTime': 3066.600000023842, 'positionName': 'RIGHT', 'positionCoords': [798.72, 226.5], 'bid': 0.27}]",94499.30000001192,1669830691432,eggsalad,corn cob,0.26,0.27,0.010000000000000009,eggsalad,783.8000000119209,784,784.4000000357628,True,u,95794.90000003576,1295.6000000238419,1669830692727,1295,HRV,HRV_0109,2022-11-30 17:53:55
68,"[{'imgObject': {}, 'id': 'strawberries', 'src': '/static/foodstim60/strawberries.jpg', 'key': 'u', 'origWidth': 410, 'origHeight': 410, 'width': 410, 'height': 410, 'widthPercent': 0.45, 'rescaleHeight': False, 'trialN': 68, 'loaded': True, 'loadedTime': 3194.5, 'positionName': 'LEFT', 'positionCoords': [327.28, 227], 'bid': 3.5500000000000003}, {'imgObject': {}, 'id': 'sushi w_condiments', 'src': '/static/foodstim60/sushi w_condiments.jpg', 'key': 'i', 'origWidth': 410, 'origHeight': 410, 'width': 410, 'height': 410, 'widthPercent': 0.45, 'rescaleHeight': False, 'trialN': 68, 'loaded': True, 'loadedTime': 3144.600000023842, 'positionName': 'RIGHT', 'positionCoords': [798.72, 227], 'bid': 7.4}]",95795.10000002384,1669830692728,strawberries,sushi w_condiments,3.5500000000000003,7.4,3.85,strawberries,591.1000000238419,592,592.5,True,u,96900.30000001192,1105.199999988079,1669830693833,1105,HRV,HRV_0109,2022-11-30 17:53:55
69,"[{'imgObject': {}, 'id': 'cantaloupe', 'src': '/static/foodstim60/cantaloupe.jpg', 'key': 'u', 'origWidth': 409, 'origHeight': 409, 'width': 409, 'height': 409, 'widthPercent': 0.45, 'rescaleHeight': False, 'trialN': 69, 'loaded': True, 'loadedTime': 3202.800000011921, 'positionName': 'LEFT', 'positionCoords': [328.28, 227.5], 'bid': 0.52}, {'imgObject': {}, 'id': 'fruitsalad', 'src': '/static/foodstim60/fruitsalad.jpg', 'key': 'i', 'origWidth': 410, 'origHeight': 410, 'width': 410, 'height': 410, 'widthPercent': 0.45, 'rescaleHeight': False, 'trialN': 69, 'loaded': True, 'loadedTime': 3105.400000035763, 'positionName': 'RIGHT', 'positionCoords': [798.72, 227], 'bid': 0.29}]",96900.60000002384,1669830693833,cantaloupe,fruitsalad,0.52,0.29,-0.23000000000000004,fruitsalad,863.5,864,864.1000000238419,True,i,98276.5,1375.8999999761581,1669830695209,1376,HRV,HRV_0109,2022-11-30 17:53:55
70,"[{'imgObject': {}, 'id': 'blueberries', 'src': '/static/foodstim60/blueberries.jpg', 'key': 'u', 'origWidth': 411, 'origHeight': 411, 'width': 411, 'height': 411, 'widthPercent': 0.45, 'rescaleHeight': False, 'trialN': 70, 'loaded': True, 'loadedTime': 3140.900000035763, 'positionName': 'LEFT', 'positionCoords': [326.28, 226.5], 'bid': 2.89}, {'imgObject': {}, 'id': 'salmon', 'src': '/static/foodstim60/salmon.jpg', 'key': 'i', 'origWidth': 410, 'origHeight': 409, 'width': 410, 'height': 409, 'widthPercent': 0.45, 'rescaleHeight': False, 'trialN': 70, 'loaded': True, 'loadedTime': 3172.5, 'positionName': 'RIGHT', 'positionCoords': [798.72, 227.5], 'bid': 5.65}]",98276.70000004768,1669830695209,blueberries,salmon,2.89,5.65,2.7600000000000002,blueberries,613.5,614,613.8999999761581,True,u,99403.30000001192,1126.5999999642372,1669830696336,1127,HRV,HRV_0109,2022-11-30 17:53:55
71,"[{'imgObject': {}, 'id': 'kiwi', 'src': '/static/foodstim60/kiwi.jpg', 'key': 'u', 'origWidth': 410, 'origHeight': 410, 'width': 410, 'height': 410, 'widthPercent': 0.45, 'rescaleHeight': False, 'trialN': 71, 'loaded': True, 'loadedTime': 3207.2000000476837, 'positionName': 'LEFT', 'positionCoords': [327.28, 227], 'bid': 2.1}, {'imgObject': {}, 'id': 'cherry tomato', 'src': '/static/foodstim60/cherry tomato.jpg', 'key': 'i', 'origWidth': 410, 'origHeight': 410, 'width': 410, 'height': 410, 'widthPercent': 0.45, 'rescaleHeight': False, 'trialN': 71, 'loaded': True, 'loadedTime': 3162.400000035763, 'positionName': 'RIGHT', 'positionCoords': [798.72, 227], 'bid': 2.17}]",99403.60000002384,1669830696336,kiwi,cherry tomato,2.1,2.17,0.06999999999999984,kiwi,813.5,814,813.8000000119209,True,u,100733.40000003576,1329.800000011921,1669830697666,1330,HRV,HRV_0109,2022-11-30 17:53:55
72,"[{'imgObject': {}, 'id': 'steak', 'src': '/static/foodstim60/steak.jpg', 'key': 'u', 'origWidth': 410, 'origHeight': 410, 'width': 410, 'height': 410, 'widthPercent': 0.45, 'rescaleHeight': False, 'trialN': 72, 'loaded': True, 'loadedTime': 3207.900000035763, 'positionName': 'LEFT', 'positionCoords': [327.28, 227], 'bid': 5.72}, {'imgObject': {}, 'id': 'chickenfingers', 'src': '/static/foodstim60/chickenfingers.jpg', 'key': 'i', 'origWidth': 410, 'origHeight': 410, 'width': 410, 'height': 410, 'widthPercent': 0.45, 'rescaleHeight': False, 'trialN': 72, 'loaded': True, 'loadedTime': 3209, 'positionName': 'RIGHT', 'positionCoords': [798.72, 227], 'bid': 5.2}]",100733.60000002384,1669830697666,steak,chickenfingers,5.72,5.2,-0.5199999999999996,steak,716.6000000238419,717,717.1000000238419,True,u,101964.90000003576,1231.300000011921,1669830698897,1231,HRV,HRV_0109,2022-11-30 17:53:55
73,"[{'imgObject': {}, 'id': 'seaweed', 'src': '/static/foodstim60/seaweed.jpg', 'key': 'u', 'origWidth': 410, 'origHeight': 410, 'width': 410, 'height': 410, 'widthPercent': 0.45, 'rescaleHeight': False, 'trialN': 73, 'loaded': True, 'loadedTime': 3199.2000000476837, 'positionName': 'LEFT', 'positionCoords': [327.28, 227], 'bid': 0.07}, {'imgObject': {}, 'id': 'mac & cheese', 'src': '/static/foodstim60/mac & cheese.jpg', 'key': 'i', 'origWidth': 410, 'origHeight': 410, 'width': 410, 'height': 410, 'widthPercent': 0.45, 'rescaleHeight': False, 'trialN': 73, 'loaded': True, 'loadedTime': 3045.800000011921, 'positionName': 'RIGHT', 'positionCoords': [798.72, 227], 'bid': 0.2}]",101965.30000001192,1669830698898,seaweed,mac & cheese,0.07,0.2,0.13,seaweed,1045.199999988079,1046,1045.699999988079,True,u,103522.30000001192,1557.0,1669830700455,1557,HRV,HRV_0109,2022-11-30 17:53:55
74,"[{'imgObject': {}, 'id': 'blackbeanswithrice', 'src': '/static/foodstim60/blackbeanswithrice.jpg', 'key': 'u', 'origWidth': 410, 'origHeight': 410, 'width': 410, 'height': 410, 'widthPercent': 0.45, 'rescaleHeight': False, 'trialN': 74, 'loaded': True, 'loadedTime': 3202.600000023842, 'positionName': 'LEFT', 'positionCoords': [327.28, 227], 'bid': 0.26}, {'imgObject': {}, 'id': 'Tribe humus pita', 'src': '/static/foodstim60/Tribe humus pita.jpg', 'key': 'i', 'origWidth': 411, 'origHeight': 411, 'width': 411, 'height': 411, 'widthPercent': 0.45, 'rescaleHeight': False, 'trialN': 74, 'loaded': True, 'loadedTime': 3209.7000000476837, 'positionName': 'RIGHT', 'positionCoords': [798.72, 226.5], 'bid': 0.1}]",103522.60000002384,1669830700455,blackbeanswithrice,Tribe humus pita,0.26,0.1,-0.16,blackbeanswithrice,926.5,927,926.6999999880791,True,u,104953.70000004768,1431.1000000238419,1669830701886,1431,HRV,HRV_0109,2022-11-30 17:53:55
75,"[{'imgObject': {}, 'id': 'avocado', 'src': '/static/foodstim60/avocado.jpg', 'key': 'u', 'origWidth': 409, 'origHeight': 409, 'width': 409, 'height': 409, 'widthPercent': 0.45, 'rescaleHeight': False, 'trialN': 75, 'loaded': True, 'loadedTime': 3200.7000000476837, 'positionName': 'LEFT', 'positionCoords': [328.28, 227.5], 'bid': 3.29}, {'imgObject': {}, 'id': 'cherries', 'src': '/static/foodstim60/cherries.jpg', 'key': 'i', 'origWidth': 410, 'origHeight': 411, 'width': 410, 'height': 411, 'widthPercent': 0.45, 'rescaleHeight': False, 'trialN': 75, 'loaded': True, 'loadedTime': 3096.7000000476837, 'positionName': 'RIGHT', 'positionCoords': [798.72, 226.5], 'bid': 3.21}]",104954.0,1669830701886,avocado,cherries,3.29,3.21,-0.08000000000000007,avocado,928.2000000476837,929,928.6000000238419,True,u,106387.0,1433.0,1669830703320,1434,HRV,HRV_0109,2022-11-30 17:53:55
76,"[{'imgObject': {}, 'id': 'blackbeanswithrice', 'src': '/static/foodstim60/blackbeanswithrice.jpg', 'key': 'u', 'origWidth': 410, 'origHeight': 410, 'width': 410, 'height': 410, 'widthPercent': 0.45, 'rescaleHeight': False, 'trialN': 76, 'loaded': True, 'loadedTime': 3202.400000035763, 'positionName': 'LEFT', 'positionCoords': [327.28, 227], 'bid': 0.26}, {'imgObject': {}, 'id': 'froot loops w milk', 'src': '/static/foodstim60/froot loops w milk.jpg', 'key': 'i', 'origWidth': 410, 'origHeight': 410, 'width': 410, 'height': 410, 'widthPercent': 0.45, 'rescaleHeight': False, 'trialN': 76, 'loaded': True, 'loadedTime': 3158.600000023842, 'positionName': 'RIGHT', 'positionCoords': [798.72, 227], 'bid': 0.15}]",106387.5,1669830703320,blackbeanswithrice,froot loops w milk,0.26,0.15,-0.11000000000000001,blackbeanswithrice,719.6000000238419,720,720.0,True,u,107618.80000001192,1231.300000011921,1669830704551,1231,HRV,HRV_0109,2022-11-30 17:53:55
77,"[{'imgObject': {}, 'id': 'mango', 'src': '/static/foodstim60/mango.jpg', 'key': 'u', 'origWidth': 411, 'origHeight': 411, 'width': 411, 'height': 411, 'widthPercent': 0.45, 'rescaleHeight': False, 'trialN': 77, 'loaded': True, 'loadedTime': 3113.7000000476837, 'positionName': 'LEFT', 'positionCoords': [326.28, 226.5], 'bid': 0.22}, {'imgObject': {}, 'id': 'mac & cheese', 'src': '/static/foodstim60/mac & cheese.jpg', 'key': 'i', 'origWidth': 410, 'origHeight': 410, 'width': 410, 'height': 410, 'widthPercent': 0.45, 'rescaleHeight': False, 'trialN': 77, 'loaded': True, 'loadedTime': 3046.100000023842, 'positionName': 'RIGHT', 'positionCoords': [798.72, 227], 'bid': 0.2}]",107619.20000004768,1669830704552,mango,mac & cheese,0.22,0.2,-0.01999999999999999,mango,719.5,720,719.8999999761581,True,u,108849.80000001192,1230.5999999642372,1669830705782,1230,HRV,HRV_0109,2022-11-30 17:53:55
78,"[{'imgObject': {}, 'id': 'luckycharms', 'src': '/static/foodstim60/luckycharms.jpg', 'key': 'u', 'origWidth': 410, 'origHeight': 409, 'width': 410, 'height': 409, 'widthPercent': 0.45, 'rescaleHeight': False, 'trialN': 78, 'loaded': True, 'loadedTime': 3109.100000023842, 'positionName': 'LEFT', 'positionCoords': [327.28, 227.5], 'bid': 0.15}, {'imgObject': {}, 'id': 'sweetpotato', 'src': '/static/foodstim60/sweetpotato.jpg', 'key': 'i', 'origWidth': 410, 'origHeight': 410, 'width': 410, 'height': 410, 'widthPercent': 0.45, 'rescaleHeight': False, 'trialN': 78, 'loaded': True, 'loadedTime': 3210.7000000476837, 'positionName': 'RIGHT', 'positionCoords': [798.72, 227], 'bid': 2.13}]",108850.20000004768,1669830705783,luckycharms,sweetpotato,0.15,2.13,1.98,sweetpotato,672.0999999642372,672,672.5999999642372,True,i,110033.0,1182.7999999523163,1669830706966,1183,HRV,HRV_0109,2022-11-30 17:53:55
79,"[{'imgObject': {}, 'id': 'Tribe humus pita', 'src': '/static/foodstim60/Tribe humus pita.jpg', 'key': 'u', 'origWidth': 411, 'origHeight': 411, 'width': 411, 'height': 411, 'widthPercent': 0.45, 'rescaleHeight': False, 'trialN': 79, 'loaded': True, 'loadedTime': 3209.900000035763, 'positionName': 'LEFT', 'positionCoords': [326.28, 226.5], 'bid': 0.1}, {'imgObject': {}, 'id': 'hashbrowns', 'src': '/static/foodstim60/hashbrowns.jpg', 'key': 'i', 'origWidth': 411, 'origHeight': 410, 'width': 411, 'height': 410, 'widthPercent': 0.45, 'rescaleHeight': False, 'trialN': 79, 'loaded': True, 'loadedTime': 3186.900000035763, 'positionName': 'RIGHT', 'positionCoords': [798.72, 227], 'bid': 0.13}]",110033.40000003576,1669830706966,Tribe humus pita,hashbrowns,0.1,0.13,0.03,Tribe humus pita,953,953,953.3999999761581,True,u,111498.30000001192,1464.8999999761581,1669830708431,1465,HRV,HRV_0109,2022-11-30 17:53:55
80,"[{'imgObject': {}, 'id': 'omelette', 'src': '/static/foodstim60/omelette.jpg', 'key': 'u', 'origWidth': 410, 'origHeight': 409, 'width': 410, 'height': 409, 'widthPercent': 0.45, 'rescaleHeight': False, 'trialN': 80, 'loaded': True, 'loadedTime': 3139.2000000476837, 'positionName': 'LEFT', 'positionCoords': [327.28, 227.5], 'bid': 0.4}, {'imgObject': {}, 'id': 'shreddedwheatwithmilk', 'src': '/static/foodstim60/shreddedwheatwithmilk.jpg', 'key': 'i', 'origWidth': 410, 'origHeight': 410, 'width': 410, 'height': 410, 'widthPercent': 0.45, 'rescaleHeight': False, 'trialN': 80, 'loaded': True, 'loadedTime': 3167.600000023842, 'positionName': 'RIGHT', 'positionCoords': [798.72, 227], 'bid': 0.33}]",111498.70000004768,1669830708431,omelette,shreddedwheatwithmilk,0.4,0.33,-0.07,omelette,607.8999999761581,609,608.5,True,u,112618.30000001192,1119.5999999642372,1669830709551,1120,HRV,HRV_0109,2022-11-30 17:53:55
81,"[{'imgObject': {}, 'id': 'kiwi', 'src': '/static/foodstim60/kiwi.jpg', 'key': 'u', 'origWidth': 410, 'origHeight': 410, 'width': 410, 'height': 410, 'widthPercent': 0.45, 'rescaleHeight': False, 'trialN': 81, 'loaded': True, 'loadedTime': 3207, 'positionName': 'LEFT', 'positionCoords': [327.28, 227], 'bid': 2.1}, {'imgObject': {}, 'id': 'burrito', 'src': '/static/foodstim60/burrito.jpg', 'key': 'i', 'origWidth': 410, 'origHeight': 410, 'width': 410, 'height': 410, 'widthPercent': 0.45, 'rescaleHeight': False, 'trialN': 81, 'loaded': True, 'loadedTime': 3048.900000035763, 'positionName': 'RIGHT', 'positionCoords': [798.72, 227], 'bid': 3.21}]",112618.60000002384,1669830709551,kiwi,burrito,2.1,3.21,1.1099999999999999,kiwi,615.6999999880791,616,616.1999999880791,True,u,113744.30000001192,1125.699999988079,1669830710677,1126,HRV,HRV_0109,2022-11-30 17:53:55
82,"[{'imgObject': {}, 'id': 'cheerios', 'src': '/static/foodstim60/cheerios.jpg', 'key': 'u', 'origWidth': 409, 'origHeight': 410, 'width': 409, 'height': 410, 'widthPercent': 0.45, 'rescaleHeight': False, 'trialN': 82, 'loaded': True, 'loadedTime': 3131.800000011921, 'positionName': 'LEFT', 'positionCoords': [328.28, 227], 'bid': 0.16}, {'imgObject': {}, 'id': 'hotdog w must', 'src': '/static/foodstim60/hotdog w must.jpg', 'key': 'i', 'origWidth': 409, 'origHeight': 409, 'width': 409, 'height': 409, 'widthPercent': 0.45, 'rescaleHeight': False, 'trialN': 82, 'loaded': True, 'loadedTime': 3201.7000000476837, 'positionName': 'RIGHT', 'positionCoords': [798.72, 227.5], 'bid': 0.35}]",113744.60000002384,1669830710677,cheerios,hotdog w must,0.16,0.35,0.18999999999999997,cheerios,1002.1999999880791,1003,1002.6000000238419,True,u,115256.0,1511.3999999761581,1669830712189,1512,HRV,HRV_0109,2022-11-30 17:53:55
83,"[{'imgObject': {}, 'id': 'froot loops w milk', 'src': '/static/foodstim60/froot loops w milk.jpg', 'key': 'u', 'origWidth': 410, 'origHeight': 410, 'width': 410, 'height': 410, 'widthPercent': 0.45, 'rescaleHeight': False, 'trialN': 83, 'loaded': True, 'loadedTime': 3158.300000011921, 'positionName': 'LEFT', 'positionCoords': [327.28, 227], 'bid': 0.15}, {'imgObject': {}, 'id': 'Grapes', 'src': '/static/foodstim60/Grapes.jpg', 'key': 'i', 'origWidth': 411, 'origHeight': 411, 'width': 411, 'height': 411, 'widthPercent': 0.45, 'rescaleHeight': False, 'trialN': 83, 'loaded': True, 'loadedTime': 3214.900000035763, 'positionName': 'RIGHT', 'positionCoords': [798.72, 226.5], 'bid': 1.82}]",115256.30000001192,1669830712189,froot loops w milk,Grapes,0.15,1.82,1.6700000000000002,Grapes,602,603,602.6999999880791,True,i,116365.30000001192,1109.0,1669830713298,1109,HRV,HRV_0109,2022-11-30 17:53:55
84,"[{'imgObject': {}, 'id': 'shreddedwheatwithmilk', 'src': '/static/foodstim60/shreddedwheatwithmilk.jpg', 'key': 'u', 'origWidth': 410, 'origHeight': 410, 'width': 410, 'height': 410, 'widthPercent': 0.45, 'rescaleHeight': False, 'trialN': 84, 'loaded': True, 'loadedTime': 3167.7000000476837, 'positionName': 'LEFT', 'positionCoords': [327.28, 227], 'bid': 0.33}, {'imgObject': {}, 'id': 'salad w chicken', 'src': '/static/foodstim60/salad w chicken.jpg', 'key': 'i', 'origWidth': 411, 'origHeight': 411, 'width': 411, 'height': 411, 'widthPercent': 0.45, 'rescaleHeight': False, 'trialN': 84, 'loaded': True, 'loadedTime': 3071.800000011921, 'positionName': 'RIGHT', 'positionCoords': [798.72, 226.5], 'bid': 6.78}]",116365.5,1669830713298,shreddedwheatwithmilk,salad w chicken,0.33,6.78,6.45,salad w chicken,532.3000000119209,533,532.9000000357628,True,i,117411.60000002384,1046.1000000238419,1669830714344,1046,HRV,HRV_0109,2022-11-30 17:53:55
85,"[{'imgObject': {}, 'id': 'eggs', 'src': '/static/foodstim60/eggs.jpg', 'key': 'u', 'origWidth': 409, 'origHeight': 409, 'width': 409, 'height': 409, 'widthPercent': 0.45, 'rescaleHeight': False, 'trialN': 85, 'loaded': True, 'loadedTime': 3215.2000000476837, 'positionName': 'LEFT', 'positionCoords': [328.28, 227.5], 'bid': 1.45}, {'imgObject': {}, 'id': 'burger', 'src': '/static/foodstim60/burger.jpg', 'key': 'i', 'origWidth': 409, 'origHeight': 409, 'width': 409, 'height': 409, 'widthPercent': 0.45, 'rescaleHeight': False, 'trialN': 85, 'loaded': True, 'loadedTime': 3122.100000023842, 'positionName': 'RIGHT', 'positionCoords': [798.72, 227.5], 'bid': 1.66}]",117411.90000003576,1669830714344,eggs,burger,1.45,1.66,0.20999999999999996,burger,590.3000000119209,591,590.8000000119209,True,i,118520.5,1108.5999999642372,1669830715453,1109,HRV,HRV_0109,2022-11-30 17:53:55
86,"[{'imgObject': {}, 'id': 'kiwi', 'src': '/static/foodstim60/kiwi.jpg', 'key': 'u', 'origWidth': 410, 'origHeight': 410, 'width': 410, 'height': 410, 'widthPercent': 0.45, 'rescaleHeight': False, 'trialN': 86, 'loaded': True, 'loadedTime': 3207.100000023842, 'positionName': 'LEFT', 'positionCoords': [327.28, 227], 'bid': 2.1}, {'imgObject': {}, 'id': 'steak', 'src': '/static/foodstim60/steak.jpg', 'key': 'i', 'origWidth': 410, 'origHeight': 410, 'width': 410, 'height': 410, 'widthPercent': 0.45, 'rescaleHeight': False, 'trialN': 86, 'loaded': True, 'loadedTime': 3208.2000000476837, 'positionName': 'RIGHT', 'positionCoords': [798.72, 227], 'bid': 5.72}]",118520.70000004768,1669830715453,kiwi,steak,2.1,5.72,3.6199999999999997,kiwi,546.7999999523163,548,547.2999999523163,True,u,119575.70000004768,1055.0,1669830716508,1055,HRV,HRV_0109,2022-11-30 17:53:55
87,"[{'imgObject': {}, 'id': 'hashbrowns', 'src': '/static/foodstim60/hashbrowns.jpg', 'key': 'u', 'origWidth': 411, 'origHeight': 410, 'width': 411, 'height': 410, 'widthPercent': 0.45, 'rescaleHeight': False, 'trialN': 87, 'loaded': True, 'loadedTime': 3187.100000023842, 'positionName': 'LEFT', 'positionCoords': [326.28, 227], 'bid': 0.13}, {'imgObject': {}, 'id': 'turkey sandwich', 'src': '/static/foodstim60/turkey sandwich.jpg', 'key': 'i', 'origWidth': 409, 'origHeight': 409, 'width': 409, 'height': 409, 'widthPercent': 0.45, 'rescaleHeight': False, 'trialN': 87, 'loaded': True, 'loadedTime': 3150.600000023842, 'positionName': 'RIGHT', 'positionCoords': [798.72, 227.5], 'bid': 1.66}]",119576.10000002384,1669830716509,hashbrowns,turkey sandwich,0.13,1.66,1.5299999999999998,turkey sandwich,666.6000000238419,666,666.6999999880791,True,i,120751.80000001192,1175.699999988079,1669830717684,1175,HRV,HRV_0109,2022-11-30 17:53:55
88,"[{'imgObject': {}, 'id': 'rigatoni', 'src': '/static/foodstim60/rigatoni.jpg', 'key': 'u', 'origWidth': 411, 'origHeight': 411, 'width': 411, 'height': 411, 'widthPercent': 0.45, 'rescaleHeight': False, 'trialN': 88, 'loaded': True, 'loadedTime': 3071.600000023842, 'positionName': 'LEFT', 'positionCoords': [326.28, 226.5], 'bid': 0.15}, {'imgObject': {}, 'id': 'kiwi', 'src': '/static/foodstim60/kiwi.jpg', 'key': 'i', 'origWidth': 410, 'origHeight': 410, 'width': 410, 'height': 410, 'widthPercent': 0.45, 'rescaleHeight': False, 'trialN': 88, 'loaded': True, 'loadedTime': 3206, 'positionName': 'RIGHT', 'positionCoords': [798.72, 227], 'bid': 2.1}]",120752.10000002384,1669830717685,rigatoni,kiwi,0.15,2.1,1.9500000000000002,kiwi,618.1000000238419,618,618.5,True,i,121880.20000004768,1128.1000000238419,1669830718813,1128,HRV,HRV_0109,2022-11-30 17:53:55
89,"[{'imgObject': {}, 'id': 'fried eggs', 'src': '/static/foodstim60/fried eggs.jpg', 'key': 'u', 'origWidth': 410, 'origHeight': 410, 'width': 410, 'height': 410, 'widthPercent': 0.45, 'rescaleHeight': False, 'trialN': 89, 'loaded': True, 'loadedTime': 3092.400000035763, 'positionName': 'LEFT', 'positionCoords': [327.28, 227], 'bid': 0.16}, {'imgObject': {}, 'id': 'rigatoni and sauce', 'src': '/static/foodstim60/rigatoni and sauce.jpg', 'key': 'i', 'origWidth': 410, 'origHeight': 411, 'width': 410, 'height': 411, 'widthPercent': 0.45, 'rescaleHeight': False, 'trialN': 89, 'loaded': True, 'loadedTime': 3105.2000000476837, 'positionName': 'RIGHT', 'positionCoords': [798.72, 226.5], 'bid': 0.18}]",121880.5,1669830718813,fried eggs,rigatoni and sauce,0.16,0.18,0.01999999999999999,fried eggs,633.7000000476837,634,634.2000000476837,True,u,123020.90000003576,1140.4000000357628,1669830719953,1140,HRV,HRV_0109,2022-11-30 17:53:55
90,"[{'imgObject': {}, 'id': 'granola w milk', 'src': '/static/foodstim60/granola w milk.jpg', 'key': 'u', 'origWidth': 410, 'origHeight': 410, 'width': 410, 'height': 410, 'widthPercent': 0.45, 'rescaleHeight': False, 'trialN': 90, 'loaded': True, 'loadedTime': 3192.7000000476837, 'positionName': 'LEFT', 'positionCoords': [327.28, 227], 'bid': 0.55}, {'imgObject': {}, 'id': 'cantaloupe', 'src': '/static/foodstim60/cantaloupe.jpg', 'key': 'i', 'origWidth': 409, 'origHeight': 409, 'width': 409, 'height': 409, 'widthPercent': 0.45, 'rescaleHeight': False, 'trialN': 90, 'loaded': True, 'loadedTime': 3203.400000035763, 'positionName': 'RIGHT', 'positionCoords': [798.72, 227.5], 'bid': 0.52}]",125266.10000002384,1669830722199,granola w milk,cantaloupe,0.55,0.52,-0.030000000000000027,NaN,NaN,NaN,,False,NaN,129281.5,4015.399999976158,1669830726214,4015,HRV,HRV_0109,2022-11-30 17:53:55
91,"[{'imgObject': {}, 'id': 'eggsalad', 'src': '/static/foodstim60/eggsalad.jpg', 'key': 'u', 'origWidth': 410, 'origHeight': 409, 'width': 410, 'height': 409, 'widthPercent': 0.45, 'rescaleHeight': False, 'trialN': 91, 'loaded': True, 'loadedTime': 3126.600000023842, 'positionName': 'LEFT', 'positionCoords': [327.28, 227.5], 'bid': 0.26}, {'imgObject': {}, 'id': 'mashed potato', 'src': '/static/foodstim60/mashed potato.jpg', 'key': 'i', 'origWidth': 409, 'origHeight': 409, 'width': 409, 'height': 409, 'widthPercent': 0.45, 'rescaleHeight': False, 'trialN': 91, 'loaded': True, 'loadedTime': 3145.5, 'positionName': 'RIGHT', 'positionCoords': [798.72, 227.5], 'bid': 0.26}]",129281.90000003576,1669830726214,eggsalad,mashed potato,0.26,0.26,0.0,NaN,NaN,NaN,,False,NaN,133307.0,4025.099999964237,1669830730240,4026,HRV,HRV_0109,2022-11-30 17:53:55
92,"[{'imgObject': {}, 'id': 'strawberries', 'src': '/static/foodstim60/strawberries.jpg', 'key': 'u', 'origWidth': 410, 'origHeight': 410, 'width': 410, 'height': 410, 'widthPercent': 0.45, 'rescaleHeight': False, 'trialN': 92, 'loaded': True, 'loadedTime': 3194.600000023842, 'positionName': 'LEFT', 'positionCoords': [327.28, 227], 'bid': 3.5500000000000003}, {'imgObject': {}, 'id': 'eggs', 'src': '/static/foodstim60/eggs.jpg', 'key': 'i', 'origWidth': 409, 'origHeight': 409, 'width': 409, 'height': 409, 'widthPercent': 0.45, 'rescaleHeight': False, 'trialN': 92, 'loaded': True, 'loadedTime': 3215.7000000476837, 'positionName': 'RIGHT', 'positionCoords': [798.72, 227.5], 'bid': 1.45}]",133307.30000001192,1669830730240,strawberries,eggs,3.5500000000000003,1.45,-2.1000000000000005,strawberries,598.9000000357628,599,599.5,True,u,134410.40000003576,1103.1000000238419,1669830731343,1103,HRV,HRV_0109,2022-11-30 17:53:55
93,"[{'imgObject': {}, 'id': 'olives', 'src': '/static/foodstim60/olives.jpg', 'key': 'u', 'origWidth': 410, 'origHeight': 410, 'width': 410, 'height': 410, 'widthPercent': 0.45, 'rescaleHeight': False, 'trialN': 93, 'loaded': True, 'loadedTime': 3032.600000023842, 'positionName': 'LEFT', 'positionCoords': [327.28, 227], 'bid': 0.15}, {'imgObject': {}, 'id': 'rigatoni', 'src': '/static/foodstim60/rigatoni.jpg', 'key': 'i', 'origWidth': 411, 'origHeight': 411, 'width': 411, 'height': 411, 'widthPercent': 0.45, 'rescaleHeight': False, 'trialN': 93, 'loaded': True, 'loadedTime': 3071.600000023842, 'positionName': 'RIGHT', 'positionCoords': [798.72, 226.5], 'bid': 0.15}]",134410.70000004768,1669830731343,olives,rigatoni,0.15,0.15,0.0,olives,727.5,728,728.0999999642372,True,u,135655.5,1244.7999999523163,1669830732588,1245,HRV,HRV_0109,2022-11-30 17:53:55
94,"[{'imgObject': {}, 'id': 'omelette', 'src': '/static/foodstim60/omelette.jpg', 'key': 'u', 'origWidth': 410, 'origHeight': 409, 'width': 410, 'height': 409, 'widthPercent': 0.45, 'rescaleHeight': False, 'trialN': 94, 'loaded': True, 'loadedTime': 3136.600000023842, 'positionName': 'LEFT', 'positionCoords': [327.28, 227.5], 'bid': 0.4}, {'imgObject': {}, 'id': 'pear', 'src': '/static/foodstim60/pear.jpg', 'key': 'i', 'origWidth': 411, 'origHeight': 410, 'width': 411, 'height': 410, 'widthPercent': 0.45, 'rescaleHeight': False, 'trialN': 94, 'loaded': True, 'loadedTime': 3130.400000035763, 'positionName': 'RIGHT', 'positionCoords': [798.72, 227], 'bid': 0.49}]",135655.70000004768,1669830732588,omelette,pear,0.4,0.49,0.08999999999999997,omelette,506.7999999523163,507,507.19999998807907,True,u,136680.10000002384,1024.3999999761581,1669830733613,1025,HRV,HRV_0109,2022-11-30 17:53:55
95,"[{'imgObject': {}, 'id': 'rigatoni and sauce', 'src': '/static/foodstim60/rigatoni and sauce.jpg', 'key': 'u', 'origWidth': 410, 'origHeight': 411, 'width': 410, 'height': 411, 'widthPercent': 0.45, 'rescaleHeight': False, 'trialN': 95, 'loaded': True, 'loadedTime': 3104.600000023842, 'positionName': 'LEFT', 'positionCoords': [327.28, 226.5], 'bid': 0.18}, {'imgObject': {}, 'id': 'eggsalad', 'src': '/static/foodstim60/eggsalad.jpg', 'key': 'i', 'origWidth': 410, 'origHeight': 409, 'width': 410, 'height': 409, 'widthPercent': 0.45, 'rescaleHeight': False, 'trialN': 95, 'loaded': True, 'loadedTime': 3126.900000035763, 'positionName': 'RIGHT', 'positionCoords': [798.72, 227.5], 'bid': 0.26}]",136680.30000001192,1669830733613,rigatoni and sauce,eggsalad,0.18,0.26,0.08000000000000002,rigatoni and sauce,690,690,690.5,True,u,137878.80000001192,1198.5,1669830734811,1198,HRV,HRV_0109,2022-11-30 17:53:55
96,"[{'imgObject': {}, 'id': 'edamame', 'src': '/static/foodstim60/edamame.jpg', 'key': 'u', 'origWidth': 409, 'origHeight': 410, 'width': 409, 'height': 410, 'widthPercent': 0.45, 'rescaleHeight': False, 'trialN': 96, 'loaded': True, 'loadedTime': 3183.7000000476837, 'positionName': 'LEFT', 'positionCoords': [328.28, 227], 'bid': 3.86}, {'imgObject': {}, 'id': 'turkey sandwich', 'src': '/static/foodstim60/turkey sandwich.jpg', 'key': 'i', 'origWidth': 409, 'origHeight': 409, 'width': 409, 'height': 409, 'widthPercent': 0.45, 'rescaleHeight': False, 'trialN': 96, 'loaded': True, 'loadedTime': 3153.2000000476837, 'positionName': 'RIGHT', 'positionCoords': [798.72, 227.5], 'bid': 1.66}]",137879.0,1669830734812,edamame,turkey sandwich,3.86,1.66,-2.2,edamame,554.2000000476837,554,554.4000000357628,True,u,138950.20000004768,1071.2000000476837,1669830735883,1071,HRV,HRV_0109,2022-11-30 17:53:55
97,"[{'imgObject': {}, 'id': 'baked potato', 'src': '/static/foodstim60/baked potato.jpg', 'key': 'u', 'origWidth': 409, 'origHeight': 410, 'width': 409, 'height': 410, 'widthPercent': 0.45, 'rescaleHeight': False, 'trialN': 97, 'loaded': True, 'loadedTime': 3188, 'positionName': 'LEFT', 'positionCoords': [328.28, 227], 'bid': 0.29}, {'imgObject': {}, 'id': 'eggs', 'src': '/static/foodstim60/eggs.jpg', 'key': 'i', 'origWidth': 409, 'origHeight': 409, 'width': 409, 'height': 409, 'widthPercent': 0.45, 'rescaleHeight': False, 'trialN': 97, 'loaded': True, 'loadedTime': 3215.900000035763, 'positionName': 'RIGHT', 'positionCoords': [798.72, 227.5], 'bid': 1.45}]",138950.40000003576,1669830735883,baked potato,eggs,0.29,1.45,1.16,baked potato,683,683,683.0999999642372,True,u,140148.70000004768,1198.300000011921,1669830737081,1198,HRV,HRV_0109,2022-11-30 17:53:55
98,"[{'imgObject': {}, 'id': 'popsicles', 'src': '/static/foodstim60/popsicles.jpg', 'key': 'u', 'origWidth': 410, 'origHeight': 410, 'width': 410, 'height': 410, 'widthPercent': 0.45, 'rescaleHeight': False, 'trialN': 98, 'loaded': True, 'loadedTime': 3053.7000000476837, 'positionName': 'LEFT', 'positionCoords': [327.28, 227], 'bid': 0.26}, {'imgObject': {}, 'id': 'apple slices', 'src': '/static/foodstim60/apple slices.jpg', 'key': 'i', 'origWidth': 409, 'origHeight': 410, 'width': 409, 'height': 410, 'widthPercent': 0.45, 'rescaleHeight': False, 'trialN': 98, 'loaded': True, 'loadedTime': 3149.300000011921, 'positionName': 'RIGHT', 'positionCoords': [798.72, 227], 'bid': 0.13}]",140148.90000003576,1669830737081,popsicles,apple slices,0.26,0.13,-0.13,apple slices,917.3999999761581,918,918.0,True,i,141581.20000004768,1432.300000011921,1669830738514,1433,HRV,HRV_0109,2022-11-30 17:53:55
99,"[{'imgObject': {}, 'id': 'cherry tomato', 'src': '/static/foodstim60/cherry tomato.jpg', 'key': 'u', 'origWidth': 410, 'origHeight': 410, 'width': 410, 'height': 410, 'widthPercent': 0.45, 'rescaleHeight': False, 'trialN': 99, 'loaded': True, 'loadedTime': 3159.5, 'positionName': 'LEFT', 'positionCoords': [327.28, 227], 'bid': 2.17}, {'imgObject': {}, 'id': 'turkey sandwich', 'src': '/static/foodstim60/turkey sandwich.jpg', 'key': 'i', 'origWidth': 409, 'origHeight': 409, 'width': 409, 'height': 409, 'widthPercent': 0.45, 'rescaleHeight': False, 'trialN': 99, 'loaded': True, 'loadedTime': 3153.5, 'positionName': 'RIGHT', 'positionCoords': [798.72, 227.5], 'bid': 1.66}]",141581.40000003576,1669830738514,cherry tomato,turkey sandwich,2.17,1.66,-0.51,turkey sandwich,805.1999999880791,806,805.8999999761581,True,i,142902.60000002384,1321.199999988079,1669830739835,1321,HRV,HRV_0109,2022-11-30 17:53:55
100,"[{'imgObject': {}, 'id': 'eggsalad', 'src': '/static/foodstim60/eggsalad.jpg', 'key': 'u', 'origWidth': 410, 'origHeight': 409, 'width': 410, 'height': 409, 'widthPercent': 0.45, 'rescaleHeight': False, 'trialN': 100, 'loaded': True, 'loadedTime': 3126.400000035763, 'positionName': 'LEFT', 'positionCoords': [327.28, 227.5], 'bid': 0.26}, {'imgObject': {}, 'id': 'edamame', 'src': '/static/foodstim60/edamame.jpg', 'key': 'i', 'origWidth': 409, 'origHeight': 410, 'width': 409, 'height': 410, 'widthPercent': 0.45, 'rescaleHeight': False, 'trialN': 100, 'loaded': True, 'loadedTime': 3178.900000035763, 'positionName': 'RIGHT', 'positionCoords': [798.72, 227], 'bid': 3.86}]",142903.0,1669830739835,eggsalad,edamame,0.26,3.86,3.5999999999999996,edamame,627.8000000119209,629,628.3000000119209,True,i,144046.90000003576,1143.9000000357628,1669830740979,1144,HRV,HRV_0109,2022-11-30 17:53:55
101,"[{'imgObject': {}, 'id': 'sweetpotato', 'src': '/static/foodstim60/sweetpotato.jpg', 'key': 'u', 'origWidth': 410, 'origHeight': 410, 'width': 410, 'height': 410, 'widthPercent': 0.45, 'rescaleHeight': False, 'trialN': 101, 'loaded': True, 'loadedTime': 3210.600000023842, 'positionName': 'LEFT', 'positionCoords': [327.28, 227], 'bid': 2.13}, {'imgObject': {}, 'id': 'avocado', 'src': '/static/foodstim60/avocado.jpg', 'key': 'i', 'origWidth': 409, 'origHeight': 409, 'width': 409, 'height': 409, 'widthPercent': 0.45, 'rescaleHeight': False, 'trialN': 101, 'loaded': True, 'loadedTime': 3200.5, 'positionName': 'RIGHT', 'positionCoords': [798.72, 227.5], 'bid': 3.29}]",144047.20000004768,1669830740980,sweetpotato,avocado,2.13,3.29,1.1600000000000001,sweetpotato,747.7999999523163,748,748.0999999642372,True,u,145307.60000002384,1260.3999999761581,1669830742240,1260,HRV,HRV_0109,2022-11-30 17:53:55
102,"[{'imgObject': {}, 'id': 'cheerios', 'src': '/static/foodstim60/cheerios.jpg', 'key': 'u', 'origWidth': 409, 'origHeight': 410, 'width': 409, 'height': 410, 'widthPercent': 0.45, 'rescaleHeight': False, 'trialN': 102, 'loaded': True, 'loadedTime': 3131.600000023842, 'positionName': 'LEFT', 'positionCoords': [328.28, 227], 'bid': 0.16}, {'imgObject': {}, 'id': 'blueberries', 'src': '/static/foodstim60/blueberries.jpg', 'key': 'i', 'origWidth': 411, 'origHeight': 411, 'width': 411, 'height': 411, 'widthPercent': 0.45, 'rescaleHeight': False, 'trialN': 102, 'loaded': True, 'loadedTime': 3139.600000023842, 'positionName': 'RIGHT', 'positionCoords': [798.72, 226.5], 'bid': 2.89}]",145307.70000004768,1669830742240,cheerios,blueberries,0.16,2.89,2.73,blueberries,798.5,799,798.8999999761581,True,i,146614.30000001192,1306.5999999642372,1669830743547,1307,HRV,HRV_0109,2022-11-30 17:53:55
103,"[{'imgObject': {}, 'id': 'fried eggs', 'src': '/static/foodstim60/fried eggs.jpg', 'key': 'u', 'origWidth': 410, 'origHeight': 410, 'width': 410, 'height': 410, 'widthPercent': 0.45, 'rescaleHeight': False, 'trialN': 103, 'loaded': True, 'loadedTime': 3095.7000000476837, 'positionName': 'LEFT', 'positionCoords': [327.28, 227], 'bid': 0.16}, {'imgObject': {}, 'id': 'bagel and cc', 'src': '/static/foodstim60/bagel and cc.jpg', 'key': 'i', 'origWidth': 410, 'origHeight': 410, 'width': 410, 'height': 410, 'widthPercent': 0.45, 'rescaleHeight': False, 'trialN': 103, 'loaded': True, 'loadedTime': 3177.600000023842, 'positionName': 'RIGHT', 'positionCoords': [798.72, 227], 'bid': 0.16}]",146614.5,1669830743547,fried eggs,bagel and cc,0.16,0.16,0.0,fried eggs,659.8000000119209,660,660.3000000119209,True,u,147782.90000003576,1168.4000000357628,1669830744715,1168,HRV,HRV_0109,2022-11-30 17:53:55
104,"[{'imgObject': {}, 'id': 'blackbeanswithrice', 'src': '/static/foodstim60/blackbeanswithrice.jpg', 'key': 'u', 'origWidth': 410, 'origHeight': 410, 'width': 410, 'height': 410, 'widthPercent': 0.45, 'rescaleHeight': False, 'trialN': 104, 'loaded': True, 'loadedTime': 3202.600000023842, 'positionName': 'LEFT', 'positionCoords': [327.28, 227], 'bid': 0.26}, {'imgObject': {}, 'id': 'fried eggs', 'src': '/static/foodstim60/fried eggs.jpg', 'key': 'i', 'origWidth': 410, 'origHeight': 410, 'width': 410, 'height': 410, 'widthPercent': 0.45, 'rescaleHeight': False, 'trialN': 104, 'loaded': True, 'loadedTime': 3095.2000000476837, 'positionName': 'RIGHT', 'positionCoords': [798.72, 227], 'bid': 0.16}]",147783.5,1669830744716,blackbeanswithrice,fried eggs,0.26,0.16,-0.1,blackbeanswithrice,722.9000000357628,723,723.2000000476837,True,u,149020.70000004768,1237.2000000476837,1669830745953,1237,HRV,HRV_0109,2022-11-30 17:53:55
105,"[{'imgObject': {}, 'id': 'cheerios', 'src': '/static/foodstim60/cheerios.jpg', 'key': 'u', 'origWidth': 409, 'origHeight': 410, 'width': 409, 'height': 410, 'widthPercent': 0.45, 'rescaleHeight': False, 'trialN': 105, 'loaded': True, 'loadedTime': 3135, 'positionName': 'LEFT', 'positionCoords': [328.28, 227], 'bid': 0.16}, {'imgObject': {}, 'id': 'Tribe humus pita', 'src': '/static/foodstim60/Tribe humus pita.jpg', 'key': 'i', 'origWidth': 411, 'origHeight': 411, 'width': 411, 'height': 411, 'widthPercent': 0.45, 'rescaleHeight': False, 'trialN': 105, 'loaded': True, 'loadedTime': 3210, 'positionName': 'RIGHT', 'positionCoords': [798.72, 226.5], 'bid': 0.1}]",149021.0,1669830745953,cheerios,Tribe humus pita,0.16,0.1,-0.06,cheerios,1078,1079,1078.5,True,u,150605.60000002384,1584.6000000238419,1669830747538,1585,HRV,HRV_0109,2022-11-30 17:53:55
106,"[{'imgObject': {}, 'id': 'veggieswithdip', 'src': '/static/foodstim60/veggieswithdip.jpg', 'key': 'u', 'origWidth': 409, 'origHeight': 409, 'width': 409, 'height': 409, 'widthPercent': 0.45, 'rescaleHeight': False, 'trialN': 106, 'loaded': True, 'loadedTime': 3178.7000000476837, 'positionName': 'LEFT', 'positionCoords': [328.28, 227.5], 'bid': 4.7700000000000005}, {'imgObject': {}, 'id': 'salmon', 'src': '/static/foodstim60/salmon.jpg', 'key': 'i', 'origWidth': 410, 'origHeight': 409, 'width': 410, 'height': 409, 'widthPercent': 0.45, 'rescaleHeight': False, 'trialN': 106, 'loaded': True, 'loadedTime': 3172.800000011921, 'positionName': 'RIGHT', 'positionCoords': [798.72, 227.5], 'bid': 5.65}]",150605.90000003576,1669830747538,veggieswithdip,salmon,4.7700000000000005,5.65,0.8799999999999999,veggieswithdip,644.3999999761581,645,644.8000000119209,True,u,151757.60000002384,1151.699999988079,1669830748690,1152,HRV,HRV_0109,2022-11-30 17:53:55
107,"[{'imgObject': {}, 'id': 'olives', 'src': '/static/foodstim60/olives.jpg', 'key': 'u', 'origWidth': 410, 'origHeight': 410, 'width': 410, 'height': 410, 'widthPercent': 0.45, 'rescaleHeight': False, 'trialN': 107, 'loaded': True, 'loadedTime': 3032.400000035763, 'positionName': 'LEFT', 'positionCoords': [327.28, 227], 'bid': 0.15}, {'imgObject': {}, 'id': 'froot loops w milk', 'src': '/static/foodstim60/froot loops w milk.jpg', 'key': 'i', 'origWidth': 410, 'origHeight': 410, 'width': 410, 'height': 410, 'widthPercent': 0.45, 'rescaleHeight': False, 'trialN': 107, 'loaded': True, 'loadedTime': 3158.5, 'positionName': 'RIGHT', 'positionCoords': [798.72, 227], 'bid': 0.15}]",151757.90000003576,1669830748690,olives,froot loops w milk,0.15,0.15,0.0,olives,740.5,741,741.0,True,u,153015.90000003576,1258.0,1669830749948,1258,HRV,HRV_0109,2022-11-30 17:53:55
108,"[{'imgObject': {}, 'id': 'chicken nuggets2', 'src': '/static/foodstim60/chicken nuggets2.jpg', 'key': 'u', 'origWidth': 410, 'origHeight': 409, 'width': 410, 'height': 409, 'widthPercent': 0.45, 'rescaleHeight': False, 'trialN': 108, 'loaded': True, 'loadedTime': 3167.7000000476837, 'positionName': 'LEFT', 'positionCoords': [327.28, 227.5], 'bid': 0.1}, {'imgObject': {}, 'id': 'burger', 'src': '/static/foodstim60/burger.jpg', 'key': 'i', 'origWidth': 409, 'origHeight': 409, 'width': 409, 'height': 409, 'widthPercent': 0.45, 'rescaleHeight': False, 'trialN': 108, 'loaded': True, 'loadedTime': 3121.800000011921, 'positionName': 'RIGHT', 'positionCoords': [798.72, 227.5], 'bid': 1.66}]",153016.10000002384,1669830749949,chicken nuggets2,burger,0.1,1.66,1.5599999999999998,burger,1370.699999988079,1371,1371.199999988079,True,i,154893.30000001192,1877.199999988079,1669830751826,1877,HRV,HRV_0109,2022-11-30 17:53:55
