success,trial_type,trial_index,time_elapsed,internal_node_id,Block,TrialNumber,TrialTime,trialTimeDiff,FPS_avg,FPS_med,FPS_mode,TrialDur,winResizeTime,rt,block,button_pressed,MotCoh,MotDir,ColCoh,Color,ChoiceKey,Choice,Accuracy,RT,nFrames,FPS,PPD,missTrial,missTrialMsg,onsetDelay,fullScreenExitTime,canvCenter,TrialType,Score,BlockTrial,stimulus,button_labels,exp,subjectId,date
True,fullscreen,0,1162,0.0-0.0,0.0,1.0,,,,,,,,,,,,,,,,,,,,,,,,,,,,,,,,HRV,HRV_0109,2022-11-30 18:03:37
,wl-check-fps,1,6149,0.0-1.0,0.0,2.0,"[1518.8, 1521, 1538.3, 1554.5, 1571.1, 1587.9, 1604.7, 1621.4, 1638, 1655, 1671.2, 1688.2, 1705.2, 1721.4, 1738.2, 1754.8, 1771.6, 1787.7, 1804.2, 1820.9, 1837.8, 1854.4, 1871, 1887.8, 1905.2, 1921, 1937.7, 1954.4, 1970.9, 1988.1, 2004.1, 2021, 2037.8, 2054.6, 2071.2, 2087.8, 2104.5, 2120.9, 2137.2, 2154.1, 2171.2, 2187.5, 2204.1, 2221, 2237.8, 2254.1, 2270.3, 2287.4, 2304, 2320.7, 2337.5, 2354, 2371.2, 2387.9, 2403.6, 2420.2, 2437.6, 2454, 2470.9, 2486.9, 2503.8, 2520.4, 2537, 2553.9, 2570.3, 2587, 2603.7, 2620.4, 2637.1, 2653.7, 2670.5, 2686.9, 2703.8, 2720.2, 2736.9, 2753.6, 2770.2, 2786.9, 2803.5, 2820.1, 2836.8, 2853.2, 2870.2, 2886.8, 2903.5, 2920.1, 2936.8, 2953.4, 2970, 2986.7, 3003.3, 3020, 3036.8, 3053.3, 3069.8, 3086.7, 3103.2, 3119.9, 3136.8, 3153.1, 3169.6, 3186.3, 3203.2, 3219.8, 3236.6, 3253.1, 3269.7, 3286.2, 3303.1, 3319.8, 3336.4, 3353.1, 3369.5, 3385.9, 3402.8, 3419.7, 3436, 3452.9, 3469.6, 3486.2, 3503, 3519.5, 3536.2, 3553, 3569.6, 3586.2, 3602.6, 3619.2, 3635.8, 3652.8, 3669.3, 3686, 3702.7, 3719.4, 3736, 3752.6, 3769.3, 3786, 3802.7, 3819.3, 3835.9, 3852.7, 3869, 3885.6, 3902.5, 3919.2, 3935.9, 3952.5, 3969.1, 3985.8, 4002.5, 4019.3, 4035.5, 4052.3, 4068.9, 4085.7, 4102.4, 4119, 4135.6, 4152.2, 4168.7, 4185.4, 4202.3, 4218.9, 4235.7, 4252.2, 4269, 4285.6, 4302.3, 4318.7, 4335.3, 4352.2, 4369.2, 4385.5, 4401.9, 4418.7, 4435.5, 4451.8, 4468.9, 4485.4, 4502, 4518.7, 4535.3, 4551.9, 4568.5, 4585.2, 4601.8, 4618.4, 4635, 4651.5, 4668.5, 4685.2, 4701.8, 4718.4, 4735.3, 4751.7, 4768.4, 4785.1, 4801.7, 4818.4, 4834.9, 4851.6, 4868.2, 4884.9, 4901.5, 4918.2, 4934.9, 4951.6, 4968.1, 4985, 5001.5, 5018.2, 5034.9, 5051.4, 5067.8, 5084.9, 5101.6, 5118.1, 5134.8, 5151.3, 5168.1, 5184.8, 5201, 5217.9, 5234.8, 5251.2, 5268, 5284.7, 5301.2, 5317.9, 5334.3, 5351.2, 5368.1, 5384.5, 5401.2, 5417.8, 5434.5, 5451.1, 5467.5, 5484.2, 5500.7, 5517.8, 5534.3, 5551, 5567.6, 5584.3, 5601.1, 5617.6, 5634.5, 5650.9, 5667.4, 5684.2, 5700.9, 5717.5, 5734.1, 5750.9, 5767.4, 5783.9, 5800.8, 5817.6, 5834.1, 5850.8, 5867.4, 5884.1, 5900.7, 5917, 5933.7, 5950.6, 5967.2, 5983.7, 6000.5, 6017.2, 6033.9, 6050.5, 6067.2, 6083.7, 6100.1, 6117.2, 6133.8, 6150.4, 6167, 6183.7, 6200.4, 6216.8, 6233.5, 6250.2, 6267.1, 6283.6, 6300.3, 6317.1, 6333.8, 6350, 6366.7, 6383.4, 6400.2, 6416.9, 6433.5, 6450.2, 6466.8, 6483.4]","[0.7, 2.2, 17.3, 16.2, 16.6, 16.8, 16.8, 16.7, 16.6, 17, 16.2, 17, 17, 16.2, 16.8, 16.6, 16.8, 16.1, 16.5, 16.7, 16.9, 16.6, 16.6, 16.8, 17.4, 15.8, 16.7, 16.7, 16.5, 17.2, 16, 16.9, 16.8, 16.8, 16.6, 16.6, 16.7, 16.4, 16.3, 16.9, 17.1, 16.3, 16.6, 16.9, 16.8, 16.3, 16.2, 17.1, 16.6, 16.7, 16.8, 16.5, 17.2, 16.7, 15.7, 16.6, 17.4, 16.4, 16.9, 16, 16.9, 16.6, 16.6, 16.9, 16.4, 16.7, 16.7, 16.7, 16.7, 16.6, 16.8, 16.4, 16.9, 16.4, 16.7, 16.7, 16.6, 16.7, 16.6, 16.6, 16.7, 16.4, 17, 16.6, 16.7, 16.6, 16.7, 16.6, 16.6, 16.7, 16.6, 16.7, 16.8, 16.5, 16.5, 16.9, 16.5, 16.7, 16.9, 16.3, 16.5, 16.7, 16.9, 16.6, 16.8, 16.5, 16.6, 16.5, 16.9, 16.7, 16.6, 16.7, 16.4, 16.4, 16.9, 16.9, 16.3, 16.9, 16.7, 16.6, 16.8, 16.5, 16.7, 16.8, 16.6, 16.6, 16.4, 16.6, 16.6, 17, 16.5, 16.7, 16.7, 16.7, 16.6, 16.6, 16.7, 16.7, 16.7, 16.6, 16.6, 16.8, 16.3, 16.6, 16.9, 16.7, 16.7, 16.6, 16.6, 16.7, 16.7, 16.8, 16.2, 16.8, 16.6, 16.8, 16.7, 16.6, 16.6, 16.6, 16.5, 16.7, 16.9, 16.6, 16.8, 16.5, 16.8, 16.6, 16.7, 16.4, 16.6, 16.9, 17, 16.3, 16.4, 16.8, 16.8, 16.3, 17.1, 16.5, 16.6, 16.7, 16.6, 16.6, 16.6, 16.7, 16.6, 16.6, 16.6, 16.5, 17, 16.7, 16.6, 16.6, 16.9, 16.4, 16.7, 16.7, 16.6, 16.7, 16.5, 16.7, 16.6, 16.7, 16.6, 16.7, 16.7, 16.7, 16.5, 16.9, 16.5, 16.7, 16.7, 16.5, 16.4, 17.1, 16.7, 16.5, 16.7, 16.5, 16.8, 16.7, 16.2, 16.9, 16.9, 16.4, 16.8, 16.7, 16.5, 16.7, 16.4, 16.9, 16.9, 16.4, 16.7, 16.6, 16.7, 16.6, 16.4, 16.7, 16.5, 17.1, 16.5, 16.7, 16.6, 16.7, 16.8, 16.5, 16.9, 16.4, 16.5, 16.8, 16.7, 16.6, 16.6, 16.8, 16.5, 16.5, 16.9, 16.8, 16.5, 16.7, 16.6, 16.7, 16.6, 16.3, 16.7, 16.9, 16.6, 16.5, 16.8, 16.7, 16.7, 16.6, 16.7, 16.5, 16.4, 17.1, 16.6, 16.6, 16.6, 16.7, 16.7, 16.4, 16.7, 16.7, 16.9, 16.5, 16.7, 16.8, 16.7, 16.2, 16.7, 16.7, 16.8, 16.7, 16.6, 16.7, 16.6, 16.6]",60.0,60.0,60.0,4982.1,[],,,,,,,,,,,,,,,,,,,,,,,,,HRV,HRV_0109,2022-11-30 18:03:37
,wl-html-keyboard-response,2,17751,0.0-2.0-0.0,0.0,3.0,,,,,,,,9579.899999976158,0.0,0,,,,,,,,,,,,,,,,,,,,,,HRV,HRV_0109,2022-11-30 18:03:37
,wl-rdm,3,25395,0.0-3.0-0.0,0.0,4.0,,,,,,,[],,,,0.0,0.0,87.9,0.0,u,0.0,True,2035.9000000357628,123.0,60.0,40.0,False,,3000.0,[],"[768, 432]",ColorTask_Demo,,,,,HRV,HRV_0109,2022-11-30 18:03:37
,wl-rdm,4,30839,0.0-3.0-1.0,0.0,5.0,,,,,,,[],,,,0.0,0.0,87.9,1.0,i,1.0,True,1358.5000000596046,82.0,60.0,40.0,False,,2000.0,[],"[768, 432]",ColorTask_Demo,,,,,HRV,HRV_0109,2022-11-30 18:03:37
,wl-html-keyboard-response,5,34234,0.0-3.0-2.0,0.0,6.0,,,,,,,,1368.0,0.0,1,,,,,,,,,,,,,,,,,,,,,,HRV,HRV_0109,2022-11-30 18:03:37
,wl-html-keyboard-response,6,41978,0.0-4.0-0.0,0.0,7.0,,,,,,,,5720.0,0.0,0,,,,,,,,,,,,,,,,,,,,,,HRV,HRV_0109,2022-11-30 18:03:37
,wl-html-keyboard-response,7,54955,0.0-5.0-0.0,0.0,8.0,,,,,,,,10966.699999988079,0.0,0,,,,,,,,,,,,,,,,,,,,,,HRV,HRV_0109,2022-11-30 18:03:37
,wl-rdm,8,58497,0.0-6.0-0.0,0.0,9.0,,,,,,,[],,,,,,73.6,0.0,u,0.0,True,2232.7000000476837,135.0,60.0,40.0,False,,228.15835223677013,[],"[768, 432]",ColorTask,1.0,1.0,,,HRV,HRV_0109,2022-11-30 18:03:37
,wl-rdm,9,61628,0.0-6.1-0.1,0.0,10.0,,,,,,,[],,,,,,73.6,1.0,i,1.0,True,1772.199999988079,107.0,60.0,40.0,False,,273.4136536109475,[],"[768, 432]",ColorTask,2.0,2.0,,,HRV,HRV_0109,2022-11-30 18:03:37
,wl-rdm,10,63542,0.0-6.2-0.2,0.0,11.0,,,,,,,[],,,,,,73.6,1.0,i,1.0,True,622.5,38.0,60.0,40.0,False,,200.70801667011017,[],"[768, 432]",ColorTask,3.0,3.0,,,HRV,HRV_0109,2022-11-30 18:03:37
,wl-rdm,11,65907,0.0-6.3-0.3,0.0,12.0,,,,,,,[],,,,,,50.0,0.0,u,0.0,True,939.6000000238419,57.0,60.0,40.0,False,,339.320357590452,[],"[768, 432]",ColorTask,4.0,4.0,,,HRV,HRV_0109,2022-11-30 18:03:37
,wl-rdm,12,68421,0.0-6.4-0.4,0.0,13.0,,,,,,,[],,,,,,73.6,0.0,u,0.0,True,1186.199999988079,72.0,60.0,40.0,False,,246.8106896056372,[],"[768, 432]",ColorTask,5.0,5.0,,,HRV,HRV_0109,2022-11-30 18:03:37
,wl-rdm,13,70669,0.0-6.5-0.5,0.0,14.0,,,,,,,[],,,,,,62.5,1.0,i,1.0,True,922.5000000596046,56.0,60.0,40.0,False,,246.01971517917414,[],"[768, 432]",ColorTask,6.0,6.0,,,HRV,HRV_0109,2022-11-30 18:03:37
,wl-rdm,14,73250,0.0-6.6-0.6,0.0,15.0,,,,,,,[],,,,,,50.0,1.0,i,1.0,True,1268.800000011921,77.0,60.0,40.0,False,,223.4177656843507,[],"[768, 432]",ColorTask,7.0,7.0,,,HRV,HRV_0109,2022-11-30 18:03:37
,wl-rdm,15,75648,0.0-6.7-0.7,0.0,16.0,,,,,,,[],,,,,,50.0,0.0,i,1.0,False,1043.199999988079,63.0,60.0,40.0,False,,282.4395081457247,[],"[768, 432]",ColorTask,6.0,8.0,,,HRV,HRV_0109,2022-11-30 18:03:37
,wl-rdm,16,78046,0.0-6.8-0.8,0.0,17.0,,,,,,,[],,,,,,56.4,1.0,i,1.0,True,1095.7000000476837,66.0,60.0,40.0,False,,217.10196618852157,[],"[768, 432]",ColorTask,7.0,9.0,,,HRV,HRV_0109,2022-11-30 18:03:37
,wl-rdm,17,80193,0.0-6.9-0.9,0.0,18.0,,,,,,,[],,,,,,56.4,0.0,u,0.0,True,740.6999999880791,45.0,60.0,40.0,False,,322.01769486086494,[],"[768, 432]",ColorTask,8.0,10.0,,,HRV,HRV_0109,2022-11-30 18:03:37
,wl-rdm,18,82475,0.0-6.10-0.10,0.0,19.0,,,,,,,[],,,,,,73.6,0.0,u,0.0,True,923.5,56.0,60.0,40.0,False,,270.25614597227155,[],"[768, 432]",ColorTask,9.0,11.0,,,HRV,HRV_0109,2022-11-30 18:03:37
,wl-rdm,19,84740,0.0-6.11-0.11,0.0,20.0,,,,,,,[],,,,,,73.6,1.0,i,1.0,True,956.1000000238419,58.0,60.0,40.0,False,,220.70286569305844,[],"[768, 432]",ColorTask,10.0,12.0,,,HRV,HRV_0109,2022-11-30 18:03:37
,wl-rdm,20,86754,0.0-6.12-0.12,0.0,21.0,,,,,,,[],,,,,,87.9,1.0,i,1.0,True,675.0999999642372,41.0,60.0,40.0,False,,262.14381630463527,[],"[768, 432]",ColorTask,11.0,13.0,,,HRV,HRV_0109,2022-11-30 18:03:37
,wl-rdm,21,89118,0.0-6.13-0.13,0.0,22.0,,,,,,,[],,,,,,62.5,1.0,i,1.0,True,911.0000000596046,55.0,60.0,40.0,False,,378.6824016958807,[],"[768, 432]",ColorTask,12.0,14.0,,,HRV,HRV_0109,2022-11-30 18:03:37
,wl-rdm,22,91283,0.0-6.14-0.14,0.0,23.0,,,,,,,[],,,,,,53.2,0.0,u,0.0,True,822.6999999284744,50.0,60.0,40.0,False,,264.60893574271995,[],"[768, 432]",ColorTask,13.0,15.0,,,HRV,HRV_0109,2022-11-30 18:03:37
,wl-rdm,23,93714,0.0-6.15-0.15,0.0,24.0,,,,,,,[],,,,,,73.6,1.0,i,1.0,True,1073.800000011921,65.0,60.0,40.0,False,,269.2014477138767,[],"[768, 432]",ColorTask,14.0,16.0,,,HRV,HRV_0109,2022-11-30 18:03:37
,wl-rdm,24,95696,0.0-6.16-0.16,0.0,25.0,,,,,,,[],,,,,,87.9,1.0,i,1.0,True,693.4000000357628,42.0,60.0,40.0,False,,215.69522444256563,[],"[768, 432]",ColorTask,15.0,17.0,,,HRV,HRV_0109,2022-11-30 18:03:37
,wl-rdm,25,97694,0.0-6.17-0.17,0.0,26.0,,,,,,,[],,,,,,87.9,1.0,i,1.0,True,637.6000000238419,39.0,60.0,40.0,False,,268.8507258104679,[],"[768, 432]",ColorTask,16.0,18.0,,,HRV,HRV_0109,2022-11-30 18:03:37
,wl-rdm,26,99709,0.0-6.18-0.18,0.0,27.0,,,,,,,[],,,,,,62.5,0.0,u,0.0,True,712.4000000357628,43.0,60.0,40.0,False,,232.9928692845068,[],"[768, 432]",ColorTask,17.0,19.0,,,HRV,HRV_0109,2022-11-30 18:03:37
,wl-rdm,27,101940,0.0-6.19-0.19,0.0,28.0,,,,,,,[],,,,,,73.6,1.0,i,1.0,True,771.5,47.0,60.0,40.0,False,,377.5661710387876,[],"[768, 432]",ColorTask,18.0,20.0,,,HRV,HRV_0109,2022-11-30 18:03:37
,wl-rdm,28,105153,0.0-6.20-0.20,0.0,29.0,,,,,,,[],,,,,,53.2,1.0,i,1.0,True,1907.0,115.0,60.0,40.0,False,,222.231905387413,[],"[768, 432]",ColorTask,19.0,21.0,,,HRV,HRV_0109,2022-11-30 18:03:37
,wl-rdm,29,107285,0.0-6.21-0.21,0.0,30.0,,,,,,,[],,,,,,50.0,0.0,u,0.0,True,837.4000000357628,51.0,60.0,40.0,False,,212.81908153262364,[],"[768, 432]",ColorTask,20.0,22.0,,,HRV,HRV_0109,2022-11-30 18:03:37
,wl-rdm,30,109899,0.0-6.22-0.22,0.0,31.0,,,,,,,[],,,,,,53.2,0.0,u,0.0,True,1147.9000000357628,69.0,60.0,40.0,False,,391.82217376431925,[],"[768, 432]",ColorTask,21.0,23.0,,,HRV,HRV_0109,2022-11-30 18:03:37
,wl-rdm,31,112080,0.0-6.23-0.23,0.0,32.0,,,,,,,[],,,,,,73.6,0.0,u,0.0,True,892.6000000238419,54.0,60.0,40.0,False,,202.4509052184153,[],"[768, 432]",ColorTask,22.0,24.0,,,HRV,HRV_0109,2022-11-30 18:03:37
,wl-rdm,32,114378,0.0-6.24-0.24,0.0,33.0,,,,,,,[],,,,,,56.4,1.0,i,1.0,True,852.6999999284744,52.0,60.0,40.0,False,,360.1729488214453,[],"[768, 432]",ColorTask,23.0,25.0,,,HRV,HRV_0109,2022-11-30 18:03:37
,wl-rdm,33,116576,0.0-6.25-0.25,0.0,34.0,,,,,,,[],,,,,,56.4,0.0,u,0.0,True,876.1999999880791,53.0,60.0,40.0,False,,248.494789818832,[],"[768, 432]",ColorTask,24.0,26.0,,,HRV,HRV_0109,2022-11-30 18:03:37
,wl-rdm,34,118824,0.0-6.26-0.26,0.0,35.0,,,,,,,[],,,,,,73.6,0.0,u,0.0,True,858.9000000357628,52.0,60.0,40.0,False,,311.81748902760836,[],"[768, 432]",ColorTask,25.0,27.0,,,HRV,HRV_0109,2022-11-30 18:03:37
,wl-rdm,35,121338,0.0-6.27-0.27,0.0,36.0,,,,,,,[],,,,,,53.2,1.0,i,1.0,True,1174.0000000596046,71.0,60.0,40.0,False,,254.54840037367322,[],"[768, 432]",ColorTask,26.0,28.0,,,HRV,HRV_0109,2022-11-30 18:03:37
,wl-rdm,36,123770,0.0-6.28-0.28,0.0,37.0,,,,,,,[],,,,,,53.2,1.0,u,0.0,False,974.3999999761581,59.0,60.0,40.0,False,,381.03242468581925,[],"[768, 432]",ColorTask,25.0,29.0,,,HRV,HRV_0109,2022-11-30 18:03:37
,wl-rdm,37,125767,0.0-6.29-0.29,0.0,38.0,,,,,,,[],,,,,,87.9,0.0,u,0.0,True,701.8999999761581,43.0,60.0,40.0,False,,200.14785747083306,[],"[768, 432]",ColorTask,26.0,30.0,,,HRV,HRV_0109,2022-11-30 18:03:37
,wl-rdm,38,127633,0.0-6.30-0.30,0.0,39.0,,,,,,,[],,,,,,62.5,1.0,i,1.0,True,575.1999999880791,35.0,60.0,40.0,False,,215.7835371061472,[],"[768, 432]",ColorTask,27.0,31.0,,,HRV,HRV_0109,2022-11-30 18:03:37
,wl-rdm,39,129681,0.0-6.31-0.31,0.0,40.0,,,,,,,[],,,,,,62.5,0.0,u,0.0,True,758.2000000476837,46.0,60.0,40.0,False,,202.5930122514545,[],"[768, 432]",ColorTask,28.0,32.0,,,HRV,HRV_0109,2022-11-30 18:03:37
,wl-rdm,40,131812,0.0-6.32-0.32,0.0,41.0,,,,,,,[],,,,,,62.5,1.0,i,1.0,True,779.8999999761581,47.0,60.0,40.0,False,,282.88379424117454,[],"[768, 432]",ColorTask,29.0,33.0,,,HRV,HRV_0109,2022-11-30 18:03:37
,wl-rdm,41,134776,0.0-6.33-0.33,0.0,42.0,,,,,,,[],,,,,,56.4,1.0,u,0.0,False,1552.199999988079,94.0,60.0,40.0,False,,327.411224657748,[],"[768, 432]",ColorTask,28.0,34.0,,,HRV,HRV_0109,2022-11-30 18:03:37
,wl-rdm,42,137390,0.0-6.34-0.34,0.0,43.0,,,,,,,[],,,,,,50.0,0.0,u,0.0,True,1327.5999999642372,80.0,60.0,40.0,False,,202.72127946811293,[],"[768, 432]",ColorTask,29.0,35.0,,,HRV,HRV_0109,2022-11-30 18:03:37
,wl-rdm,43,139771,0.0-6.35-0.35,0.0,44.0,,,,,,,[],,,,,,56.4,0.0,u,0.0,True,1039.800000011921,63.0,60.0,40.0,False,,253.52378429803025,[],"[768, 432]",ColorTask,30.0,36.0,,,HRV,HRV_0109,2022-11-30 18:03:37
,wl-rdm,44,141986,0.0-6.36-0.36,0.0,45.0,,,,,,,[],,,,,,87.9,0.0,u,0.0,True,757.6999999880791,46.0,60.0,40.0,False,,374.80679881467967,[],"[768, 432]",ColorTask,31.0,37.0,,,HRV,HRV_0109,2022-11-30 18:03:37
,wl-rdm,45,143801,0.0-6.37-0.37,0.0,46.0,,,,,,,[],,,,,,87.9,0.0,u,0.0,True,459.10000002384186,28.0,60.0,40.0,False,,272.9634162887807,[],"[768, 432]",ColorTask,32.0,38.0,,,HRV,HRV_0109,2022-11-30 18:03:37
,wl-rdm,46,146065,0.0-6.38-0.38,0.0,47.0,,,,,,,[],,,,,,56.4,0.0,u,0.0,True,951.2999999523163,57.0,60.0,40.0,False,,238.69970934358946,[],"[768, 432]",ColorTask,33.0,39.0,,,HRV,HRV_0109,2022-11-30 18:03:37
,wl-rdm,47,148296,0.0-6.39-0.39,0.0,48.0,,,,,,,[],,,,,,56.4,1.0,u,0.0,False,909.2999999523163,55.0,60.0,40.0,False,,234.9040048913715,[],"[768, 432]",ColorTask,32.0,40.0,,,HRV,HRV_0109,2022-11-30 18:03:37
,wl-rdm,48,150511,0.0-6.40-0.40,0.0,49.0,,,,,,,[],,,,,,56.4,0.0,u,0.0,True,871.2000000476837,53.0,60.0,40.0,False,,266.3618333507228,[],"[768, 432]",ColorTask,33.0,41.0,,,HRV,HRV_0109,2022-11-30 18:03:37
,wl-rdm,49,152543,0.0-6.41-0.41,0.0,50.0,,,,,,,[],,,,,,50.0,1.0,i,1.0,True,745.5,45.0,60.0,40.0,False,,210.77745384965462,[],"[768, 432]",ColorTask,34.0,42.0,,,HRV,HRV_0109,2022-11-30 18:03:37
,wl-rdm,50,154973,0.0-6.42-0.42,0.0,51.0,,,,,,,[],,,,,,56.4,0.0,u,0.0,True,1088.1000000238419,66.0,60.0,40.0,False,,254.98163539837333,[],"[768, 432]",ColorTask,35.0,43.0,,,HRV,HRV_0109,2022-11-30 18:03:37
,wl-rdm,51,157121,0.0-6.43-0.43,0.0,52.0,,,,,,,[],,,,,,56.4,0.0,u,0.0,True,785.6999999880791,48.0,60.0,40.0,False,,277.76564716873287,[],"[768, 432]",ColorTask,36.0,44.0,,,HRV,HRV_0109,2022-11-30 18:03:37
,wl-rdm,52,159319,0.0-6.44-0.44,0.0,53.0,,,,,,,[],,,,,,62.5,0.0,u,0.0,True,876.4000000357628,53.0,60.0,40.0,False,,249.89445111737618,[],"[768, 432]",ColorTask,37.0,45.0,,,HRV,HRV_0109,2022-11-30 18:03:37
,wl-rdm,53,161551,0.0-6.45-0.45,0.0,54.0,,,,,,,[],,,,,,53.2,0.0,i,1.0,False,937.2000000476837,57.0,60.0,40.0,False,,203.2064909659935,[],"[768, 432]",ColorTask,36.0,46.0,,,HRV,HRV_0109,2022-11-30 18:03:37
,wl-rdm,54,163466,0.0-6.46-0.46,0.0,55.0,,,,,,,[],,,,,,53.2,0.0,u,0.0,True,606.5,37.0,60.0,40.0,False,,221.9402387281944,[],"[768, 432]",ColorTask,37.0,47.0,,,HRV,HRV_0109,2022-11-30 18:03:37
,wl-rdm,55,165564,0.0-6.47-0.47,0.0,56.0,,,,,,,[],,,,,,73.6,1.0,i,1.0,True,779.6000000238419,47.0,60.0,40.0,False,,245.76266972803145,[],"[768, 432]",ColorTask,38.0,48.0,,,HRV,HRV_0109,2022-11-30 18:03:37
,wl-rdm,56,167845,0.0-6.48-0.48,0.0,57.0,,,,,,,[],,,,,,56.4,1.0,i,1.0,True,927.6999999880791,56.0,60.0,40.0,False,,270.3068123410118,[],"[768, 432]",ColorTask,39.0,49.0,,,HRV,HRV_0109,2022-11-30 18:03:37
,wl-rdm,57,170109,0.0-6.49-0.49,0.0,58.0,,,,,,,[],,,,,,53.2,0.0,u,0.0,True,978.0999999642372,59.0,60.0,40.0,False,,204.79256398388793,[],"[768, 432]",ColorTask,40.0,50.0,,,HRV,HRV_0109,2022-11-30 18:03:37
,wl-rdm,58,172207,0.0-6.50-0.50,0.0,59.0,,,,,,,[],,,,,,53.2,1.0,i,1.0,True,676.1999999880791,41.0,60.0,40.0,False,,339.43946452067746,[],"[768, 432]",ColorTask,41.0,51.0,,,HRV,HRV_0109,2022-11-30 18:03:37
,wl-rdm,59,174222,0.0-6.51-0.51,0.0,60.0,,,,,,,[],,,,,,73.6,1.0,i,1.0,True,669.5,41.0,60.0,40.0,False,,262.64786354210327,[],"[768, 432]",ColorTask,42.0,52.0,,,HRV,HRV_0109,2022-11-30 18:03:37
,wl-rdm,60,176187,0.0-6.52-0.52,0.0,61.0,,,,,,,[],,,,,,87.9,1.0,i,1.0,True,647.9999999403954,39.0,60.0,40.0,False,,238.5804240236858,[],"[768, 432]",ColorTask,43.0,53.0,,,HRV,HRV_0109,2022-11-30 18:03:37
,wl-rdm,61,178085,0.0-6.53-0.53,0.0,62.0,,,,,,,[],,,,,,87.9,0.0,u,0.0,True,587.6999999880791,36.0,60.0,40.0,False,,226.6940267246334,[],"[768, 432]",ColorTask,44.0,54.0,,,HRV,HRV_0109,2022-11-30 18:03:37
,wl-rdm,62,180083,0.0-6.54-0.54,0.0,63.0,,,,,,,[],,,,,,56.4,0.0,u,0.0,True,572.8999999761581,35.0,60.0,40.0,False,,337.2231077675511,[],"[768, 432]",ColorTask,45.0,55.0,,,HRV,HRV_0109,2022-11-30 18:03:37
,wl-rdm,63,182148,0.0-6.55-0.55,0.0,64.0,,,,,,,[],,,,,,87.9,1.0,i,1.0,True,605.3999999761581,37.0,60.0,40.0,False,,374.4416565124601,[],"[768, 432]",ColorTask,46.0,56.0,,,HRV,HRV_0109,2022-11-30 18:03:37
,wl-rdm,64,184030,0.0-6.56-0.56,0.0,65.0,,,,,,,[],,,,,,62.5,0.0,u,0.0,True,562.3000000119209,34.0,60.0,40.0,False,,246.4542582987802,[],"[768, 432]",ColorTask,47.0,57.0,,,HRV,HRV_0109,2022-11-30 18:03:37
,wl-rdm,65,185911,0.0-6.57-0.57,0.0,66.0,,,,,,,[],,,,,,87.9,0.0,u,0.0,True,520.4000000357628,32.0,60.0,40.0,False,,280.71295440992503,[],"[768, 432]",ColorTask,48.0,58.0,,,HRV,HRV_0109,2022-11-30 18:03:37
,wl-rdm,66,188358,0.0-6.58-0.58,0.0,67.0,,,,,,,[],,,,,,50.0,1.0,u,0.0,False,1010.3000000119209,61.0,60.0,40.0,False,,352.4121796449756,[],"[768, 432]",ColorTask,47.0,59.0,,,HRV,HRV_0109,2022-11-30 18:03:37
,wl-rdm,67,190424,0.0-6.59-0.59,0.0,68.0,,,,,,,[],,,,,,53.2,1.0,i,1.0,True,676.3999999761581,41.0,60.0,40.0,False,,303.34115680620664,[],"[768, 432]",ColorTask,48.0,60.0,,,HRV,HRV_0109,2022-11-30 18:03:37
,wl-rdm,68,192505,0.0-6.60-0.60,0.0,69.0,,,,,,,[],,,,,,56.4,0.0,u,0.0,True,608.5,37.0,60.0,40.0,False,,384.6307944154152,[],"[768, 432]",ColorTask,49.0,61.0,,,HRV,HRV_0109,2022-11-30 18:03:37
,wl-rdm,69,194503,0.0-6.61-0.61,0.0,70.0,,,,,,,[],,,,,,73.6,0.0,u,0.0,True,526.8999999761581,32.0,60.0,40.0,False,,397.0025859941163,[],"[768, 432]",ColorTask,50.0,62.0,,,HRV,HRV_0109,2022-11-30 18:03:37
,wl-rdm,70,196285,0.0-6.62-0.62,0.0,71.0,,,,,,,[],,,,,,53.2,0.0,u,0.0,True,462.60000002384186,28.0,60.0,40.0,False,,242.8134471954819,[],"[768, 432]",ColorTask,51.0,63.0,,,HRV,HRV_0109,2022-11-30 18:03:37
,wl-rdm,71,198100,0.0-6.63-0.63,0.0,72.0,,,,,,,[],,,,,,56.4,1.0,u,0.0,False,497.2000000476837,30.0,60.0,40.0,False,,243.9547339517124,[],"[768, 432]",ColorTask,50.0,64.0,,,HRV,HRV_0109,2022-11-30 18:03:37
,wl-rdm,72,200015,0.0-6.64-0.64,0.0,73.0,,,,,,,[],,,,,,50.0,1.0,i,1.0,True,461.4000000357628,28.0,60.0,40.0,False,,374.90218430138844,[],"[768, 432]",ColorTask,51.0,65.0,,,HRV,HRV_0109,2022-11-30 18:03:37
,wl-rdm,73,202080,0.0-6.65-0.65,0.0,74.0,,,,,,,[],,,,,,87.9,1.0,i,1.0,True,687.0,42.0,60.0,40.0,False,,294.41834452765124,[],"[768, 432]",ColorTask,52.0,66.0,,,HRV,HRV_0109,2022-11-30 18:03:37
,wl-rdm,74,204427,0.0-6.66-0.66,0.0,75.0,,,,,,,[],,,,,,50.0,1.0,u,0.0,False,1021.4000000357628,62.0,60.0,40.0,False,,242.11309863610003,[],"[768, 432]",ColorTask,51.0,67.0,,,HRV,HRV_0109,2022-11-30 18:03:37
,wl-rdm,75,206375,0.0-6.67-0.67,0.0,76.0,,,,,,,[],,,,,,62.5,1.0,i,1.0,True,475.80000001192093,29.0,60.0,40.0,False,,390.9722516698575,[],"[768, 432]",ColorTask,52.0,68.0,,,HRV,HRV_0109,2022-11-30 18:03:37
,wl-rdm,76,208690,0.0-6.68-0.68,0.0,77.0,,,,,,,[],,,,,,50.0,0.0,u,0.0,True,874.2000000476837,53.0,60.0,40.0,False,,356.9532124706202,[],"[768, 432]",ColorTask,53.0,69.0,,,HRV,HRV_0109,2022-11-30 18:03:37
,wl-rdm,77,210705,0.0-6.69-0.69,0.0,78.0,,,,,,,[],,,,,,53.2,1.0,u,0.0,False,609.7000000476837,37.0,60.0,40.0,False,,327.1921093411942,[],"[768, 432]",ColorTask,52.0,70.0,,,HRV,HRV_0109,2022-11-30 18:03:37
,wl-rdm,78,212686,0.0-6.70-0.70,0.0,79.0,,,,,,,[],,,,,,50.0,1.0,i,1.0,True,620.6000000238419,38.0,60.0,40.0,False,,274.03723591970277,[],"[768, 432]",ColorTask,53.0,71.0,,,HRV,HRV_0109,2022-11-30 18:03:37
,wl-rdm,79,214634,0.0-6.71-0.71,0.0,80.0,,,,,,,[],,,,,,62.5,1.0,i,1.0,True,665.0,40.0,60.0,40.0,False,,206.3065721438962,[],"[768, 432]",ColorTask,54.0,72.0,,,HRV,HRV_0109,2022-11-30 18:03:37
,wl-rdm,80,216932,0.0-6.72-0.72,0.0,81.0,,,,,,,[],,,,,,62.5,0.0,u,0.0,True,1012.8999999761581,61.0,60.0,40.0,False,,215.00303051747437,[],"[768, 432]",ColorTask,55.0,73.0,,,HRV,HRV_0109,2022-11-30 18:03:37
,wl-rdm,81,219829,0.0-6.73-0.73,0.0,82.0,,,,,,,[],,,,,,62.5,1.0,i,1.0,True,1553.300000011921,94.0,60.0,40.0,False,,262.6717487499687,[],"[768, 432]",ColorTask,56.0,74.0,,,HRV,HRV_0109,2022-11-30 18:03:37
,wl-rdm,82,222127,0.0-6.74-0.74,0.0,83.0,,,,,,,[],,,,,,62.5,0.0,u,0.0,True,876.6999999880791,53.0,60.0,40.0,False,,345.0298966834984,[],"[768, 432]",ColorTask,57.0,75.0,,,HRV,HRV_0109,2022-11-30 18:03:37
,wl-rdm,83,224225,0.0-6.75-0.75,0.0,84.0,,,,,,,[],,,,,,62.5,0.0,u,0.0,True,802.6999999880791,49.0,60.0,40.0,False,,209.2874025757926,[],"[768, 432]",ColorTask,58.0,76.0,,,HRV,HRV_0109,2022-11-30 18:03:37
,wl-rdm,84,226556,0.0-6.76-0.76,0.0,85.0,,,,,,,[],,,,,,50.0,1.0,i,1.0,True,862.5,52.0,60.0,40.0,False,,386.98503715926404,[],"[768, 432]",ColorTask,59.0,77.0,,,HRV,HRV_0109,2022-11-30 18:03:37
,wl-rdm,85,228554,0.0-6.77-0.77,0.0,86.0,,,,,,,[],,,,,,87.9,1.0,i,1.0,True,665.5999999642372,40.0,60.0,40.0,False,,254.76112701272615,[],"[768, 432]",ColorTask,60.0,78.0,,,HRV,HRV_0109,2022-11-30 18:03:37
,wl-rdm,86,230952,0.0-6.78-0.78,0.0,87.0,,,,,,,[],,,,,,62.5,1.0,u,0.0,False,1119.6000000238419,68.0,60.0,40.0,False,,207.75197553160885,[],"[768, 432]",ColorTask,59.0,79.0,,,HRV,HRV_0109,2022-11-30 18:03:37
,wl-rdm,87,232917,0.0-6.79-0.79,0.0,88.0,,,,,,,[],,,,,,87.9,0.0,u,0.0,True,571.1000000238419,35.0,60.0,40.0,False,,314.2510706615144,[],"[768, 432]",ColorTask,60.0,80.0,,,HRV,HRV_0109,2022-11-30 18:03:37
,wl-rdm,88,234782,0.0-6.80-0.80,0.0,89.0,,,,,,,[],,,,,,50.0,1.0,i,1.0,True,477.7000000476837,29.0,60.0,40.0,False,,299.86439001438293,[],"[768, 432]",ColorTask,61.0,81.0,,,HRV,HRV_0109,2022-11-30 18:03:37
,wl-rdm,89,236713,0.0-6.81-0.81,0.0,90.0,,,,,,,[],,,,,,73.6,0.0,u,0.0,True,568.8999999761581,35.0,60.0,40.0,False,,273.6814514418569,[],"[768, 432]",ColorTask,62.0,82.0,,,HRV,HRV_0109,2022-11-30 18:03:37
,wl-rdm,90,238578,0.0-6.82-0.82,0.0,91.0,,,,,,,[],,,,,,56.4,1.0,i,1.0,True,573.6000000238419,35.0,60.0,40.0,False,,205.0418554669651,[],"[768, 432]",ColorTask,63.0,83.0,,,HRV,HRV_0109,2022-11-30 18:03:37
,wl-rdm,91,240543,0.0-6.83-0.83,0.0,92.0,,,,,,,[],,,,,,62.5,1.0,i,1.0,True,620.0999999642372,38.0,60.0,40.0,False,,255.43903971538347,[],"[768, 432]",ColorTask,64.0,84.0,,,HRV,HRV_0109,2022-11-30 18:03:37
,wl-rdm,92,242707,0.0-6.84-0.84,0.0,93.0,,,,,,,[],,,,,,73.6,0.0,u,0.0,True,787.9000000357628,48.0,60.0,40.0,False,,287.67045919992046,[],"[768, 432]",ColorTask,65.0,85.0,,,HRV,HRV_0109,2022-11-30 18:03:37
,wl-rdm,93,244956,0.0-6.85-0.85,0.0,94.0,,,,,,,[],,,,,,53.2,0.0,u,0.0,True,956.5999999642372,58.0,60.0,40.0,False,,208.52280546292687,[],"[768, 432]",ColorTask,66.0,86.0,,,HRV,HRV_0109,2022-11-30 18:03:37
,wl-rdm,94,246887,0.0-6.86-0.86,0.0,95.0,,,,,,,[],,,,,,53.2,0.0,u,0.0,True,554.5,34.0,60.0,40.0,False,,298.25149687437676,[],"[768, 432]",ColorTask,67.0,87.0,,,HRV,HRV_0109,2022-11-30 18:03:37
,wl-rdm,95,248769,0.0-6.87-0.87,0.0,96.0,,,,,,,[],,,,,,50.0,0.0,i,1.0,False,502.60000002384186,31.0,60.0,40.0,False,,290.7098506857844,[],"[768, 432]",ColorTask,66.0,88.0,,,HRV,HRV_0109,2022-11-30 18:03:37
,wl-rdm,96,250850,0.0-6.88-0.88,0.0,97.0,,,,,,,[],,,,,,53.2,0.0,u,0.0,True,701.7000000476837,43.0,60.0,40.0,False,,292.6511985629926,[],"[768, 432]",ColorTask,67.0,89.0,,,HRV,HRV_0109,2022-11-30 18:03:37
,wl-rdm,97,252848,0.0-6.89-0.89,0.0,98.0,,,,,,,[],,,,,,53.2,1.0,u,0.0,False,670.5999999642372,41.0,60.0,40.0,False,,236.41768530187824,[],"[768, 432]",ColorTask,66.0,90.0,,,HRV,HRV_0109,2022-11-30 18:03:37
,wl-rdm,98,254813,0.0-6.90-0.90,0.0,99.0,,,,,,,[],,,,,,87.9,1.0,i,1.0,True,579.6999999880791,35.0,60.0,40.0,False,,309.14524422707893,[],"[768, 432]",ColorTask,67.0,91.0,,,HRV,HRV_0109,2022-11-30 18:03:37
,wl-rdm,99,256644,0.0-6.91-0.91,0.0,100.0,,,,,,,[],,,,,,87.9,0.0,u,0.0,True,512.3999999761581,31.0,60.0,40.0,False,,247.78850443764378,[],"[768, 432]",ColorTask,68.0,92.0,,,HRV,HRV_0109,2022-11-30 18:03:37
,wl-rdm,100,258526,0.0-6.92-0.92,0.0,101.0,,,,,,,[],,,,,,87.9,0.0,u,0.0,True,518.4000000357628,32.0,60.0,40.0,False,,268.7653150608329,[],"[768, 432]",ColorTask,69.0,93.0,,,HRV,HRV_0109,2022-11-30 18:03:37
,wl-rdm,101,260441,0.0-6.93-0.93,0.0,102.0,,,,,,,[],,,,,,62.5,0.0,u,0.0,True,441.39999997615814,27.0,60.0,40.0,False,,397.8391213012069,[],"[768, 432]",ColorTask,70.0,94.0,,,HRV,HRV_0109,2022-11-30 18:03:37
,wl-rdm,102,262506,0.0-6.94-0.94,0.0,103.0,,,,,,,[],,,,,,73.6,0.0,u,0.0,True,618.4000000357628,38.0,60.0,40.0,False,,350.7717210712145,[],"[768, 432]",ColorTask,71.0,95.0,,,HRV,HRV_0109,2022-11-30 18:03:37
,wl-rdm,103,264687,0.0-6.95-0.95,0.0,104.0,,,,,,,[],,,,,,50.0,1.0,u,0.0,False,886.6000000238419,54.0,60.0,40.0,False,,212.83989229191138,[],"[768, 432]",ColorTask,70.0,96.0,,,HRV,HRV_0109,2022-11-30 18:03:37
,wl-rdm,104,266635,0.0-6.96-0.96,0.0,105.0,,,,,,,[],,,,,,73.6,1.0,i,1.0,True,529.6999999880791,32.0,60.0,40.0,False,,348.96529282328333,[],"[768, 432]",ColorTask,71.0,97.0,,,HRV,HRV_0109,2022-11-30 18:03:37
,wl-rdm,105,268650,0.0-6.97-0.97,0.0,106.0,,,,,,,[],,,,,,73.6,1.0,i,1.0,True,698.3000000119209,42.0,60.0,40.0,False,,243.61267455508613,[],"[768, 432]",ColorTask,72.0,98.0,,,HRV,HRV_0109,2022-11-30 18:03:37
,wl-rdm,106,271547,0.0-6.98-0.98,0.0,107.0,,,,,,,[],,,,,,53.2,1.0,u,0.0,False,1520.5999999642372,92.0,60.0,40.0,False,,297.3932037862272,[],"[768, 432]",ColorTask,71.0,99.0,,,HRV,HRV_0109,2022-11-30 18:03:37
,wl-rdm,107,273529,0.0-6.99-0.99,0.0,108.0,,,,,,,[],,,,,,62.5,0.0,u,0.0,True,660.0999999642372,40.0,60.0,40.0,False,,247.38494979792569,[],"[768, 432]",ColorTask,72.0,100.0,,,HRV,HRV_0109,2022-11-30 18:03:37
,wl-rdm,108,275527,0.0-6.100-0.100,0.0,109.0,,,,,,,[],,,,,,87.9,0.0,u,0.0,True,617.5999999642372,38.0,60.0,40.0,False,,299.5903294981055,[],"[768, 432]",ColorTask,73.0,101.0,,,HRV,HRV_0109,2022-11-30 18:03:37
,wl-rdm,109,277759,0.0-6.101-0.101,0.0,110.0,,,,,,,[],,,,,,56.4,1.0,u,0.0,False,936.8000000119209,57.0,60.0,40.0,False,,201.61997176445433,[],"[768, 432]",ColorTask,72.0,102.0,,,HRV,HRV_0109,2022-11-30 18:03:37
,wl-rdm,110,279657,0.0-6.102-0.102,0.0,111.0,,,,,,,[],,,,,,53.2,1.0,u,0.0,False,519.1999999880791,32.0,60.0,40.0,False,,288.6334184140144,[],"[768, 432]",ColorTask,71.0,103.0,,,HRV,HRV_0109,2022-11-30 18:03:37
,wl-rdm,111,281705,0.0-6.103-0.103,0.0,112.0,,,,,,,[],,,,,,50.0,0.0,u,0.0,True,682.5,41.0,60.0,40.0,False,,295.9843941342517,[],"[768, 432]",ColorTask,72.0,104.0,,,HRV,HRV_0109,2022-11-30 18:03:37
,wl-rdm,112,283653,0.0-6.104-0.104,0.0,113.0,,,,,,,[],,,,,,50.0,0.0,u,0.0,True,505.0999999642372,31.0,60.0,40.0,False,,357.2043346161553,[],"[768, 432]",ColorTask,73.0,105.0,,,HRV,HRV_0109,2022-11-30 18:03:37
,wl-rdm,113,285485,0.0-6.105-0.105,0.0,114.0,,,,,,,[],,,,,,56.4,1.0,u,0.0,False,438.0,27.0,60.0,40.0,False,,310.652631846612,[],"[768, 432]",ColorTask,72.0,106.0,,,HRV,HRV_0109,2022-11-30 18:03:37
,wl-rdm,114,287233,0.0-6.106-0.106,0.0,115.0,,,,,,,[],,,,,,50.0,0.0,u,0.0,True,452.0,28.0,60.0,40.0,False,,205.77292172006153,[],"[768, 432]",ColorTask,73.0,107.0,,,HRV,HRV_0109,2022-11-30 18:03:37
,wl-rdm,115,289081,0.0-6.107-0.107,0.0,116.0,,,,,,,[],,,,,,87.9,1.0,i,1.0,True,473.89999997615814,29.0,60.0,40.0,False,,290.0821396536596,[],"[768, 432]",ColorTask,74.0,108.0,,,HRV,HRV_0109,2022-11-30 18:03:37
,wl-html-keyboard-response,116,357260,0.0-7.0-0.0,1.0,117.0,,,,,,,,66167.29999995232,1.0,0,,,,,,,,,,,,,,,,,,,,,,HRV,HRV_0109,2022-11-30 18:03:37
,wl-rdm,117,361114,0.0-8.0-0.0,1.0,118.0,,,,,,,[],,,,,,56.4,0.0,i,1.0,False,2480.2000000476837,149.0,60.0,40.0,False,,308.46725200534314,[],"[768, 432]",ColorTask,73.0,1.0,,,HRV,HRV_0109,2022-11-30 18:03:37
,wl-rdm,118,362996,0.0-8.1-0.1,1.0,119.0,,,,,,,[],,,,,,73.6,1.0,i,1.0,True,597.3000000119209,36.0,60.0,40.0,False,,214.00616611981468,[],"[768, 432]",ColorTask,74.0,2.0,,,HRV,HRV_0109,2022-11-30 18:03:37
,wl-rdm,119,365294,0.0-8.2-0.2,1.0,120.0,,,,,,,[],,,,,,73.6,0.0,u,0.0,True,902.7999999523163,55.0,60.0,40.0,False,,303.96066211007724,[],"[768, 432]",ColorTask,75.0,3.0,,,HRV,HRV_0109,2022-11-30 18:03:37
,wl-rdm,120,367325,0.0-8.3-0.3,1.0,121.0,,,,,,,[],,,,,,53.2,1.0,i,1.0,True,705.5,43.0,60.0,40.0,False,,235.27298529391828,[],"[768, 432]",ColorTask,76.0,4.0,,,HRV,HRV_0109,2022-11-30 18:03:37
,wl-rdm,121,369440,0.0-8.4-0.4,1.0,122.0,,,,,,,[],,,,,,50.0,1.0,u,0.0,False,759.5,46.0,60.0,40.0,False,,273.05026276693576,[],"[768, 432]",ColorTask,75.0,5.0,,,HRV,HRV_0109,2022-11-30 18:03:37
,wl-rdm,122,371538,0.0-8.5-0.5,1.0,123.0,,,,,,,[],,,,,,56.4,1.0,i,1.0,True,699.3000000119209,42.0,60.0,40.0,False,,328.65275223291985,[],"[768, 432]",ColorTask,76.0,6.0,,,HRV,HRV_0109,2022-11-30 18:03:37
,wl-rdm,123,373752,0.0-8.6-0.6,1.0,124.0,,,,,,,[],,,,,,73.6,1.0,i,1.0,True,758.6999999880791,46.0,60.0,40.0,False,,382.56941528937523,[],"[768, 432]",ColorTask,77.0,7.0,,,HRV,HRV_0109,2022-11-30 18:03:37
,wl-rdm,124,375800,0.0-8.7-0.7,1.0,125.0,,,,,,,[],,,,,,56.4,1.0,i,1.0,True,668.3000000119209,41.0,60.0,40.0,False,,285.02964421440214,[],"[768, 432]",ColorTask,78.0,8.0,,,HRV,HRV_0109,2022-11-30 18:03:37
,wl-rdm,125,378348,0.0-8.8-0.8,1.0,126.0,,,,,,,[],,,,,,50.0,1.0,u,0.0,False,1122.3999999761581,68.0,60.0,40.0,False,,343.1159830202897,[],"[768, 432]",ColorTask,77.0,9.0,,,HRV,HRV_0109,2022-11-30 18:03:37
,wl-rdm,126,380463,0.0-8.9-0.9,1.0,127.0,,,,,,,[],,,,,,50.0,0.0,i,1.0,False,677.5,41.0,60.0,40.0,False,,356.47215183231896,[],"[768, 432]",ColorTask,76.0,10.0,,,HRV,HRV_0109,2022-11-30 18:03:37
,wl-rdm,127,382494,0.0-8.10-0.10,1.0,128.0,,,,,,,[],,,,,,56.4,0.0,u,0.0,True,637.5,39.0,60.0,40.0,False,,307.6468015760067,[],"[768, 432]",ColorTask,77.0,11.0,,,HRV,HRV_0109,2022-11-30 18:03:37
,wl-rdm,128,384509,0.0-8.11-0.11,1.0,129.0,,,,,,,[],,,,,,56.4,1.0,u,0.0,False,589.0000000596046,36.0,60.0,40.0,False,,336.41960312331605,[],"[768, 432]",ColorTask,76.0,12.0,,,HRV,HRV_0109,2022-11-30 18:03:37
,wl-rdm,129,386557,0.0-8.12-0.12,1.0,130.0,,,,,,,[],,,,,,53.2,1.0,i,1.0,True,662.5000000596046,40.0,60.0,40.0,False,,315.4219067669848,[],"[768, 432]",ColorTask,77.0,13.0,,,HRV,HRV_0109,2022-11-30 18:03:37
,wl-rdm,130,388339,0.0-8.13-0.13,1.0,131.0,,,,,,,[],,,,,,87.9,1.0,i,1.0,True,440.30000001192093,27.0,60.0,40.0,False,,255.29812027867106,[],"[768, 432]",ColorTask,78.0,14.0,,,HRV,HRV_0109,2022-11-30 18:03:37
,wl-rdm,131,390337,0.0-8.14-0.14,1.0,132.0,,,,,,,[],,,,,,62.5,0.0,u,0.0,True,587.0999999642372,36.0,60.0,40.0,False,,319.97816172849707,[],"[768, 432]",ColorTask,79.0,15.0,,,HRV,HRV_0109,2022-11-30 18:03:37
,wl-rdm,132,392451,0.0-8.15-0.15,1.0,133.0,,,,,,,[],,,,,,73.6,1.0,i,1.0,True,772.4000000357628,47.0,60.0,40.0,False,,259.39295075303295,[],"[768, 432]",ColorTask,80.0,16.0,,,HRV,HRV_0109,2022-11-30 18:03:37
,wl-rdm,133,395548,0.0-8.16-0.16,1.0,134.0,,,,,,,[],,,,,,53.2,0.0,u,0.0,True,1737.199999988079,105.0,60.0,40.0,False,,275.2334565107283,[],"[768, 432]",ColorTask,81.0,17.0,,,HRV,HRV_0109,2022-11-30 18:03:37
,wl-rdm,134,398246,0.0-8.17-0.17,1.0,135.0,,,,,,,[],,,,,,62.5,1.0,i,1.0,True,1404.4000000357628,85.0,60.0,40.0,False,,205.14595187266104,[],"[768, 432]",ColorTask,82.0,18.0,,,HRV,HRV_0109,2022-11-30 18:03:37
,wl-rdm,135,400327,0.0-8.18-0.18,1.0,136.0,,,,,,,[],,,,,,73.6,1.0,i,1.0,True,759.4000000357628,46.0,60.0,40.0,False,,243.28341578954542,[],"[768, 432]",ColorTask,83.0,19.0,,,HRV,HRV_0109,2022-11-30 18:03:37
,wl-rdm,136,402475,0.0-8.19-0.19,1.0,137.0,,,,,,,[],,,,,,53.2,0.0,u,0.0,True,738.6000000238419,45.0,60.0,40.0,False,,322.55508043337653,[],"[768, 432]",ColorTask,84.0,20.0,,,HRV,HRV_0109,2022-11-30 18:03:37
,wl-rdm,137,404640,0.0-8.20-0.20,1.0,138.0,,,,,,,[],,,,,,56.4,0.0,i,1.0,False,692.6999999284744,42.0,60.0,40.0,False,,389.9454940487398,[],"[768, 432]",ColorTask,83.0,21.0,,,HRV,HRV_0109,2022-11-30 18:03:37
,wl-rdm,138,406572,0.0-8.21-0.21,1.0,139.0,,,,,,,[],,,,,,87.9,1.0,i,1.0,True,556.5,34.0,60.0,40.0,False,,287.22720100790514,[],"[768, 432]",ColorTask,84.0,22.0,,,HRV,HRV_0109,2022-11-30 18:03:37
,wl-rdm,139,408486,0.0-8.22-0.22,1.0,140.0,,,,,,,[],,,,,,87.9,1.0,i,1.0,True,494.3000000715256,30.0,60.0,40.0,False,,345.6285167392008,[],"[768, 432]",ColorTask,85.0,23.0,,,HRV,HRV_0109,2022-11-30 18:03:37
,wl-rdm,140,410301,0.0-8.23-0.23,1.0,141.0,,,,,,,[],,,,,,87.9,0.0,u,0.0,True,494.60000002384186,30.0,60.0,40.0,False,,239.90217193805563,[],"[768, 432]",ColorTask,86.0,24.0,,,HRV,HRV_0109,2022-11-30 18:03:37
,wl-rdm,141,412283,0.0-8.24-0.24,1.0,142.0,,,,,,,[],,,,,,73.6,0.0,u,0.0,True,506.39999997615814,31.0,60.0,40.0,False,,396.59298081052054,[],"[768, 432]",ColorTask,87.0,25.0,,,HRV,HRV_0109,2022-11-30 18:03:37
,wl-rdm,142,414414,0.0-8.25-0.25,1.0,143.0,,,,,,,[],,,,,,56.4,1.0,i,1.0,True,695.1999999880791,42.0,60.0,40.0,False,,358.9973076307159,[],"[768, 432]",ColorTask,88.0,26.0,,,HRV,HRV_0109,2022-11-30 18:03:37
,wl-rdm,143,416396,0.0-8.26-0.26,1.0,144.0,,,,,,,[],,,,,,62.5,1.0,u,0.0,False,613.7999999523163,37.0,60.0,40.0,False,,284.3689715501632,[],"[768, 432]",ColorTask,87.0,27.0,,,HRV,HRV_0109,2022-11-30 18:03:37
,wl-rdm,144,418577,0.0-8.27-0.27,1.0,145.0,,,,,,,[],,,,,,56.4,1.0,i,1.0,True,890.5,54.0,60.0,40.0,False,,210.9355305702483,[],"[768, 432]",ColorTask,88.0,28.0,,,HRV,HRV_0109,2022-11-30 18:03:37
,wl-rdm,145,420475,0.0-8.28-0.28,1.0,146.0,,,,,,,[],,,,,,62.5,1.0,i,1.0,True,554.7999999523163,34.0,60.0,40.0,False,,250.2966173042899,[],"[768, 432]",ColorTask,89.0,29.0,,,HRV,HRV_0109,2022-11-30 18:03:37
,wl-rdm,146,422656,0.0-8.29-0.29,1.0,147.0,,,,,,,[],,,,,,53.2,1.0,i,1.0,True,774.7000000476837,47.0,60.0,40.0,False,,316.5511485548117,[],"[768, 432]",ColorTask,90.0,30.0,,,HRV,HRV_0109,2022-11-30 18:03:37
,wl-rdm,147,424655,0.0-8.30-0.30,1.0,148.0,,,,,,,[],,,,,,50.0,1.0,u,0.0,False,527.7999999523163,32.0,60.0,40.0,False,,385.0383744109845,[],"[768, 432]",ColorTask,89.0,31.0,,,HRV,HRV_0109,2022-11-30 18:03:37
,wl-rdm,148,426486,0.0-8.31-0.31,1.0,149.0,,,,,,,[],,,,,,87.9,1.0,i,1.0,True,511.2000000476837,31.0,60.0,40.0,False,,238.7356672679923,[],"[768, 432]",ColorTask,90.0,32.0,,,HRV,HRV_0109,2022-11-30 18:03:37
,wl-rdm,149,428418,0.0-8.32-0.32,1.0,150.0,,,,,,,[],,,,,,56.4,0.0,u,0.0,True,501.80000001192093,31.0,60.0,40.0,False,,342.2970233114107,[],"[768, 432]",ColorTask,91.0,33.0,,,HRV,HRV_0109,2022-11-30 18:03:37
,wl-rdm,150,430250,0.0-8.33-0.33,1.0,151.0,,,,,,,[],,,,,,73.6,1.0,i,1.0,True,532.1000000238419,32.0,60.0,40.0,False,,216.94882897053103,[],"[768, 432]",ColorTask,92.0,34.0,,,HRV,HRV_0109,2022-11-30 18:03:37
,wl-rdm,151,432198,0.0-8.34-0.34,1.0,152.0,,,,,,,[],,,,,,87.9,1.0,i,1.0,True,488.1999999284744,30.0,60.0,40.0,False,,367.18392688032714,[],"[768, 432]",ColorTask,93.0,35.0,,,HRV,HRV_0109,2022-11-30 18:03:37
,wl-rdm,152,434262,0.0-8.35-0.35,1.0,153.0,,,,,,,[],,,,,,56.4,1.0,i,1.0,True,770.4000000357628,47.0,60.0,40.0,False,,212.73660372494962,[],"[768, 432]",ColorTask,94.0,36.0,,,HRV,HRV_0109,2022-11-30 18:03:37
,wl-rdm,153,436194,0.0-8.36-0.36,1.0,154.0,,,,,,,[],,,,,,56.4,0.0,i,1.0,False,475.0999999642372,29.0,60.0,40.0,False,,369.2168154215679,[],"[768, 432]",ColorTask,93.0,37.0,,,HRV,HRV_0109,2022-11-30 18:03:37
,wl-rdm,154,438076,0.0-8.37-0.37,1.0,155.0,,,,,,,[],,,,,,87.9,0.0,u,0.0,True,480.60000002384186,29.0,60.0,40.0,False,,324.67398696131306,[],"[768, 432]",ColorTask,94.0,38.0,,,HRV,HRV_0109,2022-11-30 18:03:37
,wl-rdm,155,439957,0.0-8.38-0.38,1.0,156.0,,,,,,,[],,,,,,56.4,0.0,u,0.0,True,579.2000000476837,35.0,60.0,40.0,False,,227.70429291502947,[],"[768, 432]",ColorTask,95.0,39.0,,,HRV,HRV_0109,2022-11-30 18:03:37
,wl-rdm,156,441722,0.0-8.39-0.39,1.0,157.0,,,,,,,[],,,,,,87.9,0.0,u,0.0,True,432.19999998807907,26.0,60.0,40.0,False,,254.49212869311071,[],"[768, 432]",ColorTask,96.0,40.0,,,HRV,HRV_0109,2022-11-30 18:03:37
,wl-rdm,157,443537,0.0-8.40-0.40,1.0,158.0,,,,,,,[],,,,,,56.4,1.0,u,0.0,False,491.0,30.0,60.0,40.0,False,,248.18264654377302,[],"[768, 432]",ColorTask,95.0,41.0,,,HRV,HRV_0109,2022-11-30 18:03:37
,wl-rdm,158,445402,0.0-8.41-0.41,1.0,159.0,,,,,,,[],,,,,,62.5,0.0,u,0.0,True,565.5,34.0,60.0,40.0,False,,222.2638644111974,[],"[768, 432]",ColorTask,96.0,42.0,,,HRV,HRV_0109,2022-11-30 18:03:37
,wl-rdm,159,447250,0.0-8.42-0.42,1.0,160.0,,,,,,,[],,,,,,56.4,1.0,u,0.0,False,451.39999997615814,28.0,60.0,40.0,False,,309.2243601178262,[],"[768, 432]",ColorTask,95.0,43.0,,,HRV,HRV_0109,2022-11-30 18:03:37
,wl-rdm,160,449015,0.0-8.43-0.43,1.0,161.0,,,,,,,[],,,,,,73.6,0.0,u,0.0,True,459.9000000357628,28.0,60.0,40.0,False,,222.3975876606103,[],"[768, 432]",ColorTask,96.0,44.0,,,HRV,HRV_0109,2022-11-30 18:03:37
,wl-rdm,161,451080,0.0-8.44-0.44,1.0,162.0,,,,,,,[],,,,,,50.0,1.0,u,0.0,False,709.5999999642372,43.0,60.0,40.0,False,,283.1308179406016,[],"[768, 432]",ColorTask,95.0,45.0,,,HRV,HRV_0109,2022-11-30 18:03:37
,wl-rdm,162,452945,0.0-8.45-0.45,1.0,163.0,,,,,,,[],,,,,,73.6,1.0,i,1.0,True,582.3000000119209,35.0,60.0,40.0,False,,203.79189254066537,[],"[768, 432]",ColorTask,96.0,46.0,,,HRV,HRV_0109,2022-11-30 18:03:37
,wl-rdm,163,454943,0.0-8.46-0.46,1.0,164.0,,,,,,,[],,,,,,62.5,0.0,u,0.0,True,610.3999999761581,37.0,60.0,40.0,False,,305.9776522383292,[],"[768, 432]",ColorTask,97.0,47.0,,,HRV,HRV_0109,2022-11-30 18:03:37
,wl-rdm,164,456925,0.0-8.47-0.47,1.0,165.0,,,,,,,[],,,,,,50.0,0.0,u,0.0,True,621.9000000357628,38.0,60.0,40.0,False,,275.8913288546306,[],"[768, 432]",ColorTask,98.0,48.0,,,HRV,HRV_0109,2022-11-30 18:03:37
,wl-rdm,165,458707,0.0-8.48-0.48,1.0,166.0,,,,,,,[],,,,,,73.6,0.0,u,0.0,True,481.60000002384186,29.0,60.0,40.0,False,,225.09421558686466,[],"[768, 432]",ColorTask,99.0,49.0,,,HRV,HRV_0109,2022-11-30 18:03:37
,wl-rdm,166,460521,0.0-8.49-0.49,1.0,167.0,,,,,,,[],,,,,,87.9,0.0,u,0.0,True,485.30000001192093,30.0,60.0,40.0,False,,234.76462976519042,[],"[768, 432]",ColorTask,100.0,50.0,,,HRV,HRV_0109,2022-11-30 18:03:37
,wl-rdm,167,462436,0.0-8.50-0.50,1.0,168.0,,,,,,,[],,,,,,62.5,0.0,u,0.0,True,639.0,39.0,60.0,40.0,False,,213.6423649968899,[],"[768, 432]",ColorTask,101.0,51.0,,,HRV,HRV_0109,2022-11-30 18:03:37
,wl-rdm,168,464318,0.0-8.51-0.51,1.0,169.0,,,,,,,[],,,,,,53.2,0.0,u,0.0,True,511.5999999642372,31.0,60.0,40.0,False,,285.49769795754275,[],"[768, 432]",ColorTask,102.0,52.0,,,HRV,HRV_0109,2022-11-30 18:03:37
,wl-rdm,169,466166,0.0-8.52-0.52,1.0,170.0,,,,,,,[],,,,,,53.2,1.0,i,1.0,True,561.5,34.0,60.0,40.0,False,,200.61621952652942,[],"[768, 432]",ColorTask,103.0,53.0,,,HRV,HRV_0109,2022-11-30 18:03:37
,wl-rdm,170,468098,0.0-8.53-0.53,1.0,171.0,,,,,,,[],,,,,,50.0,0.0,i,1.0,False,502.39999997615814,31.0,60.0,40.0,False,,335.02026895256597,[],"[768, 432]",ColorTask,102.0,54.0,,,HRV,HRV_0109,2022-11-30 18:03:37
,wl-rdm,171,469929,0.0-8.54-0.54,1.0,172.0,,,,,,,[],,,,,,50.0,0.0,u,0.0,True,519.6000000238419,32.0,60.0,40.0,False,,226.44750889233146,[],"[768, 432]",ColorTask,103.0,55.0,,,HRV,HRV_0109,2022-11-30 18:03:37
,wl-rdm,172,471878,0.0-8.55-0.55,1.0,173.0,,,,,,,[],,,,,,73.6,1.0,i,1.0,True,562.2000000476837,34.0,60.0,40.0,False,,303.33749446040014,[],"[768, 432]",ColorTask,104.0,56.0,,,HRV,HRV_0109,2022-11-30 18:03:37
,wl-rdm,173,473725,0.0-8.56-0.56,1.0,174.0,,,,,,,[],,,,,,50.0,1.0,u,0.0,False,561.7000000476837,34.0,60.0,40.0,False,,211.70626083992323,[],"[768, 432]",ColorTask,103.0,57.0,,,HRV,HRV_0109,2022-11-30 18:03:37
,wl-rdm,174,475907,0.0-8.57-0.57,1.0,175.0,,,,,,,[],,,,,,62.5,1.0,i,1.0,True,846.6999999880791,51.0,60.0,40.0,False,,255.47304957974805,[],"[768, 432]",ColorTask,104.0,58.0,,,HRV,HRV_0109,2022-11-30 18:03:37
,wl-rdm,175,478255,0.0-8.58-0.58,1.0,176.0,,,,,,,[],,,,,,56.4,0.0,i,1.0,False,925.6999999880791,56.0,60.0,40.0,False,,333.83123601589364,[],"[768, 432]",ColorTask,103.0,59.0,,,HRV,HRV_0109,2022-11-30 18:03:37
,wl-rdm,176,480403,0.0-8.59-0.59,1.0,177.0,,,,,,,[],,,,,,62.5,0.0,u,0.0,True,724.1999999880791,44.0,60.0,40.0,False,,342.0815594932264,[],"[768, 432]",ColorTask,104.0,60.0,,,HRV,HRV_0109,2022-11-30 18:03:37
,wl-rdm,177,482234,0.0-8.60-0.60,1.0,178.0,,,,,,,[],,,,,,50.0,0.0,u,0.0,True,549.7000000476837,33.0,60.0,40.0,False,,215.16378747162585,[],"[768, 432]",ColorTask,105.0,61.0,,,HRV,HRV_0109,2022-11-30 18:03:37
,wl-rdm,178,484266,0.0-8.61-0.61,1.0,179.0,,,,,,,[],,,,,,53.2,0.0,u,0.0,True,566.1999999284744,34.0,60.0,40.0,False,,393.8438864671913,[],"[768, 432]",ColorTask,106.0,62.0,,,HRV,HRV_0109,2022-11-30 18:03:37
,wl-rdm,179,486314,0.0-8.62-0.62,1.0,180.0,,,,,,,[],,,,,,62.5,1.0,i,1.0,True,599.1999999880791,36.0,60.0,40.0,False,,376.6652133536493,[],"[768, 432]",ColorTask,107.0,63.0,,,HRV,HRV_0109,2022-11-30 18:03:37
,wl-rdm,180,488312,0.0-8.63-0.63,1.0,181.0,,,,,,,[],,,,,,50.0,0.0,u,0.0,True,626.8999999761581,38.0,60.0,40.0,False,,285.5904300791748,[],"[768, 432]",ColorTask,108.0,64.0,,,HRV,HRV_0109,2022-11-30 18:03:37
,wl-rdm,181,490693,0.0-8.64-0.64,1.0,182.0,,,,,,,[],,,,,,50.0,0.0,u,0.0,True,1045.800000011921,63.0,60.0,40.0,False,,250.9234559964442,[],"[768, 432]",ColorTask,109.0,65.0,,,HRV,HRV_0109,2022-11-30 18:03:37
,wl-rdm,182,492858,0.0-8.65-0.65,1.0,183.0,,,,,,,[],,,,,,53.2,1.0,u,0.0,False,799.1000000238419,48.0,60.0,40.0,False,,290.2013073393965,[],"[768, 432]",ColorTask,108.0,66.0,,,HRV,HRV_0109,2022-11-30 18:03:37
,wl-rdm,183,494673,0.0-8.66-0.66,1.0,184.0,,,,,,,[],,,,,,73.6,0.0,u,0.0,True,508.0,31.0,60.0,40.0,False,,219.17868352904074,[],"[768, 432]",ColorTask,109.0,67.0,,,HRV,HRV_0109,2022-11-30 18:03:37
,wl-rdm,184,496638,0.0-8.67-0.67,1.0,185.0,,,,,,,[],,,,,,56.4,0.0,i,1.0,False,528.5,32.0,60.0,40.0,False,,360.2778763557377,[],"[768, 432]",ColorTask,108.0,68.0,,,HRV,HRV_0109,2022-11-30 18:03:37
,wl-rdm,185,498669,0.0-8.68-0.68,1.0,186.0,,,,,,,[],,,,,,53.2,0.0,u,0.0,True,729.3000000119209,44.0,60.0,40.0,False,,218.8551388651089,[],"[768, 432]",ColorTask,109.0,69.0,,,HRV,HRV_0109,2022-11-30 18:03:37
,wl-rdm,186,500601,0.0-8.69-0.69,1.0,187.0,,,,,,,[],,,,,,62.5,0.0,u,0.0,True,554.0000000596046,34.0,60.0,40.0,False,,294.32394525154996,[],"[768, 432]",ColorTask,110.0,70.0,,,HRV,HRV_0109,2022-11-30 18:03:37
,wl-rdm,187,502466,0.0-8.70-0.70,1.0,188.0,,,,,,,[],,,,,,87.9,0.0,u,0.0,True,508.69999998807907,31.0,60.0,40.0,False,,275.15294998341676,[],"[768, 432]",ColorTask,111.0,71.0,,,HRV,HRV_0109,2022-11-30 18:03:37
,wl-rdm,188,504214,0.0-8.71-0.71,1.0,189.0,,,,,,,[],,,,,,56.4,0.0,u,0.0,True,444.9000000357628,27.0,60.0,40.0,False,,221.91346305665087,[],"[768, 432]",ColorTask,112.0,72.0,,,HRV,HRV_0109,2022-11-30 18:03:37
,wl-rdm,189,506345,0.0-8.72-0.72,1.0,190.0,,,,,,,[],,,,,,53.2,1.0,i,1.0,True,673.6999999880791,41.0,60.0,40.0,False,,397.58171017714795,[],"[768, 432]",ColorTask,113.0,73.0,,,HRV,HRV_0109,2022-11-30 18:03:37
,wl-rdm,190,508160,0.0-8.73-0.73,1.0,191.0,,,,,,,[],,,,,,62.5,1.0,i,1.0,True,504.9000000357628,31.0,60.0,40.0,False,,220.8569862670252,[],"[768, 432]",ColorTask,114.0,74.0,,,HRV,HRV_0109,2022-11-30 18:03:37
,wl-rdm,191,510575,0.0-8.74-0.74,1.0,192.0,,,,,,,[],,,,,,62.5,1.0,i,1.0,True,1004.6999999880791,61.0,60.0,40.0,False,,316.47565034946695,[],"[768, 432]",ColorTask,115.0,75.0,,,HRV,HRV_0109,2022-11-30 18:03:37
,wl-rdm,192,512573,0.0-8.75-0.75,1.0,193.0,,,,,,,[],,,,,,87.9,0.0,u,0.0,True,705.2000000476837,43.0,60.0,40.0,False,,202.61968215154891,[],"[768, 432]",ColorTask,116.0,76.0,,,HRV,HRV_0109,2022-11-30 18:03:37
,wl-rdm,193,514471,0.0-8.76-0.76,1.0,194.0,,,,,,,[],,,,,,50.0,1.0,u,0.0,False,570.3999999761581,35.0,60.0,40.0,False,,239.75413361686367,[],"[768, 432]",ColorTask,115.0,77.0,,,HRV,HRV_0109,2022-11-30 18:03:37
,wl-rdm,194,516436,0.0-8.77-0.77,1.0,195.0,,,,,,,[],,,,,,87.9,0.0,u,0.0,True,530.0999999642372,32.0,60.0,40.0,False,,362.34058723583365,[],"[768, 432]",ColorTask,116.0,78.0,,,HRV,HRV_0109,2022-11-30 18:03:37
,wl-rdm,195,518384,0.0-8.78-0.78,1.0,196.0,,,,,,,[],,,,,,62.5,0.0,u,0.0,True,602.3999999761581,37.0,60.0,40.0,False,,256.57870535271627,[],"[768, 432]",ColorTask,117.0,79.0,,,HRV,HRV_0109,2022-11-30 18:03:37
,wl-rdm,196,520283,0.0-8.79-0.79,1.0,197.0,,,,,,,[],,,,,,53.2,0.0,u,0.0,True,581.6000000238419,35.0,60.0,40.0,False,,233.92702034405337,[],"[768, 432]",ColorTask,118.0,80.0,,,HRV,HRV_0109,2022-11-30 18:03:37
,wl-rdm,197,522231,0.0-8.80-0.80,1.0,198.0,,,,,,,[],,,,,,73.6,0.0,u,0.0,True,527.9999999403954,32.0,60.0,40.0,False,,338.7211717807777,[],"[768, 432]",ColorTask,119.0,81.0,,,HRV,HRV_0109,2022-11-30 18:03:37
,wl-rdm,198,524212,0.0-8.81-0.81,1.0,199.0,,,,,,,[],,,,,,50.0,0.0,i,1.0,False,621.0,38.0,60.0,40.0,False,,271.8819284328639,[],"[768, 432]",ColorTask,118.0,82.0,,,HRV,HRV_0109,2022-11-30 18:03:37
,wl-rdm,199,526077,0.0-8.82-0.82,1.0,200.0,,,,,,,[],,,,,,73.6,1.0,i,1.0,True,512.9999999403954,31.0,60.0,40.0,False,,281.80775787617387,[],"[768, 432]",ColorTask,119.0,83.0,,,HRV,HRV_0109,2022-11-30 18:03:37
,wl-rdm,200,528059,0.0-8.83-0.83,1.0,201.0,,,,,,,[],,,,,,87.9,0.0,u,0.0,True,509.30000001192093,31.0,60.0,40.0,False,,389.38942590868317,[],"[768, 432]",ColorTask,120.0,84.0,,,HRV,HRV_0109,2022-11-30 18:03:37
,wl-rdm,201,530140,0.0-8.84-0.84,1.0,202.0,,,,,,,[],,,,,,56.4,1.0,u,0.0,False,797.1999999880791,48.0,60.0,40.0,False,,215.783942155972,[],"[768, 432]",ColorTask,119.0,85.0,,,HRV,HRV_0109,2022-11-30 18:03:37
,wl-rdm,202,532338,0.0-8.85-0.85,1.0,203.0,,,,,,,[],,,,,,50.0,1.0,u,0.0,False,801.8000000119209,49.0,60.0,40.0,False,,309.6798623504559,[],"[768, 432]",ColorTask,118.0,86.0,,,HRV,HRV_0109,2022-11-30 18:03:37
,wl-rdm,203,534569,0.0-8.86-0.86,1.0,204.0,,,,,,,[],,,,,,53.2,0.0,u,0.0,True,886.6000000238419,54.0,60.0,40.0,False,,256.6545501915353,[],"[768, 432]",ColorTask,119.0,87.0,,,HRV,HRV_0109,2022-11-30 18:03:37
,wl-rdm,204,536734,0.0-8.87-0.87,1.0,205.0,,,,,,,[],,,,,,50.0,1.0,u,0.0,False,711.5999999642372,43.0,60.0,40.0,False,,368.89041244487134,[],"[768, 432]",ColorTask,118.0,88.0,,,HRV,HRV_0109,2022-11-30 18:03:37
,wl-rdm,205,538666,0.0-8.88-0.88,1.0,206.0,,,,,,,[],,,,,,53.2,0.0,i,1.0,False,455.7999999523163,28.0,60.0,40.0,False,,397.0634597128342,[],"[768, 432]",ColorTask,117.0,89.0,,,HRV,HRV_0109,2022-11-30 18:03:37
,wl-rdm,206,540547,0.0-8.89-0.89,1.0,207.0,,,,,,,[],,,,,,87.9,0.0,u,0.0,True,582.5000000596046,35.0,60.0,40.0,False,,230.9318141452668,[],"[768, 432]",ColorTask,118.0,90.0,,,HRV,HRV_0109,2022-11-30 18:03:37
,wl-rdm,207,542412,0.0-8.90-0.90,1.0,208.0,,,,,,,[],,,,,,87.9,1.0,i,1.0,True,573.1999999880791,35.0,60.0,40.0,False,,207.9462894646743,[],"[768, 432]",ColorTask,119.0,91.0,,,HRV,HRV_0109,2022-11-30 18:03:37
,wl-rdm,208,544344,0.0-8.91-0.91,1.0,209.0,,,,,,,[],,,,,,62.5,0.0,u,0.0,True,594.1000000238419,36.0,60.0,40.0,False,,258.78572687132043,[],"[768, 432]",ColorTask,120.0,92.0,,,HRV,HRV_0109,2022-11-30 18:03:37
,wl-rdm,209,546208,0.0-8.92-0.92,1.0,210.0,,,,,,,[],,,,,,73.6,1.0,i,1.0,True,553.5,34.0,60.0,40.0,False,,232.62399861695155,[],"[768, 432]",ColorTask,121.0,93.0,,,HRV,HRV_0109,2022-11-30 18:03:37
,wl-rdm,210,548040,0.0-8.93-0.93,1.0,211.0,,,,,,,[],,,,,,87.9,1.0,i,1.0,True,485.99999994039536,30.0,60.0,40.0,False,,254.19834069085113,[],"[768, 432]",ColorTask,122.0,94.0,,,HRV,HRV_0109,2022-11-30 18:03:37
,wl-rdm,211,549905,0.0-8.94-0.94,1.0,212.0,,,,,,,[],,,,,,73.6,0.0,u,0.0,True,493.30000001192093,30.0,60.0,40.0,False,,285.2540728653169,[],"[768, 432]",ColorTask,123.0,95.0,,,HRV,HRV_0109,2022-11-30 18:03:37
,wl-rdm,212,551737,0.0-8.95-0.95,1.0,213.0,,,,,,,[],,,,,,73.6,0.0,u,0.0,True,509.39999997615814,31.0,60.0,40.0,False,,241.7901016043166,[],"[768, 432]",ColorTask,124.0,96.0,,,HRV,HRV_0109,2022-11-30 18:03:37
,wl-rdm,213,553602,0.0-8.96-0.96,1.0,214.0,,,,,,,[],,,,,,87.9,1.0,i,1.0,True,552.8000000119209,34.0,60.0,40.0,False,,221.00285668680016,[],"[768, 432]",ColorTask,125.0,97.0,,,HRV,HRV_0109,2022-11-30 18:03:37
,wl-rdm,214,555566,0.0-8.97-0.97,1.0,215.0,,,,,,,[],,,,,,50.0,0.0,u,0.0,True,511.60000002384186,31.0,60.0,40.0,False,,368.9499449049812,[],"[768, 432]",ColorTask,126.0,98.0,,,HRV,HRV_0109,2022-11-30 18:03:37
,wl-rdm,215,557381,0.0-8.98-0.98,1.0,216.0,,,,,,,[],,,,,,62.5,1.0,i,1.0,True,488.5,30.0,60.0,40.0,False,,249.47595955101355,[],"[768, 432]",ColorTask,127.0,99.0,,,HRV,HRV_0109,2022-11-30 18:03:37
,wl-rdm,216,559214,0.0-8.99-0.99,1.0,217.0,,,,,,,[],,,,,,53.2,1.0,i,1.0,True,446.5,27.0,60.0,40.0,False,,302.1098135811596,[],"[768, 432]",ColorTask,128.0,100.0,,,HRV,HRV_0109,2022-11-30 18:03:37
,wl-rdm,217,561061,0.0-8.100-0.100,1.0,218.0,,,,,,,[],,,,,,53.2,0.0,i,1.0,False,495.9000000357628,30.0,60.0,40.0,False,,277.4004040472119,[],"[768, 432]",ColorTask,127.0,101.0,,,HRV,HRV_0109,2022-11-30 18:03:37
,wl-rdm,218,562793,0.0-8.101-0.101,1.0,219.0,,,,,,,[],,,,,,50.0,1.0,i,1.0,True,426.10000002384186,26.0,60.0,40.0,False,,223.11586503890268,[],"[768, 432]",ColorTask,128.0,102.0,,,HRV,HRV_0109,2022-11-30 18:03:37
,wl-rdm,219,564741,0.0-8.102-0.102,1.0,220.0,,,,,,,[],,,,,,62.5,1.0,i,1.0,True,571.5000000596046,35.0,60.0,40.0,False,,295.04019113493786,[],"[768, 432]",ColorTask,129.0,103.0,,,HRV,HRV_0109,2022-11-30 18:03:37
,wl-rdm,220,566573,0.0-8.103-0.103,1.0,221.0,,,,,,,[],,,,,,73.6,0.0,u,0.0,True,453.80000001192093,28.0,60.0,40.0,False,,291.57124072755835,[],"[768, 432]",ColorTask,130.0,104.0,,,HRV,HRV_0109,2022-11-30 18:03:37
,wl-rdm,221,568398,0.0-8.104-0.104,1.0,222.0,,,,,,,[],,,,,,62.5,0.0,u,0.0,True,481.2999999523163,29.0,60.0,40.0,False,,249.87894924128878,[],"[768, 432]",ColorTask,131.0,105.0,,,HRV,HRV_0109,2022-11-30 18:03:37
,wl-rdm,222,570852,0.0-8.105-0.105,1.0,223.0,,,,,,,[],,,,,,53.2,1.0,u,0.0,False,1088.699999988079,66.0,60.0,40.0,False,,284.38158193129834,[],"[768, 432]",ColorTask,130.0,106.0,,,HRV,HRV_0109,2022-11-30 18:03:37
,wl-rdm,223,572684,0.0-8.106-0.106,1.0,224.0,,,,,,,[],,,,,,87.9,1.0,i,1.0,True,474.10000002384186,29.0,60.0,40.0,False,,275.1308707933193,[],"[768, 432]",ColorTask,131.0,107.0,,,HRV,HRV_0109,2022-11-30 18:03:37
,wl-rdm,224,574632,0.0-8.107-0.107,1.0,225.0,,,,,,,[],,,,,,53.2,1.0,i,1.0,True,553.3999999761581,34.0,60.0,40.0,False,,308.960127646484,[],"[768, 432]",ColorTask,132.0,108.0,,,HRV,HRV_0109,2022-11-30 18:03:37
,wl-html-button-response,225,576761,0.0-9.0-0.0,,,,,,,,,,2121.199999988079,,0,,,,,,,,,,,,,,,,,,,,<h3>End of this session. Thank you!</h3><br>,['Close window'],HRV,HRV_0109,2022-11-30 18:03:37
