success,trial_type,trial_index,time_elapsed,internal_node_id,Block,TrialNumber,TrialTime,trialTimeDiff,FPS_avg,FPS_med,FPS_mode,TrialDur,winResizeTime,rt,block,button_pressed,MotCoh,MotDir,ColCoh,Color,ChoiceKey,Choice,Accuracy,RT,nFrames,FPS,PPD,missTrial,missTrialMsg,onsetDelay,fullScreenExitTime,canvCenter,TrialType,Score,BlockTrial,stimulus,button_labels,exp,subjectId,date
True,fullscreen,0,1885,0.0-0.0,0.0,1.0,,,,,,,,,,,,,,,,,,,,,,,,,,,,,,,,HRV,HRV_0160,2022-11-30 18:25:00
,wl-check-fps,1,6895,0.0-1.0,0.0,2.0,"[2603.4, 2619.6, 2636.3, 2653, 2669.9, 2686.6, 2703, 2719.6, 2736.3, 2753.1, 2769.6, 2786.3, 2803.1, 2819.8, 2836.5, 2853.1, 2869.7, 2886.4, 2903.1, 2919.9, 2936.5, 2953.1, 2969.9, 2986.6, 3003.2, 3019.9, 3036.5, 3053.3, 3069.9, 3086.6, 3103.2, 3119.9, 3136.6, 3153.3, 3170.2, 3186.7, 3203.4, 3220, 3236.7, 3253.4, 3270.1, 3286.7, 3303.5, 3320.2, 3336.8, 3353.5, 3370.2, 3386.8, 3403.4, 3420.2, 3437, 3453.7, 3470.3, 3487, 3503.7, 3520.3, 3536.9, 3553.6, 3570.3, 3586.9, 3603.7, 3620.3, 3637, 3653.7, 3670.5, 3687, 3703.7, 3720.4, 3737.1, 3753.8, 3770.4, 3787.2, 3804, 3820.6, 3837.3, 3854, 3870.6, 3887.5, 3904, 3920.6, 3937.6, 3954.1, 3970.8, 3987.4, 4004, 4020.7, 4037.4, 4054.1, 4070.7, 4087.3, 4104.1, 4120.8, 4137.4, 4154.1, 4170.8, 4187.5, 4204.2, 4220.8, 4237.6, 4254.2, 4270.9, 4287.6, 4304.2, 4320.9, 4337.6, 4354.3, 4371, 4387.6, 4404.4, 4421, 4437.7, 4454.4, 4471, 4487.8, 4504.5, 4521.3, 4538, 4554.6, 4571.3, 4588, 4604.7, 4621.3, 4638.4, 4655, 4671.4, 4688, 4704.8, 4721.5, 4738.1, 4754.7, 4771.5, 4788.2, 4804.9, 4821.5, 4838.2, 4854.8, 4871.5, 4888.2, 4904.9, 4921.6, 4938.3, 4955, 4971.7, 4988.3, 5005, 5021.7, 5038.4, 5054.9, 5071.7, 5088.5, 5105.1, 5121.8, 5138.5, 5155, 5171.8, 5188.6, 5205.2, 5221.9, 5238.6, 5255.2, 5271.9, 5288.6, 5305.3, 5321.9, 5338.6, 5355.4, 5372.1, 5388.7, 5405.3, 5421.9, 5438.7, 5455.3, 5472, 5488.9, 5505.7, 5522.5, 5539.1, 5555.8, 5572.3, 5589.1, 5605.8, 5622.5, 5639.2, 5658.2, 5672.4, 5688.9, 5705.5, 5722.3, 5739.1, 5755.7, 5772.4, 5789.1, 5805.7, 5822.3, 5839, 5855.7, 5872.2, 5889.1, 5905.8, 5922.4, 5939.1, 5955.8, 5972.5, 5989, 6005.8, 6022.4, 6039.2, 6055.9, 6072.6, 6089.2, 6105.9, 6122.6, 6139.3, 6155.9, 6172.7, 6189.3, 6206.1, 6222.8, 6239.4, 6256.3, 6273, 6289.3, 6306.1, 6322.7, 6339.5, 6356.4, 6373.2, 6389.9, 6406.4, 6423.2, 6439.8, 6456.3, 6473.2, 6489.9, 6506.2, 6523.1, 6539.6, 6556.4, 6573, 6589.6, 6606.4, 6623, 6639.7, 6656.4, 6673.1, 6689.7, 6706.5, 6723.9, 6739.9, 6756.7, 6773.1, 6790, 6806.7, 6823.4, 6840, 6856.7, 6873.5, 6890.3, 6906.8, 6923.4, 6940.1, 6956.8, 6973.4, 6990.4, 7007.2, 7024.1, 7040.4, 7057.4, 7073.5, 7090.3, 7106.8, 7123.4, 7140.2, 7156.9, 7173.7, 7190.2, 7206.9, 7223.7, 7240.2, 7257, 7273.8, 7290.3, 7307.1, 7323.8, 7340.5, 7357.1, 7373.9, 7390.5, 7407.1, 7423.7, 7440.6, 7457.3, 7474, 7490.6, 7507.1, 7523.7, 7540.3, 7557.1, 7573.7, 7590.4]","[4.6, 16.2, 16.7, 16.7, 16.9, 16.7, 16.4, 16.6, 16.7, 16.8, 16.5, 16.7, 16.8, 16.7, 16.7, 16.6, 16.6, 16.7, 16.7, 16.8, 16.6, 16.6, 16.8, 16.7, 16.6, 16.7, 16.6, 16.8, 16.6, 16.7, 16.6, 16.7, 16.7, 16.7, 16.9, 16.5, 16.7, 16.6, 16.7, 16.7, 16.7, 16.6, 16.8, 16.7, 16.6, 16.7, 16.7, 16.6, 16.6, 16.8, 16.8, 16.7, 16.6, 16.7, 16.7, 16.6, 16.6, 16.7, 16.7, 16.6, 16.8, 16.6, 16.7, 16.7, 16.8, 16.5, 16.7, 16.7, 16.7, 16.7, 16.6, 16.8, 16.8, 16.6, 16.7, 16.7, 16.6, 16.9, 16.5, 16.6, 17, 16.5, 16.7, 16.6, 16.6, 16.7, 16.7, 16.7, 16.6, 16.6, 16.8, 16.7, 16.6, 16.7, 16.7, 16.7, 16.7, 16.6, 16.8, 16.6, 16.7, 16.7, 16.6, 16.7, 16.7, 16.7, 16.7, 16.6, 16.8, 16.6, 16.7, 16.7, 16.6, 16.8, 16.7, 16.8, 16.7, 16.6, 16.7, 16.7, 16.7, 16.6, 17.1, 16.6, 16.4, 16.6, 16.8, 16.7, 16.6, 16.6, 16.8, 16.7, 16.7, 16.6, 16.7, 16.6, 16.7, 16.7, 16.7, 16.7, 16.7, 16.7, 16.7, 16.6, 16.7, 16.7, 16.7, 16.5, 16.8, 16.8, 16.6, 16.7, 16.7, 16.5, 16.8, 16.8, 16.6, 16.7, 16.7, 16.6, 16.7, 16.7, 16.7, 16.6, 16.7, 16.8, 16.7, 16.6, 16.6, 16.6, 16.8, 16.6, 16.7, 16.9, 16.8, 16.8, 16.6, 16.7, 16.5, 16.8, 16.7, 16.7, 16.7, 19, 14.2, 16.5, 16.6, 16.8, 16.8, 16.6, 16.7, 16.7, 16.6, 16.6, 16.7, 16.7, 16.5, 16.9, 16.7, 16.6, 16.7, 16.7, 16.7, 16.5, 16.8, 16.6, 16.8, 16.7, 16.7, 16.6, 16.7, 16.7, 16.7, 16.6, 16.8, 16.6, 16.8, 16.7, 16.6, 16.9, 16.7, 16.3, 16.8, 16.6, 16.8, 16.9, 16.8, 16.7, 16.5, 16.8, 16.6, 16.5, 16.9, 16.7, 16.3, 16.9, 16.5, 16.8, 16.6, 16.6, 16.8, 16.6, 16.7, 16.7, 16.7, 16.6, 16.8, 17.4, 16, 16.8, 16.4, 16.9, 16.7, 16.7, 16.6, 16.7, 16.8, 16.8, 16.5, 16.6, 16.7, 16.7, 16.6, 17, 16.8, 16.9, 16.3, 17, 16.1, 16.8, 16.5, 16.6, 16.8, 16.7, 16.8, 16.5, 16.7, 16.8, 16.5, 16.8, 16.8, 16.5, 16.8, 16.7, 16.7, 16.6, 16.8, 16.6, 16.6, 16.6, 16.9, 16.7, 16.7, 16.6, 16.5, 16.6, 16.6, 16.8, 16.6, 16.7]",60.0,60.0,60.0,5008.4,[],,,,,,,,,,,,,,,,,,,,,,,,,HRV,HRV_0160,2022-11-30 18:25:00
,wl-html-keyboard-response,2,16776,0.0-2.0-0.0,0.0,3.0,,,,,,,,7865.700000047684,0.0,0,,,,,,,,,,,,,,,,,,,,,,HRV,HRV_0160,2022-11-30 18:25:00
,wl-rdm,3,24494,0.0-3.0-0.0,0.0,4.0,,,,,,,[],,,,0.0,0.0,87.9,0.0,u,0.0,True,2125.7000000476837,128.0,60.0,40.0,False,,3000.0,[],"[1280, 720]",ColorTask_Demo,,,,,HRV,HRV_0160,2022-11-30 18:25:00
,wl-rdm,4,29847,0.0-3.0-1.0,0.0,5.0,,,,,,,[],,,,0.0,0.0,87.9,1.0,i,1.0,True,1274.1999999284744,77.0,60.0,40.0,False,,2000.0,[],"[1280, 720]",ColorTask_Demo,,,,,HRV,HRV_0160,2022-11-30 18:25:00
,wl-html-keyboard-response,5,34181,0.0-3.0-2.0,0.0,6.0,,,,,,,,2328.600000023842,0.0,1,,,,,,,,,,,,,,,,,,,,,,HRV,HRV_0160,2022-11-30 18:25:00
,wl-html-keyboard-response,6,41477,0.0-4.0-0.0,0.0,7.0,,,,,,,,5289.699999928474,0.0,0,,,,,,,,,,,,,,,,,,,,,,HRV,HRV_0160,2022-11-30 18:25:00
,wl-html-keyboard-response,7,48908,0.0-5.0-0.0,0.0,8.0,,,,,,,,5413.100000023842,0.0,0,,,,,,,,,,,,,,,,,,,,,,HRV,HRV_0160,2022-11-30 18:25:00
,wl-rdm,8,51382,0.0-6.0-0.0,0.0,9.0,,,,,,,[],,,,,,53.2,1.0,u,0.0,False,1164.4000000953674,70.0,60.0,40.0,False,,236.11916525192882,[],"[1280, 720]",ColorTask,-1.0,1.0,,,HRV,HRV_0160,2022-11-30 18:25:00
,wl-rdm,9,53650,0.0-6.1-0.1,0.0,10.0,,,,,,,[],,,,,,56.4,0.0,u,0.0,True,914.5,55.0,60.0,40.0,False,,285.1627803271756,[],"[1280, 720]",ColorTask,0.0,2.0,,,HRV,HRV_0160,2022-11-30 18:25:00
,wl-rdm,10,55635,0.0-6.2-0.2,0.0,11.0,,,,,,,[],,,,,,56.4,0.0,i,1.0,False,668.1000000238419,41.0,60.0,40.0,False,,247.64197736423196,[],"[1280, 720]",ColorTask,-1.0,3.0,,,HRV,HRV_0160,2022-11-30 18:25:00
,wl-rdm,11,57704,0.0-6.3-0.3,0.0,12.0,,,,,,,[],,,,,,73.6,1.0,i,1.0,True,616.9000000953674,37.0,60.0,40.0,False,,384.6407683221345,[],"[1280, 720]",ColorTask,0.0,4.0,,,HRV,HRV_0160,2022-11-30 18:25:00
,wl-rdm,12,60073,0.0-6.4-0.4,0.0,13.0,,,,,,,[],,,,,,50.0,0.0,u,0.0,True,1013.3000000715256,61.0,60.0,40.0,False,,291.79681379018587,[],"[1280, 720]",ColorTask,1.0,5.0,,,HRV,HRV_0160,2022-11-30 18:25:00
,wl-rdm,13,62092,0.0-6.5-0.5,0.0,14.0,,,,,,,[],,,,,,87.9,0.0,u,0.0,True,726.1000000238419,44.0,60.0,40.0,False,,221.78253309308838,[],"[1280, 720]",ColorTask,2.0,6.0,,,HRV,HRV_0160,2022-11-30 18:25:00
,wl-rdm,14,64226,0.0-6.6-0.6,0.0,15.0,,,,,,,[],,,,,,62.5,1.0,i,1.0,True,729.2999999523163,44.0,60.0,40.0,False,,344.80956681458395,[],"[1280, 720]",ColorTask,3.0,7.0,,,HRV,HRV_0160,2022-11-30 18:25:00
,wl-rdm,15,66479,0.0-6.7-0.7,0.0,16.0,,,,,,,[],,,,,,50.0,0.0,i,1.0,False,931.3999999761581,57.0,60.0,40.0,False,,246.51061287953746,[],"[1280, 720]",ColorTask,2.0,8.0,,,HRV,HRV_0160,2022-11-30 18:25:00
,wl-rdm,16,68914,0.0-6.8-0.8,0.0,17.0,,,,,,,[],,,,,,56.4,0.0,u,0.0,True,1137.0999999046326,69.0,60.0,40.0,False,,227.14603406041434,[],"[1280, 720]",ColorTask,3.0,9.0,,,HRV,HRV_0160,2022-11-30 18:25:00
,wl-rdm,17,70868,0.0-6.9-0.9,0.0,18.0,,,,,,,[],,,,,,87.9,1.0,i,1.0,True,619.1999999284744,38.0,60.0,40.0,False,,222.13108922212749,[],"[1280, 720]",ColorTask,4.0,10.0,,,HRV,HRV_0160,2022-11-30 18:25:00
,wl-rdm,18,73201,0.0-6.10-0.10,0.0,19.0,,,,,,,[],,,,,,62.5,1.0,i,1.0,True,957.6999999284744,58.0,60.0,40.0,False,,305.0423781576566,[],"[1280, 720]",ColorTask,5.0,11.0,,,HRV,HRV_0160,2022-11-30 18:25:00
,wl-rdm,19,75203,0.0-6.11-0.11,0.0,20.0,,,,,,,[],,,,,,87.9,0.0,u,0.0,True,618.7000000476837,37.0,60.0,40.0,False,,305.9551944035759,[],"[1280, 720]",ColorTask,6.0,12.0,,,HRV,HRV_0160,2022-11-30 18:25:00
,wl-rdm,20,77304,0.0-6.12-0.12,0.0,21.0,,,,,,,[],,,,,,62.5,0.0,u,0.0,True,705.6999999284744,43.0,60.0,40.0,False,,317.24802648677013,[],"[1280, 720]",ColorTask,7.0,13.0,,,HRV,HRV_0160,2022-11-30 18:25:00
,wl-rdm,21,79323,0.0-6.13-0.13,0.0,22.0,,,,,,,[],,,,,,87.9,1.0,i,1.0,True,615.0,37.0,60.0,40.0,False,,341.02922631864186,[],"[1280, 720]",ColorTask,8.0,14.0,,,HRV,HRV_0160,2022-11-30 18:25:00
,wl-rdm,22,81474,0.0-6.14-0.14,0.0,23.0,,,,,,,[],,,,,,56.4,1.0,i,1.0,True,686.6000000238419,42.0,60.0,40.0,False,,399.4265557523909,[],"[1280, 720]",ColorTask,9.0,15.0,,,HRV,HRV_0160,2022-11-30 18:25:00
,wl-rdm,23,83709,0.0-6.15-0.15,0.0,24.0,,,,,,,[],,,,,,62.5,1.0,i,1.0,True,942.1000000238419,57.0,60.0,40.0,False,,227.98896906902294,[],"[1280, 720]",ColorTask,10.0,16.0,,,HRV,HRV_0160,2022-11-30 18:25:00
,wl-rdm,24,85928,0.0-6.16-0.16,0.0,25.0,,,,,,,[],,,,,,56.4,1.0,u,0.0,False,886.7000000476837,54.0,60.0,40.0,False,,256.6270299932813,[],"[1280, 720]",ColorTask,9.0,17.0,,,HRV,HRV_0160,2022-11-30 18:25:00
,wl-rdm,25,88314,0.0-6.17-0.17,0.0,26.0,,,,,,,[],,,,,,50.0,0.0,i,1.0,False,1053.7000000476837,64.0,60.0,40.0,False,,258.62610815482554,[],"[1280, 720]",ColorTask,8.0,18.0,,,HRV,HRV_0160,2022-11-30 18:25:00
,wl-rdm,26,90148,0.0-6.18-0.18,0.0,27.0,,,,,,,[],,,,,,73.6,1.0,i,1.0,True,547.7000000476837,33.0,60.0,40.0,False,,232.88395009023534,[],"[1280, 720]",ColorTask,9.0,19.0,,,HRV,HRV_0160,2022-11-30 18:25:00
,wl-rdm,27,92567,0.0-6.19-0.19,0.0,28.0,,,,,,,[],,,,,,53.2,0.0,i,1.0,False,986.6000000238419,60.0,60.0,40.0,False,,364.8836181245751,[],"[1280, 720]",ColorTask,8.0,20.0,,,HRV,HRV_0160,2022-11-30 18:25:00
,wl-rdm,28,94702,0.0-6.20-0.20,0.0,29.0,,,,,,,[],,,,,,56.4,1.0,u,0.0,False,843.8000000715256,51.0,60.0,40.0,False,,229.04832016293406,[],"[1280, 720]",ColorTask,7.0,21.0,,,HRV,HRV_0160,2022-11-30 18:25:00
,wl-rdm,29,96671,0.0-6.21-0.21,0.0,30.0,,,,,,,[],,,,,,62.5,0.0,u,0.0,True,652.3000000715256,40.0,60.0,40.0,False,,249.483283786664,[],"[1280, 720]",ColorTask,8.0,22.0,,,HRV,HRV_0160,2022-11-30 18:25:00
,wl-rdm,30,98722,0.0-6.22-0.22,0.0,31.0,,,,,,,[],,,,,,62.5,1.0,i,1.0,True,648.1000000238419,39.0,60.0,40.0,False,,334.9782726220189,[],"[1280, 720]",ColorTask,9.0,23.0,,,HRV,HRV_0160,2022-11-30 18:25:00
,wl-rdm,31,100540,0.0-6.23-0.23,0.0,32.0,,,,,,,[],,,,,,87.9,1.0,i,1.0,True,527.8000000715256,32.0,60.0,40.0,False,,220.48396985771979,[],"[1280, 720]",ColorTask,10.0,24.0,,,HRV,HRV_0160,2022-11-30 18:25:00
,wl-rdm,32,102525,0.0-6.24-0.24,0.0,33.0,,,,,,,[],,,,,,73.6,0.0,u,0.0,True,630.2999999523163,38.0,60.0,40.0,False,,289.01753342066735,[],"[1280, 720]",ColorTask,11.0,25.0,,,HRV,HRV_0160,2022-11-30 18:25:00
,wl-rdm,33,104727,0.0-6.25-0.25,0.0,34.0,,,,,,,[],,,,,,62.5,0.0,u,0.0,True,924.0,55.0,60.0,40.0,False,,200.7076046086362,[],"[1280, 720]",ColorTask,12.0,26.0,,,HRV,HRV_0160,2022-11-30 18:25:00
,wl-rdm,34,106595,0.0-6.26-0.26,0.0,35.0,,,,,,,[],,,,,,73.6,1.0,i,1.0,True,518.5,32.0,60.0,40.0,False,,269.65946168322694,[],"[1280, 720]",ColorTask,13.0,27.0,,,HRV,HRV_0160,2022-11-30 18:25:00
,wl-rdm,35,108964,0.0-6.27-0.27,0.0,36.0,,,,,,,[],,,,,,50.0,0.0,i,1.0,False,1062.1999999284744,64.0,60.0,40.0,False,,240.3605726397856,[],"[1280, 720]",ColorTask,12.0,28.0,,,HRV,HRV_0160,2022-11-30 18:25:00
,wl-rdm,36,111432,0.0-6.28-0.28,0.0,37.0,,,,,,,[],,,,,,62.5,1.0,i,1.0,True,1085.0000001192093,66.0,60.0,40.0,False,,310.1725352965817,[],"[1280, 720]",ColorTask,13.0,29.0,,,HRV,HRV_0160,2022-11-30 18:25:00
,wl-rdm,37,113784,0.0-6.29-0.29,0.0,38.0,,,,,,,[],,,,,,50.0,0.0,i,1.0,False,937.4000000953674,57.0,60.0,40.0,False,,343.3200277665087,[],"[1280, 720]",ColorTask,12.0,30.0,,,HRV,HRV_0160,2022-11-30 18:25:00
,wl-rdm,38,115753,0.0-6.30-0.30,0.0,39.0,,,,,,,[],,,,,,50.0,1.0,i,1.0,True,626.4999998807907,38.0,60.0,40.0,False,,271.60428573636284,[],"[1280, 720]",ColorTask,13.0,31.0,,,HRV,HRV_0160,2022-11-30 18:25:00
,wl-rdm,39,117704,0.0-6.31-0.31,0.0,40.0,,,,,,,[],,,,,,73.6,0.0,u,0.0,True,667.1999999284744,40.0,60.0,40.0,False,,223.1858076923422,[],"[1280, 720]",ColorTask,14.0,32.0,,,HRV,HRV_0160,2022-11-30 18:25:00
,wl-rdm,40,119622,0.0-6.32-0.32,0.0,41.0,,,,,,,[],,,,,,62.5,1.0,i,1.0,True,634.5,39.0,60.0,40.0,False,,211.70704063052838,[],"[1280, 720]",ColorTask,15.0,33.0,,,HRV,HRV_0160,2022-11-30 18:25:00
,wl-rdm,41,122142,0.0-6.33-0.33,0.0,42.0,,,,,,,[],,,,,,53.2,0.0,i,1.0,False,1099.2999999523163,66.0,60.0,40.0,False,,350.6913816872226,[],"[1280, 720]",ColorTask,14.0,34.0,,,HRV,HRV_0160,2022-11-30 18:25:00
,wl-rdm,42,124494,0.0-6.34-0.34,0.0,43.0,,,,,,,[],,,,,,62.5,0.0,u,0.0,True,1042.5,63.0,60.0,40.0,False,,248.36230064153352,[],"[1280, 720]",ColorTask,15.0,35.0,,,HRV,HRV_0160,2022-11-30 18:25:00
,wl-rdm,43,126912,0.0-6.35-0.35,0.0,44.0,,,,,,,[],,,,,,56.4,0.0,i,1.0,False,1000.1999999284744,60.0,60.0,40.0,False,,359.4281987446544,[],"[1280, 720]",ColorTask,14.0,36.0,,,HRV,HRV_0160,2022-11-30 18:25:00
,wl-rdm,44,128864,0.0-6.36-0.36,0.0,45.0,,,,,,,[],,,,,,87.9,0.0,u,0.0,True,608.0,37.0,60.0,40.0,False,,278.0756200130488,[],"[1280, 720]",ColorTask,15.0,37.0,,,HRV,HRV_0160,2022-11-30 18:25:00
,wl-rdm,45,130832,0.0-6.37-0.37,0.0,46.0,,,,,,,[],,,,,,50.0,1.0,i,1.0,True,657.8000000715256,40.0,60.0,40.0,False,,237.76161056509727,[],"[1280, 720]",ColorTask,16.0,38.0,,,HRV,HRV_0160,2022-11-30 18:25:00
,wl-rdm,46,132884,0.0-6.38-0.38,0.0,47.0,,,,,,,[],,,,,,50.0,1.0,i,1.0,True,747.8000000715256,45.0,60.0,40.0,False,,243.27714438233,[],"[1280, 720]",ColorTask,17.0,39.0,,,HRV,HRV_0160,2022-11-30 18:25:00
,wl-rdm,47,134852,0.0-6.39-0.39,0.0,48.0,,,,,,,[],,,,,,87.9,1.0,i,1.0,True,580.1000000238419,35.0,60.0,40.0,False,,330.1690487377675,[],"[1280, 720]",ColorTask,18.0,40.0,,,HRV,HRV_0160,2022-11-30 18:25:00
,wl-rdm,48,137254,0.0-6.40-0.40,0.0,49.0,,,,,,,[],,,,,,53.2,1.0,i,1.0,True,1095.2000000476837,66.0,60.0,40.0,False,,247.23880035681492,[],"[1280, 720]",ColorTask,19.0,41.0,,,HRV,HRV_0160,2022-11-30 18:25:00
,wl-rdm,49,139256,0.0-6.41-0.41,0.0,50.0,,,,,,,[],,,,,,73.6,1.0,i,1.0,True,625.5,38.0,60.0,40.0,False,,302.7174248115834,[],"[1280, 720]",ColorTask,20.0,42.0,,,HRV,HRV_0160,2022-11-30 18:25:00
,wl-rdm,50,141691,0.0-6.42-0.42,0.0,51.0,,,,,,,[],,,,,,53.2,0.0,i,1.0,False,1016.8000000715256,61.0,60.0,40.0,False,,350.34616664426284,[],"[1280, 720]",ColorTask,19.0,43.0,,,HRV,HRV_0160,2022-11-30 18:25:00
,wl-rdm,51,143760,0.0-6.43-0.43,0.0,52.0,,,,,,,[],,,,,,62.5,1.0,i,1.0,True,657.7000000476837,41.0,60.0,40.0,False,,346.11585919793833,[],"[1280, 720]",ColorTask,20.0,44.0,,,HRV,HRV_0160,2022-11-30 18:25:00
,wl-rdm,52,145812,0.0-6.44-0.44,0.0,53.0,,,,,,,[],,,,,,87.9,1.0,i,1.0,True,585.1000000238419,36.0,60.0,40.0,False,,389.8959189766865,[],"[1280, 720]",ColorTask,21.0,45.0,,,HRV,HRV_0160,2022-11-30 18:25:00
,wl-rdm,53,147930,0.0-6.45-0.45,0.0,54.0,,,,,,,[],,,,,,56.4,1.0,i,1.0,True,700.3999999761581,42.0,60.0,40.0,False,,364.69133764151684,[],"[1280, 720]",ColorTask,22.0,46.0,,,HRV,HRV_0160,2022-11-30 18:25:00
,wl-rdm,54,149965,0.0-6.46-0.46,0.0,55.0,,,,,,,[],,,,,,73.6,0.0,u,0.0,True,705.8999999761581,43.0,60.0,40.0,False,,261.78124195588157,[],"[1280, 720]",ColorTask,23.0,47.0,,,HRV,HRV_0160,2022-11-30 18:25:00
,wl-rdm,55,152083,0.0-6.47-0.47,0.0,56.0,,,,,,,[],,,,,,62.5,0.0,u,0.0,True,698.2999999523163,42.0,60.0,40.0,False,,352.064303270069,[],"[1280, 720]",ColorTask,24.0,48.0,,,HRV,HRV_0160,2022-11-30 18:25:00
,wl-rdm,56,154302,0.0-6.48-0.48,0.0,57.0,,,,,,,[],,,,,,50.0,1.0,u,0.0,False,795.6000000238419,48.0,60.0,40.0,False,,352.9608370263426,[],"[1280, 720]",ColorTask,23.0,49.0,,,HRV,HRV_0160,2022-11-30 18:25:00
,wl-rdm,57,156237,0.0-6.49-0.49,0.0,58.0,,,,,,,[],,,,,,73.6,1.0,i,1.0,True,630.5,38.0,60.0,40.0,False,,235.07443261201865,[],"[1280, 720]",ColorTask,24.0,50.0,,,HRV,HRV_0160,2022-11-30 18:25:00
,wl-rdm,58,158540,0.0-6.50-0.50,0.0,59.0,,,,,,,[],,,,,,62.5,0.0,i,1.0,False,1001.1000000238419,61.0,60.0,40.0,False,,230.79830511432405,[],"[1280, 720]",ColorTask,23.0,51.0,,,HRV,HRV_0160,2022-11-30 18:25:00
,wl-rdm,59,160624,0.0-6.51-0.51,0.0,60.0,,,,,,,[],,,,,,73.6,0.0,u,0.0,True,771.8000000715256,47.0,60.0,40.0,False,,248.44390928827886,[],"[1280, 720]",ColorTask,24.0,52.0,,,HRV,HRV_0160,2022-11-30 18:25:00
,wl-rdm,60,162575,0.0-6.52-0.52,0.0,61.0,,,,,,,[],,,,,,53.2,1.0,i,1.0,True,594.4000000953674,34.0,60.0,40.0,False,,284.9406250685993,[],"[1280, 720]",ColorTask,25.0,53.0,,,HRV,HRV_0160,2022-11-30 18:25:00
,wl-rdm,61,164427,0.0-6.53-0.53,0.0,62.0,,,,,,,[],,,,,,53.2,1.0,i,1.0,True,579.2000000476837,35.0,60.0,40.0,False,,204.8675862561601,[],"[1280, 720]",ColorTask,26.0,54.0,,,HRV,HRV_0160,2022-11-30 18:25:00
,wl-rdm,62,166545,0.0-6.54-0.54,0.0,63.0,,,,,,,[],,,,,,56.4,0.0,i,1.0,False,757.6000000238419,46.0,60.0,40.0,False,,289.34914859564725,[],"[1280, 720]",ColorTask,25.0,55.0,,,HRV,HRV_0160,2022-11-30 18:25:00
,wl-rdm,63,168915,0.0-6.55-0.55,0.0,64.0,,,,,,,[],,,,,,62.5,1.0,i,1.0,True,1056.6000000238419,64.0,60.0,40.0,False,,233.84306999348425,[],"[1280, 720]",ColorTask,26.0,56.0,,,HRV,HRV_0160,2022-11-30 18:25:00
,wl-rdm,64,170933,0.0-6.56-0.56,0.0,65.0,,,,,,,[],,,,,,50.0,1.0,i,1.0,True,678.799999833107,40.0,60.0,40.0,False,,268.41741051212233,[],"[1280, 720]",ColorTask,27.0,57.0,,,HRV,HRV_0160,2022-11-30 18:25:00
,wl-rdm,65,173202,0.0-6.57-0.57,0.0,66.0,,,,,,,[],,,,,,56.4,0.0,u,0.0,True,986.0,59.0,60.0,40.0,False,,212.83508957040124,[],"[1280, 720]",ColorTask,28.0,58.0,,,HRV,HRV_0160,2022-11-30 18:25:00
,wl-rdm,66,175336,0.0-6.58-0.58,0.0,67.0,,,,,,,[],,,,,,53.2,1.0,i,1.0,True,829.5,50.0,60.0,40.0,False,,250.57367846305672,[],"[1280, 720]",ColorTask,29.0,59.0,,,HRV,HRV_0160,2022-11-30 18:25:00
,wl-rdm,67,177638,0.0-6.59-0.59,0.0,68.0,,,,,,,[],,,,,,50.0,1.0,i,1.0,True,986.5,60.0,60.0,40.0,False,,242.9258466982526,[],"[1280, 720]",ColorTask,30.0,60.0,,,HRV,HRV_0160,2022-11-30 18:25:00
,wl-rdm,68,179807,0.0-6.60-0.60,0.0,69.0,,,,,,,[],,,,,,50.0,1.0,u,0.0,False,723.1999999284744,44.0,60.0,40.0,False,,368.6843159655063,[],"[1280, 720]",ColorTask,29.0,61.0,,,HRV,HRV_0160,2022-11-30 18:25:00
,wl-rdm,69,181975,0.0-6.61-0.61,0.0,70.0,,,,,,,[],,,,,,56.4,1.0,i,1.0,True,881.6999999284744,53.0,60.0,40.0,False,,222.9100531267295,[],"[1280, 720]",ColorTask,30.0,62.0,,,HRV,HRV_0160,2022-11-30 18:25:00
,wl-rdm,70,184076,0.0-6.62-0.62,0.0,71.0,,,,,,,[],,,,,,62.5,0.0,u,0.0,True,652.2999999523163,40.0,60.0,40.0,False,,368.6648761278314,[],"[1280, 720]",ColorTask,31.0,63.0,,,HRV,HRV_0160,2022-11-30 18:25:00
,wl-rdm,71,186196,0.0-6.63-0.63,0.0,72.0,,,,,,,[],,,,,,50.0,0.0,u,0.0,True,775.8000000715256,47.0,60.0,40.0,False,,269.65018551622853,[],"[1280, 720]",ColorTask,32.0,64.0,,,HRV,HRV_0160,2022-11-30 18:25:00
,wl-rdm,72,188213,0.0-6.64-0.64,0.0,73.0,,,,,,,[],,,,,,73.6,0.0,u,0.0,True,658.7999999523163,40.0,60.0,40.0,False,,295.012347186929,[],"[1280, 720]",ColorTask,33.0,65.0,,,HRV,HRV_0160,2022-11-30 18:25:00
,wl-rdm,73,190349,0.0-6.65-0.65,0.0,74.0,,,,,,,[],,,,,,53.2,1.0,i,1.0,True,708.0999999046326,43.0,60.0,40.0,False,,356.0782002367753,[],"[1280, 720]",ColorTask,34.0,66.0,,,HRV,HRV_0160,2022-11-30 18:25:00
,wl-rdm,74,192451,0.0-6.66-0.66,0.0,75.0,,,,,,,[],,,,,,53.2,0.0,u,0.0,True,781.299999833107,47.0,60.0,40.0,False,,252.17347674055605,[],"[1280, 720]",ColorTask,35.0,67.0,,,HRV,HRV_0160,2022-11-30 18:25:00
,wl-rdm,75,194902,0.0-6.67-0.67,0.0,76.0,,,,,,,[],,,,,,62.5,0.0,u,0.0,True,1107.3999999761581,67.0,60.0,40.0,False,,269.4491377309929,[],"[1280, 720]",ColorTask,36.0,68.0,,,HRV,HRV_0160,2022-11-30 18:25:00
,wl-rdm,76,197054,0.0-6.68-0.68,0.0,77.0,,,,,,,[],,,,,,56.4,0.0,u,0.0,True,703.2999999523163,43.0,60.0,40.0,False,,374.36874919003407,[],"[1280, 720]",ColorTask,37.0,69.0,,,HRV,HRV_0160,2022-11-30 18:25:00
,wl-rdm,77,199156,0.0-6.69-0.69,0.0,78.0,,,,,,,[],,,,,,73.6,0.0,u,0.0,True,669.8999999761581,41.0,60.0,40.0,False,,357.68546136597433,[],"[1280, 720]",ColorTask,38.0,70.0,,,HRV,HRV_0160,2022-11-30 18:25:00
,wl-rdm,78,201075,0.0-6.70-0.70,0.0,79.0,,,,,,,[],,,,,,87.9,0.0,u,0.0,True,509.39999997615814,31.0,60.0,40.0,False,,344.84705145229543,[],"[1280, 720]",ColorTask,39.0,71.0,,,HRV,HRV_0160,2022-11-30 18:25:00
,wl-rdm,79,203010,0.0-6.71-0.71,0.0,80.0,,,,,,,[],,,,,,50.0,1.0,u,0.0,False,586.1000000238419,36.0,60.0,40.0,False,,273.32387208122515,[],"[1280, 720]",ColorTask,38.0,72.0,,,HRV,HRV_0160,2022-11-30 18:25:00
,wl-rdm,80,204894,0.0-6.72-0.72,0.0,81.0,,,,,,,[],,,,,,73.6,1.0,i,1.0,True,424.10000002384186,26.0,60.0,40.0,False,,369.32110583195447,[],"[1280, 720]",ColorTask,39.0,73.0,,,HRV,HRV_0160,2022-11-30 18:25:00
,wl-rdm,81,206662,0.0-6.73-0.73,0.0,82.0,,,,,,,[],,,,,,87.9,1.0,i,1.0,True,486.0,30.0,60.0,40.0,False,,208.4802501943736,[],"[1280, 720]",ColorTask,40.0,74.0,,,HRV,HRV_0160,2022-11-30 18:25:00
,wl-rdm,82,208681,0.0-6.74-0.74,0.0,83.0,,,,,,,[],,,,,,62.5,1.0,i,1.0,True,584.1000000238419,35.0,60.0,40.0,False,,378.299774403935,[],"[1280, 720]",ColorTask,41.0,75.0,,,HRV,HRV_0160,2022-11-30 18:25:00
,wl-rdm,83,210566,0.0-6.75-0.75,0.0,84.0,,,,,,,[],,,,,,87.9,1.0,i,1.0,True,465.2000000476837,28.0,60.0,40.0,False,,366.5795429232543,[],"[1280, 720]",ColorTask,42.0,76.0,,,HRV,HRV_0160,2022-11-30 18:25:00
,wl-rdm,84,212934,0.0-6.76-0.76,0.0,85.0,,,,,,,[],,,,,,73.6,0.0,u,0.0,True,1036.2000000476837,63.0,60.0,40.0,False,,264.33855004727434,[],"[1280, 720]",ColorTask,43.0,77.0,,,HRV,HRV_0160,2022-11-30 18:25:00
,wl-rdm,85,215020,0.0-6.77-0.77,0.0,86.0,,,,,,,[],,,,,,73.6,0.0,u,0.0,True,642.6000000238419,39.0,60.0,40.0,False,,362.8206894058642,[],"[1280, 720]",ColorTask,44.0,78.0,,,HRV,HRV_0160,2022-11-30 18:25:00
,wl-rdm,86,217304,0.0-6.78-0.78,0.0,87.0,,,,,,,[],,,,,,56.4,1.0,i,1.0,True,953.3999999761581,58.0,60.0,40.0,False,,262.96579939023604,[],"[1280, 720]",ColorTask,45.0,79.0,,,HRV,HRV_0160,2022-11-30 18:25:00
,wl-rdm,87,219473,0.0-6.79-0.79,0.0,88.0,,,,,,,[],,,,,,87.9,0.0,u,0.0,True,766.8000000715256,46.0,60.0,40.0,False,,333.753030928738,[],"[1280, 720]",ColorTask,46.0,80.0,,,HRV,HRV_0160,2022-11-30 18:25:00
,wl-rdm,88,221625,0.0-6.80-0.80,0.0,89.0,,,,,,,[],,,,,,62.5,0.0,u,0.0,True,801.7000000476837,49.0,60.0,40.0,False,,275.17451821510497,[],"[1280, 720]",ColorTask,47.0,81.0,,,HRV,HRV_0160,2022-11-30 18:25:00
,wl-rdm,89,223677,0.0-6.81-0.81,0.0,90.0,,,,,,,[],,,,,,53.2,1.0,u,0.0,False,755.3000000715256,46.0,60.0,40.0,False,,229.86126445099782,[],"[1280, 720]",ColorTask,46.0,82.0,,,HRV,HRV_0160,2022-11-30 18:25:00
,wl-rdm,90,225911,0.0-6.82-0.82,0.0,91.0,,,,,,,[],,,,,,87.9,0.0,u,0.0,True,807.5,49.0,60.0,40.0,False,,365.8108286099971,[],"[1280, 720]",ColorTask,47.0,83.0,,,HRV,HRV_0160,2022-11-30 18:25:00
,wl-rdm,91,228414,0.0-6.83-0.83,0.0,92.0,,,,,,,[],,,,,,50.0,0.0,i,1.0,False,1141.6999999284744,69.0,60.0,40.0,False,,297.8196293894047,[],"[1280, 720]",ColorTask,46.0,84.0,,,HRV,HRV_0160,2022-11-30 18:25:00
,wl-rdm,92,230282,0.0-6.84-0.84,0.0,93.0,,,,,,,[],,,,,,56.4,1.0,i,1.0,True,568.7999999523163,35.0,60.0,40.0,False,,221.33414877679974,[],"[1280, 720]",ColorTask,47.0,85.0,,,HRV,HRV_0160,2022-11-30 18:25:00
,wl-rdm,93,232267,0.0-6.85-0.85,0.0,94.0,,,,,,,[],,,,,,56.4,0.0,u,0.0,True,712.3000000715256,43.0,60.0,40.0,False,,203.42829595438224,[],"[1280, 720]",ColorTask,48.0,86.0,,,HRV,HRV_0160,2022-11-30 18:25:00
,wl-rdm,94,234886,0.0-6.86-0.86,0.0,95.0,,,,,,,[],,,,,,53.2,0.0,i,1.0,False,1185.1999999284744,72.0,60.0,40.0,False,,363.07925151757615,[],"[1280, 720]",ColorTask,47.0,87.0,,,HRV,HRV_0160,2022-11-30 18:25:00
,wl-rdm,95,237271,0.0-6.87-0.87,0.0,96.0,,,,,,,[],,,,,,53.2,0.0,i,1.0,False,1019.5,62.0,60.0,40.0,False,,296.74684935218585,[],"[1280, 720]",ColorTask,46.0,88.0,,,HRV,HRV_0160,2022-11-30 18:25:00
,wl-rdm,96,239123,0.0-6.88-0.88,0.0,97.0,,,,,,,[],,,,,,73.6,1.0,i,1.0,True,566.7000000476837,34.0,60.0,40.0,False,,219.50418084392945,[],"[1280, 720]",ColorTask,47.0,89.0,,,HRV,HRV_0160,2022-11-30 18:25:00
,wl-rdm,97,241491,0.0-6.89-0.89,0.0,98.0,,,,,,,[],,,,,,53.2,0.0,u,0.0,True,1051.5,64.0,60.0,40.0,False,,234.18306025273927,[],"[1280, 720]",ColorTask,48.0,90.0,,,HRV,HRV_0160,2022-11-30 18:25:00
,wl-rdm,98,243893,0.0-6.90-0.90,0.0,99.0,,,,,,,[],,,,,,56.4,1.0,i,1.0,True,1062.2999999523163,64.0,60.0,40.0,False,,280.33671917337796,[],"[1280, 720]",ColorTask,49.0,91.0,,,HRV,HRV_0160,2022-11-30 18:25:00
,wl-rdm,99,246245,0.0-6.91-0.91,0.0,100.0,,,,,,,[],,,,,,53.2,1.0,i,1.0,True,921.1999999284744,56.0,60.0,40.0,False,,359.2670156175874,[],"[1280, 720]",ColorTask,50.0,92.0,,,HRV,HRV_0160,2022-11-30 18:25:00
,wl-rdm,100,248247,0.0-6.92-0.92,0.0,101.0,,,,,,,[],,,,,,87.9,1.0,i,1.0,True,677.3000000715256,41.0,60.0,40.0,False,,253.4768162358025,[],"[1280, 720]",ColorTask,51.0,93.0,,,HRV,HRV_0160,2022-11-30 18:25:00
,wl-rdm,101,250132,0.0-6.93-0.93,0.0,102.0,,,,,,,[],,,,,,87.9,1.0,i,1.0,True,527.5,32.0,60.0,40.0,False,,284.20987109460475,[],"[1280, 720]",ColorTask,52.0,94.0,,,HRV,HRV_0160,2022-11-30 18:25:00
,wl-rdm,102,252567,0.0-6.94-0.94,0.0,103.0,,,,,,,[],,,,,,53.2,0.0,i,1.0,False,1114.6999999284744,67.0,60.0,40.0,False,,257.57529033611036,[],"[1280, 720]",ColorTask,51.0,95.0,,,HRV,HRV_0160,2022-11-30 18:25:00
,wl-rdm,103,254475,0.0-6.95-0.95,0.0,104.0,,,,,,,[],,,,,,87.9,0.0,u,0.0,True,570.3999999761581,35.0,60.0,40.0,False,,253.5530839484758,[],"[1280, 720]",ColorTask,52.0,96.0,,,HRV,HRV_0160,2022-11-30 18:25:00
,wl-rdm,104,256804,0.0-6.96-0.96,0.0,105.0,,,,,,,[],,,,,,56.4,0.0,u,0.0,True,911.0,55.0,60.0,40.0,False,,362.5579365616505,[],"[1280, 720]",ColorTask,53.0,97.0,,,HRV,HRV_0160,2022-11-30 18:25:00
,wl-rdm,105,259239,0.0-6.97-0.97,0.0,106.0,,,,,,,[],,,,,,50.0,1.0,i,1.0,True,994.2000000476837,60.0,60.0,40.0,False,,375.0543574603688,[],"[1280, 720]",ColorTask,54.0,98.0,,,HRV,HRV_0160,2022-11-30 18:25:00
,wl-rdm,106,261158,0.0-6.98-0.98,0.0,107.0,,,,,,,[],,,,,,73.6,1.0,i,1.0,True,573.8000000715256,35.0,60.0,40.0,False,,268.57678620433376,[],"[1280, 720]",ColorTask,55.0,99.0,,,HRV,HRV_0160,2022-11-30 18:25:00
,wl-rdm,107,263460,0.0-6.99-0.99,0.0,108.0,,,,,,,[],,,,,,56.4,1.0,i,1.0,True,922.3999999761581,56.0,60.0,40.0,False,,312.51191405862585,[],"[1280, 720]",ColorTask,56.0,100.0,,,HRV,HRV_0160,2022-11-30 18:25:00
,wl-rdm,108,265695,0.0-6.100-0.100,0.0,109.0,,,,,,,[],,,,,,50.0,0.0,u,0.0,True,871.3999999761581,53.0,60.0,40.0,False,,296.35969617028525,[],"[1280, 720]",ColorTask,57.0,101.0,,,HRV,HRV_0160,2022-11-30 18:25:00
,wl-rdm,109,267697,0.0-6.101-0.101,0.0,110.0,,,,,,,[],,,,,,73.6,1.0,i,1.0,True,588.6000000238419,36.0,60.0,40.0,False,,343.2257657977137,[],"[1280, 720]",ColorTask,58.0,102.0,,,HRV,HRV_0160,2022-11-30 18:25:00
,wl-rdm,110,269982,0.0-6.102-0.102,0.0,111.0,,,,,,,[],,,,,,53.2,0.0,i,1.0,False,877.6000000238419,53.0,60.0,40.0,False,,347.42397386861296,[],"[1280, 720]",ColorTask,57.0,103.0,,,HRV,HRV_0160,2022-11-30 18:25:00
,wl-rdm,111,272017,0.0-6.103-0.103,0.0,112.0,,,,,,,[],,,,,,73.6,0.0,u,0.0,True,728.7000000476837,44.0,60.0,40.0,False,,241.4720995539108,[],"[1280, 720]",ColorTask,58.0,104.0,,,HRV,HRV_0160,2022-11-30 18:25:00
,wl-rdm,112,274386,0.0-6.104-0.104,0.0,113.0,,,,,,,[],,,,,,53.2,1.0,i,1.0,True,1001.5999999046326,61.0,60.0,40.0,False,,287.42931265459634,[],"[1280, 720]",ColorTask,59.0,105.0,,,HRV,HRV_0160,2022-11-30 18:25:00
,wl-rdm,113,276404,0.0-6.105-0.105,0.0,114.0,,,,,,,[],,,,,,87.9,0.0,u,0.0,True,585.6000000238419,36.0,60.0,40.0,False,,352.55870407477573,[],"[1280, 720]",ColorTask,60.0,106.0,,,HRV,HRV_0160,2022-11-30 18:25:00
,wl-rdm,114,278256,0.0-6.106-0.106,0.0,115.0,,,,,,,[],,,,,,87.9,0.0,u,0.0,True,576.6999999284744,35.0,60.0,40.0,False,,215.0342636345871,[],"[1280, 720]",ColorTask,61.0,107.0,,,HRV,HRV_0160,2022-11-30 18:25:00
,wl-rdm,115,280341,0.0-6.107-0.107,0.0,116.0,,,,,,,[],,,,,,50.0,0.0,u,0.0,True,737.0,45.0,60.0,40.0,False,,280.40038032397035,[],"[1280, 720]",ColorTask,62.0,108.0,,,HRV,HRV_0160,2022-11-30 18:25:00
,wl-html-keyboard-response,116,326477,0.0-7.0-0.0,1.0,116.0,,,,,,,,44128.5,1.0,0,,,,,,,,,,,,True,undefinedblurEvent ,,,,,,,,,HRV,HRV_0160,2022-11-30 18:25:00
,wl-rdm,117,328698,0.0-8.0-0.0,1.0,117.0,,,,,,,[],,,,,,87.9,0.0,u,0.0,True,918.6000000238419,56.0,60.0,40.0,False,,224.8616898456209,[],"[1280, 720]",ColorTask,63.0,1.0,,,HRV,HRV_0160,2022-11-30 18:25:00
,wl-rdm,118,331084,0.0-8.1-0.1,1.0,118.0,,,,,,,[],,,,,,53.2,0.0,u,0.0,True,1059.6000000238419,64.0,60.0,40.0,False,,255.18692312938578,[],"[1280, 720]",ColorTask,64.0,2.0,,,HRV,HRV_0160,2022-11-30 18:25:00
,wl-rdm,119,333452,0.0-8.2-0.2,1.0,119.0,,,,,,,[],,,,,,53.2,1.0,u,0.0,False,1028.3000000715256,62.0,60.0,40.0,False,,278.14600193193706,[],"[1280, 720]",ColorTask,63.0,3.0,,,HRV,HRV_0160,2022-11-30 18:25:00
,wl-rdm,120,335637,0.0-8.3-0.3,1.0,120.0,,,,,,,[],,,,,,53.2,0.0,i,1.0,False,825.8000000715256,50.0,60.0,40.0,False,,268.12784421286534,[],"[1280, 720]",ColorTask,62.0,4.0,,,HRV,HRV_0160,2022-11-30 18:25:00
,wl-rdm,121,337956,0.0-8.4-0.4,1.0,121.0,,,,,,,[],,,,,,62.5,1.0,i,1.0,True,897.8000000715256,54.0,60.0,40.0,False,,365.01001282478626,[],"[1280, 720]",ColorTask,63.0,5.0,,,HRV,HRV_0160,2022-11-30 18:25:00
,wl-rdm,122,340174,0.0-8.5-0.5,1.0,122.0,,,,,,,[],,,,,,50.0,1.0,i,1.0,True,889.3000000715256,54.0,60.0,40.0,False,,251.70604481347428,[],"[1280, 720]",ColorTask,64.0,6.0,,,HRV,HRV_0160,2022-11-30 18:25:00
,wl-rdm,123,343077,0.0-8.6-0.6,1.0,123.0,,,,,,,[],,,,,,56.4,1.0,u,0.0,False,1492.0,90.0,60.0,40.0,False,,348.19665122138156,[],"[1280, 720]",ColorTask,63.0,7.0,,,HRV,HRV_0160,2022-11-30 18:25:00
,wl-rdm,124,344945,0.0-8.7-0.7,1.0,124.0,,,,,,,[],,,,,,62.5,1.0,i,1.0,True,567.5999999046326,34.0,60.0,40.0,False,,220.3774523536447,[],"[1280, 720]",ColorTask,64.0,8.0,,,HRV,HRV_0160,2022-11-30 18:25:00
,wl-rdm,125,347163,0.0-8.8-0.8,1.0,125.0,,,,,,,[],,,,,,50.0,1.0,u,0.0,False,867.1000000238419,52.0,60.0,40.0,False,,293.8115821584304,[],"[1280, 720]",ColorTask,63.0,9.0,,,HRV,HRV_0160,2022-11-30 18:25:00
,wl-rdm,126,349132,0.0-8.9-0.9,1.0,126.0,,,,,,,[],,,,,,73.6,1.0,i,1.0,True,557.8000000715256,34.0,60.0,40.0,False,,338.276565417602,[],"[1280, 720]",ColorTask,64.0,10.0,,,HRV,HRV_0160,2022-11-30 18:25:00
,wl-rdm,127,351018,0.0-8.10-0.10,1.0,127.0,,,,,,,[],,,,,,87.9,1.0,i,1.0,True,547.5,33.0,60.0,40.0,False,,280.6704294703427,[],"[1280, 720]",ColorTask,65.0,11.0,,,HRV,HRV_0160,2022-11-30 18:25:00
,wl-rdm,128,353135,0.0-8.11-0.11,1.0,128.0,,,,,,,[],,,,,,53.2,1.0,i,1.0,True,778.7000000476837,47.0,60.0,40.0,False,,237.09203561627584,[],"[1280, 720]",ColorTask,66.0,12.0,,,HRV,HRV_0160,2022-11-30 18:25:00
,wl-rdm,129,355153,0.0-8.12-0.12,1.0,129.0,,,,,,,[],,,,,,62.5,0.0,u,0.0,True,697.1999999284744,42.0,60.0,40.0,False,,234.66444722854226,[],"[1280, 720]",ColorTask,67.0,13.0,,,HRV,HRV_0160,2022-11-30 18:25:00
,wl-rdm,130,357233,0.0-8.13-0.13,1.0,130.0,,,,,,,[],,,,,,73.6,0.0,u,0.0,True,762.5,46.0,60.0,40.0,False,,251.41386806630885,[],"[1280, 720]",ColorTask,68.0,14.0,,,HRV,HRV_0160,2022-11-30 18:25:00
,wl-rdm,131,359708,0.0-8.14-0.14,1.0,131.0,,,,,,,[],,,,,,56.4,0.0,u,0.0,True,1068.0,65.0,60.0,40.0,False,,342.47040416160917,[],"[1280, 720]",ColorTask,69.0,15.0,,,HRV,HRV_0160,2022-11-30 18:25:00
,wl-rdm,132,361692,0.0-8.15-0.15,1.0,132.0,,,,,,,[],,,,,,50.0,1.0,u,0.0,False,712.1000000238419,43.0,60.0,40.0,False,,211.6531458814481,[],"[1280, 720]",ColorTask,68.0,16.0,,,HRV,HRV_0160,2022-11-30 18:25:00
,wl-rdm,133,364061,0.0-8.16-0.16,1.0,133.0,,,,,,,[],,,,,,50.0,0.0,i,1.0,False,1025.6000000238419,62.0,60.0,40.0,False,,281.1675341077563,[],"[1280, 720]",ColorTask,67.0,17.0,,,HRV,HRV_0160,2022-11-30 18:25:00
,wl-rdm,134,366380,0.0-8.17-0.17,1.0,134.0,,,,,,,[],,,,,,56.4,1.0,i,1.0,True,959.1000000238419,57.0,60.0,40.0,False,,289.25789563643065,[],"[1280, 720]",ColorTask,68.0,18.0,,,HRV,HRV_0160,2022-11-30 18:25:00
,wl-rdm,135,368382,0.0-8.18-0.18,1.0,135.0,,,,,,,[],,,,,,87.9,1.0,i,1.0,True,566.2000000476837,34.0,60.0,40.0,False,,373.81996227793354,[],"[1280, 720]",ColorTask,69.0,19.0,,,HRV,HRV_0160,2022-11-30 18:25:00
,wl-rdm,136,370733,0.0-8.19-0.19,1.0,136.0,,,,,,,[],,,,,,53.2,0.0,i,1.0,False,964.9000000953674,58.0,60.0,40.0,False,,322.35185121894705,[],"[1280, 720]",ColorTask,68.0,20.0,,,HRV,HRV_0160,2022-11-30 18:25:00
,wl-rdm,137,372702,0.0-8.20-0.20,1.0,137.0,,,,,,,[],,,,,,73.6,0.0,u,0.0,True,680.8000000715256,41.0,60.0,40.0,False,,223.570568084423,[],"[1280, 720]",ColorTask,69.0,21.0,,,HRV,HRV_0160,2022-11-30 18:25:00
,wl-rdm,138,374654,0.0-8.21-0.21,1.0,138.0,,,,,,,[],,,,,,87.9,0.0,u,0.0,True,584.1000000238419,35.0,60.0,40.0,False,,301.74680034587794,[],"[1280, 720]",ColorTask,70.0,22.0,,,HRV,HRV_0160,2022-11-30 18:25:00
,wl-rdm,139,376956,0.0-8.22-0.22,1.0,139.0,,,,,,,[],,,,,,62.5,0.0,i,1.0,False,836.0,51.0,60.0,40.0,False,,389.3200766799655,[],"[1280, 720]",ColorTask,69.0,23.0,,,HRV,HRV_0160,2022-11-30 18:25:00
,wl-rdm,140,379091,0.0-8.23-0.23,1.0,140.0,,,,,,,[],,,,,,73.6,0.0,u,0.0,True,845.1000000238419,51.0,60.0,40.0,False,,231.40706971597928,[],"[1280, 720]",ColorTask,70.0,24.0,,,HRV,HRV_0160,2022-11-30 18:25:00
,wl-rdm,141,381093,0.0-8.24-0.24,1.0,141.0,,,,,,,[],,,,,,87.9,1.0,i,1.0,True,636.6000000238419,39.0,60.0,40.0,False,,288.0458252065825,[],"[1280, 720]",ColorTask,71.0,25.0,,,HRV,HRV_0160,2022-11-30 18:25:00
,wl-rdm,142,383778,0.0-8.25-0.25,1.0,142.0,,,,,,,[],,,,,,53.2,1.0,i,1.0,True,1323.6000000238419,80.0,60.0,40.0,False,,288.13616432926733,[],"[1280, 720]",ColorTask,72.0,26.0,,,HRV,HRV_0160,2022-11-30 18:25:00
,wl-rdm,143,385729,0.0-8.26-0.26,1.0,143.0,,,,,,,[],,,,,,73.6,1.0,i,1.0,True,586.6999999284744,36.0,60.0,40.0,False,,298.4970906494325,[],"[1280, 720]",ColorTask,73.0,27.0,,,HRV,HRV_0160,2022-11-30 18:25:00
,wl-rdm,144,387581,0.0-8.27-0.27,1.0,144.0,,,,,,,[],,,,,,73.6,1.0,i,1.0,True,506.2000000476837,32.0,60.0,40.0,False,,244.12381485957448,[],"[1280, 720]",ColorTask,74.0,28.0,,,HRV,HRV_0160,2022-11-30 18:25:00
,wl-rdm,145,389933,0.0-8.28-0.28,1.0,145.0,,,,,,,[],,,,,,53.2,0.0,i,1.0,False,1021.6000000238419,62.0,60.0,40.0,False,,253.99317678060925,[],"[1280, 720]",ColorTask,73.0,29.0,,,HRV,HRV_0160,2022-11-30 18:25:00
,wl-rdm,146,392035,0.0-8.29-0.29,1.0,146.0,,,,,,,[],,,,,,56.4,0.0,u,0.0,True,780.1000000238419,47.0,60.0,40.0,False,,221.8834326018284,[],"[1280, 720]",ColorTask,74.0,30.0,,,HRV,HRV_0160,2022-11-30 18:25:00
,wl-rdm,147,393920,0.0-8.30-0.30,1.0,147.0,,,,,,,[],,,,,,62.5,1.0,i,1.0,True,611.6000000238419,37.0,60.0,40.0,False,,206.73714757123105,[],"[1280, 720]",ColorTask,75.0,31.0,,,HRV,HRV_0160,2022-11-30 18:25:00
,wl-rdm,148,396071,0.0-8.31-0.31,1.0,148.0,,,,,,,[],,,,,,53.2,1.0,u,0.0,False,868.0999999046326,53.0,60.0,40.0,False,,211.7242854820196,[],"[1280, 720]",ColorTask,74.0,32.0,,,HRV,HRV_0160,2022-11-30 18:25:00
,wl-rdm,149,398273,0.0-8.32-0.32,1.0,149.0,,,,,,,[],,,,,,62.5,0.0,u,0.0,True,776.2999999523163,47.0,60.0,40.0,False,,353.9179066693697,[],"[1280, 720]",ColorTask,75.0,33.0,,,HRV,HRV_0160,2022-11-30 18:25:00
,wl-rdm,150,400809,0.0-8.33-0.33,1.0,150.0,,,,,,,[],,,,,,50.0,1.0,i,1.0,True,1260.8999999761581,75.0,60.0,40.0,False,,209.8924837964272,[],"[1280, 720]",ColorTask,76.0,34.0,,,HRV,HRV_0160,2022-11-30 18:25:00
,wl-rdm,151,403261,0.0-8.34-0.34,1.0,151.0,,,,,,,[],,,,,,56.4,1.0,i,1.0,True,1139.6999999284744,69.0,60.0,40.0,False,,241.28989937029934,[],"[1280, 720]",ColorTask,77.0,35.0,,,HRV,HRV_0160,2022-11-30 18:25:00
,wl-rdm,152,405462,0.0-8.35-0.35,1.0,152.0,,,,,,,[],,,,,,73.6,0.0,u,0.0,True,752.0,46.0,60.0,40.0,False,,367.13541541857774,[],"[1280, 720]",ColorTask,78.0,36.0,,,HRV,HRV_0160,2022-11-30 18:25:00
,wl-rdm,153,407448,0.0-8.36-0.36,1.0,153.0,,,,,,,[],,,,,,87.9,0.0,u,0.0,True,602.1000000238419,37.0,60.0,40.0,False,,306.1475648187704,[],"[1280, 720]",ColorTask,79.0,37.0,,,HRV,HRV_0160,2022-11-30 18:25:00
,wl-rdm,154,410217,0.0-8.37-0.37,1.0,154.0,,,,,,,[],,,,,,56.4,0.0,u,0.0,True,1321.2999999523163,80.0,60.0,40.0,False,,374.2269053940333,[],"[1280, 720]",ColorTask,80.0,38.0,,,HRV,HRV_0160,2022-11-30 18:25:00
,wl-rdm,155,412686,0.0-8.38-0.38,1.0,155.0,,,,,,,[],,,,,,53.2,1.0,i,1.0,True,1121.4000000953674,68.0,60.0,40.0,False,,268.0528367457341,[],"[1280, 720]",ColorTask,81.0,39.0,,,HRV,HRV_0160,2022-11-30 18:25:00
,wl-rdm,156,414670,0.0-8.39-0.39,1.0,156.0,,,,,,,[],,,,,,87.9,0.0,u,0.0,True,654.8999999761581,40.0,60.0,40.0,False,,260.2387457039121,[],"[1280, 720]",ColorTask,82.0,40.0,,,HRV,HRV_0160,2022-11-30 18:25:00
,wl-rdm,157,417173,0.0-8.40-0.40,1.0,157.0,,,,,,,[],,,,,,62.5,0.0,u,0.0,True,1109.6999999284744,67.0,60.0,40.0,False,,317.55072897900607,[],"[1280, 720]",ColorTask,83.0,41.0,,,HRV,HRV_0160,2022-11-30 18:25:00
,wl-rdm,158,419374,0.0-8.41-0.41,1.0,158.0,,,,,,,[],,,,,,56.4,1.0,u,0.0,False,889.9000000953674,54.0,60.0,40.0,False,,243.0975691436777,[],"[1280, 720]",ColorTask,82.0,42.0,,,HRV,HRV_0160,2022-11-30 18:25:00
,wl-rdm,159,421693,0.0-8.42-0.42,1.0,159.0,,,,,,,[],,,,,,50.0,1.0,i,1.0,True,965.7999999523163,58.0,60.0,40.0,False,,290.6583183748729,[],"[1280, 720]",ColorTask,83.0,43.0,,,HRV,HRV_0160,2022-11-30 18:25:00
,wl-rdm,160,423995,0.0-8.43-0.43,1.0,160.0,,,,,,,[],,,,,,50.0,0.0,i,1.0,False,991.2000000476837,60.0,60.0,40.0,False,,241.08820050720854,[],"[1280, 720]",ColorTask,82.0,44.0,,,HRV,HRV_0160,2022-11-30 18:25:00
,wl-rdm,161,426680,0.0-8.44-0.44,1.0,161.0,,,,,,,[],,,,,,50.0,1.0,i,1.0,True,1226.8999999761581,74.0,60.0,40.0,False,,384.17076925702025,[],"[1280, 720]",ColorTask,83.0,45.0,,,HRV,HRV_0160,2022-11-30 18:25:00
,wl-rdm,162,428766,0.0-8.45-0.45,1.0,162.0,,,,,,,[],,,,,,87.9,1.0,i,1.0,True,670.5,41.0,60.0,40.0,False,,347.9072755204752,[],"[1280, 720]",ColorTask,84.0,46.0,,,HRV,HRV_0160,2022-11-30 18:25:00
,wl-rdm,163,432252,0.0-8.46-0.46,1.0,163.0,,,,,,,[],,,,,,53.2,0.0,u,0.0,True,2140.5999999046326,129.0,60.0,40.0,False,,257.52601631895084,[],"[1280, 720]",ColorTask,85.0,47.0,,,HRV,HRV_0160,2022-11-30 18:25:00
,wl-rdm,164,434921,0.0-8.47-0.47,1.0,164.0,,,,,,,[],,,,,,56.4,0.0,i,1.0,False,1350.5,81.0,60.0,40.0,False,,252.38377356563126,[],"[1280, 720]",ColorTask,84.0,48.0,,,HRV,HRV_0160,2022-11-30 18:25:00
,wl-rdm,165,436839,0.0-8.48-0.48,1.0,165.0,,,,,,,[],,,,,,56.4,1.0,i,1.0,True,586.3999999761581,36.0,60.0,40.0,False,,263.83674823554225,[],"[1280, 720]",ColorTask,85.0,49.0,,,HRV,HRV_0160,2022-11-30 18:25:00
,wl-rdm,166,438891,0.0-8.49-0.49,1.0,166.0,,,,,,,[],,,,,,53.2,1.0,i,1.0,True,776.7999999523163,46.0,60.0,40.0,False,,205.69482438194828,[],"[1280, 720]",ColorTask,86.0,50.0,,,HRV,HRV_0160,2022-11-30 18:25:00
,wl-rdm,167,441010,0.0-8.50-0.50,1.0,167.0,,,,,,,[],,,,,,62.5,1.0,i,1.0,True,820.6000000238419,50.0,60.0,40.0,False,,224.3516787936837,[],"[1280, 720]",ColorTask,87.0,51.0,,,HRV,HRV_0160,2022-11-30 18:25:00
,wl-rdm,168,443161,0.0-8.51-0.51,1.0,168.0,,,,,,,[],,,,,,56.4,0.0,i,1.0,False,880.7999999523163,53.0,60.0,40.0,False,,213.54735161422926,[],"[1280, 720]",ColorTask,86.0,52.0,,,HRV,HRV_0160,2022-11-30 18:25:00
,wl-rdm,169,445113,0.0-8.52-0.52,1.0,169.0,,,,,,,[],,,,,,87.9,0.0,u,0.0,True,538.7000000476837,33.0,60.0,40.0,False,,327.6440220297362,[],"[1280, 720]",ColorTask,87.0,53.0,,,HRV,HRV_0160,2022-11-30 18:25:00
,wl-rdm,170,447314,0.0-8.53-0.53,1.0,170.0,,,,,,,[],,,,,,53.2,1.0,u,0.0,False,790.0,47.0,60.0,40.0,False,,337.829935314325,[],"[1280, 720]",ColorTask,86.0,54.0,,,HRV,HRV_0160,2022-11-30 18:25:00
,wl-rdm,171,449283,0.0-8.54-0.54,1.0,171.0,,,,,,,[],,,,,,50.0,1.0,i,1.0,True,677.1000000238419,41.0,60.0,40.0,False,,227.54861948613794,[],"[1280, 720]",ColorTask,87.0,55.0,,,HRV,HRV_0160,2022-11-30 18:25:00
,wl-rdm,172,451785,0.0-8.55-0.55,1.0,172.0,,,,,,,[],,,,,,56.4,1.0,u,0.0,False,1152.8999999761581,70.0,60.0,40.0,False,,270.5112097535592,[],"[1280, 720]",ColorTask,86.0,56.0,,,HRV,HRV_0160,2022-11-30 18:25:00
,wl-rdm,173,453887,0.0-8.56-0.56,1.0,173.0,,,,,,,[],,,,,,53.2,0.0,i,1.0,False,747.2999999523163,45.0,60.0,40.0,False,,290.0561155518951,[],"[1280, 720]",ColorTask,85.0,57.0,,,HRV,HRV_0160,2022-11-30 18:25:00
,wl-rdm,174,456088,0.0-8.57-0.57,1.0,174.0,,,,,,,[],,,,,,53.2,0.0,u,0.0,True,859.9999998807907,52.0,60.0,40.0,False,,278.71676953131885,[],"[1280, 720]",ColorTask,86.0,58.0,,,HRV,HRV_0160,2022-11-30 18:25:00
,wl-rdm,175,457974,0.0-8.58-0.58,1.0,175.0,,,,,,,[],,,,,,87.9,1.0,i,1.0,True,569.5,35.0,60.0,40.0,False,,234.30045753106612,[],"[1280, 720]",ColorTask,87.0,59.0,,,HRV,HRV_0160,2022-11-30 18:25:00
,wl-rdm,176,460042,0.0-8.59-0.59,1.0,176.0,,,,,,,[],,,,,,73.6,1.0,i,1.0,True,607.7000000476837,37.0,60.0,40.0,False,,395.9968966553172,[],"[1280, 720]",ColorTask,88.0,60.0,,,HRV,HRV_0160,2022-11-30 18:25:00
,wl-rdm,177,462010,0.0-8.60-0.60,1.0,177.0,,,,,,,[],,,,,,87.9,1.0,i,1.0,True,512.7000000476837,31.0,60.0,40.0,False,,392.2007557276294,[],"[1280, 720]",ColorTask,89.0,61.0,,,HRV,HRV_0160,2022-11-30 18:25:00
,wl-rdm,178,463945,0.0-8.61-0.61,1.0,178.0,,,,,,,[],,,,,,87.9,0.0,u,0.0,True,631.6999999284744,38.0,60.0,40.0,False,,242.59334764487022,[],"[1280, 720]",ColorTask,90.0,62.0,,,HRV,HRV_0160,2022-11-30 18:25:00
,wl-rdm,179,466180,0.0-8.62-0.62,1.0,179.0,,,,,,,[],,,,,,56.4,0.0,u,0.0,True,960.4999998807907,58.0,60.0,40.0,False,,216.08813518176623,[],"[1280, 720]",ColorTask,91.0,63.0,,,HRV,HRV_0160,2022-11-30 18:25:00
,wl-rdm,180,468665,0.0-8.63-0.63,1.0,180.0,,,,,,,[],,,,,,50.0,0.0,i,1.0,False,1208.6999999284744,73.0,60.0,40.0,False,,202.45159977824903,[],"[1280, 720]",ColorTask,90.0,64.0,,,HRV,HRV_0160,2022-11-30 18:25:00
,wl-rdm,181,470784,0.0-8.64-0.64,1.0,181.0,,,,,,,[],,,,,,73.6,0.0,u,0.0,True,827.0,50.0,60.0,40.0,False,,220.93553730078406,[],"[1280, 720]",ColorTask,91.0,65.0,,,HRV,HRV_0160,2022-11-30 18:25:00
,wl-rdm,182,472903,0.0-8.65-0.65,1.0,182.0,,,,,,,[],,,,,,73.6,0.0,u,0.0,True,758.6999999284744,46.0,60.0,40.0,False,,289.9550165631555,[],"[1280, 720]",ColorTask,92.0,66.0,,,HRV,HRV_0160,2022-11-30 18:25:00
,wl-rdm,183,475205,0.0-8.66-0.66,1.0,183.0,,,,,,,[],,,,,,50.0,1.0,u,0.0,False,993.8000000715256,60.0,60.0,40.0,False,,222.07385855857726,[],"[1280, 720]",ColorTask,91.0,67.0,,,HRV,HRV_0160,2022-11-30 18:25:00
,wl-rdm,184,477290,0.0-8.67-0.67,1.0,184.0,,,,,,,[],,,,,,62.5,1.0,i,1.0,True,741.5,45.0,60.0,40.0,False,,276.1690425877297,[],"[1280, 720]",ColorTask,92.0,68.0,,,HRV,HRV_0160,2022-11-30 18:25:00
,wl-rdm,185,479392,0.0-8.68-0.68,1.0,185.0,,,,,,,[],,,,,,62.5,1.0,i,1.0,True,830.2999999523163,50.0,60.0,40.0,False,,213.98711203512082,[],"[1280, 720]",ColorTask,93.0,69.0,,,HRV,HRV_0160,2022-11-30 18:25:00
,wl-rdm,186,481311,0.0-8.69-0.69,1.0,186.0,,,,,,,[],,,,,,73.6,1.0,i,1.0,True,591.1999999284744,36.0,60.0,40.0,False,,258.7162781678942,[],"[1280, 720]",ColorTask,94.0,70.0,,,HRV,HRV_0160,2022-11-30 18:25:00
,wl-rdm,187,483462,0.0-8.70-0.70,1.0,187.0,,,,,,,[],,,,,,50.0,0.0,u,0.0,True,843.0000001192093,51.0,60.0,40.0,False,,235.09251215456635,[],"[1280, 720]",ColorTask,95.0,71.0,,,HRV,HRV_0160,2022-11-30 18:25:00
,wl-rdm,188,486064,0.0-8.71-0.71,1.0,188.0,,,,,,,[],,,,,,53.2,0.0,i,1.0,False,1135.7999999523163,68.0,60.0,40.0,False,,396.0143999544043,[],"[1280, 720]",ColorTask,94.0,72.0,,,HRV,HRV_0160,2022-11-30 18:25:00
,wl-rdm,189,488266,0.0-8.72-0.72,1.0,189.0,,,,,,,[],,,,,,53.2,0.0,u,0.0,True,779.8000000715256,47.0,60.0,40.0,False,,357.563368510337,[],"[1280, 720]",ColorTask,95.0,73.0,,,HRV,HRV_0160,2022-11-30 18:25:00
,wl-rdm,190,490100,0.0-8.73-0.73,1.0,190.0,,,,,,,[],,,,,,87.9,1.0,i,1.0,True,539.3000000715256,32.0,60.0,40.0,False,,227.2929915697367,[],"[1280, 720]",ColorTask,96.0,74.0,,,HRV,HRV_0160,2022-11-30 18:25:00
,wl-rdm,191,492369,0.0-8.74-0.74,1.0,191.0,,,,,,,[],,,,,,62.5,1.0,i,1.0,True,817.2000000476837,49.0,60.0,40.0,False,,387.51790316461927,[],"[1280, 720]",ColorTask,97.0,75.0,,,HRV,HRV_0160,2022-11-30 18:25:00
,wl-rdm,192,494488,0.0-8.75-0.75,1.0,192.0,,,,,,,[],,,,,,73.6,0.0,u,0.0,True,724.799999833107,44.0,60.0,40.0,False,,314.03313462602637,[],"[1280, 720]",ColorTask,98.0,76.0,,,HRV,HRV_0160,2022-11-30 18:25:00
,wl-rdm,193,497040,0.0-8.76-0.76,1.0,193.0,,,,,,,[],,,,,,62.5,0.0,u,0.0,True,1249.5,75.0,60.0,40.0,False,,243.6702377568548,[],"[1280, 720]",ColorTask,99.0,77.0,,,HRV,HRV_0160,2022-11-30 18:25:00
,wl-rdm,194,498975,0.0-8.77-0.77,1.0,194.0,,,,,,,[],,,,,,73.6,1.0,i,1.0,True,585.1000000238419,36.0,60.0,40.0,False,,279.88958392390674,[],"[1280, 720]",ColorTask,100.0,78.0,,,HRV,HRV_0160,2022-11-30 18:25:00
,wl-rdm,195,501461,0.0-8.78-0.78,1.0,195.0,,,,,,,[],,,,,,50.0,0.0,i,1.0,False,1066.6000000238419,64.0,60.0,40.0,False,,351.9307198098794,[],"[1280, 720]",ColorTask,99.0,79.0,,,HRV,HRV_0160,2022-11-30 18:25:00
,wl-rdm,196,503479,0.0-8.79-0.79,1.0,196.0,,,,,,,[],,,,,,87.9,0.0,u,0.0,True,732.5,44.0,60.0,40.0,False,,224.4265946377156,[],"[1280, 720]",ColorTask,100.0,80.0,,,HRV,HRV_0160,2022-11-30 18:25:00
,wl-rdm,197,505530,0.0-8.80-0.80,1.0,197.0,,,,,,,[],,,,,,53.2,1.0,i,1.0,True,714.1999999284744,43.0,60.0,40.0,False,,274.146659428161,[],"[1280, 720]",ColorTask,101.0,81.0,,,HRV,HRV_0160,2022-11-30 18:25:00
,wl-rdm,198,507850,0.0-8.81-0.81,1.0,198.0,,,,,,,[],,,,,,50.0,1.0,i,1.0,True,1021.8000000715256,62.0,60.0,40.0,False,,231.71434920665791,[],"[1280, 720]",ColorTask,102.0,82.0,,,HRV,HRV_0160,2022-11-30 18:25:00
,wl-rdm,199,510234,0.0-8.82-0.82,1.0,199.0,,,,,,,[],,,,,,56.4,1.0,i,1.0,True,919.6000000238419,56.0,60.0,40.0,False,,371.5786742289349,[],"[1280, 720]",ColorTask,103.0,83.0,,,HRV,HRV_0160,2022-11-30 18:25:00
,wl-rdm,200,512102,0.0-8.83-0.83,1.0,200.0,,,,,,,[],,,,,,73.6,1.0,i,1.0,True,557.0,34.0,60.0,40.0,False,,237.9214466708189,[],"[1280, 720]",ColorTask,104.0,84.0,,,HRV,HRV_0160,2022-11-30 18:25:00
,wl-rdm,201,514288,0.0-8.84-0.84,1.0,201.0,,,,,,,[],,,,,,62.5,0.0,u,0.0,True,752.8999999761581,46.0,60.0,40.0,False,,360.5665848314608,[],"[1280, 720]",ColorTask,105.0,85.0,,,HRV,HRV_0160,2022-11-30 18:25:00
,wl-rdm,202,516873,0.0-8.85-0.85,1.0,202.0,,,,,,,[],,,,,,87.9,0.0,u,0.0,True,1271.2999999523163,77.0,60.0,40.0,False,,247.85605815021046,[],"[1280, 720]",ColorTask,106.0,86.0,,,HRV,HRV_0160,2022-11-30 18:25:00
,wl-rdm,203,519326,0.0-8.86-0.86,1.0,203.0,,,,,,,[],,,,,,50.0,0.0,i,1.0,False,1060.5,64.0,60.0,40.0,False,,329.06666908488364,[],"[1280, 720]",ColorTask,105.0,87.0,,,HRV,HRV_0160,2022-11-30 18:25:00
,wl-rdm,204,521878,0.0-8.87-0.87,1.0,204.0,,,,,,,[],,,,,,56.4,0.0,i,1.0,False,1133.3999999761581,67.0,60.0,40.0,False,,355.8758341731452,[],"[1280, 720]",ColorTask,104.0,88.0,,,HRV,HRV_0160,2022-11-30 18:25:00
,wl-rdm,205,524196,0.0-8.88-0.88,1.0,205.0,,,,,,,[],,,,,,56.4,1.0,i,1.0,True,998.0,60.0,60.0,40.0,False,,265.82755005658714,[],"[1280, 720]",ColorTask,105.0,89.0,,,HRV,HRV_0160,2022-11-30 18:25:00
,wl-rdm,206,527532,0.0-8.89-0.89,1.0,206.0,,,,,,,[],,,,,,73.6,0.0,u,0.0,True,2051.7000000476837,123.0,60.0,40.0,False,,207.5182561874081,[],"[1280, 720]",ColorTask,106.0,90.0,,,HRV,HRV_0160,2022-11-30 18:25:00
,wl-rdm,207,532003,0.0-8.90-0.90,1.0,206.0,,,,,,,[],,,,,,62.5,1.0,i,,,3231.3000000715256,179.0,60.0,40.0,True,RT_timeout ,387.89827827668046,[],"[1280, 720]",ColorTask,105.0,91.0,,,HRV,HRV_0160,2022-11-30 18:25:00
,wl-rdm,208,534021,0.0-8.91-0.91,1.0,207.0,,,,,,,[],,,,,,87.9,0.0,u,0.0,True,698.0,42.0,60.0,40.0,False,,255.02372524233562,[],"[1280, 720]",ColorTask,106.0,92.0,,,HRV,HRV_0160,2022-11-30 18:25:00
,wl-rdm,209,536173,0.0-8.92-0.92,1.0,208.0,,,,,,,[],,,,,,73.6,1.0,i,1.0,True,859.3999999761581,52.0,60.0,40.0,False,,201.83679032879556,[],"[1280, 720]",ColorTask,107.0,93.0,,,HRV,HRV_0160,2022-11-30 18:25:00
,wl-rdm,210,538041,0.0-8.93-0.93,1.0,209.0,,,,,,,[],,,,,,73.6,1.0,i,1.0,True,553.6000000238419,34.0,60.0,40.0,False,,239.46943095365197,[],"[1280, 720]",ColorTask,108.0,94.0,,,HRV,HRV_0160,2022-11-30 18:25:00
,wl-rdm,211,540210,0.0-8.94-0.94,1.0,210.0,,,,,,,[],,,,,,62.5,0.0,i,1.0,False,897.6000000238419,54.0,60.0,40.0,False,,216.05908049012558,[],"[1280, 720]",ColorTask,107.0,95.0,,,HRV,HRV_0160,2022-11-30 18:25:00
,wl-rdm,212,542111,0.0-8.95-0.95,1.0,211.0,,,,,,,[],,,,,,62.5,0.0,i,1.0,False,621.7000000476837,38.0,60.0,40.0,False,,212.9546990768706,[],"[1280, 720]",ColorTask,106.0,96.0,,,HRV,HRV_0160,2022-11-30 18:25:00
,wl-rdm,213,544146,0.0-8.96-0.96,1.0,212.0,,,,,,,[],,,,,,62.5,1.0,i,1.0,True,573.0,35.0,60.0,40.0,False,,386.97783042480546,[],"[1280, 720]",ColorTask,107.0,97.0,,,HRV,HRV_0160,2022-11-30 18:25:00
,wl-rdm,214,546398,0.0-8.97-0.97,1.0,213.0,,,,,,,[],,,,,,53.2,1.0,u,0.0,False,937.0999999046326,56.0,60.0,40.0,False,,237.54366975571202,[],"[1280, 720]",ColorTask,106.0,98.0,,,HRV,HRV_0160,2022-11-30 18:25:00
,wl-rdm,215,548450,0.0-8.98-0.98,1.0,214.0,,,,,,,[],,,,,,87.9,1.0,i,1.0,True,648.5,39.0,60.0,40.0,False,,318.94139415550796,[],"[1280, 720]",ColorTask,107.0,99.0,,,HRV,HRV_0160,2022-11-30 18:25:00
,wl-rdm,216,550785,0.0-8.99-0.99,1.0,215.0,,,,,,,[],,,,,,50.0,0.0,i,1.0,False,874.7999999523163,53.0,60.0,40.0,False,,394.7964111014645,[],"[1280, 720]",ColorTask,106.0,100.0,,,HRV,HRV_0160,2022-11-30 18:25:00
,wl-rdm,217,553221,0.0-8.100-0.100,1.0,216.0,,,,,,,[],,,,,,62.5,0.0,u,0.0,True,981.7000000476837,59.0,60.0,40.0,False,,399.73507511389164,[],"[1280, 720]",ColorTask,107.0,101.0,,,HRV,HRV_0160,2022-11-30 18:25:00
,wl-rdm,218,555256,0.0-8.101-0.101,1.0,217.0,,,,,,,[],,,,,,56.4,0.0,u,0.0,True,758.2999999523163,46.0,60.0,40.0,False,,210.69689329349853,[],"[1280, 720]",ColorTask,108.0,102.0,,,HRV,HRV_0160,2022-11-30 18:25:00
,wl-rdm,219,557124,0.0-8.102-0.102,1.0,218.0,,,,,,,[],,,,,,87.9,1.0,i,1.0,True,571.6999999284744,35.0,60.0,40.0,False,,228.49185959612015,[],"[1280, 720]",ColorTask,109.0,103.0,,,HRV,HRV_0160,2022-11-30 18:25:00
,wl-rdm,220,559559,0.0-8.103-0.103,1.0,219.0,,,,,,,[],,,,,,62.5,1.0,i,1.0,True,969.0999999046326,57.0,60.0,40.0,False,,391.4531590613025,[],"[1280, 720]",ColorTask,110.0,104.0,,,HRV,HRV_0160,2022-11-30 18:25:00
,wl-rdm,221,561677,0.0-8.104-0.104,1.0,220.0,,,,,,,[],,,,,,56.4,1.0,i,1.0,True,756.7000000476837,46.0,60.0,40.0,False,,271.9086468047567,[],"[1280, 720]",ColorTask,111.0,105.0,,,HRV,HRV_0160,2022-11-30 18:25:00
,wl-rdm,222,563696,0.0-8.105-0.105,1.0,221.0,,,,,,,[],,,,,,73.6,0.0,u,0.0,True,648.0999999046326,39.0,60.0,40.0,False,,308.3942775125588,[],"[1280, 720]",ColorTask,112.0,106.0,,,HRV,HRV_0160,2022-11-30 18:25:00
,wl-rdm,223,566048,0.0-8.106-0.106,1.0,222.0,,,,,,,[],,,,,,50.0,0.0,i,1.0,False,1035.6999999284744,63.0,60.0,40.0,False,,235.52696200959036,[],"[1280, 720]",ColorTask,111.0,107.0,,,HRV,HRV_0160,2022-11-30 18:25:00
,wl-rdm,224,568550,0.0-8.107-0.107,1.0,223.0,,,,,,,[],,,,,,50.0,0.0,i,1.0,False,1229.7000000476837,74.0,60.0,40.0,False,,201.11284397105888,[],"[1280, 720]",ColorTask,110.0,108.0,,,HRV,HRV_0160,2022-11-30 18:25:00
,wl-rdm,225,570718,0.0-8.108-0.108,1.0,224.0,,,,,,,[],,,,,,56.4,0.0,u,0.0,True,848.3999999761581,51.0,60.0,40.0,False,,224.81828038487018,[],"[1280, 720]",ColorTask,111.0,109.0,,,HRV,HRV_0160,2022-11-30 18:25:00
,wl-html-button-response,226,573192,0.0-9.0-0.0,,,,,,,,,,2471.2000000476837,,0,,,,,,,,,,,,,,,,,,,,<h3>End of this session. Thank you!</h3><br>,['Close window'],HRV,HRV_0160,2022-11-30 18:25:00
