trialN,stimuli,trialStartTime,trialStartTime_UNIX,stimulus1,stimulus2,stimulus1Bid,stimulus2Bid,delta,selected,rt,rt_UNIX,rt_perfnow,receivedResponse,rsp,trialEndTime,trialDuration,trialEndTime_UNIX,trialDuration_UNIX,trialEvents,exp,subjectId,date
0,"[{'imgObject': {}, 'id': 'kiwi', 'src': '/static/foodstim60/kiwi.jpg', 'key': 'u', 'origWidth': 410, 'origHeight': 410, 'width': 410, 'height': 410, 'widthPercent': 0.45, 'rescaleHeight': False, 'trialN': 0, 'loaded': True, 'loadedTime': 2538.7000000476837, 'positionName': 'LEFT', 'positionCoords': [818.8, 515], 'bid': 4.98}, {'imgObject': {}, 'id': 'burger', 'src': '/static/foodstim60/burger.jpg', 'key': 'i', 'origWidth': 409, 'origHeight': 409, 'width': 409, 'height': 409, 'widthPercent': 0.45, 'rescaleHeight': False, 'trialN': 0, 'loaded': True, 'loadedTime': 2564.8000000715256, 'positionName': 'RIGHT', 'positionCoords': [1331.2, 515.5], 'bid': 7.82}]",3172.0,1669831028681,kiwi,burger,4.98,7.82,2.84,burger,1585.2000000476837,1586,1585.6000000238419,True,i,5262.899999976158,2090.899999976158,1669831030772,2091,,HRV,HRV_0160,2022-11-30 18:02:19
1,"[{'imgObject': {}, 'id': 'turkeysandwich', 'src': '/static/foodstim60/turkeysandwich.jpg', 'key': 'u', 'origWidth': 409, 'origHeight': 409, 'width': 409, 'height': 409, 'widthPercent': 0.45, 'rescaleHeight': False, 'trialN': 1, 'loaded': True, 'loadedTime': 2572.3000000715256, 'positionName': 'LEFT', 'positionCoords': [819.8, 515.5], 'bid': 5.5}, {'imgObject': {}, 'id': 'eggs', 'src': '/static/foodstim60/eggs.jpg', 'key': 'i', 'origWidth': 409, 'origHeight': 409, 'width': 409, 'height': 409, 'widthPercent': 0.45, 'rescaleHeight': False, 'trialN': 1, 'loaded': True, 'loadedTime': 2574.399999976158, 'positionName': 'RIGHT', 'positionCoords': [1331.2, 515.5], 'bid': 0.8200000000000001}]",5263.0,1669831030772,turkeysandwich,eggs,5.5,0.8200000000000001,-4.68,turkeysandwich,1132.3000000715256,1133,1132.5,True,u,6908.100000023842,1645.1000000238419,1669831032417,1645,,HRV,HRV_0160,2022-11-30 18:02:19
2,"[{'imgObject': {}, 'id': 'rigatoni', 'src': '/static/foodstim60/rigatoni.jpg', 'key': 'u', 'origWidth': 411, 'origHeight': 411, 'width': 411, 'height': 411, 'widthPercent': 0.45, 'rescaleHeight': False, 'trialN': 2, 'loaded': True, 'loadedTime': 2576, 'positionName': 'LEFT', 'positionCoords': [817.8, 514.5], 'bid': 0.45}, {'imgObject': {}, 'id': 'hotdog w must', 'src': '/static/foodstim60/hotdog w must.jpg', 'key': 'i', 'origWidth': 409, 'origHeight': 409, 'width': 409, 'height': 409, 'widthPercent': 0.45, 'rescaleHeight': False, 'trialN': 2, 'loaded': True, 'loadedTime': 2577.7000000476837, 'positionName': 'RIGHT', 'positionCoords': [1331.2, 515.5], 'bid': 5.37}]",6908.200000047684,1669831032417,rigatoni,hotdog w must,0.45,5.37,4.92,hotdog w must,942.0,943,942.2999999523163,True,i,8369.200000047684,1461.0,1669831033878,1461,,HRV,HRV_0160,2022-11-30 18:02:19
3,"[{'imgObject': {}, 'id': 'hashbrowns', 'src': '/static/foodstim60/hashbrowns.jpg', 'key': 'u', 'origWidth': 411, 'origHeight': 410, 'width': 411, 'height': 410, 'widthPercent': 0.45, 'rescaleHeight': False, 'trialN': 3, 'loaded': True, 'loadedTime': 2577.899999976158, 'positionName': 'LEFT', 'positionCoords': [817.8, 515], 'bid': 2.89}, {'imgObject': {}, 'id': 'cherry tomato', 'src': '/static/foodstim60/cherry tomato.jpg', 'key': 'i', 'origWidth': 410, 'origHeight': 410, 'width': 410, 'height': 410, 'widthPercent': 0.45, 'rescaleHeight': False, 'trialN': 3, 'loaded': True, 'loadedTime': 2581, 'positionName': 'RIGHT', 'positionCoords': [1331.2, 515], 'bid': 4.92}]",8369.600000023842,1669831033879,hashbrowns,cherry tomato,2.89,4.92,2.03,hashbrowns,828.7000000476837,829,829.2000000476837,True,u,9705.200000047684,1335.6000000238419,1669831035214,1335,,HRV,HRV_0160,2022-11-30 18:02:19
4,"[{'imgObject': {}, 'id': 'salad w chicken', 'src': '/static/foodstim60/salad w chicken.jpg', 'key': 'u', 'origWidth': 411, 'origHeight': 411, 'width': 411, 'height': 411, 'widthPercent': 0.45, 'rescaleHeight': False, 'trialN': 4, 'loaded': True, 'loadedTime': 2582.7000000476837, 'positionName': 'LEFT', 'positionCoords': [817.8, 514.5], 'bid': 7.85}, {'imgObject': {}, 'id': 'bagel plain', 'src': '/static/foodstim60/bagel plain.jpg', 'key': 'i', 'origWidth': 410, 'origHeight': 410, 'width': 410, 'height': 410, 'widthPercent': 0.45, 'rescaleHeight': False, 'trialN': 4, 'loaded': True, 'loadedTime': 2585.100000023842, 'positionName': 'RIGHT', 'positionCoords': [1331.2, 515], 'bid': 7.92}]",9705.700000047684,1669831035215,salad w chicken,bagel plain,7.85,7.92,0.07000000000000028,salad w chicken,850.6000000238419,851,850.8999999761581,True,u,11069.300000071526,1363.6000000238419,1669831036578,1363,,HRV,HRV_0160,2022-11-30 18:02:19
5,"[{'imgObject': {}, 'id': 'sweetpotato', 'src': '/static/foodstim60/sweetpotato.jpg', 'key': 'u', 'origWidth': 410, 'origHeight': 410, 'width': 410, 'height': 410, 'widthPercent': 0.45, 'rescaleHeight': False, 'trialN': 5, 'loaded': True, 'loadedTime': 2590.8000000715256, 'positionName': 'LEFT', 'positionCoords': [818.8, 515], 'bid': 0.22}, {'imgObject': {}, 'id': 'lox', 'src': '/static/foodstim60/lox.jpg', 'key': 'i', 'origWidth': 410, 'origHeight': 411, 'width': 410, 'height': 411, 'widthPercent': 0.45, 'rescaleHeight': False, 'trialN': 5, 'loaded': True, 'loadedTime': 2544.3000000715256, 'positionName': 'RIGHT', 'positionCoords': [1331.2, 514.5], 'bid': 1.17}]",11069.5,1669831036579,sweetpotato,lox,0.22,1.17,0.95,lox,931.0,931,931.2000000476837,True,i,12509.600000023842,1440.1000000238419,1669831038019,1440,,HRV,HRV_0160,2022-11-30 18:02:19
6,"[{'imgObject': {}, 'id': 'popsicles', 'src': '/static/foodstim60/popsicles.jpg', 'key': 'u', 'origWidth': 410, 'origHeight': 410, 'width': 410, 'height': 410, 'widthPercent': 0.45, 'rescaleHeight': False, 'trialN': 6, 'loaded': True, 'loadedTime': 2692.100000023842, 'positionName': 'LEFT', 'positionCoords': [818.8, 515], 'bid': 0.91}, {'imgObject': {}, 'id': 'fried eggs', 'src': '/static/foodstim60/fried eggs.jpg', 'key': 'i', 'origWidth': 410, 'origHeight': 410, 'width': 410, 'height': 410, 'widthPercent': 0.45, 'rescaleHeight': False, 'trialN': 6, 'loaded': True, 'loadedTime': 2546.399999976158, 'positionName': 'RIGHT', 'positionCoords': [1331.2, 515], 'bid': 2.66}]",12510.200000047684,1669831038019,popsicles,fried eggs,0.91,2.66,1.75,fried eggs,1038.0,1039,1038.5,True,i,14057.300000071526,1547.1000000238419,1669831039566,1547,,HRV,HRV_0160,2022-11-30 18:02:19
7,"[{'imgObject': {}, 'id': 'burrito', 'src': '/static/foodstim60/burrito.jpg', 'key': 'u', 'origWidth': 410, 'origHeight': 410, 'width': 410, 'height': 410, 'widthPercent': 0.45, 'rescaleHeight': False, 'trialN': 7, 'loaded': True, 'loadedTime': 2558.3000000715256, 'positionName': 'LEFT', 'positionCoords': [818.8, 515], 'bid': 2.79}, {'imgObject': {}, 'id': 'bagel plain', 'src': '/static/foodstim60/bagel plain.jpg', 'key': 'i', 'origWidth': 410, 'origHeight': 410, 'width': 410, 'height': 410, 'widthPercent': 0.45, 'rescaleHeight': False, 'trialN': 7, 'loaded': True, 'loadedTime': 2585.8000000715256, 'positionName': 'RIGHT', 'positionCoords': [1331.2, 515], 'bid': 7.92}]",14057.5,1669831039567,burrito,bagel plain,2.79,7.92,5.13,bagel plain,1044.8999999761581,1045,1045.3999999761581,True,i,15605.399999976158,1547.8999999761581,1669831041115,1548,,HRV,HRV_0160,2022-11-30 18:02:19
8,"[{'imgObject': {}, 'id': 'raisin bran w milk', 'src': '/static/foodstim60/raisin bran w milk.jpg', 'key': 'u', 'origWidth': 411, 'origHeight': 411, 'width': 411, 'height': 411, 'widthPercent': 0.45, 'rescaleHeight': False, 'trialN': 8, 'loaded': True, 'loadedTime': 2608.5, 'positionName': 'LEFT', 'positionCoords': [817.8, 514.5], 'bid': 3.35}, {'imgObject': {}, 'id': 'cheerios', 'src': '/static/foodstim60/cheerios.jpg', 'key': 'i', 'origWidth': 409, 'origHeight': 410, 'width': 409, 'height': 410, 'widthPercent': 0.45, 'rescaleHeight': False, 'trialN': 8, 'loaded': True, 'loadedTime': 2614.399999976158, 'positionName': 'RIGHT', 'positionCoords': [1331.2, 515], 'bid': 3.71}]",15605.600000023842,1669831041115,raisin bran w milk,cheerios,3.35,3.71,0.3599999999999999,raisin bran w milk,1021.3999999761581,1021,1021.7999999523163,True,u,17137.0,1531.3999999761581,1669831042646,1531,,HRV,HRV_0160,2022-11-30 18:02:19
9,"[{'imgObject': {}, 'id': 'banana', 'src': '/static/foodstim60/banana.jpg', 'key': 'u', 'origWidth': 410, 'origHeight': 410, 'width': 410, 'height': 410, 'widthPercent': 0.45, 'rescaleHeight': False, 'trialN': 9, 'loaded': True, 'loadedTime': 2619.600000023842, 'positionName': 'LEFT', 'positionCoords': [818.8, 515], 'bid': 6.7}, {'imgObject': {}, 'id': 'shreddedwheatwithmilk', 'src': '/static/foodstim60/shreddedwheatwithmilk.jpg', 'key': 'i', 'origWidth': 410, 'origHeight': 410, 'width': 410, 'height': 410, 'widthPercent': 0.45, 'rescaleHeight': False, 'trialN': 9, 'loaded': True, 'loadedTime': 2630.3000000715256, 'positionName': 'RIGHT', 'positionCoords': [1331.2, 515], 'bid': 6.640000000000001}]",17137.200000047684,1669831042646,banana,shreddedwheatwithmilk,6.7,6.640000000000001,-0.05999999999999961,banana,724.1999999284744,725,724.7999999523163,True,u,18377.700000047684,1240.5,1669831043887,1241,,HRV,HRV_0160,2022-11-30 18:02:19
10,"[{'imgObject': {}, 'id': 'salad w chicken', 'src': '/static/foodstim60/salad w chicken.jpg', 'key': 'u', 'origWidth': 411, 'origHeight': 411, 'width': 411, 'height': 411, 'widthPercent': 0.45, 'rescaleHeight': False, 'trialN': 10, 'loaded': True, 'loadedTime': 2581.399999976158, 'positionName': 'LEFT', 'positionCoords': [817.8, 514.5], 'bid': 7.85}, {'imgObject': {}, 'id': 'fruitsalad', 'src': '/static/foodstim60/fruitsalad.jpg', 'key': 'i', 'origWidth': 410, 'origHeight': 410, 'width': 410, 'height': 410, 'widthPercent': 0.45, 'rescaleHeight': False, 'trialN': 10, 'loaded': True, 'loadedTime': 2631.7000000476837, 'positionName': 'RIGHT', 'positionCoords': [1331.2, 515], 'bid': 9.21}]",18378.0,1669831043887,salad w chicken,fruitsalad,7.85,9.21,1.3600000000000012,fruitsalad,1544.6000000238419,1545,1545.2000000476837,True,i,20432.100000023842,2054.100000023842,1669831045941,2054,,HRV,HRV_0160,2022-11-30 18:02:19
11,"[{'imgObject': {}, 'id': 'turkey sandwich', 'src': '/static/foodstim60/turkey sandwich.jpg', 'key': 'u', 'origWidth': 409, 'origHeight': 409, 'width': 409, 'height': 409, 'widthPercent': 0.45, 'rescaleHeight': False, 'trialN': 11, 'loaded': True, 'loadedTime': 2663.7000000476837, 'positionName': 'LEFT', 'positionCoords': [819.8, 515.5], 'bid': 2.07}, {'imgObject': {}, 'id': 'granola w milk', 'src': '/static/foodstim60/granola w milk.jpg', 'key': 'i', 'origWidth': 410, 'origHeight': 410, 'width': 410, 'height': 410, 'widthPercent': 0.45, 'rescaleHeight': False, 'trialN': 11, 'loaded': True, 'loadedTime': 2716.2000000476837, 'positionName': 'RIGHT', 'positionCoords': [1331.2, 515], 'bid': 3.89}]",20432.399999976158,1669831045942,turkey sandwich,granola w milk,2.07,3.89,1.8200000000000003,granola w milk,1161.3000000715256,1161,1162.0,True,i,22103.800000071526,1671.4000000953674,1669831047613,1671,,HRV,HRV_0160,2022-11-30 18:02:19
12,"[{'imgObject': {}, 'id': 'avocado', 'src': '/static/foodstim60/avocado.jpg', 'key': 'u', 'origWidth': 409, 'origHeight': 409, 'width': 409, 'height': 409, 'widthPercent': 0.45, 'rescaleHeight': False, 'trialN': 12, 'loaded': True, 'loadedTime': 2739, 'positionName': 'LEFT', 'positionCoords': [819.8, 515.5], 'bid': 2.22}, {'imgObject': {}, 'id': 'mashed potato', 'src': '/static/foodstim60/mashed potato.jpg', 'key': 'i', 'origWidth': 409, 'origHeight': 409, 'width': 409, 'height': 409, 'widthPercent': 0.45, 'rescaleHeight': False, 'trialN': 12, 'loaded': True, 'loadedTime': 2767.3000000715256, 'positionName': 'RIGHT', 'positionCoords': [1331.2, 515.5], 'bid': 2.09}]",22103.899999976158,1669831047613,avocado,mashed potato,2.22,2.09,-0.13000000000000034,mashed potato,2168.0,2168,2168.3000000715256,True,i,24786.200000047684,2682.3000000715256,1669831050295,2682,,HRV,HRV_0160,2022-11-30 18:02:19
13,"[{'imgObject': {}, 'id': 'mashed potato', 'src': '/static/foodstim60/mashed potato.jpg', 'key': 'u', 'origWidth': 409, 'origHeight': 409, 'width': 409, 'height': 409, 'widthPercent': 0.45, 'rescaleHeight': False, 'trialN': 13, 'loaded': True, 'loadedTime': 2750.8000000715256, 'positionName': 'LEFT', 'positionCoords': [819.8, 515.5], 'bid': 2.09}, {'imgObject': {}, 'id': 'pear', 'src': '/static/foodstim60/pear.jpg', 'key': 'i', 'origWidth': 411, 'origHeight': 410, 'width': 411, 'height': 410, 'widthPercent': 0.45, 'rescaleHeight': False, 'trialN': 13, 'loaded': True, 'loadedTime': 2770, 'positionName': 'RIGHT', 'positionCoords': [1331.2, 515], 'bid': 3.92}]",24786.399999976158,1669831050296,mashed potato,pear,2.09,3.92,1.83,pear,1520.5,1520,1520.7000000476837,True,i,26824.5,2038.1000000238419,1669831052334,2038,,HRV,HRV_0160,2022-11-30 18:02:19
14,"[{'imgObject': {}, 'id': 'banana', 'src': '/static/foodstim60/banana.jpg', 'key': 'u', 'origWidth': 410, 'origHeight': 410, 'width': 410, 'height': 410, 'widthPercent': 0.45, 'rescaleHeight': False, 'trialN': 14, 'loaded': True, 'loadedTime': 2624.5, 'positionName': 'LEFT', 'positionCoords': [818.8, 515], 'bid': 6.7}, {'imgObject': {}, 'id': 'roastedpotatoes', 'src': '/static/foodstim60/roastedpotatoes.jpg', 'key': 'i', 'origWidth': 409, 'origHeight': 410, 'width': 409, 'height': 410, 'widthPercent': 0.45, 'rescaleHeight': False, 'trialN': 14, 'loaded': True, 'loadedTime': 2771.600000023842, 'positionName': 'RIGHT', 'positionCoords': [1331.2, 515], 'bid': 8.540000000000001}]",26824.800000071526,1669831052334,banana,roastedpotatoes,6.7,8.540000000000001,1.8400000000000007,roastedpotatoes,1082.6999999284744,1083,1083.1999999284744,True,i,28419.300000071526,1594.5,1669831053928,1594,,HRV,HRV_0160,2022-11-30 18:02:19
15,"[{'imgObject': {}, 'id': 'grilled chicken strips', 'src': '/static/foodstim60/grilled chicken strips.jpg', 'key': 'u', 'origWidth': 410, 'origHeight': 411, 'width': 410, 'height': 411, 'widthPercent': 0.45, 'rescaleHeight': False, 'trialN': 15, 'loaded': True, 'loadedTime': 2773.899999976158, 'positionName': 'LEFT', 'positionCoords': [818.8, 514.5], 'bid': 6.1000000000000005}, {'imgObject': {}, 'id': 'blueberries', 'src': '/static/foodstim60/blueberries.jpg', 'key': 'i', 'origWidth': 411, 'origHeight': 411, 'width': 411, 'height': 411, 'widthPercent': 0.45, 'rescaleHeight': False, 'trialN': 15, 'loaded': True, 'loadedTime': 2776.3000000715256, 'positionName': 'RIGHT', 'positionCoords': [1331.2, 514.5], 'bid': 5.79}]",28419.700000047684,1669831053929,grilled chicken strips,blueberries,6.1000000000000005,5.79,-0.3100000000000005,grilled chicken strips,1035.5,1036,1036.1000000238419,True,u,29966.300000071526,1546.6000000238419,1669831055475,1546,,HRV,HRV_0160,2022-11-30 18:02:19
16,"[{'imgObject': {}, 'id': 'corn cob', 'src': '/static/foodstim60/corn cob.jpg', 'key': 'u', 'origWidth': 411, 'origHeight': 411, 'width': 411, 'height': 411, 'widthPercent': 0.45, 'rescaleHeight': False, 'trialN': 16, 'loaded': True, 'loadedTime': 2792.100000023842, 'positionName': 'LEFT', 'positionCoords': [817.8, 514.5], 'bid': 9.05}, {'imgObject': {}, 'id': 'tacos', 'src': '/static/foodstim60/tacos.jpg', 'key': 'i', 'origWidth': 411, 'origHeight': 411, 'width': 411, 'height': 411, 'widthPercent': 0.45, 'rescaleHeight': False, 'trialN': 16, 'loaded': True, 'loadedTime': 2815.100000023842, 'positionName': 'RIGHT', 'positionCoords': [1331.2, 514.5], 'bid': 10}]",29966.700000047684,1669831055476,corn cob,tacos,9.05,10.0,0.9499999999999993,tacos,972.5,973,972.7999999523163,True,i,31452.200000047684,1485.5,1669831056961,1485,,HRV,HRV_0160,2022-11-30 18:02:19
17,"[{'imgObject': {}, 'id': 'raisin bran w milk', 'src': '/static/foodstim60/raisin bran w milk.jpg', 'key': 'u', 'origWidth': 411, 'origHeight': 411, 'width': 411, 'height': 411, 'widthPercent': 0.45, 'rescaleHeight': False, 'trialN': 17, 'loaded': True, 'loadedTime': 2607.399999976158, 'positionName': 'LEFT', 'positionCoords': [817.8, 514.5], 'bid': 3.35}, {'imgObject': {}, 'id': 'hotdog w must', 'src': '/static/foodstim60/hotdog w must.jpg', 'key': 'i', 'origWidth': 409, 'origHeight': 409, 'width': 409, 'height': 409, 'widthPercent': 0.45, 'rescaleHeight': False, 'trialN': 17, 'loaded': True, 'loadedTime': 2577.600000023842, 'positionName': 'RIGHT', 'positionCoords': [1331.2, 515.5], 'bid': 5.37}]",31452.700000047684,1669831056962,raisin bran w milk,hotdog w must,3.35,5.37,2.02,hotdog w must,782.7999999523163,783,782.8999999761581,True,i,32755.800000071526,1303.1000000238419,1669831058265,1303,,HRV,HRV_0160,2022-11-30 18:02:19
18,"[{'imgObject': {}, 'id': 'olives', 'src': '/static/foodstim60/olives.jpg', 'key': 'u', 'origWidth': 410, 'origHeight': 410, 'width': 410, 'height': 410, 'widthPercent': 0.45, 'rescaleHeight': False, 'trialN': 18, 'loaded': True, 'loadedTime': 2826.399999976158, 'positionName': 'LEFT', 'positionCoords': [818.8, 515], 'bid': 0.42}, {'imgObject': {}, 'id': 'mashed potato', 'src': '/static/foodstim60/mashed potato.jpg', 'key': 'i', 'origWidth': 409, 'origHeight': 409, 'width': 409, 'height': 409, 'widthPercent': 0.45, 'rescaleHeight': False, 'trialN': 18, 'loaded': True, 'loadedTime': 2751.7000000476837, 'positionName': 'RIGHT', 'positionCoords': [1331.2, 515.5], 'bid': 2.09}]",32756.100000023842,1669831058265,olives,mashed potato,0.42,2.09,1.67,mashed potato,790.5,791,791.1000000238419,True,i,34058.700000047684,1302.6000000238419,1669831059568,1303,,HRV,HRV_0160,2022-11-30 18:02:19
19,"[{'imgObject': {}, 'id': 'seaweed', 'src': '/static/foodstim60/seaweed.jpg', 'key': 'u', 'origWidth': 410, 'origHeight': 410, 'width': 410, 'height': 410, 'widthPercent': 0.45, 'rescaleHeight': False, 'trialN': 19, 'loaded': True, 'loadedTime': 2863.5, 'positionName': 'LEFT', 'positionCoords': [818.8, 515], 'bid': 8.28}, {'imgObject': {}, 'id': 'mango', 'src': '/static/foodstim60/mango.jpg', 'key': 'i', 'origWidth': 411, 'origHeight': 411, 'width': 411, 'height': 411, 'widthPercent': 0.45, 'rescaleHeight': False, 'trialN': 19, 'loaded': True, 'loadedTime': 2874.899999976158, 'positionName': 'RIGHT', 'positionCoords': [1331.2, 514.5], 'bid': 9.57}]",34059.200000047684,1669831059568,seaweed,mango,8.28,9.57,1.290000000000001,mango,1026.7999999523163,1028,1027.1999999284744,True,i,35592.700000047684,1533.5,1669831061102,1534,,HRV,HRV_0160,2022-11-30 18:02:19
20,"[{'imgObject': {}, 'id': 'shreddedwheatwithmilk', 'src': '/static/foodstim60/shreddedwheatwithmilk.jpg', 'key': 'u', 'origWidth': 410, 'origHeight': 410, 'width': 410, 'height': 410, 'widthPercent': 0.45, 'rescaleHeight': False, 'trialN': 20, 'loaded': True, 'loadedTime': 2629, 'positionName': 'LEFT', 'positionCoords': [818.8, 515], 'bid': 6.640000000000001}, {'imgObject': {}, 'id': 'omelette', 'src': '/static/foodstim60/omelette.jpg', 'key': 'i', 'origWidth': 410, 'origHeight': 409, 'width': 410, 'height': 409, 'widthPercent': 0.45, 'rescaleHeight': False, 'trialN': 20, 'loaded': True, 'loadedTime': 2902, 'positionName': 'RIGHT', 'positionCoords': [1331.2, 515.5], 'bid': 6.7700000000000005}]",35592.89999997616,1669831061102,shreddedwheatwithmilk,omelette,6.640000000000001,6.7700000000000005,0.1299999999999999,shreddedwheatwithmilk,1720.6000000238419,1721,1721.1000000238419,True,u,37832.5,2239.600000023842,1669831063342,2240,,HRV,HRV_0160,2022-11-30 18:02:19
21,"[{'imgObject': {}, 'id': 'froot loops w milk', 'src': '/static/foodstim60/froot loops w milk.jpg', 'key': 'u', 'origWidth': 410, 'origHeight': 410, 'width': 410, 'height': 410, 'widthPercent': 0.45, 'rescaleHeight': False, 'trialN': 21, 'loaded': True, 'loadedTime': 2926.8000000715256, 'positionName': 'LEFT', 'positionCoords': [818.8, 515], 'bid': 2.71}, {'imgObject': {}, 'id': 'veggieswithdip', 'src': '/static/foodstim60/veggieswithdip.jpg', 'key': 'i', 'origWidth': 409, 'origHeight': 409, 'width': 409, 'height': 409, 'widthPercent': 0.45, 'rescaleHeight': False, 'trialN': 21, 'loaded': True, 'loadedTime': 2926.899999976158, 'positionName': 'RIGHT', 'positionCoords': [1331.2, 515.5], 'bid': 3.01}]",37832.700000047684,1669831063342,froot loops w milk,veggieswithdip,2.71,3.01,0.2999999999999998,veggieswithdip,1230.2999999523163,1231,1230.7999999523163,True,i,39579.10000002384,1746.3999999761581,1669831065088,1746,,HRV,HRV_0160,2022-11-30 18:02:19
22,"[{'imgObject': {}, 'id': 'ice cream sundae 002', 'src': '/static/foodstim60/ice cream sundae 002.jpg', 'key': 'u', 'origWidth': 409, 'origHeight': 409, 'width': 409, 'height': 409, 'widthPercent': 0.45, 'rescaleHeight': False, 'trialN': 22, 'loaded': True, 'loadedTime': 2950.399999976158, 'positionName': 'LEFT', 'positionCoords': [819.8, 515.5], 'bid': 1.27}, {'imgObject': {}, 'id': 'blackbeanswithrice', 'src': '/static/foodstim60/blackbeanswithrice.jpg', 'key': 'i', 'origWidth': 410, 'origHeight': 410, 'width': 410, 'height': 410, 'widthPercent': 0.45, 'rescaleHeight': False, 'trialN': 22, 'loaded': True, 'loadedTime': 2995.600000023842, 'positionName': 'RIGHT', 'positionCoords': [1331.2, 515], 'bid': 1.47}]",39579.300000071526,1669831065088,ice cream sundae 002,blackbeanswithrice,1.27,1.47,0.19999999999999996,blackbeanswithrice,1108.5999999046326,1110,1109.1999999284744,True,i,41201.800000071526,1622.5,1669831066711,1623,,HRV,HRV_0160,2022-11-30 18:02:19
23,"[{'imgObject': {}, 'id': 'chicken nuggets2', 'src': '/static/foodstim60/chicken nuggets2.jpg', 'key': 'u', 'origWidth': 410, 'origHeight': 409, 'width': 410, 'height': 409, 'widthPercent': 0.45, 'rescaleHeight': False, 'trialN': 23, 'loaded': True, 'loadedTime': 3022.3000000715256, 'positionName': 'LEFT', 'positionCoords': [818.8, 515.5], 'bid': 3.67}, {'imgObject': {}, 'id': 'turkeysandwich', 'src': '/static/foodstim60/turkeysandwich.jpg', 'key': 'i', 'origWidth': 409, 'origHeight': 409, 'width': 409, 'height': 409, 'widthPercent': 0.45, 'rescaleHeight': False, 'trialN': 23, 'loaded': True, 'loadedTime': 2572.899999976158, 'positionName': 'RIGHT', 'positionCoords': [1331.2, 515.5], 'bid': 5.5}]",41202.0,1669831066711,chicken nuggets2,turkeysandwich,3.67,5.5,1.83,turkeysandwich,1148.7000000476837,1149,1149.0,True,i,42857.60000002384,1655.6000000238419,1669831068367,1656,,HRV,HRV_0160,2022-11-30 18:02:19
24,"[{'imgObject': {}, 'id': 'edamame', 'src': '/static/foodstim60/edamame.jpg', 'key': 'u', 'origWidth': 409, 'origHeight': 410, 'width': 409, 'height': 410, 'widthPercent': 0.45, 'rescaleHeight': False, 'trialN': 24, 'loaded': True, 'loadedTime': 3023.399999976158, 'positionName': 'LEFT', 'positionCoords': [819.8, 515], 'bid': 7.78}, {'imgObject': {}, 'id': 'Grapes', 'src': '/static/foodstim60/Grapes.jpg', 'key': 'i', 'origWidth': 411, 'origHeight': 411, 'width': 411, 'height': 411, 'widthPercent': 0.45, 'rescaleHeight': False, 'trialN': 24, 'loaded': True, 'loadedTime': 3024.3000000715256, 'positionName': 'RIGHT', 'positionCoords': [1331.2, 514.5], 'bid': 7.09}]",42858.10000002384,1669831068367,edamame,Grapes,7.78,7.09,-0.6900000000000004,edamame,1000.2999999523163,1001,1000.7999999523163,True,u,44373.5,1515.3999999761581,1669831069883,1516,,HRV,HRV_0160,2022-11-30 18:02:19
25,"[{'imgObject': {}, 'id': 'fruitsalad', 'src': '/static/foodstim60/fruitsalad.jpg', 'key': 'u', 'origWidth': 410, 'origHeight': 410, 'width': 410, 'height': 410, 'widthPercent': 0.45, 'rescaleHeight': False, 'trialN': 25, 'loaded': True, 'loadedTime': 2631.899999976158, 'positionName': 'LEFT', 'positionCoords': [818.8, 515], 'bid': 9.21}, {'imgObject': {}, 'id': 'raspberries', 'src': '/static/foodstim60/raspberries.jpg', 'key': 'i', 'origWidth': 411, 'origHeight': 411, 'width': 411, 'height': 411, 'widthPercent': 0.45, 'rescaleHeight': False, 'trialN': 25, 'loaded': True, 'loadedTime': 3056.899999976158, 'positionName': 'RIGHT', 'positionCoords': [1331.2, 514.5], 'bid': 6.17}]",44373.700000047684,1669831069883,fruitsalad,raspberries,9.21,6.17,-3.040000000000001,fruitsalad,1050.1999999284744,1050,1050.3999999761581,True,u,45935.39999997616,1561.6999999284744,1669831071444,1561,,HRV,HRV_0160,2022-11-30 18:02:19
26,"[{'imgObject': {}, 'id': 'apple slices', 'src': '/static/foodstim60/apple slices.jpg', 'key': 'u', 'origWidth': 409, 'origHeight': 410, 'width': 409, 'height': 410, 'widthPercent': 0.45, 'rescaleHeight': False, 'trialN': 26, 'loaded': True, 'loadedTime': 3068.100000023842, 'positionName': 'LEFT', 'positionCoords': [819.8, 515], 'bid': 4.3500000000000005}, {'imgObject': {}, 'id': 'salmon', 'src': '/static/foodstim60/salmon.jpg', 'key': 'i', 'origWidth': 410, 'origHeight': 409, 'width': 410, 'height': 409, 'widthPercent': 0.45, 'rescaleHeight': False, 'trialN': 26, 'loaded': True, 'loadedTime': 3091.7000000476837, 'positionName': 'RIGHT', 'positionCoords': [1331.2, 515.5], 'bid': 7.52}]",45935.700000047684,1669831071445,apple slices,salmon,4.3500000000000005,7.52,3.169999999999999,salmon,947.0,947,947.2999999523163,True,i,47389.700000047684,1454.0,1669831072899,1454,,HRV,HRV_0160,2022-11-30 18:02:19
27,"[{'imgObject': {}, 'id': 'chickenfingers', 'src': '/static/foodstim60/chickenfingers.jpg', 'key': 'u', 'origWidth': 410, 'origHeight': 410, 'width': 410, 'height': 410, 'widthPercent': 0.45, 'rescaleHeight': False, 'trialN': 27, 'loaded': True, 'loadedTime': 3112.600000023842, 'positionName': 'LEFT', 'positionCoords': [818.8, 515], 'bid': 2.21}, {'imgObject': {}, 'id': 'rigatoni', 'src': '/static/foodstim60/rigatoni.jpg', 'key': 'i', 'origWidth': 411, 'origHeight': 411, 'width': 411, 'height': 411, 'widthPercent': 0.45, 'rescaleHeight': False, 'trialN': 27, 'loaded': True, 'loadedTime': 2575.8000000715256, 'positionName': 'RIGHT', 'positionCoords': [1331.2, 514.5], 'bid': 0.45}]",47389.89999997616,1669831072899,chickenfingers,rigatoni,2.21,0.45,-1.76,chickenfingers,1032.1000000238419,1032,1032.4000000953674,True,u,48936.800000071526,1546.9000000953674,1669831074446,1547,,HRV,HRV_0160,2022-11-30 18:02:19
28,"[{'imgObject': {}, 'id': 'turkeysandwich', 'src': '/static/foodstim60/turkeysandwich.jpg', 'key': 'u', 'origWidth': 409, 'origHeight': 409, 'width': 409, 'height': 409, 'widthPercent': 0.45, 'rescaleHeight': False, 'trialN': 28, 'loaded': True, 'loadedTime': 2572.7000000476837, 'positionName': 'LEFT', 'positionCoords': [819.8, 515.5], 'bid': 5.5}, {'imgObject': {}, 'id': 'seaweed', 'src': '/static/foodstim60/seaweed.jpg', 'key': 'i', 'origWidth': 410, 'origHeight': 410, 'width': 410, 'height': 410, 'widthPercent': 0.45, 'rescaleHeight': False, 'trialN': 28, 'loaded': True, 'loadedTime': 2863.100000023842, 'positionName': 'RIGHT', 'positionCoords': [1331.2, 515], 'bid': 8.28}]",48936.89999997616,1669831074446,turkeysandwich,seaweed,5.5,8.28,2.7799999999999994,seaweed,1312.3000000715256,1313,1312.8000000715256,True,i,50760.700000047684,1823.8000000715256,1669831076270,1824,,HRV,HRV_0160,2022-11-30 18:02:19
29,"[{'imgObject': {}, 'id': 'tacos', 'src': '/static/foodstim60/tacos.jpg', 'key': 'u', 'origWidth': 411, 'origHeight': 411, 'width': 411, 'height': 411, 'widthPercent': 0.45, 'rescaleHeight': False, 'trialN': 29, 'loaded': True, 'loadedTime': 2803.3000000715256, 'positionName': 'LEFT', 'positionCoords': [817.8, 514.5], 'bid': 10}, {'imgObject': {}, 'id': 'eggsalad', 'src': '/static/foodstim60/eggsalad.jpg', 'key': 'i', 'origWidth': 410, 'origHeight': 409, 'width': 410, 'height': 409, 'widthPercent': 0.45, 'rescaleHeight': False, 'trialN': 29, 'loaded': True, 'loadedTime': 3113.899999976158, 'positionName': 'RIGHT', 'positionCoords': [1331.2, 515.5], 'bid': 4.34}]",50761.10000002384,1669831076270,tacos,eggsalad,10.0,4.34,-5.66,tacos,677.1000000238419,678,677.5,True,u,51942.0,1180.8999999761581,1669831077451,1181,,HRV,HRV_0160,2022-11-30 18:02:19
30,"[{'imgObject': {}, 'id': 'grilled chicken strips', 'src': '/static/foodstim60/grilled chicken strips.jpg', 'key': 'u', 'origWidth': 410, 'origHeight': 411, 'width': 410, 'height': 411, 'widthPercent': 0.45, 'rescaleHeight': False, 'trialN': 30, 'loaded': True, 'loadedTime': 2774.2000000476837, 'positionName': 'LEFT', 'positionCoords': [818.8, 514.5], 'bid': 6.1000000000000005}, {'imgObject': {}, 'id': 'raspberries', 'src': '/static/foodstim60/raspberries.jpg', 'key': 'i', 'origWidth': 411, 'origHeight': 411, 'width': 411, 'height': 411, 'widthPercent': 0.45, 'rescaleHeight': False, 'trialN': 30, 'loaded': True, 'loadedTime': 3045.7000000476837, 'positionName': 'RIGHT', 'positionCoords': [1331.2, 514.5], 'bid': 6.17}]",51942.300000071526,1669831077451,grilled chicken strips,raspberries,6.1000000000000005,6.17,0.0699999999999994,grilled chicken strips,1361.0999999046326,1362,1361.5,True,u,53812.200000047684,1869.8999999761581,1669831079321,1870,,HRV,HRV_0160,2022-11-30 18:02:19
31,"[{'imgObject': {}, 'id': 'chicken nuggets2', 'src': '/static/foodstim60/chicken nuggets2.jpg', 'key': 'u', 'origWidth': 410, 'origHeight': 409, 'width': 410, 'height': 409, 'widthPercent': 0.45, 'rescaleHeight': False, 'trialN': 31, 'loaded': True, 'loadedTime': 3012.2000000476837, 'positionName': 'LEFT', 'positionCoords': [818.8, 515.5], 'bid': 3.67}, {'imgObject': {}, 'id': 'cantaloupe', 'src': '/static/foodstim60/cantaloupe.jpg', 'key': 'i', 'origWidth': 409, 'origHeight': 409, 'width': 409, 'height': 409, 'widthPercent': 0.45, 'rescaleHeight': False, 'trialN': 31, 'loaded': True, 'loadedTime': 3114.8000000715256, 'positionName': 'RIGHT', 'positionCoords': [1331.2, 515.5], 'bid': 9.32}]",53812.60000002384,1669831079322,chicken nuggets2,cantaloupe,3.67,9.32,5.65,cantaloupe,1244.7000000476837,1245,1245.0,True,i,55575.5,1762.8999999761581,1669831081085,1763,,HRV,HRV_0160,2022-11-30 18:02:19
32,"[{'imgObject': {}, 'id': 'seaweed', 'src': '/static/foodstim60/seaweed.jpg', 'key': 'u', 'origWidth': 410, 'origHeight': 410, 'width': 410, 'height': 410, 'widthPercent': 0.45, 'rescaleHeight': False, 'trialN': 32, 'loaded': True, 'loadedTime': 2863.3000000715256, 'positionName': 'LEFT', 'positionCoords': [818.8, 515], 'bid': 8.28}, {'imgObject': {}, 'id': 'salad w chicken', 'src': '/static/foodstim60/salad w chicken.jpg', 'key': 'i', 'origWidth': 411, 'origHeight': 411, 'width': 411, 'height': 411, 'widthPercent': 0.45, 'rescaleHeight': False, 'trialN': 32, 'loaded': True, 'loadedTime': 2583.5, 'positionName': 'RIGHT', 'positionCoords': [1331.2, 514.5], 'bid': 7.85}]",55575.89999997616,1669831081085,seaweed,salad w chicken,8.28,7.85,-0.4299999999999997,seaweed,1106.6000000238419,1107,1107.0,True,u,57200.300000071526,1624.4000000953674,1669831082709,1624,,HRV,HRV_0160,2022-11-30 18:02:19
33,"[{'imgObject': {}, 'id': 'roastedpotatoes', 'src': '/static/foodstim60/roastedpotatoes.jpg', 'key': 'u', 'origWidth': 409, 'origHeight': 410, 'width': 409, 'height': 410, 'widthPercent': 0.45, 'rescaleHeight': False, 'trialN': 33, 'loaded': True, 'loadedTime': 2770.100000023842, 'positionName': 'LEFT', 'positionCoords': [819.8, 515], 'bid': 8.540000000000001}, {'imgObject': {}, 'id': 'bagel and cc', 'src': '/static/foodstim60/bagel and cc.jpg', 'key': 'i', 'origWidth': 410, 'origHeight': 410, 'width': 410, 'height': 410, 'widthPercent': 0.45, 'rescaleHeight': False, 'trialN': 33, 'loaded': True, 'loadedTime': 3115.100000023842, 'positionName': 'RIGHT', 'positionCoords': [1331.2, 515], 'bid': 9.57}]",57200.39999997616,1669831082710,roastedpotatoes,bagel and cc,8.540000000000001,9.57,1.0299999999999994,bagel and cc,1129.9000000953674,1130,1130.2000000476837,True,i,58837.89999997616,1637.5,1669831084347,1637,,HRV,HRV_0160,2022-11-30 18:02:19
34,"[{'imgObject': {}, 'id': 'strawberries', 'src': '/static/foodstim60/strawberries.jpg', 'key': 'u', 'origWidth': 410, 'origHeight': 410, 'width': 410, 'height': 410, 'widthPercent': 0.45, 'rescaleHeight': False, 'trialN': 34, 'loaded': True, 'loadedTime': 3116.899999976158, 'positionName': 'LEFT', 'positionCoords': [818.8, 515], 'bid': 7.07}, {'imgObject': {}, 'id': 'corn cob', 'src': '/static/foodstim60/corn cob.jpg', 'key': 'i', 'origWidth': 411, 'origHeight': 411, 'width': 411, 'height': 411, 'widthPercent': 0.45, 'rescaleHeight': False, 'trialN': 34, 'loaded': True, 'loadedTime': 2781.2000000476837, 'positionName': 'RIGHT', 'positionCoords': [1331.2, 514.5], 'bid': 9.05}]",58838.200000047684,1669831084347,strawberries,corn cob,7.07,9.05,1.9800000000000004,corn cob,671.1999999284744,672,671.6000000238419,True,i,60018.5,1180.2999999523163,1669831085528,1181,,HRV,HRV_0160,2022-11-30 18:02:19
35,"[{'imgObject': {}, 'id': 'lox', 'src': '/static/foodstim60/lox.jpg', 'key': 'u', 'origWidth': 410, 'origHeight': 411, 'width': 410, 'height': 411, 'widthPercent': 0.45, 'rescaleHeight': False, 'trialN': 35, 'loaded': True, 'loadedTime': 2545.100000023842, 'positionName': 'LEFT', 'positionCoords': [818.8, 514.5], 'bid': 1.17}, {'imgObject': {}, 'id': 'baked potato', 'src': '/static/foodstim60/baked potato.jpg', 'key': 'i', 'origWidth': 409, 'origHeight': 410, 'width': 409, 'height': 410, 'widthPercent': 0.45, 'rescaleHeight': False, 'trialN': 35, 'loaded': True, 'loadedTime': 3138.399999976158, 'positionName': 'RIGHT', 'positionCoords': [1331.2, 515], 'bid': 2.93}]",60018.800000071526,1669831085528,lox,baked potato,1.17,2.93,1.7600000000000002,baked potato,877.7999999523163,878,878.1999999284744,True,i,61412.700000047684,1393.8999999761581,1669831086922,1394,,HRV,HRV_0160,2022-11-30 18:02:19
36,"[{'imgObject': {}, 'id': 'apple slices', 'src': '/static/foodstim60/apple slices.jpg', 'key': 'u', 'origWidth': 409, 'origHeight': 410, 'width': 409, 'height': 410, 'widthPercent': 0.45, 'rescaleHeight': False, 'trialN': 36, 'loaded': True, 'loadedTime': 3079.899999976158, 'positionName': 'LEFT', 'positionCoords': [819.8, 515], 'bid': 4.3500000000000005}, {'imgObject': {}, 'id': 'cherry tomato', 'src': '/static/foodstim60/cherry tomato.jpg', 'key': 'i', 'origWidth': 410, 'origHeight': 410, 'width': 410, 'height': 410, 'widthPercent': 0.45, 'rescaleHeight': False, 'trialN': 36, 'loaded': True, 'loadedTime': 2581.2000000476837, 'positionName': 'RIGHT', 'positionCoords': [1331.2, 515], 'bid': 4.92}]",61413.10000002384,1669831086922,apple slices,cherry tomato,4.3500000000000005,4.92,0.5699999999999994,apple slices,1021.5,1022,1021.7999999523163,True,u,62944.800000071526,1531.7000000476837,1669831088454,1532,,HRV,HRV_0160,2022-11-30 18:02:19
37,"[{'imgObject': {}, 'id': 'omelette', 'src': '/static/foodstim60/omelette.jpg', 'key': 'u', 'origWidth': 410, 'origHeight': 409, 'width': 410, 'height': 409, 'widthPercent': 0.45, 'rescaleHeight': False, 'trialN': 37, 'loaded': True, 'loadedTime': 2913.5, 'positionName': 'LEFT', 'positionCoords': [818.8, 515.5], 'bid': 6.7700000000000005}, {'imgObject': {}, 'id': 'blueberries', 'src': '/static/foodstim60/blueberries.jpg', 'key': 'i', 'origWidth': 411, 'origHeight': 411, 'width': 411, 'height': 411, 'widthPercent': 0.45, 'rescaleHeight': False, 'trialN': 37, 'loaded': True, 'loadedTime': 2776.399999976158, 'positionName': 'RIGHT', 'positionCoords': [1331.2, 514.5], 'bid': 5.79}]",62944.89999997616,1669831088454,omelette,blueberries,6.7700000000000005,5.79,-0.9800000000000004,omelette,962.9000000953674,963,963.2000000476837,True,u,64415.800000071526,1470.9000000953674,1669831089925,1471,,HRV,HRV_0160,2022-11-30 18:02:19
38,"[{'imgObject': {}, 'id': 'kiwi', 'src': '/static/foodstim60/kiwi.jpg', 'key': 'u', 'origWidth': 410, 'origHeight': 410, 'width': 410, 'height': 410, 'widthPercent': 0.45, 'rescaleHeight': False, 'trialN': 38, 'loaded': True, 'loadedTime': 2537.100000023842, 'positionName': 'LEFT', 'positionCoords': [818.8, 515], 'bid': 4.98}, {'imgObject': {}, 'id': 'hotdog w must', 'src': '/static/foodstim60/hotdog w must.jpg', 'key': 'i', 'origWidth': 409, 'origHeight': 409, 'width': 409, 'height': 409, 'widthPercent': 0.45, 'rescaleHeight': False, 'trialN': 38, 'loaded': True, 'loadedTime': 2576.3000000715256, 'positionName': 'RIGHT', 'positionCoords': [1331.2, 515.5], 'bid': 5.37}]",64416.200000047684,1669831089925,kiwi,hotdog w must,4.98,5.37,0.3899999999999997,hotdog w must,728.6999999284744,730,729.2999999523163,True,i,65655.89999997616,1239.6999999284744,1669831091165,1240,,HRV,HRV_0160,2022-11-30 18:02:19
39,"[{'imgObject': {}, 'id': 'mac & cheese', 'src': '/static/foodstim60/mac & cheese.jpg', 'key': 'u', 'origWidth': 410, 'origHeight': 410, 'width': 410, 'height': 410, 'widthPercent': 0.45, 'rescaleHeight': False, 'trialN': 39, 'loaded': True, 'loadedTime': 3139.600000023842, 'positionName': 'LEFT', 'positionCoords': [818.8, 515], 'bid': 0.11}, {'imgObject': {}, 'id': 'apple slices', 'src': '/static/foodstim60/apple slices.jpg', 'key': 'i', 'origWidth': 409, 'origHeight': 410, 'width': 409, 'height': 410, 'widthPercent': 0.45, 'rescaleHeight': False, 'trialN': 39, 'loaded': True, 'loadedTime': 3080, 'positionName': 'RIGHT', 'positionCoords': [1331.2, 515], 'bid': 4.3500000000000005}]",65656.30000007153,1669831091165,mac & cheese,apple slices,0.11,4.3500000000000005,4.24,apple slices,1109.1999999284744,1110,1109.3999999761581,True,i,67280.60000002384,1624.2999999523163,1669831092790,1625,,HRV,HRV_0160,2022-11-30 18:02:19
40,"[{'imgObject': {}, 'id': 'rigatoni and sauce', 'src': '/static/foodstim60/rigatoni and sauce.jpg', 'key': 'u', 'origWidth': 410, 'origHeight': 411, 'width': 410, 'height': 411, 'widthPercent': 0.45, 'rescaleHeight': False, 'trialN': 40, 'loaded': True, 'loadedTime': 3150, 'positionName': 'LEFT', 'positionCoords': [818.8, 514.5], 'bid': 1.57}, {'imgObject': {}, 'id': 'eggs', 'src': '/static/foodstim60/eggs.jpg', 'key': 'i', 'origWidth': 409, 'origHeight': 409, 'width': 409, 'height': 409, 'widthPercent': 0.45, 'rescaleHeight': False, 'trialN': 40, 'loaded': True, 'loadedTime': 2574.600000023842, 'positionName': 'RIGHT', 'positionCoords': [1331.2, 515.5], 'bid': 0.8200000000000001}]",67280.89999997616,1669831092790,rigatoni and sauce,eggs,1.57,0.8200000000000001,-0.75,rigatoni and sauce,716.4000000953674,717,716.7000000476837,True,u,68506.30000007153,1225.4000000953674,1669831094015,1225,,HRV,HRV_0160,2022-11-30 18:02:19
41,"[{'imgObject': {}, 'id': 'chickenfingers', 'src': '/static/foodstim60/chickenfingers.jpg', 'key': 'u', 'origWidth': 410, 'origHeight': 410, 'width': 410, 'height': 410, 'widthPercent': 0.45, 'rescaleHeight': False, 'trialN': 41, 'loaded': True, 'loadedTime': 3092, 'positionName': 'LEFT', 'positionCoords': [818.8, 515], 'bid': 2.21}, {'imgObject': {}, 'id': 'eggsalad', 'src': '/static/foodstim60/eggsalad.jpg', 'key': 'i', 'origWidth': 410, 'origHeight': 409, 'width': 410, 'height': 409, 'widthPercent': 0.45, 'rescaleHeight': False, 'trialN': 41, 'loaded': True, 'loadedTime': 3113.7000000476837, 'positionName': 'RIGHT', 'positionCoords': [1331.2, 515.5], 'bid': 4.34}]",68506.70000004768,1669831094016,chickenfingers,eggsalad,2.21,4.34,2.13,chickenfingers,1622.3999999761581,1623,1622.8999999761581,True,u,70653.10000002384,2146.399999976158,1669831096162,2146,,HRV,HRV_0160,2022-11-30 18:02:19
42,"[{'imgObject': {}, 'id': 'yogurt no spoon', 'src': '/static/foodstim60/yogurt no spoon.jpg', 'key': 'u', 'origWidth': 411, 'origHeight': 410, 'width': 411, 'height': 410, 'widthPercent': 0.45, 'rescaleHeight': False, 'trialN': 42, 'loaded': True, 'loadedTime': 3152.3000000715256, 'positionName': 'LEFT', 'positionCoords': [817.8, 515], 'bid': 2.73}, {'imgObject': {}, 'id': 'burrito', 'src': '/static/foodstim60/burrito.jpg', 'key': 'i', 'origWidth': 410, 'origHeight': 410, 'width': 410, 'height': 410, 'widthPercent': 0.45, 'rescaleHeight': False, 'trialN': 42, 'loaded': True, 'loadedTime': 2561.8000000715256, 'positionName': 'RIGHT', 'positionCoords': [1331.2, 515], 'bid': 2.79}]",70653.10000002384,1669831096162,yogurt no spoon,burrito,2.73,2.79,0.06000000000000005,burrito,1611.2999999523163,1612,1611.7000000476837,True,i,72769.70000004768,2116.600000023842,1669831098279,2117,,HRV,HRV_0160,2022-11-30 18:02:19
43,"[{'imgObject': {}, 'id': 'grilled chicken strips', 'src': '/static/foodstim60/grilled chicken strips.jpg', 'key': 'u', 'origWidth': 410, 'origHeight': 411, 'width': 410, 'height': 411, 'widthPercent': 0.45, 'rescaleHeight': False, 'trialN': 43, 'loaded': True, 'loadedTime': 2774.7000000476837, 'positionName': 'LEFT', 'positionCoords': [818.8, 514.5], 'bid': 6.1000000000000005}, {'imgObject': {}, 'id': 'granola w milk', 'src': '/static/foodstim60/granola w milk.jpg', 'key': 'i', 'origWidth': 410, 'origHeight': 410, 'width': 410, 'height': 410, 'widthPercent': 0.45, 'rescaleHeight': False, 'trialN': 43, 'loaded': True, 'loadedTime': 2693, 'positionName': 'RIGHT', 'positionCoords': [1331.2, 515], 'bid': 3.89}]",72770.20000004768,1669831098279,grilled chicken strips,granola w milk,6.1000000000000005,3.89,-2.2100000000000004,grilled chicken strips,1131.8999999761581,1133,1132.5,True,u,74408.60000002384,1638.3999999761581,1669831099918,1639,,HRV,HRV_0160,2022-11-30 18:02:19
44,"[{'imgObject': {}, 'id': 'roastedpotatoes', 'src': '/static/foodstim60/roastedpotatoes.jpg', 'key': 'u', 'origWidth': 409, 'origHeight': 410, 'width': 409, 'height': 410, 'widthPercent': 0.45, 'rescaleHeight': False, 'trialN': 44, 'loaded': True, 'loadedTime': 2771.2000000476837, 'positionName': 'LEFT', 'positionCoords': [819.8, 515], 'bid': 8.540000000000001}, {'imgObject': {}, 'id': 'seaweed', 'src': '/static/foodstim60/seaweed.jpg', 'key': 'i', 'origWidth': 410, 'origHeight': 410, 'width': 410, 'height': 410, 'widthPercent': 0.45, 'rescaleHeight': False, 'trialN': 44, 'loaded': True, 'loadedTime': 2862.100000023842, 'positionName': 'RIGHT', 'positionCoords': [1331.2, 515], 'bid': 8.28}]",74408.89999997616,1669831099918,roastedpotatoes,seaweed,8.540000000000001,8.28,-0.26000000000000156,roastedpotatoes,850.8000000715256,851,851.3000000715256,True,u,75772.39999997616,1363.5,1669831101281,1363,,HRV,HRV_0160,2022-11-30 18:02:19
45,"[{'imgObject': {}, 'id': 'eggs', 'src': '/static/foodstim60/eggs.jpg', 'key': 'u', 'origWidth': 409, 'origHeight': 409, 'width': 409, 'height': 409, 'widthPercent': 0.45, 'rescaleHeight': False, 'trialN': 45, 'loaded': True, 'loadedTime': 2573.100000023842, 'positionName': 'LEFT', 'positionCoords': [819.8, 515.5], 'bid': 0.8200000000000001}, {'imgObject': {}, 'id': 'lox', 'src': '/static/foodstim60/lox.jpg', 'key': 'i', 'origWidth': 410, 'origHeight': 411, 'width': 410, 'height': 411, 'widthPercent': 0.45, 'rescaleHeight': False, 'trialN': 45, 'loaded': True, 'loadedTime': 2542.899999976158, 'positionName': 'RIGHT', 'positionCoords': [1331.2, 514.5], 'bid': 1.17}]",75772.80000007153,1669831101282,eggs,lox,0.8200000000000001,1.17,0.34999999999999987,eggs,1018.5999999046326,1019,1019.1999999284744,True,u,77304.20000004768,1531.3999999761581,1669831102813,1531,,HRV,HRV_0160,2022-11-30 18:02:19
46,"[{'imgObject': {}, 'id': 'strawberries', 'src': '/static/foodstim60/strawberries.jpg', 'key': 'u', 'origWidth': 410, 'origHeight': 410, 'width': 410, 'height': 410, 'widthPercent': 0.45, 'rescaleHeight': False, 'trialN': 46, 'loaded': True, 'loadedTime': 3116.100000023842, 'positionName': 'LEFT', 'positionCoords': [818.8, 515], 'bid': 7.07}, {'imgObject': {}, 'id': 'steak', 'src': '/static/foodstim60/steak.jpg', 'key': 'i', 'origWidth': 410, 'origHeight': 410, 'width': 410, 'height': 410, 'widthPercent': 0.45, 'rescaleHeight': False, 'trialN': 46, 'loaded': True, 'loadedTime': 3152.5, 'positionName': 'RIGHT', 'positionCoords': [1331.2, 515], 'bid': 9.74}]",77304.39999997616,1669831102813,strawberries,steak,7.07,9.74,2.67,steak,860.6000000238419,862,861.2000000476837,True,i,78671.10000002384,1366.7000000476837,1669831104180,1367,,HRV,HRV_0160,2022-11-30 18:02:19
47,"[{'imgObject': {}, 'id': 'burger', 'src': '/static/foodstim60/burger.jpg', 'key': 'u', 'origWidth': 409, 'origHeight': 409, 'width': 409, 'height': 409, 'widthPercent': 0.45, 'rescaleHeight': False, 'trialN': 47, 'loaded': True, 'loadedTime': 2567.899999976158, 'positionName': 'LEFT', 'positionCoords': [819.8, 515.5], 'bid': 7.82}, {'imgObject': {}, 'id': 'bagel and cc', 'src': '/static/foodstim60/bagel and cc.jpg', 'key': 'i', 'origWidth': 410, 'origHeight': 410, 'width': 410, 'height': 410, 'widthPercent': 0.45, 'rescaleHeight': False, 'trialN': 47, 'loaded': True, 'loadedTime': 3115.899999976158, 'positionName': 'RIGHT', 'positionCoords': [1331.2, 515], 'bid': 9.57}]",78671.39999997616,1669831104181,burger,bagel and cc,7.82,9.57,1.75,bagel and cc,1123.8000000715256,1124,1124.5,True,i,80311.5,1640.1000000238419,1669831105821,1640,,HRV,HRV_0160,2022-11-30 18:02:19
48,"[{'imgObject': {}, 'id': 'salad w chicken', 'src': '/static/foodstim60/salad w chicken.jpg', 'key': 'u', 'origWidth': 411, 'origHeight': 411, 'width': 411, 'height': 411, 'widthPercent': 0.45, 'rescaleHeight': False, 'trialN': 48, 'loaded': True, 'loadedTime': 2583.2000000476837, 'positionName': 'LEFT', 'positionCoords': [817.8, 514.5], 'bid': 7.85}, {'imgObject': {}, 'id': 'yogurt no spoon', 'src': '/static/foodstim60/yogurt no spoon.jpg', 'key': 'i', 'origWidth': 411, 'origHeight': 410, 'width': 411, 'height': 410, 'widthPercent': 0.45, 'rescaleHeight': False, 'trialN': 48, 'loaded': True, 'loadedTime': 3152, 'positionName': 'RIGHT', 'positionCoords': [1331.2, 515], 'bid': 2.73}]",80312.10000002384,1669831105821,salad w chicken,yogurt no spoon,7.85,2.73,-5.119999999999999,salad w chicken,1059.3999999761581,1060,1059.7999999523163,True,u,81889.80000007153,1577.7000000476837,1669831107399,1578,,HRV,HRV_0160,2022-11-30 18:02:19
49,"[{'imgObject': {}, 'id': 'turkeysandwich', 'src': '/static/foodstim60/turkeysandwich.jpg', 'key': 'u', 'origWidth': 409, 'origHeight': 409, 'width': 409, 'height': 409, 'widthPercent': 0.45, 'rescaleHeight': False, 'trialN': 49, 'loaded': True, 'loadedTime': 2572.8000000715256, 'positionName': 'LEFT', 'positionCoords': [819.8, 515.5], 'bid': 5.5}, {'imgObject': {}, 'id': 'hotdog w must', 'src': '/static/foodstim60/hotdog w must.jpg', 'key': 'i', 'origWidth': 409, 'origHeight': 409, 'width': 409, 'height': 409, 'widthPercent': 0.45, 'rescaleHeight': False, 'trialN': 49, 'loaded': True, 'loadedTime': 2577.8000000715256, 'positionName': 'RIGHT', 'positionCoords': [1331.2, 515.5], 'bid': 5.37}]",81890.10000002384,1669831107399,turkeysandwich,hotdog w must,5.5,5.37,-0.1299999999999999,hotdog w must,841.5,842,841.7999999523163,True,i,83238.80000007153,1348.7000000476837,1669831108748,1349,,HRV,HRV_0160,2022-11-30 18:02:19
50,"[{'imgObject': {}, 'id': 'Grapes', 'src': '/static/foodstim60/Grapes.jpg', 'key': 'u', 'origWidth': 411, 'origHeight': 411, 'width': 411, 'height': 411, 'widthPercent': 0.45, 'rescaleHeight': False, 'trialN': 50, 'loaded': True, 'loadedTime': 3023.600000023842, 'positionName': 'LEFT', 'positionCoords': [817.8, 514.5], 'bid': 7.09}, {'imgObject': {}, 'id': 'tacos', 'src': '/static/foodstim60/tacos.jpg', 'key': 'i', 'origWidth': 411, 'origHeight': 411, 'width': 411, 'height': 411, 'widthPercent': 0.45, 'rescaleHeight': False, 'trialN': 50, 'loaded': True, 'loadedTime': 2815, 'positionName': 'RIGHT', 'positionCoords': [1331.2, 514.5], 'bid': 10}]",83239.0,1669831108748,Grapes,tacos,7.09,10.0,2.91,tacos,617.7000000476837,618,618.3000000715256,True,i,84370.70000004768,1131.7000000476837,1669831109880,1132,,HRV,HRV_0160,2022-11-30 18:02:19
51,"[{'imgObject': {}, 'id': 'seaweed', 'src': '/static/foodstim60/seaweed.jpg', 'key': 'u', 'origWidth': 410, 'origHeight': 410, 'width': 410, 'height': 410, 'widthPercent': 0.45, 'rescaleHeight': False, 'trialN': 51, 'loaded': True, 'loadedTime': 2863.399999976158, 'positionName': 'LEFT', 'positionCoords': [818.8, 515], 'bid': 8.28}, {'imgObject': {}, 'id': 'sushi w_condiments', 'src': '/static/foodstim60/sushi w_condiments.jpg', 'key': 'i', 'origWidth': 410, 'origHeight': 410, 'width': 410, 'height': 410, 'widthPercent': 0.45, 'rescaleHeight': False, 'trialN': 51, 'loaded': True, 'loadedTime': 3162.8000000715256, 'positionName': 'RIGHT', 'positionCoords': [1331.2, 515], 'bid': 2.81}]",84370.89999997616,1669831109880,seaweed,sushi w_condiments,8.28,2.81,-5.469999999999999,seaweed,1014.3000000715256,1015,1014.5,True,u,85904.80000007153,1533.9000000953674,1669831111414,1534,,HRV,HRV_0160,2022-11-30 18:02:19
52,"[{'imgObject': {}, 'id': 'olives', 'src': '/static/foodstim60/olives.jpg', 'key': 'u', 'origWidth': 410, 'origHeight': 410, 'width': 410, 'height': 410, 'widthPercent': 0.45, 'rescaleHeight': False, 'trialN': 52, 'loaded': True, 'loadedTime': 2838, 'positionName': 'LEFT', 'positionCoords': [818.8, 515], 'bid': 0.42}, {'imgObject': {}, 'id': 'Tribe humus pita', 'src': '/static/foodstim60/Tribe humus pita.jpg', 'key': 'i', 'origWidth': 411, 'origHeight': 411, 'width': 411, 'height': 411, 'widthPercent': 0.45, 'rescaleHeight': False, 'trialN': 52, 'loaded': True, 'loadedTime': 3162.899999976158, 'positionName': 'RIGHT', 'positionCoords': [1331.2, 514.5], 'bid': 5.14}]",85905.10000002384,1669831111414,olives,Tribe humus pita,0.42,5.14,4.72,Tribe humus pita,1073.2000000476837,1074,1073.3999999761581,True,i,87500.60000002384,1595.5,1669831113010,1596,,HRV,HRV_0160,2022-11-30 18:02:19
53,"[{'imgObject': {}, 'id': 'raspberries', 'src': '/static/foodstim60/raspberries.jpg', 'key': 'u', 'origWidth': 411, 'origHeight': 411, 'width': 411, 'height': 411, 'widthPercent': 0.45, 'rescaleHeight': False, 'trialN': 53, 'loaded': True, 'loadedTime': 3057.100000023842, 'positionName': 'LEFT', 'positionCoords': [817.8, 514.5], 'bid': 6.17}, {'imgObject': {}, 'id': 'blackbeanswithrice', 'src': '/static/foodstim60/blackbeanswithrice.jpg', 'key': 'i', 'origWidth': 410, 'origHeight': 410, 'width': 410, 'height': 410, 'widthPercent': 0.45, 'rescaleHeight': False, 'trialN': 53, 'loaded': True, 'loadedTime': 2997.100000023842, 'positionName': 'RIGHT', 'positionCoords': [1331.2, 515], 'bid': 1.47}]",87500.89999997616,1669831113010,raspberries,blackbeanswithrice,6.17,1.47,-4.7,raspberries,1492.9000000953674,1493,1493.1000000238419,True,u,89507.80000007153,2006.9000000953674,1669831115017,2007,,HRV,HRV_0160,2022-11-30 18:02:19
54,"[{'imgObject': {}, 'id': 'banana', 'src': '/static/foodstim60/banana.jpg', 'key': 'u', 'origWidth': 410, 'origHeight': 410, 'width': 410, 'height': 410, 'widthPercent': 0.45, 'rescaleHeight': False, 'trialN': 54, 'loaded': True, 'loadedTime': 2624.3000000715256, 'positionName': 'LEFT', 'positionCoords': [818.8, 515], 'bid': 6.7}, {'imgObject': {}, 'id': 'rigatoni and sauce', 'src': '/static/foodstim60/rigatoni and sauce.jpg', 'key': 'i', 'origWidth': 410, 'origHeight': 411, 'width': 410, 'height': 411, 'widthPercent': 0.45, 'rescaleHeight': False, 'trialN': 54, 'loaded': True, 'loadedTime': 3150.899999976158, 'positionName': 'RIGHT', 'positionCoords': [1331.2, 514.5], 'bid': 1.57}]",89508.39999997616,1669831115018,banana,rigatoni and sauce,6.7,1.57,-5.13,banana,1123.0,1123,1123.4000000953674,True,u,91147.39999997616,1639.0,1669831116657,1639,,HRV,HRV_0160,2022-11-30 18:02:19
55,"[{'imgObject': {}, 'id': 'apple slices', 'src': '/static/foodstim60/apple slices.jpg', 'key': 'u', 'origWidth': 409, 'origHeight': 410, 'width': 409, 'height': 410, 'widthPercent': 0.45, 'rescaleHeight': False, 'trialN': 55, 'loaded': True, 'loadedTime': 3079.600000023842, 'positionName': 'LEFT', 'positionCoords': [819.8, 515], 'bid': 4.3500000000000005}, {'imgObject': {}, 'id': 'sushi w_condiments', 'src': '/static/foodstim60/sushi w_condiments.jpg', 'key': 'i', 'origWidth': 410, 'origHeight': 410, 'width': 410, 'height': 410, 'widthPercent': 0.45, 'rescaleHeight': False, 'trialN': 55, 'loaded': True, 'loadedTime': 3162.899999976158, 'positionName': 'RIGHT', 'positionCoords': [1331.2, 515], 'bid': 2.81}]",91147.60000002384,1669831116657,apple slices,sushi w_condiments,4.3500000000000005,2.81,-1.5400000000000005,apple slices,1106.3999999761581,1106,1106.7000000476837,True,u,92771.80000007153,1624.2000000476837,1669831118281,1624,,HRV,HRV_0160,2022-11-30 18:02:19
56,"[{'imgObject': {}, 'id': 'chickenfingers', 'src': '/static/foodstim60/chickenfingers.jpg', 'key': 'u', 'origWidth': 410, 'origHeight': 410, 'width': 410, 'height': 410, 'widthPercent': 0.45, 'rescaleHeight': False, 'trialN': 56, 'loaded': True, 'loadedTime': 3112.899999976158, 'positionName': 'LEFT', 'positionCoords': [818.8, 515], 'bid': 2.21}, {'imgObject': {}, 'id': 'turkey sandwich', 'src': '/static/foodstim60/turkey sandwich.jpg', 'key': 'i', 'origWidth': 409, 'origHeight': 409, 'width': 409, 'height': 409, 'widthPercent': 0.45, 'rescaleHeight': False, 'trialN': 56, 'loaded': True, 'loadedTime': 2639.7000000476837, 'positionName': 'RIGHT', 'positionCoords': [1331.2, 515.5], 'bid': 2.07}]",92772.20000004768,1669831118281,chickenfingers,turkey sandwich,2.21,2.07,-0.14000000000000012,turkey sandwich,1543.3999999761581,1544,1544.1000000238419,True,i,94825.89999997616,2053.6999999284744,1669831120335,2054,,HRV,HRV_0160,2022-11-30 18:02:19
57,"[{'imgObject': {}, 'id': 'bagel and cc', 'src': '/static/foodstim60/bagel and cc.jpg', 'key': 'u', 'origWidth': 410, 'origHeight': 410, 'width': 410, 'height': 410, 'widthPercent': 0.45, 'rescaleHeight': False, 'trialN': 57, 'loaded': True, 'loadedTime': 3116, 'positionName': 'LEFT', 'positionCoords': [818.8, 515], 'bid': 9.57}, {'imgObject': {}, 'id': 'granola w milk', 'src': '/static/foodstim60/granola w milk.jpg', 'key': 'i', 'origWidth': 410, 'origHeight': 410, 'width': 410, 'height': 410, 'widthPercent': 0.45, 'rescaleHeight': False, 'trialN': 57, 'loaded': True, 'loadedTime': 2703.3000000715256, 'positionName': 'RIGHT', 'positionCoords': [1331.2, 515], 'bid': 3.89}]",94826.30000007153,1669831120335,bagel and cc,granola w milk,9.57,3.89,-5.68,bagel and cc,748.7999999523163,750,749.1999999284744,True,u,96084.70000004768,1258.3999999761581,1669831121594,1259,,HRV,HRV_0160,2022-11-30 18:02:19
58,"[{'imgObject': {}, 'id': 'blueberries', 'src': '/static/foodstim60/blueberries.jpg', 'key': 'u', 'origWidth': 411, 'origHeight': 411, 'width': 411, 'height': 411, 'widthPercent': 0.45, 'rescaleHeight': False, 'trialN': 58, 'loaded': True, 'loadedTime': 2775, 'positionName': 'LEFT', 'positionCoords': [817.8, 514.5], 'bid': 5.79}, {'imgObject': {}, 'id': 'popsicles', 'src': '/static/foodstim60/popsicles.jpg', 'key': 'i', 'origWidth': 410, 'origHeight': 410, 'width': 410, 'height': 410, 'widthPercent': 0.45, 'rescaleHeight': False, 'trialN': 58, 'loaded': True, 'loadedTime': 2682.8000000715256, 'positionName': 'RIGHT', 'positionCoords': [1331.2, 515], 'bid': 0.91}]",96084.80000007153,1669831121594,blueberries,popsicles,5.79,0.91,-4.88,blueberries,863.7999999523163,864,864.1999999284744,True,u,97463.5,1378.6999999284744,1669831122973,1379,,HRV,HRV_0160,2022-11-30 18:02:19
59,"[{'imgObject': {}, 'id': 'strawberries', 'src': '/static/foodstim60/strawberries.jpg', 'key': 'u', 'origWidth': 410, 'origHeight': 410, 'width': 410, 'height': 410, 'widthPercent': 0.45, 'rescaleHeight': False, 'trialN': 59, 'loaded': True, 'loadedTime': 3116.8000000715256, 'positionName': 'LEFT', 'positionCoords': [818.8, 515], 'bid': 7.07}, {'imgObject': {}, 'id': 'mashed potato', 'src': '/static/foodstim60/mashed potato.jpg', 'key': 'i', 'origWidth': 409, 'origHeight': 409, 'width': 409, 'height': 409, 'widthPercent': 0.45, 'rescaleHeight': False, 'trialN': 59, 'loaded': True, 'loadedTime': 2763.7000000476837, 'positionName': 'RIGHT', 'positionCoords': [1331.2, 515.5], 'bid': 2.09}]",97463.80000007153,1669831122973,strawberries,mashed potato,7.07,2.09,-4.98,strawberries,1140.3999999761581,1141,1140.6999999284744,True,u,99115.89999997616,1652.0999999046326,1669831124625,1652,,HRV,HRV_0160,2022-11-30 18:02:19
60,"[{'imgObject': {}, 'id': 'edamame', 'src': '/static/foodstim60/edamame.jpg', 'key': 'u', 'origWidth': 409, 'origHeight': 410, 'width': 409, 'height': 410, 'widthPercent': 0.45, 'rescaleHeight': False, 'trialN': 60, 'loaded': True, 'loadedTime': 3023.2000000476837, 'positionName': 'LEFT', 'positionCoords': [819.8, 515], 'bid': 7.78}, {'imgObject': {}, 'id': 'burger', 'src': '/static/foodstim60/burger.jpg', 'key': 'i', 'origWidth': 409, 'origHeight': 409, 'width': 409, 'height': 409, 'widthPercent': 0.45, 'rescaleHeight': False, 'trialN': 60, 'loaded': True, 'loadedTime': 2571, 'positionName': 'RIGHT', 'positionCoords': [1331.2, 515.5], 'bid': 7.82}]",99116.30000007153,1669831124625,edamame,burger,7.78,7.82,0.040000000000000036,edamame,1045.1999999284744,1046,1045.6999999284744,True,u,100680.89999997616,1564.5999999046326,1669831126190,1565,,HRV,HRV_0160,2022-11-30 18:02:19
61,"[{'imgObject': {}, 'id': 'baked potato', 'src': '/static/foodstim60/baked potato.jpg', 'key': 'u', 'origWidth': 409, 'origHeight': 410, 'width': 409, 'height': 410, 'widthPercent': 0.45, 'rescaleHeight': False, 'trialN': 61, 'loaded': True, 'loadedTime': 3117, 'positionName': 'LEFT', 'positionCoords': [819.8, 515], 'bid': 2.93}, {'imgObject': {}, 'id': 'sushi w_condiments', 'src': '/static/foodstim60/sushi w_condiments.jpg', 'key': 'i', 'origWidth': 410, 'origHeight': 410, 'width': 410, 'height': 410, 'widthPercent': 0.45, 'rescaleHeight': False, 'trialN': 61, 'loaded': True, 'loadedTime': 3162.7000000476837, 'positionName': 'RIGHT', 'positionCoords': [1331.2, 515], 'bid': 2.81}]",100681.30000007153,1669831126190,baked potato,sushi w_condiments,2.93,2.81,-0.1200000000000001,sushi w_condiments,1737.2999999523163,1738,1737.7999999523163,True,i,102932.0,2250.6999999284744,1669831128441,2251,,HRV,HRV_0160,2022-11-30 18:02:19
62,"[{'imgObject': {}, 'id': 'fried eggs', 'src': '/static/foodstim60/fried eggs.jpg', 'key': 'u', 'origWidth': 410, 'origHeight': 410, 'width': 410, 'height': 410, 'widthPercent': 0.45, 'rescaleHeight': False, 'trialN': 62, 'loaded': True, 'loadedTime': 2547.899999976158, 'positionName': 'LEFT', 'positionCoords': [818.8, 515], 'bid': 2.66}, {'imgObject': {}, 'id': 'edamame', 'src': '/static/foodstim60/edamame.jpg', 'key': 'i', 'origWidth': 409, 'origHeight': 410, 'width': 409, 'height': 410, 'widthPercent': 0.45, 'rescaleHeight': False, 'trialN': 62, 'loaded': True, 'loadedTime': 3023.2000000476837, 'positionName': 'RIGHT', 'positionCoords': [1331.2, 515], 'bid': 7.78}]",102932.10000002384,1669831128441,fried eggs,edamame,2.66,7.78,5.12,edamame,725.8999999761581,726,726.2000000476837,True,i,104173.30000007153,1241.2000000476837,1669831129682,1241,,HRV,HRV_0160,2022-11-30 18:02:19
63,"[{'imgObject': {}, 'id': 'omelette', 'src': '/static/foodstim60/omelette.jpg', 'key': 'u', 'origWidth': 410, 'origHeight': 409, 'width': 410, 'height': 409, 'widthPercent': 0.45, 'rescaleHeight': False, 'trialN': 63, 'loaded': True, 'loadedTime': 2901.3000000715256, 'positionName': 'LEFT', 'positionCoords': [818.8, 515.5], 'bid': 6.7700000000000005}, {'imgObject': {}, 'id': 'strawberries', 'src': '/static/foodstim60/strawberries.jpg', 'key': 'i', 'origWidth': 410, 'origHeight': 410, 'width': 410, 'height': 410, 'widthPercent': 0.45, 'rescaleHeight': False, 'trialN': 63, 'loaded': True, 'loadedTime': 3116.7000000476837, 'positionName': 'RIGHT', 'positionCoords': [1331.2, 515], 'bid': 7.07}]",104173.5,1669831129683,omelette,strawberries,6.7700000000000005,7.07,0.2999999999999998,omelette,778.8999999761581,779,779.2000000476837,True,u,105461.89999997616,1288.3999999761581,1669831130971,1288,,HRV,HRV_0160,2022-11-30 18:02:19
64,"[{'imgObject': {}, 'id': 'bagel and cc', 'src': '/static/foodstim60/bagel and cc.jpg', 'key': 'u', 'origWidth': 410, 'origHeight': 410, 'width': 410, 'height': 410, 'widthPercent': 0.45, 'rescaleHeight': False, 'trialN': 64, 'loaded': True, 'loadedTime': 3115.8000000715256, 'positionName': 'LEFT', 'positionCoords': [818.8, 515], 'bid': 9.57}, {'imgObject': {}, 'id': 'tacos', 'src': '/static/foodstim60/tacos.jpg', 'key': 'i', 'origWidth': 411, 'origHeight': 411, 'width': 411, 'height': 411, 'widthPercent': 0.45, 'rescaleHeight': False, 'trialN': 64, 'loaded': True, 'loadedTime': 2815.2000000476837, 'positionName': 'RIGHT', 'positionCoords': [1331.2, 514.5], 'bid': 10}]",105462.5,1669831130972,bagel and cc,tacos,9.57,10.0,0.4299999999999997,tacos,977.8999999761581,978,978.5,True,i,106948.39999997616,1485.8999999761581,1669831132458,1486,,HRV,HRV_0160,2022-11-30 18:02:19
65,"[{'imgObject': {}, 'id': 'steak', 'src': '/static/foodstim60/steak.jpg', 'key': 'u', 'origWidth': 410, 'origHeight': 410, 'width': 410, 'height': 410, 'widthPercent': 0.45, 'rescaleHeight': False, 'trialN': 65, 'loaded': True, 'loadedTime': 3153.5, 'positionName': 'LEFT', 'positionCoords': [818.8, 515], 'bid': 9.74}, {'imgObject': {}, 'id': 'pear', 'src': '/static/foodstim60/pear.jpg', 'key': 'i', 'origWidth': 411, 'origHeight': 410, 'width': 411, 'height': 410, 'widthPercent': 0.45, 'rescaleHeight': False, 'trialN': 65, 'loaded': True, 'loadedTime': 2768.899999976158, 'positionName': 'RIGHT', 'positionCoords': [1331.2, 515], 'bid': 3.92}]",106948.5,1669831132458,steak,pear,9.74,3.92,-5.82,steak,1266.5,1266,1266.8999999761581,True,u,108724.10000002384,1775.6000000238419,1669831134233,1775,,HRV,HRV_0160,2022-11-30 18:02:19
66,"[{'imgObject': {}, 'id': 'mango', 'src': '/static/foodstim60/mango.jpg', 'key': 'u', 'origWidth': 411, 'origHeight': 411, 'width': 411, 'height': 411, 'widthPercent': 0.45, 'rescaleHeight': False, 'trialN': 66, 'loaded': True, 'loadedTime': 2888.600000023842, 'positionName': 'LEFT', 'positionCoords': [817.8, 514.5], 'bid': 9.57}, {'imgObject': {}, 'id': 'edamame', 'src': '/static/foodstim60/edamame.jpg', 'key': 'i', 'origWidth': 409, 'origHeight': 410, 'width': 409, 'height': 410, 'widthPercent': 0.45, 'rescaleHeight': False, 'trialN': 66, 'loaded': True, 'loadedTime': 3023.3000000715256, 'positionName': 'RIGHT', 'positionCoords': [1331.2, 515], 'bid': 7.78}]",108724.30000007153,1669831134233,mango,edamame,9.57,7.78,-1.79,mango,1129.0999999046326,1130,1129.6999999284744,True,u,110363.30000007153,1639.0,1669831135872,1639,,HRV,HRV_0160,2022-11-30 18:02:19
67,"[{'imgObject': {}, 'id': 'cherries', 'src': '/static/foodstim60/cherries.jpg', 'key': 'u', 'origWidth': 410, 'origHeight': 411, 'width': 410, 'height': 411, 'widthPercent': 0.45, 'rescaleHeight': False, 'trialN': 67, 'loaded': True, 'loadedTime': 3164.7000000476837, 'positionName': 'LEFT', 'positionCoords': [818.8, 514.5], 'bid': 0.32}, {'imgObject': {}, 'id': 'turkey sandwich', 'src': '/static/foodstim60/turkey sandwich.jpg', 'key': 'i', 'origWidth': 409, 'origHeight': 409, 'width': 409, 'height': 409, 'widthPercent': 0.45, 'rescaleHeight': False, 'trialN': 67, 'loaded': True, 'loadedTime': 2663.399999976158, 'positionName': 'RIGHT', 'positionCoords': [1331.2, 515.5], 'bid': 2.07}]",110363.60000002384,1669831135873,cherries,turkey sandwich,0.32,2.07,1.7499999999999998,turkey sandwich,1480.0,1480,1480.7000000476837,True,i,112358.80000007153,1995.2000000476837,1669831137868,1995,,HRV,HRV_0160,2022-11-30 18:02:19
68,"[{'imgObject': {}, 'id': 'cherries', 'src': '/static/foodstim60/cherries.jpg', 'key': 'u', 'origWidth': 410, 'origHeight': 411, 'width': 410, 'height': 411, 'widthPercent': 0.45, 'rescaleHeight': False, 'trialN': 68, 'loaded': True, 'loadedTime': 3164.899999976158, 'positionName': 'LEFT', 'positionCoords': [818.8, 514.5], 'bid': 0.32}, {'imgObject': {}, 'id': 'mac & cheese', 'src': '/static/foodstim60/mac & cheese.jpg', 'key': 'i', 'origWidth': 410, 'origHeight': 410, 'width': 410, 'height': 410, 'widthPercent': 0.45, 'rescaleHeight': False, 'trialN': 68, 'loaded': True, 'loadedTime': 3139.399999976158, 'positionName': 'RIGHT', 'positionCoords': [1331.2, 515], 'bid': 0.11}]",112358.89999997616,1669831137868,cherries,mac & cheese,0.32,0.11,-0.21000000000000002,cherries,1094.9000000953674,1095,1095.3000000715256,True,u,113969.0,1610.1000000238419,1669831139478,1610,,HRV,HRV_0160,2022-11-30 18:02:19
69,"[{'imgObject': {}, 'id': 'blackbeanswithrice', 'src': '/static/foodstim60/blackbeanswithrice.jpg', 'key': 'u', 'origWidth': 410, 'origHeight': 410, 'width': 410, 'height': 410, 'widthPercent': 0.45, 'rescaleHeight': False, 'trialN': 69, 'loaded': True, 'loadedTime': 3011, 'positionName': 'LEFT', 'positionCoords': [818.8, 515], 'bid': 1.47}, {'imgObject': {}, 'id': 'olives', 'src': '/static/foodstim60/olives.jpg', 'key': 'i', 'origWidth': 410, 'origHeight': 410, 'width': 410, 'height': 410, 'widthPercent': 0.45, 'rescaleHeight': False, 'trialN': 69, 'loaded': True, 'loadedTime': 2850.8000000715256, 'positionName': 'RIGHT', 'positionCoords': [1331.2, 515], 'bid': 0.42}]",113969.5,1669831139479,blackbeanswithrice,olives,1.47,0.42,-1.05,blackbeanswithrice,1000.8000000715256,1001,1001.0,True,u,115484.39999997616,1514.8999999761581,1669831140993,1514,,HRV,HRV_0160,2022-11-30 18:02:19
70,"[{'imgObject': {}, 'id': 'Tribe humus pita', 'src': '/static/foodstim60/Tribe humus pita.jpg', 'key': 'u', 'origWidth': 411, 'origHeight': 411, 'width': 411, 'height': 411, 'widthPercent': 0.45, 'rescaleHeight': False, 'trialN': 70, 'loaded': True, 'loadedTime': 3163.7000000476837, 'positionName': 'LEFT', 'positionCoords': [817.8, 514.5], 'bid': 5.14}, {'imgObject': {}, 'id': 'granola w milk', 'src': '/static/foodstim60/granola w milk.jpg', 'key': 'i', 'origWidth': 410, 'origHeight': 410, 'width': 410, 'height': 410, 'widthPercent': 0.45, 'rescaleHeight': False, 'trialN': 70, 'loaded': True, 'loadedTime': 2716.100000023842, 'positionName': 'RIGHT', 'positionCoords': [1331.2, 515], 'bid': 3.89}]",115484.60000002384,1669831140994,Tribe humus pita,granola w milk,5.14,3.89,-1.2499999999999996,granola w milk,1412.2999999523163,1413,1413.0,True,i,117414.5,1929.8999999761581,1669831142924,1930,,HRV,HRV_0160,2022-11-30 18:02:19
71,"[{'imgObject': {}, 'id': 'mango', 'src': '/static/foodstim60/mango.jpg', 'key': 'u', 'origWidth': 411, 'origHeight': 411, 'width': 411, 'height': 411, 'widthPercent': 0.45, 'rescaleHeight': False, 'trialN': 71, 'loaded': True, 'loadedTime': 2875.7000000476837, 'positionName': 'LEFT', 'positionCoords': [817.8, 514.5], 'bid': 9.57}, {'imgObject': {}, 'id': 'banana', 'src': '/static/foodstim60/banana.jpg', 'key': 'i', 'origWidth': 410, 'origHeight': 410, 'width': 410, 'height': 410, 'widthPercent': 0.45, 'rescaleHeight': False, 'trialN': 71, 'loaded': True, 'loadedTime': 2620.899999976158, 'positionName': 'RIGHT', 'positionCoords': [1331.2, 515], 'bid': 6.7}]",117414.70000004768,1669831142924,mango,banana,9.57,6.7,-2.87,mango,627.3999999761581,628,627.7999999523163,True,u,118563.30000007153,1148.6000000238419,1669831144072,1148,,HRV,HRV_0160,2022-11-30 18:02:19
72,"[{'imgObject': {}, 'id': 'burger', 'src': '/static/foodstim60/burger.jpg', 'key': 'u', 'origWidth': 409, 'origHeight': 409, 'width': 409, 'height': 409, 'widthPercent': 0.45, 'rescaleHeight': False, 'trialN': 72, 'loaded': True, 'loadedTime': 2565.7000000476837, 'positionName': 'LEFT', 'positionCoords': [819.8, 515.5], 'bid': 7.82}, {'imgObject': {}, 'id': 'salmon', 'src': '/static/foodstim60/salmon.jpg', 'key': 'i', 'origWidth': 410, 'origHeight': 409, 'width': 410, 'height': 409, 'widthPercent': 0.45, 'rescaleHeight': False, 'trialN': 72, 'loaded': True, 'loadedTime': 3091.100000023842, 'positionName': 'RIGHT', 'positionCoords': [1331.2, 515.5], 'bid': 7.52}]",118563.60000002384,1669831144073,burger,salmon,7.82,7.52,-0.3000000000000007,burger,1762.2999999523163,1762,1762.6000000238419,True,u,120843.70000004768,2280.100000023842,1669831146353,2280,,HRV,HRV_0160,2022-11-30 18:02:19
73,"[{'imgObject': {}, 'id': 'burrito', 'src': '/static/foodstim60/burrito.jpg', 'key': 'u', 'origWidth': 410, 'origHeight': 410, 'width': 410, 'height': 410, 'widthPercent': 0.45, 'rescaleHeight': False, 'trialN': 73, 'loaded': True, 'loadedTime': 2561, 'positionName': 'LEFT', 'positionCoords': [818.8, 515], 'bid': 2.79}, {'imgObject': {}, 'id': 'mashed potato', 'src': '/static/foodstim60/mashed potato.jpg', 'key': 'i', 'origWidth': 409, 'origHeight': 409, 'width': 409, 'height': 409, 'widthPercent': 0.45, 'rescaleHeight': False, 'trialN': 73, 'loaded': True, 'loadedTime': 2767.2000000476837, 'positionName': 'RIGHT', 'positionCoords': [1331.2, 515.5], 'bid': 2.09}]",120844.0,1669831146353,burrito,mashed potato,2.79,2.09,-0.7000000000000002,mashed potato,1360.2000000476837,1361,1360.8000000715256,True,i,122713.60000002384,1869.6000000238419,1669831148223,1870,,HRV,HRV_0160,2022-11-30 18:02:19
74,"[{'imgObject': {}, 'id': 'baked potato', 'src': '/static/foodstim60/baked potato.jpg', 'key': 'u', 'origWidth': 409, 'origHeight': 410, 'width': 409, 'height': 410, 'widthPercent': 0.45, 'rescaleHeight': False, 'trialN': 74, 'loaded': True, 'loadedTime': 3127, 'positionName': 'LEFT', 'positionCoords': [819.8, 515], 'bid': 2.93}, {'imgObject': {}, 'id': 'orange slices', 'src': '/static/foodstim60/orange slices.jpg', 'key': 'i', 'origWidth': 409, 'origHeight': 410, 'width': 409, 'height': 410, 'widthPercent': 0.45, 'rescaleHeight': False, 'trialN': 74, 'loaded': True, 'loadedTime': 3166, 'positionName': 'RIGHT', 'positionCoords': [1331.2, 515], 'bid': 9}]",122713.70000004768,1669831148223,baked potato,orange slices,2.93,9.0,6.07,orange slices,1021.2999999523163,1022,1021.6000000238419,True,i,124245.20000004768,1531.5,1669831149754,1531,,HRV,HRV_0160,2022-11-30 18:02:19
75,"[{'imgObject': {}, 'id': 'eggsalad', 'src': '/static/foodstim60/eggsalad.jpg', 'key': 'u', 'origWidth': 410, 'origHeight': 409, 'width': 410, 'height': 409, 'widthPercent': 0.45, 'rescaleHeight': False, 'trialN': 75, 'loaded': True, 'loadedTime': 3113, 'positionName': 'LEFT', 'positionCoords': [818.8, 515.5], 'bid': 4.34}, {'imgObject': {}, 'id': 'cherry tomato', 'src': '/static/foodstim60/cherry tomato.jpg', 'key': 'i', 'origWidth': 410, 'origHeight': 410, 'width': 410, 'height': 410, 'widthPercent': 0.45, 'rescaleHeight': False, 'trialN': 75, 'loaded': True, 'loadedTime': 2579.899999976158, 'positionName': 'RIGHT', 'positionCoords': [1331.2, 515], 'bid': 4.92}]",124245.39999997616,1669831149755,eggsalad,cherry tomato,4.34,4.92,0.5800000000000001,eggsalad,1415.8000000715256,1416,1416.4000000953674,True,u,126176.70000004768,1931.3000000715256,1669831151686,1931,,HRV,HRV_0160,2022-11-30 18:02:19
76,"[{'imgObject': {}, 'id': 'veggieswithdip', 'src': '/static/foodstim60/veggieswithdip.jpg', 'key': 'u', 'origWidth': 409, 'origHeight': 409, 'width': 409, 'height': 409, 'widthPercent': 0.45, 'rescaleHeight': False, 'trialN': 76, 'loaded': True, 'loadedTime': 2949.399999976158, 'positionName': 'LEFT', 'positionCoords': [819.8, 515.5], 'bid': 3.01}, {'imgObject': {}, 'id': 'corn cob', 'src': '/static/foodstim60/corn cob.jpg', 'key': 'i', 'origWidth': 411, 'origHeight': 411, 'width': 411, 'height': 411, 'widthPercent': 0.45, 'rescaleHeight': False, 'trialN': 76, 'loaded': True, 'loadedTime': 2792.399999976158, 'positionName': 'RIGHT', 'positionCoords': [1331.2, 514.5], 'bid': 9.05}]",126176.89999997616,1669831151686,veggieswithdip,corn cob,3.01,9.05,6.040000000000001,corn cob,878.0,878,878.2000000476837,True,i,127573.30000007153,1396.4000000953674,1669831153082,1396,,HRV,HRV_0160,2022-11-30 18:02:19
77,"[{'imgObject': {}, 'id': 'cheerios', 'src': '/static/foodstim60/cheerios.jpg', 'key': 'u', 'origWidth': 409, 'origHeight': 410, 'width': 409, 'height': 410, 'widthPercent': 0.45, 'rescaleHeight': False, 'trialN': 77, 'loaded': True, 'loadedTime': 2613.899999976158, 'positionName': 'LEFT', 'positionCoords': [819.8, 515], 'bid': 3.71}, {'imgObject': {}, 'id': 'rigatoni and sauce', 'src': '/static/foodstim60/rigatoni and sauce.jpg', 'key': 'i', 'origWidth': 410, 'origHeight': 411, 'width': 410, 'height': 411, 'widthPercent': 0.45, 'rescaleHeight': False, 'trialN': 77, 'loaded': True, 'loadedTime': 3151, 'positionName': 'RIGHT', 'positionCoords': [1331.2, 514.5], 'bid': 1.57}]",127573.60000002384,1669831153083,cheerios,rigatoni and sauce,3.71,1.57,-2.1399999999999997,cheerios,1237.3999999761581,1238,1238.0,True,u,129319.30000007153,1745.7000000476837,1669831154829,1746,,HRV,HRV_0160,2022-11-30 18:02:19
78,"[{'imgObject': {}, 'id': 'fruitsalad', 'src': '/static/foodstim60/fruitsalad.jpg', 'key': 'u', 'origWidth': 410, 'origHeight': 410, 'width': 410, 'height': 410, 'widthPercent': 0.45, 'rescaleHeight': False, 'trialN': 78, 'loaded': True, 'loadedTime': 2632.3000000715256, 'positionName': 'LEFT', 'positionCoords': [818.8, 515], 'bid': 9.21}, {'imgObject': {}, 'id': 'orange slices', 'src': '/static/foodstim60/orange slices.jpg', 'key': 'i', 'origWidth': 409, 'origHeight': 410, 'width': 409, 'height': 410, 'widthPercent': 0.45, 'rescaleHeight': False, 'trialN': 78, 'loaded': True, 'loadedTime': 3165.8000000715256, 'positionName': 'RIGHT', 'positionCoords': [1331.2, 515], 'bid': 9}]",129319.60000002384,1669831154829,fruitsalad,orange slices,9.21,9.0,-0.21000000000000085,fruitsalad,1244.2999999523163,1245,1244.8999999761581,True,u,131080.89999997616,1761.2999999523163,1669831156590,1761,,HRV,HRV_0160,2022-11-30 18:02:19
79,"[{'imgObject': {}, 'id': 'cocktailshrimp', 'src': '/static/foodstim60/cocktailshrimp.jpg', 'key': 'u', 'origWidth': 410, 'origHeight': 410, 'width': 410, 'height': 410, 'widthPercent': 0.45, 'rescaleHeight': False, 'trialN': 79, 'loaded': True, 'loadedTime': 3166.5, 'positionName': 'LEFT', 'positionCoords': [818.8, 515], 'bid': 1.53}, {'imgObject': {}, 'id': 'mac & cheese', 'src': '/static/foodstim60/mac & cheese.jpg', 'key': 'i', 'origWidth': 410, 'origHeight': 410, 'width': 410, 'height': 410, 'widthPercent': 0.45, 'rescaleHeight': False, 'trialN': 79, 'loaded': True, 'loadedTime': 3139.8000000715256, 'positionName': 'RIGHT', 'positionCoords': [1331.2, 515], 'bid': 0.11}]",131080.89999997616,1669831156590,cocktailshrimp,mac & cheese,1.53,0.11,-1.42,mac & cheese,1435.7000000476837,1436,1436.1000000238419,True,i,133029.0,1948.1000000238419,1669831158538,1948,,HRV,HRV_0160,2022-11-30 18:02:19
80,"[{'imgObject': {}, 'id': 'blueberries', 'src': '/static/foodstim60/blueberries.jpg', 'key': 'u', 'origWidth': 411, 'origHeight': 411, 'width': 411, 'height': 411, 'widthPercent': 0.45, 'rescaleHeight': False, 'trialN': 80, 'loaded': True, 'loadedTime': 2776.100000023842, 'positionName': 'LEFT', 'positionCoords': [817.8, 514.5], 'bid': 5.79}, {'imgObject': {}, 'id': 'cheerios', 'src': '/static/foodstim60/cheerios.jpg', 'key': 'i', 'origWidth': 409, 'origHeight': 410, 'width': 409, 'height': 410, 'widthPercent': 0.45, 'rescaleHeight': False, 'trialN': 80, 'loaded': True, 'loadedTime': 2614.5, 'positionName': 'RIGHT', 'positionCoords': [1331.2, 515], 'bid': 3.71}]",133029.10000002384,1669831158538,blueberries,cheerios,5.79,3.71,-2.08,blueberries,1781.6000000238419,1782,1781.8999999761581,True,u,135328.5,2299.399999976158,1669831160838,2300,,HRV,HRV_0160,2022-11-30 18:02:19
81,"[{'imgObject': {}, 'id': 'veggieswithdip', 'src': '/static/foodstim60/veggieswithdip.jpg', 'key': 'u', 'origWidth': 409, 'origHeight': 409, 'width': 409, 'height': 409, 'widthPercent': 0.45, 'rescaleHeight': False, 'trialN': 81, 'loaded': True, 'loadedTime': 2927.899999976158, 'positionName': 'LEFT', 'positionCoords': [819.8, 515.5], 'bid': 3.01}, {'imgObject': {}, 'id': 'ice cream sundae 002', 'src': '/static/foodstim60/ice cream sundae 002.jpg', 'key': 'i', 'origWidth': 409, 'origHeight': 409, 'width': 409, 'height': 409, 'widthPercent': 0.45, 'rescaleHeight': False, 'trialN': 81, 'loaded': True, 'loadedTime': 2949.8000000715256, 'positionName': 'RIGHT', 'positionCoords': [1331.2, 515.5], 'bid': 1.27}]",135328.89999997616,1669831160838,veggieswithdip,ice cream sundae 002,3.01,1.27,-1.7399999999999998,veggieswithdip,1449.5,1450,1450.1000000238419,True,u,137290.70000004768,1961.8000000715256,1669831162800,1962,,HRV,HRV_0160,2022-11-30 18:02:19
82,"[{'imgObject': {}, 'id': 'orange slices', 'src': '/static/foodstim60/orange slices.jpg', 'key': 'u', 'origWidth': 409, 'origHeight': 410, 'width': 409, 'height': 410, 'widthPercent': 0.45, 'rescaleHeight': False, 'trialN': 82, 'loaded': True, 'loadedTime': 3165.8000000715256, 'positionName': 'LEFT', 'positionCoords': [819.8, 515], 'bid': 9}, {'imgObject': {}, 'id': 'steak', 'src': '/static/foodstim60/steak.jpg', 'key': 'i', 'origWidth': 410, 'origHeight': 410, 'width': 410, 'height': 410, 'widthPercent': 0.45, 'rescaleHeight': False, 'trialN': 82, 'loaded': True, 'loadedTime': 3153.7000000476837, 'positionName': 'RIGHT', 'positionCoords': [1331.2, 515], 'bid': 9.74}]",137290.89999997616,1669831162800,orange slices,steak,9.0,9.74,0.7400000000000002,steak,979.3000000715256,980,979.8000000715256,True,i,138777.60000002384,1486.7000000476837,1669831164287,1487,,HRV,HRV_0160,2022-11-30 18:02:19
83,"[{'imgObject': {}, 'id': 'orange slices', 'src': '/static/foodstim60/orange slices.jpg', 'key': 'u', 'origWidth': 409, 'origHeight': 410, 'width': 409, 'height': 410, 'widthPercent': 0.45, 'rescaleHeight': False, 'trialN': 83, 'loaded': True, 'loadedTime': 3166, 'positionName': 'LEFT', 'positionCoords': [819.8, 515], 'bid': 9}, {'imgObject': {}, 'id': 'grilled chicken strips', 'src': '/static/foodstim60/grilled chicken strips.jpg', 'key': 'i', 'origWidth': 410, 'origHeight': 411, 'width': 410, 'height': 411, 'widthPercent': 0.45, 'rescaleHeight': False, 'trialN': 83, 'loaded': True, 'loadedTime': 2774.7000000476837, 'positionName': 'RIGHT', 'positionCoords': [1331.2, 514.5], 'bid': 6.1000000000000005}]",138778.0,1669831164287,orange slices,grilled chicken strips,9.0,6.1000000000000005,-2.8999999999999995,orange slices,977.3000000715256,978,977.8999999761581,True,u,140267.10000002384,1489.1000000238419,1669831165776,1489,,HRV,HRV_0160,2022-11-30 18:02:19
84,"[{'imgObject': {}, 'id': 'fruitsalad', 'src': '/static/foodstim60/fruitsalad.jpg', 'key': 'u', 'origWidth': 410, 'origHeight': 410, 'width': 410, 'height': 410, 'widthPercent': 0.45, 'rescaleHeight': False, 'trialN': 84, 'loaded': True, 'loadedTime': 2632.7000000476837, 'positionName': 'LEFT', 'positionCoords': [818.8, 515], 'bid': 9.21}, {'imgObject': {}, 'id': 'Grapes', 'src': '/static/foodstim60/Grapes.jpg', 'key': 'i', 'origWidth': 411, 'origHeight': 411, 'width': 411, 'height': 411, 'widthPercent': 0.45, 'rescaleHeight': False, 'trialN': 84, 'loaded': True, 'loadedTime': 3045.600000023842, 'positionName': 'RIGHT', 'positionCoords': [1331.2, 514.5], 'bid': 7.09}]",140267.30000007153,1669831165776,fruitsalad,Grapes,9.21,7.09,-2.120000000000001,fruitsalad,850.1999999284744,851,850.6999999284744,True,u,141630.30000007153,1363.0,1669831167140,1364,,HRV,HRV_0160,2022-11-30 18:02:19
85,"[{'imgObject': {}, 'id': 'cherry tomato', 'src': '/static/foodstim60/cherry tomato.jpg', 'key': 'u', 'origWidth': 410, 'origHeight': 410, 'width': 410, 'height': 410, 'widthPercent': 0.45, 'rescaleHeight': False, 'trialN': 85, 'loaded': True, 'loadedTime': 2581, 'positionName': 'LEFT', 'positionCoords': [818.8, 515], 'bid': 4.92}, {'imgObject': {}, 'id': 'edamame', 'src': '/static/foodstim60/edamame.jpg', 'key': 'i', 'origWidth': 409, 'origHeight': 410, 'width': 409, 'height': 410, 'widthPercent': 0.45, 'rescaleHeight': False, 'trialN': 85, 'loaded': True, 'loadedTime': 3022.5, 'positionName': 'RIGHT', 'positionCoords': [1331.2, 515], 'bid': 7.78}]",141630.70000004768,1669831167140,cherry tomato,edamame,4.92,7.78,2.8600000000000003,edamame,848.1999999284744,849,848.8999999761581,True,i,142993.30000007153,1362.6000000238419,1669831168502,1362,,HRV,HRV_0160,2022-11-30 18:02:19
86,"[{'imgObject': {}, 'id': 'cocktailshrimp', 'src': '/static/foodstim60/cocktailshrimp.jpg', 'key': 'u', 'origWidth': 410, 'origHeight': 410, 'width': 410, 'height': 410, 'widthPercent': 0.45, 'rescaleHeight': False, 'trialN': 86, 'loaded': True, 'loadedTime': 3166.600000023842, 'positionName': 'LEFT', 'positionCoords': [818.8, 515], 'bid': 1.53}, {'imgObject': {}, 'id': 'rigatoni and sauce', 'src': '/static/foodstim60/rigatoni and sauce.jpg', 'key': 'i', 'origWidth': 410, 'origHeight': 411, 'width': 410, 'height': 411, 'widthPercent': 0.45, 'rescaleHeight': False, 'trialN': 86, 'loaded': True, 'loadedTime': 3151.100000023842, 'positionName': 'RIGHT', 'positionCoords': [1331.2, 514.5], 'bid': 1.57}]",142993.39999997616,1669831168503,cocktailshrimp,rigatoni and sauce,1.53,1.57,0.040000000000000036,rigatoni and sauce,971.7000000476837,972,972.1000000238419,True,i,144478.10000002384,1484.7000000476837,1669831169987,1484,,HRV,HRV_0160,2022-11-30 18:02:19
87,"[{'imgObject': {}, 'id': 'kiwi', 'src': '/static/foodstim60/kiwi.jpg', 'key': 'u', 'origWidth': 410, 'origHeight': 410, 'width': 410, 'height': 410, 'widthPercent': 0.45, 'rescaleHeight': False, 'trialN': 87, 'loaded': True, 'loadedTime': 2536.5, 'positionName': 'LEFT', 'positionCoords': [818.8, 515], 'bid': 4.98}, {'imgObject': {}, 'id': 'cheerios', 'src': '/static/foodstim60/cheerios.jpg', 'key': 'i', 'origWidth': 409, 'origHeight': 410, 'width': 409, 'height': 410, 'widthPercent': 0.45, 'rescaleHeight': False, 'trialN': 87, 'loaded': True, 'loadedTime': 2614.399999976158, 'positionName': 'RIGHT', 'positionCoords': [1331.2, 515], 'bid': 3.71}]",144478.5,1669831169988,kiwi,cheerios,4.98,3.71,-1.2700000000000005,kiwi,985.8999999761581,986,986.7000000476837,True,u,145980.39999997616,1501.8999999761581,1669831171490,1502,,HRV,HRV_0160,2022-11-30 18:02:19
88,"[{'imgObject': {}, 'id': 'corn cob', 'src': '/static/foodstim60/corn cob.jpg', 'key': 'u', 'origWidth': 411, 'origHeight': 411, 'width': 411, 'height': 411, 'widthPercent': 0.45, 'rescaleHeight': False, 'trialN': 88, 'loaded': True, 'loadedTime': 2776.600000023842, 'positionName': 'LEFT', 'positionCoords': [817.8, 514.5], 'bid': 9.05}, {'imgObject': {}, 'id': 'orange slices', 'src': '/static/foodstim60/orange slices.jpg', 'key': 'i', 'origWidth': 409, 'origHeight': 410, 'width': 409, 'height': 410, 'widthPercent': 0.45, 'rescaleHeight': False, 'trialN': 88, 'loaded': True, 'loadedTime': 3165.100000023842, 'positionName': 'RIGHT', 'positionCoords': [1331.2, 515], 'bid': 9}]",145980.89999997616,1669831171490,corn cob,orange slices,9.05,9.0,-0.05000000000000071,corn cob,673.3000000715256,674,674.1000000238419,True,u,147160.20000004768,1179.3000000715256,1669831172669,1179,,HRV,HRV_0160,2022-11-30 18:02:19
89,"[{'imgObject': {}, 'id': 'eggs', 'src': '/static/foodstim60/eggs.jpg', 'key': 'u', 'origWidth': 409, 'origHeight': 409, 'width': 409, 'height': 409, 'widthPercent': 0.45, 'rescaleHeight': False, 'trialN': 89, 'loaded': True, 'loadedTime': 2574.3000000715256, 'positionName': 'LEFT', 'positionCoords': [819.8, 515.5], 'bid': 0.8200000000000001}, {'imgObject': {}, 'id': 'sushi w_condiments', 'src': '/static/foodstim60/sushi w_condiments.jpg', 'key': 'i', 'origWidth': 410, 'origHeight': 410, 'width': 410, 'height': 410, 'widthPercent': 0.45, 'rescaleHeight': False, 'trialN': 89, 'loaded': True, 'loadedTime': 3162.8000000715256, 'positionName': 'RIGHT', 'positionCoords': [1331.2, 515], 'bid': 2.81}]",147160.5,1669831172670,eggs,sushi w_condiments,0.8200000000000001,2.81,1.99,eggs,1138.5,1139,1139.3999999761581,True,u,148813.10000002384,1652.6000000238419,1669831174322,1652,,HRV,HRV_0160,2022-11-30 18:02:19
90,"[{'imgObject': {}, 'id': 'eggsalad', 'src': '/static/foodstim60/eggsalad.jpg', 'key': 'u', 'origWidth': 410, 'origHeight': 409, 'width': 410, 'height': 409, 'widthPercent': 0.45, 'rescaleHeight': False, 'trialN': 90, 'loaded': True, 'loadedTime': 3113.5, 'positionName': 'LEFT', 'positionCoords': [818.8, 515.5], 'bid': 4.34}, {'imgObject': {}, 'id': 'pear', 'src': '/static/foodstim60/pear.jpg', 'key': 'i', 'origWidth': 411, 'origHeight': 410, 'width': 411, 'height': 410, 'widthPercent': 0.45, 'rescaleHeight': False, 'trialN': 90, 'loaded': True, 'loadedTime': 2767.3000000715256, 'positionName': 'RIGHT', 'positionCoords': [1331.2, 515], 'bid': 3.92}]",167691.30000007153,1669831193201,eggsalad,pear,4.34,3.92,-0.41999999999999993,pear,1853.6999999284744,1854,1854.1999999284744,True,i,170069.30000007153,2378.0,1669831195579,2378,"[{'event': 'fullscreenchange', 'details': 'fullscreenenter', 'performance time': 167692.5, 'date time': 1669831193202}]",HRV,HRV_0160,2022-11-30 18:02:19
91,"[{'imgObject': {}, 'id': 'strawberries', 'src': '/static/foodstim60/strawberries.jpg', 'key': 'u', 'origWidth': 410, 'origHeight': 410, 'width': 410, 'height': 410, 'widthPercent': 0.45, 'rescaleHeight': False, 'trialN': 91, 'loaded': True, 'loadedTime': 3116.8000000715256, 'positionName': 'LEFT', 'positionCoords': [818.8, 515], 'bid': 7.07}, {'imgObject': {}, 'id': 'grilled chicken strips', 'src': '/static/foodstim60/grilled chicken strips.jpg', 'key': 'i', 'origWidth': 410, 'origHeight': 411, 'width': 410, 'height': 411, 'widthPercent': 0.45, 'rescaleHeight': False, 'trialN': 91, 'loaded': True, 'loadedTime': 2772.5, 'positionName': 'RIGHT', 'positionCoords': [1331.2, 514.5], 'bid': 6.1000000000000005}]",170069.60000002384,1669831195579,strawberries,grilled chicken strips,7.07,6.1000000000000005,-0.9699999999999998,grilled chicken strips,712.5,713,713.2000000476837,True,i,171295.70000004768,1226.1000000238419,1669831196805,1226,,HRV,HRV_0160,2022-11-30 18:02:19
92,"[{'imgObject': {}, 'id': 'sweetpotato', 'src': '/static/foodstim60/sweetpotato.jpg', 'key': 'u', 'origWidth': 410, 'origHeight': 410, 'width': 410, 'height': 410, 'widthPercent': 0.45, 'rescaleHeight': False, 'trialN': 92, 'loaded': True, 'loadedTime': 2591.100000023842, 'positionName': 'LEFT', 'positionCoords': [818.8, 515], 'bid': 0.22}, {'imgObject': {}, 'id': 'cherry tomato', 'src': '/static/foodstim60/cherry tomato.jpg', 'key': 'i', 'origWidth': 410, 'origHeight': 410, 'width': 410, 'height': 410, 'widthPercent': 0.45, 'rescaleHeight': False, 'trialN': 92, 'loaded': True, 'loadedTime': 2580.7000000476837, 'positionName': 'RIGHT', 'positionCoords': [1331.2, 515], 'bid': 4.92}]",171295.89999997616,1669831196805,sweetpotato,cherry tomato,0.22,4.92,4.7,cherry tomato,980.6000000238419,981,981.0,True,i,172784.0,1488.1000000238419,1669831198293,1488,,HRV,HRV_0160,2022-11-30 18:02:19
93,"[{'imgObject': {}, 'id': 'sushi w_condiments', 'src': '/static/foodstim60/sushi w_condiments.jpg', 'key': 'u', 'origWidth': 410, 'origHeight': 410, 'width': 410, 'height': 410, 'widthPercent': 0.45, 'rescaleHeight': False, 'trialN': 93, 'loaded': True, 'loadedTime': 3161.899999976158, 'positionName': 'LEFT', 'positionCoords': [818.8, 515], 'bid': 2.81}, {'imgObject': {}, 'id': 'chickenfingers', 'src': '/static/foodstim60/chickenfingers.jpg', 'key': 'i', 'origWidth': 410, 'origHeight': 410, 'width': 410, 'height': 410, 'widthPercent': 0.45, 'rescaleHeight': False, 'trialN': 93, 'loaded': True, 'loadedTime': 3102.100000023842, 'positionName': 'RIGHT', 'positionCoords': [1331.2, 515], 'bid': 2.21}]",172784.20000004768,1669831198293,sushi w_condiments,chickenfingers,2.81,2.21,-0.6000000000000001,chickenfingers,802.2999999523163,803,802.8999999761581,True,i,174104.60000002384,1320.3999999761581,1669831199614,1321,,HRV,HRV_0160,2022-11-30 18:02:19
94,"[{'imgObject': {}, 'id': 'chicken nuggets2', 'src': '/static/foodstim60/chicken nuggets2.jpg', 'key': 'u', 'origWidth': 410, 'origHeight': 409, 'width': 410, 'height': 409, 'widthPercent': 0.45, 'rescaleHeight': False, 'trialN': 94, 'loaded': True, 'loadedTime': 3011.3000000715256, 'positionName': 'LEFT', 'positionCoords': [818.8, 515.5], 'bid': 3.67}, {'imgObject': {}, 'id': 'cherry tomato', 'src': '/static/foodstim60/cherry tomato.jpg', 'key': 'i', 'origWidth': 410, 'origHeight': 410, 'width': 410, 'height': 410, 'widthPercent': 0.45, 'rescaleHeight': False, 'trialN': 94, 'loaded': True, 'loadedTime': 2581.3000000715256, 'positionName': 'RIGHT', 'positionCoords': [1331.2, 515], 'bid': 4.92}]",174104.89999997616,1669831199614,chicken nuggets2,cherry tomato,3.67,4.92,1.25,chicken nuggets2,891.8000000715256,892,892.0,True,u,175501.80000007153,1396.9000000953674,1669831201011,1397,,HRV,HRV_0160,2022-11-30 18:02:19
95,"[{'imgObject': {}, 'id': 'bagel and cc', 'src': '/static/foodstim60/bagel and cc.jpg', 'key': 'u', 'origWidth': 410, 'origHeight': 410, 'width': 410, 'height': 410, 'widthPercent': 0.45, 'rescaleHeight': False, 'trialN': 95, 'loaded': True, 'loadedTime': 3116, 'positionName': 'LEFT', 'positionCoords': [818.8, 515], 'bid': 9.57}, {'imgObject': {}, 'id': 'mango', 'src': '/static/foodstim60/mango.jpg', 'key': 'i', 'origWidth': 411, 'origHeight': 411, 'width': 411, 'height': 411, 'widthPercent': 0.45, 'rescaleHeight': False, 'trialN': 95, 'loaded': True, 'loadedTime': 2875.8000000715256, 'positionName': 'RIGHT', 'positionCoords': [1331.2, 514.5], 'bid': 9.57}]",175502.0,1669831201011,bagel and cc,mango,9.57,9.57,0.0,bagel and cc,739.1000000238419,740,739.6000000238419,True,u,176744.10000002384,1242.1000000238419,1669831202253,1242,,HRV,HRV_0160,2022-11-30 18:02:19
96,"[{'imgObject': {}, 'id': 'fried eggs', 'src': '/static/foodstim60/fried eggs.jpg', 'key': 'u', 'origWidth': 410, 'origHeight': 410, 'width': 410, 'height': 410, 'widthPercent': 0.45, 'rescaleHeight': False, 'trialN': 96, 'loaded': True, 'loadedTime': 2547.7000000476837, 'positionName': 'LEFT', 'positionCoords': [818.8, 515], 'bid': 2.66}, {'imgObject': {}, 'id': 'baked potato', 'src': '/static/foodstim60/baked potato.jpg', 'key': 'i', 'origWidth': 409, 'origHeight': 410, 'width': 409, 'height': 410, 'widthPercent': 0.45, 'rescaleHeight': False, 'trialN': 96, 'loaded': True, 'loadedTime': 3138.5, 'positionName': 'RIGHT', 'positionCoords': [1331.2, 515], 'bid': 2.93}]",176744.20000004768,1669831202253,fried eggs,baked potato,2.66,2.93,0.27,fried eggs,877.2999999523163,878,877.5,True,u,178139.30000007153,1395.1000000238419,1669831203648,1395,,HRV,HRV_0160,2022-11-30 18:02:19
97,"[{'imgObject': {}, 'id': 'luckycharms', 'src': '/static/foodstim60/luckycharms.jpg', 'key': 'u', 'origWidth': 410, 'origHeight': 409, 'width': 410, 'height': 409, 'widthPercent': 0.45, 'rescaleHeight': False, 'trialN': 97, 'loaded': True, 'loadedTime': 3167.5, 'positionName': 'LEFT', 'positionCoords': [818.8, 515.5], 'bid': 6.15}, {'imgObject': {}, 'id': 'Grapes', 'src': '/static/foodstim60/Grapes.jpg', 'key': 'i', 'origWidth': 411, 'origHeight': 411, 'width': 411, 'height': 411, 'widthPercent': 0.45, 'rescaleHeight': False, 'trialN': 97, 'loaded': True, 'loadedTime': 3024.399999976158, 'positionName': 'RIGHT', 'positionCoords': [1331.2, 514.5], 'bid': 7.09}]",178139.5,1669831203649,luckycharms,Grapes,6.15,7.09,0.9399999999999995,luckycharms,941.6000000238419,942,942.1000000238419,True,u,179595.60000002384,1456.1000000238419,1669831205105,1456,,HRV,HRV_0160,2022-11-30 18:02:19
98,"[{'imgObject': {}, 'id': 'turkey sandwich', 'src': '/static/foodstim60/turkey sandwich.jpg', 'key': 'u', 'origWidth': 409, 'origHeight': 409, 'width': 409, 'height': 409, 'widthPercent': 0.45, 'rescaleHeight': False, 'trialN': 98, 'loaded': True, 'loadedTime': 2640.7000000476837, 'positionName': 'LEFT', 'positionCoords': [819.8, 515.5], 'bid': 2.07}, {'imgObject': {}, 'id': 'yogurt no spoon', 'src': '/static/foodstim60/yogurt no spoon.jpg', 'key': 'i', 'origWidth': 411, 'origHeight': 410, 'width': 411, 'height': 410, 'widthPercent': 0.45, 'rescaleHeight': False, 'trialN': 98, 'loaded': True, 'loadedTime': 3151.3000000715256, 'positionName': 'RIGHT', 'positionCoords': [1331.2, 515], 'bid': 2.73}]",179595.80000007153,1669831205105,turkey sandwich,yogurt no spoon,2.07,2.73,0.6600000000000001,turkey sandwich,940.1999999284744,941,941.0,True,u,181050.89999997616,1455.0999999046326,1669831206560,1455,,HRV,HRV_0160,2022-11-30 18:02:19
99,"[{'imgObject': {}, 'id': 'tacos', 'src': '/static/foodstim60/tacos.jpg', 'key': 'u', 'origWidth': 411, 'origHeight': 411, 'width': 411, 'height': 411, 'widthPercent': 0.45, 'rescaleHeight': False, 'trialN': 99, 'loaded': True, 'loadedTime': 2804.100000023842, 'positionName': 'LEFT', 'positionCoords': [817.8, 514.5], 'bid': 10}, {'imgObject': {}, 'id': 'steak', 'src': '/static/foodstim60/steak.jpg', 'key': 'i', 'origWidth': 410, 'origHeight': 410, 'width': 410, 'height': 410, 'widthPercent': 0.45, 'rescaleHeight': False, 'trialN': 99, 'loaded': True, 'loadedTime': 3153.5, 'positionName': 'RIGHT', 'positionCoords': [1331.2, 515], 'bid': 9.74}]",181051.20000004768,1669831206560,tacos,steak,10.0,9.74,-0.2599999999999998,tacos,970.7999999523163,972,971.2999999523163,True,u,182538.0,1486.7999999523163,1669831208047,1487,,HRV,HRV_0160,2022-11-30 18:02:19
100,"[{'imgObject': {}, 'id': 'blueberries', 'src': '/static/foodstim60/blueberries.jpg', 'key': 'u', 'origWidth': 411, 'origHeight': 411, 'width': 411, 'height': 411, 'widthPercent': 0.45, 'rescaleHeight': False, 'trialN': 100, 'loaded': True, 'loadedTime': 2776.3000000715256, 'positionName': 'LEFT', 'positionCoords': [817.8, 514.5], 'bid': 5.79}, {'imgObject': {}, 'id': 'roastedpotatoes', 'src': '/static/foodstim60/roastedpotatoes.jpg', 'key': 'i', 'origWidth': 409, 'origHeight': 410, 'width': 409, 'height': 410, 'widthPercent': 0.45, 'rescaleHeight': False, 'trialN': 100, 'loaded': True, 'loadedTime': 2771.7000000476837, 'positionName': 'RIGHT', 'positionCoords': [1331.2, 515], 'bid': 8.540000000000001}]",182538.30000007153,1669831208047,blueberries,roastedpotatoes,5.79,8.540000000000001,2.750000000000001,roastedpotatoes,771.0999999046326,772,771.5,True,i,183826.89999997616,1288.5999999046326,1669831209336,1289,,HRV,HRV_0160,2022-11-30 18:02:19
101,"[{'imgObject': {}, 'id': 'burrito', 'src': '/static/foodstim60/burrito.jpg', 'key': 'u', 'origWidth': 410, 'origHeight': 410, 'width': 410, 'height': 410, 'widthPercent': 0.45, 'rescaleHeight': False, 'trialN': 101, 'loaded': True, 'loadedTime': 2562.7000000476837, 'positionName': 'LEFT', 'positionCoords': [818.8, 515], 'bid': 2.79}, {'imgObject': {}, 'id': 'rigatoni', 'src': '/static/foodstim60/rigatoni.jpg', 'key': 'i', 'origWidth': 411, 'origHeight': 411, 'width': 411, 'height': 411, 'widthPercent': 0.45, 'rescaleHeight': False, 'trialN': 101, 'loaded': True, 'loadedTime': 2576.3000000715256, 'positionName': 'RIGHT', 'positionCoords': [1331.2, 514.5], 'bid': 0.45}]",183827.10000002384,1669831209336,burrito,rigatoni,2.79,0.45,-2.34,burrito,888.2999999523163,889,888.5,True,u,185236.60000002384,1409.5,1669831210746,1410,,HRV,HRV_0160,2022-11-30 18:02:19
102,"[{'imgObject': {}, 'id': 'shreddedwheatwithmilk', 'src': '/static/foodstim60/shreddedwheatwithmilk.jpg', 'key': 'u', 'origWidth': 410, 'origHeight': 410, 'width': 410, 'height': 410, 'widthPercent': 0.45, 'rescaleHeight': False, 'trialN': 102, 'loaded': True, 'loadedTime': 2630.3000000715256, 'positionName': 'LEFT', 'positionCoords': [818.8, 515], 'bid': 6.640000000000001}, {'imgObject': {}, 'id': 'cantaloupe', 'src': '/static/foodstim60/cantaloupe.jpg', 'key': 'i', 'origWidth': 409, 'origHeight': 409, 'width': 409, 'height': 409, 'widthPercent': 0.45, 'rescaleHeight': False, 'trialN': 102, 'loaded': True, 'loadedTime': 3115, 'positionName': 'RIGHT', 'positionCoords': [1331.2, 515.5], 'bid': 9.32}]",185236.89999997616,1669831210746,shreddedwheatwithmilk,cantaloupe,6.640000000000001,9.32,2.6799999999999997,cantaloupe,964.0,964,964.4000000953674,True,i,186706.0,1469.1000000238419,1669831212215,1469,,HRV,HRV_0160,2022-11-30 18:02:19
103,"[{'imgObject': {}, 'id': 'mashed potato', 'src': '/static/foodstim60/mashed potato.jpg', 'key': 'u', 'origWidth': 409, 'origHeight': 409, 'width': 409, 'height': 409, 'widthPercent': 0.45, 'rescaleHeight': False, 'trialN': 103, 'loaded': True, 'loadedTime': 2767, 'positionName': 'LEFT', 'positionCoords': [819.8, 515.5], 'bid': 2.09}, {'imgObject': {}, 'id': 'turkey sandwich', 'src': '/static/foodstim60/turkey sandwich.jpg', 'key': 'i', 'origWidth': 409, 'origHeight': 409, 'width': 409, 'height': 409, 'widthPercent': 0.45, 'rescaleHeight': False, 'trialN': 103, 'loaded': True, 'loadedTime': 2652, 'positionName': 'RIGHT', 'positionCoords': [1331.2, 515.5], 'bid': 2.07}]",186706.30000007153,1669831212215,mashed potato,turkey sandwich,2.09,2.07,-0.020000000000000018,turkey sandwich,1140.6999999284744,1141,1141.0,True,i,188358.89999997616,1652.5999999046326,1669831213868,1653,,HRV,HRV_0160,2022-11-30 18:02:19
104,"[{'imgObject': {}, 'id': 'olives', 'src': '/static/foodstim60/olives.jpg', 'key': 'u', 'origWidth': 410, 'origHeight': 410, 'width': 410, 'height': 410, 'widthPercent': 0.45, 'rescaleHeight': False, 'trialN': 104, 'loaded': True, 'loadedTime': 2827.2000000476837, 'positionName': 'LEFT', 'positionCoords': [818.8, 515], 'bid': 0.42}, {'imgObject': {}, 'id': 'yogurt no spoon', 'src': '/static/foodstim60/yogurt no spoon.jpg', 'key': 'i', 'origWidth': 411, 'origHeight': 410, 'width': 411, 'height': 410, 'widthPercent': 0.45, 'rescaleHeight': False, 'trialN': 104, 'loaded': True, 'loadedTime': 3152.100000023842, 'positionName': 'RIGHT', 'positionCoords': [1331.2, 515], 'bid': 2.73}]",188359.0,1669831213868,olives,yogurt no spoon,0.42,2.73,2.31,yogurt no spoon,1932.3000000715256,1933,1932.8000000715256,True,i,190805.70000004768,2446.7000000476837,1669831216315,2447,,HRV,HRV_0160,2022-11-30 18:02:19
105,"[{'imgObject': {}, 'id': 'olives', 'src': '/static/foodstim60/olives.jpg', 'key': 'u', 'origWidth': 410, 'origHeight': 410, 'width': 410, 'height': 410, 'widthPercent': 0.45, 'rescaleHeight': False, 'trialN': 105, 'loaded': True, 'loadedTime': 2827.399999976158, 'positionName': 'LEFT', 'positionCoords': [818.8, 515], 'bid': 0.42}, {'imgObject': {}, 'id': 'cherries', 'src': '/static/foodstim60/cherries.jpg', 'key': 'i', 'origWidth': 410, 'origHeight': 411, 'width': 410, 'height': 411, 'widthPercent': 0.45, 'rescaleHeight': False, 'trialN': 105, 'loaded': True, 'loadedTime': 3165, 'positionName': 'RIGHT', 'positionCoords': [1331.2, 514.5], 'bid': 0.32}]",190805.89999997616,1669831216315,olives,cherries,0.42,0.32,-0.09999999999999998,olives,898.8000000715256,899,899.3000000715256,True,u,192213.30000007153,1407.4000000953674,1669831217722,1407,,HRV,HRV_0160,2022-11-30 18:02:19
106,"[{'imgObject': {}, 'id': 'strawberries', 'src': '/static/foodstim60/strawberries.jpg', 'key': 'u', 'origWidth': 410, 'origHeight': 410, 'width': 410, 'height': 410, 'widthPercent': 0.45, 'rescaleHeight': False, 'trialN': 106, 'loaded': True, 'loadedTime': 3116.899999976158, 'positionName': 'LEFT', 'positionCoords': [818.8, 515], 'bid': 7.07}, {'imgObject': {}, 'id': 'banana', 'src': '/static/foodstim60/banana.jpg', 'key': 'i', 'origWidth': 410, 'origHeight': 410, 'width': 410, 'height': 410, 'widthPercent': 0.45, 'rescaleHeight': False, 'trialN': 106, 'loaded': True, 'loadedTime': 2627.600000023842, 'positionName': 'RIGHT', 'positionCoords': [1331.2, 515], 'bid': 6.7}]",192213.70000004768,1669831217723,strawberries,banana,7.07,6.7,-0.3700000000000001,strawberries,1207.8999999761581,1208,1208.5,True,u,193929.20000004768,1715.5,1669831219438,1715,,HRV,HRV_0160,2022-11-30 18:02:19
107,"[{'imgObject': {}, 'id': 'granola w milk', 'src': '/static/foodstim60/granola w milk.jpg', 'key': 'u', 'origWidth': 410, 'origHeight': 410, 'width': 410, 'height': 410, 'widthPercent': 0.45, 'rescaleHeight': False, 'trialN': 107, 'loaded': True, 'loadedTime': 2692.2000000476837, 'positionName': 'LEFT', 'positionCoords': [818.8, 515], 'bid': 3.89}, {'imgObject': {}, 'id': 'chicken nuggets2', 'src': '/static/foodstim60/chicken nuggets2.jpg', 'key': 'i', 'origWidth': 410, 'origHeight': 409, 'width': 410, 'height': 409, 'widthPercent': 0.45, 'rescaleHeight': False, 'trialN': 107, 'loaded': True, 'loadedTime': 3022.5, 'positionName': 'RIGHT', 'positionCoords': [1331.2, 515.5], 'bid': 3.67}]",193929.30000007153,1669831219438,granola w milk,chicken nuggets2,3.89,3.67,-0.2200000000000002,chicken nuggets2,1097.0999999046326,1098,1097.3999999761581,True,i,195541.30000007153,1612.0,1669831221050,1612,,HRV,HRV_0160,2022-11-30 18:02:19
