trialN,stimuli,question,trialStartTime,trialStartTime_UNIX,stimulus1,rt,receivedResponse,rating,trialEndTime,trialDuration,stimulus1Loaded,exp,subjectId,date
0,"[{'imgObject': {}, 'id': 'cherry tomato', 'src': '/static/foodstim60/cherry tomato.jpg', 'key': 'NaN', 'origWidth': 410, 'origHeight': 410, 'width': 410, 'height': 410, 'widthPercent': 0.8, 'rescaleHeight': True, 'trialN': 0, 'loaded': True, 'loadedTime': 2727, 'positionName': 'CENTER', 'positionCoords': [1075, 515]}]",Rate how much you want to eat this food from 0 (least) to 10 (most).,2835.399999976158,1669830889913,cherry tomato,3451.5,True,4.92,6286.899999976158,3451.5,True,HRV,HRV_0160,2022-11-30 17:56:22
1,"[{'imgObject': {}, 'id': 'salad w chicken', 'src': '/static/foodstim60/salad w chicken.jpg', 'key': 'NaN', 'origWidth': 411, 'origHeight': 411, 'width': 411, 'height': 411, 'widthPercent': 0.8, 'rescaleHeight': True, 'trialN': 1, 'loaded': True, 'loadedTime': 2729.2999999523163, 'positionName': 'CENTER', 'positionCoords': [1074.5, 514.5]}]",Rate how much you want to eat this food from 0 (least) to 10 (most).,6288.0,1669830893365,salad w chicken,1551.5,True,7.8500000000000005,7839.5,1551.5,True,HRV,HRV_0160,2022-11-30 17:56:22
2,"[{'imgObject': {}, 'id': 'rigatoni and sauce', 'src': '/static/foodstim60/rigatoni and sauce.jpg', 'key': 'NaN', 'origWidth': 410, 'origHeight': 411, 'width': 410, 'height': 411, 'widthPercent': 0.8, 'rescaleHeight': True, 'trialN': 2, 'loaded': True, 'loadedTime': 2735.2999999523163, 'positionName': 'CENTER', 'positionCoords': [1075, 514.5]}]",Rate how much you want to eat this food from 0 (least) to 10 (most).,7840.200000047684,1669830894917,rigatoni and sauce,2396.7999999523163,True,1.57,10237.0,2396.7999999523163,True,HRV,HRV_0160,2022-11-30 17:56:22
3,"[{'imgObject': {}, 'id': 'strawberries', 'src': '/static/foodstim60/strawberries.jpg', 'key': 'NaN', 'origWidth': 410, 'origHeight': 410, 'width': 410, 'height': 410, 'widthPercent': 0.8, 'rescaleHeight': True, 'trialN': 3, 'loaded': True, 'loadedTime': 2738.100000023842, 'positionName': 'CENTER', 'positionCoords': [1075, 515]}]",Rate how much you want to eat this food from 0 (least) to 10 (most).,10237.700000047684,1669830897315,strawberries,2654.2999999523163,True,7.07,12892.0,2654.2999999523163,True,HRV,HRV_0160,2022-11-30 17:56:22
4,"[{'imgObject': {}, 'id': 'kiwi', 'src': '/static/foodstim60/kiwi.jpg', 'key': 'NaN', 'origWidth': 410, 'origHeight': 410, 'width': 410, 'height': 410, 'widthPercent': 0.8, 'rescaleHeight': True, 'trialN': 4, 'loaded': True, 'loadedTime': 2739.399999976158, 'positionName': 'CENTER', 'positionCoords': [1075, 515]}]",Rate how much you want to eat this food from 0 (least) to 10 (most).,12892.799999952316,1669830899970,kiwi,1641.9000000953674,True,4.98,14534.700000047684,1641.9000000953674,True,HRV,HRV_0160,2022-11-30 17:56:22
5,"[{'imgObject': {}, 'id': 'burger', 'src': '/static/foodstim60/burger.jpg', 'key': 'NaN', 'origWidth': 409, 'origHeight': 409, 'width': 409, 'height': 409, 'widthPercent': 0.8, 'rescaleHeight': True, 'trialN': 5, 'loaded': True, 'loadedTime': 2740.7999999523163, 'positionName': 'CENTER', 'positionCoords': [1075.5, 515.5]}]",Rate how much you want to eat this food from 0 (least) to 10 (most).,14535.700000047684,1669830901613,burger,1168.5999999046326,True,7.82,15704.299999952316,1168.5999999046326,True,HRV,HRV_0160,2022-11-30 17:56:22
6,"[{'imgObject': {}, 'id': 'steak', 'src': '/static/foodstim60/steak.jpg', 'key': 'NaN', 'origWidth': 410, 'origHeight': 410, 'width': 410, 'height': 410, 'widthPercent': 0.8, 'rescaleHeight': True, 'trialN': 6, 'loaded': True, 'loadedTime': 2748.899999976158, 'positionName': 'CENTER', 'positionCoords': [1075, 515]}]",Rate how much you want to eat this food from 0 (least) to 10 (most).,15705.200000047684,1669830902782,steak,1371.3999999761581,True,9.74,17076.600000023842,1371.3999999761581,True,HRV,HRV_0160,2022-11-30 17:56:22
7,"[{'imgObject': {}, 'id': 'grilled chicken strips', 'src': '/static/foodstim60/grilled chicken strips.jpg', 'key': 'NaN', 'origWidth': 410, 'origHeight': 411, 'width': 410, 'height': 411, 'widthPercent': 0.8, 'rescaleHeight': True, 'trialN': 7, 'loaded': True, 'loadedTime': 2751.2999999523163, 'positionName': 'CENTER', 'positionCoords': [1075, 514.5]}]",Rate how much you want to eat this food from 0 (least) to 10 (most).,17077.399999976158,1669830904155,grilled chicken strips,1472.5,True,6.1000000000000005,18549.899999976158,1472.5,True,HRV,HRV_0160,2022-11-30 17:56:22
8,"[{'imgObject': {}, 'id': 'raspberries', 'src': '/static/foodstim60/raspberries.jpg', 'key': 'NaN', 'origWidth': 411, 'origHeight': 411, 'width': 411, 'height': 411, 'widthPercent': 0.8, 'rescaleHeight': True, 'trialN': 8, 'loaded': True, 'loadedTime': 2757.2999999523163, 'positionName': 'CENTER', 'positionCoords': [1074.5, 514.5]}]",Rate how much you want to eat this food from 0 (least) to 10 (most).,18551.0,1669830905628,raspberries,2766.7999999523163,True,6.17,21317.799999952316,2766.7999999523163,True,HRV,HRV_0160,2022-11-30 17:56:22
9,"[{'imgObject': {}, 'id': 'veggieswithdip', 'src': '/static/foodstim60/veggieswithdip.jpg', 'key': 'NaN', 'origWidth': 409, 'origHeight': 409, 'width': 409, 'height': 409, 'widthPercent': 0.8, 'rescaleHeight': True, 'trialN': 9, 'loaded': True, 'loadedTime': 2759.7999999523163, 'positionName': 'CENTER', 'positionCoords': [1075.5, 515.5]}]",Rate how much you want to eat this food from 0 (least) to 10 (most).,21318.799999952316,1669830908396,veggieswithdip,1090.6000000238419,True,3.0100000000000002,22409.399999976158,1090.6000000238419,True,HRV,HRV_0160,2022-11-30 17:56:22
10,"[{'imgObject': {}, 'id': 'ice cream sundae 002', 'src': '/static/foodstim60/ice cream sundae 002.jpg', 'key': 'NaN', 'origWidth': 409, 'origHeight': 409, 'width': 409, 'height': 409, 'widthPercent': 0.8, 'rescaleHeight': True, 'trialN': 10, 'loaded': True, 'loadedTime': 2761.100000023842, 'positionName': 'CENTER', 'positionCoords': [1075.5, 515.5]}]",Rate how much you want to eat this food from 0 (least) to 10 (most).,22410.100000023842,1669830909487,ice cream sundae 002,1360.5,True,1.27,23770.600000023842,1360.5,True,HRV,HRV_0160,2022-11-30 17:56:22
11,"[{'imgObject': {}, 'id': 'burrito', 'src': '/static/foodstim60/burrito.jpg', 'key': 'NaN', 'origWidth': 410, 'origHeight': 410, 'width': 410, 'height': 410, 'widthPercent': 0.8, 'rescaleHeight': True, 'trialN': 11, 'loaded': True, 'loadedTime': 2762.899999976158, 'positionName': 'CENTER', 'positionCoords': [1075, 515]}]",Rate how much you want to eat this food from 0 (least) to 10 (most).,23771.399999976158,1669830910848,burrito,1471.8999999761581,True,2.79,25243.299999952316,1471.8999999761581,True,HRV,HRV_0160,2022-11-30 17:56:22
12,"[{'imgObject': {}, 'id': 'hashbrowns', 'src': '/static/foodstim60/hashbrowns.jpg', 'key': 'NaN', 'origWidth': 411, 'origHeight': 410, 'width': 411, 'height': 410, 'widthPercent': 0.8, 'rescaleHeight': True, 'trialN': 12, 'loaded': True, 'loadedTime': 2763.7999999523163, 'positionName': 'CENTER', 'positionCoords': [1074.5, 515]}]",Rate how much you want to eat this food from 0 (least) to 10 (most).,25244.600000023842,1669830912321,hashbrowns,1800.0,True,2.89,27044.600000023842,1800.0,True,HRV,HRV_0160,2022-11-30 17:56:22
13,"[{'imgObject': {}, 'id': 'olives', 'src': '/static/foodstim60/olives.jpg', 'key': 'NaN', 'origWidth': 410, 'origHeight': 410, 'width': 410, 'height': 410, 'widthPercent': 0.8, 'rescaleHeight': True, 'trialN': 13, 'loaded': True, 'loadedTime': 2764.899999976158, 'positionName': 'CENTER', 'positionCoords': [1075, 515]}]",Rate how much you want to eat this food from 0 (least) to 10 (most).,27045.399999976158,1669830914122,olives,1720.5,True,0.42,28765.899999976158,1720.5,True,HRV,HRV_0160,2022-11-30 17:56:22
14,"[{'imgObject': {}, 'id': 'fruitsalad', 'src': '/static/foodstim60/fruitsalad.jpg', 'key': 'NaN', 'origWidth': 410, 'origHeight': 410, 'width': 410, 'height': 410, 'widthPercent': 0.8, 'rescaleHeight': True, 'trialN': 14, 'loaded': True, 'loadedTime': 2765.7999999523163, 'positionName': 'CENTER', 'positionCoords': [1075, 515]}]",Rate how much you want to eat this food from 0 (least) to 10 (most).,28767.0,1669830915844,fruitsalad,2316.899999976158,True,9.21,31083.899999976158,2316.899999976158,True,HRV,HRV_0160,2022-11-30 17:56:22
15,"[{'imgObject': {}, 'id': 'hotdog w must', 'src': '/static/foodstim60/hotdog w must.jpg', 'key': 'NaN', 'origWidth': 409, 'origHeight': 409, 'width': 409, 'height': 409, 'widthPercent': 0.8, 'rescaleHeight': True, 'trialN': 15, 'loaded': True, 'loadedTime': 2766.7999999523163, 'positionName': 'CENTER', 'positionCoords': [1075.5, 515.5]}]",Rate how much you want to eat this food from 0 (least) to 10 (most).,31085.200000047684,1669830918162,hotdog w must,1392.7999999523163,True,5.37,32478.0,1392.7999999523163,True,HRV,HRV_0160,2022-11-30 17:56:22
16,"[{'imgObject': {}, 'id': 'eggsalad', 'src': '/static/foodstim60/eggsalad.jpg', 'key': 'NaN', 'origWidth': 410, 'origHeight': 409, 'width': 410, 'height': 409, 'widthPercent': 0.8, 'rescaleHeight': True, 'trialN': 16, 'loaded': True, 'loadedTime': 2773.2000000476837, 'positionName': 'CENTER', 'positionCoords': [1075, 515.5]}]",Rate how much you want to eat this food from 0 (least) to 10 (most).,32478.899999976158,1669830919556,eggsalad,1101.8999999761581,True,4.34,33580.799999952316,1101.8999999761581,True,HRV,HRV_0160,2022-11-30 17:56:22
17,"[{'imgObject': {}, 'id': 'fried eggs', 'src': '/static/foodstim60/fried eggs.jpg', 'key': 'NaN', 'origWidth': 410, 'origHeight': 410, 'width': 410, 'height': 410, 'widthPercent': 0.8, 'rescaleHeight': True, 'trialN': 17, 'loaded': True, 'loadedTime': 2774.2999999523163, 'positionName': 'CENTER', 'positionCoords': [1075, 515]}]",Rate how much you want to eat this food from 0 (least) to 10 (most).,33581.700000047684,1669830920658,fried eggs,1281.8999999761581,True,2.66,34863.60000002384,1281.8999999761581,True,HRV,HRV_0160,2022-11-30 17:56:22
18,"[{'imgObject': {}, 'id': 'mac & cheese', 'src': '/static/foodstim60/mac & cheese.jpg', 'key': 'NaN', 'origWidth': 410, 'origHeight': 410, 'width': 410, 'height': 410, 'widthPercent': 0.8, 'rescaleHeight': True, 'trialN': 18, 'loaded': True, 'loadedTime': 2784.399999976158, 'positionName': 'CENTER', 'positionCoords': [1075, 515]}]",Rate how much you want to eat this food from 0 (least) to 10 (most).,34864.5,1669830921941,mac & cheese,1776.5,True,0.11,36641.0,1776.5,True,HRV,HRV_0160,2022-11-30 17:56:22
19,"[{'imgObject': {}, 'id': 'tacos', 'src': '/static/foodstim60/tacos.jpg', 'key': 'NaN', 'origWidth': 411, 'origHeight': 411, 'width': 411, 'height': 411, 'widthPercent': 0.8, 'rescaleHeight': True, 'trialN': 19, 'loaded': True, 'loadedTime': 2785.7000000476837, 'positionName': 'CENTER', 'positionCoords': [1074.5, 514.5]}]",Rate how much you want to eat this food from 0 (least) to 10 (most).,36642.200000047684,1669830923719,tacos,2214.399999976158,True,10.0,38856.60000002384,2214.399999976158,True,HRV,HRV_0160,2022-11-30 17:56:22
20,"[{'imgObject': {}, 'id': 'lox', 'src': '/static/foodstim60/lox.jpg', 'key': 'NaN', 'origWidth': 410, 'origHeight': 411, 'width': 410, 'height': 411, 'widthPercent': 0.8, 'rescaleHeight': True, 'trialN': 20, 'loaded': True, 'loadedTime': 2786.7000000476837, 'positionName': 'CENTER', 'positionCoords': [1075, 514.5]}]",Rate how much you want to eat this food from 0 (least) to 10 (most).,38858.299999952316,1669830925935,lox,1596.4000000953674,True,1.17,40454.700000047684,1596.4000000953674,True,HRV,HRV_0160,2022-11-30 17:56:22
21,"[{'imgObject': {}, 'id': 'bagel plain', 'src': '/static/foodstim60/bagel plain.jpg', 'key': 'NaN', 'origWidth': 410, 'origHeight': 410, 'width': 410, 'height': 410, 'widthPercent': 0.8, 'rescaleHeight': True, 'trialN': 21, 'loaded': True, 'loadedTime': 2787.899999976158, 'positionName': 'CENTER', 'positionCoords': [1075, 515]}]",Rate how much you want to eat this food from 0 (least) to 10 (most).,40455.799999952316,1669830927533,bagel plain,1574.1000000238419,True,7.92,42029.89999997616,1574.1000000238419,True,HRV,HRV_0160,2022-11-30 17:56:22
22,"[{'imgObject': {}, 'id': 'sweetpotato', 'src': '/static/foodstim60/sweetpotato.jpg', 'key': 'NaN', 'origWidth': 410, 'origHeight': 410, 'width': 410, 'height': 410, 'widthPercent': 0.8, 'rescaleHeight': True, 'trialN': 22, 'loaded': True, 'loadedTime': 2790.7999999523163, 'positionName': 'CENTER', 'positionCoords': [1075, 515]}]",Rate how much you want to eat this food from 0 (least) to 10 (most).,42030.89999997616,1669830929108,sweetpotato,1269.5,True,0.22,43300.39999997616,1269.5,True,HRV,HRV_0160,2022-11-30 17:56:22
23,"[{'imgObject': {}, 'id': 'cocktailshrimp', 'src': '/static/foodstim60/cocktailshrimp.jpg', 'key': 'NaN', 'origWidth': 410, 'origHeight': 410, 'width': 410, 'height': 410, 'widthPercent': 0.8, 'rescaleHeight': True, 'trialN': 23, 'loaded': True, 'loadedTime': 2791.600000023842, 'positionName': 'CENTER', 'positionCoords': [1075, 515]}]",Rate how much you want to eat this food from 0 (least) to 10 (most).,43301.5,1669830930378,cocktailshrimp,1349.6000000238419,True,1.53,44651.10000002384,1349.6000000238419,True,HRV,HRV_0160,2022-11-30 17:56:22
24,"[{'imgObject': {}, 'id': 'edamame', 'src': '/static/foodstim60/edamame.jpg', 'key': 'NaN', 'origWidth': 409, 'origHeight': 410, 'width': 409, 'height': 410, 'widthPercent': 0.8, 'rescaleHeight': True, 'trialN': 24, 'loaded': True, 'loadedTime': 2793.5, 'positionName': 'CENTER', 'positionCoords': [1075.5, 515]}]",Rate how much you want to eat this food from 0 (least) to 10 (most).,44652.299999952316,1669830931729,edamame,1337.7000000476837,True,7.78,45990.0,1337.7000000476837,True,HRV,HRV_0160,2022-11-30 17:56:22
25,"[{'imgObject': {}, 'id': 'yogurt no spoon', 'src': '/static/foodstim60/yogurt no spoon.jpg', 'key': 'NaN', 'origWidth': 411, 'origHeight': 410, 'width': 411, 'height': 410, 'widthPercent': 0.8, 'rescaleHeight': True, 'trialN': 25, 'loaded': True, 'loadedTime': 2794.2999999523163, 'positionName': 'CENTER', 'positionCoords': [1074.5, 515]}]",Rate how much you want to eat this food from 0 (least) to 10 (most).,45991.200000047684,1669830933068,yogurt no spoon,1708.5,True,2.73,47699.700000047684,1708.5,True,HRV,HRV_0160,2022-11-30 17:56:22
26,"[{'imgObject': {}, 'id': 'orange slices', 'src': '/static/foodstim60/orange slices.jpg', 'key': 'NaN', 'origWidth': 409, 'origHeight': 410, 'width': 409, 'height': 410, 'widthPercent': 0.8, 'rescaleHeight': True, 'trialN': 26, 'loaded': True, 'loadedTime': 2794.7999999523163, 'positionName': 'CENTER', 'positionCoords': [1075.5, 515]}]",Rate how much you want to eat this food from 0 (least) to 10 (most).,47700.89999997616,1669830934778,orange slices,2159.0,True,9.0,49859.89999997616,2159.0,True,HRV,HRV_0160,2022-11-30 17:56:22
27,"[{'imgObject': {}, 'id': 'omelette', 'src': '/static/foodstim60/omelette.jpg', 'key': 'NaN', 'origWidth': 410, 'origHeight': 409, 'width': 410, 'height': 409, 'widthPercent': 0.8, 'rescaleHeight': True, 'trialN': 27, 'loaded': True, 'loadedTime': 2795.399999976158, 'positionName': 'CENTER', 'positionCoords': [1075, 515.5]}]",Rate how much you want to eat this food from 0 (least) to 10 (most).,49861.39999997616,1669830936938,omelette,1405.1000000238419,True,6.7700000000000005,51266.5,1405.1000000238419,True,HRV,HRV_0160,2022-11-30 17:56:22
28,"[{'imgObject': {}, 'id': 'pear', 'src': '/static/foodstim60/pear.jpg', 'key': 'NaN', 'origWidth': 411, 'origHeight': 410, 'width': 411, 'height': 410, 'widthPercent': 0.8, 'rescaleHeight': True, 'trialN': 28, 'loaded': True, 'loadedTime': 2801.2999999523163, 'positionName': 'CENTER', 'positionCoords': [1074.5, 515]}]",Rate how much you want to eat this food from 0 (least) to 10 (most).,51267.799999952316,1669830938345,pear,1190.4000000953674,True,3.92,52458.200000047684,1190.4000000953674,True,HRV,HRV_0160,2022-11-30 17:56:22
29,"[{'imgObject': {}, 'id': 'Tribe humus pita', 'src': '/static/foodstim60/Tribe humus pita.jpg', 'key': 'NaN', 'origWidth': 411, 'origHeight': 411, 'width': 411, 'height': 411, 'widthPercent': 0.8, 'rescaleHeight': True, 'trialN': 29, 'loaded': True, 'loadedTime': 2802, 'positionName': 'CENTER', 'positionCoords': [1074.5, 514.5]}]",Rate how much you want to eat this food from 0 (least) to 10 (most).,52459.39999997616,1669830939536,Tribe humus pita,1170.7000000476837,True,5.14,53630.10000002384,1170.7000000476837,True,HRV,HRV_0160,2022-11-30 17:56:22
30,"[{'imgObject': {}, 'id': 'rigatoni', 'src': '/static/foodstim60/rigatoni.jpg', 'key': 'NaN', 'origWidth': 411, 'origHeight': 411, 'width': 411, 'height': 411, 'widthPercent': 0.8, 'rescaleHeight': True, 'trialN': 30, 'loaded': True, 'loadedTime': 2803.399999976158, 'positionName': 'CENTER', 'positionCoords': [1074.5, 514.5]}]",Rate how much you want to eat this food from 0 (least) to 10 (most).,53631.39999997616,1669830940708,rigatoni,1549.7000000476837,True,0.45,55181.10000002384,1549.7000000476837,True,HRV,HRV_0160,2022-11-30 17:56:22
31,"[{'imgObject': {}, 'id': 'cantaloupe', 'src': '/static/foodstim60/cantaloupe.jpg', 'key': 'NaN', 'origWidth': 409, 'origHeight': 409, 'width': 409, 'height': 409, 'widthPercent': 0.8, 'rescaleHeight': True, 'trialN': 31, 'loaded': True, 'loadedTime': 2805.2999999523163, 'positionName': 'CENTER', 'positionCoords': [1075.5, 515.5]}]",Rate how much you want to eat this food from 0 (least) to 10 (most).,55182.39999997616,1669830942259,cantaloupe,1304.0,True,9.32,56486.39999997616,1304.0,True,HRV,HRV_0160,2022-11-30 17:56:22
32,"[{'imgObject': {}, 'id': 'shreddedwheatwithmilk', 'src': '/static/foodstim60/shreddedwheatwithmilk.jpg', 'key': 'NaN', 'origWidth': 410, 'origHeight': 410, 'width': 410, 'height': 410, 'widthPercent': 0.8, 'rescaleHeight': True, 'trialN': 32, 'loaded': True, 'loadedTime': 2807.2999999523163, 'positionName': 'CENTER', 'positionCoords': [1075, 515]}]",Rate how much you want to eat this food from 0 (least) to 10 (most).,56487.10000002384,1669830943564,shreddedwheatwithmilk,1259.1999999284744,True,6.640000000000001,57746.299999952316,1259.1999999284744,True,HRV,HRV_0160,2022-11-30 17:56:22
33,"[{'imgObject': {}, 'id': 'turkey sandwich', 'src': '/static/foodstim60/turkey sandwich.jpg', 'key': 'NaN', 'origWidth': 409, 'origHeight': 409, 'width': 409, 'height': 409, 'widthPercent': 0.8, 'rescaleHeight': True, 'trialN': 33, 'loaded': True, 'loadedTime': 2808.2000000476837, 'positionName': 'CENTER', 'positionCoords': [1075.5, 515.5]}]",Rate how much you want to eat this food from 0 (least) to 10 (most).,57747.0,1669830944824,turkey sandwich,1473.0,True,2.07,59220.0,1473.0,True,HRV,HRV_0160,2022-11-30 17:56:22
34,"[{'imgObject': {}, 'id': 'salmon', 'src': '/static/foodstim60/salmon.jpg', 'key': 'NaN', 'origWidth': 410, 'origHeight': 409, 'width': 410, 'height': 409, 'widthPercent': 0.8, 'rescaleHeight': True, 'trialN': 34, 'loaded': True, 'loadedTime': 2811.2000000476837, 'positionName': 'CENTER', 'positionCoords': [1075, 515.5]}]",Rate how much you want to eat this food from 0 (least) to 10 (most).,59220.700000047684,1669830946297,salmon,1281.8999999761581,True,7.5200000000000005,60502.60000002384,1281.8999999761581,True,HRV,HRV_0160,2022-11-30 17:56:22
35,"[{'imgObject': {}, 'id': 'apple slices', 'src': '/static/foodstim60/apple slices.jpg', 'key': 'NaN', 'origWidth': 409, 'origHeight': 410, 'width': 409, 'height': 410, 'widthPercent': 0.8, 'rescaleHeight': True, 'trialN': 35, 'loaded': True, 'loadedTime': 2812.2000000476837, 'positionName': 'CENTER', 'positionCoords': [1075.5, 515]}]",Rate how much you want to eat this food from 0 (least) to 10 (most).,60503.299999952316,1669830947580,apple slices,1067.9000000953674,True,4.3500000000000005,61571.200000047684,1067.9000000953674,True,HRV,HRV_0160,2022-11-30 17:56:22
36,"[{'imgObject': {}, 'id': 'mango', 'src': '/static/foodstim60/mango.jpg', 'key': 'NaN', 'origWidth': 411, 'origHeight': 411, 'width': 411, 'height': 411, 'widthPercent': 0.8, 'rescaleHeight': True, 'trialN': 36, 'loaded': True, 'loadedTime': 2813, 'positionName': 'CENTER', 'positionCoords': [1074.5, 514.5]}]",Rate how much you want to eat this food from 0 (least) to 10 (most).,61572.0,1669830948649,mango,1551.7999999523163,True,9.57,63123.799999952316,1551.7999999523163,True,HRV,HRV_0160,2022-11-30 17:56:22
37,"[{'imgObject': {}, 'id': 'roastedpotatoes', 'src': '/static/foodstim60/roastedpotatoes.jpg', 'key': 'NaN', 'origWidth': 409, 'origHeight': 410, 'width': 409, 'height': 410, 'widthPercent': 0.8, 'rescaleHeight': True, 'trialN': 37, 'loaded': True, 'loadedTime': 2813.7999999523163, 'positionName': 'CENTER', 'positionCoords': [1075.5, 515]}]",Rate how much you want to eat this food from 0 (least) to 10 (most).,63124.5,1669830950201,roastedpotatoes,2778.2999999523163,True,8.540000000000001,65902.79999995232,2778.2999999523163,True,HRV,HRV_0160,2022-11-30 17:56:22
38,"[{'imgObject': {}, 'id': 'luckycharms', 'src': '/static/foodstim60/luckycharms.jpg', 'key': 'NaN', 'origWidth': 410, 'origHeight': 409, 'width': 410, 'height': 409, 'widthPercent': 0.8, 'rescaleHeight': True, 'trialN': 38, 'loaded': True, 'loadedTime': 2814.600000023842, 'positionName': 'CENTER', 'positionCoords': [1075, 515.5]}]",Rate how much you want to eat this food from 0 (least) to 10 (most).,65903.60000002384,1669830952980,luckycharms,1090.6000000238419,True,6.15,66994.20000004768,1090.6000000238419,True,HRV,HRV_0160,2022-11-30 17:56:22
39,"[{'imgObject': {}, 'id': 'mashed potato', 'src': '/static/foodstim60/mashed potato.jpg', 'key': 'NaN', 'origWidth': 409, 'origHeight': 409, 'width': 409, 'height': 409, 'widthPercent': 0.8, 'rescaleHeight': True, 'trialN': 39, 'loaded': True, 'loadedTime': 2815.399999976158, 'positionName': 'CENTER', 'positionCoords': [1075.5, 515.5]}]",Rate how much you want to eat this food from 0 (least) to 10 (most).,66994.89999997616,1669830954072,mashed potato,1371.6000000238419,True,2.09,68366.5,1371.6000000238419,True,HRV,HRV_0160,2022-11-30 17:56:22
40,"[{'imgObject': {}, 'id': 'froot loops w milk', 'src': '/static/foodstim60/froot loops w milk.jpg', 'key': 'NaN', 'origWidth': 410, 'origHeight': 410, 'width': 410, 'height': 410, 'widthPercent': 0.8, 'rescaleHeight': True, 'trialN': 40, 'loaded': True, 'loadedTime': 2816.2000000476837, 'positionName': 'CENTER', 'positionCoords': [1075, 515]}]",Rate how much you want to eat this food from 0 (least) to 10 (most).,68367.20000004768,1669830955444,froot loops w milk,921.7999999523163,True,2.71,69289.0,921.7999999523163,True,HRV,HRV_0160,2022-11-30 17:56:22
41,"[{'imgObject': {}, 'id': 'avocado', 'src': '/static/foodstim60/avocado.jpg', 'key': 'NaN', 'origWidth': 409, 'origHeight': 409, 'width': 409, 'height': 409, 'widthPercent': 0.8, 'rescaleHeight': True, 'trialN': 41, 'loaded': True, 'loadedTime': 2817.100000023842, 'positionName': 'CENTER', 'positionCoords': [1075.5, 515.5]}]",Rate how much you want to eat this food from 0 (least) to 10 (most).,69290.0,1669830956367,avocado,1236.2999999523163,True,2.22,70526.29999995232,1236.2999999523163,True,HRV,HRV_0160,2022-11-30 17:56:22
42,"[{'imgObject': {}, 'id': 'eggs', 'src': '/static/foodstim60/eggs.jpg', 'key': 'NaN', 'origWidth': 409, 'origHeight': 409, 'width': 409, 'height': 409, 'widthPercent': 0.8, 'rescaleHeight': True, 'trialN': 42, 'loaded': True, 'loadedTime': 2817.7999999523163, 'positionName': 'CENTER', 'positionCoords': [1075.5, 515.5]}]",Rate how much you want to eat this food from 0 (least) to 10 (most).,70527.10000002384,1669830957604,eggs,1282.1999999284744,True,0.8200000000000001,71809.29999995232,1282.1999999284744,True,HRV,HRV_0160,2022-11-30 17:56:22
43,"[{'imgObject': {}, 'id': 'chicken nuggets2', 'src': '/static/foodstim60/chicken nuggets2.jpg', 'key': 'NaN', 'origWidth': 410, 'origHeight': 409, 'width': 410, 'height': 409, 'widthPercent': 0.8, 'rescaleHeight': True, 'trialN': 43, 'loaded': True, 'loadedTime': 2818.399999976158, 'positionName': 'CENTER', 'positionCoords': [1075, 515.5]}]",Rate how much you want to eat this food from 0 (least) to 10 (most).,71810.39999997616,1669830958887,chicken nuggets2,1652.2000000476837,True,3.67,73462.60000002384,1652.2000000476837,True,HRV,HRV_0160,2022-11-30 17:56:22
44,"[{'imgObject': {}, 'id': 'chickenfingers', 'src': '/static/foodstim60/chickenfingers.jpg', 'key': 'NaN', 'origWidth': 410, 'origHeight': 410, 'width': 410, 'height': 410, 'widthPercent': 0.8, 'rescaleHeight': True, 'trialN': 44, 'loaded': True, 'loadedTime': 2819.2000000476837, 'positionName': 'CENTER', 'positionCoords': [1075, 515]}]",Rate how much you want to eat this food from 0 (least) to 10 (most).,73463.60000002384,1669830960540,chickenfingers,1135.3999999761581,True,2.21,74599.0,1135.3999999761581,True,HRV,HRV_0160,2022-11-30 17:56:22
45,"[{'imgObject': {}, 'id': 'seaweed', 'src': '/static/foodstim60/seaweed.jpg', 'key': 'NaN', 'origWidth': 410, 'origHeight': 410, 'width': 410, 'height': 410, 'widthPercent': 0.8, 'rescaleHeight': True, 'trialN': 45, 'loaded': True, 'loadedTime': 2819.7999999523163, 'positionName': 'CENTER', 'positionCoords': [1075, 515]}]",Rate how much you want to eat this food from 0 (least) to 10 (most).,74599.79999995232,1669830961677,seaweed,1236.9000000953674,True,8.28,75836.70000004768,1236.9000000953674,True,HRV,HRV_0160,2022-11-30 17:56:22
46,"[{'imgObject': {}, 'id': 'banana', 'src': '/static/foodstim60/banana.jpg', 'key': 'NaN', 'origWidth': 410, 'origHeight': 410, 'width': 410, 'height': 410, 'widthPercent': 0.8, 'rescaleHeight': True, 'trialN': 46, 'loaded': True, 'loadedTime': 2820.600000023842, 'positionName': 'CENTER', 'positionCoords': [1075, 515]}]",Rate how much you want to eat this food from 0 (least) to 10 (most).,75837.60000002384,1669830962914,banana,1089.8999999761581,True,6.7,76927.5,1089.8999999761581,True,HRV,HRV_0160,2022-11-30 17:56:22
47,"[{'imgObject': {}, 'id': 'granola w milk', 'src': '/static/foodstim60/granola w milk.jpg', 'key': 'NaN', 'origWidth': 410, 'origHeight': 410, 'width': 410, 'height': 410, 'widthPercent': 0.8, 'rescaleHeight': True, 'trialN': 47, 'loaded': True, 'loadedTime': 2821.100000023842, 'positionName': 'CENTER', 'positionCoords': [1075, 515]}]",Rate how much you want to eat this food from 0 (least) to 10 (most).,76928.29999995232,1669830964005,granola w milk,1180.9000000953674,True,3.89,78109.20000004768,1180.9000000953674,True,HRV,HRV_0160,2022-11-30 17:56:22
48,"[{'imgObject': {}, 'id': 'sushi w_condiments', 'src': '/static/foodstim60/sushi w_condiments.jpg', 'key': 'NaN', 'origWidth': 410, 'origHeight': 410, 'width': 410, 'height': 410, 'widthPercent': 0.8, 'rescaleHeight': True, 'trialN': 48, 'loaded': True, 'loadedTime': 2821.7999999523163, 'positionName': 'CENTER', 'positionCoords': [1075, 515]}]",Rate how much you want to eat this food from 0 (least) to 10 (most).,78110.20000004768,1669830965187,sushi w_condiments,1024.3999999761581,True,2.81,79134.60000002384,1024.3999999761581,True,HRV,HRV_0160,2022-11-30 17:56:22
49,"[{'imgObject': {}, 'id': 'bagel and cc', 'src': '/static/foodstim60/bagel and cc.jpg', 'key': 'NaN', 'origWidth': 410, 'origHeight': 410, 'width': 410, 'height': 410, 'widthPercent': 0.8, 'rescaleHeight': True, 'trialN': 49, 'loaded': True, 'loadedTime': 2822.5, 'positionName': 'CENTER', 'positionCoords': [1075, 515]}]",Rate how much you want to eat this food from 0 (least) to 10 (most).,79135.20000004768,1669830966212,bagel and cc,1629.1999999284744,True,9.57,80764.39999997616,1629.1999999284744,True,HRV,HRV_0160,2022-11-30 17:56:22
50,"[{'imgObject': {}, 'id': 'turkeysandwich', 'src': '/static/foodstim60/turkeysandwich.jpg', 'key': 'NaN', 'origWidth': 409, 'origHeight': 409, 'width': 409, 'height': 409, 'widthPercent': 0.8, 'rescaleHeight': True, 'trialN': 50, 'loaded': True, 'loadedTime': 2823, 'positionName': 'CENTER', 'positionCoords': [1075.5, 515.5]}]",Rate how much you want to eat this food from 0 (least) to 10 (most).,80765.20000004768,1669830967842,turkeysandwich,1472.5,True,5.5,82237.70000004768,1472.5,True,HRV,HRV_0160,2022-11-30 17:56:22
51,"[{'imgObject': {}, 'id': 'cheerios', 'src': '/static/foodstim60/cheerios.jpg', 'key': 'NaN', 'origWidth': 409, 'origHeight': 410, 'width': 409, 'height': 410, 'widthPercent': 0.8, 'rescaleHeight': True, 'trialN': 51, 'loaded': True, 'loadedTime': 2823.7000000476837, 'positionName': 'CENTER', 'positionCoords': [1075.5, 515]}]",Rate how much you want to eat this food from 0 (least) to 10 (most).,82238.29999995232,1669830969315,cheerios,1023.5,True,3.71,83261.79999995232,1023.5,True,HRV,HRV_0160,2022-11-30 17:56:22
52,"[{'imgObject': {}, 'id': 'popsicles', 'src': '/static/foodstim60/popsicles.jpg', 'key': 'NaN', 'origWidth': 410, 'origHeight': 410, 'width': 410, 'height': 410, 'widthPercent': 0.8, 'rescaleHeight': True, 'trialN': 52, 'loaded': True, 'loadedTime': 2824.2000000476837, 'positionName': 'CENTER', 'positionCoords': [1075, 515]}]",Rate how much you want to eat this food from 0 (least) to 10 (most).,83262.60000002384,1669830970340,popsicles,1405.6999999284744,True,0.91,84668.29999995232,1405.6999999284744,True,HRV,HRV_0160,2022-11-30 17:56:22
53,"[{'imgObject': {}, 'id': 'Grapes', 'src': '/static/foodstim60/Grapes.jpg', 'key': 'NaN', 'origWidth': 411, 'origHeight': 411, 'width': 411, 'height': 411, 'widthPercent': 0.8, 'rescaleHeight': True, 'trialN': 53, 'loaded': True, 'loadedTime': 2824.7999999523163, 'positionName': 'CENTER', 'positionCoords': [1074.5, 514.5]}]",Rate how much you want to eat this food from 0 (least) to 10 (most).,84668.89999997616,1669830971746,Grapes,1516.8000000715256,True,7.09,86185.70000004768,1516.8000000715256,True,HRV,HRV_0160,2022-11-30 17:56:22
54,"[{'imgObject': {}, 'id': 'blueberries', 'src': '/static/foodstim60/blueberries.jpg', 'key': 'NaN', 'origWidth': 411, 'origHeight': 411, 'width': 411, 'height': 411, 'widthPercent': 0.8, 'rescaleHeight': True, 'trialN': 54, 'loaded': True, 'loadedTime': 2825.2999999523163, 'positionName': 'CENTER', 'positionCoords': [1074.5, 514.5]}]",Rate how much you want to eat this food from 0 (least) to 10 (most).,86186.39999997616,1669830973263,blueberries,1282.3999999761581,True,5.79,87468.79999995232,1282.3999999761581,True,HRV,HRV_0160,2022-11-30 17:56:22
55,"[{'imgObject': {}, 'id': 'raisin bran w milk', 'src': '/static/foodstim60/raisin bran w milk.jpg', 'key': 'NaN', 'origWidth': 411, 'origHeight': 411, 'width': 411, 'height': 411, 'widthPercent': 0.8, 'rescaleHeight': True, 'trialN': 55, 'loaded': True, 'loadedTime': 2825.7999999523163, 'positionName': 'CENTER', 'positionCoords': [1074.5, 514.5]}]",Rate how much you want to eat this food from 0 (least) to 10 (most).,87469.79999995232,1669830974547,raisin bran w milk,1000.5,True,3.35,88470.29999995232,1000.5,True,HRV,HRV_0160,2022-11-30 17:56:22
56,"[{'imgObject': {}, 'id': 'baked potato', 'src': '/static/foodstim60/baked potato.jpg', 'key': 'NaN', 'origWidth': 409, 'origHeight': 410, 'width': 409, 'height': 410, 'widthPercent': 0.8, 'rescaleHeight': True, 'trialN': 56, 'loaded': True, 'loadedTime': 2828.2999999523163, 'positionName': 'CENTER', 'positionCoords': [1075.5, 515]}]",Rate how much you want to eat this food from 0 (least) to 10 (most).,88471.0,1669830975548,baked potato,1652.5,True,2.93,90123.5,1652.5,True,HRV,HRV_0160,2022-11-30 17:56:22
57,"[{'imgObject': {}, 'id': 'corn cob', 'src': '/static/foodstim60/corn cob.jpg', 'key': 'NaN', 'origWidth': 411, 'origHeight': 411, 'width': 411, 'height': 411, 'widthPercent': 0.8, 'rescaleHeight': True, 'trialN': 57, 'loaded': True, 'loadedTime': 2829, 'positionName': 'CENTER', 'positionCoords': [1074.5, 514.5]}]",Rate how much you want to eat this food from 0 (least) to 10 (most).,90124.20000004768,1669830977201,corn cob,1416.3999999761581,True,9.05,91540.60000002384,1416.3999999761581,True,HRV,HRV_0160,2022-11-30 17:56:22
58,"[{'imgObject': {}, 'id': 'blackbeanswithrice', 'src': '/static/foodstim60/blackbeanswithrice.jpg', 'key': 'NaN', 'origWidth': 410, 'origHeight': 410, 'width': 410, 'height': 410, 'widthPercent': 0.8, 'rescaleHeight': True, 'trialN': 58, 'loaded': True, 'loadedTime': 2832.5, 'positionName': 'CENTER', 'positionCoords': [1075, 515]}]",Rate how much you want to eat this food from 0 (least) to 10 (most).,91541.39999997616,1669830978618,blackbeanswithrice,1878.6000000238419,True,1.47,93420.0,1878.6000000238419,True,HRV,HRV_0160,2022-11-30 17:56:22
59,"[{'imgObject': {}, 'id': 'cherries', 'src': '/static/foodstim60/cherries.jpg', 'key': 'NaN', 'origWidth': 410, 'origHeight': 411, 'width': 410, 'height': 411, 'widthPercent': 0.8, 'rescaleHeight': True, 'trialN': 59, 'loaded': True, 'loadedTime': 2833.600000023842, 'positionName': 'CENTER', 'positionCoords': [1075, 514.5]}]",Rate how much you want to eat this food from 0 (least) to 10 (most).,93421.39999997616,1669830980498,cherries,1506.5,True,0.32,94927.89999997616,1506.5,True,HRV,HRV_0160,2022-11-30 17:56:22
