trialN,stimuli,trialStartTime,trialStartTime_UNIX,stimulus1,stimulus2,stimulus1Bid,stimulus2Bid,delta,trialEvents,selected,rt,rt_UNIX,rt_perfnow,receivedResponse,rsp,trialEndTime,trialDuration,trialEndTime_UNIX,trialDuration_UNIX,exp,subjectId,date
0,"[{'imgObject': {}, 'id': 'froot loops w milk', 'src': '/static/foodstim60/froot loops w milk.jpg', 'key': 'u', 'origWidth': 410, 'origHeight': 410, 'width': 410, 'height': 410, 'widthPercent': 0.45, 'rescaleHeight': False, 'trialN': 0, 'loaded': True, 'loadedTime': 2576.7999999523163, 'positionName': 'LEFT', 'positionCoords': [281.2, 233], 'bid': 0.47}, {'imgObject': {}, 'id': 'cherry tomato', 'src': '/static/foodstim60/cherry tomato.jpg', 'key': 'i', 'origWidth': 410, 'origHeight': 410, 'width': 410, 'height': 410, 'widthPercent': 0.45, 'rescaleHeight': False, 'trialN': 0, 'loaded': True, 'loadedTime': 2431.399999976158, 'positionName': 'RIGHT', 'positionCoords': [748.8, 233], 'bid': 0.31}]",3412.5999999046326,1669835138716,froot loops w milk,cherry tomato,0.47,0.31,-0.15999999999999998,"[{'event': 'fullscreenchange', 'details': 'fullscreenexit', 'performance time': 3448.2999999523163, 'date time': 1669835138752}]",cherry tomato,2394.8000000715256,2402,2402.5,True,i,6317.899999976158,2905.3000000715256,1669835141621,2905,HRV,HRV_0234,2022-11-30 19:09:41
1,"[{'imgObject': {}, 'id': 'sushi w_condiments', 'src': '/static/foodstim60/sushi w_condiments.jpg', 'key': 'u', 'origWidth': 410, 'origHeight': 410, 'width': 410, 'height': 410, 'widthPercent': 0.45, 'rescaleHeight': False, 'trialN': 1, 'loaded': True, 'loadedTime': 6321.199999928474, 'positionName': 'LEFT', 'positionCoords': [247.12, 191], 'bid': 7.49}, {'imgObject': {}, 'id': 'rigatoni and sauce', 'src': '/static/foodstim60/rigatoni and sauce.jpg', 'key': 'i', 'origWidth': 410, 'origHeight': 411, 'width': 410, 'height': 411, 'widthPercent': 0.45, 'rescaleHeight': False, 'trialN': 1, 'loaded': True, 'loadedTime': 6322.5, 'positionName': 'RIGHT', 'positionCoords': [711.88, 190.5], 'bid': 1.92}]",6318.899999976158,1669835141622,sushi w_condiments,rigatoni and sauce,7.49,1.92,-5.57,,sushi w_condiments,1063.5,1072,1071.6999999284744,True,u,7893.199999928474,1574.2999999523163,1669835143196,1574,HRV,HRV_0234,2022-11-30 19:09:41
2,"[{'imgObject': {}, 'id': 'orange slices', 'src': '/static/foodstim60/orange slices.jpg', 'key': 'u', 'origWidth': 409, 'origHeight': 410, 'width': 409, 'height': 410, 'widthPercent': 0.45, 'rescaleHeight': False, 'trialN': 2, 'loaded': True, 'loadedTime': 7905.5, 'positionName': 'LEFT', 'positionCoords': [248.12, 191], 'bid': 0.46}, {'imgObject': {}, 'id': 'bagel plain', 'src': '/static/foodstim60/bagel plain.jpg', 'key': 'i', 'origWidth': 410, 'origHeight': 410, 'width': 410, 'height': 410, 'widthPercent': 0.45, 'rescaleHeight': False, 'trialN': 2, 'loaded': True, 'loadedTime': 7905.899999976158, 'positionName': 'RIGHT', 'positionCoords': [711.88, 191], 'bid': 3.5}]",7895.099999904633,1669835143198,orange slices,bagel plain,0.46,3.5,3.04,,bagel plain,724.8000000715256,732,731.1000000238419,True,i,9128.699999928474,1233.6000000238419,1669835144432,1234,HRV,HRV_0234,2022-11-30 19:09:41
3,"[{'imgObject': {}, 'id': 'luckycharms', 'src': '/static/foodstim60/luckycharms.jpg', 'key': 'u', 'origWidth': 410, 'origHeight': 409, 'width': 410, 'height': 409, 'widthPercent': 0.45, 'rescaleHeight': False, 'trialN': 3, 'loaded': True, 'loadedTime': 9131.599999904633, 'positionName': 'LEFT', 'positionCoords': [247.12, 191.5], 'bid': 0.25}, {'imgObject': {}, 'id': 'raspberries', 'src': '/static/foodstim60/raspberries.jpg', 'key': 'i', 'origWidth': 411, 'origHeight': 411, 'width': 411, 'height': 411, 'widthPercent': 0.45, 'rescaleHeight': False, 'trialN': 3, 'loaded': True, 'loadedTime': 9132, 'positionName': 'RIGHT', 'positionCoords': [711.88, 190.5], 'bid': 0.6900000000000001}]",9129.299999952316,1669835144433,luckycharms,raspberries,0.25,0.6900000000000001,0.44000000000000006,,raspberries,1110.7000000476837,1117,1117.6000000238419,True,i,10747.299999952316,1618.0,1669835146051,1618,HRV,HRV_0234,2022-11-30 19:09:41
4,"[{'imgObject': {}, 'id': 'cherries', 'src': '/static/foodstim60/cherries.jpg', 'key': 'u', 'origWidth': 410, 'origHeight': 411, 'width': 410, 'height': 411, 'widthPercent': 0.45, 'rescaleHeight': False, 'trialN': 4, 'loaded': True, 'loadedTime': 10750.399999976158, 'positionName': 'LEFT', 'positionCoords': [247.12, 190.5], 'bid': 0.4}, {'imgObject': {}, 'id': 'raisin bran w milk', 'src': '/static/foodstim60/raisin bran w milk.jpg', 'key': 'i', 'origWidth': 411, 'origHeight': 411, 'width': 411, 'height': 411, 'widthPercent': 0.45, 'rescaleHeight': False, 'trialN': 4, 'loaded': True, 'loadedTime': 10751.099999904633, 'positionName': 'RIGHT', 'positionCoords': [711.88, 190.5], 'bid': 0.24}]",10748.199999928474,1669835146052,cherries,raisin bran w milk,0.4,0.24,-0.16000000000000003,,raisin bran w milk,1269,1276,1276.6000000238419,True,i,12529.299999952316,1781.1000000238419,1669835147833,1781,HRV,HRV_0234,2022-11-30 19:09:41
5,"[{'imgObject': {}, 'id': 'hashbrowns', 'src': '/static/foodstim60/hashbrowns.jpg', 'key': 'u', 'origWidth': 411, 'origHeight': 410, 'width': 411, 'height': 410, 'widthPercent': 0.45, 'rescaleHeight': False, 'trialN': 5, 'loaded': True, 'loadedTime': 12532.299999952316, 'positionName': 'LEFT', 'positionCoords': [246.12, 191], 'bid': 0.49}, {'imgObject': {}, 'id': 'strawberries', 'src': '/static/foodstim60/strawberries.jpg', 'key': 'i', 'origWidth': 410, 'origHeight': 410, 'width': 410, 'height': 410, 'widthPercent': 0.45, 'rescaleHeight': False, 'trialN': 5, 'loaded': True, 'loadedTime': 12532.599999904633, 'positionName': 'RIGHT', 'positionCoords': [711.88, 191], 'bid': 0.33}]",12530.199999928474,1669835147834,hashbrowns,strawberries,0.49,0.33,-0.15999999999999998,,hashbrowns,1669.7000000476837,1676,1676.8000000715256,True,u,14708.5,2178.3000000715256,1669835150012,2178,HRV,HRV_0234,2022-11-30 19:09:41
6,"[{'imgObject': {}, 'id': 'eggs', 'src': '/static/foodstim60/eggs.jpg', 'key': 'u', 'origWidth': 409, 'origHeight': 409, 'width': 409, 'height': 409, 'widthPercent': 0.45, 'rescaleHeight': False, 'trialN': 6, 'loaded': True, 'loadedTime': 14711.5, 'positionName': 'LEFT', 'positionCoords': [248.12, 191.5], 'bid': 2.53}, {'imgObject': {}, 'id': 'turkey sandwich', 'src': '/static/foodstim60/turkey sandwich.jpg', 'key': 'i', 'origWidth': 409, 'origHeight': 409, 'width': 409, 'height': 409, 'widthPercent': 0.45, 'rescaleHeight': False, 'trialN': 6, 'loaded': True, 'loadedTime': 14711.899999976158, 'positionName': 'RIGHT', 'positionCoords': [711.88, 191.5], 'bid': 6.84}]",14709.199999928474,1669835150013,eggs,turkey sandwich,2.53,6.84,4.3100000000000005,,turkey sandwich,1043.3000000715256,1050,1050.3999999761581,True,i,16263.799999952316,1554.6000000238419,1669835151567,1554,HRV,HRV_0234,2022-11-30 19:09:41
7,"[{'imgObject': {}, 'id': 'turkey sandwich', 'src': '/static/foodstim60/turkey sandwich.jpg', 'key': 'u', 'origWidth': 409, 'origHeight': 409, 'width': 409, 'height': 409, 'widthPercent': 0.45, 'rescaleHeight': False, 'trialN': 7, 'loaded': True, 'loadedTime': 16266.799999952316, 'positionName': 'LEFT', 'positionCoords': [248.12, 191.5], 'bid': 6.84}, {'imgObject': {}, 'id': 'apple slices', 'src': '/static/foodstim60/apple slices.jpg', 'key': 'i', 'origWidth': 409, 'origHeight': 410, 'width': 409, 'height': 410, 'widthPercent': 0.45, 'rescaleHeight': False, 'trialN': 7, 'loaded': True, 'loadedTime': 16267.199999928474, 'positionName': 'RIGHT', 'positionCoords': [711.88, 191], 'bid': 0.49}]",16264.699999928474,1669835151568,turkey sandwich,apple slices,6.84,0.49,-6.35,,turkey sandwich,725.1000000238419,729,729.0,True,u,17498.099999904633,1233.3999999761581,1669835152801,1233,HRV,HRV_0234,2022-11-30 19:09:41
8,"[{'imgObject': {}, 'id': 'baked potato', 'src': '/static/foodstim60/baked potato.jpg', 'key': 'u', 'origWidth': 409, 'origHeight': 410, 'width': 409, 'height': 410, 'widthPercent': 0.45, 'rescaleHeight': False, 'trialN': 8, 'loaded': True, 'loadedTime': 17501, 'positionName': 'LEFT', 'positionCoords': [248.12, 191], 'bid': 0.59}, {'imgObject': {}, 'id': 'veggieswithdip', 'src': '/static/foodstim60/veggieswithdip.jpg', 'key': 'i', 'origWidth': 409, 'origHeight': 409, 'width': 409, 'height': 409, 'widthPercent': 0.45, 'rescaleHeight': False, 'trialN': 8, 'loaded': True, 'loadedTime': 17501.399999976158, 'positionName': 'RIGHT', 'positionCoords': [711.88, 191.5], 'bid': 1.67}]",17499.0,1669835152802,baked potato,veggieswithdip,0.59,1.67,1.08,,baked potato,796,803,803.0999999046326,True,u,18804.399999976158,1305.3999999761581,1669835154108,1306,HRV,HRV_0234,2022-11-30 19:09:41
9,"[{'imgObject': {}, 'id': 'eggsalad', 'src': '/static/foodstim60/eggsalad.jpg', 'key': 'u', 'origWidth': 410, 'origHeight': 409, 'width': 410, 'height': 409, 'widthPercent': 0.45, 'rescaleHeight': False, 'trialN': 9, 'loaded': True, 'loadedTime': 18806.099999904633, 'positionName': 'LEFT', 'positionCoords': [247.12, 191.5], 'bid': 1.89}, {'imgObject': {}, 'id': 'bagel and cc', 'src': '/static/foodstim60/bagel and cc.jpg', 'key': 'i', 'origWidth': 410, 'origHeight': 410, 'width': 410, 'height': 410, 'widthPercent': 0.45, 'rescaleHeight': False, 'trialN': 9, 'loaded': True, 'loadedTime': 18806.299999952316, 'positionName': 'RIGHT', 'positionCoords': [711.88, 191], 'bid': 2.23}]",18805.099999904633,1669835154108,eggsalad,bagel and cc,1.89,2.23,0.3400000000000001,,bagel and cc,1064.8000000715256,1073,1072.2000000476837,True,i,20381.899999976158,1576.8000000715256,1669835155685,1577,HRV,HRV_0234,2022-11-30 19:09:41
10,"[{'imgObject': {}, 'id': 'hashbrowns', 'src': '/static/foodstim60/hashbrowns.jpg', 'key': 'u', 'origWidth': 411, 'origHeight': 410, 'width': 411, 'height': 410, 'widthPercent': 0.45, 'rescaleHeight': False, 'trialN': 10, 'loaded': True, 'loadedTime': 20384.599999904633, 'positionName': 'LEFT', 'positionCoords': [246.12, 191], 'bid': 0.49}, {'imgObject': {}, 'id': 'kiwi', 'src': '/static/foodstim60/kiwi.jpg', 'key': 'i', 'origWidth': 410, 'origHeight': 410, 'width': 410, 'height': 410, 'widthPercent': 0.45, 'rescaleHeight': False, 'trialN': 10, 'loaded': True, 'loadedTime': 20385.399999976158, 'positionName': 'RIGHT', 'positionCoords': [711.88, 191], 'bid': 0.6900000000000001}]",20382.5,1669835155686,hashbrowns,kiwi,0.49,0.6900000000000001,0.20000000000000007,,hashbrowns,996.2999999523163,1003,1003.3999999761581,True,u,21889.599999904633,1507.0999999046326,1669835157193,1507,HRV,HRV_0234,2022-11-30 19:09:41
11,"[{'imgObject': {}, 'id': 'fried eggs', 'src': '/static/foodstim60/fried eggs.jpg', 'key': 'u', 'origWidth': 410, 'origHeight': 410, 'width': 410, 'height': 410, 'widthPercent': 0.45, 'rescaleHeight': False, 'trialN': 11, 'loaded': True, 'loadedTime': 21892.799999952316, 'positionName': 'LEFT', 'positionCoords': [247.12, 191], 'bid': 4.24}, {'imgObject': {}, 'id': 'salmon', 'src': '/static/foodstim60/salmon.jpg', 'key': 'i', 'origWidth': 410, 'origHeight': 409, 'width': 410, 'height': 409, 'widthPercent': 0.45, 'rescaleHeight': False, 'trialN': 11, 'loaded': True, 'loadedTime': 21893.5, 'positionName': 'RIGHT', 'positionCoords': [711.88, 191.5], 'bid': 8.11}]",21890.5,1669835157194,fried eggs,salmon,4.24,8.11,3.869999999999999,,fried eggs,769.5,776,776.5999999046326,True,u,23171.0,1280.5,1669835158474,1280,HRV,HRV_0234,2022-11-30 19:09:41
12,"[{'imgObject': {}, 'id': 'hotdog w must', 'src': '/static/foodstim60/hotdog w must.jpg', 'key': 'u', 'origWidth': 409, 'origHeight': 409, 'width': 409, 'height': 409, 'widthPercent': 0.45, 'rescaleHeight': False, 'trialN': 12, 'loaded': True, 'loadedTime': 23174.099999904633, 'positionName': 'LEFT', 'positionCoords': [248.12, 191.5], 'bid': 0.87}, {'imgObject': {}, 'id': 'raspberries', 'src': '/static/foodstim60/raspberries.jpg', 'key': 'i', 'origWidth': 411, 'origHeight': 411, 'width': 411, 'height': 411, 'widthPercent': 0.45, 'rescaleHeight': False, 'trialN': 12, 'loaded': True, 'loadedTime': 23174.599999904633, 'positionName': 'RIGHT', 'positionCoords': [711.88, 190.5], 'bid': 0.6900000000000001}]",23171.699999928474,1669835158475,hotdog w must,raspberries,0.87,0.6900000000000001,-0.17999999999999994,,raspberries,1108.1000000238419,1114,1113.6000000238419,True,i,24789.0,1617.3000000715256,1669835160092,1617,HRV,HRV_0234,2022-11-30 19:09:41
13,"[{'imgObject': {}, 'id': 'turkey sandwich', 'src': '/static/foodstim60/turkey sandwich.jpg', 'key': 'u', 'origWidth': 409, 'origHeight': 409, 'width': 409, 'height': 409, 'widthPercent': 0.45, 'rescaleHeight': False, 'trialN': 13, 'loaded': True, 'loadedTime': 24791.5, 'positionName': 'LEFT', 'positionCoords': [248.12, 191.5], 'bid': 6.84}, {'imgObject': {}, 'id': 'tacos', 'src': '/static/foodstim60/tacos.jpg', 'key': 'i', 'origWidth': 411, 'origHeight': 411, 'width': 411, 'height': 411, 'widthPercent': 0.45, 'rescaleHeight': False, 'trialN': 13, 'loaded': True, 'loadedTime': 24791.899999976158, 'positionName': 'RIGHT', 'positionCoords': [711.88, 190.5], 'bid': 6.16}]",24789.5,1669835160093,turkey sandwich,tacos,6.84,6.16,-0.6799999999999997,,turkey sandwich,1020.2999999523163,1027,1027.0999999046326,True,u,26321.0,1531.5,1669835161624,1531,HRV,HRV_0234,2022-11-30 19:09:41
14,"[{'imgObject': {}, 'id': 'shreddedwheatwithmilk', 'src': '/static/foodstim60/shreddedwheatwithmilk.jpg', 'key': 'u', 'origWidth': 410, 'origHeight': 410, 'width': 410, 'height': 410, 'widthPercent': 0.45, 'rescaleHeight': False, 'trialN': 14, 'loaded': True, 'loadedTime': 26323.699999928474, 'positionName': 'LEFT', 'positionCoords': [247.12, 191], 'bid': 0.58}, {'imgObject': {}, 'id': 'mashed potato', 'src': '/static/foodstim60/mashed potato.jpg', 'key': 'i', 'origWidth': 409, 'origHeight': 409, 'width': 409, 'height': 409, 'widthPercent': 0.45, 'rescaleHeight': False, 'trialN': 14, 'loaded': True, 'loadedTime': 26324.099999904633, 'positionName': 'RIGHT', 'positionCoords': [711.88, 191.5], 'bid': 0.65}]",26321.699999928474,1669835161625,shreddedwheatwithmilk,mashed potato,0.58,0.65,0.07000000000000006,,mashed potato,1468.3999999761581,1475,1475.2000000476837,True,i,28301.399999976158,1979.7000000476837,1669835163605,1980,HRV,HRV_0234,2022-11-30 19:09:41
15,"[{'imgObject': {}, 'id': 'granola w milk', 'src': '/static/foodstim60/granola w milk.jpg', 'key': 'u', 'origWidth': 410, 'origHeight': 410, 'width': 410, 'height': 410, 'widthPercent': 0.45, 'rescaleHeight': False, 'trialN': 15, 'loaded': True, 'loadedTime': 28302.399999976158, 'positionName': 'LEFT', 'positionCoords': [247.12, 191], 'bid': 0.5}, {'imgObject': {}, 'id': 'veggieswithdip', 'src': '/static/foodstim60/veggieswithdip.jpg', 'key': 'i', 'origWidth': 409, 'origHeight': 409, 'width': 409, 'height': 409, 'widthPercent': 0.45, 'rescaleHeight': False, 'trialN': 15, 'loaded': True, 'loadedTime': 28302.699999928474, 'positionName': 'RIGHT', 'positionCoords': [711.88, 191.5], 'bid': 1.67}]",28301.799999952316,1669835163605,granola w milk,veggieswithdip,0.5,1.67,1.17,,veggieswithdip,950.7000000476837,958,957.7000000476837,True,i,29763.799999952316,1462.0,1669835165067,1462,HRV,HRV_0234,2022-11-30 19:09:41
16,"[{'imgObject': {}, 'id': 'mac & cheese', 'src': '/static/foodstim60/mac & cheese.jpg', 'key': 'u', 'origWidth': 410, 'origHeight': 410, 'width': 410, 'height': 410, 'widthPercent': 0.45, 'rescaleHeight': False, 'trialN': 16, 'loaded': True, 'loadedTime': 29766.5, 'positionName': 'LEFT', 'positionCoords': [247.12, 191], 'bid': 6.51}, {'imgObject': {}, 'id': 'seaweed', 'src': '/static/foodstim60/seaweed.jpg', 'key': 'i', 'origWidth': 410, 'origHeight': 410, 'width': 410, 'height': 410, 'widthPercent': 0.45, 'rescaleHeight': False, 'trialN': 16, 'loaded': True, 'loadedTime': 29767.199999928474, 'positionName': 'RIGHT', 'positionCoords': [711.88, 191], 'bid': 1.54}]",29764.5,1669835165068,mac & cheese,seaweed,6.51,1.54,-4.97,,mac & cheese,905.5999999046326,912,912.3999999761581,True,u,31182.0,1417.5,1669835166485,1417,HRV,HRV_0234,2022-11-30 19:09:41
17,"[{'imgObject': {}, 'id': 'mac & cheese', 'src': '/static/foodstim60/mac & cheese.jpg', 'key': 'u', 'origWidth': 410, 'origHeight': 410, 'width': 410, 'height': 410, 'widthPercent': 0.45, 'rescaleHeight': False, 'trialN': 17, 'loaded': True, 'loadedTime': 31185, 'positionName': 'LEFT', 'positionCoords': [247.12, 191], 'bid': 6.51}, {'imgObject': {}, 'id': 'tacos', 'src': '/static/foodstim60/tacos.jpg', 'key': 'i', 'origWidth': 411, 'origHeight': 411, 'width': 411, 'height': 411, 'widthPercent': 0.45, 'rescaleHeight': False, 'trialN': 17, 'loaded': True, 'loadedTime': 31185.299999952316, 'positionName': 'RIGHT', 'positionCoords': [711.88, 190.5], 'bid': 6.16}]",31182.699999928474,1669835166486,mac & cheese,tacos,6.51,6.16,-0.34999999999999964,,tacos,747.2000000476837,754,754.1000000238419,True,i,32437.5,1254.8000000715256,1669835167741,1255,HRV,HRV_0234,2022-11-30 19:09:41
18,"[{'imgObject': {}, 'id': 'mashed potato', 'src': '/static/foodstim60/mashed potato.jpg', 'key': 'u', 'origWidth': 409, 'origHeight': 409, 'width': 409, 'height': 409, 'widthPercent': 0.45, 'rescaleHeight': False, 'trialN': 18, 'loaded': True, 'loadedTime': 32438.699999928474, 'positionName': 'LEFT', 'positionCoords': [248.12, 191.5], 'bid': 0.65}, {'imgObject': {}, 'id': 'fried eggs', 'src': '/static/foodstim60/fried eggs.jpg', 'key': 'i', 'origWidth': 410, 'origHeight': 410, 'width': 410, 'height': 410, 'widthPercent': 0.45, 'rescaleHeight': False, 'trialN': 18, 'loaded': True, 'loadedTime': 32438.799999952316, 'positionName': 'RIGHT', 'positionCoords': [711.88, 191], 'bid': 4.24}]",32437.799999952316,1669835167741,mashed potato,fried eggs,0.65,4.24,3.5900000000000003,,fried eggs,842.2999999523163,850,849.7000000476837,True,i,33791.0,1353.2000000476837,1669835169094,1353,HRV,HRV_0234,2022-11-30 19:09:41
19,"[{'imgObject': {}, 'id': 'hotdog w must', 'src': '/static/foodstim60/hotdog w must.jpg', 'key': 'u', 'origWidth': 409, 'origHeight': 409, 'width': 409, 'height': 409, 'widthPercent': 0.45, 'rescaleHeight': False, 'trialN': 19, 'loaded': True, 'loadedTime': 33793.799999952316, 'positionName': 'LEFT', 'positionCoords': [248.12, 191.5], 'bid': 0.87}, {'imgObject': {}, 'id': 'fruitsalad', 'src': '/static/foodstim60/fruitsalad.jpg', 'key': 'i', 'origWidth': 410, 'origHeight': 410, 'width': 410, 'height': 410, 'widthPercent': 0.45, 'rescaleHeight': False, 'trialN': 19, 'loaded': True, 'loadedTime': 33794.09999990463, 'positionName': 'RIGHT', 'positionCoords': [711.88, 191], 'bid': 0.5}]",33791.699999928474,1669835169095,hotdog w must,fruitsalad,0.87,0.5,-0.37,,hotdog w must,906.2000000476837,914,914.3000000715256,True,u,35209.5,1417.8000000715256,1669835170513,1418,HRV,HRV_0234,2022-11-30 19:09:41
20,"[{'imgObject': {}, 'id': 'salmon', 'src': '/static/foodstim60/salmon.jpg', 'key': 'u', 'origWidth': 410, 'origHeight': 409, 'width': 410, 'height': 409, 'widthPercent': 0.45, 'rescaleHeight': False, 'trialN': 20, 'loaded': True, 'loadedTime': 35212.199999928474, 'positionName': 'LEFT', 'positionCoords': [247.12, 191.5], 'bid': 8.11}, {'imgObject': {}, 'id': 'granola w milk', 'src': '/static/foodstim60/granola w milk.jpg', 'key': 'i', 'origWidth': 410, 'origHeight': 410, 'width': 410, 'height': 410, 'widthPercent': 0.45, 'rescaleHeight': False, 'trialN': 20, 'loaded': True, 'loadedTime': 35212.59999990463, 'positionName': 'RIGHT', 'positionCoords': [711.88, 191], 'bid': 0.5}]",35210.199999928474,1669835170513,salmon,granola w milk,8.11,0.5,-7.609999999999999,,salmon,634.8000000715256,643,642.7000000476837,True,u,36354.299999952316,1144.1000000238419,1669835171657,1144,HRV,HRV_0234,2022-11-30 19:09:41
21,"[{'imgObject': {}, 'id': 'steak', 'src': '/static/foodstim60/steak.jpg', 'key': 'u', 'origWidth': 410, 'origHeight': 410, 'width': 410, 'height': 410, 'widthPercent': 0.45, 'rescaleHeight': False, 'trialN': 21, 'loaded': True, 'loadedTime': 36357.199999928474, 'positionName': 'LEFT', 'positionCoords': [247.12, 191], 'bid': 9.57}, {'imgObject': {}, 'id': 'burger', 'src': '/static/foodstim60/burger.jpg', 'key': 'i', 'origWidth': 409, 'origHeight': 409, 'width': 409, 'height': 409, 'widthPercent': 0.45, 'rescaleHeight': False, 'trialN': 21, 'loaded': True, 'loadedTime': 36358.89999997616, 'positionName': 'RIGHT', 'positionCoords': [711.88, 191.5], 'bid': 8.99}]",36354.89999997616,1669835171658,steak,burger,9.57,8.99,-0.5800000000000001,,steak,570.1999999284744,578,577.5,True,u,37432.799999952316,1077.8999999761581,1669835172736,1078,HRV,HRV_0234,2022-11-30 19:09:41
22,"[{'imgObject': {}, 'id': 'salmon', 'src': '/static/foodstim60/salmon.jpg', 'key': 'u', 'origWidth': 410, 'origHeight': 409, 'width': 410, 'height': 409, 'widthPercent': 0.45, 'rescaleHeight': False, 'trialN': 22, 'loaded': True, 'loadedTime': 37435.5, 'positionName': 'LEFT', 'positionCoords': [247.12, 191.5], 'bid': 8.11}, {'imgObject': {}, 'id': 'mac & cheese', 'src': '/static/foodstim60/mac & cheese.jpg', 'key': 'i', 'origWidth': 410, 'origHeight': 410, 'width': 410, 'height': 410, 'widthPercent': 0.45, 'rescaleHeight': False, 'trialN': 22, 'loaded': True, 'loadedTime': 37435.89999997616, 'positionName': 'RIGHT', 'positionCoords': [711.88, 191], 'bid': 6.51}]",37433.59999990463,1669835172737,salmon,mac & cheese,8.11,6.51,-1.5999999999999996,,salmon,571.7000000476837,578,578.5,True,u,38516.299999952316,1082.7000000476837,1669835173820,1083,HRV,HRV_0234,2022-11-30 19:09:41
23,"[{'imgObject': {}, 'id': 'luckycharms', 'src': '/static/foodstim60/luckycharms.jpg', 'key': 'u', 'origWidth': 410, 'origHeight': 409, 'width': 410, 'height': 409, 'widthPercent': 0.45, 'rescaleHeight': False, 'trialN': 23, 'loaded': True, 'loadedTime': 38519.39999997616, 'positionName': 'LEFT', 'positionCoords': [247.12, 191.5], 'bid': 0.25}, {'imgObject': {}, 'id': 'edamame', 'src': '/static/foodstim60/edamame.jpg', 'key': 'i', 'origWidth': 409, 'origHeight': 410, 'width': 409, 'height': 410, 'widthPercent': 0.45, 'rescaleHeight': False, 'trialN': 23, 'loaded': True, 'loadedTime': 38519.89999997616, 'positionName': 'RIGHT', 'positionCoords': [711.88, 191], 'bid': 0.47}]",38517.0,1669835173820,luckycharms,edamame,0.25,0.47,0.21999999999999997,,edamame,703.0999999046326,710,710.0999999046326,True,i,39727.5,1210.5,1669835175031,1211,HRV,HRV_0234,2022-11-30 19:09:41
24,"[{'imgObject': {}, 'id': 'bagel and cc', 'src': '/static/foodstim60/bagel and cc.jpg', 'key': 'u', 'origWidth': 410, 'origHeight': 410, 'width': 410, 'height': 410, 'widthPercent': 0.45, 'rescaleHeight': False, 'trialN': 24, 'loaded': True, 'loadedTime': 39729.699999928474, 'positionName': 'LEFT', 'positionCoords': [247.12, 191], 'bid': 2.23}, {'imgObject': {}, 'id': 'rigatoni and sauce', 'src': '/static/foodstim60/rigatoni and sauce.jpg', 'key': 'i', 'origWidth': 410, 'origHeight': 411, 'width': 410, 'height': 411, 'widthPercent': 0.45, 'rescaleHeight': False, 'trialN': 24, 'loaded': True, 'loadedTime': 39729.89999997616, 'positionName': 'RIGHT', 'positionCoords': [711.88, 190.5], 'bid': 1.92}]",39727.89999997616,1669835175031,bagel and cc,rigatoni and sauce,2.23,1.92,-0.31000000000000005,,rigatoni and sauce,999.6999999284744,1008,1007.7999999523163,True,i,41236.199999928474,1508.2999999523163,1669835176539,1508,HRV,HRV_0234,2022-11-30 19:09:41
25,"[{'imgObject': {}, 'id': 'raisin bran w milk', 'src': '/static/foodstim60/raisin bran w milk.jpg', 'key': 'u', 'origWidth': 411, 'origHeight': 411, 'width': 411, 'height': 411, 'widthPercent': 0.45, 'rescaleHeight': False, 'trialN': 25, 'loaded': True, 'loadedTime': 41239.59999990463, 'positionName': 'LEFT', 'positionCoords': [246.12, 190.5], 'bid': 0.24}, {'imgObject': {}, 'id': 'kiwi', 'src': '/static/foodstim60/kiwi.jpg', 'key': 'i', 'origWidth': 410, 'origHeight': 410, 'width': 410, 'height': 410, 'widthPercent': 0.45, 'rescaleHeight': False, 'trialN': 25, 'loaded': True, 'loadedTime': 41240, 'positionName': 'RIGHT', 'positionCoords': [711.88, 191], 'bid': 0.6900000000000001}]",41236.89999997616,1669835176540,raisin bran w milk,kiwi,0.24,0.6900000000000001,0.45000000000000007,,raisin bran w milk,863.3999999761581,870,870.3999999761581,True,u,42610.89999997616,1374.0,1669835177914,1374,HRV,HRV_0234,2022-11-30 19:09:41
26,"[{'imgObject': {}, 'id': 'cheerios', 'src': '/static/foodstim60/cheerios.jpg', 'key': 'u', 'origWidth': 409, 'origHeight': 410, 'width': 409, 'height': 410, 'widthPercent': 0.45, 'rescaleHeight': False, 'trialN': 26, 'loaded': True, 'loadedTime': 42613.5, 'positionName': 'LEFT', 'positionCoords': [248.12, 191], 'bid': 0.5}, {'imgObject': {}, 'id': 'apple slices', 'src': '/static/foodstim60/apple slices.jpg', 'key': 'i', 'origWidth': 409, 'origHeight': 410, 'width': 409, 'height': 410, 'widthPercent': 0.45, 'rescaleHeight': False, 'trialN': 26, 'loaded': True, 'loadedTime': 42614.39999997616, 'positionName': 'RIGHT', 'positionCoords': [711.88, 191], 'bid': 0.49}]",42611.5,1669835177915,cheerios,apple slices,0.5,0.49,-0.010000000000000009,,cheerios,838.2999999523163,843,843.0,True,u,43957.5,1346.0,1669835179261,1346,HRV,HRV_0234,2022-11-30 19:09:41
27,"[{'imgObject': {}, 'id': 'apple slices', 'src': '/static/foodstim60/apple slices.jpg', 'key': 'u', 'origWidth': 409, 'origHeight': 410, 'width': 409, 'height': 410, 'widthPercent': 0.45, 'rescaleHeight': False, 'trialN': 27, 'loaded': True, 'loadedTime': 43960.299999952316, 'positionName': 'LEFT', 'positionCoords': [248.12, 191], 'bid': 0.49}, {'imgObject': {}, 'id': 'cherry tomato', 'src': '/static/foodstim60/cherry tomato.jpg', 'key': 'i', 'origWidth': 410, 'origHeight': 410, 'width': 410, 'height': 410, 'widthPercent': 0.45, 'rescaleHeight': False, 'trialN': 27, 'loaded': True, 'loadedTime': 43960.59999990463, 'positionName': 'RIGHT', 'positionCoords': [711.88, 191], 'bid': 0.31}]",43958.09999990463,1669835179261,apple slices,cherry tomato,0.49,0.31,-0.18,,apple slices,797.1000000238419,804,804.1000000238419,True,u,45265.0,1306.9000000953674,1669835180568,1307,HRV,HRV_0234,2022-11-30 19:09:41
28,"[{'imgObject': {}, 'id': 'fruitsalad', 'src': '/static/foodstim60/fruitsalad.jpg', 'key': 'u', 'origWidth': 410, 'origHeight': 410, 'width': 410, 'height': 410, 'widthPercent': 0.45, 'rescaleHeight': False, 'trialN': 28, 'loaded': True, 'loadedTime': 45268.5, 'positionName': 'LEFT', 'positionCoords': [247.12, 191], 'bid': 0.5}, {'imgObject': {}, 'id': 'sushi w_condiments', 'src': '/static/foodstim60/sushi w_condiments.jpg', 'key': 'i', 'origWidth': 410, 'origHeight': 410, 'width': 410, 'height': 410, 'widthPercent': 0.45, 'rescaleHeight': False, 'trialN': 28, 'loaded': True, 'loadedTime': 45268.89999997616, 'positionName': 'RIGHT', 'positionCoords': [711.88, 191], 'bid': 7.49}]",45265.699999928474,1669835180569,fruitsalad,sushi w_condiments,0.5,7.49,6.99,,sushi w_condiments,749.5,756,756.0,True,i,46524.799999952316,1259.1000000238419,1669835181828,1259,HRV,HRV_0234,2022-11-30 19:09:41
29,"[{'imgObject': {}, 'id': 'raspberries', 'src': '/static/foodstim60/raspberries.jpg', 'key': 'u', 'origWidth': 411, 'origHeight': 411, 'width': 411, 'height': 411, 'widthPercent': 0.45, 'rescaleHeight': False, 'trialN': 29, 'loaded': True, 'loadedTime': 46525.59999990463, 'positionName': 'LEFT', 'positionCoords': [246.12, 190.5], 'bid': 0.6900000000000001}, {'imgObject': {}, 'id': 'blueberries', 'src': '/static/foodstim60/blueberries.jpg', 'key': 'i', 'origWidth': 411, 'origHeight': 411, 'width': 411, 'height': 411, 'widthPercent': 0.45, 'rescaleHeight': False, 'trialN': 29, 'loaded': True, 'loadedTime': 46525.699999928474, 'positionName': 'RIGHT', 'positionCoords': [711.88, 190.5], 'bid': 0.53}]",46525.09999990463,1669835181828,raspberries,blueberries,0.6900000000000001,0.53,-0.16000000000000003,,blueberries,1154.8000000715256,1161,1160.5,True,i,48189.0,1663.9000000953674,1669835183492,1664,HRV,HRV_0234,2022-11-30 19:09:41
30,"[{'imgObject': {}, 'id': 'fried eggs', 'src': '/static/foodstim60/fried eggs.jpg', 'key': 'u', 'origWidth': 410, 'origHeight': 410, 'width': 410, 'height': 410, 'widthPercent': 0.45, 'rescaleHeight': False, 'trialN': 30, 'loaded': True, 'loadedTime': 48190.5, 'positionName': 'LEFT', 'positionCoords': [247.12, 191], 'bid': 4.24}, {'imgObject': {}, 'id': 'bagel and cc', 'src': '/static/foodstim60/bagel and cc.jpg', 'key': 'i', 'origWidth': 410, 'origHeight': 410, 'width': 410, 'height': 410, 'widthPercent': 0.45, 'rescaleHeight': False, 'trialN': 30, 'loaded': True, 'loadedTime': 48190.699999928474, 'positionName': 'RIGHT', 'positionCoords': [711.88, 191], 'bid': 2.23}]",48189.5,1669835183493,fried eggs,bagel and cc,4.24,2.23,-2.0100000000000002,,fried eggs,953.5,960,960.6999999284744,True,u,49653.799999952316,1464.2999999523163,1669835184957,1464,HRV,HRV_0234,2022-11-30 19:09:41
31,"[{'imgObject': {}, 'id': 'yogurt no spoon', 'src': '/static/foodstim60/yogurt no spoon.jpg', 'key': 'u', 'origWidth': 411, 'origHeight': 410, 'width': 411, 'height': 410, 'widthPercent': 0.45, 'rescaleHeight': False, 'trialN': 31, 'loaded': True, 'loadedTime': 49656, 'positionName': 'LEFT', 'positionCoords': [246.12, 191], 'bid': 0.44}, {'imgObject': {}, 'id': 'raisin bran w milk', 'src': '/static/foodstim60/raisin bran w milk.jpg', 'key': 'i', 'origWidth': 411, 'origHeight': 411, 'width': 411, 'height': 411, 'widthPercent': 0.45, 'rescaleHeight': False, 'trialN': 31, 'loaded': True, 'loadedTime': 49656.299999952316, 'positionName': 'RIGHT', 'positionCoords': [711.88, 190.5], 'bid': 0.24}]",49654.39999997616,1669835184957,yogurt no spoon,raisin bran w milk,0.44,0.24,-0.2,,raisin bran w milk,1670.7999999523163,1678,1677.5,True,i,51833.09999990463,2178.6999999284744,1669835187136,2179,HRV,HRV_0234,2022-11-30 19:09:41
32,"[{'imgObject': {}, 'id': 'sushi w_condiments', 'src': '/static/foodstim60/sushi w_condiments.jpg', 'key': 'u', 'origWidth': 410, 'origHeight': 410, 'width': 410, 'height': 410, 'widthPercent': 0.45, 'rescaleHeight': False, 'trialN': 32, 'loaded': True, 'loadedTime': 51835.699999928474, 'positionName': 'LEFT', 'positionCoords': [247.12, 191], 'bid': 7.49}, {'imgObject': {}, 'id': 'omelette', 'src': '/static/foodstim60/omelette.jpg', 'key': 'i', 'origWidth': 410, 'origHeight': 409, 'width': 410, 'height': 409, 'widthPercent': 0.45, 'rescaleHeight': False, 'trialN': 32, 'loaded': True, 'loadedTime': 51836.39999997616, 'positionName': 'RIGHT', 'positionCoords': [711.88, 191.5], 'bid': 7.03}]",51833.799999952316,1669835187137,sushi w_condiments,omelette,7.49,7.03,-0.45999999999999996,,omelette,796.3999999761581,810,810.2999999523163,True,i,53146.699999928474,1312.8999999761581,1669835188450,1313,HRV,HRV_0234,2022-11-30 19:09:41
33,"[{'imgObject': {}, 'id': 'hotdog w must', 'src': '/static/foodstim60/hotdog w must.jpg', 'key': 'u', 'origWidth': 409, 'origHeight': 409, 'width': 409, 'height': 409, 'widthPercent': 0.45, 'rescaleHeight': False, 'trialN': 33, 'loaded': True, 'loadedTime': 53149.59999990463, 'positionName': 'LEFT', 'positionCoords': [248.12, 191.5], 'bid': 0.87}, {'imgObject': {}, 'id': 'veggieswithdip', 'src': '/static/foodstim60/veggieswithdip.jpg', 'key': 'i', 'origWidth': 409, 'origHeight': 409, 'width': 409, 'height': 409, 'widthPercent': 0.45, 'rescaleHeight': False, 'trialN': 33, 'loaded': True, 'loadedTime': 53150, 'positionName': 'RIGHT', 'positionCoords': [711.88, 191.5], 'bid': 1.67}]",53147.299999952316,1669835188451,hotdog w must,veggieswithdip,0.87,1.67,0.7999999999999999,,veggieswithdip,787.8999999761581,795,795.2999999523163,True,i,54443.699999928474,1296.3999999761581,1669835189747,1296,HRV,HRV_0234,2022-11-30 19:09:41
34,"[{'imgObject': {}, 'id': 'popsicles', 'src': '/static/foodstim60/popsicles.jpg', 'key': 'u', 'origWidth': 410, 'origHeight': 410, 'width': 410, 'height': 410, 'widthPercent': 0.45, 'rescaleHeight': False, 'trialN': 34, 'loaded': True, 'loadedTime': 54446, 'positionName': 'LEFT', 'positionCoords': [247.12, 191], 'bid': 0.31}, {'imgObject': {}, 'id': 'strawberries', 'src': '/static/foodstim60/strawberries.jpg', 'key': 'i', 'origWidth': 410, 'origHeight': 410, 'width': 410, 'height': 410, 'widthPercent': 0.45, 'rescaleHeight': False, 'trialN': 34, 'loaded': True, 'loadedTime': 54446.39999997616, 'positionName': 'RIGHT', 'positionCoords': [711.88, 191], 'bid': 0.33}]",54444.199999928474,1669835189747,popsicles,strawberries,0.31,0.33,0.020000000000000018,,strawberries,953.3999999761581,961,960.2000000476837,True,i,55905.799999952316,1461.6000000238419,1669835191209,1462,HRV,HRV_0234,2022-11-30 19:09:41
35,"[{'imgObject': {}, 'id': 'olives', 'src': '/static/foodstim60/olives.jpg', 'key': 'u', 'origWidth': 410, 'origHeight': 410, 'width': 410, 'height': 410, 'widthPercent': 0.45, 'rescaleHeight': False, 'trialN': 35, 'loaded': True, 'loadedTime': 55909.09999990463, 'positionName': 'LEFT', 'positionCoords': [247.12, 191], 'bid': 3.29}, {'imgObject': {}, 'id': 'bagel plain', 'src': '/static/foodstim60/bagel plain.jpg', 'key': 'i', 'origWidth': 410, 'origHeight': 410, 'width': 410, 'height': 410, 'widthPercent': 0.45, 'rescaleHeight': False, 'trialN': 35, 'loaded': True, 'loadedTime': 55909.5, 'positionName': 'RIGHT', 'positionCoords': [711.88, 191], 'bid': 3.5}]",55906.39999997616,1669835191210,olives,bagel plain,3.29,3.5,0.20999999999999996,,olives,661.2999999523163,668,668.6000000238419,True,u,57078.0,1171.6000000238419,1669835192381,1171,HRV,HRV_0234,2022-11-30 19:09:41
36,"[{'imgObject': {}, 'id': 'pear', 'src': '/static/foodstim60/pear.jpg', 'key': 'u', 'origWidth': 411, 'origHeight': 410, 'width': 411, 'height': 410, 'widthPercent': 0.45, 'rescaleHeight': False, 'trialN': 36, 'loaded': True, 'loadedTime': 57079.59999990463, 'positionName': 'LEFT', 'positionCoords': [246.12, 191], 'bid': 0.42}, {'imgObject': {}, 'id': 'lox', 'src': '/static/foodstim60/lox.jpg', 'key': 'i', 'origWidth': 410, 'origHeight': 411, 'width': 410, 'height': 411, 'widthPercent': 0.45, 'rescaleHeight': False, 'trialN': 36, 'loaded': True, 'loadedTime': 57079.89999997616, 'positionName': 'RIGHT', 'positionCoords': [711.88, 190.5], 'bid': 0.47}]",57078.5,1669835192382,pear,lox,0.42,0.47,0.04999999999999999,,lox,726.6999999284744,734,734.2999999523163,True,i,58317.299999952316,1238.7999999523163,1669835193620,1238,HRV,HRV_0234,2022-11-30 19:09:41
37,"[{'imgObject': {}, 'id': 'turkey sandwich', 'src': '/static/foodstim60/turkey sandwich.jpg', 'key': 'u', 'origWidth': 409, 'origHeight': 409, 'width': 409, 'height': 409, 'widthPercent': 0.45, 'rescaleHeight': False, 'trialN': 37, 'loaded': True, 'loadedTime': 58320.199999928474, 'positionName': 'LEFT', 'positionCoords': [248.12, 191.5], 'bid': 6.84}, {'imgObject': {}, 'id': 'veggieswithdip', 'src': '/static/foodstim60/veggieswithdip.jpg', 'key': 'i', 'origWidth': 409, 'origHeight': 409, 'width': 409, 'height': 409, 'widthPercent': 0.45, 'rescaleHeight': False, 'trialN': 37, 'loaded': True, 'loadedTime': 58320.699999928474, 'positionName': 'RIGHT', 'positionCoords': [711.88, 191.5], 'bid': 1.67}]",58318.09999990463,1669835193621,turkey sandwich,veggieswithdip,6.84,1.67,-5.17,,turkey sandwich,589.7000000476837,597,597.2000000476837,True,u,59420.5,1102.4000000953674,1669835194724,1103,HRV,HRV_0234,2022-11-30 19:09:41
38,"[{'imgObject': {}, 'id': 'Tribe humus pita', 'src': '/static/foodstim60/Tribe humus pita.jpg', 'key': 'u', 'origWidth': 411, 'origHeight': 411, 'width': 411, 'height': 411, 'widthPercent': 0.45, 'rescaleHeight': False, 'trialN': 38, 'loaded': True, 'loadedTime': 59423.59999990463, 'positionName': 'LEFT', 'positionCoords': [246.12, 190.5], 'bid': 1.82}, {'imgObject': {}, 'id': 'roastedpotatoes', 'src': '/static/foodstim60/roastedpotatoes.jpg', 'key': 'i', 'origWidth': 409, 'origHeight': 410, 'width': 409, 'height': 410, 'widthPercent': 0.45, 'rescaleHeight': False, 'trialN': 38, 'loaded': True, 'loadedTime': 59423.89999997616, 'positionName': 'RIGHT', 'positionCoords': [711.88, 191], 'bid': 6.9}]",59421.0,1669835194724,Tribe humus pita,roastedpotatoes,1.82,6.9,5.08,,roastedpotatoes,612.6999999284744,618,617.5999999046326,True,i,60539.89999997616,1118.8999999761581,1669835195843,1119,HRV,HRV_0234,2022-11-30 19:09:41
39,"[{'imgObject': {}, 'id': 'burrito', 'src': '/static/foodstim60/burrito.jpg', 'key': 'u', 'origWidth': 410, 'origHeight': 410, 'width': 410, 'height': 410, 'widthPercent': 0.45, 'rescaleHeight': False, 'trialN': 39, 'loaded': True, 'loadedTime': 60542.799999952316, 'positionName': 'LEFT', 'positionCoords': [247.12, 191], 'bid': 4.67}, {'imgObject': {}, 'id': 'salad w chicken', 'src': '/static/foodstim60/salad w chicken.jpg', 'key': 'i', 'origWidth': 411, 'origHeight': 411, 'width': 411, 'height': 411, 'widthPercent': 0.45, 'rescaleHeight': False, 'trialN': 39, 'loaded': True, 'loadedTime': 60543.199999928474, 'positionName': 'RIGHT', 'positionCoords': [711.88, 190.5], 'bid': 8.19}]",60540.799999952316,1669835195844,burrito,salad w chicken,4.67,8.19,3.5199999999999996,,burrito,684.3999999761581,688,688.0,True,u,61729.699999928474,1188.8999999761581,1669835197033,1189,HRV,HRV_0234,2022-11-30 19:09:41
40,"[{'imgObject': {}, 'id': 'grilled chicken strips', 'src': '/static/foodstim60/grilled chicken strips.jpg', 'key': 'u', 'origWidth': 410, 'origHeight': 411, 'width': 410, 'height': 411, 'widthPercent': 0.45, 'rescaleHeight': False, 'trialN': 40, 'loaded': True, 'loadedTime': 61732.5, 'positionName': 'LEFT', 'positionCoords': [247.12, 190.5], 'bid': 9.17}, {'imgObject': {}, 'id': 'shreddedwheatwithmilk', 'src': '/static/foodstim60/shreddedwheatwithmilk.jpg', 'key': 'i', 'origWidth': 410, 'origHeight': 410, 'width': 410, 'height': 410, 'widthPercent': 0.45, 'rescaleHeight': False, 'trialN': 40, 'loaded': True, 'loadedTime': 61732.89999997616, 'positionName': 'RIGHT', 'positionCoords': [711.88, 191], 'bid': 0.58}]",61730.699999928474,1669835197034,grilled chicken strips,shreddedwheatwithmilk,9.17,0.58,-8.59,,grilled chicken strips,799.3999999761581,804,804.1000000238419,True,u,63037.09999990463,1306.3999999761581,1669835198340,1306,HRV,HRV_0234,2022-11-30 19:09:41
41,"[{'imgObject': {}, 'id': 'sushi w_condiments', 'src': '/static/foodstim60/sushi w_condiments.jpg', 'key': 'u', 'origWidth': 410, 'origHeight': 410, 'width': 410, 'height': 410, 'widthPercent': 0.45, 'rescaleHeight': False, 'trialN': 41, 'loaded': True, 'loadedTime': 63039.699999928474, 'positionName': 'LEFT', 'positionCoords': [247.12, 191], 'bid': 7.49}, {'imgObject': {}, 'id': 'salmon', 'src': '/static/foodstim60/salmon.jpg', 'key': 'i', 'origWidth': 410, 'origHeight': 409, 'width': 410, 'height': 409, 'widthPercent': 0.45, 'rescaleHeight': False, 'trialN': 41, 'loaded': True, 'loadedTime': 63040.5, 'positionName': 'RIGHT', 'positionCoords': [711.88, 191.5], 'bid': 8.11}]",63037.59999990463,1669835198341,sushi w_condiments,salmon,7.49,8.11,0.6199999999999992,,salmon,707.6000000238419,714,714.5,True,i,64255.699999928474,1218.1000000238419,1669835199559,1218,HRV,HRV_0234,2022-11-30 19:09:41
42,"[{'imgObject': {}, 'id': 'seaweed', 'src': '/static/foodstim60/seaweed.jpg', 'key': 'u', 'origWidth': 410, 'origHeight': 410, 'width': 410, 'height': 410, 'widthPercent': 0.45, 'rescaleHeight': False, 'trialN': 42, 'loaded': True, 'loadedTime': 64258.799999952316, 'positionName': 'LEFT', 'positionCoords': [247.12, 191], 'bid': 1.54}, {'imgObject': {}, 'id': 'shreddedwheatwithmilk', 'src': '/static/foodstim60/shreddedwheatwithmilk.jpg', 'key': 'i', 'origWidth': 410, 'origHeight': 410, 'width': 410, 'height': 410, 'widthPercent': 0.45, 'rescaleHeight': False, 'trialN': 42, 'loaded': True, 'loadedTime': 64259.199999928474, 'positionName': 'RIGHT', 'positionCoords': [711.88, 191], 'bid': 0.58}]",64256.39999997616,1669835199559,seaweed,shreddedwheatwithmilk,1.54,0.58,-0.9600000000000001,,seaweed,928.7999999523163,936,936.1000000238419,True,u,65697.29999995232,1440.8999999761581,1669835201000,1441,HRV,HRV_0234,2022-11-30 19:09:41
43,"[{'imgObject': {}, 'id': 'Tribe humus pita', 'src': '/static/foodstim60/Tribe humus pita.jpg', 'key': 'u', 'origWidth': 411, 'origHeight': 411, 'width': 411, 'height': 411, 'widthPercent': 0.45, 'rescaleHeight': False, 'trialN': 43, 'loaded': True, 'loadedTime': 65700.5, 'positionName': 'LEFT', 'positionCoords': [246.12, 190.5], 'bid': 1.82}, {'imgObject': {}, 'id': 'blueberries', 'src': '/static/foodstim60/blueberries.jpg', 'key': 'i', 'origWidth': 411, 'origHeight': 411, 'width': 411, 'height': 411, 'widthPercent': 0.45, 'rescaleHeight': False, 'trialN': 43, 'loaded': True, 'loadedTime': 65701.39999997616, 'positionName': 'RIGHT', 'positionCoords': [711.88, 190.5], 'bid': 0.53}]",65698.09999990463,1669835201001,Tribe humus pita,blueberries,1.82,0.53,-1.29,,Tribe humus pita,634.7000000476837,642,642.0,True,u,66841.69999992847,1143.6000000238419,1669835202145,1144,HRV,HRV_0234,2022-11-30 19:09:41
44,"[{'imgObject': {}, 'id': 'turkeysandwich', 'src': '/static/foodstim60/turkeysandwich.jpg', 'key': 'u', 'origWidth': 409, 'origHeight': 409, 'width': 409, 'height': 409, 'widthPercent': 0.45, 'rescaleHeight': False, 'trialN': 44, 'loaded': True, 'loadedTime': 66844.5, 'positionName': 'LEFT', 'positionCoords': [248.12, 191.5], 'bid': 7.59}, {'imgObject': {}, 'id': 'avocado', 'src': '/static/foodstim60/avocado.jpg', 'key': 'i', 'origWidth': 409, 'origHeight': 409, 'width': 409, 'height': 409, 'widthPercent': 0.45, 'rescaleHeight': False, 'trialN': 44, 'loaded': True, 'loadedTime': 66845, 'positionName': 'RIGHT', 'positionCoords': [711.88, 191.5], 'bid': 4.18}]",66842.39999997616,1669835202145,turkeysandwich,avocado,7.59,4.18,-3.41,,turkeysandwich,683,690,689.8999999761581,True,u,68032.59999990463,1190.1999999284744,1669835203336,1191,HRV,HRV_0234,2022-11-30 19:09:41
45,"[{'imgObject': {}, 'id': 'blackbeanswithrice', 'src': '/static/foodstim60/blackbeanswithrice.jpg', 'key': 'u', 'origWidth': 410, 'origHeight': 410, 'width': 410, 'height': 410, 'widthPercent': 0.45, 'rescaleHeight': False, 'trialN': 45, 'loaded': True, 'loadedTime': 68035.69999992847, 'positionName': 'LEFT', 'positionCoords': [247.12, 191], 'bid': 5.03}, {'imgObject': {}, 'id': 'burger', 'src': '/static/foodstim60/burger.jpg', 'key': 'i', 'origWidth': 409, 'origHeight': 409, 'width': 409, 'height': 409, 'widthPercent': 0.45, 'rescaleHeight': False, 'trialN': 45, 'loaded': True, 'loadedTime': 68036.19999992847, 'positionName': 'RIGHT', 'positionCoords': [711.88, 191.5], 'bid': 8.99}]",68033.5,1669835203337,blackbeanswithrice,burger,5.03,8.99,3.96,,burger,1044.1999999284744,1053,1053.0,True,i,69590.5,1557.0,1669835204894,1557,HRV,HRV_0234,2022-11-30 19:09:41
46,"[{'imgObject': {}, 'id': 'banana', 'src': '/static/foodstim60/banana.jpg', 'key': 'u', 'origWidth': 410, 'origHeight': 410, 'width': 410, 'height': 410, 'widthPercent': 0.45, 'rescaleHeight': False, 'trialN': 46, 'loaded': True, 'loadedTime': 69593.09999990463, 'positionName': 'LEFT', 'positionCoords': [247.12, 191], 'bid': 0.2}, {'imgObject': {}, 'id': 'strawberries', 'src': '/static/foodstim60/strawberries.jpg', 'key': 'i', 'origWidth': 410, 'origHeight': 410, 'width': 410, 'height': 410, 'widthPercent': 0.45, 'rescaleHeight': False, 'trialN': 46, 'loaded': True, 'loadedTime': 69593.79999995232, 'positionName': 'RIGHT', 'positionCoords': [711.88, 191], 'bid': 0.33}]",69591.09999990463,1669835204894,banana,strawberries,0.2,0.33,0.13,,banana,1129.3000000715256,1136,1136.3000000715256,True,u,71229.5,1638.4000000953674,1669835206533,1639,HRV,HRV_0234,2022-11-30 19:09:41
47,"[{'imgObject': {}, 'id': 'hotdog w must', 'src': '/static/foodstim60/hotdog w must.jpg', 'key': 'u', 'origWidth': 409, 'origHeight': 409, 'width': 409, 'height': 409, 'widthPercent': 0.45, 'rescaleHeight': False, 'trialN': 47, 'loaded': True, 'loadedTime': 71232.29999995232, 'positionName': 'LEFT', 'positionCoords': [248.12, 191.5], 'bid': 0.87}, {'imgObject': {}, 'id': 'chicken nuggets2', 'src': '/static/foodstim60/chicken nuggets2.jpg', 'key': 'i', 'origWidth': 410, 'origHeight': 409, 'width': 410, 'height': 409, 'widthPercent': 0.45, 'rescaleHeight': False, 'trialN': 47, 'loaded': True, 'loadedTime': 71232.69999992847, 'positionName': 'RIGHT', 'positionCoords': [711.88, 191.5], 'bid': 0.3}]",71230.19999992847,1669835206533,hotdog w must,chicken nuggets2,0.87,0.3,-0.5700000000000001,,hotdog w must,886.3999999761581,894,893.7000000476837,True,u,72628.0,1397.8000000715256,1669835207931,1398,HRV,HRV_0234,2022-11-30 19:09:41
48,"[{'imgObject': {}, 'id': 'orange slices', 'src': '/static/foodstim60/orange slices.jpg', 'key': 'u', 'origWidth': 409, 'origHeight': 410, 'width': 409, 'height': 410, 'widthPercent': 0.45, 'rescaleHeight': False, 'trialN': 48, 'loaded': True, 'loadedTime': 72630.89999997616, 'positionName': 'LEFT', 'positionCoords': [248.12, 191], 'bid': 0.46}, {'imgObject': {}, 'id': 'froot loops w milk', 'src': '/static/foodstim60/froot loops w milk.jpg', 'key': 'i', 'origWidth': 410, 'origHeight': 410, 'width': 410, 'height': 410, 'widthPercent': 0.45, 'rescaleHeight': False, 'trialN': 48, 'loaded': True, 'loadedTime': 72631.29999995232, 'positionName': 'RIGHT', 'positionCoords': [711.88, 191], 'bid': 0.47}]",72629.0,1669835207932,orange slices,froot loops w milk,0.46,0.47,0.009999999999999953,,froot loops w milk,701.5,709,709.0999999046326,True,i,73838.59999990463,1209.5999999046326,1669835209142,1210,HRV,HRV_0234,2022-11-30 19:09:41
49,"[{'imgObject': {}, 'id': 'sushi w_condiments', 'src': '/static/foodstim60/sushi w_condiments.jpg', 'key': 'u', 'origWidth': 410, 'origHeight': 410, 'width': 410, 'height': 410, 'widthPercent': 0.45, 'rescaleHeight': False, 'trialN': 49, 'loaded': True, 'loadedTime': 73841.39999997616, 'positionName': 'LEFT', 'positionCoords': [247.12, 191], 'bid': 7.49}, {'imgObject': {}, 'id': 'steak', 'src': '/static/foodstim60/steak.jpg', 'key': 'i', 'origWidth': 410, 'origHeight': 410, 'width': 410, 'height': 410, 'widthPercent': 0.45, 'rescaleHeight': False, 'trialN': 49, 'loaded': True, 'loadedTime': 73841.89999997616, 'positionName': 'RIGHT', 'positionCoords': [711.88, 191], 'bid': 9.57}]",73839.5,1669835209142,sushi w_condiments,steak,7.49,9.57,2.08,,steak,1043.5,1052,1051.1999999284744,True,i,75394.39999997616,1554.8999999761581,1669835210697,1555,HRV,HRV_0234,2022-11-30 19:09:41
50,"[{'imgObject': {}, 'id': 'avocado', 'src': '/static/foodstim60/avocado.jpg', 'key': 'u', 'origWidth': 409, 'origHeight': 409, 'width': 409, 'height': 409, 'widthPercent': 0.45, 'rescaleHeight': False, 'trialN': 50, 'loaded': True, 'loadedTime': 75397.39999997616, 'positionName': 'LEFT', 'positionCoords': [248.12, 191.5], 'bid': 4.18}, {'imgObject': {}, 'id': 'fried eggs', 'src': '/static/foodstim60/fried eggs.jpg', 'key': 'i', 'origWidth': 410, 'origHeight': 410, 'width': 410, 'height': 410, 'widthPercent': 0.45, 'rescaleHeight': False, 'trialN': 50, 'loaded': True, 'loadedTime': 75399.19999992847, 'positionName': 'RIGHT', 'positionCoords': [711.88, 191], 'bid': 4.24}]",75395.39999997616,1669835210698,avocado,fried eggs,4.18,4.24,0.0600000000000005,,avocado,658.6000000238419,666,665.8999999761581,True,u,76565.59999990463,1170.1999999284744,1669835211869,1171,HRV,HRV_0234,2022-11-30 19:09:41
51,"[{'imgObject': {}, 'id': 'Grapes', 'src': '/static/foodstim60/Grapes.jpg', 'key': 'u', 'origWidth': 411, 'origHeight': 411, 'width': 411, 'height': 411, 'widthPercent': 0.45, 'rescaleHeight': False, 'trialN': 51, 'loaded': True, 'loadedTime': 76569, 'positionName': 'LEFT', 'positionCoords': [246.12, 190.5], 'bid': 0.47}, {'imgObject': {}, 'id': 'tacos', 'src': '/static/foodstim60/tacos.jpg', 'key': 'i', 'origWidth': 411, 'origHeight': 411, 'width': 411, 'height': 411, 'widthPercent': 0.45, 'rescaleHeight': False, 'trialN': 51, 'loaded': True, 'loadedTime': 76569.39999997616, 'positionName': 'RIGHT', 'positionCoords': [711.88, 190.5], 'bid': 6.16}]",76566.29999995232,1669835211869,Grapes,tacos,0.47,6.16,5.69,,tacos,679.1000000238419,686,686.1000000238419,True,i,77753.79999995232,1187.5,1669835213057,1188,HRV,HRV_0234,2022-11-30 19:09:41
52,"[{'imgObject': {}, 'id': 'Grapes', 'src': '/static/foodstim60/Grapes.jpg', 'key': 'u', 'origWidth': 411, 'origHeight': 411, 'width': 411, 'height': 411, 'widthPercent': 0.45, 'rescaleHeight': False, 'trialN': 52, 'loaded': True, 'loadedTime': 77757.19999992847, 'positionName': 'LEFT', 'positionCoords': [246.12, 190.5], 'bid': 0.47}, {'imgObject': {}, 'id': 'cantaloupe', 'src': '/static/foodstim60/cantaloupe.jpg', 'key': 'i', 'origWidth': 409, 'origHeight': 409, 'width': 409, 'height': 409, 'widthPercent': 0.45, 'rescaleHeight': False, 'trialN': 52, 'loaded': True, 'loadedTime': 77757.59999990463, 'positionName': 'RIGHT', 'positionCoords': [711.88, 191.5], 'bid': 0.42}]",77754.39999997616,1669835213057,Grapes,cantaloupe,0.47,0.42,-0.04999999999999999,,Grapes,818.2999999523163,826,825.7999999523163,True,u,79084.89999997616,1330.5,1669835214388,1331,HRV,HRV_0234,2022-11-30 19:09:41
53,"[{'imgObject': {}, 'id': 'yogurt no spoon', 'src': '/static/foodstim60/yogurt no spoon.jpg', 'key': 'u', 'origWidth': 411, 'origHeight': 410, 'width': 411, 'height': 410, 'widthPercent': 0.45, 'rescaleHeight': False, 'trialN': 53, 'loaded': True, 'loadedTime': 79088.09999990463, 'positionName': 'LEFT', 'positionCoords': [246.12, 191], 'bid': 0.44}, {'imgObject': {}, 'id': 'blueberries', 'src': '/static/foodstim60/blueberries.jpg', 'key': 'i', 'origWidth': 411, 'origHeight': 411, 'width': 411, 'height': 411, 'widthPercent': 0.45, 'rescaleHeight': False, 'trialN': 53, 'loaded': True, 'loadedTime': 79088.59999990463, 'positionName': 'RIGHT', 'positionCoords': [711.88, 190.5], 'bid': 0.53}]",79085.59999990463,1669835214389,yogurt no spoon,blueberries,0.44,0.53,0.09000000000000002,,yogurt no spoon,859.8000000715256,867,867.6000000238419,True,u,80457.39999997616,1371.8000000715256,1669835215760,1371,HRV,HRV_0234,2022-11-30 19:09:41
54,"[{'imgObject': {}, 'id': 'strawberries', 'src': '/static/foodstim60/strawberries.jpg', 'key': 'u', 'origWidth': 410, 'origHeight': 410, 'width': 410, 'height': 410, 'widthPercent': 0.45, 'rescaleHeight': False, 'trialN': 54, 'loaded': True, 'loadedTime': 80459.09999990463, 'positionName': 'LEFT', 'positionCoords': [247.12, 191], 'bid': 0.33}, {'imgObject': {}, 'id': 'Tribe humus pita', 'src': '/static/foodstim60/Tribe humus pita.jpg', 'key': 'i', 'origWidth': 411, 'origHeight': 411, 'width': 411, 'height': 411, 'widthPercent': 0.45, 'rescaleHeight': False, 'trialN': 54, 'loaded': True, 'loadedTime': 80460.5, 'positionName': 'RIGHT', 'positionCoords': [711.88, 190.5], 'bid': 1.82}]",80458.19999992847,1669835215761,strawberries,Tribe humus pita,0.33,1.82,1.49,,Tribe humus pita,769.8000000715256,778,777.3999999761581,True,i,81736.89999997616,1278.7000000476837,1669835217040,1279,HRV,HRV_0234,2022-11-30 19:09:41
55,"[{'imgObject': {}, 'id': 'Grapes', 'src': '/static/foodstim60/Grapes.jpg', 'key': 'u', 'origWidth': 411, 'origHeight': 411, 'width': 411, 'height': 411, 'widthPercent': 0.45, 'rescaleHeight': False, 'trialN': 55, 'loaded': True, 'loadedTime': 81738.69999992847, 'positionName': 'LEFT', 'positionCoords': [246.12, 190.5], 'bid': 0.47}, {'imgObject': {}, 'id': 'chicken nuggets2', 'src': '/static/foodstim60/chicken nuggets2.jpg', 'key': 'i', 'origWidth': 410, 'origHeight': 409, 'width': 410, 'height': 409, 'widthPercent': 0.45, 'rescaleHeight': False, 'trialN': 55, 'loaded': True, 'loadedTime': 81739, 'positionName': 'RIGHT', 'positionCoords': [711.88, 191.5], 'bid': 0.3}]",81737.59999990463,1669835217041,Grapes,chicken nuggets2,0.47,0.3,-0.16999999999999998,,chicken nuggets2,862.7000000476837,869,869.9000000953674,True,i,83112.19999992847,1374.6000000238419,1669835218415,1374,HRV,HRV_0234,2022-11-30 19:09:41
56,"[{'imgObject': {}, 'id': 'ice cream sundae 002', 'src': '/static/foodstim60/ice cream sundae 002.jpg', 'key': 'u', 'origWidth': 409, 'origHeight': 409, 'width': 409, 'height': 409, 'widthPercent': 0.45, 'rescaleHeight': False, 'trialN': 56, 'loaded': True, 'loadedTime': 83114.89999997616, 'positionName': 'LEFT', 'positionCoords': [248.12, 191.5], 'bid': 0.44}, {'imgObject': {}, 'id': 'luckycharms', 'src': '/static/foodstim60/luckycharms.jpg', 'key': 'i', 'origWidth': 410, 'origHeight': 409, 'width': 410, 'height': 409, 'widthPercent': 0.45, 'rescaleHeight': False, 'trialN': 56, 'loaded': True, 'loadedTime': 83115.39999997616, 'positionName': 'RIGHT', 'positionCoords': [711.88, 191.5], 'bid': 0.25}]",83113.0,1669835218416,ice cream sundae 002,luckycharms,0.44,0.25,-0.19,,ice cream sundae 002,2524.899999976158,2531,2530.899999976158,True,u,86146.29999995232,3033.2999999523163,1669835221449,3033,HRV,HRV_0234,2022-11-30 19:09:41
57,"[{'imgObject': {}, 'id': 'rigatoni and sauce', 'src': '/static/foodstim60/rigatoni and sauce.jpg', 'key': 'u', 'origWidth': 410, 'origHeight': 411, 'width': 410, 'height': 411, 'widthPercent': 0.45, 'rescaleHeight': False, 'trialN': 57, 'loaded': True, 'loadedTime': 86148, 'positionName': 'LEFT', 'positionCoords': [247.12, 190.5], 'bid': 1.92}, {'imgObject': {}, 'id': 'shreddedwheatwithmilk', 'src': '/static/foodstim60/shreddedwheatwithmilk.jpg', 'key': 'i', 'origWidth': 410, 'origHeight': 410, 'width': 410, 'height': 410, 'widthPercent': 0.45, 'rescaleHeight': False, 'trialN': 57, 'loaded': True, 'loadedTime': 86148.29999995232, 'positionName': 'RIGHT', 'positionCoords': [711.88, 191], 'bid': 0.58}]",86146.89999997616,1669835221450,rigatoni and sauce,shreddedwheatwithmilk,1.92,0.58,-1.3399999999999999,,rigatoni and sauce,796.1000000238419,803,803.1999999284744,True,u,87453.69999992847,1306.7999999523163,1669835222757,1307,HRV,HRV_0234,2022-11-30 19:09:41
58,"[{'imgObject': {}, 'id': 'omelette', 'src': '/static/foodstim60/omelette.jpg', 'key': 'u', 'origWidth': 410, 'origHeight': 409, 'width': 410, 'height': 409, 'widthPercent': 0.45, 'rescaleHeight': False, 'trialN': 58, 'loaded': True, 'loadedTime': 87456.5, 'positionName': 'LEFT', 'positionCoords': [247.12, 191.5], 'bid': 7.03}, {'imgObject': {}, 'id': 'grilled chicken strips', 'src': '/static/foodstim60/grilled chicken strips.jpg', 'key': 'i', 'origWidth': 410, 'origHeight': 411, 'width': 410, 'height': 411, 'widthPercent': 0.45, 'rescaleHeight': False, 'trialN': 58, 'loaded': True, 'loadedTime': 87456.79999995232, 'positionName': 'RIGHT', 'positionCoords': [711.88, 190.5], 'bid': 9.17}]",87454.39999997616,1669835222757,omelette,grilled chicken strips,7.03,9.17,2.1399999999999997,,grilled chicken strips,1019.6000000238419,1026,1025.2999999523163,True,i,88981.19999992847,1526.7999999523163,1669835224284,1527,HRV,HRV_0234,2022-11-30 19:09:41
59,"[{'imgObject': {}, 'id': 'cantaloupe', 'src': '/static/foodstim60/cantaloupe.jpg', 'key': 'u', 'origWidth': 409, 'origHeight': 409, 'width': 409, 'height': 409, 'widthPercent': 0.45, 'rescaleHeight': False, 'trialN': 59, 'loaded': True, 'loadedTime': 88983.79999995232, 'positionName': 'LEFT', 'positionCoords': [248.12, 191.5], 'bid': 0.42}, {'imgObject': {}, 'id': 'pear', 'src': '/static/foodstim60/pear.jpg', 'key': 'i', 'origWidth': 411, 'origHeight': 410, 'width': 411, 'height': 410, 'widthPercent': 0.45, 'rescaleHeight': False, 'trialN': 59, 'loaded': True, 'loadedTime': 88984.19999992847, 'positionName': 'RIGHT', 'positionCoords': [711.88, 191], 'bid': 0.42}]",88981.79999995232,1669835224285,cantaloupe,pear,0.42,0.42,0.0,,cantaloupe,976.2000000476837,983,983.2999999523163,True,u,90470.0,1488.2000000476837,1669835225773,1488,HRV,HRV_0234,2022-11-30 19:09:41
60,"[{'imgObject': {}, 'id': 'mac & cheese', 'src': '/static/foodstim60/mac & cheese.jpg', 'key': 'u', 'origWidth': 410, 'origHeight': 410, 'width': 410, 'height': 410, 'widthPercent': 0.45, 'rescaleHeight': False, 'trialN': 60, 'loaded': True, 'loadedTime': 90471, 'positionName': 'LEFT', 'positionCoords': [247.12, 191], 'bid': 6.51}, {'imgObject': {}, 'id': 'roastedpotatoes', 'src': '/static/foodstim60/roastedpotatoes.jpg', 'key': 'i', 'origWidth': 409, 'origHeight': 410, 'width': 409, 'height': 410, 'widthPercent': 0.45, 'rescaleHeight': False, 'trialN': 60, 'loaded': True, 'loadedTime': 90471.09999990463, 'positionName': 'RIGHT', 'positionCoords': [711.88, 191], 'bid': 6.9}]",90470.29999995232,1669835225773,mac & cheese,roastedpotatoes,6.51,6.9,0.39000000000000057,,roastedpotatoes,1175.2999999523163,1182,1182.2000000476837,True,i,92156.39999997616,1686.1000000238419,1669835227459,1686,HRV,HRV_0234,2022-11-30 19:09:41
61,"[{'imgObject': {}, 'id': 'olives', 'src': '/static/foodstim60/olives.jpg', 'key': 'u', 'origWidth': 410, 'origHeight': 410, 'width': 410, 'height': 410, 'widthPercent': 0.45, 'rescaleHeight': False, 'trialN': 61, 'loaded': True, 'loadedTime': 92159.29999995232, 'positionName': 'LEFT', 'positionCoords': [247.12, 191], 'bid': 3.29}, {'imgObject': {}, 'id': 'burger', 'src': '/static/foodstim60/burger.jpg', 'key': 'i', 'origWidth': 409, 'origHeight': 409, 'width': 409, 'height': 409, 'widthPercent': 0.45, 'rescaleHeight': False, 'trialN': 61, 'loaded': True, 'loadedTime': 92160.79999995232, 'positionName': 'RIGHT', 'positionCoords': [711.88, 191.5], 'bid': 8.99}]",92157.09999990463,1669835227460,olives,burger,3.29,8.99,5.7,,burger,748.5,755,755.3000000715256,True,i,93416.09999990463,1259.0,1669835228719,1259,HRV,HRV_0234,2022-11-30 19:09:41
62,"[{'imgObject': {}, 'id': 'mango', 'src': '/static/foodstim60/mango.jpg', 'key': 'u', 'origWidth': 411, 'origHeight': 411, 'width': 411, 'height': 411, 'widthPercent': 0.45, 'rescaleHeight': False, 'trialN': 62, 'loaded': True, 'loadedTime': 93419.59999990463, 'positionName': 'LEFT', 'positionCoords': [246.12, 190.5], 'bid': 0.43}, {'imgObject': {}, 'id': 'granola w milk', 'src': '/static/foodstim60/granola w milk.jpg', 'key': 'i', 'origWidth': 410, 'origHeight': 410, 'width': 410, 'height': 410, 'widthPercent': 0.45, 'rescaleHeight': False, 'trialN': 62, 'loaded': True, 'loadedTime': 93420.29999995232, 'positionName': 'RIGHT', 'positionCoords': [711.88, 191], 'bid': 0.5}]",93416.79999995232,1669835228720,mango,granola w milk,0.43,0.5,0.07,,mango,748.7000000476837,755,755.7000000476837,True,u,94675.39999997616,1258.6000000238419,1669835229978,1258,HRV,HRV_0234,2022-11-30 19:09:41
63,"[{'imgObject': {}, 'id': 'turkey sandwich', 'src': '/static/foodstim60/turkey sandwich.jpg', 'key': 'u', 'origWidth': 409, 'origHeight': 409, 'width': 409, 'height': 409, 'widthPercent': 0.45, 'rescaleHeight': False, 'trialN': 63, 'loaded': True, 'loadedTime': 94678.79999995232, 'positionName': 'LEFT', 'positionCoords': [248.12, 191.5], 'bid': 6.84}, {'imgObject': {}, 'id': 'roastedpotatoes', 'src': '/static/foodstim60/roastedpotatoes.jpg', 'key': 'i', 'origWidth': 409, 'origHeight': 410, 'width': 409, 'height': 410, 'widthPercent': 0.45, 'rescaleHeight': False, 'trialN': 63, 'loaded': True, 'loadedTime': 94679.59999990463, 'positionName': 'RIGHT', 'positionCoords': [711.88, 191], 'bid': 6.9}]",94676.19999992847,1669835229979,turkey sandwich,roastedpotatoes,6.84,6.9,0.0600000000000005,,turkey sandwich,771.6000000238419,778,778.2000000476837,True,u,95958.79999995232,1282.6000000238419,1669835231262,1283,HRV,HRV_0234,2022-11-30 19:09:41
64,"[{'imgObject': {}, 'id': 'hashbrowns', 'src': '/static/foodstim60/hashbrowns.jpg', 'key': 'u', 'origWidth': 411, 'origHeight': 410, 'width': 411, 'height': 410, 'widthPercent': 0.45, 'rescaleHeight': False, 'trialN': 64, 'loaded': True, 'loadedTime': 95961.19999992847, 'positionName': 'LEFT', 'positionCoords': [246.12, 191], 'bid': 0.49}, {'imgObject': {}, 'id': 'fruitsalad', 'src': '/static/foodstim60/fruitsalad.jpg', 'key': 'i', 'origWidth': 410, 'origHeight': 410, 'width': 410, 'height': 410, 'widthPercent': 0.45, 'rescaleHeight': False, 'trialN': 64, 'loaded': True, 'loadedTime': 95961.59999990463, 'positionName': 'RIGHT', 'positionCoords': [711.88, 191], 'bid': 0.5}]",95959.29999995232,1669835231262,hashbrowns,fruitsalad,0.49,0.5,0.010000000000000009,,hashbrowns,928.7999999523163,936,935.7999999523163,True,u,97400.0,1440.7000000476837,1669835232703,1441,HRV,HRV_0234,2022-11-30 19:09:41
65,"[{'imgObject': {}, 'id': 'chickenfingers', 'src': '/static/foodstim60/chickenfingers.jpg', 'key': 'u', 'origWidth': 410, 'origHeight': 410, 'width': 410, 'height': 410, 'widthPercent': 0.45, 'rescaleHeight': False, 'trialN': 65, 'loaded': True, 'loadedTime': 97402.89999997616, 'positionName': 'LEFT', 'positionCoords': [247.12, 191], 'bid': 0.56}, {'imgObject': {}, 'id': 'ice cream sundae 002', 'src': '/static/foodstim60/ice cream sundae 002.jpg', 'key': 'i', 'origWidth': 409, 'origHeight': 409, 'width': 409, 'height': 409, 'widthPercent': 0.45, 'rescaleHeight': False, 'trialN': 65, 'loaded': True, 'loadedTime': 97403.39999997616, 'positionName': 'RIGHT', 'positionCoords': [711.88, 191.5], 'bid': 0.44}]",97400.59999990463,1669835232704,chickenfingers,ice cream sundae 002,0.56,0.44,-0.12000000000000005,,chickenfingers,814.9000000953674,821,821.9000000953674,True,u,98727.79999995232,1327.2000000476837,1669835234031,1327,HRV,HRV_0234,2022-11-30 19:09:41
66,"[{'imgObject': {}, 'id': 'salad w chicken', 'src': '/static/foodstim60/salad w chicken.jpg', 'key': 'u', 'origWidth': 411, 'origHeight': 411, 'width': 411, 'height': 411, 'widthPercent': 0.45, 'rescaleHeight': False, 'trialN': 66, 'loaded': True, 'loadedTime': 98730.69999992847, 'positionName': 'LEFT', 'positionCoords': [246.12, 190.5], 'bid': 8.19}, {'imgObject': {}, 'id': 'blueberries', 'src': '/static/foodstim60/blueberries.jpg', 'key': 'i', 'origWidth': 411, 'origHeight': 411, 'width': 411, 'height': 411, 'widthPercent': 0.45, 'rescaleHeight': False, 'trialN': 66, 'loaded': True, 'loadedTime': 98731.79999995232, 'positionName': 'RIGHT', 'positionCoords': [711.88, 190.5], 'bid': 0.53}]",98728.59999990463,1669835234032,salad w chicken,blueberries,8.19,0.53,-7.659999999999999,,salad w chicken,656.9000000953674,664,664.1000000238419,True,u,99895.19999992847,1166.6000000238419,1669835235198,1166,HRV,HRV_0234,2022-11-30 19:09:41
67,"[{'imgObject': {}, 'id': 'cheerios', 'src': '/static/foodstim60/cheerios.jpg', 'key': 'u', 'origWidth': 409, 'origHeight': 410, 'width': 409, 'height': 410, 'widthPercent': 0.45, 'rescaleHeight': False, 'trialN': 67, 'loaded': True, 'loadedTime': 99896.79999995232, 'positionName': 'LEFT', 'positionCoords': [248.12, 191], 'bid': 0.5}, {'imgObject': {}, 'id': 'raspberries', 'src': '/static/foodstim60/raspberries.jpg', 'key': 'i', 'origWidth': 411, 'origHeight': 411, 'width': 411, 'height': 411, 'widthPercent': 0.45, 'rescaleHeight': False, 'trialN': 67, 'loaded': True, 'loadedTime': 99899.39999997616, 'positionName': 'RIGHT', 'positionCoords': [711.88, 190.5], 'bid': 0.6900000000000001}]",99895.89999997616,1669835235199,cheerios,raspberries,0.5,0.6900000000000001,0.19000000000000006,,raspberries,773.2999999523163,780,780.5,True,i,101180.59999990463,1284.6999999284744,1669835236483,1284,HRV,HRV_0234,2022-11-30 19:09:41
68,"[{'imgObject': {}, 'id': 'mango', 'src': '/static/foodstim60/mango.jpg', 'key': 'u', 'origWidth': 411, 'origHeight': 411, 'width': 411, 'height': 411, 'widthPercent': 0.45, 'rescaleHeight': False, 'trialN': 68, 'loaded': True, 'loadedTime': 101183.69999992847, 'positionName': 'LEFT', 'positionCoords': [246.12, 190.5], 'bid': 0.43}, {'imgObject': {}, 'id': 'banana', 'src': '/static/foodstim60/banana.jpg', 'key': 'i', 'origWidth': 410, 'origHeight': 410, 'width': 410, 'height': 410, 'widthPercent': 0.45, 'rescaleHeight': False, 'trialN': 68, 'loaded': True, 'loadedTime': 101184, 'positionName': 'RIGHT', 'positionCoords': [711.88, 191], 'bid': 0.2}]",101181.5,1669835236484,mango,banana,0.43,0.2,-0.22999999999999998,,mango,679,686,685.8999999761581,True,u,102369.89999997616,1188.3999999761581,1669835237673,1189,HRV,HRV_0234,2022-11-30 19:09:41
69,"[{'imgObject': {}, 'id': 'seaweed', 'src': '/static/foodstim60/seaweed.jpg', 'key': 'u', 'origWidth': 410, 'origHeight': 410, 'width': 410, 'height': 410, 'widthPercent': 0.45, 'rescaleHeight': False, 'trialN': 69, 'loaded': True, 'loadedTime': 102371.5, 'positionName': 'LEFT', 'positionCoords': [247.12, 191], 'bid': 1.54}, {'imgObject': {}, 'id': 'veggieswithdip', 'src': '/static/foodstim60/veggieswithdip.jpg', 'key': 'i', 'origWidth': 409, 'origHeight': 409, 'width': 409, 'height': 409, 'widthPercent': 0.45, 'rescaleHeight': False, 'trialN': 69, 'loaded': True, 'loadedTime': 102371.69999992847, 'positionName': 'RIGHT', 'positionCoords': [711.88, 191.5], 'bid': 1.67}]",102370.09999990463,1669835237673,seaweed,veggieswithdip,1.54,1.67,0.1299999999999999,,seaweed,638,645,645.0,True,u,103520.0,1149.9000000953674,1669835238823,1150,HRV,HRV_0234,2022-11-30 19:09:41
70,"[{'imgObject': {}, 'id': 'cheerios', 'src': '/static/foodstim60/cheerios.jpg', 'key': 'u', 'origWidth': 409, 'origHeight': 410, 'width': 409, 'height': 410, 'widthPercent': 0.45, 'rescaleHeight': False, 'trialN': 70, 'loaded': True, 'loadedTime': 103522.89999997616, 'positionName': 'LEFT', 'positionCoords': [248.12, 191], 'bid': 0.5}, {'imgObject': {}, 'id': 'cocktailshrimp', 'src': '/static/foodstim60/cocktailshrimp.jpg', 'key': 'i', 'origWidth': 410, 'origHeight': 410, 'width': 410, 'height': 410, 'widthPercent': 0.45, 'rescaleHeight': False, 'trialN': 70, 'loaded': True, 'loadedTime': 103523.69999992847, 'positionName': 'RIGHT', 'positionCoords': [711.88, 191], 'bid': 0.47}]",103520.89999997616,1669835238824,cheerios,cocktailshrimp,0.5,0.47,-0.030000000000000027,,cocktailshrimp,1264.7999999523163,1272,1272.2999999523163,True,i,105298.0,1777.1000000238419,1669835240601,1777,HRV,HRV_0234,2022-11-30 19:09:41
71,"[{'imgObject': {}, 'id': 'steak', 'src': '/static/foodstim60/steak.jpg', 'key': 'u', 'origWidth': 410, 'origHeight': 410, 'width': 410, 'height': 410, 'widthPercent': 0.45, 'rescaleHeight': False, 'trialN': 71, 'loaded': True, 'loadedTime': 105300.69999992847, 'positionName': 'LEFT', 'positionCoords': [247.12, 191], 'bid': 9.57}, {'imgObject': {}, 'id': 'mac & cheese', 'src': '/static/foodstim60/mac & cheese.jpg', 'key': 'i', 'origWidth': 410, 'origHeight': 410, 'width': 410, 'height': 410, 'widthPercent': 0.45, 'rescaleHeight': False, 'trialN': 71, 'loaded': True, 'loadedTime': 105301.09999990463, 'positionName': 'RIGHT', 'positionCoords': [711.88, 191], 'bid': 6.51}]",105298.89999997616,1669835240602,steak,mac & cheese,9.57,6.51,-3.0600000000000005,,steak,679.3999999761581,686,686.5,True,u,106488.69999992847,1189.7999999523163,1669835241792,1190,HRV,HRV_0234,2022-11-30 19:09:41
72,"[{'imgObject': {}, 'id': 'kiwi', 'src': '/static/foodstim60/kiwi.jpg', 'key': 'u', 'origWidth': 410, 'origHeight': 410, 'width': 410, 'height': 410, 'widthPercent': 0.45, 'rescaleHeight': False, 'trialN': 72, 'loaded': True, 'loadedTime': 106491.19999992847, 'positionName': 'LEFT', 'positionCoords': [247.12, 191], 'bid': 0.6900000000000001}, {'imgObject': {}, 'id': 'baked potato', 'src': '/static/foodstim60/baked potato.jpg', 'key': 'i', 'origWidth': 409, 'origHeight': 410, 'width': 409, 'height': 410, 'widthPercent': 0.45, 'rescaleHeight': False, 'trialN': 72, 'loaded': True, 'loadedTime': 106491.59999990463, 'positionName': 'RIGHT', 'positionCoords': [711.88, 191], 'bid': 0.59}]",106489.29999995232,1669835241792,kiwi,baked potato,0.6900000000000001,0.59,-0.10000000000000009,,baked potato,681.2000000476837,690,690.0,True,i,107681.19999992847,1191.8999999761581,1669835242984,1192,HRV,HRV_0234,2022-11-30 19:09:41
73,"[{'imgObject': {}, 'id': 'bagel and cc', 'src': '/static/foodstim60/bagel and cc.jpg', 'key': 'u', 'origWidth': 410, 'origHeight': 410, 'width': 410, 'height': 410, 'widthPercent': 0.45, 'rescaleHeight': False, 'trialN': 73, 'loaded': True, 'loadedTime': 107682.79999995232, 'positionName': 'LEFT', 'positionCoords': [247.12, 191], 'bid': 2.23}, {'imgObject': {}, 'id': 'turkeysandwich', 'src': '/static/foodstim60/turkeysandwich.jpg', 'key': 'i', 'origWidth': 409, 'origHeight': 409, 'width': 409, 'height': 409, 'widthPercent': 0.45, 'rescaleHeight': False, 'trialN': 73, 'loaded': True, 'loadedTime': 107683.09999990463, 'positionName': 'RIGHT', 'positionCoords': [711.88, 191.5], 'bid': 7.59}]",107681.79999995232,1669835242985,bagel and cc,turkeysandwich,2.23,7.59,5.359999999999999,,turkeysandwich,793.7999999523163,800,800.7999999523163,True,i,108986.5,1304.7000000476837,1669835244289,1304,HRV,HRV_0234,2022-11-30 19:09:41
74,"[{'imgObject': {}, 'id': 'pear', 'src': '/static/foodstim60/pear.jpg', 'key': 'u', 'origWidth': 411, 'origHeight': 410, 'width': 411, 'height': 410, 'widthPercent': 0.45, 'rescaleHeight': False, 'trialN': 74, 'loaded': True, 'loadedTime': 108989.79999995232, 'positionName': 'LEFT', 'positionCoords': [246.12, 191], 'bid': 0.42}, {'imgObject': {}, 'id': 'yogurt no spoon', 'src': '/static/foodstim60/yogurt no spoon.jpg', 'key': 'i', 'origWidth': 411, 'origHeight': 410, 'width': 411, 'height': 410, 'widthPercent': 0.45, 'rescaleHeight': False, 'trialN': 74, 'loaded': True, 'loadedTime': 108990.29999995232, 'positionName': 'RIGHT', 'positionCoords': [711.88, 191], 'bid': 0.44}]",108987.19999992847,1669835244290,pear,yogurt no spoon,0.42,0.44,0.020000000000000018,,yogurt no spoon,771,778,778.1000000238419,True,i,110269.89999997616,1282.7000000476837,1669835245573,1283,HRV,HRV_0234,2022-11-30 19:09:41
75,"[{'imgObject': {}, 'id': 'sweetpotato', 'src': '/static/foodstim60/sweetpotato.jpg', 'key': 'u', 'origWidth': 410, 'origHeight': 410, 'width': 410, 'height': 410, 'widthPercent': 0.45, 'rescaleHeight': False, 'trialN': 75, 'loaded': True, 'loadedTime': 110271.89999997616, 'positionName': 'LEFT', 'positionCoords': [247.12, 191], 'bid': 2.61}, {'imgObject': {}, 'id': 'salad w chicken', 'src': '/static/foodstim60/salad w chicken.jpg', 'key': 'i', 'origWidth': 411, 'origHeight': 411, 'width': 411, 'height': 411, 'widthPercent': 0.45, 'rescaleHeight': False, 'trialN': 75, 'loaded': True, 'loadedTime': 110272.29999995232, 'positionName': 'RIGHT', 'positionCoords': [711.88, 190.5], 'bid': 8.19}]",110270.39999997616,1669835245573,sweetpotato,salad w chicken,2.61,8.19,5.58,,salad w chicken,794,801,801.0,True,i,111575.69999992847,1305.2999999523163,1669835246879,1306,HRV,HRV_0234,2022-11-30 19:09:41
76,"[{'imgObject': {}, 'id': 'granola w milk', 'src': '/static/foodstim60/granola w milk.jpg', 'key': 'u', 'origWidth': 410, 'origHeight': 410, 'width': 410, 'height': 410, 'widthPercent': 0.45, 'rescaleHeight': False, 'trialN': 76, 'loaded': True, 'loadedTime': 111578.89999997616, 'positionName': 'LEFT', 'positionCoords': [247.12, 191], 'bid': 0.5}, {'imgObject': {}, 'id': 'chickenfingers', 'src': '/static/foodstim60/chickenfingers.jpg', 'key': 'i', 'origWidth': 410, 'origHeight': 410, 'width': 410, 'height': 410, 'widthPercent': 0.45, 'rescaleHeight': False, 'trialN': 76, 'loaded': True, 'loadedTime': 111579.39999997616, 'positionName': 'RIGHT', 'positionCoords': [711.88, 191], 'bid': 0.56}]",111576.39999997616,1669835246879,granola w milk,chickenfingers,0.5,0.56,0.06000000000000005,,chickenfingers,724.5,732,732.0,True,i,112810.5,1234.1000000238419,1669835248113,1234,HRV,HRV_0234,2022-11-30 19:09:41
77,"[{'imgObject': {}, 'id': 'chickenfingers', 'src': '/static/foodstim60/chickenfingers.jpg', 'key': 'u', 'origWidth': 410, 'origHeight': 410, 'width': 410, 'height': 410, 'widthPercent': 0.45, 'rescaleHeight': False, 'trialN': 77, 'loaded': True, 'loadedTime': 112813.5, 'positionName': 'LEFT', 'positionCoords': [247.12, 191], 'bid': 0.56}, {'imgObject': {}, 'id': 'burger', 'src': '/static/foodstim60/burger.jpg', 'key': 'i', 'origWidth': 409, 'origHeight': 409, 'width': 409, 'height': 409, 'widthPercent': 0.45, 'rescaleHeight': False, 'trialN': 77, 'loaded': True, 'loadedTime': 112814, 'positionName': 'RIGHT', 'positionCoords': [711.88, 191.5], 'bid': 8.99}]",112811.19999992847,1669835248114,chickenfingers,burger,0.56,8.99,8.43,,chickenfingers,569.5,576,576.3000000715256,True,u,113892.59999990463,1081.3999999761581,1669835249195,1081,HRV,HRV_0234,2022-11-30 19:09:41
78,"[{'imgObject': {}, 'id': 'froot loops w milk', 'src': '/static/foodstim60/froot loops w milk.jpg', 'key': 'u', 'origWidth': 410, 'origHeight': 410, 'width': 410, 'height': 410, 'widthPercent': 0.45, 'rescaleHeight': False, 'trialN': 78, 'loaded': True, 'loadedTime': 113895.5, 'positionName': 'LEFT', 'positionCoords': [247.12, 191], 'bid': 0.47}, {'imgObject': {}, 'id': 'hashbrowns', 'src': '/static/foodstim60/hashbrowns.jpg', 'key': 'i', 'origWidth': 411, 'origHeight': 410, 'width': 411, 'height': 410, 'widthPercent': 0.45, 'rescaleHeight': False, 'trialN': 78, 'loaded': True, 'loadedTime': 113895.89999997616, 'positionName': 'RIGHT', 'positionCoords': [711.88, 191], 'bid': 0.49}]",113893.29999995232,1669835249196,froot loops w milk,hashbrowns,0.47,0.49,0.020000000000000018,,hashbrowns,837.2999999523163,844,844.0,True,i,115238.09999990463,1344.7999999523163,1669835250541,1345,HRV,HRV_0234,2022-11-30 19:09:41
79,"[{'imgObject': {}, 'id': 'rigatoni', 'src': '/static/foodstim60/rigatoni.jpg', 'key': 'u', 'origWidth': 411, 'origHeight': 411, 'width': 411, 'height': 411, 'widthPercent': 0.45, 'rescaleHeight': False, 'trialN': 79, 'loaded': True, 'loadedTime': 115241.59999990463, 'positionName': 'LEFT', 'positionCoords': [246.12, 190.5], 'bid': 0.5}, {'imgObject': {}, 'id': 'seaweed', 'src': '/static/foodstim60/seaweed.jpg', 'key': 'i', 'origWidth': 410, 'origHeight': 410, 'width': 410, 'height': 410, 'widthPercent': 0.45, 'rescaleHeight': False, 'trialN': 79, 'loaded': True, 'loadedTime': 115242.5, 'positionName': 'RIGHT', 'positionCoords': [711.88, 191], 'bid': 1.54}]",115239.0,1669835250542,rigatoni,seaweed,0.5,1.54,1.04,,seaweed,774.1999999284744,781,781.1999999284744,True,i,116522.39999997616,1283.3999999761581,1669835251825,1283,HRV,HRV_0234,2022-11-30 19:09:41
80,"[{'imgObject': {}, 'id': 'yogurt no spoon', 'src': '/static/foodstim60/yogurt no spoon.jpg', 'key': 'u', 'origWidth': 411, 'origHeight': 410, 'width': 411, 'height': 410, 'widthPercent': 0.45, 'rescaleHeight': False, 'trialN': 80, 'loaded': True, 'loadedTime': 116525.19999992847, 'positionName': 'LEFT', 'positionCoords': [246.12, 191], 'bid': 0.44}, {'imgObject': {}, 'id': 'cherry tomato', 'src': '/static/foodstim60/cherry tomato.jpg', 'key': 'i', 'origWidth': 410, 'origHeight': 410, 'width': 410, 'height': 410, 'widthPercent': 0.45, 'rescaleHeight': False, 'trialN': 80, 'loaded': True, 'loadedTime': 116526.29999995232, 'positionName': 'RIGHT', 'positionCoords': [711.88, 191], 'bid': 0.31}]",116523.09999990463,1669835251826,yogurt no spoon,cherry tomato,0.44,0.31,-0.13,,yogurt no spoon,592.8000000715256,600,599.7000000476837,True,u,117623.09999990463,1100.0,1669835252926,1100,HRV,HRV_0234,2022-11-30 19:09:41
81,"[{'imgObject': {}, 'id': 'olives', 'src': '/static/foodstim60/olives.jpg', 'key': 'u', 'origWidth': 410, 'origHeight': 410, 'width': 410, 'height': 410, 'widthPercent': 0.45, 'rescaleHeight': False, 'trialN': 81, 'loaded': True, 'loadedTime': 117625.79999995232, 'positionName': 'LEFT', 'positionCoords': [247.12, 191], 'bid': 3.29}, {'imgObject': {}, 'id': 'eggs', 'src': '/static/foodstim60/eggs.jpg', 'key': 'i', 'origWidth': 409, 'origHeight': 409, 'width': 409, 'height': 409, 'widthPercent': 0.45, 'rescaleHeight': False, 'trialN': 81, 'loaded': True, 'loadedTime': 117627.09999990463, 'positionName': 'RIGHT', 'positionCoords': [711.88, 191.5], 'bid': 2.53}]",117623.79999995232,1669835252927,olives,eggs,3.29,2.53,-0.7600000000000002,,olives,594.3999999761581,601,601.6000000238419,True,u,118729.59999990463,1105.7999999523163,1669835254032,1105,HRV,HRV_0234,2022-11-30 19:09:41
82,"[{'imgObject': {}, 'id': 'turkeysandwich', 'src': '/static/foodstim60/turkeysandwich.jpg', 'key': 'u', 'origWidth': 409, 'origHeight': 409, 'width': 409, 'height': 409, 'widthPercent': 0.45, 'rescaleHeight': False, 'trialN': 82, 'loaded': True, 'loadedTime': 118732.19999992847, 'positionName': 'LEFT', 'positionCoords': [248.12, 191.5], 'bid': 7.59}, {'imgObject': {}, 'id': 'salmon', 'src': '/static/foodstim60/salmon.jpg', 'key': 'i', 'origWidth': 410, 'origHeight': 409, 'width': 410, 'height': 409, 'widthPercent': 0.45, 'rescaleHeight': False, 'trialN': 82, 'loaded': True, 'loadedTime': 118732.59999990463, 'positionName': 'RIGHT', 'positionCoords': [711.88, 191.5], 'bid': 8.11}]",118730.19999992847,1669835254033,turkeysandwich,salmon,7.59,8.11,0.5199999999999996,,salmon,1108.2000000476837,1116,1115.5,True,i,120349.0,1618.8000000715256,1669835255652,1619,HRV,HRV_0234,2022-11-30 19:09:41
83,"[{'imgObject': {}, 'id': 'chicken nuggets2', 'src': '/static/foodstim60/chicken nuggets2.jpg', 'key': 'u', 'origWidth': 410, 'origHeight': 409, 'width': 410, 'height': 409, 'widthPercent': 0.45, 'rescaleHeight': False, 'trialN': 83, 'loaded': True, 'loadedTime': 120352.39999997616, 'positionName': 'LEFT', 'positionCoords': [247.12, 191.5], 'bid': 0.3}, {'imgObject': {}, 'id': 'pear', 'src': '/static/foodstim60/pear.jpg', 'key': 'i', 'origWidth': 411, 'origHeight': 410, 'width': 411, 'height': 410, 'widthPercent': 0.45, 'rescaleHeight': False, 'trialN': 83, 'loaded': True, 'loadedTime': 120352.69999992847, 'positionName': 'RIGHT', 'positionCoords': [711.88, 191], 'bid': 0.42}]",120349.69999992847,1669835255653,chicken nuggets2,pear,0.3,0.42,0.12,,chicken nuggets2,591.1000000238419,598,598.6000000238419,True,u,121448.79999995232,1099.1000000238419,1669835256752,1099,HRV,HRV_0234,2022-11-30 19:09:41
84,"[{'imgObject': {}, 'id': 'kiwi', 'src': '/static/foodstim60/kiwi.jpg', 'key': 'u', 'origWidth': 410, 'origHeight': 410, 'width': 410, 'height': 410, 'widthPercent': 0.45, 'rescaleHeight': False, 'trialN': 84, 'loaded': True, 'loadedTime': 121451.19999992847, 'positionName': 'LEFT', 'positionCoords': [247.12, 191], 'bid': 0.6900000000000001}, {'imgObject': {}, 'id': 'granola w milk', 'src': '/static/foodstim60/granola w milk.jpg', 'key': 'i', 'origWidth': 410, 'origHeight': 410, 'width': 410, 'height': 410, 'widthPercent': 0.45, 'rescaleHeight': False, 'trialN': 84, 'loaded': True, 'loadedTime': 121452.39999997616, 'positionName': 'RIGHT', 'positionCoords': [711.88, 191], 'bid': 0.5}]",121449.19999992847,1669835256752,kiwi,granola w milk,0.6900000000000001,0.5,-0.19000000000000006,,kiwi,706.6000000238419,713,713.2000000476837,True,u,122667.39999997616,1218.2000000476837,1669835257970,1218,HRV,HRV_0234,2022-11-30 19:09:41
85,"[{'imgObject': {}, 'id': 'cherry tomato', 'src': '/static/foodstim60/cherry tomato.jpg', 'key': 'u', 'origWidth': 410, 'origHeight': 410, 'width': 410, 'height': 410, 'widthPercent': 0.45, 'rescaleHeight': False, 'trialN': 85, 'loaded': True, 'loadedTime': 122670.5, 'positionName': 'LEFT', 'positionCoords': [247.12, 191], 'bid': 0.31}, {'imgObject': {}, 'id': 'veggieswithdip', 'src': '/static/foodstim60/veggieswithdip.jpg', 'key': 'i', 'origWidth': 409, 'origHeight': 409, 'width': 409, 'height': 409, 'widthPercent': 0.45, 'rescaleHeight': False, 'trialN': 85, 'loaded': True, 'loadedTime': 122671.59999990463, 'positionName': 'RIGHT', 'positionCoords': [711.88, 191.5], 'bid': 1.67}]",122668.19999992847,1669835257971,cherry tomato,veggieswithdip,0.31,1.67,1.3599999999999999,,veggieswithdip,657.5,665,665.1000000238419,True,i,123834.19999992847,1166.0,1669835259137,1166,HRV,HRV_0234,2022-11-30 19:09:41
86,"[{'imgObject': {}, 'id': 'avocado', 'src': '/static/foodstim60/avocado.jpg', 'key': 'u', 'origWidth': 409, 'origHeight': 409, 'width': 409, 'height': 409, 'widthPercent': 0.45, 'rescaleHeight': False, 'trialN': 86, 'loaded': True, 'loadedTime': 123836.89999997616, 'positionName': 'LEFT', 'positionCoords': [248.12, 191.5], 'bid': 4.18}, {'imgObject': {}, 'id': 'burrito', 'src': '/static/foodstim60/burrito.jpg', 'key': 'i', 'origWidth': 410, 'origHeight': 410, 'width': 410, 'height': 410, 'widthPercent': 0.45, 'rescaleHeight': False, 'trialN': 86, 'loaded': True, 'loadedTime': 123837.39999997616, 'positionName': 'RIGHT', 'positionCoords': [711.88, 191], 'bid': 4.67}]",123834.89999997616,1669835259138,avocado,burrito,4.18,4.67,0.4900000000000002,,burrito,885.6000000238419,889,889.6999999284744,True,i,125228.59999990463,1393.6999999284744,1669835260531,1393,HRV,HRV_0234,2022-11-30 19:09:41
87,"[{'imgObject': {}, 'id': 'chicken nuggets2', 'src': '/static/foodstim60/chicken nuggets2.jpg', 'key': 'u', 'origWidth': 410, 'origHeight': 409, 'width': 410, 'height': 409, 'widthPercent': 0.45, 'rescaleHeight': False, 'trialN': 87, 'loaded': True, 'loadedTime': 125231.5, 'positionName': 'LEFT', 'positionCoords': [247.12, 191.5], 'bid': 0.3}, {'imgObject': {}, 'id': 'luckycharms', 'src': '/static/foodstim60/luckycharms.jpg', 'key': 'i', 'origWidth': 410, 'origHeight': 409, 'width': 410, 'height': 409, 'widthPercent': 0.45, 'rescaleHeight': False, 'trialN': 87, 'loaded': True, 'loadedTime': 125231.79999995232, 'positionName': 'RIGHT', 'positionCoords': [711.88, 191.5], 'bid': 0.25}]",125229.19999992847,1669835260532,chicken nuggets2,luckycharms,0.3,0.25,-0.04999999999999999,,chicken nuggets2,571.3999999761581,578,578.3999999761581,True,u,126309.89999997616,1080.7000000476837,1669835261613,1081,HRV,HRV_0234,2022-11-30 19:09:41
88,"[{'imgObject': {}, 'id': 'steak', 'src': '/static/foodstim60/steak.jpg', 'key': 'u', 'origWidth': 410, 'origHeight': 410, 'width': 410, 'height': 410, 'widthPercent': 0.45, 'rescaleHeight': False, 'trialN': 88, 'loaded': True, 'loadedTime': 126313, 'positionName': 'LEFT', 'positionCoords': [247.12, 191], 'bid': 9.57}, {'imgObject': {}, 'id': 'baked potato', 'src': '/static/foodstim60/baked potato.jpg', 'key': 'i', 'origWidth': 409, 'origHeight': 410, 'width': 409, 'height': 410, 'widthPercent': 0.45, 'rescaleHeight': False, 'trialN': 88, 'loaded': True, 'loadedTime': 126313.69999992847, 'positionName': 'RIGHT', 'positionCoords': [711.88, 191], 'bid': 0.59}]",126311.0,1669835261614,steak,baked potato,9.57,0.59,-8.98,,steak,794.6999999284744,802,802.1999999284744,True,u,127618.0,1307.0,1669835262921,1307,HRV,HRV_0234,2022-11-30 19:09:41
89,"[{'imgObject': {}, 'id': 'yogurt no spoon', 'src': '/static/foodstim60/yogurt no spoon.jpg', 'key': 'u', 'origWidth': 411, 'origHeight': 410, 'width': 411, 'height': 410, 'widthPercent': 0.45, 'rescaleHeight': False, 'trialN': 89, 'loaded': True, 'loadedTime': 127619.89999997616, 'positionName': 'LEFT', 'positionCoords': [246.12, 191], 'bid': 0.44}, {'imgObject': {}, 'id': 'mango', 'src': '/static/foodstim60/mango.jpg', 'key': 'i', 'origWidth': 411, 'origHeight': 411, 'width': 411, 'height': 411, 'widthPercent': 0.45, 'rescaleHeight': False, 'trialN': 89, 'loaded': True, 'loadedTime': 127621.5, 'positionName': 'RIGHT', 'positionCoords': [711.88, 190.5], 'bid': 0.43}]",127618.79999995232,1669835262922,yogurt no spoon,mango,0.44,0.43,-0.010000000000000009,,yogurt no spoon,702.2000000476837,709,709.0,True,u,128828.79999995232,1210.0,1669835264132,1210,HRV,HRV_0234,2022-11-30 19:09:41
90,"[{'imgObject': {}, 'id': 'turkeysandwich', 'src': '/static/foodstim60/turkeysandwich.jpg', 'key': 'u', 'origWidth': 409, 'origHeight': 409, 'width': 409, 'height': 409, 'widthPercent': 0.45, 'rescaleHeight': False, 'trialN': 90, 'loaded': True, 'loadedTime': 134921.79999995232, 'positionName': 'LEFT', 'positionCoords': [248.12, 231], 'bid': 7.59}, {'imgObject': {}, 'id': 'omelette', 'src': '/static/foodstim60/omelette.jpg', 'key': 'i', 'origWidth': 410, 'origHeight': 409, 'width': 410, 'height': 409, 'widthPercent': 0.45, 'rescaleHeight': False, 'trialN': 90, 'loaded': True, 'loadedTime': 134922.19999992847, 'positionName': 'RIGHT', 'positionCoords': [711.88, 231], 'bid': 7.03}]",134920.59999990463,1669835270223,turkeysandwich,omelette,7.59,7.03,-0.5599999999999996,"[{'event': 'fullscreenchange', 'details': 'fullscreenenter', 'performance time': 134921.19999992847, 'date time': 1669835270224}, {'event': 'fullscreenchange', 'details': 'fullscreenexit', 'performance time': 137423.59999990463, 'date time': 1669835272726}]",NaN,NaN,NaN,,False,NaN,138928.69999992847,4008.100000023842,1669835274231,4008,HRV,HRV_0234,2022-11-30 19:09:41
91,"[{'imgObject': {}, 'id': 'raisin bran w milk', 'src': '/static/foodstim60/raisin bran w milk.jpg', 'key': 'u', 'origWidth': 411, 'origHeight': 411, 'width': 411, 'height': 411, 'widthPercent': 0.45, 'rescaleHeight': False, 'trialN': 91, 'loaded': True, 'loadedTime': 138929.39999997616, 'positionName': 'LEFT', 'positionCoords': [246.12, 190.5], 'bid': 0.24}, {'imgObject': {}, 'id': 'cocktailshrimp', 'src': '/static/foodstim60/cocktailshrimp.jpg', 'key': 'i', 'origWidth': 410, 'origHeight': 410, 'width': 410, 'height': 410, 'widthPercent': 0.45, 'rescaleHeight': False, 'trialN': 91, 'loaded': True, 'loadedTime': 138929.59999990463, 'positionName': 'RIGHT', 'positionCoords': [711.88, 191], 'bid': 0.47}]",138928.89999997616,1669835274232,raisin bran w milk,cocktailshrimp,0.24,0.47,0.22999999999999998,,cocktailshrimp,800.5,807,807.6999999284744,True,i,140237.09999990463,1308.1999999284744,1669835275540,1308,HRV,HRV_0234,2022-11-30 19:09:41
92,"[{'imgObject': {}, 'id': 'fruitsalad', 'src': '/static/foodstim60/fruitsalad.jpg', 'key': 'u', 'origWidth': 410, 'origHeight': 410, 'width': 410, 'height': 410, 'widthPercent': 0.45, 'rescaleHeight': False, 'trialN': 92, 'loaded': True, 'loadedTime': 140238.89999997616, 'positionName': 'LEFT', 'positionCoords': [247.12, 191], 'bid': 0.5}, {'imgObject': {}, 'id': 'edamame', 'src': '/static/foodstim60/edamame.jpg', 'key': 'i', 'origWidth': 409, 'origHeight': 410, 'width': 409, 'height': 410, 'widthPercent': 0.45, 'rescaleHeight': False, 'trialN': 92, 'loaded': True, 'loadedTime': 140240.59999990463, 'positionName': 'RIGHT', 'positionCoords': [711.88, 191], 'bid': 0.47}]",140237.79999995232,1669835275541,fruitsalad,edamame,0.5,0.47,-0.030000000000000027,,fruitsalad,705.6000000238419,712,712.7000000476837,True,u,141455.29999995232,1217.5,1669835276758,1217,HRV,HRV_0234,2022-11-30 19:09:41
93,"[{'imgObject': {}, 'id': 'luckycharms', 'src': '/static/foodstim60/luckycharms.jpg', 'key': 'u', 'origWidth': 410, 'origHeight': 409, 'width': 410, 'height': 409, 'widthPercent': 0.45, 'rescaleHeight': False, 'trialN': 93, 'loaded': True, 'loadedTime': 141458.89999997616, 'positionName': 'LEFT', 'positionCoords': [247.12, 191.5], 'bid': 0.25}, {'imgObject': {}, 'id': 'banana', 'src': '/static/foodstim60/banana.jpg', 'key': 'i', 'origWidth': 410, 'origHeight': 410, 'width': 410, 'height': 410, 'widthPercent': 0.45, 'rescaleHeight': False, 'trialN': 93, 'loaded': True, 'loadedTime': 141459.39999997616, 'positionName': 'RIGHT', 'positionCoords': [711.88, 191], 'bid': 0.2}]",141456.29999995232,1669835276759,luckycharms,banana,0.25,0.2,-0.04999999999999999,,banana,657,664,664.1000000238419,True,i,142625.0,1168.7000000476837,1669835277928,1169,HRV,HRV_0234,2022-11-30 19:09:41
94,"[{'imgObject': {}, 'id': 'cherries', 'src': '/static/foodstim60/cherries.jpg', 'key': 'u', 'origWidth': 410, 'origHeight': 411, 'width': 410, 'height': 411, 'widthPercent': 0.45, 'rescaleHeight': False, 'trialN': 94, 'loaded': True, 'loadedTime': 142627.69999992847, 'positionName': 'LEFT', 'positionCoords': [247.12, 190.5], 'bid': 0.4}, {'imgObject': {}, 'id': 'cherry tomato', 'src': '/static/foodstim60/cherry tomato.jpg', 'key': 'i', 'origWidth': 410, 'origHeight': 410, 'width': 410, 'height': 410, 'widthPercent': 0.45, 'rescaleHeight': False, 'trialN': 94, 'loaded': True, 'loadedTime': 142628.09999990463, 'positionName': 'RIGHT', 'positionCoords': [711.88, 191], 'bid': 0.31}]",142625.79999995232,1669835277928,cherries,cherry tomato,0.4,0.31,-0.09000000000000002,,cherries,882.3999999761581,889,888.5,True,u,144019.39999997616,1393.6000000238419,1669835279322,1394,HRV,HRV_0234,2022-11-30 19:09:41
95,"[{'imgObject': {}, 'id': 'tacos', 'src': '/static/foodstim60/tacos.jpg', 'key': 'u', 'origWidth': 411, 'origHeight': 411, 'width': 411, 'height': 411, 'widthPercent': 0.45, 'rescaleHeight': False, 'trialN': 95, 'loaded': True, 'loadedTime': 144022.19999992847, 'positionName': 'LEFT', 'positionCoords': [246.12, 190.5], 'bid': 6.16}, {'imgObject': {}, 'id': 'turkeysandwich', 'src': '/static/foodstim60/turkeysandwich.jpg', 'key': 'i', 'origWidth': 409, 'origHeight': 409, 'width': 409, 'height': 409, 'widthPercent': 0.45, 'rescaleHeight': False, 'trialN': 95, 'loaded': True, 'loadedTime': 144022.79999995232, 'positionName': 'RIGHT', 'positionCoords': [711.88, 191.5], 'bid': 7.59}]",144019.89999997616,1669835279323,tacos,turkeysandwich,6.16,7.59,1.4299999999999997,,tacos,680.7999999523163,688,688.6000000238419,True,u,145210.39999997616,1190.5,1669835280513,1190,HRV,HRV_0234,2022-11-30 19:09:41
96,"[{'imgObject': {}, 'id': 'eggsalad', 'src': '/static/foodstim60/eggsalad.jpg', 'key': 'u', 'origWidth': 410, 'origHeight': 409, 'width': 410, 'height': 409, 'widthPercent': 0.45, 'rescaleHeight': False, 'trialN': 96, 'loaded': True, 'loadedTime': 145213.29999995232, 'positionName': 'LEFT', 'positionCoords': [247.12, 191.5], 'bid': 1.89}, {'imgObject': {}, 'id': 'chickenfingers', 'src': '/static/foodstim60/chickenfingers.jpg', 'key': 'i', 'origWidth': 410, 'origHeight': 410, 'width': 410, 'height': 410, 'widthPercent': 0.45, 'rescaleHeight': False, 'trialN': 96, 'loaded': True, 'loadedTime': 145213.69999992847, 'positionName': 'RIGHT', 'positionCoords': [711.88, 191], 'bid': 0.56}]",145211.09999990463,1669835280514,eggsalad,chickenfingers,1.89,0.56,-1.3299999999999998,,chickenfingers,884.8000000715256,892,891.9000000953674,True,i,146607.29999995232,1396.2000000476837,1669835281910,1396,HRV,HRV_0234,2022-11-30 19:09:41
97,"[{'imgObject': {}, 'id': 'salad w chicken', 'src': '/static/foodstim60/salad w chicken.jpg', 'key': 'u', 'origWidth': 411, 'origHeight': 411, 'width': 411, 'height': 411, 'widthPercent': 0.45, 'rescaleHeight': False, 'trialN': 97, 'loaded': True, 'loadedTime': 146610.19999992847, 'positionName': 'LEFT', 'positionCoords': [246.12, 190.5], 'bid': 8.19}, {'imgObject': {}, 'id': 'turkey sandwich', 'src': '/static/foodstim60/turkey sandwich.jpg', 'key': 'i', 'origWidth': 409, 'origHeight': 409, 'width': 409, 'height': 409, 'widthPercent': 0.45, 'rescaleHeight': False, 'trialN': 97, 'loaded': True, 'loadedTime': 146610.79999995232, 'positionName': 'RIGHT', 'positionCoords': [711.88, 191.5], 'bid': 6.84}]",146608.09999990463,1669835281911,salad w chicken,turkey sandwich,8.19,6.84,-1.3499999999999996,,salad w chicken,590.1000000238419,597,596.8000000715256,True,u,147708.69999992847,1100.6000000238419,1669835283011,1100,HRV,HRV_0234,2022-11-30 19:09:41
98,"[{'imgObject': {}, 'id': 'sweetpotato', 'src': '/static/foodstim60/sweetpotato.jpg', 'key': 'u', 'origWidth': 410, 'origHeight': 410, 'width': 410, 'height': 410, 'widthPercent': 0.45, 'rescaleHeight': False, 'trialN': 98, 'loaded': True, 'loadedTime': 147711.19999992847, 'positionName': 'LEFT', 'positionCoords': [247.12, 191], 'bid': 2.61}, {'imgObject': {}, 'id': 'yogurt no spoon', 'src': '/static/foodstim60/yogurt no spoon.jpg', 'key': 'i', 'origWidth': 411, 'origHeight': 410, 'width': 411, 'height': 410, 'widthPercent': 0.45, 'rescaleHeight': False, 'trialN': 98, 'loaded': True, 'loadedTime': 147711.59999990463, 'positionName': 'RIGHT', 'positionCoords': [711.88, 191], 'bid': 0.44}]",147709.19999992847,1669835283012,sweetpotato,yogurt no spoon,2.61,0.44,-2.17,,sweetpotato,861.7000000476837,870,869.6000000238419,True,u,149082.19999992847,1373.0,1669835284385,1373,HRV,HRV_0234,2022-11-30 19:09:41
99,"[{'imgObject': {}, 'id': 'Tribe humus pita', 'src': '/static/foodstim60/Tribe humus pita.jpg', 'key': 'u', 'origWidth': 411, 'origHeight': 411, 'width': 411, 'height': 411, 'widthPercent': 0.45, 'rescaleHeight': False, 'trialN': 99, 'loaded': True, 'loadedTime': 149085.09999990463, 'positionName': 'LEFT', 'positionCoords': [246.12, 190.5], 'bid': 1.82}, {'imgObject': {}, 'id': 'olives', 'src': '/static/foodstim60/olives.jpg', 'key': 'i', 'origWidth': 410, 'origHeight': 410, 'width': 410, 'height': 410, 'widthPercent': 0.45, 'rescaleHeight': False, 'trialN': 99, 'loaded': True, 'loadedTime': 149086.09999990463, 'positionName': 'RIGHT', 'positionCoords': [711.88, 191], 'bid': 3.29}]",149082.79999995232,1669835284386,Tribe humus pita,olives,1.82,3.29,1.47,,Tribe humus pita,657.8999999761581,662,662.2000000476837,True,u,150247.0,1164.2000000476837,1669835285550,1164,HRV,HRV_0234,2022-11-30 19:09:41
100,"[{'imgObject': {}, 'id': 'roastedpotatoes', 'src': '/static/foodstim60/roastedpotatoes.jpg', 'key': 'u', 'origWidth': 409, 'origHeight': 410, 'width': 409, 'height': 410, 'widthPercent': 0.45, 'rescaleHeight': False, 'trialN': 100, 'loaded': True, 'loadedTime': 150248.39999997616, 'positionName': 'LEFT', 'positionCoords': [248.12, 191], 'bid': 6.9}, {'imgObject': {}, 'id': 'hashbrowns', 'src': '/static/foodstim60/hashbrowns.jpg', 'key': 'i', 'origWidth': 411, 'origHeight': 410, 'width': 411, 'height': 410, 'widthPercent': 0.45, 'rescaleHeight': False, 'trialN': 100, 'loaded': True, 'loadedTime': 150248.69999992847, 'positionName': 'RIGHT', 'positionCoords': [711.88, 191], 'bid': 0.49}]",150247.39999997616,1669835285550,roastedpotatoes,hashbrowns,6.9,0.49,-6.41,,roastedpotatoes,820.8999999761581,828,828.2999999523163,True,u,151580.09999990463,1332.6999999284744,1669835286883,1333,HRV,HRV_0234,2022-11-30 19:09:41
101,"[{'imgObject': {}, 'id': 'chicken nuggets2', 'src': '/static/foodstim60/chicken nuggets2.jpg', 'key': 'u', 'origWidth': 410, 'origHeight': 409, 'width': 410, 'height': 409, 'widthPercent': 0.45, 'rescaleHeight': False, 'trialN': 101, 'loaded': True, 'loadedTime': 151582.79999995232, 'positionName': 'LEFT', 'positionCoords': [247.12, 191.5], 'bid': 0.3}, {'imgObject': {}, 'id': 'orange slices', 'src': '/static/foodstim60/orange slices.jpg', 'key': 'i', 'origWidth': 409, 'origHeight': 410, 'width': 409, 'height': 410, 'widthPercent': 0.45, 'rescaleHeight': False, 'trialN': 101, 'loaded': True, 'loadedTime': 151583.19999992847, 'positionName': 'RIGHT', 'positionCoords': [711.88, 191], 'bid': 0.46}]",151580.79999995232,1669835286884,chicken nuggets2,orange slices,0.3,0.46,0.16000000000000003,,chicken nuggets2,792.5,799,799.5,True,u,152881.79999995232,1301.0,1669835288185,1301,HRV,HRV_0234,2022-11-30 19:09:41
102,"[{'imgObject': {}, 'id': 'seaweed', 'src': '/static/foodstim60/seaweed.jpg', 'key': 'u', 'origWidth': 410, 'origHeight': 410, 'width': 410, 'height': 410, 'widthPercent': 0.45, 'rescaleHeight': False, 'trialN': 102, 'loaded': True, 'loadedTime': 152883.29999995232, 'positionName': 'LEFT', 'positionCoords': [247.12, 191], 'bid': 1.54}, {'imgObject': {}, 'id': 'popsicles', 'src': '/static/foodstim60/popsicles.jpg', 'key': 'i', 'origWidth': 410, 'origHeight': 410, 'width': 410, 'height': 410, 'widthPercent': 0.45, 'rescaleHeight': False, 'trialN': 102, 'loaded': True, 'loadedTime': 152883.5, 'positionName': 'RIGHT', 'positionCoords': [711.88, 191], 'bid': 0.31}]",152882.39999997616,1669835288185,seaweed,popsicles,1.54,0.31,-1.23,,seaweed,616.1000000238419,620,620.1999999284744,True,u,154006.5,1124.1000000238419,1669835289309,1124,HRV,HRV_0234,2022-11-30 19:09:41
103,"[{'imgObject': {}, 'id': 'banana', 'src': '/static/foodstim60/banana.jpg', 'key': 'u', 'origWidth': 410, 'origHeight': 410, 'width': 410, 'height': 410, 'widthPercent': 0.45, 'rescaleHeight': False, 'trialN': 103, 'loaded': True, 'loadedTime': 154008.59999990463, 'positionName': 'LEFT', 'positionCoords': [247.12, 191], 'bid': 0.2}, {'imgObject': {}, 'id': 'raisin bran w milk', 'src': '/static/foodstim60/raisin bran w milk.jpg', 'key': 'i', 'origWidth': 411, 'origHeight': 411, 'width': 411, 'height': 411, 'widthPercent': 0.45, 'rescaleHeight': False, 'trialN': 103, 'loaded': True, 'loadedTime': 154008.79999995232, 'positionName': 'RIGHT', 'positionCoords': [711.88, 190.5], 'bid': 0.24}]",154007.5,1669835289310,banana,raisin bran w milk,0.2,0.24,0.03999999999999998,,banana,728.5,736,736.0999999046326,True,u,155245.19999992847,1237.6999999284744,1669835290548,1238,HRV,HRV_0234,2022-11-30 19:09:41
104,"[{'imgObject': {}, 'id': 'apple slices', 'src': '/static/foodstim60/apple slices.jpg', 'key': 'u', 'origWidth': 409, 'origHeight': 410, 'width': 409, 'height': 410, 'widthPercent': 0.45, 'rescaleHeight': False, 'trialN': 104, 'loaded': True, 'loadedTime': 155248.19999992847, 'positionName': 'LEFT', 'positionCoords': [248.12, 191], 'bid': 0.49}, {'imgObject': {}, 'id': 'mashed potato', 'src': '/static/foodstim60/mashed potato.jpg', 'key': 'i', 'origWidth': 409, 'origHeight': 409, 'width': 409, 'height': 409, 'widthPercent': 0.45, 'rescaleHeight': False, 'trialN': 104, 'loaded': True, 'loadedTime': 155249.19999992847, 'positionName': 'RIGHT', 'positionCoords': [711.88, 191.5], 'bid': 0.65}]",155245.89999997616,1669835290549,apple slices,mashed potato,0.49,0.65,0.16000000000000003,,mashed potato,795,799,799.5,True,i,156549.5,1303.6000000238419,1669835291852,1303,HRV,HRV_0234,2022-11-30 19:09:41
105,"[{'imgObject': {}, 'id': 'cherries', 'src': '/static/foodstim60/cherries.jpg', 'key': 'u', 'origWidth': 410, 'origHeight': 411, 'width': 410, 'height': 411, 'widthPercent': 0.45, 'rescaleHeight': False, 'trialN': 105, 'loaded': True, 'loadedTime': 156552, 'positionName': 'LEFT', 'positionCoords': [247.12, 190.5], 'bid': 0.4}, {'imgObject': {}, 'id': 'edamame', 'src': '/static/foodstim60/edamame.jpg', 'key': 'i', 'origWidth': 409, 'origHeight': 410, 'width': 409, 'height': 410, 'widthPercent': 0.45, 'rescaleHeight': False, 'trialN': 105, 'loaded': True, 'loadedTime': 156552.79999995232, 'positionName': 'RIGHT', 'positionCoords': [711.88, 191], 'bid': 0.47}]",156549.89999997616,1669835291853,cherries,edamame,0.4,0.47,0.06999999999999995,,cherries,571,579,579.5,True,u,157629.89999997616,1080.0,1669835292933,1080,HRV,HRV_0234,2022-11-30 19:09:41
106,"[{'imgObject': {}, 'id': 'avocado', 'src': '/static/foodstim60/avocado.jpg', 'key': 'u', 'origWidth': 409, 'origHeight': 409, 'width': 409, 'height': 409, 'widthPercent': 0.45, 'rescaleHeight': False, 'trialN': 106, 'loaded': True, 'loadedTime': 157632.59999990463, 'positionName': 'LEFT', 'positionCoords': [248.12, 191.5], 'bid': 4.18}, {'imgObject': {}, 'id': 'steak', 'src': '/static/foodstim60/steak.jpg', 'key': 'i', 'origWidth': 410, 'origHeight': 410, 'width': 410, 'height': 410, 'widthPercent': 0.45, 'rescaleHeight': False, 'trialN': 106, 'loaded': True, 'loadedTime': 157633.39999997616, 'positionName': 'RIGHT', 'positionCoords': [711.88, 191], 'bid': 9.57}]",157630.59999990463,1669835292933,avocado,steak,4.18,9.57,5.390000000000001,,steak,525.4000000953674,533,532.8000000715256,True,i,158664.29999995232,1033.7000000476837,1669835293967,1034,HRV,HRV_0234,2022-11-30 19:09:41
107,"[{'imgObject': {}, 'id': 'baked potato', 'src': '/static/foodstim60/baked potato.jpg', 'key': 'u', 'origWidth': 409, 'origHeight': 410, 'width': 409, 'height': 410, 'widthPercent': 0.45, 'rescaleHeight': False, 'trialN': 107, 'loaded': True, 'loadedTime': 158667.09999990463, 'positionName': 'LEFT', 'positionCoords': [248.12, 191], 'bid': 0.59}, {'imgObject': {}, 'id': 'shreddedwheatwithmilk', 'src': '/static/foodstim60/shreddedwheatwithmilk.jpg', 'key': 'i', 'origWidth': 410, 'origHeight': 410, 'width': 410, 'height': 410, 'widthPercent': 0.45, 'rescaleHeight': False, 'trialN': 107, 'loaded': True, 'loadedTime': 158668.5, 'positionName': 'RIGHT', 'positionCoords': [711.88, 191], 'bid': 0.58}]",158665.0,1669835293968,baked potato,shreddedwheatwithmilk,0.59,0.58,-0.010000000000000009,,baked potato,571,578,578.5,True,u,159745.59999990463,1080.5999999046326,1669835295048,1080,HRV,HRV_0234,2022-11-30 19:09:41
