success,trial_type,trial_index,time_elapsed,internal_node_id,Block,TrialNumber,TrialTime,trialTimeDiff,FPS_avg,FPS_med,FPS_mode,TrialDur,winResizeTime,rt,block,button_pressed,MotCoh,MotDir,ColCoh,Color,ChoiceKey,Choice,Accuracy,RT,nFrames,FPS,PPD,missTrial,missTrialMsg,onsetDelay,fullScreenExitTime,canvCenter,TrialType,Score,BlockTrial,stimulus,button_labels,exp,subjectId,date
True,fullscreen,0,1560,0.0-0.0,0.0,1.0,,,,,,,,,,,,,,,,,,,,,,,,,,,,,,,,HRV,HRV_0234,2022-11-30 19:31:28
,wl-check-fps,1,10843,0.0-1.0,0.0,2.0,"[6203.2, 6211.4, 6228, 6244.7, 6261.4, 6278.3, 6294.7, 6311.7, 6328.9, 6344.8, 6361.2, 6378.1, 6394.4, 6411.2, 6428.2, 6445.3, 6461.4, 6478, 6494.8, 6512.4, 6528.4, 6544.8, 6609.6, 6616.2, 6633.4, 6662.8, 6664.4, 6678.1, 6696.3, 6710.8, 6733.4, 6749.2, 6761.1, 6777.2, 6794.9, 6811.1, 6827.9, 6845.2, 6860.9, 6878.1, 6895.1, 6911.3, 6928.9, 6944.4, 6961.6, 6979.6, 6994.3, 7011.5, 7027.5, 7045, 7062.2, 7077.5, 7095.1, 7112.6, 7128.2, 7145.5, 7162, 7177.4, 7194.4, 7211.4, 7229, 7244.8, 7262.4, 7278, 7294.6, 7311.9, 7327.6, 7344.9, 7361.4, 7379.6, 7395.3, 7410.9, 7427.7, 7444.5, 7461.2, 7478.7, 7494.7, 7513.2, 7528.7, 7544.1, 7561.6, 7578.8, 7600, 7612.1, 7629.3, 7645, 7660.4, 7678.1, 7695.1, 7712.2, 7728.1, 7745.6, 7761.7, 7777.9, 7794.3, 7811.7, 7828.5, 7844.2, 7861.7, 7879.5, 7894.9, 7912.2, 7928.7, 7944.7, 7961.5, 7977.7, 7995.2, 8011.6, 8028.8, 8045.1, 8060.9, 8078.4, 8095.6, 8111.3, 8129.2, 8144.8, 8161.6, 8178.3, 8194.2, 8211.9, 8227.3, 8244.5, 8261.8, 8278.5, 8294.1, 8312.3, 8328.3, 8344.6, 8361, 8378.4, 8395.6, 8413.8, 8428.6, 8444.2, 8461.4, 8477.4, 8495.4, 8511.7, 8529.7, 8545, 8561.9, 8578.1, 8593.6, 8611, 8627.8, 8645.2, 8661.4, 8678.8, 8695, 8711, 8728.6, 8745.2, 8761.5, 8779.8, 8795, 8810.7, 8829.6, 8844.4, 8862.4, 8879.4, 8895, 8911.9, 8930, 8944.4, 8962.3, 8977.7, 8995, 9012, 9028.6, 9044.6, 9061.5, 9077.6, 9095.5, 9111.6, 9127.4, 9144.6, 9162.2, 9179, 9195.8, 9211.9, 9227.7, 9245.5, 9261.9, 9280, 9295.3, 9312.8, 9328.4, 9345.4, 9360.7, 9381.2, 9394.2, 9412, 9429.2, 9444.6, 9461.4, 9477.4, 9495.5, 9510.5, 9528.1, 9545.1, 9560.8, 9578.8, 9594.9, 9611.8, 9628.1, 9645.2, 9661.1, 9678.9, 9694.5, 9712, 9728.2, 9744.3, 9761.5, 9777.3, 9795, 9812.2, 9828.1, 9845, 9861.9, 9878.5, 9894.9, 9912.1, 9929.1, 9945.5, 9961, 9977.8, 9994.6, 10011.3, 10029.5, 10044.3, 10063.2, 10077.6, 10096.4, 10111.5, 10128.6, 10144.9, 10161.6, 10177.8, 10195, 10211.4, 10228.2, 10244.6, 10261.7, 10278.6, 10294, 10310.9, 10329.2, 10345.8, 10361.4, 10377.1, 10394.4, 10411.5, 10427.8, 10444.9, 10462.3, 10478.7, 10494, 10510.8, 10528.1, 10544.5, 10561.1, 10578.5, 10595.7, 10612, 10631.6, 10643.6, 10663.4, 10678.3, 10694.7, 10711.6, 10727.3, 10744, 10761.8, 10777.5, 10795.1, 10812.3, 10828.5, 10845.7, 10861.5, 10877.4, 10895.4, 10911.1, 10928.7, 10945.5, 10961.5, 10977.7, 10994, 11010.1, 11028.1, 11044.6, 11061.9, 11077.7, 11094.6, 11111.3, 11128, 11143.5, 11161.6, 11178, 11195.1, 11211.2]","[0.8, 8.2, 16.6, 16.7, 16.7, 16.9, 16.4, 17, 17.2, 15.9, 16.4, 16.9, 16.3, 16.8, 17, 17.1, 16.1, 16.6, 16.8, 17.6, 16, 16.4, 64.8, 6.6, 17.2, 29.4, 1.6, 13.7, 18.2, 14.5, 22.6, 15.8, 11.9, 16.1, 17.7, 16.2, 16.8, 17.3, 15.7, 17.2, 17, 16.2, 17.6, 15.5, 17.2, 18, 14.7, 17.2, 16, 17.5, 17.2, 15.3, 17.6, 17.5, 15.6, 17.3, 16.5, 15.4, 17, 17, 17.6, 15.8, 17.6, 15.6, 16.6, 17.3, 15.7, 17.3, 16.5, 18.2, 15.7, 15.6, 16.8, 16.8, 16.7, 17.5, 16, 18.5, 15.5, 15.4, 17.5, 17.2, 21.2, 12.1, 17.2, 15.7, 15.4, 17.7, 17, 17.1, 15.9, 17.5, 16.1, 16.2, 16.4, 17.4, 16.8, 15.7, 17.5, 17.8, 15.4, 17.3, 16.5, 16, 16.8, 16.2, 17.5, 16.4, 17.2, 16.3, 15.8, 17.5, 17.2, 15.7, 17.9, 15.6, 16.8, 16.7, 15.9, 17.7, 15.4, 17.2, 17.3, 16.7, 15.6, 18.2, 16, 16.3, 16.4, 17.4, 17.2, 18.2, 14.8, 15.6, 17.2, 16, 18, 16.3, 18, 15.3, 16.9, 16.2, 15.5, 17.4, 16.8, 17.4, 16.2, 17.4, 16.2, 16, 17.6, 16.6, 16.3, 18.3, 15.2, 15.7, 18.9, 14.8, 18, 17, 15.6, 16.9, 18.1, 14.4, 17.9, 15.4, 17.3, 17, 16.6, 16, 16.9, 16.1, 17.9, 16.1, 15.8, 17.2, 17.6, 16.8, 16.8, 16.1, 15.8, 17.8, 16.4, 18.1, 15.3, 17.5, 15.6, 17, 15.3, 20.5, 13, 17.8, 17.2, 15.4, 16.8, 16, 18.1, 15, 17.6, 17, 15.7, 18, 16.1, 16.9, 16.3, 17.1, 15.9, 17.8, 15.6, 17.5, 16.2, 16.1, 17.2, 15.8, 17.7, 17.2, 15.9, 16.9, 16.9, 16.6, 16.4, 17.2, 17, 16.4, 15.5, 16.8, 16.8, 16.7, 18.2, 14.8, 18.9, 14.4, 18.8, 15.1, 17.1, 16.3, 16.7, 16.2, 17.2, 16.4, 16.8, 16.4, 17.1, 16.9, 15.4, 16.9, 18.3, 16.6, 15.6, 15.7, 17.3, 17.1, 16.3, 17.1, 17.4, 16.4, 15.3, 16.8, 17.3, 16.4, 16.6, 17.4, 17.2, 16.3, 19.6, 12, 19.8, 14.9, 16.4, 16.9, 15.7, 16.7, 17.8, 15.7, 17.6, 17.2, 16.2, 17.2, 15.8, 15.9, 18, 15.7, 17.6, 16.8, 16, 16.2, 16.3, 16.1, 18, 16.5, 17.3, 15.8, 16.9, 16.7, 16.7, 15.5, 18.1, 16.4, 17.1, 16.1]",60.0,60.0,58.0,5026.6,[],,,,,,,,,,,,,,,,,,,,,,,,,HRV,HRV_0234,2022-11-30 19:31:28
,wl-html-keyboard-response,2,21389,0.0-2.0-0.0,0.0,3.0,,,,,,,,8534.899999976158,0.0,0,,,,,,,,,,,,,,,,,,,,,,HRV,HRV_0234,2022-11-30 19:31:28
,wl-rdm,3,28224,0.0-3.0-0.0,0.0,4.0,,,,,,,[],,,,0.0,0.0,87.9,0.0,u,0.0,True,1238.5,75.0,58.0,40.0,False,,3000.0,[],"[720, 438]",ColorTask_Demo,,,,,HRV,HRV_0234,2022-11-30 19:31:28
,wl-rdm,4,32922,0.0-3.0-1.0,0.0,5.0,,,,,,,[],,,,0.0,0.0,87.9,1.0,i,1.0,True,620.5,38.0,58.0,40.0,False,,2000.0,[],"[720, 438]",ColorTask_Demo,,,,,HRV,HRV_0234,2022-11-30 19:31:28
,wl-html-keyboard-response,5,38615,0.0-3.0-2.0,0.0,6.0,,,,,,,,3687.0999999046326,0.0,1,,,,,,,,,,,,,,,,,,,,,,HRV,HRV_0234,2022-11-30 19:31:28
,wl-html-keyboard-response,6,46535,0.0-4.0-0.0,0.0,7.0,,,,,,,,5914.299999952316,0.0,0,,,,,,,,,,,,,,,,,,,,,,HRV,HRV_0234,2022-11-30 19:31:28
,wl-html-keyboard-response,7,56865,0.0-5.0-0.0,0.0,8.0,,,,,,,,8325.100000023842,0.0,0,,,,,,,,,,,,,,,,,,,,,,HRV,HRV_0234,2022-11-30 19:31:28
,wl-rdm,8,59639,0.0-6.0-0.0,0.0,9.0,,,,,,,[],,,,,,53.2,0.0,i,1.0,False,1424.8999999761581,86.0,58.0,40.0,False,,289.16910310050446,[],"[720, 438]",ColorTask,-1.0,1.0,,,HRV,HRV_0234,2022-11-30 19:31:28
,wl-rdm,9,62089,0.0-6.1-0.1,0.0,10.0,,,,,,,[],,,,,,87.9,0.0,u,0.0,True,1126.0,68.0,58.0,40.0,False,,255.97894145215602,[],"[720, 438]",ColorTask,0.0,2.0,,,HRV,HRV_0234,2022-11-30 19:31:28
,wl-rdm,10,64273,0.0-6.2-0.2,0.0,11.0,,,,,,,[],,,,,,73.6,1.0,i,1.0,True,852.5,52.0,58.0,40.0,False,,241.7534474517716,[],"[720, 438]",ColorTask,1.0,3.0,,,HRV,HRV_0234,2022-11-30 19:31:28
,wl-rdm,11,66756,0.0-6.3-0.3,0.0,12.0,,,,,,,[],,,,,,56.4,0.0,u,0.0,True,1099.2000000476837,66.0,58.0,40.0,False,,309.4094822129047,[],"[720, 438]",ColorTask,2.0,4.0,,,HRV,HRV_0234,2022-11-30 19:31:28
,wl-rdm,12,68788,0.0-6.4-0.4,0.0,13.0,,,,,,,[],,,,,,73.6,0.0,u,0.0,True,766.2000000476837,46.0,58.0,40.0,False,,206.3389966731117,[],"[720, 438]",ColorTask,3.0,5.0,,,HRV,HRV_0234,2022-11-30 19:31:28
,wl-rdm,13,71271,0.0-6.5-0.5,0.0,14.0,,,,,,,[],,,,,,53.2,0.0,u,0.0,True,1149.8000000715256,70.0,58.0,40.0,False,,243.59631290265492,[],"[720, 438]",ColorTask,4.0,6.0,,,HRV,HRV_0234,2022-11-30 19:31:28
,wl-rdm,14,73322,0.0-6.6-0.6,0.0,15.0,,,,,,,[],,,,,,73.6,1.0,i,1.0,True,671.3999999761581,41.0,58.0,40.0,False,,308.4568105146046,[],"[720, 438]",ColorTask,5.0,7.0,,,HRV,HRV_0234,2022-11-30 19:31:28
,wl-rdm,15,75472,0.0-6.7-0.7,0.0,16.0,,,,,,,[],,,,,,73.6,1.0,i,1.0,True,712.3999999761581,43.0,58.0,40.0,False,,369.3093895615415,[],"[720, 438]",ColorTask,6.0,8.0,,,HRV,HRV_0234,2022-11-30 19:31:28
,wl-rdm,16,77689,0.0-6.8-0.8,0.0,17.0,,,,,,,[],,,,,,62.5,1.0,i,1.0,True,917.7000000476837,56.0,58.0,40.0,False,,217.48256809142464,[],"[720, 438]",ColorTask,7.0,9.0,,,HRV,HRV_0234,2022-11-30 19:31:28
,wl-rdm,17,80206,0.0-6.9-0.9,0.0,18.0,,,,,,,[],,,,,,53.2,0.0,u,0.0,True,1205.3999999761581,73.0,58.0,40.0,False,,240.18218975453624,[],"[720, 438]",ColorTask,8.0,10.0,,,HRV,HRV_0234,2022-11-30 19:31:28
,wl-rdm,18,82238,0.0-6.10-0.10,0.0,19.0,,,,,,,[],,,,,,87.9,1.0,i,1.0,True,729.1000000238419,44.0,58.0,40.0,False,,228.6105167996609,[],"[720, 438]",ColorTask,9.0,11.0,,,HRV,HRV_0234,2022-11-30 19:31:28
,wl-rdm,19,84407,0.0-6.11-0.11,0.0,20.0,,,,,,,[],,,,,,50.0,0.0,i,1.0,False,863.9000000953674,52.0,58.0,40.0,False,,240.8828947460253,[],"[720, 438]",ColorTask,8.0,12.0,,,HRV,HRV_0234,2022-11-30 19:31:28
,wl-rdm,20,86521,0.0-6.12-0.12,0.0,21.0,,,,,,,[],,,,,,62.5,0.0,u,0.0,True,726.7999999523163,44.0,58.0,40.0,False,,323.75914791104293,[],"[720, 438]",ColorTask,9.0,13.0,,,HRV,HRV_0234,2022-11-30 19:31:28
,wl-rdm,21,88821,0.0-6.13-0.13,0.0,22.0,,,,,,,[],,,,,,56.4,1.0,i,1.0,True,984.4000000953674,60.0,58.0,40.0,False,,225.8203762712497,[],"[720, 438]",ColorTask,10.0,14.0,,,HRV,HRV_0234,2022-11-30 19:31:28
,wl-rdm,22,90956,0.0-6.14-0.14,0.0,23.0,,,,,,,[],,,,,,62.5,0.0,u,0.0,True,754.4000000953674,46.0,58.0,40.0,False,,290.7642001432132,[],"[720, 438]",ColorTask,11.0,15.0,,,HRV,HRV_0234,2022-11-30 19:31:28
,wl-rdm,23,93405,0.0-6.15-0.15,0.0,24.0,,,,,,,[],,,,,,50.0,1.0,u,0.0,False,1127.6999999284744,68.0,58.0,40.0,False,,259.6766149701717,[],"[720, 438]",ColorTask,10.0,16.0,,,HRV,HRV_0234,2022-11-30 19:31:28
,wl-rdm,24,95889,0.0-6.16-0.16,0.0,25.0,,,,,,,[],,,,,,53.2,0.0,i,1.0,False,1185.7000000476837,72.0,58.0,40.0,False,,201.52036571590722,[],"[720, 438]",ColorTask,9.0,17.0,,,HRV,HRV_0234,2022-11-30 19:31:28
,wl-rdm,25,98322,0.0-6.17-0.17,0.0,26.0,,,,,,,[],,,,,,87.9,0.0,u,0.0,True,1004.8000000715256,61.0,58.0,40.0,False,,353.53177497901584,[],"[720, 438]",ColorTask,10.0,18.0,,,HRV,HRV_0234,2022-11-30 19:31:28
,wl-rdm,26,101355,0.0-6.18-0.18,0.0,27.0,,,,,,,[],,,,,,50.0,0.0,u,0.0,True,1718.7000000476837,104.0,58.0,40.0,False,,221.3804017092138,[],"[720, 438]",ColorTask,11.0,19.0,,,HRV,HRV_0234,2022-11-30 19:31:28
,wl-rdm,27,103555,0.0-6.19-0.19,0.0,28.0,,,,,,,[],,,,,,73.6,0.0,u,0.0,True,878.1000000238419,53.0,58.0,40.0,False,,262.0456837246462,[],"[720, 438]",ColorTask,12.0,20.0,,,HRV,HRV_0234,2022-11-30 19:31:28
,wl-rdm,28,106238,0.0-6.20-0.20,0.0,29.0,,,,,,,[],,,,,,56.4,1.0,u,0.0,False,1367.8999999761581,83.0,58.0,40.0,False,,217.48819696916078,[],"[720, 438]",ColorTask,11.0,21.0,,,HRV,HRV_0234,2022-11-30 19:31:28
,wl-rdm,29,108439,0.0-6.21-0.21,0.0,30.0,,,,,,,[],,,,,,56.4,1.0,u,0.0,False,813.6000000238419,49.0,58.0,40.0,False,,317.4971493105955,[],"[720, 438]",ColorTask,10.0,22.0,,,HRV,HRV_0234,2022-11-30 19:31:28
,wl-rdm,30,110622,0.0-6.22-0.22,0.0,31.0,,,,,,,[],,,,,,56.4,1.0,i,1.0,True,909.6000000238419,55.0,58.0,40.0,False,,202.1252171673189,[],"[720, 438]",ColorTask,11.0,23.0,,,HRV,HRV_0234,2022-11-30 19:31:28
,wl-rdm,31,112855,0.0-6.23-0.23,0.0,32.0,,,,,,,[],,,,,,53.2,1.0,u,0.0,False,922.5,56.0,58.0,40.0,False,,247.73808033905036,[],"[720, 438]",ColorTask,10.0,24.0,,,HRV,HRV_0234,2022-11-30 19:31:28
,wl-rdm,32,115255,0.0-6.24-0.24,0.0,33.0,,,,,,,[],,,,,,53.2,1.0,u,0.0,False,1107.3999999761581,67.0,58.0,40.0,False,,209.5925617768733,[],"[720, 438]",ColorTask,9.0,25.0,,,HRV,HRV_0234,2022-11-30 19:31:28
,wl-rdm,33,117322,0.0-6.25-0.25,0.0,34.0,,,,,,,[],,,,,,56.4,0.0,u,0.0,True,729.2000000476837,44.0,58.0,40.0,False,,249.5686320790088,[],"[720, 438]",ColorTask,10.0,26.0,,,HRV,HRV_0234,2022-11-30 19:31:28
,wl-rdm,34,119438,0.0-6.26-0.26,0.0,35.0,,,,,,,[],,,,,,56.4,1.0,i,1.0,True,827.7000000476837,50.0,58.0,40.0,False,,230.36843032017657,[],"[720, 438]",ColorTask,11.0,27.0,,,HRV,HRV_0234,2022-11-30 19:31:28
,wl-rdm,35,121537,0.0-6.27-0.27,0.0,36.0,,,,,,,[],,,,,,87.9,0.0,u,0.0,True,720.8999999761581,44.0,58.0,40.0,False,,301.9926824363509,[],"[720, 438]",ColorTask,12.0,28.0,,,HRV,HRV_0234,2022-11-30 19:31:28
,wl-rdm,36,124121,0.0-6.28-0.28,0.0,37.0,,,,,,,[],,,,,,50.0,1.0,i,1.0,True,1202.2999999523163,73.0,58.0,40.0,False,,292.9887073347487,[],"[720, 438]",ColorTask,13.0,29.0,,,HRV,HRV_0234,2022-11-30 19:31:28
,wl-rdm,37,126805,0.0-6.29-0.29,0.0,38.0,,,,,,,[],,,,,,50.0,1.0,i,1.0,True,1407.3999999761581,85.0,58.0,40.0,False,,210.94872074032938,[],"[720, 438]",ColorTask,14.0,30.0,,,HRV,HRV_0234,2022-11-30 19:31:28
,wl-rdm,38,129039,0.0-6.30-0.30,0.0,39.0,,,,,,,[],,,,,,73.6,0.0,u,0.0,True,931.1000000238419,56.0,58.0,40.0,False,,226.93431829406651,[],"[720, 438]",ColorTask,15.0,31.0,,,HRV,HRV_0234,2022-11-30 19:31:28
,wl-rdm,39,131222,0.0-6.31-0.31,0.0,40.0,,,,,,,[],,,,,,62.5,1.0,i,1.0,True,746.1000000238419,45.0,58.0,40.0,False,,353.7010947135593,[],"[720, 438]",ColorTask,16.0,32.0,,,HRV,HRV_0234,2022-11-30 19:31:28
,wl-rdm,40,133438,0.0-6.32-0.32,0.0,41.0,,,,,,,[],,,,,,53.2,0.0,u,0.0,True,925.8000000715256,56.0,58.0,40.0,False,,229.76533218120392,[],"[720, 438]",ColorTask,17.0,33.0,,,HRV,HRV_0234,2022-11-30 19:31:28
,wl-rdm,41,135738,0.0-6.33-0.33,0.0,42.0,,,,,,,[],,,,,,62.5,0.0,u,0.0,True,872.2000000476837,53.0,58.0,40.0,False,,356.2754770374405,[],"[720, 438]",ColorTask,18.0,34.0,,,HRV,HRV_0234,2022-11-30 19:31:28
,wl-rdm,42,137789,0.0-6.34-0.34,0.0,43.0,,,,,,,[],,,,,,56.4,0.0,u,0.0,True,671.2999999523163,41.0,58.0,40.0,False,,305.200427817176,[],"[720, 438]",ColorTask,19.0,35.0,,,HRV,HRV_0234,2022-11-30 19:31:28
,wl-rdm,43,140154,0.0-6.35-0.35,0.0,44.0,,,,,,,[],,,,,,62.5,1.0,u,0.0,False,1003.2999999523163,60.0,58.0,40.0,False,,288.1803676990545,[],"[720, 438]",ColorTask,18.0,36.0,,,HRV,HRV_0234,2022-11-30 19:31:28
,wl-rdm,44,142754,0.0-6.36-0.36,0.0,45.0,,,,,,,[],,,,,,56.4,1.0,i,1.0,True,1150.5999999046326,70.0,58.0,40.0,False,,353.6185197700435,[],"[720, 438]",ColorTask,19.0,37.0,,,HRV,HRV_0234,2022-11-30 19:31:28
,wl-rdm,45,144721,0.0-6.37-0.37,0.0,46.0,,,,,,,[],,,,,,73.6,0.0,u,0.0,True,682.4000000953674,41.0,58.0,40.0,False,,211.50577680494578,[],"[720, 438]",ColorTask,20.0,38.0,,,HRV,HRV_0234,2022-11-30 19:31:28
,wl-rdm,46,147404,0.0-6.38-0.38,0.0,47.0,,,,,,,[],,,,,,53.2,0.0,u,0.0,True,1348.7000000476837,81.0,58.0,40.0,False,,281.99485776764277,[],"[720, 438]",ColorTask,21.0,39.0,,,HRV,HRV_0234,2022-11-30 19:31:28
,wl-rdm,47,149505,0.0-6.39-0.39,0.0,48.0,,,,,,,[],,,,,,87.9,1.0,i,1.0,True,775.5,47.0,58.0,40.0,False,,262.8247438853605,[],"[720, 438]",ColorTask,22.0,40.0,,,HRV,HRV_0234,2022-11-30 19:31:28
,wl-rdm,48,151654,0.0-6.40-0.40,0.0,49.0,,,,,,,[],,,,,,73.6,0.0,u,0.0,True,865.0,52.0,58.0,40.0,False,,226.11383218701346,[],"[720, 438]",ColorTask,23.0,41.0,,,HRV,HRV_0234,2022-11-30 19:31:28
,wl-rdm,49,154021,0.0-6.41-0.41,0.0,50.0,,,,,,,[],,,,,,62.5,0.0,u,0.0,True,947.3999999761581,57.0,58.0,40.0,False,,356.5998334083448,[],"[720, 438]",ColorTask,24.0,42.0,,,HRV,HRV_0234,2022-11-30 19:31:28
,wl-rdm,50,156454,0.0-6.42-0.42,0.0,51.0,,,,,,,[],,,,,,50.0,0.0,u,0.0,True,1024.1000000238419,62.0,58.0,40.0,False,,319.3294887901894,[],"[720, 438]",ColorTask,25.0,43.0,,,HRV,HRV_0234,2022-11-30 19:31:28
,wl-rdm,51,158672,0.0-6.43-0.43,0.0,52.0,,,,,,,[],,,,,,87.9,1.0,i,1.0,True,779.8999999761581,47.0,58.0,40.0,False,,356.1976519883859,[],"[720, 438]",ColorTask,26.0,44.0,,,HRV,HRV_0234,2022-11-30 19:31:28
,wl-rdm,52,161220,0.0-6.44-0.44,0.0,53.0,,,,,,,[],,,,,,53.2,0.0,u,0.0,True,1100.7000000476837,67.0,58.0,40.0,False,,379.98906180503343,[],"[720, 438]",ColorTask,27.0,45.0,,,HRV,HRV_0234,2022-11-30 19:31:28
,wl-rdm,53,163604,0.0-6.45-0.45,0.0,54.0,,,,,,,[],,,,,,87.9,1.0,i,1.0,True,959.7999999523163,58.0,58.0,40.0,False,,345.7537902601438,[],"[720, 438]",ColorTask,28.0,46.0,,,HRV,HRV_0234,2022-11-30 19:31:28
,wl-rdm,54,165938,0.0-6.46-0.46,0.0,55.0,,,,,,,[],,,,,,62.5,0.0,u,0.0,True,914.0,55.0,58.0,40.0,False,,337.7144302080052,[],"[720, 438]",ColorTask,29.0,47.0,,,HRV,HRV_0234,2022-11-30 19:31:28
,wl-rdm,55,168688,0.0-6.47-0.47,0.0,56.0,,,,,,,[],,,,,,56.4,1.0,u,0.0,False,1410.5,85.0,58.0,40.0,False,,254.8545463942255,[],"[720, 438]",ColorTask,28.0,48.0,,,HRV,HRV_0234,2022-11-30 19:31:28
,wl-rdm,56,170987,0.0-6.48-0.48,0.0,57.0,,,,,,,[],,,,,,62.5,0.0,u,0.0,True,1010.3000000715256,61.0,58.0,40.0,False,,224.61369311467317,[],"[720, 438]",ColorTask,29.0,49.0,,,HRV,HRV_0234,2022-11-30 19:31:28
,wl-rdm,57,173172,0.0-6.49-0.49,0.0,58.0,,,,,,,[],,,,,,50.0,1.0,u,0.0,False,841.7000000476837,51.0,58.0,40.0,False,,259.8732317477978,[],"[720, 438]",ColorTask,28.0,50.0,,,HRV,HRV_0234,2022-11-30 19:31:28
,wl-rdm,58,175303,0.0-6.50-0.50,0.0,59.0,,,,,,,[],,,,,,53.2,0.0,u,0.0,True,746.5000001192093,45.0,58.0,40.0,False,,325.52900463495945,[],"[720, 438]",ColorTask,29.0,51.0,,,HRV,HRV_0234,2022-11-30 19:31:28
,wl-rdm,59,177654,0.0-6.51-0.51,0.0,60.0,,,,,,,[],,,,,,53.2,0.0,u,0.0,True,1043.5,63.0,58.0,40.0,False,,242.25888697724878,[],"[720, 438]",ColorTask,30.0,52.0,,,HRV,HRV_0234,2022-11-30 19:31:28
,wl-rdm,60,181003,0.0-6.52-0.52,0.0,61.0,,,,,,,[],,,,,,50.0,0.0,u,0.0,True,2037.4000000953674,123.0,58.0,40.0,False,,220.51859967647883,[],"[720, 438]",ColorTask,31.0,53.0,,,HRV,HRV_0234,2022-11-30 19:31:28
,wl-rdm,61,185222,0.0-6.53-0.53,0.0,62.0,,,,,,,[],,,,,,50.0,0.0,u,0.0,True,2846.7000000476837,171.0,58.0,40.0,False,,305.1193224106483,[],"[720, 438]",ColorTask,32.0,54.0,,,HRV,HRV_0234,2022-11-30 19:31:28
,wl-rdm,62,187254,0.0-6.54-0.54,0.0,63.0,,,,,,,[],,,,,,50.0,0.0,u,0.0,True,748.7000000476837,45.0,58.0,40.0,False,,222.26859241034538,[],"[720, 438]",ColorTask,33.0,55.0,,,HRV,HRV_0234,2022-11-30 19:31:28
,wl-rdm,63,189371,0.0-6.55-0.55,0.0,64.0,,,,,,,[],,,,,,62.5,1.0,u,0.0,False,675.5,41.0,58.0,40.0,False,,358.61015156078724,[],"[720, 438]",ColorTask,32.0,56.0,,,HRV,HRV_0234,2022-11-30 19:31:28
,wl-rdm,64,191753,0.0-6.56-0.56,0.0,65.0,,,,,,,[],,,,,,62.5,0.0,u,0.0,True,1112.2999999523163,67.0,58.0,40.0,False,,202.99037744465102,[],"[720, 438]",ColorTask,33.0,57.0,,,HRV,HRV_0234,2022-11-30 19:31:28
,wl-rdm,65,194769,0.0-6.57-0.57,0.0,66.0,,,,,,,[],,,,,,56.4,0.0,u,0.0,True,1642.8999999761581,99.0,58.0,40.0,False,,308.4287370903746,[],"[720, 438]",ColorTask,34.0,58.0,,,HRV,HRV_0234,2022-11-30 19:31:28
,wl-rdm,66,198403,0.0-6.58-0.58,0.0,67.0,,,,,,,[],,,,,,87.9,1.0,i,1.0,True,2320.7999999523163,140.0,58.0,40.0,False,,246.846553112588,[],"[720, 438]",ColorTask,35.0,59.0,,,HRV,HRV_0234,2022-11-30 19:31:28
,wl-rdm,67,200421,0.0-6.59-0.59,0.0,68.0,,,,,,,[],,,,,,62.5,0.0,u,0.0,True,702.8999999761581,43.0,58.0,40.0,False,,232.9178025069761,[],"[720, 438]",ColorTask,36.0,60.0,,,HRV,HRV_0234,2022-11-30 19:31:28
,wl-rdm,68,202487,0.0-6.60-0.60,0.0,69.0,,,,,,,[],,,,,,50.0,1.0,u,0.0,False,795.1000000238419,48.0,58.0,40.0,False,,202.79986421596578,[],"[720, 438]",ColorTask,35.0,61.0,,,HRV,HRV_0234,2022-11-30 19:31:28
,wl-rdm,69,204738,0.0-6.61-0.61,0.0,70.0,,,,,,,[],,,,,,50.0,0.0,i,1.0,False,924.6000000238419,56.0,58.0,40.0,False,,235.23487927581064,[],"[720, 438]",ColorTask,34.0,62.0,,,HRV,HRV_0234,2022-11-30 19:31:28
,wl-rdm,70,206886,0.0-6.62-0.62,0.0,71.0,,,,,,,[],,,,,,73.6,1.0,i,1.0,True,782.1999999284744,47.0,58.0,40.0,False,,282.24014924706154,[],"[720, 438]",ColorTask,35.0,63.0,,,HRV,HRV_0234,2022-11-30 19:31:28
,wl-rdm,71,209404,0.0-6.63-0.63,0.0,72.0,,,,,,,[],,,,,,50.0,1.0,u,0.0,False,1119.8999999761581,68.0,58.0,40.0,False,,326.2204897416889,[],"[720, 438]",ColorTask,34.0,64.0,,,HRV,HRV_0234,2022-11-30 19:31:28
,wl-rdm,72,211935,0.0-6.64-0.64,0.0,73.0,,,,,,,[],,,,,,56.4,0.0,u,0.0,True,1173.0999999046326,71.0,58.0,40.0,False,,269.81882844674317,[],"[720, 438]",ColorTask,35.0,65.0,,,HRV,HRV_0234,2022-11-30 19:31:28
,wl-rdm,73,214102,0.0-6.65-0.65,0.0,74.0,,,,,,,[],,,,,,73.6,0.0,u,0.0,True,692.1000000238419,42.0,58.0,40.0,False,,399.37974592951696,[],"[720, 438]",ColorTask,36.0,66.0,,,HRV,HRV_0234,2022-11-30 19:31:28
,wl-rdm,74,216203,0.0-6.66-0.66,0.0,75.0,,,,,,,[],,,,,,73.6,0.0,u,0.0,True,795.6000000238419,48.0,58.0,40.0,False,,219.09743583484874,[],"[720, 438]",ColorTask,37.0,67.0,,,HRV,HRV_0234,2022-11-30 19:31:28
,wl-rdm,75,218971,0.0-6.67-0.67,0.0,76.0,,,,,,,[],,,,,,50.0,1.0,i,1.0,True,1364.2999999523163,82.0,58.0,40.0,False,,319.32080429228023,[],"[720, 438]",ColorTask,38.0,68.0,,,HRV,HRV_0234,2022-11-30 19:31:28
,wl-rdm,76,221452,0.0-6.68-0.68,0.0,77.0,,,,,,,[],,,,,,56.4,0.0,u,0.0,True,1202.8999999761581,73.0,58.0,40.0,False,,213.12442505677814,[],"[720, 438]",ColorTask,39.0,69.0,,,HRV,HRV_0234,2022-11-30 19:31:28
,wl-rdm,77,223453,0.0-6.69-0.69,0.0,78.0,,,,,,,[],,,,,,50.0,0.0,u,0.0,True,663.5,40.0,58.0,40.0,False,,273.78028749010383,[],"[720, 438]",ColorTask,40.0,70.0,,,HRV,HRV_0234,2022-11-30 19:31:28
,wl-rdm,78,225687,0.0-6.70-0.70,0.0,79.0,,,,,,,[],,,,,,62.5,1.0,i,1.0,True,855.8999999761581,52.0,58.0,40.0,False,,291.45885211651307,[],"[720, 438]",ColorTask,41.0,71.0,,,HRV,HRV_0234,2022-11-30 19:31:28
,wl-rdm,79,228003,0.0-6.71-0.71,0.0,80.0,,,,,,,[],,,,,,53.2,1.0,u,0.0,False,889.6000000238419,54.0,58.0,40.0,False,,339.58230238084946,[],"[720, 438]",ColorTask,40.0,72.0,,,HRV,HRV_0234,2022-11-30 19:31:28
,wl-rdm,80,229902,0.0-6.72-0.72,0.0,81.0,,,,,,,[],,,,,,50.0,1.0,u,0.0,False,619.6999999284744,38.0,58.0,40.0,False,,210.84086414331068,[],"[720, 438]",ColorTask,39.0,73.0,,,HRV,HRV_0234,2022-11-30 19:31:28
,wl-rdm,81,231986,0.0-6.73-0.73,0.0,82.0,,,,,,,[],,,,,,73.6,0.0,u,0.0,True,658.9000000953674,40.0,58.0,40.0,False,,334.9662959234517,[],"[720, 438]",ColorTask,40.0,74.0,,,HRV,HRV_0234,2022-11-30 19:31:28
,wl-rdm,82,234169,0.0-6.74-0.74,0.0,83.0,,,,,,,[],,,,,,53.2,1.0,i,1.0,True,875.4000000953674,53.0,58.0,40.0,False,,240.10965538292862,[],"[720, 438]",ColorTask,41.0,75.0,,,HRV,HRV_0234,2022-11-30 19:31:28
,wl-rdm,83,236351,0.0-6.75-0.75,0.0,84.0,,,,,,,[],,,,,,56.4,0.0,u,0.0,True,760.1999999284744,46.0,58.0,40.0,False,,361.5936767108881,[],"[720, 438]",ColorTask,42.0,76.0,,,HRV,HRV_0234,2022-11-30 19:31:28
,wl-rdm,84,238802,0.0-6.76-0.76,0.0,85.0,,,,,,,[],,,,,,62.5,1.0,i,1.0,True,1079.0,65.0,58.0,40.0,False,,314.6588359186188,[],"[720, 438]",ColorTask,43.0,77.0,,,HRV,HRV_0234,2022-11-30 19:31:28
,wl-rdm,85,240868,0.0-6.77-0.77,0.0,86.0,,,,,,,[],,,,,,87.9,0.0,u,0.0,True,646.9000000953674,39.0,58.0,40.0,False,,350.3036509503797,[],"[720, 438]",ColorTask,44.0,78.0,,,HRV,HRV_0234,2022-11-30 19:31:28
,wl-rdm,86,243253,0.0-6.78-0.78,0.0,87.0,,,,,,,[],,,,,,53.2,1.0,i,1.0,True,1076.6000000238419,65.0,58.0,40.0,False,,219.13345481029515,[],"[720, 438]",ColorTask,45.0,79.0,,,HRV,HRV_0234,2022-11-30 19:31:28
,wl-rdm,87,245469,0.0-6.79-0.79,0.0,88.0,,,,,,,[],,,,,,62.5,1.0,i,1.0,True,939.1000000238419,57.0,58.0,40.0,False,,211.7172996046432,[],"[720, 438]",ColorTask,46.0,80.0,,,HRV,HRV_0234,2022-11-30 19:31:28
,wl-rdm,88,247435,0.0-6.80-0.80,0.0,89.0,,,,,,,[],,,,,,87.9,0.0,u,0.0,True,630.5000001192093,38.0,58.0,40.0,False,,264.43572910773605,[],"[720, 438]",ColorTask,47.0,81.0,,,HRV,HRV_0234,2022-11-30 19:31:28
,wl-rdm,89,249671,0.0-6.81-0.81,0.0,90.0,,,,,,,[],,,,,,56.4,1.0,u,0.0,False,780.2999999523163,47.0,58.0,40.0,False,,386.71932093700207,[],"[720, 438]",ColorTask,46.0,82.0,,,HRV,HRV_0234,2022-11-30 19:31:28
,wl-rdm,90,251602,0.0-6.82-0.82,0.0,91.0,,,,,,,[],,,,,,53.2,1.0,u,0.0,False,641.8000000715256,39.0,58.0,40.0,False,,206.73283804564687,[],"[720, 438]",ColorTask,45.0,83.0,,,HRV,HRV_0234,2022-11-30 19:31:28
,wl-rdm,91,253769,0.0-6.83-0.83,0.0,92.0,,,,,,,[],,,,,,87.9,0.0,u,0.0,True,759.3999999761581,46.0,58.0,40.0,False,,350.2019607161176,[],"[720, 438]",ColorTask,46.0,84.0,,,HRV,HRV_0234,2022-11-30 19:31:28
,wl-rdm,92,256025,0.0-6.84-0.84,0.0,93.0,,,,,,,[],,,,,,73.6,1.0,i,1.0,True,867.6000000238419,53.0,58.0,40.0,False,,294.59099652007507,[],"[720, 438]",ColorTask,47.0,85.0,,,HRV,HRV_0234,2022-11-30 19:31:28
,wl-rdm,93,258071,0.0-6.85-0.85,0.0,94.0,,,,,,,[],,,,,,87.9,0.0,u,0.0,True,659.0,40.0,58.0,40.0,False,,322.823509336202,[],"[720, 438]",ColorTask,48.0,86.0,,,HRV,HRV_0234,2022-11-30 19:31:28
,wl-rdm,94,260454,0.0-6.86-0.86,0.0,95.0,,,,,,,[],,,,,,53.2,1.0,u,0.0,False,919.5000001192093,56.0,58.0,40.0,False,,373.30673037501333,[],"[720, 438]",ColorTask,47.0,87.0,,,HRV,HRV_0234,2022-11-30 19:31:28
,wl-rdm,95,262535,0.0-6.87-0.87,0.0,96.0,,,,,,,[],,,,,,87.9,1.0,u,0.0,False,814.0999999046326,49.0,58.0,40.0,False,,216.5355097311697,[],"[720, 438]",ColorTask,46.0,88.0,,,HRV,HRV_0234,2022-11-30 19:31:28
,wl-rdm,96,264535,0.0-6.88-0.88,0.0,97.0,,,,,,,[],,,,,,87.9,1.0,i,1.0,True,633.0,38.0,58.0,40.0,False,,292.6639973973258,[],"[720, 438]",ColorTask,47.0,89.0,,,HRV,HRV_0234,2022-11-30 19:31:28
,wl-rdm,97,266634,0.0-6.89-0.89,0.0,98.0,,,,,,,[],,,,,,73.6,0.0,u,0.0,True,674.2999999523163,41.0,58.0,40.0,False,,340.1486596135521,[],"[720, 438]",ColorTask,48.0,90.0,,,HRV,HRV_0234,2022-11-30 19:31:28
,wl-rdm,98,268801,0.0-6.90-0.90,0.0,99.0,,,,,,,[],,,,,,62.5,1.0,i,1.0,True,741.5,45.0,58.0,40.0,False,,360.260449137073,[],"[720, 438]",ColorTask,49.0,91.0,,,HRV,HRV_0234,2022-11-30 19:31:28
,wl-rdm,99,270785,0.0-6.91-0.91,0.0,100.0,,,,,,,[],,,,,,87.9,0.0,u,0.0,True,666.6999999284744,40.0,58.0,40.0,False,,240.51231909002615,[],"[720, 438]",ColorTask,50.0,92.0,,,HRV,HRV_0234,2022-11-30 19:31:28
,wl-rdm,100,272819,0.0-6.92-0.92,0.0,101.0,,,,,,,[],,,,,,53.2,1.0,i,1.0,True,742.7999999523163,45.0,58.0,40.0,False,,204.2724565636207,[],"[720, 438]",ColorTask,51.0,93.0,,,HRV,HRV_0234,2022-11-30 19:31:28
,wl-rdm,101,274701,0.0-6.93-0.93,0.0,102.0,,,,,,,[],,,,,,73.6,1.0,i,1.0,True,554.2999999523163,34.0,58.0,40.0,False,,257.3554957924367,[],"[720, 438]",ColorTask,52.0,94.0,,,HRV,HRV_0234,2022-11-30 19:31:28
,wl-rdm,102,277002,0.0-6.94-0.94,0.0,103.0,,,,,,,[],,,,,,56.4,0.0,u,0.0,True,877.6000000238419,53.0,58.0,40.0,False,,336.2901829967927,[],"[720, 438]",ColorTask,53.0,95.0,,,HRV,HRV_0234,2022-11-30 19:31:28
,wl-rdm,103,278985,0.0-6.95-0.95,0.0,104.0,,,,,,,[],,,,,,73.6,1.0,i,1.0,True,648.2000000476837,39.0,58.0,40.0,False,,274.18505590450496,[],"[720, 438]",ColorTask,54.0,96.0,,,HRV,HRV_0234,2022-11-30 19:31:28
,wl-rdm,104,280935,0.0-6.96-0.96,0.0,105.0,,,,,,,[],,,,,,87.9,0.0,u,0.0,True,630.6999999284744,38.0,58.0,40.0,False,,232.61826981080057,[],"[720, 438]",ColorTask,55.0,97.0,,,HRV,HRV_0234,2022-11-30 19:31:28
,wl-rdm,105,282969,0.0-6.97-0.97,0.0,106.0,,,,,,,[],,,,,,53.2,1.0,i,1.0,True,674.3999999761581,41.0,58.0,40.0,False,,271.6669993177981,[],"[720, 438]",ColorTask,56.0,98.0,,,HRV,HRV_0234,2022-11-30 19:31:28
,wl-rdm,106,285085,0.0-6.98-0.98,0.0,107.0,,,,,,,[],,,,,,62.5,0.0,u,0.0,True,654.7000000476837,40.0,58.0,40.0,False,,378.1715510071269,[],"[720, 438]",ColorTask,57.0,99.0,,,HRV,HRV_0234,2022-11-30 19:31:28
,wl-rdm,107,287134,0.0-6.99-0.99,0.0,108.0,,,,,,,[],,,,,,50.0,0.0,i,1.0,False,677.1999999284744,41.0,58.0,40.0,False,,304.80645162779695,[],"[720, 438]",ColorTask,56.0,100.0,,,HRV,HRV_0234,2022-11-30 19:31:28
,wl-rdm,108,289051,0.0-6.100-0.100,0.0,109.0,,,,,,,[],,,,,,73.6,1.0,i,1.0,True,605.2999999523163,37.0,58.0,40.0,False,,234.690132067722,[],"[720, 438]",ColorTask,57.0,101.0,,,HRV,HRV_0234,2022-11-30 19:31:28
,wl-rdm,109,290919,0.0-6.101-0.101,0.0,110.0,,,,,,,[],,,,,,87.9,1.0,i,1.0,True,570.2000000476837,35.0,58.0,40.0,False,,215.68514203032032,[],"[720, 438]",ColorTask,58.0,102.0,,,HRV,HRV_0234,2022-11-30 19:31:28
,wl-rdm,110,292885,0.0-6.102-0.102,0.0,111.0,,,,,,,[],,,,,,62.5,1.0,i,1.0,True,598.8999999761581,36.0,58.0,40.0,False,,286.6480833906659,[],"[720, 438]",ColorTask,59.0,103.0,,,HRV,HRV_0234,2022-11-30 19:31:28
,wl-rdm,111,294901,0.0-6.103-0.103,0.0,112.0,,,,,,,[],,,,,,73.6,1.0,i,1.0,True,642.7000000476837,39.0,58.0,40.0,False,,315.20102026339146,[],"[720, 438]",ColorTask,60.0,104.0,,,HRV,HRV_0234,2022-11-30 19:31:28
,wl-rdm,112,297270,0.0-6.104-0.104,0.0,113.0,,,,,,,[],,,,,,56.4,1.0,u,0.0,False,917.1000000238419,56.0,58.0,40.0,False,,366.79954032635965,[],"[720, 438]",ColorTask,59.0,105.0,,,HRV,HRV_0234,2022-11-30 19:31:28
,wl-rdm,113,299284,0.0-6.105-0.105,0.0,114.0,,,,,,,[],,,,,,87.9,1.0,i,1.0,True,542.8999999761581,35.0,58.0,40.0,False,,351.20405899923225,[],"[720, 438]",ColorTask,60.0,106.0,,,HRV,HRV_0234,2022-11-30 19:31:28
,wl-rdm,114,301385,0.0-6.106-0.106,0.0,115.0,,,,,,,[],,,,,,56.4,0.0,i,1.0,False,768.9000000953674,47.0,58.0,40.0,False,,259.26559973383775,[],"[720, 438]",ColorTask,59.0,107.0,,,HRV,HRV_0234,2022-11-30 19:31:28
,wl-rdm,115,303784,0.0-6.107-0.107,0.0,116.0,,,,,,,[],,,,,,50.0,1.0,u,0.0,False,1034.1000000238419,62.0,58.0,40.0,False,,296.5257232857713,[],"[720, 438]",ColorTask,58.0,108.0,,,HRV,HRV_0234,2022-11-30 19:31:28
,wl-html-keyboard-response,116,311974,0.0-7.0-0.0,1.0,117.0,,,,,,,,6181.100000023842,1.0,0,,,,,,,,,,,,,,,,,,,,,,HRV,HRV_0234,2022-11-30 19:31:28
,wl-rdm,117,313951,0.0-8.0-0.0,1.0,118.0,,,,,,,[],,,,,,87.9,1.0,i,1.0,True,673.8999998569489,41.0,58.0,40.0,False,,222.08665601587447,[],"[720, 438]",ColorTask,59.0,1.0,,,HRV,HRV_0234,2022-11-30 19:31:28
,wl-rdm,118,316085,0.0-8.1-0.1,1.0,119.0,,,,,,,[],,,,,,56.4,1.0,u,0.0,False,799.5999999046326,48.0,58.0,40.0,False,,276.5394583734213,[],"[720, 438]",ColorTask,58.0,2.0,,,HRV,HRV_0234,2022-11-30 19:31:28
,wl-rdm,119,318068,0.0-8.2-0.2,1.0,120.0,,,,,,,[],,,,,,62.5,0.0,i,1.0,False,696.0000001192093,42.0,58.0,40.0,False,,224.3889223981226,[],"[720, 438]",ColorTask,57.0,3.0,,,HRV,HRV_0234,2022-11-30 19:31:28
,wl-rdm,120,320334,0.0-8.3-0.3,1.0,121.0,,,,,,,[],,,,,,73.6,1.0,i,1.0,True,829.6000000238419,50.0,58.0,40.0,False,,356.58034560588203,[],"[720, 438]",ColorTask,58.0,4.0,,,HRV,HRV_0234,2022-11-30 19:31:28
,wl-rdm,121,322501,0.0-8.4-0.4,1.0,122.0,,,,,,,[],,,,,,53.2,0.0,u,0.0,True,863.3000000715256,52.0,58.0,40.0,False,,233.79546892148613,[],"[720, 438]",ColorTask,59.0,5.0,,,HRV,HRV_0234,2022-11-30 19:31:28
,wl-rdm,122,324751,0.0-8.5-0.5,1.0,123.0,,,,,,,[],,,,,,73.6,1.0,i,1.0,True,958.9000000953674,58.0,58.0,40.0,False,,214.86035346783166,[],"[720, 438]",ColorTask,60.0,6.0,,,HRV,HRV_0234,2022-11-30 19:31:28
,wl-rdm,123,327166,0.0-8.6-0.6,1.0,124.0,,,,,,,[],,,,,,56.4,0.0,u,0.0,True,1040.3000000715256,63.0,58.0,40.0,False,,301.33844611198197,[],"[720, 438]",ColorTask,61.0,7.0,,,HRV,HRV_0234,2022-11-30 19:31:28
,wl-rdm,124,329467,0.0-8.7-0.7,1.0,125.0,,,,,,,[],,,,,,62.5,0.0,u,0.0,True,982.2000000476837,59.0,58.0,40.0,False,,248.43576117176144,[],"[720, 438]",ColorTask,62.0,8.0,,,HRV,HRV_0234,2022-11-30 19:31:28
,wl-rdm,125,331433,0.0-8.8-0.8,1.0,126.0,,,,,,,[],,,,,,87.9,0.0,u,0.0,True,624.5000001192093,38.0,58.0,40.0,False,,262.02676179244423,[],"[720, 438]",ColorTask,63.0,9.0,,,HRV,HRV_0234,2022-11-30 19:31:28
,wl-rdm,126,333717,0.0-8.9-0.9,1.0,127.0,,,,,,,[],,,,,,62.5,0.0,u,0.0,True,957.5999999046326,58.0,58.0,40.0,False,,263.27587460903123,[],"[720, 438]",ColorTask,64.0,10.0,,,HRV,HRV_0234,2022-11-30 19:31:28
,wl-rdm,127,335684,0.0-8.10-0.10,1.0,128.0,,,,,,,[],,,,,,56.4,1.0,i,1.0,True,647.1000000238419,39.0,58.0,40.0,False,,254.60329788510808,[],"[720, 438]",ColorTask,65.0,11.0,,,HRV,HRV_0234,2022-11-30 19:31:28
,wl-rdm,128,337916,0.0-8.11-0.11,1.0,129.0,,,,,,,[],,,,,,73.6,0.0,u,0.0,True,905.9000000953674,55.0,58.0,40.0,False,,246.93904461794597,[],"[720, 438]",ColorTask,66.0,12.0,,,HRV,HRV_0234,2022-11-30 19:31:28
,wl-rdm,129,340050,0.0-8.12-0.12,1.0,130.0,,,,,,,[],,,,,,73.6,1.0,i,1.0,True,745.6000000238419,45.0,58.0,40.0,False,,329.98383972097344,[],"[720, 438]",ColorTask,67.0,13.0,,,HRV,HRV_0234,2022-11-30 19:31:28
,wl-rdm,130,342101,0.0-8.13-0.13,1.0,131.0,,,,,,,[],,,,,,50.0,0.0,i,1.0,False,722.8000000715256,44.0,58.0,40.0,False,,238.66020882280515,[],"[720, 438]",ColorTask,66.0,14.0,,,HRV,HRV_0234,2022-11-30 19:31:28
,wl-rdm,131,344233,0.0-8.14-0.14,1.0,132.0,,,,,,,[],,,,,,50.0,1.0,u,0.0,False,842.2000000476837,51.0,58.0,40.0,False,,203.3837829124285,[],"[720, 438]",ColorTask,65.0,15.0,,,HRV,HRV_0234,2022-11-30 19:31:28
,wl-rdm,132,346350,0.0-8.15-0.15,1.0,133.0,,,,,,,[],,,,,,56.4,0.0,u,0.0,True,847.2000000476837,51.0,58.0,40.0,False,,206.5191312333658,[],"[720, 438]",ColorTask,66.0,16.0,,,HRV,HRV_0234,2022-11-30 19:31:28
,wl-rdm,133,348603,0.0-8.16-0.16,1.0,134.0,,,,,,,[],,,,,,56.4,1.0,i,1.0,True,895.9999998807907,54.0,58.0,40.0,False,,283.74224980708834,[],"[720, 438]",ColorTask,67.0,17.0,,,HRV,HRV_0234,2022-11-30 19:31:28
,wl-rdm,134,351035,0.0-8.17-0.17,1.0,135.0,,,,,,,[],,,,,,50.0,1.0,i,1.0,True,989.1000000238419,60.0,58.0,40.0,False,,354.3037297920473,[],"[720, 438]",ColorTask,68.0,18.0,,,HRV,HRV_0234,2022-11-30 19:31:28
,wl-rdm,135,353018,0.0-8.18-0.18,1.0,136.0,,,,,,,[],,,,,,87.9,1.0,i,1.0,True,586.7000000476837,36.0,58.0,40.0,False,,313.78984831416494,[],"[720, 438]",ColorTask,69.0,19.0,,,HRV,HRV_0234,2022-11-30 19:31:28
,wl-rdm,136,355185,0.0-8.19-0.19,1.0,137.0,,,,,,,[],,,,,,53.2,0.0,i,1.0,False,767.4000000953674,47.0,58.0,40.0,False,,323.1036839008373,[],"[720, 438]",ColorTask,68.0,20.0,,,HRV,HRV_0234,2022-11-30 19:31:28
,wl-rdm,137,357334,0.0-8.20-0.20,1.0,138.0,,,,,,,[],,,,,,73.6,0.0,u,0.0,True,838.8999999761581,51.0,58.0,40.0,False,,227.16519205895327,[],"[720, 438]",ColorTask,69.0,21.0,,,HRV,HRV_0234,2022-11-30 19:31:28
,wl-rdm,138,359200,0.0-8.21-0.21,1.0,139.0,,,,,,,[],,,,,,73.6,0.0,u,0.0,True,593.5,36.0,58.0,40.0,False,,209.85933356869975,[],"[720, 438]",ColorTask,70.0,22.0,,,HRV,HRV_0234,2022-11-30 19:31:28
,wl-rdm,139,361183,0.0-8.22-0.22,1.0,140.0,,,,,,,[],,,,,,73.6,1.0,i,1.0,True,622.1000000238419,38.0,58.0,40.0,False,,288.36192345244694,[],"[720, 438]",ColorTask,71.0,23.0,,,HRV,HRV_0234,2022-11-30 19:31:28
,wl-rdm,140,363382,0.0-8.23-0.23,1.0,141.0,,,,,,,[],,,,,,53.2,1.0,i,1.0,True,911.9000000953674,55.0,58.0,40.0,False,,222.75886403557968,[],"[720, 438]",ColorTask,72.0,24.0,,,HRV,HRV_0234,2022-11-30 19:31:28
,wl-rdm,141,365300,0.0-8.24-0.24,1.0,142.0,,,,,,,[],,,,,,56.4,1.0,i,1.0,True,622.9999998807907,38.0,58.0,40.0,False,,215.12340030999272,[],"[720, 438]",ColorTask,73.0,25.0,,,HRV,HRV_0234,2022-11-30 19:31:28
,wl-rdm,142,367467,0.0-8.25-0.25,1.0,143.0,,,,,,,[],,,,,,53.2,1.0,u,0.0,False,823.3999999761581,50.0,58.0,40.0,False,,268.7203584669304,[],"[720, 438]",ColorTask,72.0,26.0,,,HRV,HRV_0234,2022-11-30 19:31:28
,wl-rdm,143,369366,0.0-8.26-0.26,1.0,144.0,,,,,,,[],,,,,,73.6,0.0,u,0.0,True,575.2000000476837,35.0,58.0,40.0,False,,242.15056977950468,[],"[720, 438]",ColorTask,73.0,27.0,,,HRV,HRV_0234,2022-11-30 19:31:28
,wl-rdm,144,371350,0.0-8.27-0.27,1.0,145.0,,,,,,,[],,,,,,62.5,1.0,i,1.0,True,711.1000000238419,43.0,58.0,40.0,False,,206.00831998969534,[],"[720, 438]",ColorTask,74.0,28.0,,,HRV,HRV_0234,2022-11-30 19:31:28
,wl-rdm,145,373450,0.0-8.28-0.28,1.0,146.0,,,,,,,[],,,,,,87.9,1.0,i,1.0,True,772.2999999523163,47.0,58.0,40.0,False,,263.88562978464785,[],"[720, 438]",ColorTask,75.0,29.0,,,HRV,HRV_0234,2022-11-30 19:31:28
,wl-rdm,146,375400,0.0-8.29-0.29,1.0,147.0,,,,,,,[],,,,,,53.2,0.0,u,0.0,True,625.1000000238419,38.0,58.0,40.0,False,,267.5545904472562,[],"[720, 438]",ColorTask,76.0,30.0,,,HRV,HRV_0234,2022-11-30 19:31:28
,wl-rdm,147,377634,0.0-8.30-0.30,1.0,148.0,,,,,,,[],,,,,,87.9,0.0,u,0.0,True,802.8999999761581,49.0,58.0,40.0,False,,341.8250625104903,[],"[720, 438]",ColorTask,77.0,31.0,,,HRV,HRV_0234,2022-11-30 19:31:28
,wl-rdm,148,379650,0.0-8.31-0.31,1.0,149.0,,,,,,,[],,,,,,62.5,1.0,i,1.0,True,675.2999999523163,41.0,58.0,40.0,False,,256.2492641341301,[],"[720, 438]",ColorTask,78.0,32.0,,,HRV,HRV_0234,2022-11-30 19:31:28
,wl-rdm,149,381684,0.0-8.32-0.32,1.0,150.0,,,,,,,[],,,,,,87.9,0.0,u,0.0,True,756.5000001192093,46.0,58.0,40.0,False,,214.0528274449726,[],"[720, 438]",ColorTask,79.0,33.0,,,HRV,HRV_0234,2022-11-30 19:31:28
,wl-rdm,150,383782,0.0-8.33-0.33,1.0,151.0,,,,,,,[],,,,,,50.0,1.0,i,1.0,True,718.1000000238419,43.0,58.0,40.0,False,,315.5743050033316,[],"[720, 438]",ColorTask,80.0,34.0,,,HRV,HRV_0234,2022-11-30 19:31:28
,wl-rdm,151,386000,0.0-8.34-0.34,1.0,152.0,,,,,,,[],,,,,,56.4,0.0,u,0.0,True,909.3999999761581,55.0,58.0,40.0,False,,240.63983839024317,[],"[720, 438]",ColorTask,81.0,35.0,,,HRV,HRV_0234,2022-11-30 19:31:28
,wl-rdm,152,388366,0.0-8.35-0.35,1.0,153.0,,,,,,,[],,,,,,53.2,0.0,u,0.0,True,1022.7000000476837,62.0,58.0,40.0,False,,268.7869678250483,[],"[720, 438]",ColorTask,82.0,36.0,,,HRV,HRV_0234,2022-11-30 19:31:28
,wl-rdm,153,390616,0.0-8.36-0.36,1.0,154.0,,,,,,,[],,,,,,53.2,1.0,u,0.0,False,973.6000000238419,59.0,58.0,40.0,False,,201.92894827112835,[],"[720, 438]",ColorTask,81.0,37.0,,,HRV,HRV_0234,2022-11-30 19:31:28
,wl-rdm,154,393050,0.0-8.37-0.37,1.0,155.0,,,,,,,[],,,,,,56.4,1.0,u,0.0,False,1086.2999999523163,66.0,58.0,40.0,False,,266.2485256774992,[],"[720, 438]",ColorTask,80.0,38.0,,,HRV,HRV_0234,2022-11-30 19:31:28
,wl-rdm,155,394932,0.0-8.38-0.38,1.0,156.0,,,,,,,[],,,,,,73.6,1.0,i,1.0,True,540.3999999761581,33.0,58.0,40.0,False,,265.08150807555313,[],"[720, 438]",ColorTask,81.0,39.0,,,HRV,HRV_0234,2022-11-30 19:31:28
,wl-rdm,156,396950,0.0-8.39-0.39,1.0,157.0,,,,,,,[],,,,,,62.5,1.0,i,1.0,True,659.6999999284744,40.0,58.0,40.0,False,,270.42656653333904,[],"[720, 438]",ColorTask,82.0,40.0,,,HRV,HRV_0234,2022-11-30 19:31:28
,wl-rdm,157,398867,0.0-8.40-0.40,1.0,158.0,,,,,,,[],,,,,,62.5,1.0,i,1.0,True,614.3000000715256,37.0,58.0,40.0,False,,237.99436094349764,[],"[720, 438]",ColorTask,83.0,41.0,,,HRV,HRV_0234,2022-11-30 19:31:28
,wl-rdm,158,400783,0.0-8.41-0.41,1.0,159.0,,,,,,,[],,,,,,73.6,0.0,u,0.0,True,585.1999999284744,36.0,58.0,40.0,False,,247.77762320501824,[],"[720, 438]",ColorTask,84.0,42.0,,,HRV,HRV_0234,2022-11-30 19:31:28
,wl-rdm,159,402867,0.0-8.42-0.42,1.0,160.0,,,,,,,[],,,,,,73.6,0.0,u,0.0,True,661.2999999523163,40.0,58.0,40.0,False,,334.70591465774237,[],"[720, 438]",ColorTask,85.0,43.0,,,HRV,HRV_0234,2022-11-30 19:31:28
,wl-rdm,160,404716,0.0-8.43-0.43,1.0,161.0,,,,,,,[],,,,,,87.9,0.0,u,0.0,True,578.0,35.0,58.0,40.0,False,,207.06439874850597,[],"[720, 438]",ColorTask,86.0,44.0,,,HRV,HRV_0234,2022-11-30 19:31:28
,wl-rdm,161,406717,0.0-8.44-0.44,1.0,162.0,,,,,,,[],,,,,,50.0,1.0,u,0.0,False,549.1000000238419,33.0,58.0,40.0,False,,390.92285898302134,[],"[720, 438]",ColorTask,85.0,45.0,,,HRV,HRV_0234,2022-11-30 19:31:28
,wl-rdm,162,408816,0.0-8.45-0.45,1.0,163.0,,,,,,,[],,,,,,50.0,1.0,i,1.0,True,806.2999999523163,49.0,58.0,40.0,False,,212.32136325203956,[],"[720, 438]",ColorTask,86.0,46.0,,,HRV,HRV_0234,2022-11-30 19:31:28
,wl-rdm,163,410816,0.0-8.46-0.46,1.0,164.0,,,,,,,[],,,,,,56.4,1.0,i,1.0,True,642.7999999523163,39.0,58.0,40.0,False,,289.4018881346152,[],"[720, 438]",ColorTask,87.0,47.0,,,HRV,HRV_0234,2022-11-30 19:31:28
,wl-rdm,164,412915,0.0-8.47-0.47,1.0,165.0,,,,,,,[],,,,,,53.2,0.0,u,0.0,True,739.5,45.0,58.0,40.0,False,,294.10300198885574,[],"[720, 438]",ColorTask,88.0,48.0,,,HRV,HRV_0234,2022-11-30 19:31:28
,wl-rdm,165,415165,0.0-8.48-0.48,1.0,166.0,,,,,,,[],,,,,,53.2,1.0,i,1.0,True,905.1000000238419,55.0,58.0,40.0,False,,271.8656261956355,[],"[720, 438]",ColorTask,89.0,49.0,,,HRV,HRV_0234,2022-11-30 19:31:28
,wl-rdm,166,417232,0.0-8.49-0.49,1.0,167.0,,,,,,,[],,,,,,73.6,0.0,u,0.0,True,700.6999999284744,43.0,58.0,40.0,False,,272.0656183618575,[],"[720, 438]",ColorTask,90.0,50.0,,,HRV,HRV_0234,2022-11-30 19:31:28
,wl-rdm,167,419282,0.0-8.50-0.50,1.0,168.0,,,,,,,[],,,,,,50.0,0.0,u,0.0,True,740.1000000238419,45.0,58.0,40.0,False,,241.86353393414566,[],"[720, 438]",ColorTask,91.0,51.0,,,HRV,HRV_0234,2022-11-30 19:31:28
,wl-rdm,168,421366,0.0-8.51-0.51,1.0,169.0,,,,,,,[],,,,,,62.5,1.0,i,1.0,True,761.3999999761581,46.0,58.0,40.0,False,,258.83588502040027,[],"[720, 438]",ColorTask,92.0,52.0,,,HRV,HRV_0234,2022-11-30 19:31:28
,wl-rdm,169,423615,0.0-8.52-0.52,1.0,170.0,,,,,,,[],,,,,,56.4,0.0,i,1.0,False,895.6999999284744,54.0,58.0,40.0,False,,297.65395909175254,[],"[720, 438]",ColorTask,91.0,53.0,,,HRV,HRV_0234,2022-11-30 19:31:28
,wl-rdm,170,425665,0.0-8.53-0.53,1.0,171.0,,,,,,,[],,,,,,87.9,1.0,i,1.0,True,760.3999998569489,46.0,58.0,40.0,False,,217.86370944808738,[],"[720, 438]",ColorTask,92.0,54.0,,,HRV,HRV_0234,2022-11-30 19:31:28
,wl-rdm,171,427666,0.0-8.54-0.54,1.0,172.0,,,,,,,[],,,,,,50.0,1.0,u,0.0,False,695.5,42.0,58.0,40.0,False,,248.25195831260015,[],"[720, 438]",ColorTask,91.0,55.0,,,HRV,HRV_0234,2022-11-30 19:31:28
,wl-rdm,172,430016,0.0-8.55-0.55,1.0,173.0,,,,,,,[],,,,,,56.4,0.0,u,0.0,True,1069.7999999523163,65.0,58.0,40.0,False,,210.6007243772722,[],"[720, 438]",ColorTask,92.0,56.0,,,HRV,HRV_0234,2022-11-30 19:31:28
,wl-rdm,173,431983,0.0-8.56-0.56,1.0,174.0,,,,,,,[],,,,,,87.9,0.0,u,0.0,True,658.6999999284744,40.0,58.0,40.0,False,,217.92339621084136,[],"[720, 438]",ColorTask,93.0,57.0,,,HRV,HRV_0234,2022-11-30 19:31:28
,wl-rdm,174,434065,0.0-8.57-0.57,1.0,175.0,,,,,,,[],,,,,,53.2,0.0,i,1.0,False,774.0999999046326,47.0,58.0,40.0,False,,237.316693072142,[],"[720, 438]",ColorTask,92.0,58.0,,,HRV,HRV_0234,2022-11-30 19:31:28
,wl-rdm,175,436131,0.0-8.58-0.58,1.0,176.0,,,,,,,[],,,,,,62.5,1.0,i,1.0,True,789.5,48.0,58.0,40.0,False,,205.63244250467557,[],"[720, 438]",ColorTask,93.0,59.0,,,HRV,HRV_0234,2022-11-30 19:31:28
,wl-rdm,176,438083,0.0-8.59-0.59,1.0,177.0,,,,,,,[],,,,,,53.2,1.0,i,1.0,True,563.3999999761581,34.0,58.0,40.0,False,,324.2197446803957,[],"[720, 438]",ColorTask,94.0,60.0,,,HRV,HRV_0234,2022-11-30 19:31:28
,wl-rdm,177,440150,0.0-8.60-0.60,1.0,178.0,,,,,,,[],,,,,,73.6,1.0,i,1.0,True,610.8999999761581,37.0,58.0,40.0,False,,370.52127376105506,[],"[720, 438]",ColorTask,95.0,61.0,,,HRV,HRV_0234,2022-11-30 19:31:28
,wl-rdm,178,442515,0.0-8.61-0.61,1.0,179.0,,,,,,,[],,,,,,62.5,1.0,i,1.0,True,974.2000000476837,59.0,58.0,40.0,False,,316.6209555210485,[],"[720, 438]",ColorTask,96.0,62.0,,,HRV,HRV_0234,2022-11-30 19:31:28
,wl-rdm,179,444715,0.0-8.62-0.62,1.0,180.0,,,,,,,[],,,,,,50.0,0.0,i,1.0,False,914.8999999761581,55.0,58.0,40.0,False,,215.51268285334513,[],"[720, 438]",ColorTask,95.0,63.0,,,HRV,HRV_0234,2022-11-30 19:31:28
,wl-rdm,180,446832,0.0-8.63-0.63,1.0,181.0,,,,,,,[],,,,,,56.4,0.0,u,0.0,True,695.7000000476837,42.0,58.0,40.0,False,,343.7352545406728,[],"[720, 438]",ColorTask,96.0,64.0,,,HRV,HRV_0234,2022-11-30 19:31:28
,wl-rdm,181,448850,0.0-8.64-0.64,1.0,182.0,,,,,,,[],,,,,,50.0,1.0,u,0.0,False,571.7000000476837,35.0,58.0,40.0,False,,368.9838376166224,[],"[720, 438]",ColorTask,95.0,65.0,,,HRV,HRV_0234,2022-11-30 19:31:28
,wl-rdm,182,451000,0.0-8.65-0.65,1.0,183.0,,,,,,,[],,,,,,50.0,0.0,u,0.0,True,810.8999999761581,49.0,58.0,40.0,False,,267.61114505223776,[],"[720, 438]",ColorTask,96.0,66.0,,,HRV,HRV_0234,2022-11-30 19:31:28
,wl-rdm,183,453233,0.0-8.66-0.66,1.0,184.0,,,,,,,[],,,,,,56.4,1.0,i,1.0,True,941.8000000715256,57.0,58.0,40.0,False,,222.2261517866754,[],"[720, 438]",ColorTask,97.0,67.0,,,HRV,HRV_0234,2022-11-30 19:31:28
,wl-rdm,184,455500,0.0-8.67-0.67,1.0,185.0,,,,,,,[],,,,,,73.6,1.0,i,1.0,True,841.7000000476837,51.0,58.0,40.0,False,,344.2326083473487,[],"[720, 438]",ColorTask,98.0,68.0,,,HRV,HRV_0234,2022-11-30 19:31:28
,wl-rdm,185,457431,0.0-8.68-0.68,1.0,186.0,,,,,,,[],,,,,,87.9,1.0,i,1.0,True,563.6999998092651,34.0,58.0,40.0,False,,312.3450050101155,[],"[720, 438]",ColorTask,99.0,69.0,,,HRV,HRV_0234,2022-11-30 19:31:28
,wl-rdm,186,459415,0.0-8.69-0.69,1.0,187.0,,,,,,,[],,,,,,53.2,1.0,i,1.0,True,677.6000000238419,41.0,58.0,40.0,False,,246.60461957128956,[],"[720, 438]",ColorTask,100.0,70.0,,,HRV,HRV_0234,2022-11-30 19:31:28
,wl-rdm,187,461582,0.0-8.70-0.70,1.0,188.0,,,,,,,[],,,,,,50.0,0.0,i,1.0,False,773.2000000476837,47.0,58.0,40.0,False,,331.75200755324454,[],"[720, 438]",ColorTask,99.0,71.0,,,HRV,HRV_0234,2022-11-30 19:31:28
,wl-rdm,188,463516,0.0-8.71-0.71,1.0,189.0,,,,,,,[],,,,,,87.9,1.0,u,0.0,False,592.4999998807907,36.0,58.0,40.0,False,,267.30397203030833,[],"[720, 438]",ColorTask,98.0,72.0,,,HRV,HRV_0234,2022-11-30 19:31:28
,wl-rdm,189,465648,0.0-8.72-0.72,1.0,190.0,,,,,,,[],,,,,,87.9,0.0,u,0.0,True,674.7000000476837,41.0,58.0,40.0,False,,379.39696942024625,[],"[720, 438]",ColorTask,99.0,73.0,,,HRV,HRV_0234,2022-11-30 19:31:28
,wl-rdm,190,467581,0.0-8.73-0.73,1.0,191.0,,,,,,,[],,,,,,87.9,0.0,u,0.0,True,665.1000000238419,40.0,58.0,40.0,False,,208.76392759417345,[],"[720, 438]",ColorTask,100.0,74.0,,,HRV,HRV_0234,2022-11-30 19:31:28
,wl-rdm,191,469650,0.0-8.74-0.74,1.0,192.0,,,,,,,[],,,,,,62.5,1.0,i,1.0,True,714.8999998569489,43.0,58.0,40.0,False,,295.33635453000886,[],"[720, 438]",ColorTask,101.0,75.0,,,HRV,HRV_0234,2022-11-30 19:31:28
,wl-rdm,192,472081,0.0-8.75-0.75,1.0,193.0,,,,,,,[],,,,,,56.4,1.0,i,1.0,True,1160.3999999761581,70.0,58.0,40.0,False,,212.6903494829789,[],"[720, 438]",ColorTask,102.0,76.0,,,HRV,HRV_0234,2022-11-30 19:31:28
,wl-rdm,193,473950,0.0-8.76-0.76,1.0,194.0,,,,,,,[],,,,,,73.6,1.0,i,1.0,True,508.2000000476837,31.0,58.0,40.0,False,,271.08607122823014,[],"[720, 438]",ColorTask,103.0,77.0,,,HRV,HRV_0234,2022-11-30 19:31:28
,wl-rdm,194,475865,0.0-8.77-0.77,1.0,195.0,,,,,,,[],,,,,,87.9,1.0,i,1.0,True,558.6000000238419,34.0,58.0,40.0,False,,290.23192388002974,[],"[720, 438]",ColorTask,104.0,78.0,,,HRV,HRV_0234,2022-11-30 19:31:28
,wl-rdm,195,477750,0.0-8.78-0.78,1.0,196.0,,,,,,,[],,,,,,62.5,0.0,u,0.0,True,576.2000000476837,35.0,58.0,40.0,False,,215.77161696832067,[],"[720, 438]",ColorTask,105.0,79.0,,,HRV,HRV_0234,2022-11-30 19:31:28
,wl-rdm,196,479915,0.0-8.79-0.79,1.0,197.0,,,,,,,[],,,,,,62.5,1.0,i,1.0,True,871.3000000715256,53.0,58.0,40.0,False,,205.46747520404216,[],"[720, 438]",ColorTask,106.0,80.0,,,HRV,HRV_0234,2022-11-30 19:31:28
,wl-rdm,197,481797,0.0-8.80-0.80,1.0,198.0,,,,,,,[],,,,,,53.2,0.0,i,1.0,False,557.4000000953674,34.0,58.0,40.0,False,,248.67294753591048,[],"[720, 438]",ColorTask,105.0,81.0,,,HRV,HRV_0234,2022-11-30 19:31:28
,wl-rdm,198,484281,0.0-8.81-0.81,1.0,199.0,,,,,,,[],,,,,,50.0,1.0,u,0.0,False,1058.8000000715256,64.0,58.0,40.0,False,,353.15471820924995,[],"[720, 438]",ColorTask,104.0,82.0,,,HRV,HRV_0234,2022-11-30 19:31:28
,wl-rdm,199,486632,0.0-8.82-0.82,1.0,200.0,,,,,,,[],,,,,,50.0,0.0,u,0.0,True,1063.4000000953674,64.0,58.0,40.0,False,,216.57451626399,[],"[720, 438]",ColorTask,105.0,83.0,,,HRV,HRV_0234,2022-11-30 19:31:28
,wl-rdm,200,488697,0.0-8.83-0.83,1.0,201.0,,,,,,,[],,,,,,87.9,1.0,i,1.0,True,705.8000000715256,43.0,58.0,40.0,False,,286.55681610750344,[],"[720, 438]",ColorTask,106.0,84.0,,,HRV,HRV_0234,2022-11-30 19:31:28
,wl-rdm,201,490899,0.0-8.84-0.84,1.0,202.0,,,,,,,[],,,,,,73.6,0.0,u,0.0,True,818.1000000238419,50.0,58.0,40.0,False,,294.24998727548115,[],"[720, 438]",ColorTask,107.0,85.0,,,HRV,HRV_0234,2022-11-30 19:31:28
,wl-rdm,202,492764,0.0-8.85-0.85,1.0,203.0,,,,,,,[],,,,,,87.9,0.0,u,0.0,True,538.8999999761581,33.0,58.0,40.0,False,,266.38441711401566,[],"[720, 438]",ColorTask,108.0,86.0,,,HRV,HRV_0234,2022-11-30 19:31:28
,wl-rdm,203,495150,0.0-8.86-0.86,1.0,204.0,,,,,,,[],,,,,,53.2,1.0,i,1.0,True,907.5,55.0,58.0,40.0,False,,385.41721244111926,[],"[720, 438]",ColorTask,109.0,87.0,,,HRV,HRV_0234,2022-11-30 19:31:28
,wl-rdm,204,497564,0.0-8.87-0.87,1.0,205.0,,,,,,,[],,,,,,53.2,0.0,i,1.0,False,1099.2999999523163,67.0,58.0,40.0,False,,249.90325641796844,[],"[720, 438]",ColorTask,108.0,88.0,,,HRV,HRV_0234,2022-11-30 19:31:28
,wl-rdm,205,499464,0.0-8.88-0.88,1.0,206.0,,,,,,,[],,,,,,73.6,1.0,i,1.0,True,578.4000000953674,35.0,58.0,40.0,False,,247.71889363308404,[],"[720, 438]",ColorTask,109.0,89.0,,,HRV,HRV_0234,2022-11-30 19:31:28
,wl-rdm,206,501681,0.0-8.89-0.89,1.0,207.0,,,,,,,[],,,,,,56.4,0.0,u,0.0,True,801.2000000476837,49.0,58.0,40.0,False,,347.08432657368326,[],"[720, 438]",ColorTask,110.0,90.0,,,HRV,HRV_0234,2022-11-30 19:31:28
,wl-rdm,207,504080,0.0-8.90-0.90,1.0,208.0,,,,,,,[],,,,,,53.2,1.0,u,0.0,False,976.7000000476837,59.0,58.0,40.0,False,,355.2416162362123,[],"[720, 438]",ColorTask,109.0,91.0,,,HRV,HRV_0234,2022-11-30 19:31:28
,wl-rdm,208,506448,0.0-8.91-0.91,1.0,209.0,,,,,,,[],,,,,,56.4,0.0,u,0.0,True,973.4999998807907,59.0,58.0,40.0,False,,323.8627485026812,[],"[720, 438]",ColorTask,110.0,92.0,,,HRV,HRV_0234,2022-11-30 19:31:28
,wl-rdm,209,508365,0.0-8.92-0.92,1.0,210.0,,,,,,,[],,,,,,73.6,0.0,u,0.0,True,571.0,35.0,58.0,40.0,False,,270.09199029409893,[],"[720, 438]",ColorTask,111.0,93.0,,,HRV,HRV_0234,2022-11-30 19:31:28
,wl-rdm,210,510332,0.0-8.93-0.93,1.0,211.0,,,,,,,[],,,,,,50.0,0.0,u,0.0,True,663.6000000238419,40.0,58.0,40.0,False,,236.92374218852575,[],"[720, 438]",ColorTask,112.0,94.0,,,HRV,HRV_0234,2022-11-30 19:31:28
,wl-rdm,211,512347,0.0-8.94-0.94,1.0,212.0,,,,,,,[],,,,,,62.5,0.0,u,0.0,True,572.0,35.0,58.0,40.0,False,,382.317330381347,[],"[720, 438]",ColorTask,113.0,95.0,,,HRV,HRV_0234,2022-11-30 19:31:28
,wl-rdm,212,514314,0.0-8.95-0.95,1.0,213.0,,,,,,,[],,,,,,87.9,0.0,u,0.0,True,542.1000000238419,33.0,58.0,40.0,False,,367.7190768574387,[],"[720, 438]",ColorTask,114.0,96.0,,,HRV,HRV_0234,2022-11-30 19:31:28
,wl-rdm,213,516232,0.0-8.96-0.96,1.0,214.0,,,,,,,[],,,,,,62.5,0.0,u,0.0,True,574.2999999523163,35.0,58.0,40.0,False,,253.89273398278937,[],"[720, 438]",ColorTask,115.0,97.0,,,HRV,HRV_0234,2022-11-30 19:31:28
,wl-rdm,214,518149,0.0-8.97-0.97,1.0,215.0,,,,,,,[],,,,,,62.5,0.0,u,0.0,True,539.6000000238419,33.0,58.0,40.0,False,,305.25138214687996,[],"[720, 438]",ColorTask,116.0,98.0,,,HRV,HRV_0234,2022-11-30 19:31:28
,wl-rdm,215,520230,0.0-8.98-0.98,1.0,216.0,,,,,,,[],,,,,,62.5,0.0,u,0.0,True,782.0999999046326,47.0,58.0,40.0,False,,237.7452693752552,[],"[720, 438]",ColorTask,117.0,99.0,,,HRV,HRV_0234,2022-11-30 19:31:28
,wl-rdm,216,522281,0.0-8.99-0.99,1.0,217.0,,,,,,,[],,,,,,56.4,1.0,u,0.0,False,674.4999998807907,41.0,58.0,40.0,False,,298.53107032461276,[],"[720, 438]",ColorTask,116.0,100.0,,,HRV,HRV_0234,2022-11-30 19:31:28
,wl-rdm,217,524363,0.0-8.100-0.100,1.0,218.0,,,,,,,[],,,,,,53.2,1.0,u,0.0,False,765.0,47.0,58.0,40.0,False,,246.89955729086887,[],"[720, 438]",ColorTask,115.0,101.0,,,HRV,HRV_0234,2022-11-30 19:31:28
,wl-rdm,218,526530,0.0-8.101-0.101,1.0,219.0,,,,,,,[],,,,,,53.2,0.0,u,0.0,True,723.3000000715256,44.0,58.0,40.0,False,,350.38759881025624,[],"[720, 438]",ColorTask,116.0,102.0,,,HRV,HRV_0234,2022-11-30 19:31:28
,wl-rdm,219,529031,0.0-8.102-0.102,1.0,220.0,,,,,,,[],,,,,,50.0,1.0,i,1.0,True,1076.9000000953674,65.0,58.0,40.0,False,,363.9875072455592,[],"[720, 438]",ColorTask,117.0,103.0,,,HRV,HRV_0234,2022-11-30 19:31:28
,wl-rdm,220,531313,0.0-8.103-0.103,1.0,221.0,,,,,,,[],,,,,,50.0,0.0,i,1.0,False,953.2000000476837,58.0,58.0,40.0,False,,253.26690734443025,[],"[720, 438]",ColorTask,116.0,104.0,,,HRV,HRV_0234,2022-11-30 19:31:28
,wl-rdm,221,533547,0.0-8.104-0.104,1.0,222.0,,,,,,,[],,,,,,56.4,0.0,u,0.0,True,876.2999999523163,53.0,58.0,40.0,False,,272.31678369511695,[],"[720, 438]",ColorTask,117.0,105.0,,,HRV,HRV_0234,2022-11-30 19:31:28
,wl-rdm,222,535731,0.0-8.105-0.105,1.0,223.0,,,,,,,[],,,,,,62.5,0.0,u,0.0,True,898.2999999523163,54.0,58.0,40.0,False,,221.05384419062258,[],"[720, 438]",ColorTask,118.0,106.0,,,HRV,HRV_0234,2022-11-30 19:31:28
,wl-rdm,223,537613,0.0-8.106-0.106,1.0,224.0,,,,,,,[],,,,,,87.9,1.0,i,1.0,True,605.7000000476837,37.0,58.0,40.0,False,,205.13021849368127,[],"[720, 438]",ColorTask,119.0,107.0,,,HRV,HRV_0234,2022-11-30 19:31:28
,wl-rdm,224,539514,0.0-8.107-0.107,1.0,225.0,,,,,,,[],,,,,,50.0,0.0,i,1.0,False,616.7000000476837,37.0,58.0,40.0,False,,216.9197622675345,[],"[720, 438]",ColorTask,118.0,108.0,,,HRV,HRV_0234,2022-11-30 19:31:28
,wl-html-button-response,225,542834,0.0-9.0-0.0,,,,,,,,,,3313.899999976158,,0,,,,,,,,,,,,,,,,,,,,<h3>End of this session. Thank you!</h3><br>,['Close window'],HRV,HRV_0234,2022-11-30 19:31:28
