trialN,stimuli,trialStartTime,trialStartTime_UNIX,stimulus1,stimulus2,stimulus1Bid,stimulus2Bid,delta,selected,rt,rt_UNIX,rt_perfnow,receivedResponse,rsp,trialEndTime,trialDuration,trialEndTime_UNIX,trialDuration_UNIX,exp,subjectId,date
0,"[{'imgObject': {}, 'id': 'kiwi', 'src': '/static/foodstim60/kiwi.jpg', 'key': 'u', 'origWidth': 410, 'origHeight': 410, 'width': 410, 'height': 410, 'widthPercent': 0.45, 'rescaleHeight': False, 'trialN': 0, 'loaded': True, 'loadedTime': 2960.9000000059605, 'positionName': 'LEFT', 'positionCoords': [245.68, 179], 'bid': 0.3}, {'imgObject': {}, 'id': 'Grapes', 'src': '/static/foodstim60/Grapes.jpg', 'key': 'i', 'origWidth': 411, 'origHeight': 411, 'width': 411, 'height': 411, 'widthPercent': 0.45, 'rescaleHeight': False, 'trialN': 0, 'loaded': True, 'loadedTime': 3073.199999988079, 'positionName': 'RIGHT', 'positionCoords': [710.32, 178.5], 'bid': 5.36}]",3592.4000000059605,1669831447965,kiwi,Grapes,0.3,5.36,5.0600000000000005,Grapes,1067.5,1069,1069.0999999940395,True,i,5176.5,1584.0999999940395,1669831449549,1584,HRV,HRV_0172,2022-11-30 18:23:02
1,"[{'imgObject': {}, 'id': 'eggs', 'src': '/static/foodstim60/eggs.jpg', 'key': 'u', 'origWidth': 409, 'origHeight': 409, 'width': 409, 'height': 409, 'widthPercent': 0.45, 'rescaleHeight': False, 'trialN': 1, 'loaded': True, 'loadedTime': 3111, 'positionName': 'LEFT', 'positionCoords': [246.68, 179.5], 'bid': 0.05}, {'imgObject': {}, 'id': 'mac & cheese', 'src': '/static/foodstim60/mac & cheese.jpg', 'key': 'i', 'origWidth': 410, 'origHeight': 410, 'width': 410, 'height': 410, 'widthPercent': 0.45, 'rescaleHeight': False, 'trialN': 1, 'loaded': True, 'loadedTime': 3135.9000000059605, 'positionName': 'RIGHT', 'positionCoords': [710.32, 179], 'bid': 2.84}]",5177.199999988079,1669831449550,eggs,mac & cheese,0.05,2.84,2.79,mac & cheese,903.9000000059605,904,904.4000000059605,True,i,6593.199999988079,1416.0,1669831450966,1416,HRV,HRV_0172,2022-11-30 18:23:02
2,"[{'imgObject': {}, 'id': 'baked potato', 'src': '/static/foodstim60/baked potato.jpg', 'key': 'u', 'origWidth': 409, 'origHeight': 410, 'width': 409, 'height': 410, 'widthPercent': 0.45, 'rescaleHeight': False, 'trialN': 2, 'loaded': True, 'loadedTime': 3136.199999988079, 'positionName': 'LEFT', 'positionCoords': [246.68, 179], 'bid': 5.01}, {'imgObject': {}, 'id': 'rigatoni and sauce', 'src': '/static/foodstim60/rigatoni and sauce.jpg', 'key': 'i', 'origWidth': 410, 'origHeight': 411, 'width': 410, 'height': 411, 'widthPercent': 0.45, 'rescaleHeight': False, 'trialN': 2, 'loaded': True, 'loadedTime': 3156.5999999940395, 'positionName': 'RIGHT', 'positionCoords': [710.32, 178.5], 'bid': 6.12}]",6593.699999988079,1669831450966,baked potato,rigatoni and sauce,5.01,6.12,1.1100000000000003,baked potato,1557.2000000178814,1558,1557.9000000059605,True,u,8658.199999988079,2064.5,1669831453031,2065,HRV,HRV_0172,2022-11-30 18:23:02
3,"[{'imgObject': {}, 'id': 'shreddedwheatwithmilk', 'src': '/static/foodstim60/shreddedwheatwithmilk.jpg', 'key': 'u', 'origWidth': 410, 'origHeight': 410, 'width': 410, 'height': 410, 'widthPercent': 0.45, 'rescaleHeight': False, 'trialN': 3, 'loaded': True, 'loadedTime': 3175.5999999940395, 'positionName': 'LEFT', 'positionCoords': [245.68, 179], 'bid': 2.78}, {'imgObject': {}, 'id': 'bagel plain', 'src': '/static/foodstim60/bagel plain.jpg', 'key': 'i', 'origWidth': 410, 'origHeight': 410, 'width': 410, 'height': 410, 'widthPercent': 0.45, 'rescaleHeight': False, 'trialN': 3, 'loaded': True, 'loadedTime': 3213.9000000059605, 'positionName': 'RIGHT', 'positionCoords': [710.32, 179], 'bid': 2.26}]",8658.800000011921,1669831453031,shreddedwheatwithmilk,bagel plain,2.78,2.26,-0.52,bagel plain,2033.8999999761581,2035,2034.5,True,i,11201.90000000596,2543.0999999940395,1669831455574,2543,HRV,HRV_0172,2022-11-30 18:23:02
4,"[{'imgObject': {}, 'id': 'strawberries', 'src': '/static/foodstim60/strawberries.jpg', 'key': 'u', 'origWidth': 410, 'origHeight': 410, 'width': 410, 'height': 410, 'widthPercent': 0.45, 'rescaleHeight': False, 'trialN': 4, 'loaded': True, 'loadedTime': 3256.300000011921, 'positionName': 'LEFT', 'positionCoords': [245.68, 179], 'bid': 0.3}, {'imgObject': {}, 'id': 'blackbeanswithrice', 'src': '/static/foodstim60/blackbeanswithrice.jpg', 'key': 'i', 'origWidth': 410, 'origHeight': 410, 'width': 410, 'height': 410, 'widthPercent': 0.45, 'rescaleHeight': False, 'trialN': 4, 'loaded': True, 'loadedTime': 3273.4000000059605, 'positionName': 'RIGHT', 'positionCoords': [710.32, 179], 'bid': 5.3}]",11202.40000000596,1669831455575,strawberries,blackbeanswithrice,0.3,5.3,5.0,blackbeanswithrice,1067.4000000059605,1068,1067.9000000059605,True,i,12781.699999988079,1579.2999999821186,1669831457154,1579,HRV,HRV_0172,2022-11-30 18:23:02
5,"[{'imgObject': {}, 'id': 'baked potato', 'src': '/static/foodstim60/baked potato.jpg', 'key': 'u', 'origWidth': 409, 'origHeight': 410, 'width': 409, 'height': 410, 'widthPercent': 0.45, 'rescaleHeight': False, 'trialN': 5, 'loaded': True, 'loadedTime': 3151.800000011921, 'positionName': 'LEFT', 'positionCoords': [246.68, 179], 'bid': 5.01}, {'imgObject': {}, 'id': 'blackbeanswithrice', 'src': '/static/foodstim60/blackbeanswithrice.jpg', 'key': 'i', 'origWidth': 410, 'origHeight': 410, 'width': 410, 'height': 410, 'widthPercent': 0.45, 'rescaleHeight': False, 'trialN': 5, 'loaded': True, 'loadedTime': 3257.800000011921, 'positionName': 'RIGHT', 'positionCoords': [710.32, 179], 'bid': 5.3}]",12782.199999988079,1669831457155,baked potato,blackbeanswithrice,5.01,5.3,0.29000000000000004,baked potato,2221.600000023842,2222,2222.0,True,u,15542.40000000596,2760.2000000178814,1669831459915,2760,HRV,HRV_0172,2022-11-30 18:23:02
6,"[{'imgObject': {}, 'id': 'Grapes', 'src': '/static/foodstim60/Grapes.jpg', 'key': 'u', 'origWidth': 411, 'origHeight': 411, 'width': 411, 'height': 411, 'widthPercent': 0.45, 'rescaleHeight': False, 'trialN': 6, 'loaded': True, 'loadedTime': 3092.800000011921, 'positionName': 'LEFT', 'positionCoords': [244.68, 178.5], 'bid': 5.36}, {'imgObject': {}, 'id': 'sweetpotato', 'src': '/static/foodstim60/sweetpotato.jpg', 'key': 'i', 'origWidth': 410, 'origHeight': 410, 'width': 410, 'height': 410, 'widthPercent': 0.45, 'rescaleHeight': False, 'trialN': 6, 'loaded': True, 'loadedTime': 3277, 'positionName': 'RIGHT', 'positionCoords': [710.32, 179], 'bid': 4.48}]",15543.5,1669831459916,Grapes,sweetpotato,5.36,4.48,-0.8799999999999999,sweetpotato,971.8000000119209,972,972.4000000059605,True,i,17030.09999999404,1486.5999999940395,1669831461402,1486,HRV,HRV_0172,2022-11-30 18:23:02
7,"[{'imgObject': {}, 'id': 'olives', 'src': '/static/foodstim60/olives.jpg', 'key': 'u', 'origWidth': 410, 'origHeight': 410, 'width': 410, 'height': 410, 'widthPercent': 0.45, 'rescaleHeight': False, 'trialN': 7, 'loaded': True, 'loadedTime': 3293.4000000059605, 'positionName': 'LEFT', 'positionCoords': [245.68, 179], 'bid': 0.15}, {'imgObject': {}, 'id': 'sushi w_condiments', 'src': '/static/foodstim60/sushi w_condiments.jpg', 'key': 'i', 'origWidth': 410, 'origHeight': 410, 'width': 410, 'height': 410, 'widthPercent': 0.45, 'rescaleHeight': False, 'trialN': 7, 'loaded': True, 'loadedTime': 3295, 'positionName': 'RIGHT', 'positionCoords': [710.32, 179], 'bid': 0.13}]",17030.5,1669831461403,olives,sushi w_condiments,0.15,0.13,-0.01999999999999999,olives,2503.9000000059605,2504,2504.5,True,u,20053.0,3022.5,1669831464425,3022,HRV,HRV_0172,2022-11-30 18:23:02
8,"[{'imgObject': {}, 'id': 'sushi w_condiments', 'src': '/static/foodstim60/sushi w_condiments.jpg', 'key': 'u', 'origWidth': 410, 'origHeight': 410, 'width': 410, 'height': 410, 'widthPercent': 0.45, 'rescaleHeight': False, 'trialN': 8, 'loaded': True, 'loadedTime': 3295, 'positionName': 'LEFT', 'positionCoords': [245.68, 179], 'bid': 0.13}, {'imgObject': {}, 'id': 'orange slices', 'src': '/static/foodstim60/orange slices.jpg', 'key': 'i', 'origWidth': 409, 'origHeight': 410, 'width': 409, 'height': 410, 'widthPercent': 0.45, 'rescaleHeight': False, 'trialN': 8, 'loaded': True, 'loadedTime': 3316, 'positionName': 'RIGHT', 'positionCoords': [710.32, 179], 'bid': 1.93}]",20053.19999998808,1669831464426,sushi w_condiments,orange slices,0.13,1.93,1.7999999999999998,orange slices,2343.800000011921,2344,2344.2000000178814,True,i,22911.5,2858.300000011921,1669831467284,2858,HRV,HRV_0172,2022-11-30 18:23:02
9,"[{'imgObject': {}, 'id': 'cocktailshrimp', 'src': '/static/foodstim60/cocktailshrimp.jpg', 'key': 'u', 'origWidth': 410, 'origHeight': 410, 'width': 410, 'height': 410, 'widthPercent': 0.45, 'rescaleHeight': False, 'trialN': 9, 'loaded': True, 'loadedTime': 3340.300000011921, 'positionName': 'LEFT', 'positionCoords': [245.68, 179], 'bid': 6.75}, {'imgObject': {}, 'id': 'bagel plain', 'src': '/static/foodstim60/bagel plain.jpg', 'key': 'i', 'origWidth': 410, 'origHeight': 410, 'width': 410, 'height': 410, 'widthPercent': 0.45, 'rescaleHeight': False, 'trialN': 9, 'loaded': True, 'loadedTime': 3214.4000000059605, 'positionName': 'RIGHT', 'positionCoords': [710.32, 179], 'bid': 2.26}]",22911.90000000596,1669831467284,cocktailshrimp,bagel plain,6.75,2.26,-4.49,cocktailshrimp,1052.199999988079,1053,1052.5999999940395,True,u,24478.0,1566.0999999940395,1669831468850,1566,HRV,HRV_0172,2022-11-30 18:23:02
10,"[{'imgObject': {}, 'id': 'burger', 'src': '/static/foodstim60/burger.jpg', 'key': 'u', 'origWidth': 409, 'origHeight': 409, 'width': 409, 'height': 409, 'widthPercent': 0.45, 'rescaleHeight': False, 'trialN': 10, 'loaded': True, 'loadedTime': 3340.4000000059605, 'positionName': 'LEFT', 'positionCoords': [246.68, 179.5], 'bid': 5.6000000000000005}, {'imgObject': {}, 'id': 'cherry tomato', 'src': '/static/foodstim60/cherry tomato.jpg', 'key': 'i', 'origWidth': 410, 'origHeight': 410, 'width': 410, 'height': 410, 'widthPercent': 0.45, 'rescaleHeight': False, 'trialN': 10, 'loaded': True, 'loadedTime': 3348.300000011921, 'positionName': 'RIGHT', 'positionCoords': [710.32, 179], 'bid': 0.31}]",24478.59999999404,1669831468851,burger,cherry tomato,5.6000000000000005,0.31,-5.290000000000001,burger,1219.0999999940395,1220,1219.7000000178814,True,u,26206.80000001192,1728.2000000178814,1669831470579,1728,HRV,HRV_0172,2022-11-30 18:23:02
11,"[{'imgObject': {}, 'id': 'edamame', 'src': '/static/foodstim60/edamame.jpg', 'key': 'u', 'origWidth': 409, 'origHeight': 410, 'width': 409, 'height': 410, 'widthPercent': 0.45, 'rescaleHeight': False, 'trialN': 11, 'loaded': True, 'loadedTime': 3351, 'positionName': 'LEFT', 'positionCoords': [246.68, 179], 'bid': 0.1}, {'imgObject': {}, 'id': 'sweetpotato', 'src': '/static/foodstim60/sweetpotato.jpg', 'key': 'i', 'origWidth': 410, 'origHeight': 410, 'width': 410, 'height': 410, 'widthPercent': 0.45, 'rescaleHeight': False, 'trialN': 11, 'loaded': True, 'loadedTime': 3275.199999988079, 'positionName': 'RIGHT', 'positionCoords': [710.32, 179], 'bid': 4.48}]",26207.0,1669831470579,edamame,sweetpotato,0.1,4.48,4.380000000000001,sweetpotato,1027.5,1028,1028.0999999940395,True,i,27741.59999999404,1534.5999999940395,1669831472114,1535,HRV,HRV_0172,2022-11-30 18:23:02
12,"[{'imgObject': {}, 'id': 'orange slices', 'src': '/static/foodstim60/orange slices.jpg', 'key': 'u', 'origWidth': 409, 'origHeight': 410, 'width': 409, 'height': 410, 'widthPercent': 0.45, 'rescaleHeight': False, 'trialN': 12, 'loaded': True, 'loadedTime': 3317.4000000059605, 'positionName': 'LEFT', 'positionCoords': [246.68, 179], 'bid': 1.93}, {'imgObject': {}, 'id': 'fried eggs', 'src': '/static/foodstim60/fried eggs.jpg', 'key': 'i', 'origWidth': 410, 'origHeight': 410, 'width': 410, 'height': 410, 'widthPercent': 0.45, 'rescaleHeight': False, 'trialN': 12, 'loaded': True, 'loadedTime': 3359, 'positionName': 'RIGHT', 'positionCoords': [710.32, 179], 'bid': 1.1}]",27742.09999999404,1669831472115,orange slices,fried eggs,1.93,1.1,-0.8299999999999998,orange slices,1722.300000011921,1722,1722.800000011921,True,u,29978.0,2235.9000000059605,1669831474350,2235,HRV,HRV_0172,2022-11-30 18:23:02
13,"[{'imgObject': {}, 'id': 'eggs', 'src': '/static/foodstim60/eggs.jpg', 'key': 'u', 'origWidth': 409, 'origHeight': 409, 'width': 409, 'height': 409, 'widthPercent': 0.45, 'rescaleHeight': False, 'trialN': 13, 'loaded': True, 'loadedTime': 3111.300000011921, 'positionName': 'LEFT', 'positionCoords': [246.68, 179.5], 'bid': 0.05}, {'imgObject': {}, 'id': 'cherries', 'src': '/static/foodstim60/cherries.jpg', 'key': 'i', 'origWidth': 410, 'origHeight': 411, 'width': 410, 'height': 411, 'widthPercent': 0.45, 'rescaleHeight': False, 'trialN': 13, 'loaded': True, 'loadedTime': 3371.4000000059605, 'positionName': 'RIGHT', 'positionCoords': [710.32, 178.5], 'bid': 0.98}]",29978.80000001192,1669831474351,eggs,cherries,0.05,0.98,0.9299999999999999,cherries,2465.199999988079,2466,2465.7999999821186,True,i,32955.80000001192,2977.0,1669831477328,2977,HRV,HRV_0172,2022-11-30 18:23:02
14,"[{'imgObject': {}, 'id': 'avocado', 'src': '/static/foodstim60/avocado.jpg', 'key': 'u', 'origWidth': 409, 'origHeight': 409, 'width': 409, 'height': 409, 'widthPercent': 0.45, 'rescaleHeight': False, 'trialN': 14, 'loaded': True, 'loadedTime': 3393.5999999940395, 'positionName': 'LEFT', 'positionCoords': [246.68, 179.5], 'bid': 0.1}, {'imgObject': {}, 'id': 'strawberries', 'src': '/static/foodstim60/strawberries.jpg', 'key': 'i', 'origWidth': 410, 'origHeight': 410, 'width': 410, 'height': 410, 'widthPercent': 0.45, 'rescaleHeight': False, 'trialN': 14, 'loaded': True, 'loadedTime': 3255.800000011921, 'positionName': 'RIGHT', 'positionCoords': [710.32, 179], 'bid': 0.3}]",32956.40000000596,1669831477329,avocado,strawberries,0.1,0.3,0.19999999999999998,strawberries,1280,1280,1280.5999999940395,True,i,34742.90000000596,1786.5,1669831479115,1786,HRV,HRV_0172,2022-11-30 18:23:02
15,"[{'imgObject': {}, 'id': 'salmon', 'src': '/static/foodstim60/salmon.jpg', 'key': 'u', 'origWidth': 410, 'origHeight': 409, 'width': 410, 'height': 409, 'widthPercent': 0.45, 'rescaleHeight': False, 'trialN': 15, 'loaded': True, 'loadedTime': 3409.9000000059605, 'positionName': 'LEFT', 'positionCoords': [245.68, 179.5], 'bid': 1.1}, {'imgObject': {}, 'id': 'mango', 'src': '/static/foodstim60/mango.jpg', 'key': 'i', 'origWidth': 411, 'origHeight': 411, 'width': 411, 'height': 411, 'widthPercent': 0.45, 'rescaleHeight': False, 'trialN': 15, 'loaded': True, 'loadedTime': 3416.5, 'positionName': 'RIGHT', 'positionCoords': [710.32, 178.5], 'bid': 0.38}]",34743.5,1669831479116,salmon,mango,1.1,0.38,-0.7200000000000001,salmon,1410.9000000059605,1411,1411.5999999940395,True,u,36666.90000000596,1923.4000000059605,1669831481039,1923,HRV,HRV_0172,2022-11-30 18:23:02
16,"[{'imgObject': {}, 'id': 'banana', 'src': '/static/foodstim60/banana.jpg', 'key': 'u', 'origWidth': 410, 'origHeight': 410, 'width': 410, 'height': 410, 'widthPercent': 0.45, 'rescaleHeight': False, 'trialN': 16, 'loaded': True, 'loadedTime': 3439.300000011921, 'positionName': 'LEFT', 'positionCoords': [245.68, 179], 'bid': 7.43}, {'imgObject': {}, 'id': 'granola w milk', 'src': '/static/foodstim60/granola w milk.jpg', 'key': 'i', 'origWidth': 410, 'origHeight': 410, 'width': 410, 'height': 410, 'widthPercent': 0.45, 'rescaleHeight': False, 'trialN': 16, 'loaded': True, 'loadedTime': 3456.5999999940395, 'positionName': 'RIGHT', 'positionCoords': [710.32, 179], 'bid': 2.43}]",36667.40000000596,1669831481040,banana,granola w milk,7.43,2.43,-5.0,banana,1008.9000000059605,1009,1009.5,True,u,38192.59999999404,1525.199999988079,1669831482565,1525,HRV,HRV_0172,2022-11-30 18:23:02
17,"[{'imgObject': {}, 'id': 'tacos', 'src': '/static/foodstim60/tacos.jpg', 'key': 'u', 'origWidth': 411, 'origHeight': 411, 'width': 411, 'height': 411, 'widthPercent': 0.45, 'rescaleHeight': False, 'trialN': 17, 'loaded': True, 'loadedTime': 3475, 'positionName': 'LEFT', 'positionCoords': [244.68, 178.5], 'bid': 5.7}, {'imgObject': {}, 'id': 'salad w chicken', 'src': '/static/foodstim60/salad w chicken.jpg', 'key': 'i', 'origWidth': 411, 'origHeight': 411, 'width': 411, 'height': 411, 'widthPercent': 0.45, 'rescaleHeight': False, 'trialN': 17, 'loaded': True, 'loadedTime': 3476.5999999940395, 'positionName': 'RIGHT', 'positionCoords': [710.32, 178.5], 'bid': 8.16}]",38193.0,1669831482565,tacos,salad w chicken,5.7,8.16,2.46,salad w chicken,1202.300000011921,1203,1203.0,True,i,39907.19999998808,1714.199999988079,1669831484280,1715,HRV,HRV_0172,2022-11-30 18:23:02
18,"[{'imgObject': {}, 'id': 'steak', 'src': '/static/foodstim60/steak.jpg', 'key': 'u', 'origWidth': 410, 'origHeight': 410, 'width': 410, 'height': 410, 'widthPercent': 0.45, 'rescaleHeight': False, 'trialN': 18, 'loaded': True, 'loadedTime': 3495, 'positionName': 'LEFT', 'positionCoords': [245.68, 179], 'bid': 7.95}, {'imgObject': {}, 'id': 'roastedpotatoes', 'src': '/static/foodstim60/roastedpotatoes.jpg', 'key': 'i', 'origWidth': 409, 'origHeight': 410, 'width': 409, 'height': 410, 'widthPercent': 0.45, 'rescaleHeight': False, 'trialN': 18, 'loaded': True, 'loadedTime': 3497.5, 'positionName': 'RIGHT', 'positionCoords': [710.32, 179], 'bid': 6.59}]",39907.80000001192,1669831484280,steak,roastedpotatoes,7.95,6.59,-1.3600000000000003,steak,783.6999999880791,784,784.2999999821186,True,u,41202.0,1294.199999988079,1669831485574,1294,HRV,HRV_0172,2022-11-30 18:23:02
19,"[{'imgObject': {}, 'id': 'mashed potato', 'src': '/static/foodstim60/mashed potato.jpg', 'key': 'u', 'origWidth': 409, 'origHeight': 409, 'width': 409, 'height': 409, 'widthPercent': 0.45, 'rescaleHeight': False, 'trialN': 19, 'loaded': True, 'loadedTime': 3499.800000011921, 'positionName': 'LEFT', 'positionCoords': [246.68, 179.5], 'bid': 6.05}, {'imgObject': {}, 'id': 'blackbeanswithrice', 'src': '/static/foodstim60/blackbeanswithrice.jpg', 'key': 'i', 'origWidth': 410, 'origHeight': 410, 'width': 410, 'height': 410, 'widthPercent': 0.45, 'rescaleHeight': False, 'trialN': 19, 'loaded': True, 'loadedTime': 3257.800000011921, 'positionName': 'RIGHT', 'positionCoords': [710.32, 179], 'bid': 5.3}]",41202.30000001192,1669831485575,mashed potato,blackbeanswithrice,6.05,5.3,-0.75,mashed potato,2137.0999999940395,2137,2137.5999999940395,True,u,43854.69999998808,2652.399999976158,1669831488227,2652,HRV,HRV_0172,2022-11-30 18:23:02
20,"[{'imgObject': {}, 'id': 'orange slices', 'src': '/static/foodstim60/orange slices.jpg', 'key': 'u', 'origWidth': 409, 'origHeight': 410, 'width': 409, 'height': 410, 'widthPercent': 0.45, 'rescaleHeight': False, 'trialN': 20, 'loaded': True, 'loadedTime': 3317.300000011921, 'positionName': 'LEFT', 'positionCoords': [246.68, 179], 'bid': 1.93}, {'imgObject': {}, 'id': 'fruitsalad', 'src': '/static/foodstim60/fruitsalad.jpg', 'key': 'i', 'origWidth': 410, 'origHeight': 410, 'width': 410, 'height': 410, 'widthPercent': 0.45, 'rescaleHeight': False, 'trialN': 20, 'loaded': True, 'loadedTime': 3518.5, 'positionName': 'RIGHT', 'positionCoords': [710.32, 179], 'bid': 1.58}]",43855.5,1669831488228,orange slices,fruitsalad,1.93,1.58,-0.34999999999999987,orange slices,1196.4000000059605,1197,1197.0,True,u,45569.5,1714.0,1669831489942,1714,HRV,HRV_0172,2022-11-30 18:23:02
21,"[{'imgObject': {}, 'id': 'steak', 'src': '/static/foodstim60/steak.jpg', 'key': 'u', 'origWidth': 410, 'origHeight': 410, 'width': 410, 'height': 410, 'widthPercent': 0.45, 'rescaleHeight': False, 'trialN': 21, 'loaded': True, 'loadedTime': 3493.4000000059605, 'positionName': 'LEFT', 'positionCoords': [245.68, 179], 'bid': 7.95}, {'imgObject': {}, 'id': 'banana', 'src': '/static/foodstim60/banana.jpg', 'key': 'i', 'origWidth': 410, 'origHeight': 410, 'width': 410, 'height': 410, 'widthPercent': 0.45, 'rescaleHeight': False, 'trialN': 21, 'loaded': True, 'loadedTime': 3439.199999988079, 'positionName': 'RIGHT', 'positionCoords': [710.32, 179], 'bid': 7.43}]",45569.69999998808,1669831489942,steak,banana,7.95,7.43,-0.5200000000000005,steak,1109.7000000178814,1110,1110.300000011921,True,u,47197.59999999404,1627.9000000059605,1669831491570,1628,HRV,HRV_0172,2022-11-30 18:23:02
22,"[{'imgObject': {}, 'id': 'fried eggs', 'src': '/static/foodstim60/fried eggs.jpg', 'key': 'u', 'origWidth': 410, 'origHeight': 410, 'width': 410, 'height': 410, 'widthPercent': 0.45, 'rescaleHeight': False, 'trialN': 22, 'loaded': True, 'loadedTime': 3360.699999988079, 'positionName': 'LEFT', 'positionCoords': [245.68, 179], 'bid': 1.1}, {'imgObject': {}, 'id': 'mac & cheese', 'src': '/static/foodstim60/mac & cheese.jpg', 'key': 'i', 'origWidth': 410, 'origHeight': 410, 'width': 410, 'height': 410, 'widthPercent': 0.45, 'rescaleHeight': False, 'trialN': 22, 'loaded': True, 'loadedTime': 3111.800000011921, 'positionName': 'RIGHT', 'positionCoords': [710.32, 179], 'bid': 2.84}]",47197.90000000596,1669831491570,fried eggs,mac & cheese,1.1,2.84,1.7399999999999998,mac & cheese,2002.5999999940395,2003,2003.0999999940395,True,i,49718.40000000596,2520.5,1669831494091,2521,HRV,HRV_0172,2022-11-30 18:23:02
23,"[{'imgObject': {}, 'id': 'chicken nuggets2', 'src': '/static/foodstim60/chicken nuggets2.jpg', 'key': 'u', 'origWidth': 410, 'origHeight': 409, 'width': 410, 'height': 409, 'widthPercent': 0.45, 'rescaleHeight': False, 'trialN': 23, 'loaded': True, 'loadedTime': 3538.4000000059605, 'positionName': 'LEFT', 'positionCoords': [245.68, 179.5], 'bid': 6.55}, {'imgObject': {}, 'id': 'blackbeanswithrice', 'src': '/static/foodstim60/blackbeanswithrice.jpg', 'key': 'i', 'origWidth': 410, 'origHeight': 410, 'width': 410, 'height': 410, 'widthPercent': 0.45, 'rescaleHeight': False, 'trialN': 23, 'loaded': True, 'loadedTime': 3256.4000000059605, 'positionName': 'RIGHT', 'positionCoords': [710.32, 179], 'bid': 5.3}]",49718.69999998808,1669831494091,chicken nuggets2,blackbeanswithrice,6.55,5.3,-1.25,chicken nuggets2,1883.2000000178814,1884,1883.9000000059605,True,u,52122.40000000596,2403.7000000178814,1669831496495,2404,HRV,HRV_0172,2022-11-30 18:23:02
24,"[{'imgObject': {}, 'id': 'raisin bran w milk', 'src': '/static/foodstim60/raisin bran w milk.jpg', 'key': 'u', 'origWidth': 411, 'origHeight': 411, 'width': 411, 'height': 411, 'widthPercent': 0.45, 'rescaleHeight': False, 'trialN': 24, 'loaded': True, 'loadedTime': 3540.5, 'positionName': 'LEFT', 'positionCoords': [244.68, 178.5], 'bid': 7.41}, {'imgObject': {}, 'id': 'veggieswithdip', 'src': '/static/foodstim60/veggieswithdip.jpg', 'key': 'i', 'origWidth': 409, 'origHeight': 409, 'width': 409, 'height': 409, 'widthPercent': 0.45, 'rescaleHeight': False, 'trialN': 24, 'loaded': True, 'loadedTime': 3542.699999988079, 'positionName': 'RIGHT', 'positionCoords': [710.32, 179.5], 'bid': 2.36}]",52123.0,1669831496495,raisin bran w milk,veggieswithdip,7.41,2.36,-5.050000000000001,NaN,NaN,NaN,,False,NaN,56137.0,4014.0,1669831500509,4014,HRV,HRV_0172,2022-11-30 18:23:02
25,"[{'imgObject': {}, 'id': 'mashed potato', 'src': '/static/foodstim60/mashed potato.jpg', 'key': 'u', 'origWidth': 409, 'origHeight': 409, 'width': 409, 'height': 409, 'widthPercent': 0.45, 'rescaleHeight': False, 'trialN': 25, 'loaded': True, 'loadedTime': 3515.300000011921, 'positionName': 'LEFT', 'positionCoords': [246.68, 179.5], 'bid': 6.05}, {'imgObject': {}, 'id': 'rigatoni', 'src': '/static/foodstim60/rigatoni.jpg', 'key': 'i', 'origWidth': 411, 'origHeight': 411, 'width': 411, 'height': 411, 'widthPercent': 0.45, 'rescaleHeight': False, 'trialN': 25, 'loaded': True, 'loadedTime': 3562, 'positionName': 'RIGHT', 'positionCoords': [710.32, 178.5], 'bid': 3.03}]",56137.40000000596,1669831500510,mashed potato,rigatoni,6.05,3.03,-3.02,mashed potato,2019.5999999940395,2020,2020.0999999940395,True,u,58672.80000001192,2535.4000000059605,1669831503046,2536,HRV,HRV_0172,2022-11-30 18:23:02
26,"[{'imgObject': {}, 'id': 'roastedpotatoes', 'src': '/static/foodstim60/roastedpotatoes.jpg', 'key': 'u', 'origWidth': 409, 'origHeight': 410, 'width': 409, 'height': 410, 'widthPercent': 0.45, 'rescaleHeight': False, 'trialN': 26, 'loaded': True, 'loadedTime': 3497.0999999940395, 'positionName': 'LEFT', 'positionCoords': [246.68, 179], 'bid': 6.59}, {'imgObject': {}, 'id': 'cocktailshrimp', 'src': '/static/foodstim60/cocktailshrimp.jpg', 'key': 'i', 'origWidth': 410, 'origHeight': 410, 'width': 410, 'height': 410, 'widthPercent': 0.45, 'rescaleHeight': False, 'trialN': 26, 'loaded': True, 'loadedTime': 3340.0999999940395, 'positionName': 'RIGHT', 'positionCoords': [710.32, 179], 'bid': 6.75}]",58673.90000000596,1669831503046,roastedpotatoes,cocktailshrimp,6.59,6.75,0.16000000000000014,cocktailshrimp,1516.2999999821186,1517,1516.699999988079,True,i,60707.09999999404,2033.199999988079,1669831505079,2033,HRV,HRV_0172,2022-11-30 18:23:02
27,"[{'imgObject': {}, 'id': 'strawberries', 'src': '/static/foodstim60/strawberries.jpg', 'key': 'u', 'origWidth': 410, 'origHeight': 410, 'width': 410, 'height': 410, 'widthPercent': 0.45, 'rescaleHeight': False, 'trialN': 27, 'loaded': True, 'loadedTime': 3253.800000011921, 'positionName': 'LEFT', 'positionCoords': [245.68, 179], 'bid': 0.3}, {'imgObject': {}, 'id': 'granola w milk', 'src': '/static/foodstim60/granola w milk.jpg', 'key': 'i', 'origWidth': 410, 'origHeight': 410, 'width': 410, 'height': 410, 'widthPercent': 0.45, 'rescaleHeight': False, 'trialN': 27, 'loaded': True, 'loadedTime': 3455.5999999940395, 'positionName': 'RIGHT', 'positionCoords': [710.32, 179], 'bid': 2.43}]",60707.5,1669831505080,strawberries,granola w milk,0.3,2.43,2.1300000000000003,granola w milk,1558.5,1559,1559.0999999940395,True,i,62787.59999999404,2080.0999999940395,1669831507160,2080,HRV,HRV_0172,2022-11-30 18:23:02
28,"[{'imgObject': {}, 'id': 'turkeysandwich', 'src': '/static/foodstim60/turkeysandwich.jpg', 'key': 'u', 'origWidth': 409, 'origHeight': 409, 'width': 409, 'height': 409, 'widthPercent': 0.45, 'rescaleHeight': False, 'trialN': 28, 'loaded': True, 'loadedTime': 3565.5999999940395, 'positionName': 'LEFT', 'positionCoords': [246.68, 179.5], 'bid': 5.89}, {'imgObject': {}, 'id': 'shreddedwheatwithmilk', 'src': '/static/foodstim60/shreddedwheatwithmilk.jpg', 'key': 'i', 'origWidth': 410, 'origHeight': 410, 'width': 410, 'height': 410, 'widthPercent': 0.45, 'rescaleHeight': False, 'trialN': 28, 'loaded': True, 'loadedTime': 3175.800000011921, 'positionName': 'RIGHT', 'positionCoords': [710.32, 179], 'bid': 2.78}]",62788.0,1669831507160,turkeysandwich,shreddedwheatwithmilk,5.89,2.78,-3.11,turkeysandwich,1612.4000000059605,1613,1613.0,True,u,64912.90000000596,2124.9000000059605,1669831509285,2125,HRV,HRV_0172,2022-11-30 18:23:02
29,"[{'imgObject': {}, 'id': 'luckycharms', 'src': '/static/foodstim60/luckycharms.jpg', 'key': 'u', 'origWidth': 410, 'origHeight': 409, 'width': 410, 'height': 409, 'widthPercent': 0.45, 'rescaleHeight': False, 'trialN': 29, 'loaded': True, 'loadedTime': 3566.699999988079, 'positionName': 'LEFT', 'positionCoords': [245.68, 179.5], 'bid': 6.08}, {'imgObject': {}, 'id': 'chicken nuggets2', 'src': '/static/foodstim60/chicken nuggets2.jpg', 'key': 'i', 'origWidth': 410, 'origHeight': 409, 'width': 410, 'height': 409, 'widthPercent': 0.45, 'rescaleHeight': False, 'trialN': 29, 'loaded': True, 'loadedTime': 3521.5, 'positionName': 'RIGHT', 'positionCoords': [710.32, 179.5], 'bid': 6.55}]",64913.19999998808,1669831509286,luckycharms,chicken nuggets2,6.08,6.55,0.46999999999999975,chicken nuggets2,1365.6000000238419,1366,1366.1000000238419,True,i,66793.19999998808,1880.0,1669831511166,1880,HRV,HRV_0172,2022-11-30 18:23:02
30,"[{'imgObject': {}, 'id': 'tacos', 'src': '/static/foodstim60/tacos.jpg', 'key': 'u', 'origWidth': 411, 'origHeight': 411, 'width': 411, 'height': 411, 'widthPercent': 0.45, 'rescaleHeight': False, 'trialN': 30, 'loaded': True, 'loadedTime': 3474.5, 'positionName': 'LEFT', 'positionCoords': [244.68, 178.5], 'bid': 5.7}, {'imgObject': {}, 'id': 'grilled chicken strips', 'src': '/static/foodstim60/grilled chicken strips.jpg', 'key': 'i', 'origWidth': 410, 'origHeight': 411, 'width': 410, 'height': 411, 'widthPercent': 0.45, 'rescaleHeight': False, 'trialN': 30, 'loaded': True, 'loadedTime': 3568.0999999940395, 'positionName': 'RIGHT', 'positionCoords': [710.32, 178.5], 'bid': 4.86}]",66793.69999998808,1669831511166,tacos,grilled chicken strips,5.7,4.86,-0.8399999999999999,tacos,1289.4000000059605,1290,1290.1000000238419,True,u,68604.59999999404,1810.9000000059605,1669831512977,1811,HRV,HRV_0172,2022-11-30 18:23:02
31,"[{'imgObject': {}, 'id': 'ice cream sundae 002', 'src': '/static/foodstim60/ice cream sundae 002.jpg', 'key': 'u', 'origWidth': 409, 'origHeight': 409, 'width': 409, 'height': 409, 'widthPercent': 0.45, 'rescaleHeight': False, 'trialN': 31, 'loaded': True, 'loadedTime': 3569.0999999940395, 'positionName': 'LEFT', 'positionCoords': [246.68, 179.5], 'bid': 0.65}, {'imgObject': {}, 'id': 'cantaloupe', 'src': '/static/foodstim60/cantaloupe.jpg', 'key': 'i', 'origWidth': 409, 'origHeight': 409, 'width': 409, 'height': 409, 'widthPercent': 0.45, 'rescaleHeight': False, 'trialN': 31, 'loaded': True, 'loadedTime': 3570.800000011921, 'positionName': 'RIGHT', 'positionCoords': [710.32, 179.5], 'bid': 0.05}]",68604.90000000596,1669831512977,ice cream sundae 002,cantaloupe,0.65,0.05,-0.6,ice cream sundae 002,1240.7999999821186,1242,1241.5,True,u,70361.09999999404,1756.199999988079,1669831514733,1756,HRV,HRV_0172,2022-11-30 18:23:02
32,"[{'imgObject': {}, 'id': 'sweetpotato', 'src': '/static/foodstim60/sweetpotato.jpg', 'key': 'u', 'origWidth': 410, 'origHeight': 410, 'width': 410, 'height': 410, 'widthPercent': 0.45, 'rescaleHeight': False, 'trialN': 32, 'loaded': True, 'loadedTime': 3277, 'positionName': 'LEFT', 'positionCoords': [245.68, 179], 'bid': 4.48}, {'imgObject': {}, 'id': 'granola w milk', 'src': '/static/foodstim60/granola w milk.jpg', 'key': 'i', 'origWidth': 410, 'origHeight': 410, 'width': 410, 'height': 410, 'widthPercent': 0.45, 'rescaleHeight': False, 'trialN': 32, 'loaded': True, 'loadedTime': 3456.699999988079, 'positionName': 'RIGHT', 'positionCoords': [710.32, 179], 'bid': 2.43}]",70361.59999999404,1669831514734,sweetpotato,granola w milk,4.48,2.43,-2.0500000000000003,sweetpotato,1317.5999999940395,1318,1318.300000011921,True,u,72183.69999998808,1822.0999999940395,1669831516556,1822,HRV,HRV_0172,2022-11-30 18:23:02
33,"[{'imgObject': {}, 'id': 'Tribe humus pita', 'src': '/static/foodstim60/Tribe humus pita.jpg', 'key': 'u', 'origWidth': 411, 'origHeight': 411, 'width': 411, 'height': 411, 'widthPercent': 0.45, 'rescaleHeight': False, 'trialN': 33, 'loaded': True, 'loadedTime': 3573.0999999940395, 'positionName': 'LEFT', 'positionCoords': [244.68, 178.5], 'bid': 2.43}, {'imgObject': {}, 'id': 'kiwi', 'src': '/static/foodstim60/kiwi.jpg', 'key': 'i', 'origWidth': 410, 'origHeight': 410, 'width': 410, 'height': 410, 'widthPercent': 0.45, 'rescaleHeight': False, 'trialN': 33, 'loaded': True, 'loadedTime': 2962.800000011921, 'positionName': 'RIGHT', 'positionCoords': [710.32, 179], 'bid': 0.3}]",72183.90000000596,1669831516556,Tribe humus pita,kiwi,2.43,0.3,-2.1300000000000003,Tribe humus pita,1880.7999999821186,1882,1881.2999999821186,True,u,74587.30000001192,2403.4000000059605,1669831518960,2404,HRV,HRV_0172,2022-11-30 18:23:02
34,"[{'imgObject': {}, 'id': 'cherry tomato', 'src': '/static/foodstim60/cherry tomato.jpg', 'key': 'u', 'origWidth': 410, 'origHeight': 410, 'width': 410, 'height': 410, 'widthPercent': 0.45, 'rescaleHeight': False, 'trialN': 34, 'loaded': True, 'loadedTime': 3348.199999988079, 'positionName': 'LEFT', 'positionCoords': [245.68, 179], 'bid': 0.31}, {'imgObject': {}, 'id': 'raspberries', 'src': '/static/foodstim60/raspberries.jpg', 'key': 'i', 'origWidth': 411, 'origHeight': 411, 'width': 411, 'height': 411, 'widthPercent': 0.45, 'rescaleHeight': False, 'trialN': 34, 'loaded': True, 'loadedTime': 3005.0999999940395, 'positionName': 'RIGHT', 'positionCoords': [710.32, 178.5], 'bid': 0.09}]",74587.5,1669831518960,cherry tomato,raspberries,0.31,0.09,-0.22,raspberries,1883.800000011921,1884,1884.300000011921,True,i,76974.0,2386.5,1669831521346,2386,HRV,HRV_0172,2022-11-30 18:23:02
35,"[{'imgObject': {}, 'id': 'sweetpotato', 'src': '/static/foodstim60/sweetpotato.jpg', 'key': 'u', 'origWidth': 410, 'origHeight': 410, 'width': 410, 'height': 410, 'widthPercent': 0.45, 'rescaleHeight': False, 'trialN': 35, 'loaded': True, 'loadedTime': 3277.0999999940395, 'positionName': 'LEFT', 'positionCoords': [245.68, 179], 'bid': 4.48}, {'imgObject': {}, 'id': 'chicken nuggets2', 'src': '/static/foodstim60/chicken nuggets2.jpg', 'key': 'i', 'origWidth': 410, 'origHeight': 409, 'width': 410, 'height': 409, 'widthPercent': 0.45, 'rescaleHeight': False, 'trialN': 35, 'loaded': True, 'loadedTime': 3538.300000011921, 'positionName': 'RIGHT', 'positionCoords': [710.32, 179.5], 'bid': 6.55}]",76974.59999999404,1669831521347,sweetpotato,chicken nuggets2,4.48,6.55,2.0699999999999994,chicken nuggets2,2239.800000011921,2240,2240.5,True,i,79721.5,2746.9000000059605,1669831524094,2747,HRV,HRV_0172,2022-11-30 18:23:02
36,"[{'imgObject': {}, 'id': 'bagel plain', 'src': '/static/foodstim60/bagel plain.jpg', 'key': 'u', 'origWidth': 410, 'origHeight': 410, 'width': 410, 'height': 410, 'widthPercent': 0.45, 'rescaleHeight': False, 'trialN': 36, 'loaded': True, 'loadedTime': 3213.0999999940395, 'positionName': 'LEFT', 'positionCoords': [245.68, 179], 'bid': 2.26}, {'imgObject': {}, 'id': 'bagel and cc', 'src': '/static/foodstim60/bagel and cc.jpg', 'key': 'i', 'origWidth': 410, 'origHeight': 410, 'width': 410, 'height': 410, 'widthPercent': 0.45, 'rescaleHeight': False, 'trialN': 36, 'loaded': True, 'loadedTime': 3031.199999988079, 'positionName': 'RIGHT', 'positionCoords': [710.32, 179], 'bid': 3.31}]",79721.69999998808,1669831524094,bagel plain,bagel and cc,2.26,3.31,1.0500000000000003,bagel and cc,1641.6000000238419,1642,1642.0,True,i,81882.90000000596,2161.2000000178814,1669831526255,2161,HRV,HRV_0172,2022-11-30 18:23:02
37,"[{'imgObject': {}, 'id': 'apple slices', 'src': '/static/foodstim60/apple slices.jpg', 'key': 'u', 'origWidth': 409, 'origHeight': 410, 'width': 409, 'height': 410, 'widthPercent': 0.45, 'rescaleHeight': False, 'trialN': 37, 'loaded': True, 'loadedTime': 3052.199999988079, 'positionName': 'LEFT', 'positionCoords': [246.68, 179], 'bid': 3.19}, {'imgObject': {}, 'id': 'Tribe humus pita', 'src': '/static/foodstim60/Tribe humus pita.jpg', 'key': 'i', 'origWidth': 411, 'origHeight': 411, 'width': 411, 'height': 411, 'widthPercent': 0.45, 'rescaleHeight': False, 'trialN': 37, 'loaded': True, 'loadedTime': 3573.4000000059605, 'positionName': 'RIGHT', 'positionCoords': [710.32, 178.5], 'bid': 2.43}]",81883.30000001192,1669831526256,apple slices,Tribe humus pita,3.19,2.43,-0.7599999999999998,Tribe humus pita,2578.7999999821186,2579,2579.5999999940395,True,i,84966.80000001192,3083.5,1669831529339,3083,HRV,HRV_0172,2022-11-30 18:23:02
38,"[{'imgObject': {}, 'id': 'corn cob', 'src': '/static/foodstim60/corn cob.jpg', 'key': 'u', 'origWidth': 411, 'origHeight': 411, 'width': 411, 'height': 411, 'widthPercent': 0.45, 'rescaleHeight': False, 'trialN': 38, 'loaded': True, 'loadedTime': 3072.699999988079, 'positionName': 'LEFT', 'positionCoords': [244.68, 178.5], 'bid': 2.58}, {'imgObject': {}, 'id': 'bagel and cc', 'src': '/static/foodstim60/bagel and cc.jpg', 'key': 'i', 'origWidth': 410, 'origHeight': 410, 'width': 410, 'height': 410, 'widthPercent': 0.45, 'rescaleHeight': False, 'trialN': 38, 'loaded': True, 'loadedTime': 3029.699999988079, 'positionName': 'RIGHT', 'positionCoords': [710.32, 179], 'bid': 3.31}]",84967.69999998808,1669831529340,corn cob,bagel and cc,2.58,3.31,0.73,bagel and cc,1681.1000000238419,1682,1681.5,True,i,87157.59999999404,2189.9000000059605,1669831531530,2190,HRV,HRV_0172,2022-11-30 18:23:02
39,"[{'imgObject': {}, 'id': 'seaweed', 'src': '/static/foodstim60/seaweed.jpg', 'key': 'u', 'origWidth': 410, 'origHeight': 410, 'width': 410, 'height': 410, 'widthPercent': 0.45, 'rescaleHeight': False, 'trialN': 39, 'loaded': True, 'loadedTime': 3177.300000011921, 'positionName': 'LEFT', 'positionCoords': [245.68, 179], 'bid': 0.13}, {'imgObject': {}, 'id': 'bagel plain', 'src': '/static/foodstim60/bagel plain.jpg', 'key': 'i', 'origWidth': 410, 'origHeight': 410, 'width': 410, 'height': 410, 'widthPercent': 0.45, 'rescaleHeight': False, 'trialN': 39, 'loaded': True, 'loadedTime': 3236.300000011921, 'positionName': 'RIGHT', 'positionCoords': [710.32, 179], 'bid': 2.26}]",87158.09999999404,1669831531530,seaweed,bagel plain,0.13,2.26,2.13,bagel plain,1408.7000000178814,1410,1409.300000011921,True,i,89072.09999999404,1914.0,1669831533444,1914,HRV,HRV_0172,2022-11-30 18:23:02
40,"[{'imgObject': {}, 'id': 'veggieswithdip', 'src': '/static/foodstim60/veggieswithdip.jpg', 'key': 'u', 'origWidth': 409, 'origHeight': 409, 'width': 409, 'height': 409, 'widthPercent': 0.45, 'rescaleHeight': False, 'trialN': 40, 'loaded': True, 'loadedTime': 3542.300000011921, 'positionName': 'LEFT', 'positionCoords': [246.68, 179.5], 'bid': 2.36}, {'imgObject': {}, 'id': 'olives', 'src': '/static/foodstim60/olives.jpg', 'key': 'i', 'origWidth': 410, 'origHeight': 410, 'width': 410, 'height': 410, 'widthPercent': 0.45, 'rescaleHeight': False, 'trialN': 40, 'loaded': True, 'loadedTime': 3278.199999988079, 'positionName': 'RIGHT', 'positionCoords': [710.32, 179], 'bid': 0.15}]",89072.40000000596,1669831533445,veggieswithdip,olives,2.36,0.15,-2.21,veggieswithdip,1911,1911,1911.5999999940395,True,u,91492.30000001192,2419.9000000059605,1669831535865,2420,HRV,HRV_0172,2022-11-30 18:23:02
41,"[{'imgObject': {}, 'id': 'burger', 'src': '/static/foodstim60/burger.jpg', 'key': 'u', 'origWidth': 409, 'origHeight': 409, 'width': 409, 'height': 409, 'widthPercent': 0.45, 'rescaleHeight': False, 'trialN': 41, 'loaded': True, 'loadedTime': 3342.4000000059605, 'positionName': 'LEFT', 'positionCoords': [246.68, 179.5], 'bid': 5.6000000000000005}, {'imgObject': {}, 'id': 'froot loops w milk', 'src': '/static/foodstim60/froot loops w milk.jpg', 'key': 'i', 'origWidth': 410, 'origHeight': 410, 'width': 410, 'height': 410, 'widthPercent': 0.45, 'rescaleHeight': False, 'trialN': 41, 'loaded': True, 'loadedTime': 3212.699999988079, 'positionName': 'RIGHT', 'positionCoords': [710.32, 179], 'bid': 4.76}]",91492.80000001192,1669831535865,burger,froot loops w milk,5.6000000000000005,4.76,-0.8400000000000007,burger,1626.0999999940395,1627,1626.7999999821186,True,u,93632.09999999404,2139.2999999821186,1669831538004,2139,HRV,HRV_0172,2022-11-30 18:23:02
42,"[{'imgObject': {}, 'id': 'edamame', 'src': '/static/foodstim60/edamame.jpg', 'key': 'u', 'origWidth': 409, 'origHeight': 410, 'width': 409, 'height': 410, 'widthPercent': 0.45, 'rescaleHeight': False, 'trialN': 42, 'loaded': True, 'loadedTime': 3351.0999999940395, 'positionName': 'LEFT', 'positionCoords': [246.68, 179], 'bid': 0.1}, {'imgObject': {}, 'id': 'blueberries', 'src': '/static/foodstim60/blueberries.jpg', 'key': 'i', 'origWidth': 411, 'origHeight': 411, 'width': 411, 'height': 411, 'widthPercent': 0.45, 'rescaleHeight': False, 'trialN': 42, 'loaded': True, 'loadedTime': 3237.4000000059605, 'positionName': 'RIGHT', 'positionCoords': [710.32, 178.5], 'bid': 0.1}]",93632.59999999404,1669831538005,edamame,blueberries,0.1,0.1,0.0,blueberries,1167.2000000178814,1168,1167.9000000059605,True,i,95318.09999999404,1685.5,1669831539690,1685,HRV,HRV_0172,2022-11-30 18:23:02
43,"[{'imgObject': {}, 'id': 'salad w chicken', 'src': '/static/foodstim60/salad w chicken.jpg', 'key': 'u', 'origWidth': 411, 'origHeight': 411, 'width': 411, 'height': 411, 'widthPercent': 0.45, 'rescaleHeight': False, 'trialN': 43, 'loaded': True, 'loadedTime': 3476.300000011921, 'positionName': 'LEFT', 'positionCoords': [244.68, 178.5], 'bid': 8.16}, {'imgObject': {}, 'id': 'popsicles', 'src': '/static/foodstim60/popsicles.jpg', 'key': 'i', 'origWidth': 410, 'origHeight': 410, 'width': 410, 'height': 410, 'widthPercent': 0.45, 'rescaleHeight': False, 'trialN': 43, 'loaded': True, 'loadedTime': 3590.300000011921, 'positionName': 'RIGHT', 'positionCoords': [710.32, 179], 'bid': 7.54}]",95319.0,1669831539691,salad w chicken,popsicles,8.16,7.54,-0.6200000000000001,salad w chicken,1309,1310,1309.300000011921,True,u,97147.80000001192,1828.800000011921,1669831541520,1829,HRV,HRV_0172,2022-11-30 18:23:02
44,"[{'imgObject': {}, 'id': 'salmon', 'src': '/static/foodstim60/salmon.jpg', 'key': 'u', 'origWidth': 410, 'origHeight': 409, 'width': 410, 'height': 409, 'widthPercent': 0.45, 'rescaleHeight': False, 'trialN': 44, 'loaded': True, 'loadedTime': 3394.5, 'positionName': 'LEFT', 'positionCoords': [245.68, 179.5], 'bid': 1.1}, {'imgObject': {}, 'id': 'fruitsalad', 'src': '/static/foodstim60/fruitsalad.jpg', 'key': 'i', 'origWidth': 410, 'origHeight': 410, 'width': 410, 'height': 410, 'widthPercent': 0.45, 'rescaleHeight': False, 'trialN': 44, 'loaded': True, 'loadedTime': 3518.300000011921, 'positionName': 'RIGHT', 'positionCoords': [710.32, 179], 'bid': 1.58}]",97148.09999999404,1669831541520,salmon,fruitsalad,1.1,1.58,0.48,salmon,1073.5999999940395,1074,1074.0,True,u,98740.30000001192,1592.2000000178814,1669831543113,1593,HRV,HRV_0172,2022-11-30 18:23:02
45,"[{'imgObject': {}, 'id': 'froot loops w milk', 'src': '/static/foodstim60/froot loops w milk.jpg', 'key': 'u', 'origWidth': 410, 'origHeight': 410, 'width': 410, 'height': 410, 'widthPercent': 0.45, 'rescaleHeight': False, 'trialN': 45, 'loaded': True, 'loadedTime': 3212.4000000059605, 'positionName': 'LEFT', 'positionCoords': [245.68, 179], 'bid': 4.76}, {'imgObject': {}, 'id': 'roastedpotatoes', 'src': '/static/foodstim60/roastedpotatoes.jpg', 'key': 'i', 'origWidth': 409, 'origHeight': 410, 'width': 409, 'height': 410, 'widthPercent': 0.45, 'rescaleHeight': False, 'trialN': 45, 'loaded': True, 'loadedTime': 3495.300000011921, 'positionName': 'RIGHT', 'positionCoords': [710.32, 179], 'bid': 6.59}]",98740.69999998808,1669831543113,froot loops w milk,roastedpotatoes,4.76,6.59,1.83,roastedpotatoes,1615.800000011921,1616,1616.300000011921,True,i,100870.90000000596,2130.2000000178814,1669831545243,2130,HRV,HRV_0172,2022-11-30 18:23:02
46,"[{'imgObject': {}, 'id': 'bagel and cc', 'src': '/static/foodstim60/bagel and cc.jpg', 'key': 'u', 'origWidth': 410, 'origHeight': 410, 'width': 410, 'height': 410, 'widthPercent': 0.45, 'rescaleHeight': False, 'trialN': 46, 'loaded': True, 'loadedTime': 3030.800000011921, 'positionName': 'LEFT', 'positionCoords': [245.68, 179], 'bid': 3.31}, {'imgObject': {}, 'id': 'rigatoni', 'src': '/static/foodstim60/rigatoni.jpg', 'key': 'i', 'origWidth': 411, 'origHeight': 411, 'width': 411, 'height': 411, 'widthPercent': 0.45, 'rescaleHeight': False, 'trialN': 46, 'loaded': True, 'loadedTime': 3563.4000000059605, 'positionName': 'RIGHT', 'positionCoords': [710.32, 178.5], 'bid': 3.03}]",100871.09999999404,1669831545243,bagel and cc,rigatoni,3.31,3.03,-0.28000000000000025,bagel and cc,1588.9000000059605,1590,1589.4000000059605,True,u,102973.19999998808,2102.0999999940395,1669831547345,2102,HRV,HRV_0172,2022-11-30 18:23:02
47,"[{'imgObject': {}, 'id': 'ice cream sundae 002', 'src': '/static/foodstim60/ice cream sundae 002.jpg', 'key': 'u', 'origWidth': 409, 'origHeight': 409, 'width': 409, 'height': 409, 'widthPercent': 0.45, 'rescaleHeight': False, 'trialN': 47, 'loaded': True, 'loadedTime': 3569.5, 'positionName': 'LEFT', 'positionCoords': [246.68, 179.5], 'bid': 0.65}, {'imgObject': {}, 'id': 'cherry tomato', 'src': '/static/foodstim60/cherry tomato.jpg', 'key': 'i', 'origWidth': 410, 'origHeight': 410, 'width': 410, 'height': 410, 'widthPercent': 0.45, 'rescaleHeight': False, 'trialN': 47, 'loaded': True, 'loadedTime': 3343.300000011921, 'positionName': 'RIGHT', 'positionCoords': [710.32, 179], 'bid': 0.31}]",102973.40000000596,1669831547346,ice cream sundae 002,cherry tomato,0.65,0.31,-0.34,ice cream sundae 002,1552.5,1553,1553.199999988079,True,u,105047.30000001192,2073.9000000059605,1669831549420,2074,HRV,HRV_0172,2022-11-30 18:23:02
48,"[{'imgObject': {}, 'id': 'ice cream sundae 002', 'src': '/static/foodstim60/ice cream sundae 002.jpg', 'key': 'u', 'origWidth': 409, 'origHeight': 409, 'width': 409, 'height': 409, 'widthPercent': 0.45, 'rescaleHeight': False, 'trialN': 48, 'loaded': True, 'loadedTime': 3568.199999988079, 'positionName': 'LEFT', 'positionCoords': [246.68, 179.5], 'bid': 0.65}, {'imgObject': {}, 'id': 'avocado', 'src': '/static/foodstim60/avocado.jpg', 'key': 'i', 'origWidth': 409, 'origHeight': 409, 'width': 409, 'height': 409, 'widthPercent': 0.45, 'rescaleHeight': False, 'trialN': 48, 'loaded': True, 'loadedTime': 3393.0999999940395, 'positionName': 'RIGHT', 'positionCoords': [710.32, 179.5], 'bid': 0.1}]",105047.5,1669831549420,ice cream sundae 002,avocado,0.65,0.1,-0.55,ice cream sundae 002,1387,1387,1387.5999999940395,True,u,106953.0,1905.5,1669831551325,1905,HRV,HRV_0172,2022-11-30 18:23:02
49,"[{'imgObject': {}, 'id': 'cantaloupe', 'src': '/static/foodstim60/cantaloupe.jpg', 'key': 'u', 'origWidth': 409, 'origHeight': 409, 'width': 409, 'height': 409, 'widthPercent': 0.45, 'rescaleHeight': False, 'trialN': 49, 'loaded': True, 'loadedTime': 3571.9000000059605, 'positionName': 'LEFT', 'positionCoords': [246.68, 179.5], 'bid': 0.05}, {'imgObject': {}, 'id': 'eggsalad', 'src': '/static/foodstim60/eggsalad.jpg', 'key': 'i', 'origWidth': 410, 'origHeight': 409, 'width': 410, 'height': 409, 'widthPercent': 0.45, 'rescaleHeight': False, 'trialN': 49, 'loaded': True, 'loadedTime': 3354.300000011921, 'positionName': 'RIGHT', 'positionCoords': [710.32, 179.5], 'bid': 0.08}]",106953.40000000596,1669831551326,cantaloupe,eggsalad,0.05,0.08,0.03,cantaloupe,2274.699999988079,2275,2275.199999988079,True,u,109733.69999998808,2780.2999999821186,1669831554106,2780,HRV,HRV_0172,2022-11-30 18:23:02
50,"[{'imgObject': {}, 'id': 'cherries', 'src': '/static/foodstim60/cherries.jpg', 'key': 'u', 'origWidth': 410, 'origHeight': 411, 'width': 410, 'height': 411, 'widthPercent': 0.45, 'rescaleHeight': False, 'trialN': 50, 'loaded': True, 'loadedTime': 3370, 'positionName': 'LEFT', 'positionCoords': [245.68, 178.5], 'bid': 0.98}, {'imgObject': {}, 'id': 'cheerios', 'src': '/static/foodstim60/cheerios.jpg', 'key': 'i', 'origWidth': 409, 'origHeight': 410, 'width': 409, 'height': 410, 'widthPercent': 0.45, 'rescaleHeight': False, 'trialN': 50, 'loaded': True, 'loadedTime': 3364, 'positionName': 'RIGHT', 'positionCoords': [710.32, 179], 'bid': 1.03}]",109734.0,1669831554106,cherries,cheerios,0.98,1.03,0.050000000000000044,cherries,2160.5999999940395,2161,2161.199999988079,True,u,112403.69999998808,2669.699999988079,1669831556776,2670,HRV,HRV_0172,2022-11-30 18:23:02
51,"[{'imgObject': {}, 'id': 'hotdog w must', 'src': '/static/foodstim60/hotdog w must.jpg', 'key': 'u', 'origWidth': 409, 'origHeight': 409, 'width': 409, 'height': 409, 'widthPercent': 0.45, 'rescaleHeight': False, 'trialN': 51, 'loaded': True, 'loadedTime': 3372.5999999940395, 'positionName': 'LEFT', 'positionCoords': [246.68, 179.5], 'bid': 4.86}, {'imgObject': {}, 'id': 'grilled chicken strips', 'src': '/static/foodstim60/grilled chicken strips.jpg', 'key': 'i', 'origWidth': 410, 'origHeight': 411, 'width': 410, 'height': 411, 'widthPercent': 0.45, 'rescaleHeight': False, 'trialN': 51, 'loaded': True, 'loadedTime': 3567.9000000059605, 'positionName': 'RIGHT', 'positionCoords': [710.32, 178.5], 'bid': 4.86}]",112404.09999999404,1669831556776,hotdog w must,grilled chicken strips,4.86,4.86,0.0,grilled chicken strips,2729.7000000178814,2731,2730.4000000059605,True,i,115647.59999999404,3243.5,1669831560020,3244,HRV,HRV_0172,2022-11-30 18:23:02
52,"[{'imgObject': {}, 'id': 'salad w chicken', 'src': '/static/foodstim60/salad w chicken.jpg', 'key': 'u', 'origWidth': 411, 'origHeight': 411, 'width': 411, 'height': 411, 'widthPercent': 0.45, 'rescaleHeight': False, 'trialN': 52, 'loaded': True, 'loadedTime': 3476.4000000059605, 'positionName': 'LEFT', 'positionCoords': [244.68, 178.5], 'bid': 8.16}, {'imgObject': {}, 'id': 'chickenfingers', 'src': '/static/foodstim60/chickenfingers.jpg', 'key': 'i', 'origWidth': 410, 'origHeight': 410, 'width': 410, 'height': 410, 'widthPercent': 0.45, 'rescaleHeight': False, 'trialN': 52, 'loaded': True, 'loadedTime': 3411.699999988079, 'positionName': 'RIGHT', 'positionCoords': [710.32, 179], 'bid': 6.61}]",115648.19999998808,1669831560020,salad w chicken,chickenfingers,8.16,6.61,-1.5499999999999998,salad w chicken,1992.2000000178814,1993,1992.9000000059605,True,u,118170.80000001192,2522.600000023842,1669831562543,2523,HRV,HRV_0172,2022-11-30 18:23:02
53,"[{'imgObject': {}, 'id': 'strawberries', 'src': '/static/foodstim60/strawberries.jpg', 'key': 'u', 'origWidth': 410, 'origHeight': 410, 'width': 410, 'height': 410, 'widthPercent': 0.45, 'rescaleHeight': False, 'trialN': 53, 'loaded': True, 'loadedTime': 3256.199999988079, 'positionName': 'LEFT', 'positionCoords': [245.68, 179], 'bid': 0.3}, {'imgObject': {}, 'id': 'eggs', 'src': '/static/foodstim60/eggs.jpg', 'key': 'i', 'origWidth': 409, 'origHeight': 409, 'width': 409, 'height': 409, 'widthPercent': 0.45, 'rescaleHeight': False, 'trialN': 53, 'loaded': True, 'loadedTime': 3111.5999999940395, 'positionName': 'RIGHT', 'positionCoords': [710.32, 179.5], 'bid': 0.05}]",118171.09999999404,1669831562543,strawberries,eggs,0.3,0.05,-0.25,strawberries,1638.800000011921,1640,1639.300000011921,True,u,120325.30000001192,2154.2000000178814,1669831564698,2155,HRV,HRV_0172,2022-11-30 18:23:02
54,"[{'imgObject': {}, 'id': 'turkeysandwich', 'src': '/static/foodstim60/turkeysandwich.jpg', 'key': 'u', 'origWidth': 409, 'origHeight': 409, 'width': 409, 'height': 409, 'widthPercent': 0.45, 'rescaleHeight': False, 'trialN': 54, 'loaded': True, 'loadedTime': 3565.699999988079, 'positionName': 'LEFT', 'positionCoords': [246.68, 179.5], 'bid': 5.89}, {'imgObject': {}, 'id': 'mashed potato', 'src': '/static/foodstim60/mashed potato.jpg', 'key': 'i', 'origWidth': 409, 'origHeight': 409, 'width': 409, 'height': 409, 'widthPercent': 0.45, 'rescaleHeight': False, 'trialN': 54, 'loaded': True, 'loadedTime': 3500, 'positionName': 'RIGHT', 'positionCoords': [710.32, 179.5], 'bid': 6.05}]",120325.59999999404,1669831564698,turkeysandwich,mashed potato,5.89,6.05,0.16000000000000014,mashed potato,1950.800000011921,1951,1951.4000000059605,True,i,122788.59999999404,2463.0,1669831567161,2463,HRV,HRV_0172,2022-11-30 18:23:02
55,"[{'imgObject': {}, 'id': 'popsicles', 'src': '/static/foodstim60/popsicles.jpg', 'key': 'u', 'origWidth': 410, 'origHeight': 410, 'width': 410, 'height': 410, 'widthPercent': 0.45, 'rescaleHeight': False, 'trialN': 55, 'loaded': True, 'loadedTime': 3590.0999999940395, 'positionName': 'LEFT', 'positionCoords': [245.68, 179], 'bid': 7.54}, {'imgObject': {}, 'id': 'chicken nuggets2', 'src': '/static/foodstim60/chicken nuggets2.jpg', 'key': 'i', 'origWidth': 410, 'origHeight': 409, 'width': 410, 'height': 409, 'widthPercent': 0.45, 'rescaleHeight': False, 'trialN': 55, 'loaded': True, 'loadedTime': 3520.4000000059605, 'positionName': 'RIGHT', 'positionCoords': [710.32, 179.5], 'bid': 6.55}]",122788.80000001192,1669831567161,popsicles,chicken nuggets2,7.54,6.55,-0.9900000000000002,chicken nuggets2,1706.8999999761581,1708,1707.5999999940395,True,i,125010.80000001192,2222.0,1669831569383,2222,HRV,HRV_0172,2022-11-30 18:23:02
56,"[{'imgObject': {}, 'id': 'grilled chicken strips', 'src': '/static/foodstim60/grilled chicken strips.jpg', 'key': 'u', 'origWidth': 410, 'origHeight': 411, 'width': 410, 'height': 411, 'widthPercent': 0.45, 'rescaleHeight': False, 'trialN': 56, 'loaded': True, 'loadedTime': 3567.0999999940395, 'positionName': 'LEFT', 'positionCoords': [245.68, 178.5], 'bid': 4.86}, {'imgObject': {}, 'id': 'sushi w_condiments', 'src': '/static/foodstim60/sushi w_condiments.jpg', 'key': 'i', 'origWidth': 410, 'origHeight': 410, 'width': 410, 'height': 410, 'widthPercent': 0.45, 'rescaleHeight': False, 'trialN': 56, 'loaded': True, 'loadedTime': 3295.199999988079, 'positionName': 'RIGHT', 'positionCoords': [710.32, 179], 'bid': 0.13}]",125011.19999998808,1669831569383,grilled chicken strips,sushi w_condiments,4.86,0.13,-4.73,grilled chicken strips,1520.2000000178814,1521,1520.800000011921,True,u,127043.0,2031.800000011921,1669831571415,2032,HRV,HRV_0172,2022-11-30 18:23:02
57,"[{'imgObject': {}, 'id': 'omelette', 'src': '/static/foodstim60/omelette.jpg', 'key': 'u', 'origWidth': 410, 'origHeight': 409, 'width': 410, 'height': 409, 'widthPercent': 0.45, 'rescaleHeight': False, 'trialN': 57, 'loaded': True, 'loadedTime': 3454.199999988079, 'positionName': 'LEFT', 'positionCoords': [245.68, 179.5], 'bid': 1.1}, {'imgObject': {}, 'id': 'luckycharms', 'src': '/static/foodstim60/luckycharms.jpg', 'key': 'i', 'origWidth': 410, 'origHeight': 409, 'width': 410, 'height': 409, 'widthPercent': 0.45, 'rescaleHeight': False, 'trialN': 57, 'loaded': True, 'loadedTime': 3566.800000011921, 'positionName': 'RIGHT', 'positionCoords': [710.32, 179.5], 'bid': 6.08}]",127043.19999998808,1669831571415,omelette,luckycharms,1.1,6.08,4.98,luckycharms,1737.5,1739,1738.1000000238419,True,i,129288.30000001192,2245.100000023842,1669831573661,2246,HRV,HRV_0172,2022-11-30 18:23:02
58,"[{'imgObject': {}, 'id': 'salad w chicken', 'src': '/static/foodstim60/salad w chicken.jpg', 'key': 'u', 'origWidth': 411, 'origHeight': 411, 'width': 411, 'height': 411, 'widthPercent': 0.45, 'rescaleHeight': False, 'trialN': 58, 'loaded': True, 'loadedTime': 3476.5999999940395, 'positionName': 'LEFT', 'positionCoords': [244.68, 178.5], 'bid': 8.16}, {'imgObject': {}, 'id': 'yogurt no spoon', 'src': '/static/foodstim60/yogurt no spoon.jpg', 'key': 'i', 'origWidth': 411, 'origHeight': 410, 'width': 411, 'height': 410, 'widthPercent': 0.45, 'rescaleHeight': False, 'trialN': 58, 'loaded': True, 'loadedTime': 3517, 'positionName': 'RIGHT', 'positionCoords': [710.32, 179], 'bid': 2.71}]",129289.0,1669831573661,salad w chicken,yogurt no spoon,8.16,2.71,-5.45,salad w chicken,1235.0999999940395,1236,1235.5,True,u,131036.5,1747.5,1669831575409,1748,HRV,HRV_0172,2022-11-30 18:23:02
59,"[{'imgObject': {}, 'id': 'mashed potato', 'src': '/static/foodstim60/mashed potato.jpg', 'key': 'u', 'origWidth': 409, 'origHeight': 409, 'width': 409, 'height': 409, 'widthPercent': 0.45, 'rescaleHeight': False, 'trialN': 59, 'loaded': True, 'loadedTime': 3497.9000000059605, 'positionName': 'LEFT', 'positionCoords': [246.68, 179.5], 'bid': 6.05}, {'imgObject': {}, 'id': 'turkey sandwich', 'src': '/static/foodstim60/turkey sandwich.jpg', 'key': 'i', 'origWidth': 409, 'origHeight': 409, 'width': 409, 'height': 409, 'widthPercent': 0.45, 'rescaleHeight': False, 'trialN': 59, 'loaded': True, 'loadedTime': 3518.9000000059605, 'positionName': 'RIGHT', 'positionCoords': [710.32, 179.5], 'bid': 5.98}]",131036.59999999404,1669831575409,mashed potato,turkey sandwich,6.05,5.98,-0.0699999999999994,mashed potato,1265.2000000178814,1265,1265.5999999940395,True,u,132820.0,1783.4000000059605,1669831577192,1783,HRV,HRV_0172,2022-11-30 18:23:02
60,"[{'imgObject': {}, 'id': 'hashbrowns', 'src': '/static/foodstim60/hashbrowns.jpg', 'key': 'u', 'origWidth': 411, 'origHeight': 410, 'width': 411, 'height': 410, 'widthPercent': 0.45, 'rescaleHeight': False, 'trialN': 60, 'loaded': True, 'loadedTime': 3539.5, 'positionName': 'LEFT', 'positionCoords': [244.68, 179], 'bid': 0.13}, {'imgObject': {}, 'id': 'froot loops w milk', 'src': '/static/foodstim60/froot loops w milk.jpg', 'key': 'i', 'origWidth': 410, 'origHeight': 410, 'width': 410, 'height': 410, 'widthPercent': 0.45, 'rescaleHeight': False, 'trialN': 60, 'loaded': True, 'loadedTime': 3194.699999988079, 'positionName': 'RIGHT', 'positionCoords': [710.32, 179], 'bid': 4.76}]",132820.40000000596,1669831577193,hashbrowns,froot loops w milk,0.13,4.76,4.63,froot loops w milk,1758.5,1759,1759.0,True,i,135089.19999998808,2268.7999999821186,1669831579462,2269,HRV,HRV_0172,2022-11-30 18:23:02
61,"[{'imgObject': {}, 'id': 'omelette', 'src': '/static/foodstim60/omelette.jpg', 'key': 'u', 'origWidth': 410, 'origHeight': 409, 'width': 410, 'height': 409, 'widthPercent': 0.45, 'rescaleHeight': False, 'trialN': 61, 'loaded': True, 'loadedTime': 3455.300000011921, 'positionName': 'LEFT', 'positionCoords': [245.68, 179.5], 'bid': 1.1}, {'imgObject': {}, 'id': 'lox', 'src': '/static/foodstim60/lox.jpg', 'key': 'i', 'origWidth': 410, 'origHeight': 411, 'width': 410, 'height': 411, 'widthPercent': 0.45, 'rescaleHeight': False, 'trialN': 61, 'loaded': True, 'loadedTime': 3558.5999999940395, 'positionName': 'RIGHT', 'positionCoords': [710.32, 178.5], 'bid': 1.03}]",135089.90000000596,1669831579462,omelette,lox,1.1,1.03,-0.07000000000000006,omelette,2300.5,2301,2301.0,True,u,137900.09999999404,2810.199999988079,1669831582272,2810,HRV,HRV_0172,2022-11-30 18:23:02
62,"[{'imgObject': {}, 'id': 'ice cream sundae 002', 'src': '/static/foodstim60/ice cream sundae 002.jpg', 'key': 'u', 'origWidth': 409, 'origHeight': 409, 'width': 409, 'height': 409, 'widthPercent': 0.45, 'rescaleHeight': False, 'trialN': 62, 'loaded': True, 'loadedTime': 3569.4000000059605, 'positionName': 'LEFT', 'positionCoords': [246.68, 179.5], 'bid': 0.65}, {'imgObject': {}, 'id': 'fried eggs', 'src': '/static/foodstim60/fried eggs.jpg', 'key': 'i', 'origWidth': 410, 'origHeight': 410, 'width': 410, 'height': 410, 'widthPercent': 0.45, 'rescaleHeight': False, 'trialN': 62, 'loaded': True, 'loadedTime': 3358.300000011921, 'positionName': 'RIGHT', 'positionCoords': [710.32, 179], 'bid': 1.1}]",137900.40000000596,1669831582273,ice cream sundae 002,fried eggs,0.65,1.1,0.45000000000000007,ice cream sundae 002,1555.699999988079,1556,1556.2999999821186,True,u,139965.59999999404,2065.199999988079,1669831584338,2065,HRV,HRV_0172,2022-11-30 18:23:02
63,"[{'imgObject': {}, 'id': 'hashbrowns', 'src': '/static/foodstim60/hashbrowns.jpg', 'key': 'u', 'origWidth': 411, 'origHeight': 410, 'width': 411, 'height': 410, 'widthPercent': 0.45, 'rescaleHeight': False, 'trialN': 63, 'loaded': True, 'loadedTime': 3539.5999999940395, 'positionName': 'LEFT', 'positionCoords': [244.68, 179], 'bid': 0.13}, {'imgObject': {}, 'id': 'avocado', 'src': '/static/foodstim60/avocado.jpg', 'key': 'i', 'origWidth': 409, 'origHeight': 409, 'width': 409, 'height': 409, 'widthPercent': 0.45, 'rescaleHeight': False, 'trialN': 63, 'loaded': True, 'loadedTime': 3392.0999999940395, 'positionName': 'RIGHT', 'positionCoords': [710.32, 179.5], 'bid': 0.1}]",139966.19999998808,1669831584338,hashbrowns,avocado,0.13,0.1,-0.03,hashbrowns,2402.7000000178814,2404,2403.2000000178814,True,u,142891.30000001192,2925.100000023842,1669831587264,2926,HRV,HRV_0172,2022-11-30 18:23:02
64,"[{'imgObject': {}, 'id': 'cheerios', 'src': '/static/foodstim60/cheerios.jpg', 'key': 'u', 'origWidth': 409, 'origHeight': 410, 'width': 409, 'height': 410, 'widthPercent': 0.45, 'rescaleHeight': False, 'trialN': 64, 'loaded': True, 'loadedTime': 3363.300000011921, 'positionName': 'LEFT', 'positionCoords': [246.68, 179], 'bid': 1.03}, {'imgObject': {}, 'id': 'mashed potato', 'src': '/static/foodstim60/mashed potato.jpg', 'key': 'i', 'origWidth': 409, 'origHeight': 409, 'width': 409, 'height': 409, 'widthPercent': 0.45, 'rescaleHeight': False, 'trialN': 64, 'loaded': True, 'loadedTime': 3515, 'positionName': 'RIGHT', 'positionCoords': [710.32, 179.5], 'bid': 6.05}]",142891.5,1669831587264,cheerios,mashed potato,1.03,6.05,5.02,mashed potato,1702.699999988079,1703,1703.199999988079,True,i,145116.59999999404,2225.0999999940395,1669831589489,2225,HRV,HRV_0172,2022-11-30 18:23:02
65,"[{'imgObject': {}, 'id': 'edamame', 'src': '/static/foodstim60/edamame.jpg', 'key': 'u', 'origWidth': 409, 'origHeight': 410, 'width': 409, 'height': 410, 'widthPercent': 0.45, 'rescaleHeight': False, 'trialN': 65, 'loaded': True, 'loadedTime': 3351.699999988079, 'positionName': 'LEFT', 'positionCoords': [246.68, 179], 'bid': 0.1}, {'imgObject': {}, 'id': 'hashbrowns', 'src': '/static/foodstim60/hashbrowns.jpg', 'key': 'i', 'origWidth': 411, 'origHeight': 410, 'width': 411, 'height': 410, 'widthPercent': 0.45, 'rescaleHeight': False, 'trialN': 65, 'loaded': True, 'loadedTime': 3539.300000011921, 'positionName': 'RIGHT', 'positionCoords': [710.32, 179], 'bid': 0.13}]",145116.90000000596,1669831589489,edamame,hashbrowns,0.1,0.13,0.03,hashbrowns,2053.4000000059605,2054,2054.199999988079,True,i,147682.59999999404,2565.699999988079,1669831592055,2566,HRV,HRV_0172,2022-11-30 18:23:02
66,"[{'imgObject': {}, 'id': 'tacos', 'src': '/static/foodstim60/tacos.jpg', 'key': 'u', 'origWidth': 411, 'origHeight': 411, 'width': 411, 'height': 411, 'widthPercent': 0.45, 'rescaleHeight': False, 'trialN': 66, 'loaded': True, 'loadedTime': 3456.9000000059605, 'positionName': 'LEFT', 'positionCoords': [244.68, 178.5], 'bid': 5.7}, {'imgObject': {}, 'id': 'turkey sandwich', 'src': '/static/foodstim60/turkey sandwich.jpg', 'key': 'i', 'origWidth': 409, 'origHeight': 409, 'width': 409, 'height': 409, 'widthPercent': 0.45, 'rescaleHeight': False, 'trialN': 66, 'loaded': True, 'loadedTime': 3519.800000011921, 'positionName': 'RIGHT', 'positionCoords': [710.32, 179.5], 'bid': 5.98}]",147682.90000000596,1669831592055,tacos,turkey sandwich,5.7,5.98,0.28000000000000025,tacos,1556.2999999821186,1557,1556.7999999821186,True,u,149743.90000000596,2061.0,1669831594116,2061,HRV,HRV_0172,2022-11-30 18:23:02
67,"[{'imgObject': {}, 'id': 'cantaloupe', 'src': '/static/foodstim60/cantaloupe.jpg', 'key': 'u', 'origWidth': 409, 'origHeight': 409, 'width': 409, 'height': 409, 'widthPercent': 0.45, 'rescaleHeight': False, 'trialN': 67, 'loaded': True, 'loadedTime': 3571.5999999940395, 'positionName': 'LEFT', 'positionCoords': [246.68, 179.5], 'bid': 0.05}, {'imgObject': {}, 'id': 'edamame', 'src': '/static/foodstim60/edamame.jpg', 'key': 'i', 'origWidth': 409, 'origHeight': 410, 'width': 409, 'height': 410, 'widthPercent': 0.45, 'rescaleHeight': False, 'trialN': 67, 'loaded': True, 'loadedTime': 3349.300000011921, 'positionName': 'RIGHT', 'positionCoords': [710.32, 179], 'bid': 0.1}]",149744.40000000596,1669831594117,cantaloupe,edamame,0.05,0.1,0.05,cantaloupe,2027.5999999940395,2028,2028.199999988079,True,u,152279.69999998808,2535.2999999821186,1669831596652,2535,HRV,HRV_0172,2022-11-30 18:23:02
68,"[{'imgObject': {}, 'id': 'Grapes', 'src': '/static/foodstim60/Grapes.jpg', 'key': 'u', 'origWidth': 411, 'origHeight': 411, 'width': 411, 'height': 411, 'widthPercent': 0.45, 'rescaleHeight': False, 'trialN': 68, 'loaded': True, 'loadedTime': 3074.199999988079, 'positionName': 'LEFT', 'positionCoords': [244.68, 178.5], 'bid': 5.36}, {'imgObject': {}, 'id': 'roastedpotatoes', 'src': '/static/foodstim60/roastedpotatoes.jpg', 'key': 'i', 'origWidth': 409, 'origHeight': 410, 'width': 409, 'height': 410, 'widthPercent': 0.45, 'rescaleHeight': False, 'trialN': 68, 'loaded': True, 'loadedTime': 3497.800000011921, 'positionName': 'RIGHT', 'positionCoords': [710.32, 179], 'bid': 6.59}]",152280.0,1669831596652,Grapes,roastedpotatoes,5.36,6.59,1.2299999999999995,roastedpotatoes,2223.5999999940395,2210,2224.199999988079,True,i,155008.40000000596,2728.4000000059605,1669831599367,2715,HRV,HRV_0172,2022-11-30 18:23:02
69,"[{'imgObject': {}, 'id': 'hashbrowns', 'src': '/static/foodstim60/hashbrowns.jpg', 'key': 'u', 'origWidth': 411, 'origHeight': 410, 'width': 411, 'height': 410, 'widthPercent': 0.45, 'rescaleHeight': False, 'trialN': 69, 'loaded': True, 'loadedTime': 3538.5, 'positionName': 'LEFT', 'positionCoords': [244.68, 179], 'bid': 0.13}, {'imgObject': {}, 'id': 'cheerios', 'src': '/static/foodstim60/cheerios.jpg', 'key': 'i', 'origWidth': 409, 'origHeight': 410, 'width': 409, 'height': 410, 'widthPercent': 0.45, 'rescaleHeight': False, 'trialN': 69, 'loaded': True, 'loadedTime': 3362.4000000059605, 'positionName': 'RIGHT', 'positionCoords': [710.32, 179], 'bid': 1.03}]",155008.59999999404,1669831599367,hashbrowns,cheerios,0.13,1.03,0.9,hashbrowns,2077.5999999940395,2078,2078.300000011921,True,u,157594.40000000596,2585.800000011921,1669831601952,2585,HRV,HRV_0172,2022-11-30 18:23:02
70,"[{'imgObject': {}, 'id': 'blueberries', 'src': '/static/foodstim60/blueberries.jpg', 'key': 'u', 'origWidth': 411, 'origHeight': 411, 'width': 411, 'height': 411, 'widthPercent': 0.45, 'rescaleHeight': False, 'trialN': 70, 'loaded': True, 'loadedTime': 3236.5, 'positionName': 'LEFT', 'positionCoords': [244.68, 178.5], 'bid': 0.1}, {'imgObject': {}, 'id': 'olives', 'src': '/static/foodstim60/olives.jpg', 'key': 'i', 'origWidth': 410, 'origHeight': 410, 'width': 410, 'height': 410, 'widthPercent': 0.45, 'rescaleHeight': False, 'trialN': 70, 'loaded': True, 'loadedTime': 3278.0999999940395, 'positionName': 'RIGHT', 'positionCoords': [710.32, 179], 'bid': 0.15}]",157595.09999999404,1669831601953,blueberries,olives,0.1,0.15,0.04999999999999999,blueberries,2515.0999999940395,2516,2515.5999999940395,True,u,160615.09999999404,3020.0,1669831604973,3020,HRV,HRV_0172,2022-11-30 18:23:02
71,"[{'imgObject': {}, 'id': 'apple slices', 'src': '/static/foodstim60/apple slices.jpg', 'key': 'u', 'origWidth': 409, 'origHeight': 410, 'width': 409, 'height': 410, 'widthPercent': 0.45, 'rescaleHeight': False, 'trialN': 71, 'loaded': True, 'loadedTime': 3052, 'positionName': 'LEFT', 'positionCoords': [246.68, 179], 'bid': 3.19}, {'imgObject': {}, 'id': 'burrito', 'src': '/static/foodstim60/burrito.jpg', 'key': 'i', 'origWidth': 410, 'origHeight': 410, 'width': 410, 'height': 410, 'widthPercent': 0.45, 'rescaleHeight': False, 'trialN': 71, 'loaded': True, 'loadedTime': 3565, 'positionName': 'RIGHT', 'positionCoords': [710.32, 179], 'bid': 6.05}]",160615.59999999404,1669831604974,apple slices,burrito,3.19,6.05,2.86,burrito,1961.0999999940395,1961,1961.5,True,i,163100.40000000596,2484.800000011921,1669831607458,2484,HRV,HRV_0172,2022-11-30 18:23:02
72,"[{'imgObject': {}, 'id': 'turkeysandwich', 'src': '/static/foodstim60/turkeysandwich.jpg', 'key': 'u', 'origWidth': 409, 'origHeight': 409, 'width': 409, 'height': 409, 'widthPercent': 0.45, 'rescaleHeight': False, 'trialN': 72, 'loaded': True, 'loadedTime': 3565.699999988079, 'positionName': 'LEFT', 'positionCoords': [246.68, 179.5], 'bid': 5.89}, {'imgObject': {}, 'id': 'ice cream sundae 002', 'src': '/static/foodstim60/ice cream sundae 002.jpg', 'key': 'i', 'origWidth': 409, 'origHeight': 409, 'width': 409, 'height': 409, 'widthPercent': 0.45, 'rescaleHeight': False, 'trialN': 72, 'loaded': True, 'loadedTime': 3569.5, 'positionName': 'RIGHT', 'positionCoords': [710.32, 179.5], 'bid': 0.65}]",163100.69999998808,1669831607459,turkeysandwich,ice cream sundae 002,5.89,0.65,-5.239999999999999,turkeysandwich,2318.7000000178814,2319,2319.300000011921,True,u,165927.59999999404,2826.9000000059605,1669831610286,2827,HRV,HRV_0172,2022-11-30 18:23:02
73,"[{'imgObject': {}, 'id': 'froot loops w milk', 'src': '/static/foodstim60/froot loops w milk.jpg', 'key': 'u', 'origWidth': 410, 'origHeight': 410, 'width': 410, 'height': 410, 'widthPercent': 0.45, 'rescaleHeight': False, 'trialN': 73, 'loaded': True, 'loadedTime': 3195.699999988079, 'positionName': 'LEFT', 'positionCoords': [245.68, 179], 'bid': 4.76}, {'imgObject': {}, 'id': 'hotdog w must', 'src': '/static/foodstim60/hotdog w must.jpg', 'key': 'i', 'origWidth': 409, 'origHeight': 409, 'width': 409, 'height': 409, 'widthPercent': 0.45, 'rescaleHeight': False, 'trialN': 73, 'loaded': True, 'loadedTime': 3388.0999999940395, 'positionName': 'RIGHT', 'positionCoords': [710.32, 179.5], 'bid': 4.86}]",165928.0,1669831610286,froot loops w milk,hotdog w must,4.76,4.86,0.10000000000000053,froot loops w milk,2560.5999999940395,2561,2561.0999999940395,True,u,169008.90000000596,3080.9000000059605,1669831613367,3081,HRV,HRV_0172,2022-11-30 18:23:02
74,"[{'imgObject': {}, 'id': 'Tribe humus pita', 'src': '/static/foodstim60/Tribe humus pita.jpg', 'key': 'u', 'origWidth': 411, 'origHeight': 411, 'width': 411, 'height': 411, 'widthPercent': 0.45, 'rescaleHeight': False, 'trialN': 74, 'loaded': True, 'loadedTime': 3573.5999999940395, 'positionName': 'LEFT', 'positionCoords': [244.68, 178.5], 'bid': 2.43}, {'imgObject': {}, 'id': 'veggieswithdip', 'src': '/static/foodstim60/veggieswithdip.jpg', 'key': 'i', 'origWidth': 409, 'origHeight': 409, 'width': 409, 'height': 409, 'widthPercent': 0.45, 'rescaleHeight': False, 'trialN': 74, 'loaded': True, 'loadedTime': 3541.0999999940395, 'positionName': 'RIGHT', 'positionCoords': [710.32, 179.5], 'bid': 2.36}]",169009.19999998808,1669831613367,Tribe humus pita,veggieswithdip,2.43,2.36,-0.07000000000000028,veggieswithdip,1432.6000000238419,1434,1433.300000011921,True,i,170951.80000001192,1942.6000000238419,1669831615310,1943,HRV,HRV_0172,2022-11-30 18:23:02
75,"[{'imgObject': {}, 'id': 'eggsalad', 'src': '/static/foodstim60/eggsalad.jpg', 'key': 'u', 'origWidth': 410, 'origHeight': 409, 'width': 410, 'height': 409, 'widthPercent': 0.45, 'rescaleHeight': False, 'trialN': 75, 'loaded': True, 'loadedTime': 3356.699999988079, 'positionName': 'LEFT', 'positionCoords': [245.68, 179.5], 'bid': 0.08}, {'imgObject': {}, 'id': 'sushi w_condiments', 'src': '/static/foodstim60/sushi w_condiments.jpg', 'key': 'i', 'origWidth': 410, 'origHeight': 410, 'width': 410, 'height': 410, 'widthPercent': 0.45, 'rescaleHeight': False, 'trialN': 75, 'loaded': True, 'loadedTime': 3294.5999999940395, 'positionName': 'RIGHT', 'positionCoords': [710.32, 179], 'bid': 0.13}]",170952.09999999404,1669831615310,eggsalad,sushi w_condiments,0.08,0.13,0.05,sushi w_condiments,2859.5999999940395,2860,2860.0999999940395,True,i,174324.09999999404,3372.0,1669831618682,3372,HRV,HRV_0172,2022-11-30 18:23:02
76,"[{'imgObject': {}, 'id': 'pear', 'src': '/static/foodstim60/pear.jpg', 'key': 'u', 'origWidth': 411, 'origHeight': 410, 'width': 411, 'height': 410, 'widthPercent': 0.45, 'rescaleHeight': False, 'trialN': 76, 'loaded': True, 'loadedTime': 3570.5999999940395, 'positionName': 'LEFT', 'positionCoords': [244.68, 179], 'bid': 3.78}, {'imgObject': {}, 'id': 'veggieswithdip', 'src': '/static/foodstim60/veggieswithdip.jpg', 'key': 'i', 'origWidth': 409, 'origHeight': 409, 'width': 409, 'height': 409, 'widthPercent': 0.45, 'rescaleHeight': False, 'trialN': 76, 'loaded': True, 'loadedTime': 3542.5, 'positionName': 'RIGHT', 'positionCoords': [710.32, 179.5], 'bid': 2.36}]",174324.19999998808,1669831618682,pear,veggieswithdip,3.78,2.36,-1.42,veggieswithdip,1794.2000000178814,1795,1794.4000000059605,True,i,176624.90000000596,2300.7000000178814,1669831620983,2301,HRV,HRV_0172,2022-11-30 18:23:02
77,"[{'imgObject': {}, 'id': 'burrito', 'src': '/static/foodstim60/burrito.jpg', 'key': 'u', 'origWidth': 410, 'origHeight': 410, 'width': 410, 'height': 410, 'widthPercent': 0.45, 'rescaleHeight': False, 'trialN': 77, 'loaded': True, 'loadedTime': 3564.9000000059605, 'positionName': 'LEFT', 'positionCoords': [245.68, 179], 'bid': 6.05}, {'imgObject': {}, 'id': 'cocktailshrimp', 'src': '/static/foodstim60/cocktailshrimp.jpg', 'key': 'i', 'origWidth': 410, 'origHeight': 410, 'width': 410, 'height': 410, 'widthPercent': 0.45, 'rescaleHeight': False, 'trialN': 77, 'loaded': True, 'loadedTime': 3318.4000000059605, 'positionName': 'RIGHT', 'positionCoords': [710.32, 179], 'bid': 6.75}]",176625.40000000596,1669831620983,burrito,cocktailshrimp,6.05,6.75,0.7000000000000002,cocktailshrimp,1452.2999999821186,1453,1453.0,True,i,178589.09999999404,1963.699999988079,1669831622947,1964,HRV,HRV_0172,2022-11-30 18:23:02
78,"[{'imgObject': {}, 'id': 'popsicles', 'src': '/static/foodstim60/popsicles.jpg', 'key': 'u', 'origWidth': 410, 'origHeight': 410, 'width': 410, 'height': 410, 'widthPercent': 0.45, 'rescaleHeight': False, 'trialN': 78, 'loaded': True, 'loadedTime': 3590.4000000059605, 'positionName': 'LEFT', 'positionCoords': [245.68, 179], 'bid': 7.54}, {'imgObject': {}, 'id': 'Tribe humus pita', 'src': '/static/foodstim60/Tribe humus pita.jpg', 'key': 'i', 'origWidth': 411, 'origHeight': 411, 'width': 411, 'height': 411, 'widthPercent': 0.45, 'rescaleHeight': False, 'trialN': 78, 'loaded': True, 'loadedTime': 3573.199999988079, 'positionName': 'RIGHT', 'positionCoords': [710.32, 178.5], 'bid': 2.43}]",178589.5,1669831622947,popsicles,Tribe humus pita,7.54,2.43,-5.109999999999999,popsicles,1819.0999999940395,1820,1819.5,True,u,180926.90000000596,2337.4000000059605,1669831625285,2338,HRV,HRV_0172,2022-11-30 18:23:02
79,"[{'imgObject': {}, 'id': 'Tribe humus pita', 'src': '/static/foodstim60/Tribe humus pita.jpg', 'key': 'u', 'origWidth': 411, 'origHeight': 411, 'width': 411, 'height': 411, 'widthPercent': 0.45, 'rescaleHeight': False, 'trialN': 79, 'loaded': True, 'loadedTime': 3573.699999988079, 'positionName': 'LEFT', 'positionCoords': [244.68, 178.5], 'bid': 2.43}, {'imgObject': {}, 'id': 'granola w milk', 'src': '/static/foodstim60/granola w milk.jpg', 'key': 'i', 'origWidth': 410, 'origHeight': 410, 'width': 410, 'height': 410, 'widthPercent': 0.45, 'rescaleHeight': False, 'trialN': 79, 'loaded': True, 'loadedTime': 3456.4000000059605, 'positionName': 'RIGHT', 'positionCoords': [710.32, 179], 'bid': 2.43}]",180927.80000001192,1669831625286,Tribe humus pita,granola w milk,2.43,2.43,0.0,granola w milk,1947.2999999821186,1948,1947.7999999821186,True,i,183390.5,2462.699999988079,1669831627749,2463,HRV,HRV_0172,2022-11-30 18:23:02
80,"[{'imgObject': {}, 'id': 'mac & cheese', 'src': '/static/foodstim60/mac & cheese.jpg', 'key': 'u', 'origWidth': 410, 'origHeight': 410, 'width': 410, 'height': 410, 'widthPercent': 0.45, 'rescaleHeight': False, 'trialN': 80, 'loaded': True, 'loadedTime': 3113.9000000059605, 'positionName': 'LEFT', 'positionCoords': [245.68, 179], 'bid': 2.84}, {'imgObject': {}, 'id': 'veggieswithdip', 'src': '/static/foodstim60/veggieswithdip.jpg', 'key': 'i', 'origWidth': 409, 'origHeight': 409, 'width': 409, 'height': 409, 'widthPercent': 0.45, 'rescaleHeight': False, 'trialN': 80, 'loaded': True, 'loadedTime': 3542.699999988079, 'positionName': 'RIGHT', 'positionCoords': [710.32, 179.5], 'bid': 2.36}]",183390.90000000596,1669831627749,mac & cheese,veggieswithdip,2.84,2.36,-0.48,mac & cheese,2053.5,2054,2053.7999999821186,True,u,185954.0,2563.0999999940395,1669831630312,2563,HRV,HRV_0172,2022-11-30 18:23:02
81,"[{'imgObject': {}, 'id': 'sweetpotato', 'src': '/static/foodstim60/sweetpotato.jpg', 'key': 'u', 'origWidth': 410, 'origHeight': 410, 'width': 410, 'height': 410, 'widthPercent': 0.45, 'rescaleHeight': False, 'trialN': 81, 'loaded': True, 'loadedTime': 3276.800000011921, 'positionName': 'LEFT', 'positionCoords': [245.68, 179], 'bid': 4.48}, {'imgObject': {}, 'id': 'grilled chicken strips', 'src': '/static/foodstim60/grilled chicken strips.jpg', 'key': 'i', 'origWidth': 410, 'origHeight': 411, 'width': 410, 'height': 411, 'widthPercent': 0.45, 'rescaleHeight': False, 'trialN': 81, 'loaded': True, 'loadedTime': 3568.0999999940395, 'positionName': 'RIGHT', 'positionCoords': [710.32, 178.5], 'bid': 4.86}]",185954.40000000596,1669831630312,sweetpotato,grilled chicken strips,4.48,4.86,0.3799999999999999,sweetpotato,997.2999999821186,998,997.9000000059605,True,u,187456.5,1502.0999999940395,1669831631815,1503,HRV,HRV_0172,2022-11-30 18:23:02
82,"[{'imgObject': {}, 'id': 'rigatoni and sauce', 'src': '/static/foodstim60/rigatoni and sauce.jpg', 'key': 'u', 'origWidth': 410, 'origHeight': 411, 'width': 410, 'height': 411, 'widthPercent': 0.45, 'rescaleHeight': False, 'trialN': 82, 'loaded': True, 'loadedTime': 3156.5, 'positionName': 'LEFT', 'positionCoords': [245.68, 178.5], 'bid': 6.12}, {'imgObject': {}, 'id': 'pear', 'src': '/static/foodstim60/pear.jpg', 'key': 'i', 'origWidth': 411, 'origHeight': 410, 'width': 411, 'height': 410, 'widthPercent': 0.45, 'rescaleHeight': False, 'trialN': 82, 'loaded': True, 'loadedTime': 3569.5999999940395, 'positionName': 'RIGHT', 'positionCoords': [710.32, 179], 'bid': 3.78}]",187457.0,1669831631815,rigatoni and sauce,pear,6.12,3.78,-2.3400000000000003,pear,2378.0999999940395,2379,2378.800000011921,True,i,190344.5,2887.5,1669831634703,2888,HRV,HRV_0172,2022-11-30 18:23:02
83,"[{'imgObject': {}, 'id': 'rigatoni and sauce', 'src': '/static/foodstim60/rigatoni and sauce.jpg', 'key': 'u', 'origWidth': 410, 'origHeight': 411, 'width': 410, 'height': 411, 'widthPercent': 0.45, 'rescaleHeight': False, 'trialN': 83, 'loaded': True, 'loadedTime': 3156.800000011921, 'positionName': 'LEFT', 'positionCoords': [245.68, 178.5], 'bid': 6.12}, {'imgObject': {}, 'id': 'banana', 'src': '/static/foodstim60/banana.jpg', 'key': 'i', 'origWidth': 410, 'origHeight': 410, 'width': 410, 'height': 410, 'widthPercent': 0.45, 'rescaleHeight': False, 'trialN': 83, 'loaded': True, 'loadedTime': 3439.199999988079, 'positionName': 'RIGHT', 'positionCoords': [710.32, 179], 'bid': 7.43}]",190345.19999998808,1669831634703,rigatoni and sauce,banana,6.12,7.43,1.3099999999999996,banana,1147.2000000178814,1148,1147.9000000059605,True,i,192006.59999999404,1661.4000000059605,1669831636365,1662,HRV,HRV_0172,2022-11-30 18:23:02
84,"[{'imgObject': {}, 'id': 'apple slices', 'src': '/static/foodstim60/apple slices.jpg', 'key': 'u', 'origWidth': 409, 'origHeight': 410, 'width': 409, 'height': 410, 'widthPercent': 0.45, 'rescaleHeight': False, 'trialN': 84, 'loaded': True, 'loadedTime': 3048.5, 'positionName': 'LEFT', 'positionCoords': [246.68, 179], 'bid': 3.19}, {'imgObject': {}, 'id': 'pear', 'src': '/static/foodstim60/pear.jpg', 'key': 'i', 'origWidth': 411, 'origHeight': 410, 'width': 411, 'height': 410, 'widthPercent': 0.45, 'rescaleHeight': False, 'trialN': 84, 'loaded': True, 'loadedTime': 3570.5999999940395, 'positionName': 'RIGHT', 'positionCoords': [710.32, 179], 'bid': 3.78}]",192007.09999999404,1669831636365,apple slices,pear,3.19,3.78,0.5899999999999999,pear,1464.800000011921,1466,1465.5,True,i,193980.59999999404,1973.5,1669831638339,1974,HRV,HRV_0172,2022-11-30 18:23:02
85,"[{'imgObject': {}, 'id': 'cheerios', 'src': '/static/foodstim60/cheerios.jpg', 'key': 'u', 'origWidth': 409, 'origHeight': 410, 'width': 409, 'height': 410, 'widthPercent': 0.45, 'rescaleHeight': False, 'trialN': 85, 'loaded': True, 'loadedTime': 3361.199999988079, 'positionName': 'LEFT', 'positionCoords': [246.68, 179], 'bid': 1.03}, {'imgObject': {}, 'id': 'orange slices', 'src': '/static/foodstim60/orange slices.jpg', 'key': 'i', 'origWidth': 409, 'origHeight': 410, 'width': 409, 'height': 410, 'widthPercent': 0.45, 'rescaleHeight': False, 'trialN': 85, 'loaded': True, 'loadedTime': 3317.0999999940395, 'positionName': 'RIGHT', 'positionCoords': [710.32, 179], 'bid': 1.93}]",193981.0,1669831638339,cheerios,orange slices,1.03,1.93,0.8999999999999999,cheerios,2560.5,2561,2561.0999999940395,True,u,197057.5,3076.5,1669831641416,3077,HRV,HRV_0172,2022-11-30 18:23:02
86,"[{'imgObject': {}, 'id': 'blueberries', 'src': '/static/foodstim60/blueberries.jpg', 'key': 'u', 'origWidth': 411, 'origHeight': 411, 'width': 411, 'height': 411, 'widthPercent': 0.45, 'rescaleHeight': False, 'trialN': 86, 'loaded': True, 'loadedTime': 3237.199999988079, 'positionName': 'LEFT', 'positionCoords': [244.68, 178.5], 'bid': 0.1}, {'imgObject': {}, 'id': 'avocado', 'src': '/static/foodstim60/avocado.jpg', 'key': 'i', 'origWidth': 409, 'origHeight': 409, 'width': 409, 'height': 409, 'widthPercent': 0.45, 'rescaleHeight': False, 'trialN': 86, 'loaded': True, 'loadedTime': 3393.300000011921, 'positionName': 'RIGHT', 'positionCoords': [710.32, 179.5], 'bid': 0.1}]",197057.90000000596,1669831641416,blueberries,avocado,0.1,0.1,0.0,blueberries,1869.7999999821186,1870,1870.2999999821186,True,u,199430.40000000596,2372.5,1669831643788,2372,HRV,HRV_0172,2022-11-30 18:23:02
87,"[{'imgObject': {}, 'id': 'shreddedwheatwithmilk', 'src': '/static/foodstim60/shreddedwheatwithmilk.jpg', 'key': 'u', 'origWidth': 410, 'origHeight': 410, 'width': 410, 'height': 410, 'widthPercent': 0.45, 'rescaleHeight': False, 'trialN': 87, 'loaded': True, 'loadedTime': 3175.699999988079, 'positionName': 'LEFT', 'positionCoords': [245.68, 179], 'bid': 2.78}, {'imgObject': {}, 'id': 'salmon', 'src': '/static/foodstim60/salmon.jpg', 'key': 'i', 'origWidth': 410, 'origHeight': 409, 'width': 410, 'height': 409, 'widthPercent': 0.45, 'rescaleHeight': False, 'trialN': 87, 'loaded': True, 'loadedTime': 3393.5999999940395, 'positionName': 'RIGHT', 'positionCoords': [710.32, 179.5], 'bid': 1.1}]",199431.09999999404,1669831643789,shreddedwheatwithmilk,salmon,2.78,1.1,-1.6799999999999997,salmon,1349.5,1350,1350.0999999940395,True,i,201287.80000001192,1856.7000000178814,1669831645646,1857,HRV,HRV_0172,2022-11-30 18:23:02
88,"[{'imgObject': {}, 'id': 'cherry tomato', 'src': '/static/foodstim60/cherry tomato.jpg', 'key': 'u', 'origWidth': 410, 'origHeight': 410, 'width': 410, 'height': 410, 'widthPercent': 0.45, 'rescaleHeight': False, 'trialN': 88, 'loaded': True, 'loadedTime': 3348.5, 'positionName': 'LEFT', 'positionCoords': [245.68, 179], 'bid': 0.31}, {'imgObject': {}, 'id': 'omelette', 'src': '/static/foodstim60/omelette.jpg', 'key': 'i', 'origWidth': 410, 'origHeight': 409, 'width': 410, 'height': 409, 'widthPercent': 0.45, 'rescaleHeight': False, 'trialN': 88, 'loaded': True, 'loadedTime': 3455.5, 'positionName': 'RIGHT', 'positionCoords': [710.32, 179.5], 'bid': 1.1}]",201288.30000001192,1669831645646,cherry tomato,omelette,0.31,1.1,0.79,cherry tomato,1670.7999999821186,1671,1671.0999999940395,True,u,203466.30000001192,2178.0,1669831647824,2178,HRV,HRV_0172,2022-11-30 18:23:02
89,"[{'imgObject': {}, 'id': 'turkey sandwich', 'src': '/static/foodstim60/turkey sandwich.jpg', 'key': 'u', 'origWidth': 409, 'origHeight': 409, 'width': 409, 'height': 409, 'widthPercent': 0.45, 'rescaleHeight': False, 'trialN': 89, 'loaded': True, 'loadedTime': 3520, 'positionName': 'LEFT', 'positionCoords': [246.68, 179.5], 'bid': 5.98}, {'imgObject': {}, 'id': 'banana', 'src': '/static/foodstim60/banana.jpg', 'key': 'i', 'origWidth': 410, 'origHeight': 410, 'width': 410, 'height': 410, 'widthPercent': 0.45, 'rescaleHeight': False, 'trialN': 89, 'loaded': True, 'loadedTime': 3438.9000000059605, 'positionName': 'RIGHT', 'positionCoords': [710.32, 179], 'bid': 7.43}]",203466.59999999404,1669831647825,turkey sandwich,banana,5.98,7.43,1.4499999999999993,banana,1137.5999999940395,1138,1138.800000011921,True,i,205112.80000001192,1646.2000000178814,1669831649471,1646,HRV,HRV_0172,2022-11-30 18:23:02
90,"[{'imgObject': {}, 'id': 'cherry tomato', 'src': '/static/foodstim60/cherry tomato.jpg', 'key': 'u', 'origWidth': 410, 'origHeight': 410, 'width': 410, 'height': 410, 'widthPercent': 0.45, 'rescaleHeight': False, 'trialN': 90, 'loaded': True, 'loadedTime': 3349.199999988079, 'positionName': 'LEFT', 'positionCoords': [245.68, 179], 'bid': 0.31}, {'imgObject': {}, 'id': 'corn cob', 'src': '/static/foodstim60/corn cob.jpg', 'key': 'i', 'origWidth': 411, 'origHeight': 411, 'width': 411, 'height': 411, 'widthPercent': 0.45, 'rescaleHeight': False, 'trialN': 90, 'loaded': True, 'loadedTime': 3067.800000011921, 'positionName': 'RIGHT', 'positionCoords': [710.32, 178.5], 'bid': 2.58}]",949413.400000006,1669832393786,cherry tomato,corn cob,0.31,2.58,2.27,corn cob,1316.0999999940395,1335,1334.699999988079,True,i,951261.6999999881,1848.2999999821186,1669832395634,1848,HRV,HRV_0172,2022-11-30 18:23:02
91,"[{'imgObject': {}, 'id': 'salad w chicken', 'src': '/static/foodstim60/salad w chicken.jpg', 'key': 'u', 'origWidth': 411, 'origHeight': 411, 'width': 411, 'height': 411, 'widthPercent': 0.45, 'rescaleHeight': False, 'trialN': 91, 'loaded': True, 'loadedTime': 3476.699999988079, 'positionName': 'LEFT', 'positionCoords': [244.68, 178.5], 'bid': 8.16}, {'imgObject': {}, 'id': 'luckycharms', 'src': '/static/foodstim60/luckycharms.jpg', 'key': 'i', 'origWidth': 410, 'origHeight': 409, 'width': 410, 'height': 409, 'widthPercent': 0.45, 'rescaleHeight': False, 'trialN': 91, 'loaded': True, 'loadedTime': 3567, 'positionName': 'RIGHT', 'positionCoords': [710.32, 179.5], 'bid': 6.08}]",951261.900000006,1669832395635,salad w chicken,luckycharms,8.16,6.08,-2.08,salad w chicken,996,996,996.5,True,u,952774.400000006,1512.5,1669832397147,1512,HRV,HRV_0172,2022-11-30 18:23:02
92,"[{'imgObject': {}, 'id': 'chicken nuggets2', 'src': '/static/foodstim60/chicken nuggets2.jpg', 'key': 'u', 'origWidth': 410, 'origHeight': 409, 'width': 410, 'height': 409, 'widthPercent': 0.45, 'rescaleHeight': False, 'trialN': 92, 'loaded': True, 'loadedTime': 3538, 'positionName': 'LEFT', 'positionCoords': [245.68, 179.5], 'bid': 6.55}, {'imgObject': {}, 'id': 'fried eggs', 'src': '/static/foodstim60/fried eggs.jpg', 'key': 'i', 'origWidth': 410, 'origHeight': 410, 'width': 410, 'height': 410, 'widthPercent': 0.45, 'rescaleHeight': False, 'trialN': 92, 'loaded': True, 'loadedTime': 3356.9000000059605, 'positionName': 'RIGHT', 'positionCoords': [710.32, 179], 'bid': 1.1}]",952775.0,1669832397147,chicken nuggets2,fried eggs,6.55,1.1,-5.449999999999999,chicken nuggets2,1416.0999999940395,1417,1416.5999999940395,True,u,954697.099999994,1922.0999999940395,1669832399070,1923,HRV,HRV_0172,2022-11-30 18:23:02
93,"[{'imgObject': {}, 'id': 'hashbrowns', 'src': '/static/foodstim60/hashbrowns.jpg', 'key': 'u', 'origWidth': 411, 'origHeight': 410, 'width': 411, 'height': 410, 'widthPercent': 0.45, 'rescaleHeight': False, 'trialN': 93, 'loaded': True, 'loadedTime': 3539.5999999940395, 'positionName': 'LEFT', 'positionCoords': [244.68, 179], 'bid': 0.13}, {'imgObject': {}, 'id': 'eggs', 'src': '/static/foodstim60/eggs.jpg', 'key': 'i', 'origWidth': 409, 'origHeight': 409, 'width': 409, 'height': 409, 'widthPercent': 0.45, 'rescaleHeight': False, 'trialN': 93, 'loaded': True, 'loadedTime': 3096.0999999940395, 'positionName': 'RIGHT', 'positionCoords': [710.32, 179.5], 'bid': 0.05}]",954697.599999994,1669832399070,hashbrowns,eggs,0.13,0.05,-0.08,hashbrowns,1462.5,1463,1463.0,True,u,956673.0,1975.4000000059605,1669832401046,1976,HRV,HRV_0172,2022-11-30 18:23:02
94,"[{'imgObject': {}, 'id': 'yogurt no spoon', 'src': '/static/foodstim60/yogurt no spoon.jpg', 'key': 'u', 'origWidth': 411, 'origHeight': 410, 'width': 411, 'height': 410, 'widthPercent': 0.45, 'rescaleHeight': False, 'trialN': 94, 'loaded': True, 'loadedTime': 3517.0999999940395, 'positionName': 'LEFT', 'positionCoords': [244.68, 179], 'bid': 2.71}, {'imgObject': {}, 'id': 'corn cob', 'src': '/static/foodstim60/corn cob.jpg', 'key': 'i', 'origWidth': 411, 'origHeight': 411, 'width': 411, 'height': 411, 'widthPercent': 0.45, 'rescaleHeight': False, 'trialN': 94, 'loaded': True, 'loadedTime': 3072.5999999940395, 'positionName': 'RIGHT', 'positionCoords': [710.32, 178.5], 'bid': 2.58}]",956673.3000000119,1669832401046,yogurt no spoon,corn cob,2.71,2.58,-0.1299999999999999,corn cob,1571.3999999761581,1572,1571.8999999761581,True,i,958764.0,2090.699999988079,1669832403137,2091,HRV,HRV_0172,2022-11-30 18:23:02
95,"[{'imgObject': {}, 'id': 'baked potato', 'src': '/static/foodstim60/baked potato.jpg', 'key': 'u', 'origWidth': 409, 'origHeight': 410, 'width': 409, 'height': 410, 'widthPercent': 0.45, 'rescaleHeight': False, 'trialN': 95, 'loaded': True, 'loadedTime': 3137.0999999940395, 'positionName': 'LEFT', 'positionCoords': [246.68, 179], 'bid': 5.01}, {'imgObject': {}, 'id': 'Grapes', 'src': '/static/foodstim60/Grapes.jpg', 'key': 'i', 'origWidth': 411, 'origHeight': 411, 'width': 411, 'height': 411, 'widthPercent': 0.45, 'rescaleHeight': False, 'trialN': 95, 'loaded': True, 'loadedTime': 3090.5999999940395, 'positionName': 'RIGHT', 'positionCoords': [710.32, 178.5], 'bid': 5.36}]",958764.400000006,1669832403137,baked potato,Grapes,5.01,5.36,0.35000000000000053,baked potato,1645.5,1646,1646.0999999940395,True,u,960919.1999999881,2154.7999999821186,1669832405292,2155,HRV,HRV_0172,2022-11-30 18:23:02
96,"[{'imgObject': {}, 'id': 'strawberries', 'src': '/static/foodstim60/strawberries.jpg', 'key': 'u', 'origWidth': 410, 'origHeight': 410, 'width': 410, 'height': 410, 'widthPercent': 0.45, 'rescaleHeight': False, 'trialN': 96, 'loaded': True, 'loadedTime': 3237.9000000059605, 'positionName': 'LEFT', 'positionCoords': [245.68, 179], 'bid': 0.3}, {'imgObject': {}, 'id': 'olives', 'src': '/static/foodstim60/olives.jpg', 'key': 'i', 'origWidth': 410, 'origHeight': 410, 'width': 410, 'height': 410, 'widthPercent': 0.45, 'rescaleHeight': False, 'trialN': 96, 'loaded': True, 'loadedTime': 3277.300000011921, 'positionName': 'RIGHT', 'positionCoords': [710.32, 179], 'bid': 0.15}]",960919.599999994,1669832405292,strawberries,olives,0.3,0.15,-0.15,strawberries,1173.7000000178814,1174,1174.2000000178814,True,u,962606.0,1686.4000000059605,1669832406978,1686,HRV,HRV_0172,2022-11-30 18:23:02
97,"[{'imgObject': {}, 'id': 'chickenfingers', 'src': '/static/foodstim60/chickenfingers.jpg', 'key': 'u', 'origWidth': 410, 'origHeight': 410, 'width': 410, 'height': 410, 'widthPercent': 0.45, 'rescaleHeight': False, 'trialN': 97, 'loaded': True, 'loadedTime': 3415.0999999940395, 'positionName': 'LEFT', 'positionCoords': [245.68, 179], 'bid': 6.61}, {'imgObject': {}, 'id': 'roastedpotatoes', 'src': '/static/foodstim60/roastedpotatoes.jpg', 'key': 'i', 'origWidth': 409, 'origHeight': 410, 'width': 409, 'height': 410, 'widthPercent': 0.45, 'rescaleHeight': False, 'trialN': 97, 'loaded': True, 'loadedTime': 3497.300000011921, 'positionName': 'RIGHT', 'positionCoords': [710.32, 179], 'bid': 6.59}]",962606.1999999881,1669832406979,chickenfingers,roastedpotatoes,6.61,6.59,-0.020000000000000462,chickenfingers,1305.7000000178814,1306,1306.1000000238419,True,u,964421.099999994,1814.9000000059605,1669832408794,1815,HRV,HRV_0172,2022-11-30 18:23:02
98,"[{'imgObject': {}, 'id': 'raspberries', 'src': '/static/foodstim60/raspberries.jpg', 'key': 'u', 'origWidth': 411, 'origHeight': 411, 'width': 411, 'height': 411, 'widthPercent': 0.45, 'rescaleHeight': False, 'trialN': 98, 'loaded': True, 'loadedTime': 3004.0999999940395, 'positionName': 'LEFT', 'positionCoords': [244.68, 178.5], 'bid': 0.09}, {'imgObject': {}, 'id': 'seaweed', 'src': '/static/foodstim60/seaweed.jpg', 'key': 'i', 'origWidth': 410, 'origHeight': 410, 'width': 410, 'height': 410, 'widthPercent': 0.45, 'rescaleHeight': False, 'trialN': 98, 'loaded': True, 'loadedTime': 3194.5, 'positionName': 'RIGHT', 'positionCoords': [710.32, 179], 'bid': 0.13}]",964421.599999994,1669832408794,raspberries,seaweed,0.09,0.13,0.04000000000000001,raspberries,1368.9000000059605,1370,1369.4000000059605,True,u,966306.3000000119,1884.7000000178814,1669832410679,1885,HRV,HRV_0172,2022-11-30 18:23:02
99,"[{'imgObject': {}, 'id': 'olives', 'src': '/static/foodstim60/olives.jpg', 'key': 'u', 'origWidth': 410, 'origHeight': 410, 'width': 410, 'height': 410, 'widthPercent': 0.45, 'rescaleHeight': False, 'trialN': 99, 'loaded': True, 'loadedTime': 3293, 'positionName': 'LEFT', 'positionCoords': [245.68, 179], 'bid': 0.15}, {'imgObject': {}, 'id': 'cantaloupe', 'src': '/static/foodstim60/cantaloupe.jpg', 'key': 'i', 'origWidth': 409, 'origHeight': 409, 'width': 409, 'height': 409, 'widthPercent': 0.45, 'rescaleHeight': False, 'trialN': 99, 'loaded': True, 'loadedTime': 3571.800000011921, 'positionName': 'RIGHT', 'positionCoords': [710.32, 179.5], 'bid': 0.05}]",966306.8000000119,1669832410679,olives,cantaloupe,0.15,0.05,-0.09999999999999999,cantaloupe,1654.2999999821186,1655,1654.7999999821186,True,i,968472.3000000119,2165.5,1669832412845,2166,HRV,HRV_0172,2022-11-30 18:23:02
100,"[{'imgObject': {}, 'id': 'cherries', 'src': '/static/foodstim60/cherries.jpg', 'key': 'u', 'origWidth': 410, 'origHeight': 411, 'width': 410, 'height': 411, 'widthPercent': 0.45, 'rescaleHeight': False, 'trialN': 100, 'loaded': True, 'loadedTime': 3371.5, 'positionName': 'LEFT', 'positionCoords': [245.68, 178.5], 'bid': 0.98}, {'imgObject': {}, 'id': 'fruitsalad', 'src': '/static/foodstim60/fruitsalad.jpg', 'key': 'i', 'origWidth': 410, 'origHeight': 410, 'width': 410, 'height': 410, 'widthPercent': 0.45, 'rescaleHeight': False, 'trialN': 100, 'loaded': True, 'loadedTime': 3518.5999999940395, 'positionName': 'RIGHT', 'positionCoords': [710.32, 179], 'bid': 1.58}]",968472.6999999881,1669832412845,cherries,fruitsalad,0.98,1.58,0.6000000000000001,cherries,1401.4000000059605,1402,1402.0,True,u,970384.6999999881,1912.0,1669832414757,1912,HRV,HRV_0172,2022-11-30 18:23:02
101,"[{'imgObject': {}, 'id': 'baked potato', 'src': '/static/foodstim60/baked potato.jpg', 'key': 'u', 'origWidth': 409, 'origHeight': 410, 'width': 409, 'height': 410, 'widthPercent': 0.45, 'rescaleHeight': False, 'trialN': 101, 'loaded': True, 'loadedTime': 3137.199999988079, 'positionName': 'LEFT', 'positionCoords': [246.68, 179], 'bid': 5.01}, {'imgObject': {}, 'id': 'turkey sandwich', 'src': '/static/foodstim60/turkey sandwich.jpg', 'key': 'i', 'origWidth': 409, 'origHeight': 409, 'width': 409, 'height': 409, 'widthPercent': 0.45, 'rescaleHeight': False, 'trialN': 101, 'loaded': True, 'loadedTime': 3520.0999999940395, 'positionName': 'RIGHT', 'positionCoords': [710.32, 179.5], 'bid': 5.98}]",970385.5,1669832414758,baked potato,turkey sandwich,5.01,5.98,0.9700000000000006,baked potato,1884.199999988079,1885,1884.800000011921,True,u,972777.5,2392.0,1669832417150,2392,HRV,HRV_0172,2022-11-30 18:23:02
102,"[{'imgObject': {}, 'id': 'veggieswithdip', 'src': '/static/foodstim60/veggieswithdip.jpg', 'key': 'u', 'origWidth': 409, 'origHeight': 409, 'width': 409, 'height': 409, 'widthPercent': 0.45, 'rescaleHeight': False, 'trialN': 102, 'loaded': True, 'loadedTime': 3542.5, 'positionName': 'LEFT', 'positionCoords': [246.68, 179.5], 'bid': 2.36}, {'imgObject': {}, 'id': 'bagel plain', 'src': '/static/foodstim60/bagel plain.jpg', 'key': 'i', 'origWidth': 410, 'origHeight': 410, 'width': 410, 'height': 410, 'widthPercent': 0.45, 'rescaleHeight': False, 'trialN': 102, 'loaded': True, 'loadedTime': 3214.0999999940395, 'positionName': 'RIGHT', 'positionCoords': [710.32, 179], 'bid': 2.26}]",972778.0,1669832417151,veggieswithdip,bagel plain,2.36,2.26,-0.10000000000000009,veggieswithdip,1129.9000000059605,1130,1130.5,True,u,974415.6999999881,1637.699999988079,1669832418788,1637,HRV,HRV_0172,2022-11-30 18:23:02
103,"[{'imgObject': {}, 'id': 'steak', 'src': '/static/foodstim60/steak.jpg', 'key': 'u', 'origWidth': 410, 'origHeight': 410, 'width': 410, 'height': 410, 'widthPercent': 0.45, 'rescaleHeight': False, 'trialN': 103, 'loaded': True, 'loadedTime': 3494.5999999940395, 'positionName': 'LEFT', 'positionCoords': [245.68, 179], 'bid': 7.95}, {'imgObject': {}, 'id': 'burrito', 'src': '/static/foodstim60/burrito.jpg', 'key': 'i', 'origWidth': 410, 'origHeight': 410, 'width': 410, 'height': 410, 'widthPercent': 0.45, 'rescaleHeight': False, 'trialN': 103, 'loaded': True, 'loadedTime': 3565, 'positionName': 'RIGHT', 'positionCoords': [710.32, 179], 'bid': 6.05}]",974416.3000000119,1669832418789,steak,burrito,7.95,6.05,-1.9000000000000004,steak,1183.2999999821186,1187,1186.8999999761581,True,u,976110.099999994,1693.7999999821186,1669832420483,1694,HRV,HRV_0172,2022-11-30 18:23:02
104,"[{'imgObject': {}, 'id': 'burger', 'src': '/static/foodstim60/burger.jpg', 'key': 'u', 'origWidth': 409, 'origHeight': 409, 'width': 409, 'height': 409, 'widthPercent': 0.45, 'rescaleHeight': False, 'trialN': 104, 'loaded': True, 'loadedTime': 3341.5, 'positionName': 'LEFT', 'positionCoords': [246.68, 179.5], 'bid': 5.6000000000000005}, {'imgObject': {}, 'id': 'steak', 'src': '/static/foodstim60/steak.jpg', 'key': 'i', 'origWidth': 410, 'origHeight': 410, 'width': 410, 'height': 410, 'widthPercent': 0.45, 'rescaleHeight': False, 'trialN': 104, 'loaded': True, 'loadedTime': 3495, 'positionName': 'RIGHT', 'positionCoords': [710.32, 179], 'bid': 7.95}]",976110.5,1669832420483,burger,steak,5.6000000000000005,7.95,2.3499999999999996,steak,2001.5,2002,2002.0,True,i,978615.599999994,2505.0999999940395,1669832422988,2505,HRV,HRV_0172,2022-11-30 18:23:02
105,"[{'imgObject': {}, 'id': 'roastedpotatoes', 'src': '/static/foodstim60/roastedpotatoes.jpg', 'key': 'u', 'origWidth': 409, 'origHeight': 410, 'width': 409, 'height': 410, 'widthPercent': 0.45, 'rescaleHeight': False, 'trialN': 105, 'loaded': True, 'loadedTime': 3496.4000000059605, 'positionName': 'LEFT', 'positionCoords': [246.68, 179], 'bid': 6.59}, {'imgObject': {}, 'id': 'fruitsalad', 'src': '/static/foodstim60/fruitsalad.jpg', 'key': 'i', 'origWidth': 410, 'origHeight': 410, 'width': 410, 'height': 410, 'widthPercent': 0.45, 'rescaleHeight': False, 'trialN': 105, 'loaded': True, 'loadedTime': 3518.699999988079, 'positionName': 'RIGHT', 'positionCoords': [710.32, 179], 'bid': 1.58}]",978615.8000000119,1669832422988,roastedpotatoes,fruitsalad,6.59,1.58,-5.01,roastedpotatoes,1671.0999999940395,1672,1671.3999999761581,True,u,980803.3000000119,2187.5,1669832425176,2188,HRV,HRV_0172,2022-11-30 18:23:02
106,"[{'imgObject': {}, 'id': 'raspberries', 'src': '/static/foodstim60/raspberries.jpg', 'key': 'u', 'origWidth': 411, 'origHeight': 411, 'width': 411, 'height': 411, 'widthPercent': 0.45, 'rescaleHeight': False, 'trialN': 106, 'loaded': True, 'loadedTime': 3005.199999988079, 'positionName': 'LEFT', 'positionCoords': [244.68, 178.5], 'bid': 0.09}, {'imgObject': {}, 'id': 'apple slices', 'src': '/static/foodstim60/apple slices.jpg', 'key': 'i', 'origWidth': 409, 'origHeight': 410, 'width': 409, 'height': 410, 'widthPercent': 0.45, 'rescaleHeight': False, 'trialN': 106, 'loaded': True, 'loadedTime': 3052.4000000059605, 'positionName': 'RIGHT', 'positionCoords': [710.32, 179], 'bid': 3.19}]",980804.3000000119,1669832425177,raspberries,apple slices,0.09,3.19,3.1,apple slices,1114.699999988079,1115,1115.3999999761581,True,i,982429.0,1624.699999988079,1669832426802,1625,HRV,HRV_0172,2022-11-30 18:23:02
107,"[{'imgObject': {}, 'id': 'fruitsalad', 'src': '/static/foodstim60/fruitsalad.jpg', 'key': 'u', 'origWidth': 410, 'origHeight': 410, 'width': 410, 'height': 410, 'widthPercent': 0.45, 'rescaleHeight': False, 'trialN': 107, 'loaded': True, 'loadedTime': 3517.300000011921, 'positionName': 'LEFT', 'positionCoords': [245.68, 179], 'bid': 1.58}, {'imgObject': {}, 'id': 'hashbrowns', 'src': '/static/foodstim60/hashbrowns.jpg', 'key': 'i', 'origWidth': 411, 'origHeight': 410, 'width': 411, 'height': 410, 'widthPercent': 0.45, 'rescaleHeight': False, 'trialN': 107, 'loaded': True, 'loadedTime': 3539.4000000059605, 'positionName': 'RIGHT', 'positionCoords': [710.32, 179], 'bid': 0.13}]",982429.3000000119,1669832426802,fruitsalad,hashbrowns,1.58,0.13,-1.4500000000000002,fruitsalad,1695.0999999940395,1696,1695.699999988079,True,u,984634.3000000119,2205.0,1669832429007,2205,HRV,HRV_0172,2022-11-30 18:23:02
108,"[{'imgObject': {}, 'id': 'cherries', 'src': '/static/foodstim60/cherries.jpg', 'key': 'u', 'origWidth': 410, 'origHeight': 411, 'width': 410, 'height': 411, 'widthPercent': 0.45, 'rescaleHeight': False, 'trialN': 108, 'loaded': True, 'loadedTime': 3371, 'positionName': 'LEFT', 'positionCoords': [245.68, 178.5], 'bid': 0.98}, {'imgObject': {}, 'id': 'lox', 'src': '/static/foodstim60/lox.jpg', 'key': 'i', 'origWidth': 410, 'origHeight': 411, 'width': 410, 'height': 411, 'widthPercent': 0.45, 'rescaleHeight': False, 'trialN': 108, 'loaded': True, 'loadedTime': 3542.699999988079, 'positionName': 'RIGHT', 'positionCoords': [710.32, 178.5], 'bid': 1.03}]",984634.6999999881,1669832429007,cherries,lox,0.98,1.03,0.050000000000000044,cherries,1031.2000000178814,1032,1031.4000000059605,True,u,986181.900000006,1547.2000000178814,1669832430555,1548,HRV,HRV_0172,2022-11-30 18:23:02
