success,trial_type,trial_index,time_elapsed,internal_node_id,Block,TrialNumber,TrialTime,trialTimeDiff,FPS_avg,FPS_med,FPS_mode,TrialDur,winResizeTime,rt,block,button_pressed,MotCoh,MotDir,ColCoh,Color,ChoiceKey,Choice,Accuracy,RT,nFrames,FPS,PPD,missTrial,missTrialMsg,onsetDelay,fullScreenExitTime,canvCenter,TrialType,Score,BlockTrial,stimulus,button_labels,exp,subjectId,date
True,fullscreen,0,20512,0.0-0.0,0.0,1.0,,,,,,,,,,,,,,,,,,,,,,,,,,,,,,,,HRV,HRV_0172,2022-11-30 18:49:41
,wl-check-fps,1,25505,0.0-1.0,0.0,2.0,"[21269.5, 21273.1, 21288.7, 21305.4, 21322.4, 21338.7, 21355.5, 21372.4, 21389.9, 21406, 21422.9, 21440.1, 21456.1, 21472.4, 21489, 21505.4, 21522.5, 21539, 21555.7, 21572.2, 21589.3, 21605.5, 21622.7, 21639.1, 21655.6, 21672.6, 21688.8, 21705.7, 21722.8, 21739, 21756, 21773.1, 21790.6, 21805.4, 21822.3, 21838.8, 21855.5, 21872.3, 21889.2, 21905.5, 21922.4, 21938.8, 21955.5, 21972.3, 21989.1, 22005.6, 22022.3, 22038.8, 22055.5, 22072.8, 22089.4, 22106.4, 22123.3, 22138.9, 22155.4, 22172.5, 22189.4, 22205.7, 22222.8, 22239.3, 22256.2, 22273.2, 22289.5, 22305.8, 22322.8, 22339.3, 22355.9, 22372.5, 22389.2, 22405.9, 22423, 22439.5, 22455.7, 22473.1, 22489.5, 22506.1, 22522.8, 22540.1, 22556.2, 22572.8, 22589.4, 22605.9, 22622.7, 22639.1, 22656.1, 22673.5, 22689.1, 22705.6, 22722.5, 22739.1, 22755.5, 22772.4, 22788.9, 22806, 22822.9, 22839.5, 22855.8, 22872.6, 22889.4, 22905.8, 22922.7, 22939.2, 22955.8, 22974.9, 22989.6, 23006, 23022.4, 23039.3, 23056.2, 23072.5, 23089.6, 23105.9, 23122.7, 23139.5, 23156.2, 23173.3, 23189.9, 23206, 23222.7, 23239.2, 23256, 23272.7, 23289.3, 23306.1, 23322.8, 23339.3, 23356.1, 23372.6, 23389.4, 23406.2, 23423.1, 23439.6, 23456.2, 23472.8, 23489.6, 23506.3, 23522.6, 23539.3, 23555.9, 23573.4, 23589.7, 23606.2, 23622.6, 23639.2, 23655.8, 23672.5, 23689.8, 23706.4, 23722.6, 23738.9, 23756, 23772.5, 23789, 23806.1, 23822.6, 23839.6, 23855.9, 23873.4, 23889.2, 23906.1, 23922.6, 23939.5, 23956.4, 23972.6, 23989.5, 24005.8, 24022.7, 24039.5, 24056.1, 24073.1, 24089.3, 24105.7, 24124.7, 24139.2, 24156.3, 24172.3, 24188.9, 24205.5, 24222.4, 24239, 24255.7, 24272.5, 24289.1, 24305.9, 24325.2, 24338.8, 24355.8, 24372.5, 24389, 24405.8, 24423.1, 24439.2, 24455.9, 24472.5, 24489.1, 24505.8, 24522.5, 24539.1, 24556, 24573.1, 24589.3, 24606, 24622.8, 24639.5, 24655.9, 24672.7, 24689.5, 24706.3, 24722.8, 24739.4, 24756.2, 24772.7, 24789.4, 24805.8, 24823, 24839.5, 24856.1, 24872.8, 24889.6, 24906.5, 24923.4, 24940.4, 24956.7, 24973.5, 24989.5, 25006.2, 25022.8, 25040.1, 25056.1, 25072.6, 25089.5, 25106.1, 25123, 25139.2, 25156.1, 25173, 25189.5, 25206.4, 25222.8, 25239.9, 25256.4, 25274.4, 25289.3, 25306.4, 25322.8, 25339.5, 25356.5, 25372.9, 25389.6, 25406.2, 25422.9, 25439.5, 25456.5, 25472.8, 25489.9, 25512.4, 25523.7, 25539.2, 25556.1, 25572.8, 25590.4, 25605.8, 25622.5, 25639.2, 25655.7, 25672.4, 25689.2, 25705.9, 25722.5, 25740.1, 25755.9, 25772.6, 25789.2, 25805.9, 25822.6, 25839.5, 25856, 25872.8, 25889.5, 25905.9, 25922.6, 25939.4, 25956, 25972.5, 25989.2, 26005.9, 26022.5, 26039.2, 26056.2, 26072.5, 26089.2, 26106, 26122.5, 26139.2, 26155.8, 26172.5, 26189.1, 26210.4, 26222.5, 26239.2]","[2, 3.6, 15.6, 16.7, 17, 16.3, 16.8, 16.9, 17.5, 16.1, 16.9, 17.2, 16, 16.3, 16.6, 16.4, 17.1, 16.5, 16.7, 16.5, 17.1, 16.2, 17.2, 16.4, 16.5, 17, 16.2, 16.9, 17.1, 16.2, 17, 17.1, 17.5, 14.8, 16.9, 16.5, 16.7, 16.8, 16.9, 16.3, 16.9, 16.4, 16.7, 16.8, 16.8, 16.5, 16.7, 16.5, 16.7, 17.3, 16.6, 17, 16.9, 15.6, 16.5, 17.1, 16.9, 16.3, 17.1, 16.5, 16.9, 17, 16.3, 16.3, 17, 16.5, 16.6, 16.6, 16.7, 16.7, 17.1, 16.5, 16.2, 17.4, 16.4, 16.6, 16.7, 17.3, 16.1, 16.6, 16.6, 16.5, 16.8, 16.4, 17, 17.4, 15.6, 16.5, 16.9, 16.6, 16.4, 16.9, 16.5, 17.1, 16.9, 16.6, 16.3, 16.8, 16.8, 16.4, 16.9, 16.5, 16.6, 19.1, 14.7, 16.4, 16.4, 16.9, 16.9, 16.3, 17.1, 16.3, 16.8, 16.8, 16.7, 17.1, 16.6, 16.1, 16.7, 16.5, 16.8, 16.7, 16.6, 16.8, 16.7, 16.5, 16.8, 16.5, 16.8, 16.8, 16.9, 16.5, 16.6, 16.6, 16.8, 16.7, 16.3, 16.7, 16.6, 17.5, 16.3, 16.5, 16.4, 16.6, 16.6, 16.7, 17.3, 16.6, 16.2, 16.3, 17.1, 16.5, 16.5, 17.1, 16.5, 17, 16.3, 17.5, 15.8, 16.9, 16.5, 16.9, 16.9, 16.2, 16.9, 16.3, 16.9, 16.8, 16.6, 17, 16.2, 16.4, 19, 14.5, 17.1, 16, 16.6, 16.6, 16.9, 16.6, 16.7, 16.8, 16.6, 16.8, 19.3, 13.6, 17, 16.7, 16.5, 16.8, 17.3, 16.1, 16.7, 16.6, 16.6, 16.7, 16.7, 16.6, 16.9, 17.1, 16.2, 16.7, 16.8, 16.7, 16.4, 16.8, 16.8, 16.8, 16.5, 16.6, 16.8, 16.5, 16.7, 16.4, 17.2, 16.5, 16.6, 16.7, 16.8, 16.9, 16.9, 17, 16.3, 16.8, 16, 16.7, 16.6, 17.3, 16, 16.5, 16.9, 16.6, 16.9, 16.2, 16.9, 16.9, 16.5, 16.9, 16.4, 17.1, 16.5, 18, 14.9, 17.1, 16.4, 16.7, 17, 16.4, 16.7, 16.6, 16.7, 16.6, 17, 16.3, 17.1, 22.5, 11.3, 15.5, 16.9, 16.7, 17.6, 15.4, 16.7, 16.7, 16.5, 16.7, 16.8, 16.7, 16.6, 17.6, 15.8, 16.7, 16.6, 16.7, 16.7, 16.9, 16.5, 16.8, 16.7, 16.4, 16.7, 16.8, 16.6, 16.5, 16.7, 16.7, 16.6, 16.7, 17, 16.3, 16.7, 16.8, 16.5, 16.7, 16.6, 16.7, 16.6, 21.3, 12.1, 16.7]",60.0,60.0,60.0,4988.3,[],,,,,,,,,,,,,,,,,,,,,,,,,HRV,HRV_0172,2022-11-30 18:49:41
,wl-html-keyboard-response,2,39155,0.0-2.0-0.0,0.0,3.0,,,,,,,,11638.199999988079,0.0,0,,,,,,,,,,,,,,,,,,,,,,HRV,HRV_0172,2022-11-30 18:49:41
,wl-rdm,3,46306,0.0-3.0-0.0,0.0,4.0,,,,,,,[],,,,0.0,0.0,87.9,0.0,u,0.0,True,1584.300000011921,95.0,60.0,40.0,False,,3000.0,[],"[683, 384]",ColorTask_Demo,,,,,HRV,HRV_0172,2022-11-30 18:49:41
,wl-rdm,4,51374,0.0-3.0-1.0,0.0,5.0,,,,,,,[],,,,0.0,0.0,87.9,1.0,i,1.0,True,1002.6999999880791,61.0,60.0,40.0,False,,2000.0,[],"[683, 384]",ColorTask_Demo,,,,,HRV,HRV_0172,2022-11-30 18:49:41
,wl-html-keyboard-response,5,57739,0.0-3.0-2.0,0.0,6.0,,,,,,,,4356.800000011921,0.0,1,,,,,,,,,,,,,,,,,,,,,,HRV,HRV_0172,2022-11-30 18:49:41
,wl-html-keyboard-response,6,68562,0.0-4.0-0.0,0.0,7.0,,,,,,,,8815.800000011921,0.0,0,,,,,,,,,,,,,,,,,,,,,,HRV,HRV_0172,2022-11-30 18:49:41
,wl-html-keyboard-response,7,78483,0.0-5.0-0.0,0.0,8.0,,,,,,,,7914.5999999940395,0.0,0,,,,,,,,,,,,,,,,,,,,,,HRV,HRV_0172,2022-11-30 18:49:41
,wl-rdm,8,81219,0.0-6.0-0.0,0.0,9.0,,,,,,,[],,,,,,56.4,0.0,i,1.0,False,1313.699999988079,79.0,60.0,40.0,False,,338.1058900719661,[],"[683, 384]",ColorTask,-1.0,1.0,,,HRV,HRV_0172,2022-11-30 18:49:41
,wl-rdm,9,84052,0.0-6.1-0.1,0.0,10.0,,,,,,,[],,,,,,62.5,0.0,i,1.0,False,1369.4000000059605,83.0,60.0,40.0,False,,368.99290781724005,[],"[683, 384]",ColorTask,-2.0,2.0,,,HRV,HRV_0172,2022-11-30 18:49:41
,wl-rdm,10,86502,0.0-6.2-0.2,0.0,11.0,,,,,,,[],,,,,,73.6,1.0,u,0.0,False,1041.4000000059605,63.0,60.0,40.0,False,,324.81811521142265,[],"[683, 384]",ColorTask,-3.0,3.0,,,HRV,HRV_0172,2022-11-30 18:49:41
,wl-rdm,11,89270,0.0-6.3-0.3,0.0,12.0,,,,,,,[],,,,,,56.4,0.0,i,1.0,False,1485.4000000059605,90.0,60.0,40.0,False,,208.03676866025552,[],"[683, 384]",ColorTask,-4.0,4.0,,,HRV,HRV_0172,2022-11-30 18:49:41
,wl-rdm,12,91570,0.0-6.4-0.4,0.0,13.0,,,,,,,[],,,,,,73.6,1.0,i,1.0,True,878.3000000119209,53.0,60.0,40.0,False,,366.402189617625,[],"[683, 384]",ColorTask,-3.0,5.0,,,HRV,HRV_0172,2022-11-30 18:49:41
,wl-rdm,13,93953,0.0-6.5-0.5,0.0,14.0,,,,,,,[],,,,,,50.0,0.0,u,0.0,True,1085.699999988079,66.0,60.0,40.0,False,,212.47956963531917,[],"[683, 384]",ColorTask,-2.0,6.0,,,HRV,HRV_0172,2022-11-30 18:49:41
,wl-rdm,14,96336,0.0-6.6-0.6,0.0,15.0,,,,,,,[],,,,,,87.9,1.0,i,1.0,True,935.9000000357628,57.0,60.0,40.0,False,,366.97564245689193,[],"[683, 384]",ColorTask,-1.0,7.0,,,HRV,HRV_0172,2022-11-30 18:49:41
,wl-rdm,15,99037,0.0-6.7-0.7,0.0,16.0,,,,,,,[],,,,,,56.4,0.0,u,0.0,True,1280.0,77.0,60.0,40.0,False,,365.09452071612833,[],"[683, 384]",ColorTask,0.0,8.0,,,HRV,HRV_0172,2022-11-30 18:49:41
,wl-rdm,16,102012,0.0-6.8-0.8,0.0,17.0,,,,,,,[],,,,,,50.0,1.0,u,0.0,False,1697.699999988079,102.0,60.0,40.0,False,,212.3231612873352,[],"[683, 384]",ColorTask,-1.0,9.0,,,HRV,HRV_0172,2022-11-30 18:49:41
,wl-rdm,17,104987,0.0-6.9-0.9,0.0,18.0,,,,,,,[],,,,,,53.2,0.0,u,0.0,True,1665.0,100.0,60.0,40.0,False,,262.15427739366885,[],"[683, 384]",ColorTask,0.0,10.0,,,HRV,HRV_0172,2022-11-30 18:49:41
,wl-rdm,18,107387,0.0-6.10-0.10,0.0,19.0,,,,,,,[],,,,,,56.4,1.0,i,1.0,True,1069.6000000238419,65.0,60.0,40.0,False,,236.47172855756253,[],"[683, 384]",ColorTask,1.0,11.0,,,HRV,HRV_0172,2022-11-30 18:49:41
,wl-rdm,19,109805,0.0-6.11-0.11,0.0,20.0,,,,,,,[],,,,,,73.6,0.0,u,0.0,True,1053.0,64.0,60.0,40.0,False,,273.55370742954415,[],"[683, 384]",ColorTask,2.0,12.0,,,HRV,HRV_0172,2022-11-30 18:49:41
,wl-rdm,20,112439,0.0-6.12-0.12,0.0,21.0,,,,,,,[],,,,,,50.0,0.0,u,0.0,True,1331.800000011921,80.0,60.0,40.0,False,,228.2246462461514,[],"[683, 384]",ColorTask,3.0,13.0,,,HRV,HRV_0172,2022-11-30 18:49:41
,wl-rdm,21,115021,0.0-6.13-0.13,0.0,22.0,,,,,,,[],,,,,,56.4,1.0,i,1.0,True,1223.0999999940395,74.0,60.0,40.0,False,,267.594072969183,[],"[683, 384]",ColorTask,4.0,14.0,,,HRV,HRV_0172,2022-11-30 18:49:41
,wl-rdm,22,118006,0.0-6.14-0.14,0.0,23.0,,,,,,,[],,,,,,56.4,0.0,u,0.0,True,1507.1000000238419,91.0,60.0,40.0,False,,387.07693568793866,[],"[683, 384]",ColorTask,5.0,15.0,,,HRV,HRV_0172,2022-11-30 18:49:41
,wl-rdm,23,121072,0.0-6.15-0.15,0.0,24.0,,,,,,,[],,,,,,50.0,0.0,u,0.0,True,1799.800000011921,108.0,60.0,40.0,False,,209.12348029648584,[],"[683, 384]",ColorTask,6.0,16.0,,,HRV,HRV_0172,2022-11-30 18:49:41
,wl-rdm,24,123873,0.0-6.16-0.16,0.0,25.0,,,,,,,[],,,,,,62.5,0.0,u,0.0,True,1465.5,88.0,60.0,40.0,False,,272.6442503891041,[],"[683, 384]",ColorTask,7.0,17.0,,,HRV,HRV_0172,2022-11-30 18:49:41
,wl-rdm,25,126456,0.0-6.17-0.17,0.0,26.0,,,,,,,[],,,,,,50.0,0.0,u,0.0,True,1275.9000000059605,77.0,60.0,40.0,False,,218.2532799461483,[],"[683, 384]",ColorTask,8.0,18.0,,,HRV,HRV_0172,2022-11-30 18:49:41
,wl-rdm,26,128790,0.0-6.18-0.18,0.0,27.0,,,,,,,[],,,,,,73.6,0.0,u,0.0,True,1020.6999999880791,62.0,60.0,40.0,False,,234.95949012346168,[],"[683, 384]",ColorTask,9.0,19.0,,,HRV,HRV_0172,2022-11-30 18:49:41
,wl-rdm,27,130957,0.0-6.19-0.19,0.0,28.0,,,,,,,[],,,,,,50.0,1.0,i,1.0,True,873.9000000059605,53.0,60.0,40.0,False,,227.54131282034797,[],"[683, 384]",ColorTask,10.0,20.0,,,HRV,HRV_0172,2022-11-30 18:49:41
,wl-rdm,28,133623,0.0-6.20-0.20,0.0,29.0,,,,,,,[],,,,,,56.4,1.0,i,1.0,True,1191.9000000059605,72.0,60.0,40.0,False,,395.6093510933996,[],"[683, 384]",ColorTask,11.0,21.0,,,HRV,HRV_0172,2022-11-30 18:49:41
,wl-rdm,29,135974,0.0-6.21-0.21,0.0,30.0,,,,,,,[],,,,,,53.2,1.0,i,1.0,True,897.0999999940395,54.0,60.0,40.0,False,,383.20652666567,[],"[683, 384]",ColorTask,12.0,22.0,,,HRV,HRV_0172,2022-11-30 18:49:41
,wl-rdm,30,138558,0.0-6.22-0.22,0.0,31.0,,,,,,,[],,,,,,50.0,1.0,i,1.0,True,1103.2000000178814,67.0,60.0,40.0,False,,391.2609511975369,[],"[683, 384]",ColorTask,13.0,23.0,,,HRV,HRV_0172,2022-11-30 18:49:41
,wl-rdm,31,140857,0.0-6.23-0.23,0.0,32.0,,,,,,,[],,,,,,73.6,0.0,u,0.0,True,1006.8000000119209,61.0,60.0,40.0,False,,213.9825164675881,[],"[683, 384]",ColorTask,14.0,24.0,,,HRV,HRV_0172,2022-11-30 18:49:41
,wl-rdm,32,143308,0.0-6.24-0.24,0.0,33.0,,,,,,,[],,,,,,62.5,0.0,u,0.0,True,1105.199999988079,67.0,60.0,40.0,False,,279.6131634701259,[],"[683, 384]",ColorTask,15.0,25.0,,,HRV,HRV_0172,2022-11-30 18:49:41
,wl-rdm,33,145692,0.0-6.25-0.25,0.0,34.0,,,,,,,[],,,,,,87.9,0.0,u,0.0,True,925.2999999821186,56.0,60.0,40.0,False,,396.11004570841004,[],"[683, 384]",ColorTask,16.0,26.0,,,HRV,HRV_0172,2022-11-30 18:49:41
,wl-rdm,34,148291,0.0-6.26-0.26,0.0,35.0,,,,,,,[],,,,,,53.2,1.0,u,0.0,False,1145.699999988079,69.0,60.0,40.0,False,,374.91970835434824,[],"[683, 384]",ColorTask,15.0,27.0,,,HRV,HRV_0172,2022-11-30 18:49:41
,wl-rdm,35,150942,0.0-6.27-0.27,0.0,36.0,,,,,,,[],,,,,,56.4,0.0,u,0.0,True,1274.7000000178814,77.0,60.0,40.0,False,,293.09964994185657,[],"[683, 384]",ColorTask,16.0,28.0,,,HRV,HRV_0172,2022-11-30 18:49:41
,wl-rdm,36,153259,0.0-6.28-0.28,0.0,37.0,,,,,,,[],,,,,,87.9,1.0,i,1.0,True,852.7000000178814,52.0,60.0,40.0,False,,373.9858737936456,[],"[683, 384]",ColorTask,17.0,29.0,,,HRV,HRV_0172,2022-11-30 18:49:41
,wl-rdm,37,156026,0.0-6.29-0.29,0.0,38.0,,,,,,,[],,,,,,62.5,0.0,u,0.0,True,1386.9000000059605,84.0,60.0,40.0,False,,292.0382463508761,[],"[683, 384]",ColorTask,18.0,30.0,,,HRV,HRV_0172,2022-11-30 18:49:41
,wl-rdm,38,158561,0.0-6.30-0.30,0.0,39.0,,,,,,,[],,,,,,50.0,0.0,i,1.0,False,1124.0,68.0,60.0,40.0,False,,349.00767117650514,[],"[683, 384]",ColorTask,17.0,31.0,,,HRV,HRV_0172,2022-11-30 18:49:41
,wl-rdm,39,161027,0.0-6.31-0.31,0.0,40.0,,,,,,,[],,,,,,62.5,1.0,i,1.0,True,1098.0000000298023,66.0,60.0,40.0,False,,296.87787044282925,[],"[683, 384]",ColorTask,18.0,32.0,,,HRV,HRV_0172,2022-11-30 18:49:41
,wl-rdm,40,163961,0.0-6.32-0.32,0.0,41.0,,,,,,,[],,,,,,50.0,0.0,i,1.0,False,1602.800000011921,97.0,60.0,40.0,False,,248.33358061127973,[],"[683, 384]",ColorTask,17.0,33.0,,,HRV,HRV_0172,2022-11-30 18:49:41
,wl-rdm,41,166744,0.0-6.33-0.33,0.0,42.0,,,,,,,[],,,,,,62.5,0.0,u,0.0,True,1457.300000011921,88.0,60.0,40.0,False,,241.8745990479656,[],"[683, 384]",ColorTask,18.0,34.0,,,HRV,HRV_0172,2022-11-30 18:49:41
,wl-rdm,42,169344,0.0-6.34-0.34,0.0,43.0,,,,,,,[],,,,,,62.5,1.0,i,1.0,True,1170.4999999701977,71.0,60.0,40.0,False,,333.8928425199483,[],"[683, 384]",ColorTask,19.0,35.0,,,HRV,HRV_0172,2022-11-30 18:49:41
,wl-rdm,43,172230,0.0-6.35-0.35,0.0,44.0,,,,,,,[],,,,,,56.4,1.0,i,1.0,True,1597.0,96.0,60.0,40.0,False,,207.20583851250564,[],"[683, 384]",ColorTask,20.0,36.0,,,HRV,HRV_0172,2022-11-30 18:49:41
,wl-rdm,44,175778,0.0-6.36-0.36,0.0,45.0,,,,,,,[],,,,,,56.4,0.0,i,1.0,False,2069.0999999940395,125.0,60.0,40.0,False,,385.0708569280472,[],"[683, 384]",ColorTask,19.0,37.0,,,HRV,HRV_0172,2022-11-30 18:49:41
,wl-rdm,45,178529,0.0-6.37-0.37,0.0,46.0,,,,,,,[],,,,,,50.0,1.0,i,1.0,True,1397.5999999940395,84.0,60.0,40.0,False,,286.67807131016224,[],"[683, 384]",ColorTask,20.0,38.0,,,HRV,HRV_0172,2022-11-30 18:49:41
,wl-rdm,46,180762,0.0-6.38-0.38,0.0,47.0,,,,,,,[],,,,,,73.6,1.0,i,1.0,True,776.3999999761581,47.0,60.0,40.0,False,,386.04563813686775,[],"[683, 384]",ColorTask,21.0,39.0,,,HRV,HRV_0172,2022-11-30 18:49:41
,wl-rdm,47,183279,0.0-6.39-0.39,0.0,48.0,,,,,,,[],,,,,,50.0,1.0,i,1.0,True,1177.5,71.0,60.0,40.0,False,,263.3867205161207,[],"[683, 384]",ColorTask,22.0,40.0,,,HRV,HRV_0172,2022-11-30 18:49:41
,wl-rdm,48,186029,0.0-6.40-0.40,0.0,49.0,,,,,,,[],,,,,,56.4,0.0,u,0.0,True,1394.2999999821186,84.0,60.0,40.0,False,,298.21074401109183,[],"[683, 384]",ColorTask,23.0,41.0,,,HRV,HRV_0172,2022-11-30 18:49:41
,wl-rdm,49,188313,0.0-6.41-0.41,0.0,50.0,,,,,,,[],,,,,,62.5,1.0,i,1.0,True,996.3000000119209,60.0,60.0,40.0,False,,216.59400161016998,[],"[683, 384]",ColorTask,24.0,42.0,,,HRV,HRV_0172,2022-11-30 18:49:41
,wl-rdm,50,190530,0.0-6.42-0.42,0.0,51.0,,,,,,,[],,,,,,87.9,1.0,i,1.0,True,851.7000000178814,51.0,60.0,40.0,False,,256.90975279445655,[],"[683, 384]",ColorTask,25.0,43.0,,,HRV,HRV_0172,2022-11-30 18:49:41
,wl-rdm,51,192813,0.0-6.43-0.43,0.0,52.0,,,,,,,[],,,,,,73.6,0.0,u,0.0,True,1006.8999999761581,61.0,60.0,40.0,False,,212.0108689115646,[],"[683, 384]",ColorTask,26.0,44.0,,,HRV,HRV_0172,2022-11-30 18:49:41
,wl-rdm,52,195697,0.0-6.44-0.44,0.0,53.0,,,,,,,[],,,,,,53.2,1.0,i,1.0,True,1577.5,96.0,60.0,40.0,False,,216.82905179774696,[],"[683, 384]",ColorTask,27.0,45.0,,,HRV,HRV_0172,2022-11-30 18:49:41
,wl-rdm,53,198397,0.0-6.45-0.45,0.0,54.0,,,,,,,[],,,,,,62.5,0.0,u,0.0,True,1369.300000011921,83.0,60.0,40.0,False,,247.50140323786968,[],"[683, 384]",ColorTask,28.0,46.0,,,HRV,HRV_0172,2022-11-30 18:49:41
,wl-rdm,54,201998,0.0-6.46-0.46,0.0,55.0,,,,,,,[],,,,,,53.2,1.0,u,0.0,False,2137.800000011921,129.0,60.0,40.0,False,,385.7523205941939,[],"[683, 384]",ColorTask,27.0,47.0,,,HRV,HRV_0172,2022-11-30 18:49:41
,wl-rdm,55,204582,0.0-6.47-0.47,0.0,56.0,,,,,,,[],,,,,,50.0,0.0,i,1.0,False,1290.300000011921,78.0,60.0,40.0,False,,233.38354867597945,[],"[683, 384]",ColorTask,26.0,48.0,,,HRV,HRV_0172,2022-11-30 18:49:41
,wl-rdm,56,206981,0.0-6.48-0.48,0.0,57.0,,,,,,,[],,,,,,53.2,0.0,i,1.0,False,920.3000000119209,56.0,60.0,40.0,False,,388.8612023467611,[],"[683, 384]",ColorTask,25.0,49.0,,,HRV,HRV_0172,2022-11-30 18:49:41
,wl-rdm,57,209432,0.0-6.49-0.49,0.0,58.0,,,,,,,[],,,,,,62.5,1.0,i,1.0,True,1032.2999999821186,62.0,60.0,40.0,False,,357.3673140441774,[],"[683, 384]",ColorTask,26.0,50.0,,,HRV,HRV_0172,2022-11-30 18:49:41
,wl-rdm,58,211799,0.0-6.50-0.50,0.0,59.0,,,,,,,[],,,,,,56.4,1.0,i,1.0,True,1049.7999999821186,63.0,60.0,40.0,False,,240.67934166843838,[],"[683, 384]",ColorTask,27.0,51.0,,,HRV,HRV_0172,2022-11-30 18:49:41
,wl-rdm,59,214666,0.0-6.51-0.51,0.0,60.0,,,,,,,[],,,,,,62.5,1.0,i,1.0,True,1421.5,86.0,60.0,40.0,False,,373.18964948456505,[],"[683, 384]",ColorTask,28.0,52.0,,,HRV,HRV_0172,2022-11-30 18:49:41
,wl-rdm,60,216832,0.0-6.52-0.52,0.0,61.0,,,,,,,[],,,,,,87.9,1.0,i,1.0,True,808.9000000059605,49.0,60.0,40.0,False,,290.55084683942357,[],"[683, 384]",ColorTask,29.0,53.0,,,HRV,HRV_0172,2022-11-30 18:49:41
,wl-rdm,61,219083,0.0-6.53-0.53,0.0,62.0,,,,,,,[],,,,,,73.6,0.0,u,0.0,True,910.5000000298023,55.0,60.0,40.0,False,,260.6474533078483,[],"[683, 384]",ColorTask,30.0,54.0,,,HRV,HRV_0172,2022-11-30 18:49:41
,wl-rdm,62,221300,0.0-6.54-0.54,0.0,63.0,,,,,,,[],,,,,,87.9,0.0,u,0.0,True,857.9000000059605,52.0,60.0,40.0,False,,272.8431749724774,[],"[683, 384]",ColorTask,31.0,55.0,,,HRV,HRV_0172,2022-11-30 18:49:41
,wl-rdm,63,224201,0.0-6.55-0.55,0.0,64.0,,,,,,,[],,,,,,50.0,1.0,i,1.0,True,1580.0999999940395,95.0,60.0,40.0,False,,258.744181321438,[],"[683, 384]",ColorTask,32.0,56.0,,,HRV,HRV_0172,2022-11-30 18:49:41
,wl-rdm,64,226817,0.0-6.56-0.56,0.0,65.0,,,,,,,[],,,,,,62.5,0.0,u,0.0,True,1229.9000000059605,74.0,60.0,40.0,False,,320.2738948242405,[],"[683, 384]",ColorTask,33.0,57.0,,,HRV,HRV_0172,2022-11-30 18:49:41
,wl-rdm,65,228984,0.0-6.57-0.57,0.0,66.0,,,,,,,[],,,,,,87.9,1.0,i,1.0,True,818.3000000119209,50.0,60.0,40.0,False,,277.88501568388415,[],"[683, 384]",ColorTask,34.0,58.0,,,HRV,HRV_0172,2022-11-30 18:49:41
,wl-rdm,66,231083,0.0-6.58-0.58,0.0,67.0,,,,,,,[],,,,,,62.5,1.0,i,1.0,True,760.5999999940395,46.0,60.0,40.0,False,,269.42976712346086,[],"[683, 384]",ColorTask,35.0,59.0,,,HRV,HRV_0172,2022-11-30 18:49:41
,wl-rdm,67,233450,0.0-6.59-0.59,0.0,68.0,,,,,,,[],,,,,,56.4,1.0,i,1.0,True,988.3000000119209,60.0,60.0,40.0,False,,299.682935332702,[],"[683, 384]",ColorTask,36.0,60.0,,,HRV,HRV_0172,2022-11-30 18:49:41
,wl-rdm,68,235517,0.0-6.60-0.60,0.0,69.0,,,,,,,[],,,,,,73.6,1.0,i,1.0,True,793.0999999940395,48.0,60.0,40.0,False,,212.3256471049669,[],"[683, 384]",ColorTask,37.0,61.0,,,HRV,HRV_0172,2022-11-30 18:49:41
,wl-rdm,69,237751,0.0-6.61-0.61,0.0,70.0,,,,,,,[],,,,,,53.2,0.0,i,1.0,False,909.7000000178814,55.0,60.0,40.0,False,,253.56318457476948,[],"[683, 384]",ColorTask,36.0,62.0,,,HRV,HRV_0172,2022-11-30 18:49:41
,wl-rdm,70,239934,0.0-6.62-0.62,0.0,71.0,,,,,,,[],,,,,,53.2,1.0,i,1.0,True,762.0999999940395,46.0,60.0,40.0,False,,357.34470234918757,[],"[683, 384]",ColorTask,37.0,63.0,,,HRV,HRV_0172,2022-11-30 18:49:41
,wl-rdm,71,242152,0.0-6.63-0.63,0.0,72.0,,,,,,,[],,,,,,73.6,0.0,u,0.0,True,897.2000000178814,54.0,60.0,40.0,False,,254.3640266664845,[],"[683, 384]",ColorTask,38.0,64.0,,,HRV,HRV_0172,2022-11-30 18:49:41
,wl-rdm,72,244135,0.0-6.64-0.64,0.0,73.0,,,,,,,[],,,,,,87.9,0.0,u,0.0,True,670.1000000238419,41.0,60.0,40.0,False,,231.99809190789878,[],"[683, 384]",ColorTask,39.0,65.0,,,HRV,HRV_0172,2022-11-30 18:49:41
,wl-rdm,73,246202,0.0-6.65-0.65,0.0,74.0,,,,,,,[],,,,,,87.9,1.0,i,1.0,True,688.1999999880791,42.0,60.0,40.0,False,,300.28069117570783,[],"[683, 384]",ColorTask,40.0,66.0,,,HRV,HRV_0172,2022-11-30 18:49:41
,wl-rdm,74,248869,0.0-6.66-0.66,0.0,75.0,,,,,,,[],,,,,,62.5,0.0,u,0.0,True,1376.0999999940395,83.0,60.0,40.0,False,,210.07618291783203,[],"[683, 384]",ColorTask,41.0,67.0,,,HRV,HRV_0172,2022-11-30 18:49:41
,wl-rdm,75,251252,0.0-6.67-0.67,0.0,76.0,,,,,,,[],,,,,,56.4,1.0,i,1.0,True,926.0999999940395,56.0,60.0,40.0,False,,383.5519545284407,[],"[683, 384]",ColorTask,42.0,68.0,,,HRV,HRV_0172,2022-11-30 18:49:41
,wl-rdm,76,253420,0.0-6.68-0.68,0.0,77.0,,,,,,,[],,,,,,73.6,0.0,u,0.0,True,840.2999999821186,51.0,60.0,40.0,False,,262.77499388347474,[],"[683, 384]",ColorTask,43.0,69.0,,,HRV,HRV_0172,2022-11-30 18:49:41
,wl-rdm,77,255902,0.0-6.69-0.69,0.0,78.0,,,,,,,[],,,,,,87.9,1.0,i,1.0,True,1176.9999999701977,71.0,60.0,40.0,False,,221.12621547376185,[],"[683, 384]",ColorTask,44.0,70.0,,,HRV,HRV_0172,2022-11-30 18:49:41
,wl-rdm,78,258020,0.0-6.70-0.70,0.0,79.0,,,,,,,[],,,,,,73.6,1.0,i,1.0,True,820.6999999880791,50.0,60.0,40.0,False,,207.20572476960953,[],"[683, 384]",ColorTask,45.0,71.0,,,HRV,HRV_0172,2022-11-30 18:49:41
,wl-rdm,79,260703,0.0-6.71-0.71,0.0,80.0,,,,,,,[],,,,,,53.2,0.0,u,0.0,True,1311.5999999940395,79.0,60.0,40.0,False,,303.86236449729074,[],"[683, 384]",ColorTask,46.0,72.0,,,HRV,HRV_0172,2022-11-30 18:49:41
,wl-rdm,80,263154,0.0-6.72-0.72,0.0,81.0,,,,,,,[],,,,,,53.2,0.0,u,0.0,True,1078.5999999940395,65.0,60.0,40.0,False,,304.32558875813356,[],"[683, 384]",ColorTask,47.0,73.0,,,HRV,HRV_0172,2022-11-30 18:49:41
,wl-rdm,81,266171,0.0-6.73-0.73,0.0,82.0,,,,,,,[],,,,,,62.5,0.0,u,0.0,True,1588.199999988079,96.0,60.0,40.0,False,,349.35746269587673,[],"[683, 384]",ColorTask,48.0,74.0,,,HRV,HRV_0172,2022-11-30 18:49:41
,wl-rdm,82,268521,0.0-6.74-0.74,0.0,83.0,,,,,,,[],,,,,,53.2,0.0,u,0.0,True,1020.0999999940395,62.0,60.0,40.0,False,,264.7990811198896,[],"[683, 384]",ColorTask,49.0,75.0,,,HRV,HRV_0172,2022-11-30 18:49:41
,wl-rdm,83,271621,0.0-6.75-0.75,0.0,84.0,,,,,,,[],,,,,,50.0,1.0,i,1.0,True,1640.9000000059605,99.0,60.0,40.0,False,,389.7612867393267,[],"[683, 384]",ColorTask,50.0,76.0,,,HRV,HRV_0172,2022-11-30 18:49:41
,wl-rdm,84,274605,0.0-6.76-0.76,0.0,85.0,,,,,,,[],,,,,,56.4,0.0,i,1.0,False,1603.699999988079,97.0,60.0,40.0,False,,292.52623317330034,[],"[683, 384]",ColorTask,49.0,77.0,,,HRV,HRV_0172,2022-11-30 18:49:41
,wl-rdm,85,276838,0.0-6.77-0.77,0.0,86.0,,,,,,,[],,,,,,73.6,1.0,i,1.0,True,880.7000000178814,53.0,60.0,40.0,False,,291.5966544498883,[],"[683, 384]",ColorTask,50.0,78.0,,,HRV,HRV_0172,2022-11-30 18:49:41
,wl-rdm,86,278972,0.0-6.78-0.78,0.0,87.0,,,,,,,[],,,,,,62.5,1.0,i,1.0,True,746.6000000238419,45.0,60.0,40.0,False,,314.18471107449795,[],"[683, 384]",ColorTask,51.0,79.0,,,HRV,HRV_0172,2022-11-30 18:49:41
,wl-rdm,87,281056,0.0-6.79-0.79,0.0,88.0,,,,,,,[],,,,,,73.6,0.0,u,0.0,True,742.0999999940395,45.0,60.0,40.0,False,,258.25922335901566,[],"[683, 384]",ColorTask,52.0,80.0,,,HRV,HRV_0172,2022-11-30 18:49:41
,wl-rdm,88,283505,0.0-6.80-0.80,0.0,89.0,,,,,,,[],,,,,,56.4,1.0,i,1.0,True,1147.5999999940395,69.0,60.0,40.0,False,,225.90669993155998,[],"[683, 384]",ColorTask,53.0,81.0,,,HRV,HRV_0172,2022-11-30 18:49:41
,wl-rdm,89,285723,0.0-6.81-0.81,0.0,90.0,,,,,,,[],,,,,,87.9,0.0,u,0.0,True,793.3000000119209,48.0,60.0,40.0,False,,350.82377256299685,[],"[683, 384]",ColorTask,54.0,82.0,,,HRV,HRV_0172,2022-11-30 18:49:41
,wl-rdm,90,288322,0.0-6.82-0.82,0.0,91.0,,,,,,,[],,,,,,56.4,1.0,i,1.0,True,1185.800000011921,71.0,60.0,40.0,False,,340.12206200682647,[],"[683, 384]",ColorTask,55.0,83.0,,,HRV,HRV_0172,2022-11-30 18:49:41
,wl-rdm,91,290890,0.0-6.83-0.83,0.0,92.0,,,,,,,[],,,,,,53.2,0.0,i,1.0,False,1151.5,70.0,60.0,40.0,False,,351.95365503555917,[],"[683, 384]",ColorTask,54.0,84.0,,,HRV,HRV_0172,2022-11-30 18:49:41
,wl-rdm,92,293656,0.0-6.84-0.84,0.0,93.0,,,,,,,[],,,,,,87.9,0.0,u,0.0,True,1291.699999988079,78.0,60.0,40.0,False,,384.7059331334678,[],"[683, 384]",ColorTask,55.0,85.0,,,HRV,HRV_0172,2022-11-30 18:49:41
,wl-rdm,93,296907,0.0-6.85-0.85,0.0,94.0,,,,,,,[],,,,,,53.2,0.0,i,1.0,False,1776.199999988079,107.0,60.0,40.0,False,,385.5431789088076,[],"[683, 384]",ColorTask,54.0,86.0,,,HRV,HRV_0172,2022-11-30 18:49:41
,wl-rdm,94,299024,0.0-6.86-0.86,0.0,95.0,,,,,,,[],,,,,,62.5,1.0,i,1.0,True,843.2000000178814,51.0,60.0,40.0,False,,210.4016341791783,[],"[683, 384]",ColorTask,55.0,87.0,,,HRV,HRV_0172,2022-11-30 18:49:41
,wl-rdm,95,300990,0.0-6.87-0.87,0.0,96.0,,,,,,,[],,,,,,87.9,1.0,i,1.0,True,636.5,39.0,60.0,40.0,False,,249.3465336082532,[],"[683, 384]",ColorTask,56.0,88.0,,,HRV,HRV_0172,2022-11-30 18:49:41
,wl-rdm,96,303358,0.0-6.88-0.88,0.0,97.0,,,,,,,[],,,,,,73.6,1.0,i,1.0,True,1046.800000011921,63.0,60.0,40.0,False,,240.634963649549,[],"[683, 384]",ColorTask,57.0,89.0,,,HRV,HRV_0172,2022-11-30 18:49:41
,wl-rdm,97,305408,0.0-6.89-0.89,0.0,98.0,,,,,,,[],,,,,,87.9,0.0,u,0.0,True,666.9000000059605,40.0,60.0,40.0,False,,322.89201062455186,[],"[683, 384]",ColorTask,58.0,90.0,,,HRV,HRV_0172,2022-11-30 18:49:41
,wl-rdm,98,307575,0.0-6.90-0.90,0.0,99.0,,,,,,,[],,,,,,87.9,1.0,i,1.0,True,791.0,48.0,60.0,40.0,False,,301.4747014746911,[],"[683, 384]",ColorTask,59.0,91.0,,,HRV,HRV_0172,2022-11-30 18:49:41
,wl-rdm,99,310609,0.0-6.91-0.91,0.0,100.0,,,,,,,[],,,,,,50.0,0.0,u,0.0,True,1608.7999999821186,97.0,60.0,40.0,False,,357.5875213583836,[],"[683, 384]",ColorTask,60.0,92.0,,,HRV,HRV_0172,2022-11-30 18:49:41
,wl-rdm,100,313009,0.0-6.92-0.92,0.0,101.0,,,,,,,[],,,,,,53.2,1.0,u,0.0,False,1105.300000011921,67.0,60.0,40.0,False,,208.18679896516383,[],"[683, 384]",ColorTask,59.0,93.0,,,HRV,HRV_0172,2022-11-30 18:49:41
,wl-rdm,101,315342,0.0-6.93-0.93,0.0,102.0,,,,,,,[],,,,,,50.0,1.0,u,0.0,False,981.1999999880791,59.0,60.0,40.0,False,,296.23309666584396,[],"[683, 384]",ColorTask,58.0,94.0,,,HRV,HRV_0172,2022-11-30 18:49:41
,wl-rdm,102,317792,0.0-6.94-0.94,0.0,103.0,,,,,,,[],,,,,,73.6,1.0,i,1.0,True,1086.5999999940395,66.0,60.0,40.0,False,,267.67099487751034,[],"[683, 384]",ColorTask,59.0,95.0,,,HRV,HRV_0172,2022-11-30 18:49:41
,wl-rdm,103,320409,0.0-6.95-0.95,0.0,104.0,,,,,,,[],,,,,,53.2,1.0,i,1.0,True,1297.199999988079,78.0,60.0,40.0,False,,234.8920470974,[],"[683, 384]",ColorTask,60.0,96.0,,,HRV,HRV_0172,2022-11-30 18:49:41
,wl-rdm,104,322559,0.0-6.96-0.96,0.0,105.0,,,,,,,[],,,,,,87.9,0.0,u,0.0,True,791.8999999761581,48.0,60.0,40.0,False,,268.644721757532,[],"[683, 384]",ColorTask,61.0,97.0,,,HRV,HRV_0172,2022-11-30 18:49:41
,wl-rdm,105,324809,0.0-6.97-0.97,0.0,106.0,,,,,,,[],,,,,,53.2,1.0,i,1.0,True,929.9999999701977,56.0,60.0,40.0,False,,234.6448710313232,[],"[683, 384]",ColorTask,62.0,98.0,,,HRV,HRV_0172,2022-11-30 18:49:41
,wl-rdm,106,327293,0.0-6.98-0.98,0.0,107.0,,,,,,,[],,,,,,62.5,1.0,i,1.0,True,1153.2999999821186,70.0,60.0,40.0,False,,252.10605058531306,[],"[683, 384]",ColorTask,63.0,99.0,,,HRV,HRV_0172,2022-11-30 18:49:41
,wl-rdm,107,329376,0.0-6.99-0.99,0.0,108.0,,,,,,,[],,,,,,87.9,0.0,u,0.0,True,764.3000000119209,46.0,60.0,40.0,False,,250.86707103598803,[],"[683, 384]",ColorTask,64.0,100.0,,,HRV,HRV_0172,2022-11-30 18:49:41
,wl-rdm,108,331711,0.0-6.100-0.100,0.0,109.0,,,,,,,[],,,,,,53.2,0.0,u,0.0,True,977.6999999880791,59.0,60.0,40.0,False,,295.63563597935564,[],"[683, 384]",ColorTask,65.0,101.0,,,HRV,HRV_0172,2022-11-30 18:49:41
,wl-rdm,109,334260,0.0-6.101-0.101,0.0,110.0,,,,,,,[],,,,,,73.6,1.0,i,1.0,True,1092.0999999940395,66.0,60.0,40.0,False,,380.0873879365623,[],"[683, 384]",ColorTask,66.0,102.0,,,HRV,HRV_0172,2022-11-30 18:49:41
,wl-rdm,110,337344,0.0-6.102-0.102,0.0,111.0,,,,,,,[],,,,,,56.4,0.0,i,1.0,False,1642.2999999821186,99.0,60.0,40.0,False,,363.1913358175095,[],"[683, 384]",ColorTask,65.0,103.0,,,HRV,HRV_0172,2022-11-30 18:49:41
,wl-rdm,111,340527,0.0-6.103-0.103,0.0,112.0,,,,,,,[],,,,,,53.2,1.0,i,1.0,True,1865.7000000178814,112.0,60.0,40.0,False,,245.79003001038686,[],"[683, 384]",ColorTask,66.0,104.0,,,HRV,HRV_0172,2022-11-30 18:49:41
,wl-rdm,112,344045,0.0-6.104-0.104,0.0,113.0,,,,,,,[],,,,,,50.0,1.0,i,1.0,True,2047.800000011921,123.0,60.0,40.0,False,,397.6791478330996,[],"[683, 384]",ColorTask,67.0,105.0,,,HRV,HRV_0172,2022-11-30 18:49:41
,wl-rdm,113,346328,0.0-6.105-0.105,0.0,114.0,,,,,,,[],,,,,,73.6,0.0,u,0.0,True,892.8999999761581,54.0,60.0,40.0,False,,329.57940663519594,[],"[683, 384]",ColorTask,68.0,106.0,,,HRV,HRV_0172,2022-11-30 18:49:41
,wl-rdm,114,348395,0.0-6.106-0.106,0.0,115.0,,,,,,,[],,,,,,87.9,0.0,u,0.0,True,778.3999999761581,47.0,60.0,40.0,False,,218.48747384060863,[],"[683, 384]",ColorTask,69.0,107.0,,,HRV,HRV_0172,2022-11-30 18:49:41
,wl-rdm,115,351128,0.0-6.107-0.107,0.0,116.0,,,,,,,[],,,,,,50.0,0.0,u,0.0,True,1283.3999999761581,77.0,60.0,40.0,False,,369.5089682468141,[],"[683, 384]",ColorTask,70.0,108.0,,,HRV,HRV_0172,2022-11-30 18:49:41
,wl-html-keyboard-response,116,426069,0.0-7.0-0.0,1.0,117.0,,,,,,,,72932.0,1.0,0,,,,,,,,,,,,,,,,,,,,,,HRV,HRV_0172,2022-11-30 18:49:41
,wl-rdm,117,428612,0.0-8.0-0.0,1.0,118.0,,,,,,,[],,,,,,62.5,1.0,i,1.0,True,1236.5999999940395,75.0,60.0,40.0,False,,241.316038086677,[],"[683, 384]",ColorTask,71.0,1.0,,,HRV,HRV_0172,2022-11-30 18:49:41
,wl-rdm,118,430796,0.0-8.1-0.1,1.0,119.0,,,,,,,[],,,,,,73.6,1.0,i,1.0,True,818.3000000119209,50.0,60.0,40.0,False,,281.5160682303671,[],"[683, 384]",ColorTask,72.0,2.0,,,HRV,HRV_0172,2022-11-30 18:49:41
,wl-rdm,119,433047,0.0-8.2-0.2,1.0,120.0,,,,,,,[],,,,,,50.0,1.0,i,1.0,True,936.5,57.0,60.0,40.0,False,,236.40164568178514,[],"[683, 384]",ColorTask,73.0,3.0,,,HRV,HRV_0172,2022-11-30 18:49:41
,wl-rdm,120,435530,0.0-8.3-0.3,1.0,121.0,,,,,,,[],,,,,,73.6,0.0,u,0.0,True,1036.9000000059605,63.0,60.0,40.0,False,,360.6602056431848,[],"[683, 384]",ColorTask,74.0,4.0,,,HRV,HRV_0172,2022-11-30 18:49:41
,wl-rdm,121,437996,0.0-8.4-0.4,1.0,122.0,,,,,,,[],,,,,,73.6,1.0,i,1.0,True,1135.5999999940395,69.0,60.0,40.0,False,,248.37645093766614,[],"[683, 384]",ColorTask,75.0,5.0,,,HRV,HRV_0172,2022-11-30 18:49:41
,wl-rdm,122,440413,0.0-8.5-0.5,1.0,123.0,,,,,,,[],,,,,,62.5,0.0,u,0.0,True,923.7999999821186,56.0,60.0,40.0,False,,399.9673113371171,[],"[683, 384]",ColorTask,76.0,6.0,,,HRV,HRV_0172,2022-11-30 18:49:41
,wl-rdm,123,442864,0.0-8.6-0.6,1.0,124.0,,,,,,,[],,,,,,53.2,1.0,i,1.0,True,1134.699999988079,69.0,60.0,40.0,False,,249.27917752074438,[],"[683, 384]",ColorTask,77.0,7.0,,,HRV,HRV_0172,2022-11-30 18:49:41
,wl-rdm,124,445197,0.0-8.7-0.7,1.0,125.0,,,,,,,[],,,,,,50.0,0.0,u,0.0,True,984.6999999880791,60.0,60.0,40.0,False,,266.46802281735523,[],"[683, 384]",ColorTask,78.0,8.0,,,HRV,HRV_0172,2022-11-30 18:49:41
,wl-rdm,125,447931,0.0-8.8-0.8,1.0,126.0,,,,,,,[],,,,,,50.0,0.0,u,0.0,True,1344.800000011921,81.0,60.0,40.0,False,,327.79119305069645,[],"[683, 384]",ColorTask,79.0,9.0,,,HRV,HRV_0172,2022-11-30 18:49:41
,wl-rdm,126,450514,0.0-8.9-0.9,1.0,127.0,,,,,,,[],,,,,,50.0,0.0,i,1.0,False,1226.0999999940395,74.0,60.0,40.0,False,,290.76324531066217,[],"[683, 384]",ColorTask,78.0,10.0,,,HRV,HRV_0172,2022-11-30 18:49:41
,wl-rdm,127,453281,0.0-8.10-0.10,1.0,128.0,,,,,,,[],,,,,,73.6,0.0,u,0.0,True,1400.2999999821186,84.0,60.0,40.0,False,,290.43121144285345,[],"[683, 384]",ColorTask,79.0,11.0,,,HRV,HRV_0172,2022-11-30 18:49:41
,wl-rdm,128,455431,0.0-8.11-0.11,1.0,129.0,,,,,,,[],,,,,,73.6,1.0,i,1.0,True,848.6999999880791,51.0,60.0,40.0,False,,236.85282225948745,[],"[683, 384]",ColorTask,80.0,12.0,,,HRV,HRV_0172,2022-11-30 18:49:41
,wl-rdm,129,457782,0.0-8.12-0.12,1.0,130.0,,,,,,,[],,,,,,56.4,0.0,u,0.0,True,1023.9000000059605,62.0,60.0,40.0,False,,244.53284787088253,[],"[683, 384]",ColorTask,81.0,13.0,,,HRV,HRV_0172,2022-11-30 18:49:41
,wl-rdm,130,459981,0.0-8.13-0.13,1.0,131.0,,,,,,,[],,,,,,87.9,1.0,i,1.0,True,854.3000000119209,52.0,60.0,40.0,False,,255.9083015401944,[],"[683, 384]",ColorTask,82.0,14.0,,,HRV,HRV_0172,2022-11-30 18:49:41
,wl-rdm,131,462298,0.0-8.14-0.14,1.0,132.0,,,,,,,[],,,,,,87.9,1.0,i,1.0,True,877.7000000178814,53.0,60.0,40.0,False,,359.53715637205596,[],"[683, 384]",ColorTask,83.0,15.0,,,HRV,HRV_0172,2022-11-30 18:49:41
,wl-rdm,132,464483,0.0-8.15-0.15,1.0,133.0,,,,,,,[],,,,,,73.6,0.0,u,0.0,True,889.8000000119209,54.0,60.0,40.0,False,,218.29590548895368,[],"[683, 384]",ColorTask,84.0,16.0,,,HRV,HRV_0172,2022-11-30 18:49:41
,wl-rdm,133,466865,0.0-8.16-0.16,1.0,134.0,,,,,,,[],,,,,,56.4,0.0,u,0.0,True,1041.0999999940395,63.0,60.0,40.0,False,,277.1797121654127,[],"[683, 384]",ColorTask,85.0,17.0,,,HRV,HRV_0172,2022-11-30 18:49:41
,wl-rdm,134,469567,0.0-8.17-0.17,1.0,135.0,,,,,,,[],,,,,,53.2,0.0,u,0.0,True,1371.199999988079,83.0,60.0,40.0,False,,258.861983179606,[],"[683, 384]",ColorTask,86.0,18.0,,,HRV,HRV_0172,2022-11-30 18:49:41
,wl-rdm,135,472233,0.0-8.18-0.18,1.0,136.0,,,,,,,[],,,,,,62.5,0.0,i,1.0,False,1264.199999988079,76.0,60.0,40.0,False,,336.4221676137779,[],"[683, 384]",ColorTask,85.0,19.0,,,HRV,HRV_0172,2022-11-30 18:49:41
,wl-rdm,136,474750,0.0-8.19-0.19,1.0,137.0,,,,,,,[],,,,,,56.4,0.0,i,1.0,False,1154.2000000178814,70.0,60.0,40.0,False,,288.70918943279355,[],"[683, 384]",ColorTask,84.0,20.0,,,HRV,HRV_0172,2022-11-30 18:49:41
,wl-rdm,137,476901,0.0-8.20-0.20,1.0,138.0,,,,,,,[],,,,,,87.9,0.0,u,0.0,True,774.5999999940395,46.0,60.0,40.0,False,,312.1071783506649,[],"[683, 384]",ColorTask,85.0,21.0,,,HRV,HRV_0172,2022-11-30 18:49:41
,wl-rdm,138,479051,0.0-8.21-0.21,1.0,139.0,,,,,,,[],,,,,,73.6,0.0,u,0.0,True,804.1999999880791,49.0,60.0,40.0,False,,250.11133859579016,[],"[683, 384]",ColorTask,86.0,22.0,,,HRV,HRV_0172,2022-11-30 18:49:41
,wl-rdm,139,482151,0.0-8.22-0.22,1.0,140.0,,,,,,,[],,,,,,50.0,1.0,u,0.0,False,1668.5999999940395,101.0,60.0,40.0,False,,363.78779147860746,[],"[683, 384]",ColorTask,85.0,23.0,,,HRV,HRV_0172,2022-11-30 18:49:41
,wl-rdm,140,484684,0.0-8.23-0.23,1.0,141.0,,,,,,,[],,,,,,62.5,1.0,i,1.0,True,1128.3999999761581,68.0,60.0,40.0,False,,345.6926060850558,[],"[683, 384]",ColorTask,86.0,24.0,,,HRV,HRV_0172,2022-11-30 18:49:41
,wl-rdm,141,487151,0.0-8.24-0.24,1.0,142.0,,,,,,,[],,,,,,73.6,1.0,i,1.0,True,1095.199999988079,66.0,60.0,40.0,False,,297.28915028607366,[],"[683, 384]",ColorTask,87.0,25.0,,,HRV,HRV_0172,2022-11-30 18:49:41
,wl-rdm,142,489501,0.0-8.25-0.25,1.0,143.0,,,,,,,[],,,,,,56.4,1.0,i,1.0,True,904.0,54.0,60.0,40.0,False,,373.67960967167517,[],"[683, 384]",ColorTask,88.0,26.0,,,HRV,HRV_0172,2022-11-30 18:49:41
,wl-rdm,143,491652,0.0-8.26-0.26,1.0,144.0,,,,,,,[],,,,,,73.6,1.0,i,1.0,True,738.0000000298023,45.0,60.0,40.0,False,,349.53130520221316,[],"[683, 384]",ColorTask,89.0,27.0,,,HRV,HRV_0172,2022-11-30 18:49:41
,wl-rdm,144,494352,0.0-8.27-0.27,1.0,145.0,,,,,,,[],,,,,,56.4,0.0,i,1.0,False,1325.0,80.0,60.0,40.0,False,,284.5355968956269,[],"[683, 384]",ColorTask,88.0,28.0,,,HRV,HRV_0172,2022-11-30 18:49:41
,wl-rdm,145,497052,0.0-8.28-0.28,1.0,146.0,,,,,,,[],,,,,,73.6,0.0,i,1.0,False,1303.0,79.0,60.0,40.0,False,,303.9459454246272,[],"[683, 384]",ColorTask,87.0,29.0,,,HRV,HRV_0172,2022-11-30 18:49:41
,wl-rdm,146,499819,0.0-8.29-0.29,1.0,147.0,,,,,,,[],,,,,,53.2,0.0,i,1.0,False,1492.3999999761581,90.0,60.0,40.0,False,,204.72751967362626,[],"[683, 384]",ColorTask,86.0,30.0,,,HRV,HRV_0172,2022-11-30 18:49:41
,wl-rdm,147,501886,0.0-8.30-0.30,1.0,148.0,,,,,,,[],,,,,,87.9,0.0,u,0.0,True,693.0999999940395,42.0,60.0,40.0,False,,284.56846449237264,[],"[683, 384]",ColorTask,87.0,31.0,,,HRV,HRV_0172,2022-11-30 18:49:41
,wl-rdm,148,504471,0.0-8.31-0.31,1.0,149.0,,,,,,,[],,,,,,73.6,1.0,i,1.0,True,1118.2000000178814,68.0,60.0,40.0,False,,396.29993612421407,[],"[683, 384]",ColorTask,88.0,32.0,,,HRV,HRV_0172,2022-11-30 18:49:41
,wl-rdm,149,506887,0.0-8.32-0.32,1.0,150.0,,,,,,,[],,,,,,56.4,0.0,u,0.0,True,997.9000000059605,60.0,60.0,40.0,False,,359.4616803203366,[],"[683, 384]",ColorTask,89.0,33.0,,,HRV,HRV_0172,2022-11-30 18:49:41
,wl-rdm,150,509237,0.0-8.33-0.33,1.0,151.0,,,,,,,[],,,,,,53.2,0.0,u,0.0,True,1018.5999999940395,62.0,60.0,40.0,False,,255.30531022236903,[],"[683, 384]",ColorTask,90.0,34.0,,,HRV,HRV_0172,2022-11-30 18:49:41
,wl-rdm,151,511838,0.0-8.34-0.34,1.0,152.0,,,,,,,[],,,,,,50.0,0.0,u,0.0,True,1307.2999999821186,79.0,60.0,40.0,False,,227.09716467990498,[],"[683, 384]",ColorTask,91.0,35.0,,,HRV,HRV_0172,2022-11-30 18:49:41
,wl-rdm,152,514388,0.0-8.35-0.35,1.0,153.0,,,,,,,[],,,,,,56.4,0.0,u,0.0,True,1162.5,70.0,60.0,40.0,False,,305.1813758032364,[],"[683, 384]",ColorTask,92.0,36.0,,,HRV,HRV_0172,2022-11-30 18:49:41
,wl-rdm,153,516655,0.0-8.36-0.36,1.0,154.0,,,,,,,[],,,,,,62.5,0.0,u,0.0,True,888.0000000298023,54.0,60.0,40.0,False,,299.27725234891943,[],"[683, 384]",ColorTask,93.0,37.0,,,HRV,HRV_0172,2022-11-30 18:49:41
,wl-rdm,154,519422,0.0-8.37-0.37,1.0,155.0,,,,,,,[],,,,,,62.5,0.0,u,0.0,True,1354.3999999761581,82.0,60.0,40.0,False,,345.67211682201673,[],"[683, 384]",ColorTask,94.0,38.0,,,HRV,HRV_0172,2022-11-30 18:49:41
,wl-rdm,155,522438,0.0-8.38-0.38,1.0,156.0,,,,,,,[],,,,,,50.0,1.0,i,1.0,True,1654.300000011921,100.0,60.0,40.0,False,,277.305517486506,[],"[683, 384]",ColorTask,95.0,39.0,,,HRV,HRV_0172,2022-11-30 18:49:41
,wl-rdm,156,525355,0.0-8.39-0.39,1.0,157.0,,,,,,,[],,,,,,50.0,1.0,u,0.0,False,1587.199999988079,96.0,60.0,40.0,False,,262.9541384116597,[],"[683, 384]",ColorTask,94.0,40.0,,,HRV,HRV_0172,2022-11-30 18:49:41
,wl-rdm,157,527772,0.0-8.40-0.40,1.0,158.0,,,,,,,[],,,,,,56.4,0.0,i,1.0,False,1010.2000000178814,61.0,60.0,40.0,False,,325.271819902722,[],"[683, 384]",ColorTask,93.0,41.0,,,HRV,HRV_0172,2022-11-30 18:49:41
,wl-rdm,158,530540,0.0-8.41-0.41,1.0,159.0,,,,,,,[],,,,,,87.9,0.0,u,0.0,True,1491.5,90.0,60.0,40.0,False,,223.35316983261345,[],"[683, 384]",ColorTask,94.0,42.0,,,HRV,HRV_0172,2022-11-30 18:49:41
,wl-rdm,159,533273,0.0-8.42-0.42,1.0,160.0,,,,,,,[],,,,,,53.2,0.0,u,0.0,True,1362.5999999940395,82.0,60.0,40.0,False,,310.0789443762062,[],"[683, 384]",ColorTask,95.0,43.0,,,HRV,HRV_0172,2022-11-30 18:49:41
,wl-rdm,160,536057,0.0-8.43-0.43,1.0,161.0,,,,,,,[],,,,,,50.0,0.0,i,1.0,False,1499.800000011921,90.0,60.0,40.0,False,,228.9665409264722,[],"[683, 384]",ColorTask,94.0,44.0,,,HRV,HRV_0172,2022-11-30 18:49:41
,wl-rdm,161,538556,0.0-8.44-0.44,1.0,162.0,,,,,,,[],,,,,,56.4,1.0,i,1.0,True,1209.300000011921,73.0,60.0,40.0,False,,212.0491667189276,[],"[683, 384]",ColorTask,95.0,45.0,,,HRV,HRV_0172,2022-11-30 18:49:41
,wl-rdm,162,540825,0.0-8.45-0.45,1.0,163.0,,,,,,,[],,,,,,56.4,1.0,i,1.0,True,959.5,58.0,60.0,40.0,False,,239.86342808352973,[],"[683, 384]",ColorTask,96.0,46.0,,,HRV,HRV_0172,2022-11-30 18:49:41
,wl-rdm,163,543541,0.0-8.46-0.46,1.0,164.0,,,,,,,[],,,,,,62.5,0.0,u,0.0,True,1345.5,81.0,60.0,40.0,False,,288.7975087073362,[],"[683, 384]",ColorTask,97.0,47.0,,,HRV,HRV_0172,2022-11-30 18:49:41
,wl-rdm,164,546091,0.0-8.47-0.47,1.0,165.0,,,,,,,[],,,,,,87.9,1.0,i,1.0,True,1156.7000000178814,70.0,60.0,40.0,False,,331.08522053694696,[],"[683, 384]",ColorTask,98.0,48.0,,,HRV,HRV_0172,2022-11-30 18:49:41
,wl-rdm,165,548958,0.0-8.48-0.48,1.0,166.0,,,,,,,[],,,,,,53.2,1.0,u,0.0,False,1480.5999999940395,89.0,60.0,40.0,False,,300.22028671336886,[],"[683, 384]",ColorTask,97.0,49.0,,,HRV,HRV_0172,2022-11-30 18:49:41
,wl-rdm,166,551010,0.0-8.49-0.49,1.0,167.0,,,,,,,[],,,,,,87.9,0.0,u,0.0,True,738.0,45.0,60.0,40.0,False,,221.91106867190487,[],"[683, 384]",ColorTask,98.0,50.0,,,HRV,HRV_0172,2022-11-30 18:49:41
,wl-rdm,167,553892,0.0-8.50-0.50,1.0,168.0,,,,,,,[],,,,,,62.5,0.0,u,0.0,True,1546.1000000238419,93.0,60.0,40.0,False,,264.267243952042,[],"[683, 384]",ColorTask,99.0,51.0,,,HRV,HRV_0172,2022-11-30 18:49:41
,wl-rdm,168,555859,0.0-8.51-0.51,1.0,169.0,,,,,,,[],,,,,,73.6,0.0,u,0.0,True,654.5999999940395,40.0,60.0,40.0,False,,222.70439752259924,[],"[683, 384]",ColorTask,100.0,52.0,,,HRV,HRV_0172,2022-11-30 18:49:41
,wl-rdm,169,556926,0.0-8.52-0.52,1.0,169.0,,,,,,,[],,,,,,87.9,0.0,u,,,157.5,0.0,60.0,40.0,True,too_early ,224.0744994458495,[],"[683, 384]",ColorTask,99.0,53.0,,,HRV,HRV_0172,2022-11-30 18:49:41
,wl-rdm,170,559726,0.0-8.53-0.53,1.0,170.0,,,,,,,[],,,,,,62.5,1.0,u,0.0,False,1486.2000000178814,90.0,60.0,40.0,False,,241.06718116170032,[],"[683, 384]",ColorTask,98.0,54.0,,,HRV,HRV_0172,2022-11-30 18:49:41
,wl-rdm,171,561977,0.0-8.54-0.54,1.0,171.0,,,,,,,[],,,,,,73.6,0.0,u,0.0,True,887.2999999821186,54.0,60.0,40.0,False,,294.9340298182663,[],"[683, 384]",ColorTask,99.0,55.0,,,HRV,HRV_0172,2022-11-30 18:49:41
,wl-rdm,172,564743,0.0-8.55-0.55,1.0,172.0,,,,,,,[],,,,,,73.6,0.0,u,0.0,True,1300.199999988079,78.0,60.0,40.0,False,,398.8772945480269,[],"[683, 384]",ColorTask,100.0,56.0,,,HRV,HRV_0172,2022-11-30 18:49:41
,wl-rdm,173,567360,0.0-8.56-0.56,1.0,173.0,,,,,,,[],,,,,,53.2,0.0,u,0.0,True,1277.0999999940395,77.0,60.0,40.0,False,,256.9756998962877,[],"[683, 384]",ColorTask,101.0,57.0,,,HRV,HRV_0172,2022-11-30 18:49:41
,wl-rdm,174,570294,0.0-8.57-0.57,1.0,174.0,,,,,,,[],,,,,,56.4,1.0,i,1.0,True,1527.6000000238419,92.0,60.0,40.0,False,,321.2939469572797,[],"[683, 384]",ColorTask,102.0,58.0,,,HRV,HRV_0172,2022-11-30 18:49:41
,wl-rdm,175,572728,0.0-8.58-0.58,1.0,175.0,,,,,,,[],,,,,,53.2,1.0,i,1.0,True,1094.3999999761581,66.0,60.0,40.0,False,,270.6801968431303,[],"[683, 384]",ColorTask,103.0,59.0,,,HRV,HRV_0172,2022-11-30 18:49:41
,wl-rdm,176,575111,0.0-8.59-0.59,1.0,176.0,,,,,,,[],,,,,,73.6,1.0,i,1.0,True,927.2999999821186,56.0,60.0,40.0,False,,370.3506766843659,[],"[683, 384]",ColorTask,104.0,60.0,,,HRV,HRV_0172,2022-11-30 18:49:41
,wl-rdm,177,577579,0.0-8.60-0.60,1.0,177.0,,,,,,,[],,,,,,50.0,1.0,i,1.0,True,1154.0,70.0,60.0,40.0,False,,229.890273754666,[],"[683, 384]",ColorTask,105.0,61.0,,,HRV,HRV_0172,2022-11-30 18:49:41
,wl-rdm,178,580328,0.0-8.61-0.61,1.0,178.0,,,,,,,[],,,,,,50.0,1.0,i,1.0,True,1404.0,85.0,60.0,40.0,False,,270.80622895191374,[],"[683, 384]",ColorTask,106.0,62.0,,,HRV,HRV_0172,2022-11-30 18:49:41
,wl-rdm,179,582579,0.0-8.62-0.62,1.0,179.0,,,,,,,[],,,,,,53.2,0.0,u,0.0,True,884.0999999940395,53.0,60.0,40.0,False,,296.0702224658363,[],"[683, 384]",ColorTask,107.0,63.0,,,HRV,HRV_0172,2022-11-30 18:49:41
,wl-rdm,180,585297,0.0-8.63-0.63,1.0,180.0,,,,,,,[],,,,,,50.0,0.0,u,0.0,True,1389.699999988079,84.0,60.0,40.0,False,,240.66240011751657,[],"[683, 384]",ColorTask,108.0,64.0,,,HRV,HRV_0172,2022-11-30 18:49:41
,wl-rdm,181,587645,0.0-8.64-0.64,1.0,181.0,,,,,,,[],,,,,,62.5,1.0,i,1.0,True,1002.7000000178814,61.0,60.0,40.0,False,,259.8688795874101,[],"[683, 384]",ColorTask,109.0,65.0,,,HRV,HRV_0172,2022-11-30 18:49:41
,wl-rdm,182,590147,0.0-8.65-0.65,1.0,182.0,,,,,,,[],,,,,,50.0,1.0,i,1.0,True,1187.2000000178814,72.0,60.0,40.0,False,,228.70207513195808,[],"[683, 384]",ColorTask,110.0,66.0,,,HRV,HRV_0172,2022-11-30 18:49:41
,wl-rdm,183,592647,0.0-8.66-0.66,1.0,183.0,,,,,,,[],,,,,,62.5,1.0,i,1.0,True,1044.5999999940395,63.0,60.0,40.0,False,,393.52173328195,[],"[683, 384]",ColorTask,111.0,67.0,,,HRV,HRV_0172,2022-11-30 18:49:41
,wl-rdm,184,594981,0.0-8.67-0.67,1.0,184.0,,,,,,,[],,,,,,62.5,0.0,i,1.0,False,954.8000000119209,58.0,60.0,40.0,False,,286.9812002714703,[],"[683, 384]",ColorTask,110.0,68.0,,,HRV,HRV_0172,2022-11-30 18:49:41
,wl-rdm,185,599047,0.0-8.68-0.68,1.0,185.0,,,,,,,[],,,,,,53.2,1.0,i,1.0,True,2793.899999976158,168.0,60.0,40.0,False,,211.59506252255906,[],"[683, 384]",ColorTask,111.0,69.0,,,HRV,HRV_0172,2022-11-30 18:49:41
,wl-rdm,186,601098,0.0-8.69-0.69,1.0,186.0,,,,,,,[],,,,,,87.9,1.0,i,1.0,True,711.1999999880791,43.0,60.0,40.0,False,,264.4796689163531,[],"[683, 384]",ColorTask,112.0,70.0,,,HRV,HRV_0172,2022-11-30 18:49:41
,wl-rdm,187,603815,0.0-8.70-0.70,1.0,187.0,,,,,,,[],,,,,,56.4,1.0,i,1.0,True,1259.3999999761581,76.0,60.0,40.0,False,,384.9032661842866,[],"[683, 384]",ColorTask,113.0,71.0,,,HRV,HRV_0172,2022-11-30 18:49:41
,wl-rdm,188,606482,0.0-8.71-0.71,1.0,188.0,,,,,,,[],,,,,,50.0,1.0,i,1.0,True,1252.0,75.0,60.0,40.0,False,,345.7150288239543,[],"[683, 384]",ColorTask,114.0,72.0,,,HRV,HRV_0172,2022-11-30 18:49:41
,wl-rdm,189,608981,0.0-8.72-0.72,1.0,189.0,,,,,,,[],,,,,,62.5,0.0,u,0.0,True,1200.5,72.0,60.0,40.0,False,,216.93021107984055,[],"[683, 384]",ColorTask,115.0,73.0,,,HRV,HRV_0172,2022-11-30 18:49:41
,wl-rdm,190,611816,0.0-8.73-0.73,1.0,190.0,,,,,,,[],,,,,,50.0,0.0,u,0.0,True,1445.4000000059605,87.0,60.0,40.0,False,,299.9432986693172,[],"[683, 384]",ColorTask,116.0,74.0,,,HRV,HRV_0172,2022-11-30 18:49:41
,wl-rdm,191,614516,0.0-8.74-0.74,1.0,191.0,,,,,,,[],,,,,,56.4,1.0,i,1.0,True,1326.0999999940395,80.0,60.0,40.0,False,,285.0026155996133,[],"[683, 384]",ColorTask,117.0,75.0,,,HRV,HRV_0172,2022-11-30 18:49:41
,wl-rdm,192,617816,0.0-8.75-0.75,1.0,192.0,,,,,,,[],,,,,,53.2,1.0,i,1.0,True,1847.0999999642372,111.0,60.0,40.0,False,,382.72531795377387,[],"[683, 384]",ColorTask,118.0,76.0,,,HRV,HRV_0172,2022-11-30 18:49:41
,wl-rdm,193,620034,0.0-8.76-0.76,1.0,193.0,,,,,,,[],,,,,,87.9,1.0,i,1.0,True,920.8000000119209,56.0,60.0,40.0,False,,230.60082813815183,[],"[683, 384]",ColorTask,119.0,77.0,,,HRV,HRV_0172,2022-11-30 18:49:41
,wl-rdm,194,622434,0.0-8.77-0.77,1.0,194.0,,,,,,,[],,,,,,73.6,0.0,u,0.0,True,1052.5,64.0,60.0,40.0,False,,283.44166685179556,[],"[683, 384]",ColorTask,120.0,78.0,,,HRV,HRV_0172,2022-11-30 18:49:41
,wl-rdm,195,625318,0.0-8.78-0.78,1.0,195.0,,,,,,,[],,,,,,53.2,1.0,i,1.0,True,1611.5,97.0,60.0,40.0,False,,201.79070066259138,[],"[683, 384]",ColorTask,121.0,79.0,,,HRV,HRV_0172,2022-11-30 18:49:41
,wl-rdm,196,628501,0.0-8.79-0.79,1.0,196.0,,,,,,,[],,,,,,62.5,0.0,u,0.0,True,1875.2999999821186,113.0,60.0,40.0,False,,227.95754497998894,[],"[683, 384]",ColorTask,122.0,80.0,,,HRV,HRV_0172,2022-11-30 18:49:41
,wl-rdm,197,631001,0.0-8.80-0.80,1.0,197.0,,,,,,,[],,,,,,73.6,1.0,i,1.0,True,1048.4000000059605,63.0,60.0,40.0,False,,374.5152710347485,[],"[683, 384]",ColorTask,123.0,81.0,,,HRV,HRV_0172,2022-11-30 18:49:41
,wl-rdm,198,633668,0.0-8.81-0.81,1.0,198.0,,,,,,,[],,,,,,62.5,1.0,i,1.0,True,1369.7999999821186,83.0,60.0,40.0,False,,233.38929885712386,[],"[683, 384]",ColorTask,124.0,82.0,,,HRV,HRV_0172,2022-11-30 18:49:41
,wl-rdm,199,635951,0.0-8.82-0.82,1.0,199.0,,,,,,,[],,,,,,53.2,1.0,i,1.0,True,914.3000000119209,55.0,60.0,40.0,False,,305.446348921397,[],"[683, 384]",ColorTask,125.0,83.0,,,HRV,HRV_0172,2022-11-30 18:49:41
,wl-rdm,200,638135,0.0-8.83-0.83,1.0,200.0,,,,,,,[],,,,,,87.9,0.0,u,0.0,True,819.7999999821186,50.0,60.0,40.0,False,,273.7217352865432,[],"[683, 384]",ColorTask,126.0,84.0,,,HRV,HRV_0172,2022-11-30 18:49:41
,wl-rdm,201,640686,0.0-8.84-0.84,1.0,201.0,,,,,,,[],,,,,,56.4,1.0,i,1.0,True,1139.9000000059605,69.0,60.0,40.0,False,,336.83829221880046,[],"[683, 384]",ColorTask,127.0,85.0,,,HRV,HRV_0172,2022-11-30 18:49:41
,wl-rdm,202,643485,0.0-8.85-0.85,1.0,202.0,,,,,,,[],,,,,,56.4,0.0,i,1.0,False,1480.9000000059605,89.0,60.0,40.0,False,,250.10069238048058,[],"[683, 384]",ColorTask,126.0,86.0,,,HRV,HRV_0172,2022-11-30 18:49:41
,wl-rdm,203,646070,0.0-8.86-0.86,1.0,203.0,,,,,,,[],,,,,,50.0,1.0,i,1.0,True,1295.2000000178814,78.0,60.0,40.0,False,,227.2846160175068,[],"[683, 384]",ColorTask,127.0,87.0,,,HRV,HRV_0172,2022-11-30 18:49:41
,wl-rdm,204,648120,0.0-8.87-0.87,1.0,204.0,,,,,,,[],,,,,,73.6,1.0,i,1.0,True,739.9000000059605,45.0,60.0,40.0,False,,263.4887712980998,[],"[683, 384]",ColorTask,128.0,88.0,,,HRV,HRV_0172,2022-11-30 18:49:41
,wl-rdm,205,650903,0.0-8.88-0.88,1.0,205.0,,,,,,,[],,,,,,50.0,0.0,i,1.0,False,1384.5999999940395,84.0,60.0,40.0,False,,300.5178195683762,[],"[683, 384]",ColorTask,127.0,89.0,,,HRV,HRV_0172,2022-11-30 18:49:41
,wl-rdm,206,653003,0.0-8.89-0.89,1.0,206.0,,,,,,,[],,,,,,87.9,1.0,i,1.0,True,706.1999999880791,43.0,60.0,40.0,False,,306.7687238697205,[],"[683, 384]",ColorTask,128.0,90.0,,,HRV,HRV_0172,2022-11-30 18:49:41
,wl-rdm,207,656019,0.0-8.90-0.90,1.0,207.0,,,,,,,[],,,,,,53.2,0.0,u,0.0,True,1663.5999999940395,100.0,60.0,40.0,False,,272.4333093503483,[],"[683, 384]",ColorTask,129.0,91.0,,,HRV,HRV_0172,2022-11-30 18:49:41
,wl-rdm,208,658192,0.0-8.91-0.91,1.0,208.0,,,,,,,[],,,,,,87.9,0.0,u,0.0,True,820.5,50.0,60.0,40.0,False,,259.8119685587258,[],"[683, 384]",ColorTask,130.0,92.0,,,HRV,HRV_0172,2022-11-30 18:49:41
,wl-rdm,209,660337,0.0-8.92-0.92,1.0,209.0,,,,,,,[],,,,,,87.9,0.0,u,0.0,True,745.0,45.0,60.0,40.0,False,,326.985615801534,[],"[683, 384]",ColorTask,131.0,93.0,,,HRV,HRV_0172,2022-11-30 18:49:41
,wl-rdm,210,662387,0.0-8.93-0.93,1.0,210.0,,,,,,,[],,,,,,53.2,1.0,i,1.0,True,737.6000000238419,45.0,60.0,40.0,False,,223.44278115817502,[],"[683, 384]",ColorTask,132.0,94.0,,,HRV,HRV_0172,2022-11-30 18:49:41
,wl-rdm,211,664771,0.0-8.94-0.94,1.0,211.0,,,,,,,[],,,,,,87.9,0.0,u,0.0,True,977.0,59.0,60.0,40.0,False,,320.7402819931486,[],"[683, 384]",ColorTask,133.0,95.0,,,HRV,HRV_0172,2022-11-30 18:49:41
,wl-rdm,212,667188,0.0-8.95-0.95,1.0,212.0,,,,,,,[],,,,,,62.5,1.0,i,1.0,True,1001.5,60.0,60.0,40.0,False,,348.02086591898495,[],"[683, 384]",ColorTask,134.0,96.0,,,HRV,HRV_0172,2022-11-30 18:49:41
,wl-rdm,213,669772,0.0-8.96-0.96,1.0,213.0,,,,,,,[],,,,,,62.5,1.0,i,1.0,True,1297.7000000178814,78.0,60.0,40.0,False,,203.81999833828874,[],"[683, 384]",ColorTask,135.0,97.0,,,HRV,HRV_0172,2022-11-30 18:49:41
,wl-rdm,214,671822,0.0-8.97-0.97,1.0,214.0,,,,,,,[],,,,,,87.9,1.0,i,1.0,True,703.8000000119209,43.0,60.0,40.0,False,,266.22493828449626,[],"[683, 384]",ColorTask,136.0,98.0,,,HRV,HRV_0172,2022-11-30 18:49:41
,wl-rdm,215,675056,0.0-8.98-0.98,1.0,215.0,,,,,,,[],,,,,,53.2,0.0,i,1.0,False,1839.7999999821186,111.0,60.0,40.0,False,,322.7586117731286,[],"[683, 384]",ColorTask,135.0,99.0,,,HRV,HRV_0172,2022-11-30 18:49:41
,wl-rdm,216,677356,0.0-8.99-0.99,1.0,216.0,,,,,,,[],,,,,,62.5,1.0,i,1.0,True,864.7999999821186,52.0,60.0,40.0,False,,356.36325769147084,[],"[683, 384]",ColorTask,136.0,100.0,,,HRV,HRV_0172,2022-11-30 18:49:41
,wl-rdm,217,680572,0.0-8.100-0.100,1.0,217.0,,,,,,,[],,,,,,56.4,0.0,i,1.0,False,1765.7000000178814,106.0,60.0,40.0,False,,393.25507539983766,[],"[683, 384]",ColorTask,135.0,101.0,,,HRV,HRV_0172,2022-11-30 18:49:41
,wl-rdm,218,682673,0.0-8.101-0.101,1.0,218.0,,,,,,,[],,,,,,87.9,1.0,i,1.0,True,714.7999999821186,43.0,60.0,40.0,False,,328.2371759465457,[],"[683, 384]",ColorTask,136.0,102.0,,,HRV,HRV_0172,2022-11-30 18:49:41
,wl-rdm,219,685007,0.0-8.102-0.102,1.0,219.0,,,,,,,[],,,,,,50.0,0.0,i,1.0,False,1052.0,64.0,60.0,40.0,False,,202.4891349102631,[],"[683, 384]",ColorTask,135.0,103.0,,,HRV,HRV_0172,2022-11-30 18:49:41
,wl-rdm,220,687073,0.0-8.103-0.103,1.0,220.0,,,,,,,[],,,,,,56.4,1.0,i,1.0,True,730.9000000059605,44.0,60.0,40.0,False,,267.18781523389356,[],"[683, 384]",ColorTask,136.0,104.0,,,HRV,HRV_0172,2022-11-30 18:49:41
,wl-rdm,221,689341,0.0-8.104-0.104,1.0,221.0,,,,,,,[],,,,,,87.9,1.0,i,1.0,True,853.5,52.0,60.0,40.0,False,,318.67217785053737,[],"[683, 384]",ColorTask,137.0,105.0,,,HRV,HRV_0172,2022-11-30 18:49:41
,wl-rdm,222,691692,0.0-8.105-0.105,1.0,222.0,,,,,,,[],,,,,,53.2,1.0,i,1.0,True,1037.2000000178814,63.0,60.0,40.0,False,,237.41738283551547,[],"[683, 384]",ColorTask,138.0,106.0,,,HRV,HRV_0172,2022-11-30 18:49:41
,wl-rdm,223,694673,0.0-8.106-0.106,1.0,223.0,,,,,,,[],,,,,,56.4,1.0,i,1.0,True,1503.5999999940395,91.0,60.0,40.0,False,,387.198727770815,[],"[683, 384]",ColorTask,139.0,107.0,,,HRV,HRV_0172,2022-11-30 18:49:41
,wl-rdm,224,696807,0.0-8.107-0.107,1.0,224.0,,,,,,,[],,,,,,87.9,0.0,u,0.0,True,787.7999999821186,48.0,60.0,40.0,False,,268.6937372367155,[],"[683, 384]",ColorTask,140.0,108.0,,,HRV,HRV_0172,2022-11-30 18:49:41
,wl-rdm,225,699693,0.0-8.108-0.108,1.0,225.0,,,,,,,[],,,,,,53.2,0.0,u,0.0,True,1505.199999988079,91.0,60.0,40.0,False,,285.0690367503165,[],"[683, 384]",ColorTask,141.0,109.0,,,HRV,HRV_0172,2022-11-30 18:49:41
,wl-html-button-response,226,701842,0.0-9.0-0.0,,,,,,,,,,2140.9000000059605,,0,,,,,,,,,,,,,,,,,,,,<h3>End of this session. Thank you!</h3><br>,['Close window'],HRV,HRV_0172,2022-11-30 18:49:41
