success,trial_type,trial_index,time_elapsed,internal_node_id,Block,TrialNumber,TrialTime,trialTimeDiff,FPS_avg,FPS_med,FPS_mode,TrialDur,winResizeTime,rt,block,button_pressed,MotCoh,MotDir,ColCoh,Color,ChoiceKey,Choice,Accuracy,RT,nFrames,FPS,PPD,missTrial,missTrialMsg,onsetDelay,fullScreenExitTime,canvCenter,TrialType,Score,BlockTrial,stimulus,button_labels,exp,subjectId,date
True,fullscreen,0,2476,0.0-0.0,0.0,1.0,,,,,,,,,,,,,,,,,,,,,,,,,,,,,,,,HRV,HRV_0039,2022-11-30 18:06:59
,wl-check-fps,1,7496,0.0-1.0,0.0,2.0,"[2752.7, 2769.6, 2786.5, 2802.5, 2819.5, 2836.6, 2852.6, 2869.5, 2886.5, 2902.4, 2919.7, 2936.8, 2952.5, 2969.6, 2986.5, 3003.5, 3019.5, 3036.5, 3053.5, 3069.5, 3086.6, 3103.4, 3119.4, 3136.4, 3153.5, 3169.4, 3186.4, 3203.4, 3219.4, 3236.4, 3253.5, 3269.5, 3286.4, 3303.5, 3319.4, 3336.4, 3353.4, 3370.4, 3386.4, 3403.5, 3420.7, 3436.5, 3453.5, 3470.6, 3486.5, 3503.5, 3520.5, 3536.4, 3553.5, 3571.4, 3586.5, 3604.3, 3620.3, 3637.3, 3653.4, 3670.3, 3687.4, 3703.3, 3720.3, 3737.3, 3754.3, 3770.4, 3787.5, 3804.3, 3820.3, 3837.5, 3854.4, 3870.4, 3887.4, 3903.4, 3920.4, 3937.4, 3953.3, 3970.3, 3987.3, 4004.3, 4020.3, 4037.3, 4054.3, 4070.3, 4087.3, 4104.4, 4120.6, 4137.4, 4154.3, 4170.3, 4188.4, 4204.4, 4220.4, 4237.3, 4254.4, 4270.5, 4287.4, 4304.4, 4320.4, 4337.4, 4354.4, 4371.4, 4387.5, 4404.4, 4421.8, 4437.5, 4454.5, 4471.4, 4487.5, 4504.5, 4521.4, 4537.5, 4554.5, 4571.6, 4587.4, 4604.5, 4621.5, 4637.5, 4654.5, 4671.4, 4688.5, 4704.4, 4721.4, 4738.4, 4754.3, 4771.4, 4788.3, 4804.3, 4821.3, 4838.3, 4854.3, 4871.4, 4888.3, 4904.3, 4921.4, 4938.5, 4955.4, 4971.3, 4988.4, 5005.4, 5021.3, 5038.3, 5055.4, 5071.4, 5088.5, 5105.4, 5121.3, 5138.4, 5155.4, 5171.5, 5188.5, 5205.4, 5221.4, 5238.3, 5255.4, 5271.3, 5288.3, 5306.3, 5322.3, 5338.3, 5355.3, 5372.3, 5388.4, 5406.3, 5422.6, 5438.4, 5455.3, 5472.3, 5488.3, 5505.3, 5522.3, 5538.3, 5555.4, 5572.3, 5588.3, 5605.4, 5622.3, 5638.5, 5655.4, 5672.3, 5689.4, 5705.5, 5722.3, 5739.4, 5755.4, 5772.5, 5789.4, 5806.3, 5822.3, 5839.3, 5855.4, 5872.4, 5889.4, 5906.3, 5922.4, 5939.4, 5955.3, 5972.4, 5989.4, 6006.4, 6022.4, 6039.4, 6056.4, 6072.3, 6089.3, 6106.4, 6122.4, 6139.4, 6156.4, 6172.4, 6189.4, 6206.4, 6222.4, 6239.4, 6256.4, 6272.4, 6289.5, 6306.4, 6322.7, 6339.5, 6356.5, 6372.5, 6389.5, 6406.3, 6423.6, 6439.3, 6456.4, 6473.4, 6489.3, 6506.3, 6523.3, 6539.3, 6556.4, 6574.4, 6589.4, 6607.3, 6623.3, 6639.6, 6656.3, 6673.4, 6690.3, 6707.3, 6723.3, 6740.3, 6756.2, 6773.4, 6790.3, 6806.4, 6823.4, 6840.3, 6856.3, 6873.3, 6890.3, 6906.4, 6923.4, 6940.3, 6957.4, 6973.4, 6990.4, 7007.3, 7023.4, 7040.4, 7057.4, 7073.4, 7090.4, 7107.4, 7123.4, 7140.4, 7157.4, 7173.4, 7190.4, 7207.4, 7223.4, 7240.4, 7257.4, 7273.5, 7290.4, 7307.4, 7323.4, 7340.4, 7357.4, 7374.5, 7390.4, 7408.4, 7424.7, 7440.4, 7457.5, 7474.5, 7490.4, 7507.4, 7524.4, 7540.5, 7557.5, 7574.5, 7590.6, 7607.6, 7624.5, 7640.6, 7657.5, 7674.5, 7690.5, 7707.6, 7724.5, 7741.5]","[14.2, 16.9, 16.9, 16, 17, 17.1, 16, 16.9, 17, 15.9, 17.3, 17.1, 15.7, 17.1, 16.9, 17, 16, 17, 17, 16, 17.1, 16.8, 16, 17, 17.1, 15.9, 17, 17, 16, 17, 17.1, 16, 16.9, 17.1, 15.9, 17, 17, 17, 16, 17.1, 17.2, 15.8, 17, 17.1, 15.9, 17, 17, 15.9, 17.1, 17.9, 15.1, 17.8, 16, 17, 16.1, 16.9, 17.1, 15.9, 17, 17, 17, 16.1, 17.1, 16.8, 16, 17.2, 16.9, 16, 17, 16, 17, 17, 15.9, 17, 17, 17, 16, 17, 17, 16, 17, 17.1, 16.2, 16.8, 16.9, 16, 18.1, 16, 16, 16.9, 17.1, 16.1, 16.9, 17, 16, 17, 17, 17, 16.1, 16.9, 17.4, 15.7, 17, 16.9, 16.1, 17, 16.9, 16.1, 17, 17.1, 15.8, 17.1, 17, 16, 17, 16.9, 17.1, 15.9, 17, 17, 15.9, 17.1, 16.9, 16, 17, 17, 16, 17.1, 16.9, 16, 17.1, 17.1, 16.9, 15.9, 17.1, 17, 15.9, 17, 17.1, 16, 17.1, 16.9, 15.9, 17.1, 17, 16.1, 17, 16.9, 16, 16.9, 17.1, 15.9, 17, 18, 16, 16, 17, 17, 16.1, 17.9, 16.3, 15.8, 16.9, 17, 16, 17, 17, 16, 17.1, 16.9, 16, 17.1, 16.9, 16.2, 16.9, 16.9, 17.1, 16.1, 16.8, 17.1, 16, 17.1, 16.9, 16.9, 16, 17, 16.1, 17, 17, 16.9, 16.1, 17, 15.9, 17.1, 17, 17, 16, 17, 17, 15.9, 17, 17.1, 16, 17, 17, 16, 17, 17, 16, 17, 17, 16, 17.1, 16.9, 16.3, 16.8, 17, 16, 17, 16.8, 17.3, 15.7, 17.1, 17, 15.9, 17, 17, 16, 17.1, 18, 15, 17.9, 16, 16.3, 16.7, 17.1, 16.9, 17, 16, 17, 15.9, 17.2, 16.9, 16.1, 17, 16.9, 16, 17, 17, 16.1, 17, 16.9, 17.1, 16, 17, 16.9, 16.1, 17, 17, 16, 17, 17, 16, 17, 17, 16, 17, 17, 16, 17, 17, 16.1, 16.9, 17, 16, 17, 17, 17.1, 15.9, 18, 16.3, 15.7, 17.1, 17, 15.9, 17, 17, 16.1, 17, 17, 16.1, 17, 16.9, 16.1, 16.9, 17, 16, 17.1, 16.9, 17]",60.0,59.0,59.0,5019.0,[],,,,,,,,,,,,,,,,,,,,,,,,,HRV,HRV_0039,2022-11-30 18:06:59
,wl-html-keyboard-response,2,24584,0.0-2.0-0.0,0.0,3.0,,,,,,,,15076.5,0.0,0,,,,,,,,,,,,,,,,,,,,,,HRV,HRV_0039,2022-11-30 18:06:59
,wl-rdm,3,31170,0.0-3.0-0.0,0.0,4.0,,,,,,,[],,,,0.0,0.0,87.9,0.0,u,0.0,True,1032.7000000029802,62.0,59.0,40.0,False,,3000.0,[],"[960, 540]",ColorTask_Demo,,,,,HRV,HRV_0039,2022-11-30 18:06:59
,wl-rdm,4,35708,0.0-3.0-1.0,0.0,5.0,,,,,,,[],,,,0.0,0.0,87.9,1.0,i,1.0,True,472.4000000022352,29.0,59.0,40.0,False,,2000.0,[],"[960, 540]",ColorTask_Demo,,,,,HRV,HRV_0039,2022-11-30 18:06:59
,wl-html-keyboard-response,5,46266,0.0-3.0-2.0,0.0,6.0,,,,,,,,8550.5,0.0,1,,,,,,,,,,,,,,,,,,,,,,HRV,HRV_0039,2022-11-30 18:06:59
,wl-html-keyboard-response,6,56442,0.0-4.0-0.0,0.0,7.0,,,,,,,,8168.0,0.0,0,,,,,,,,,,,,,,,,,,,,,,HRV,HRV_0039,2022-11-30 18:06:59
,wl-html-keyboard-response,7,91847,0.0-5.0-0.0,0.0,8.0,,,,,,,,33385.39999999851,0.0,0,,,,,,,,,,,,,,,,,,,,,,HRV,HRV_0039,2022-11-30 18:06:59
,wl-rdm,8,94350,0.0-6.0-0.0,0.0,9.0,,,,,,,[],,,,,,53.2,0.0,i,1.0,False,1055.4000000022352,64.0,59.0,40.0,False,,377.73972024612567,[],"[960, 540]",ColorTask,-1.0,1.0,,,HRV,HRV_0039,2022-11-30 18:06:59
,wl-rdm,9,96619,0.0-6.1-0.1,0.0,10.0,,,,,,,[],,,,,,73.6,1.0,i,1.0,True,955.5,58.0,59.0,40.0,False,,220.54969707964608,[],"[960, 540]",ColorTask,0.0,2.0,,,HRV,HRV_0039,2022-11-30 18:06:59
,wl-rdm,10,98871,0.0-6.2-0.2,0.0,11.0,,,,,,,[],,,,,,73.6,1.0,i,1.0,True,948.3000000007451,57.0,59.0,40.0,False,,244.03057239950144,[],"[960, 540]",ColorTask,1.0,3.0,,,HRV,HRV_0039,2022-11-30 18:06:59
,wl-rdm,11,100706,0.0-6.3-0.3,0.0,12.0,,,,,,,[],,,,,,87.9,0.0,u,0.0,True,525.3000000007451,32.0,59.0,40.0,False,,237.18587296836915,[],"[960, 540]",ColorTask,2.0,4.0,,,HRV,HRV_0039,2022-11-30 18:06:59
,wl-rdm,12,103025,0.0-6.4-0.4,0.0,13.0,,,,,,,[],,,,,,56.4,1.0,u,0.0,False,916.1000000014901,55.0,59.0,40.0,False,,335.1299337362336,[],"[960, 540]",ColorTask,1.0,5.0,,,HRV,HRV_0039,2022-11-30 18:06:59
,wl-rdm,13,105411,0.0-6.5-0.5,0.0,14.0,,,,,,,[],,,,,,73.6,1.0,i,1.0,True,991.4999999962747,60.0,59.0,40.0,False,,309.1799569478751,[],"[960, 540]",ColorTask,2.0,6.0,,,HRV,HRV_0039,2022-11-30 18:06:59
,wl-rdm,14,107763,0.0-6.6-0.6,0.0,15.0,,,,,,,[],,,,,,50.0,0.0,i,1.0,False,1031.699999999255,62.0,59.0,40.0,False,,248.17390704643864,[],"[960, 540]",ColorTask,1.0,7.0,,,HRV,HRV_0039,2022-11-30 18:06:59
,wl-rdm,15,109965,0.0-6.7-0.7,0.0,16.0,,,,,,,[],,,,,,62.5,1.0,u,0.0,False,765.1999999992549,46.0,59.0,40.0,False,,371.5523812733108,[],"[960, 540]",ColorTask,0.0,8.0,,,HRV,HRV_0039,2022-11-30 18:06:59
,wl-rdm,16,111967,0.0-6.8-0.8,0.0,17.0,,,,,,,[],,,,,,56.4,0.0,i,1.0,False,721.5,44.0,59.0,40.0,False,,216.77461296537444,[],"[960, 540]",ColorTask,-1.0,9.0,,,HRV,HRV_0039,2022-11-30 18:06:59
,wl-rdm,17,114102,0.0-6.9-0.9,0.0,18.0,,,,,,,[],,,,,,73.6,0.0,u,0.0,True,749.1999999955297,45.0,59.0,40.0,False,,333.4462379462184,[],"[960, 540]",ColorTask,0.0,10.0,,,HRV,HRV_0039,2022-11-30 18:06:59
,wl-rdm,18,116322,0.0-6.10-0.10,0.0,19.0,,,,,,,[],,,,,,87.9,1.0,i,1.0,True,890.6999999992549,54.0,59.0,40.0,False,,252.1915962665595,[],"[960, 540]",ColorTask,1.0,11.0,,,HRV,HRV_0039,2022-11-30 18:06:59
,wl-rdm,19,118341,0.0-6.11-0.11,0.0,20.0,,,,,,,[],,,,,,53.2,1.0,u,0.0,False,608.8999999985099,37.0,59.0,40.0,False,,337.4818396107206,[],"[960, 540]",ColorTask,0.0,12.0,,,HRV,HRV_0039,2022-11-30 18:06:59
,wl-rdm,20,122729,0.0-6.12-0.12,0.0,21.0,,,,,,,[],,,,,,73.6,0.0,u,0.0,True,2956.199999999255,176.0,59.0,40.0,False,,362.4542810295221,[],"[960, 540]",ColorTask,1.0,13.0,,,HRV,HRV_0039,2022-11-30 18:06:59
,wl-rdm,21,125748,0.0-6.13-0.13,0.0,22.0,,,,,,,[],,,,,,62.5,0.0,u,0.0,True,1695.3999999947846,102.0,59.0,40.0,False,,256.80123580129094,[],"[960, 540]",ColorTask,2.0,14.0,,,HRV,HRV_0039,2022-11-30 18:06:59
,wl-rdm,22,128517,0.0-6.14-0.14,0.0,23.0,,,,,,,[],,,,,,56.4,1.0,i,1.0,True,1417.5,85.0,59.0,40.0,False,,287.6528357765132,[],"[960, 540]",ColorTask,3.0,15.0,,,HRV,HRV_0039,2022-11-30 18:06:59
,wl-rdm,23,131537,0.0-6.15-0.15,0.0,24.0,,,,,,,[],,,,,,53.2,1.0,i,1.0,True,1690.800000000745,102.0,59.0,40.0,False,,254.31521099348072,[],"[960, 540]",ColorTask,4.0,16.0,,,HRV,HRV_0039,2022-11-30 18:06:59
,wl-rdm,24,134373,0.0-6.16-0.16,0.0,25.0,,,,,,,[],,,,,,53.2,1.0,i,1.0,True,1440.7999999970198,87.0,59.0,40.0,False,,318.3092575369204,[],"[960, 540]",ColorTask,5.0,17.0,,,HRV,HRV_0039,2022-11-30 18:06:59
,wl-rdm,25,137442,0.0-6.17-0.17,0.0,26.0,,,,,,,[],,,,,,62.5,0.0,i,1.0,False,1667.199999999255,100.0,59.0,40.0,False,,343.758562624628,[],"[960, 540]",ColorTask,4.0,18.0,,,HRV,HRV_0039,2022-11-30 18:06:59
,wl-rdm,26,139628,0.0-6.18-0.18,0.0,27.0,,,,,,,[],,,,,,87.9,1.0,u,0.0,False,738.6999999992549,45.0,59.0,40.0,False,,369.7057748713341,[],"[960, 540]",ColorTask,3.0,19.0,,,HRV,HRV_0039,2022-11-30 18:06:59
,wl-rdm,27,141997,0.0-6.19-0.19,0.0,28.0,,,,,,,[],,,,,,62.5,1.0,i,1.0,True,1026.9000000022352,62.0,59.0,40.0,False,,252.59410951941848,[],"[960, 540]",ColorTask,4.0,20.0,,,HRV,HRV_0039,2022-11-30 18:06:59
,wl-rdm,28,145984,0.0-6.20-0.20,0.0,29.0,,,,,,,[],,,,,,62.5,1.0,i,1.0,True,2634.89999999851,158.0,59.0,40.0,False,,286.05824303027754,[],"[960, 540]",ColorTask,5.0,21.0,,,HRV,HRV_0039,2022-11-30 18:06:59
,wl-rdm,29,148954,0.0-6.21-0.21,0.0,30.0,,,,,,,[],,,,,,62.5,0.0,u,0.0,True,1556.699999999255,94.0,59.0,40.0,False,,339.50722062103443,[],"[960, 540]",ColorTask,6.0,22.0,,,HRV,HRV_0039,2022-11-30 18:06:59
,wl-rdm,30,151423,0.0-6.22-0.22,0.0,31.0,,,,,,,[],,,,,,87.9,1.0,i,1.0,True,1007.6999999992549,61.0,59.0,40.0,False,,390.3906357770558,[],"[960, 540]",ColorTask,7.0,23.0,,,HRV,HRV_0039,2022-11-30 18:06:59
,wl-rdm,31,153892,0.0-6.23-0.23,0.0,32.0,,,,,,,[],,,,,,87.9,0.0,u,0.0,True,1007.5,61.0,59.0,40.0,False,,396.84663228661293,[],"[960, 540]",ColorTask,8.0,24.0,,,HRV,HRV_0039,2022-11-30 18:06:59
,wl-rdm,32,157012,0.0-6.24-0.24,0.0,33.0,,,,,,,[],,,,,,56.4,1.0,i,1.0,True,1746.8999999985099,105.0,59.0,40.0,False,,306.7909339895606,[],"[960, 540]",ColorTask,9.0,25.0,,,HRV,HRV_0039,2022-11-30 18:06:59
,wl-rdm,33,160266,0.0-6.25-0.25,0.0,34.0,,,,,,,[],,,,,,53.2,0.0,i,1.0,False,1839.0,111.0,59.0,40.0,False,,336.03883600305267,[],"[960, 540]",ColorTask,8.0,26.0,,,HRV,HRV_0039,2022-11-30 18:06:59
,wl-rdm,34,163803,0.0-6.26-0.26,0.0,35.0,,,,,,,[],,,,,,50.0,0.0,u,0.0,True,2239.5,135.0,59.0,40.0,False,,229.3791915217185,[],"[960, 540]",ColorTask,9.0,27.0,,,HRV,HRV_0039,2022-11-30 18:06:59
,wl-rdm,35,166705,0.0-6.27-0.27,0.0,36.0,,,,,,,[],,,,,,73.6,0.0,u,0.0,True,1605.0999999977648,97.0,59.0,40.0,False,,221.31934151366173,[],"[960, 540]",ColorTask,10.0,28.0,,,HRV,HRV_0039,2022-11-30 18:06:59
,wl-rdm,36,170226,0.0-6.28-0.28,0.0,37.0,,,,,,,[],,,,,,56.4,1.0,i,1.0,True,2230.2999999970198,134.0,59.0,40.0,False,,211.77828787312393,[],"[960, 540]",ColorTask,11.0,29.0,,,HRV,HRV_0039,2022-11-30 18:06:59
,wl-rdm,37,173012,0.0-6.29-0.29,0.0,38.0,,,,,,,[],,,,,,73.6,1.0,i,1.0,True,1342.7999999970198,81.0,59.0,40.0,False,,369.1611407243578,[],"[960, 540]",ColorTask,12.0,30.0,,,HRV,HRV_0039,2022-11-30 18:06:59
,wl-rdm,38,175380,0.0-6.30-0.30,0.0,39.0,,,,,,,[],,,,,,87.9,0.0,u,0.0,True,1093.800000000745,66.0,59.0,40.0,False,,215.62280437266594,[],"[960, 540]",ColorTask,13.0,31.0,,,HRV,HRV_0039,2022-11-30 18:06:59
,wl-rdm,39,178267,0.0-6.31-0.31,0.0,40.0,,,,,,,[],,,,,,53.2,0.0,i,1.0,False,1605.199999999255,97.0,59.0,40.0,False,,213.4241822961908,[],"[960, 540]",ColorTask,12.0,32.0,,,HRV,HRV_0039,2022-11-30 18:06:59
,wl-rdm,40,180669,0.0-6.32-0.32,0.0,41.0,,,,,,,[],,,,,,87.9,1.0,i,1.0,True,973.3999999985099,59.0,59.0,40.0,False,,351.01063729600367,[],"[960, 540]",ColorTask,13.0,33.0,,,HRV,HRV_0039,2022-11-30 18:06:59
,wl-rdm,41,185140,0.0-6.33-0.33,0.0,41.0,,,,,,,[],,,,,,53.2,1.0,,,,,176.0,59.0,40.0,True,RT_timeout ,386.03270679418017,[],"[960, 540]",ColorTask,12.0,34.0,,,HRV,HRV_0039,2022-11-30 18:06:59
,wl-rdm,42,186208,0.0-6.34-0.34,0.0,41.0,,,,,,,[],,,,,,56.4,1.0,i,,,8.5,0.0,59.0,40.0,True,too_early ,224.65846868834274,[],"[960, 540]",ColorTask,11.0,35.0,,,HRV,HRV_0039,2022-11-30 18:06:59
,wl-rdm,43,189762,0.0-6.35-0.35,0.0,42.0,,,,,,,[],,,,,,73.6,0.0,i,1.0,False,2105.599999997765,127.0,59.0,40.0,False,,371.4436948226171,[],"[960, 540]",ColorTask,10.0,36.0,,,HRV,HRV_0039,2022-11-30 18:06:59
,wl-rdm,44,192364,0.0-6.36-0.36,0.0,43.0,,,,,,,[],,,,,,62.5,1.0,i,1.0,True,1247.699999999255,75.0,59.0,40.0,False,,298.19701016881766,[],"[960, 540]",ColorTask,11.0,37.0,,,HRV,HRV_0039,2022-11-30 18:06:59
,wl-rdm,45,195233,0.0-6.37-0.37,0.0,44.0,,,,,,,[],,,,,,56.4,0.0,u,0.0,True,1549.2999999970198,93.0,59.0,40.0,False,,267.09495876345204,[],"[960, 540]",ColorTask,12.0,38.0,,,HRV,HRV_0039,2022-11-30 18:06:59
,wl-rdm,46,197669,0.0-6.38-0.38,0.0,45.0,,,,,,,[],,,,,,87.9,1.0,i,1.0,True,1075.6000000014901,65.0,59.0,40.0,False,,293.8636669090658,[],"[960, 540]",ColorTask,13.0,39.0,,,HRV,HRV_0039,2022-11-30 18:06:59
,wl-rdm,47,201239,0.0-6.39-0.39,0.0,46.0,,,,,,,[],,,,,,53.2,0.0,i,1.0,False,2298.199999999255,138.0,59.0,40.0,False,,203.5608076663553,[],"[960, 540]",ColorTask,12.0,40.0,,,HRV,HRV_0039,2022-11-30 18:06:59
,wl-rdm,48,204559,0.0-6.40-0.40,0.0,47.0,,,,,,,[],,,,,,56.4,0.0,i,1.0,False,1989.699999999255,120.0,59.0,40.0,False,,237.12212398415937,[],"[960, 540]",ColorTask,11.0,41.0,,,HRV,HRV_0039,2022-11-30 18:06:59
,wl-rdm,49,206879,0.0-6.41-0.41,0.0,48.0,,,,,,,[],,,,,,87.9,1.0,i,1.0,True,953.1000000014901,58.0,59.0,40.0,False,,301.5093275175727,[],"[960, 540]",ColorTask,12.0,42.0,,,HRV,HRV_0039,2022-11-30 18:06:59
,wl-rdm,50,210232,0.0-6.42-0.42,0.0,49.0,,,,,,,[],,,,,,56.4,1.0,i,1.0,True,1910.3999999985099,115.0,59.0,40.0,False,,373.8822694409427,[],"[960, 540]",ColorTask,13.0,43.0,,,HRV,HRV_0039,2022-11-30 18:06:59
,wl-rdm,51,212634,0.0-6.43-0.43,0.0,50.0,,,,,,,[],,,,,,73.6,0.0,u,0.0,True,991.5999999977648,60.0,59.0,40.0,False,,335.5080238126998,[],"[960, 540]",ColorTask,14.0,44.0,,,HRV,HRV_0039,2022-11-30 18:06:59
,wl-rdm,52,215220,0.0-6.44-0.44,0.0,51.0,,,,,,,[],,,,,,56.4,0.0,i,1.0,False,1215.300000000745,73.0,59.0,40.0,False,,286.44223106991666,[],"[960, 540]",ColorTask,13.0,45.0,,,HRV,HRV_0039,2022-11-30 18:06:59
,wl-rdm,53,217455,0.0-6.45-0.45,0.0,52.0,,,,,,,[],,,,,,87.9,0.0,u,0.0,True,908.4000000022352,55.0,59.0,40.0,False,,264.1335385556111,[],"[960, 540]",ColorTask,14.0,46.0,,,HRV,HRV_0039,2022-11-30 18:06:59
,wl-rdm,54,219874,0.0-6.46-0.46,0.0,53.0,,,,,,,[],,,,,,56.4,0.0,i,1.0,False,1021.5999999977648,62.0,59.0,40.0,False,,323.44528619877104,[],"[960, 540]",ColorTask,13.0,47.0,,,HRV,HRV_0039,2022-11-30 18:06:59
,wl-rdm,55,222494,0.0-6.47-0.47,0.0,54.0,,,,,,,[],,,,,,53.2,0.0,i,1.0,False,1258.699999999255,76.0,59.0,40.0,False,,285.38014816607824,[],"[960, 540]",ColorTask,12.0,48.0,,,HRV,HRV_0039,2022-11-30 18:06:59
,wl-rdm,56,226097,0.0-6.48-0.48,0.0,55.0,,,,,,,[],,,,,,62.5,1.0,i,1.0,True,2226.7000000029802,134.0,59.0,40.0,False,,310.45445588162147,[],"[960, 540]",ColorTask,13.0,49.0,,,HRV,HRV_0039,2022-11-30 18:06:59
,wl-rdm,57,229817,0.0-6.49-0.49,0.0,56.0,,,,,,,[],,,,,,53.2,1.0,u,0.0,False,2417.199999999255,145.0,59.0,40.0,False,,241.3786623869592,[],"[960, 540]",ColorTask,12.0,50.0,,,HRV,HRV_0039,2022-11-30 18:06:59
,wl-rdm,58,232720,0.0-6.50-0.50,0.0,57.0,,,,,,,[],,,,,,73.6,0.0,u,0.0,True,1580.199999999255,95.0,59.0,40.0,False,,257.74049850037056,[],"[960, 540]",ColorTask,13.0,51.0,,,HRV,HRV_0039,2022-11-30 18:06:59
,wl-rdm,59,235757,0.0-6.51-0.51,0.0,58.0,,,,,,,[],,,,,,62.5,0.0,u,0.0,True,1688.5999999977648,102.0,59.0,40.0,False,,278.51524170885784,[],"[960, 540]",ColorTask,14.0,52.0,,,HRV,HRV_0039,2022-11-30 18:06:59
,wl-rdm,60,238977,0.0-6.52-0.52,0.0,59.0,,,,,,,[],,,,,,50.0,1.0,u,0.0,False,1881.5999999977648,113.0,59.0,40.0,False,,267.12018708744165,[],"[960, 540]",ColorTask,13.0,53.0,,,HRV,HRV_0039,2022-11-30 18:06:59
,wl-rdm,61,241162,0.0-6.53-0.53,0.0,60.0,,,,,,,[],,,,,,87.9,1.0,i,1.0,True,848.8000000007451,51.0,59.0,40.0,False,,279.0425766369276,[],"[960, 540]",ColorTask,14.0,54.0,,,HRV,HRV_0039,2022-11-30 18:06:59
,wl-rdm,62,243565,0.0-6.54-0.54,0.0,61.0,,,,,,,[],,,,,,87.9,0.0,u,0.0,True,1060.300000000745,64.0,59.0,40.0,False,,268.5631708343706,[],"[960, 540]",ColorTask,15.0,55.0,,,HRV,HRV_0039,2022-11-30 18:06:59
,wl-rdm,63,246719,0.0-6.55-0.55,0.0,62.0,,,,,,,[],,,,,,56.4,1.0,i,1.0,True,1839.7999999970198,111.0,59.0,40.0,False,,239.65707573270703,[],"[960, 540]",ColorTask,16.0,56.0,,,HRV,HRV_0039,2022-11-30 18:06:59
,wl-rdm,64,250088,0.0-6.56-0.56,0.0,63.0,,,,,,,[],,,,,,56.4,0.0,i,1.0,False,2042.5,123.0,59.0,40.0,False,,251.14757413767535,[],"[960, 540]",ColorTask,15.0,57.0,,,HRV,HRV_0039,2022-11-30 18:06:59
,wl-rdm,65,252590,0.0-6.57-0.57,0.0,64.0,,,,,,,[],,,,,,50.0,1.0,i,1.0,True,1230.699999999255,74.0,59.0,40.0,False,,213.00500466770362,[],"[960, 540]",ColorTask,16.0,58.0,,,HRV,HRV_0039,2022-11-30 18:06:59
,wl-rdm,66,255577,0.0-6.58-0.58,0.0,65.0,,,,,,,[],,,,,,50.0,0.0,i,1.0,False,1718.0999999977648,103.0,59.0,40.0,False,,213.41756785103644,[],"[960, 540]",ColorTask,15.0,59.0,,,HRV,HRV_0039,2022-11-30 18:06:59
,wl-rdm,67,258563,0.0-6.59-0.59,0.0,66.0,,,,,,,[],,,,,,53.2,1.0,u,0.0,False,1542.1000000014901,93.0,59.0,40.0,False,,367.6870186126895,[],"[960, 540]",ColorTask,14.0,60.0,,,HRV,HRV_0039,2022-11-30 18:06:59
,wl-rdm,68,261933,0.0-6.60-0.60,0.0,67.0,,,,,,,[],,,,,,50.0,0.0,i,1.0,False,1962.6000000014901,118.0,59.0,40.0,False,,338.88386491779784,[],"[960, 540]",ColorTask,13.0,61.0,,,HRV,HRV_0039,2022-11-30 18:06:59
,wl-rdm,69,264336,0.0-6.61-0.61,0.0,68.0,,,,,,,[],,,,,,87.9,0.0,u,0.0,True,1105.5,67.0,59.0,40.0,False,,218.30884652300364,[],"[960, 540]",ColorTask,14.0,62.0,,,HRV,HRV_0039,2022-11-30 18:06:59
,wl-rdm,70,266655,0.0-6.62-0.62,0.0,69.0,,,,,,,[],,,,,,87.9,0.0,u,0.0,True,855.5,52.0,59.0,40.0,False,,385.89294296336936,[],"[960, 540]",ColorTask,15.0,63.0,,,HRV,HRV_0039,2022-11-30 18:06:59
,wl-rdm,71,269240,0.0-6.63-0.63,0.0,70.0,,,,,,,[],,,,,,62.5,0.0,u,0.0,True,1307.8999999985099,79.0,59.0,40.0,False,,216.24440866661521,[],"[960, 540]",ColorTask,16.0,64.0,,,HRV,HRV_0039,2022-11-30 18:06:59
,wl-rdm,72,271927,0.0-6.64-0.64,0.0,71.0,,,,,,,[],,,,,,56.4,1.0,i,1.0,True,1255.800000000745,76.0,59.0,40.0,False,,344.6083098119498,[],"[960, 540]",ColorTask,17.0,65.0,,,HRV,HRV_0039,2022-11-30 18:06:59
,wl-rdm,73,275563,0.0-6.65-0.65,0.0,72.0,,,,,,,[],,,,,,50.0,1.0,i,1.0,True,2241.800000000745,135.0,59.0,40.0,False,,321.24434383392463,[],"[960, 540]",ColorTask,18.0,66.0,,,HRV,HRV_0039,2022-11-30 18:06:59
,wl-rdm,74,278650,0.0-6.66-0.66,0.0,73.0,,,,,,,[],,,,,,73.6,1.0,i,1.0,True,1793.7999999970198,108.0,59.0,40.0,False,,214.65438129367965,[],"[960, 540]",ColorTask,19.0,67.0,,,HRV,HRV_0039,2022-11-30 18:06:59
,wl-rdm,75,282103,0.0-6.67-0.67,0.0,74.0,,,,,,,[],,,,,,73.6,0.0,u,0.0,True,2168.199999999255,130.0,59.0,40.0,False,,216.13593551948412,[],"[960, 540]",ColorTask,20.0,68.0,,,HRV,HRV_0039,2022-11-30 18:06:59
,wl-rdm,76,285373,0.0-6.68-0.68,0.0,75.0,,,,,,,[],,,,,,56.4,0.0,u,0.0,True,1980.3999999985099,119.0,59.0,40.0,False,,204.47173718580973,[],"[960, 540]",ColorTask,21.0,69.0,,,HRV,HRV_0039,2022-11-30 18:06:59
,wl-rdm,77,288960,0.0-6.69-0.69,0.0,76.0,,,,,,,[],,,,,,50.0,1.0,u,0.0,False,2155.8000000044703,130.0,59.0,40.0,False,,359.71431820106784,[],"[960, 540]",ColorTask,20.0,70.0,,,HRV,HRV_0039,2022-11-30 18:06:59
,wl-rdm,78,291896,0.0-6.70-0.70,0.0,77.0,,,,,,,[],,,,,,62.5,0.0,u,0.0,True,1500.7000000029802,90.0,59.0,40.0,False,,358.2019710453427,[],"[960, 540]",ColorTask,21.0,71.0,,,HRV,HRV_0039,2022-11-30 18:06:59
,wl-rdm,79,296000,0.0-6.71-0.71,0.0,78.0,,,,,,,[],,,,,,56.4,0.0,u,0.0,True,2743.599999997765,165.0,59.0,40.0,False,,296.8441384863537,[],"[960, 540]",ColorTask,22.0,72.0,,,HRV,HRV_0039,2022-11-30 18:06:59
,wl-rdm,80,299186,0.0-6.72-0.72,0.0,79.0,,,,,,,[],,,,,,50.0,0.0,i,1.0,False,1846.800000000745,111.0,59.0,40.0,False,,278.03271085268307,[],"[960, 540]",ColorTask,21.0,73.0,,,HRV,HRV_0039,2022-11-30 18:06:59
,wl-rdm,81,302423,0.0-6.73-0.73,0.0,80.0,,,,,,,[],,,,,,53.2,1.0,u,0.0,False,1945.4999999962747,117.0,59.0,40.0,False,,213.49538417994833,[],"[960, 540]",ColorTask,20.0,74.0,,,HRV,HRV_0039,2022-11-30 18:06:59
,wl-rdm,82,305943,0.0-6.74-0.74,0.0,81.0,,,,,,,[],,,,,,56.4,1.0,i,1.0,True,2173.2999999970198,131.0,59.0,40.0,False,,270.6207378160115,[],"[960, 540]",ColorTask,21.0,75.0,,,HRV,HRV_0039,2022-11-30 18:06:59
,wl-rdm,83,309046,0.0-6.75-0.75,0.0,82.0,,,,,,,[],,,,,,62.5,1.0,i,1.0,True,1806.199999999255,109.0,59.0,40.0,False,,227.86278234772968,[],"[960, 540]",ColorTask,22.0,76.0,,,HRV,HRV_0039,2022-11-30 18:06:59
,wl-rdm,84,312267,0.0-6.76-0.76,0.0,83.0,,,,,,,[],,,,,,53.2,1.0,i,1.0,True,1791.0,108.0,59.0,40.0,False,,357.36626450270535,[],"[960, 540]",ColorTask,23.0,77.0,,,HRV,HRV_0039,2022-11-30 18:06:59
,wl-rdm,85,315103,0.0-6.77-0.77,0.0,84.0,,,,,,,[],,,,,,53.2,0.0,i,1.0,False,1522.6000000014901,92.0,59.0,40.0,False,,244.11145784134803,[],"[960, 540]",ColorTask,22.0,78.0,,,HRV,HRV_0039,2022-11-30 18:06:59
,wl-rdm,86,317305,0.0-6.78-0.78,0.0,85.0,,,,,,,[],,,,,,73.6,0.0,u,0.0,True,888.5999999977648,54.0,59.0,40.0,False,,239.7810355607271,[],"[960, 540]",ColorTask,23.0,79.0,,,HRV,HRV_0039,2022-11-30 18:06:59
,wl-rdm,87,320124,0.0-6.79-0.79,0.0,86.0,,,,,,,[],,,,,,50.0,0.0,u,0.0,True,1544.699999999255,93.0,59.0,40.0,False,,217.05117064471744,[],"[960, 540]",ColorTask,24.0,80.0,,,HRV,HRV_0039,2022-11-30 18:06:59
,wl-rdm,88,322743,0.0-6.80-0.80,0.0,87.0,,,,,,,[],,,,,,53.2,1.0,u,0.0,False,1346.2000000029802,81.0,59.0,40.0,False,,212.5283024715531,[],"[960, 540]",ColorTask,23.0,81.0,,,HRV,HRV_0039,2022-11-30 18:06:59
,wl-rdm,89,326497,0.0-6.81-0.81,0.0,88.0,,,,,,,[],,,,,,73.6,1.0,i,1.0,True,2275.900000002235,137.0,59.0,40.0,False,,391.52319037611517,[],"[960, 540]",ColorTask,24.0,82.0,,,HRV,HRV_0039,2022-11-30 18:06:59
,wl-rdm,90,328934,0.0-6.82-0.82,0.0,89.0,,,,,,,[],,,,,,87.9,1.0,i,1.0,True,1090.3999999985099,66.0,59.0,40.0,False,,269.3861405056613,[],"[960, 540]",ColorTask,25.0,83.0,,,HRV,HRV_0039,2022-11-30 18:06:59
,wl-rdm,91,332136,0.0-6.83-0.83,0.0,90.0,,,,,,,[],,,,,,62.5,1.0,i,1.0,True,1856.800000000745,112.0,59.0,40.0,False,,273.1939659970676,[],"[960, 540]",ColorTask,26.0,84.0,,,HRV,HRV_0039,2022-11-30 18:06:59
,wl-rdm,92,334705,0.0-6.84-0.84,0.0,91.0,,,,,,,[],,,,,,62.5,0.0,u,0.0,True,1274.1999999955297,77.0,59.0,40.0,False,,220.57336577442248,[],"[960, 540]",ColorTask,27.0,85.0,,,HRV,HRV_0039,2022-11-30 18:06:59
,wl-rdm,93,337141,0.0-6.85-0.85,0.0,92.0,,,,,,,[],,,,,,73.6,1.0,i,1.0,True,1121.5,68.0,59.0,40.0,False,,243.6400936672823,[],"[960, 540]",ColorTask,28.0,86.0,,,HRV,HRV_0039,2022-11-30 18:06:59
,wl-rdm,94,340027,0.0-6.86-0.86,0.0,93.0,,,,,,,[],,,,,,53.2,0.0,i,1.0,False,1606.0999999977648,97.0,59.0,40.0,False,,211.41844393515666,[],"[960, 540]",ColorTask,27.0,87.0,,,HRV,HRV_0039,2022-11-30 18:06:59
,wl-rdm,95,343781,0.0-6.87-0.87,0.0,94.0,,,,,,,[],,,,,,53.2,0.0,u,0.0,True,2323.300000000745,140.0,59.0,40.0,False,,359.0257236484979,[],"[960, 540]",ColorTask,28.0,88.0,,,HRV,HRV_0039,2022-11-30 18:06:59
,wl-rdm,96,347201,0.0-6.88-0.88,0.0,95.0,,,,,,,[],,,,,,56.4,1.0,i,1.0,True,2097.300000000745,126.0,59.0,40.0,False,,255.1648579678473,[],"[960, 540]",ColorTask,29.0,89.0,,,HRV,HRV_0039,2022-11-30 18:06:59
,wl-rdm,97,350338,0.0-6.89-0.89,0.0,96.0,,,,,,,[],,,,,,62.5,1.0,i,1.0,True,1744.699999999255,105.0,59.0,40.0,False,,331.22184536063116,[],"[960, 540]",ColorTask,30.0,90.0,,,HRV,HRV_0039,2022-11-30 18:06:59
,wl-rdm,98,353691,0.0-6.90-0.90,0.0,97.0,,,,,,,[],,,,,,73.6,1.0,i,1.0,True,2050.400000002235,123.0,59.0,40.0,False,,224.57238639371388,[],"[960, 540]",ColorTask,31.0,91.0,,,HRV,HRV_0039,2022-11-30 18:06:59
,wl-rdm,99,357244,0.0-6.91-0.91,0.0,98.0,,,,,,,[],,,,,,50.0,1.0,u,0.0,False,2264.699999999255,136.0,59.0,40.0,False,,223.0429143797862,[],"[960, 540]",ColorTask,30.0,92.0,,,HRV,HRV_0039,2022-11-30 18:06:59
,wl-rdm,100,359563,0.0-6.92-0.92,0.0,99.0,,,,,,,[],,,,,,73.6,0.0,u,0.0,True,1031.5,62.0,59.0,40.0,False,,224.84072905010578,[],"[960, 540]",ColorTask,31.0,93.0,,,HRV,HRV_0039,2022-11-30 18:06:59
,wl-rdm,101,362716,0.0-6.93-0.93,0.0,100.0,,,,,,,[],,,,,,50.0,0.0,i,1.0,False,1749.1000000014901,105.0,59.0,40.0,False,,337.5138959943402,[],"[960, 540]",ColorTask,30.0,94.0,,,HRV,HRV_0039,2022-11-30 18:06:59
,wl-rdm,102,366570,0.0-6.94-0.94,0.0,101.0,,,,,,,[],,,,,,50.0,1.0,i,1.0,True,2543.099999997765,153.0,59.0,40.0,False,,233.5865685504689,[],"[960, 540]",ColorTask,31.0,95.0,,,HRV,HRV_0039,2022-11-30 18:06:59
,wl-rdm,103,369925,0.0-6.95-0.95,0.0,102.0,,,,,,,[],,,,,,50.0,0.0,u,0.0,True,1905.5,115.0,59.0,40.0,False,,376.80008100533473,[],"[960, 540]",ColorTask,32.0,96.0,,,HRV,HRV_0039,2022-11-30 18:06:59
,wl-rdm,104,374395,0.0-6.96-0.96,0.0,102.0,,,,,,,[],,,,,,50.0,0.0,,,,,176.0,59.0,40.0,True,RT_timeout ,398.2790994818852,[],"[960, 540]",ColorTask,31.0,97.0,,,HRV,HRV_0039,2022-11-30 18:06:59
,wl-rdm,105,376631,0.0-6.97-0.97,0.0,103.0,,,,,,,[],,,,,,62.5,0.0,u,0.0,True,754.8999999985099,46.0,59.0,40.0,False,,388.65618449222006,[],"[960, 540]",ColorTask,32.0,98.0,,,HRV,HRV_0039,2022-11-30 18:06:59
,wl-rdm,106,379500,0.0-6.98-0.98,0.0,104.0,,,,,,,[],,,,,,50.0,1.0,i,1.0,True,1482.699999999255,89.0,59.0,40.0,False,,332.3831300692592,[],"[960, 540]",ColorTask,33.0,99.0,,,HRV,HRV_0039,2022-11-30 18:06:59
,wl-rdm,107,382153,0.0-6.99-0.99,0.0,105.0,,,,,,,[],,,,,,53.2,0.0,u,0.0,True,1291.300000000745,78.0,59.0,40.0,False,,284.45340247689046,[],"[960, 540]",ColorTask,34.0,100.0,,,HRV,HRV_0039,2022-11-30 18:06:59
,wl-rdm,108,385341,0.0-6.100-0.100,0.0,106.0,,,,,,,[],,,,,,50.0,1.0,u,0.0,False,1816.9000000022352,109.0,59.0,40.0,False,,312.24407573558085,[],"[960, 540]",ColorTask,33.0,101.0,,,HRV,HRV_0039,2022-11-30 18:06:59
,wl-rdm,109,388327,0.0-6.101-0.101,0.0,107.0,,,,,,,[],,,,,,62.5,1.0,i,1.0,True,1674.199999999255,101.0,59.0,40.0,False,,242.5453594140086,[],"[960, 540]",ColorTask,34.0,102.0,,,HRV,HRV_0039,2022-11-30 18:06:59
,wl-rdm,110,391263,0.0-6.102-0.102,0.0,108.0,,,,,,,[],,,,,,73.6,1.0,i,1.0,True,1540.5999999977648,93.0,59.0,40.0,False,,329.2309366575411,[],"[960, 540]",ColorTask,35.0,103.0,,,HRV,HRV_0039,2022-11-30 18:06:59
,wl-rdm,111,393464,0.0-6.103-0.103,0.0,109.0,,,,,,,[],,,,,,87.9,1.0,i,1.0,True,921.1999999955297,56.0,59.0,40.0,False,,216.90155980841453,[],"[960, 540]",ColorTask,36.0,104.0,,,HRV,HRV_0039,2022-11-30 18:06:59
,wl-rdm,112,395883,0.0-6.104-0.104,0.0,110.0,,,,,,,[],,,,,,87.9,0.0,u,0.0,True,1021.0999999977648,62.0,59.0,40.0,False,,348.2037347519824,[],"[960, 540]",ColorTask,37.0,105.0,,,HRV,HRV_0039,2022-11-30 18:06:59
,wl-rdm,113,399286,0.0-6.105-0.105,0.0,111.0,,,,,,,[],,,,,,50.0,1.0,i,1.0,True,2105.60000000149,127.0,59.0,40.0,False,,212.56807558518526,[],"[960, 540]",ColorTask,38.0,106.0,,,HRV,HRV_0039,2022-11-30 18:06:59
,wl-rdm,114,401722,0.0-6.106-0.106,0.0,112.0,,,,,,,[],,,,,,62.5,0.0,u,0.0,True,1072.0,65.0,59.0,40.0,False,,300.12481540876877,[],"[960, 540]",ColorTask,39.0,107.0,,,HRV,HRV_0039,2022-11-30 18:06:59
,wl-rdm,115,404375,0.0-6.107-0.107,0.0,113.0,,,,,,,[],,,,,,53.2,1.0,i,1.0,True,1228.300000000745,74.0,59.0,40.0,False,,364.2455522614323,[],"[960, 540]",ColorTask,40.0,108.0,,,HRV,HRV_0039,2022-11-30 18:06:59
,wl-rdm,116,407011,0.0-6.108-0.108,0.0,114.0,,,,,,,[],,,,,,56.4,0.0,u,0.0,True,1230.1000000014901,74.0,59.0,40.0,False,,333.5678292619141,[],"[960, 540]",ColorTask,41.0,109.0,,,HRV,HRV_0039,2022-11-30 18:06:59
,wl-rdm,117,410265,0.0-6.109-0.109,0.0,115.0,,,,,,,[],,,,,,50.0,0.0,u,0.0,True,1972.8999999985099,119.0,59.0,40.0,False,,203.2220514649371,[],"[960, 540]",ColorTask,42.0,110.0,,,HRV,HRV_0039,2022-11-30 18:06:59
,wl-rdm,118,412550,0.0-6.110-0.110,0.0,116.0,,,,,,,[],,,,,,87.9,0.0,u,0.0,True,962.9000000022352,58.0,59.0,40.0,False,,260.7827402351003,[],"[960, 540]",ColorTask,43.0,111.0,,,HRV,HRV_0039,2022-11-30 18:06:59
,wl-html-keyboard-response,119,434798,0.0-7.0-0.0,1.0,117.0,,,,,,,,20236.199999999255,1.0,0,,,,,,,,,,,,,,,,,,,,,,HRV,HRV_0039,2022-11-30 18:06:59
,wl-rdm,120,438276,0.0-8.0-0.0,1.0,118.0,,,,,,,[],,,,,,53.2,0.0,u,0.0,True,2208.5,133.0,59.0,40.0,False,,214.2654817306348,[],"[960, 540]",ColorTask,44.0,1.0,,,HRV,HRV_0039,2022-11-30 18:06:59
,wl-rdm,121,441596,0.0-8.1-0.1,1.0,119.0,,,,,,,[],,,,,,53.2,0.0,i,1.0,False,2046.5,123.0,59.0,40.0,False,,211.67237027330245,[],"[960, 540]",ColorTask,43.0,2.0,,,HRV,HRV_0039,2022-11-30 18:06:59
,wl-rdm,122,444799,0.0-8.2-0.2,1.0,120.0,,,,,,,[],,,,,,53.2,0.0,u,0.0,True,1906.6000000014901,115.0,59.0,40.0,False,,232.6992549936771,[],"[960, 540]",ColorTask,44.0,3.0,,,HRV,HRV_0039,2022-11-30 18:06:59
,wl-rdm,123,448119,0.0-8.3-0.3,1.0,121.0,,,,,,,[],,,,,,53.2,1.0,i,1.0,True,1976.300000000745,119.0,59.0,40.0,False,,281.72223145968195,[],"[960, 540]",ColorTask,45.0,4.0,,,HRV,HRV_0039,2022-11-30 18:06:59
,wl-rdm,124,450387,0.0-8.4-0.4,1.0,122.0,,,,,,,[],,,,,,73.6,1.0,i,1.0,True,964.4000000022352,58.0,59.0,40.0,False,,242.4237014032957,[],"[960, 540]",ColorTask,46.0,5.0,,,HRV,HRV_0039,2022-11-30 18:06:59
,wl-rdm,125,453440,0.0-8.5-0.5,1.0,123.0,,,,,,,[],,,,,,62.5,0.0,u,0.0,True,1741.7000000029802,105.0,59.0,40.0,False,,240.05321131325027,[],"[960, 540]",ColorTask,47.0,6.0,,,HRV,HRV_0039,2022-11-30 18:06:59
,wl-rdm,126,456243,0.0-8.6-0.6,1.0,124.0,,,,,,,[],,,,,,53.2,0.0,u,0.0,True,1398.9000000022352,84.0,59.0,40.0,False,,339.22584694277293,[],"[960, 540]",ColorTask,48.0,7.0,,,HRV,HRV_0039,2022-11-30 18:06:59
,wl-rdm,127,459013,0.0-8.7-0.7,1.0,125.0,,,,,,,[],,,,,,62.5,0.0,u,0.0,True,1450.800000000745,87.0,59.0,40.0,False,,252.47116828567567,[],"[960, 540]",ColorTask,49.0,8.0,,,HRV,HRV_0039,2022-11-30 18:06:59
,wl-rdm,128,461832,0.0-8.8-0.8,1.0,126.0,,,,,,,[],,,,,,62.5,0.0,u,0.0,True,1531.2000000029802,92.0,59.0,40.0,False,,221.972796368471,[],"[960, 540]",ColorTask,50.0,9.0,,,HRV,HRV_0039,2022-11-30 18:06:59
,wl-rdm,129,464585,0.0-8.9-0.9,1.0,127.0,,,,,,,[],,,,,,56.4,0.0,u,0.0,True,1379.5999999977648,83.0,59.0,40.0,False,,302.44047077789276,[],"[960, 540]",ColorTask,51.0,10.0,,,HRV,HRV_0039,2022-11-30 18:06:59
,wl-rdm,130,466937,0.0-8.10-0.10,1.0,128.0,,,,,,,[],,,,,,87.9,0.0,u,0.0,True,1041.3999999985099,63.0,59.0,40.0,False,,247.75046471100725,[],"[960, 540]",ColorTask,52.0,11.0,,,HRV,HRV_0039,2022-11-30 18:06:59
,wl-rdm,131,469707,0.0-8.11-0.11,1.0,129.0,,,,,,,[],,,,,,56.4,0.0,u,0.0,True,1324.699999999255,80.0,59.0,40.0,False,,376.1728301577629,[],"[960, 540]",ColorTask,53.0,12.0,,,HRV,HRV_0039,2022-11-30 18:06:59
,wl-rdm,132,472276,0.0-8.12-0.12,1.0,130.0,,,,,,,[],,,,,,87.9,0.0,u,0.0,True,1172.5999999977648,71.0,59.0,40.0,False,,321.9227076094615,[],"[960, 540]",ColorTask,54.0,13.0,,,HRV,HRV_0039,2022-11-30 18:06:59
,wl-rdm,133,474661,0.0-8.13-0.13,1.0,131.0,,,,,,,[],,,,,,73.6,1.0,i,1.0,True,1026.4000000022352,62.0,59.0,40.0,False,,299.6633342933236,[],"[960, 540]",ColorTask,55.0,14.0,,,HRV,HRV_0039,2022-11-30 18:06:59
,wl-rdm,134,477030,0.0-8.14-0.14,1.0,132.0,,,,,,,[],,,,,,73.6,1.0,i,1.0,True,1039.300000000745,63.0,59.0,40.0,False,,251.0456749919378,[],"[960, 540]",ColorTask,56.0,15.0,,,HRV,HRV_0039,2022-11-30 18:06:59
,wl-rdm,135,479366,0.0-8.15-0.15,1.0,133.0,,,,,,,[],,,,,,87.9,0.0,u,0.0,True,916.1999999992549,55.0,59.0,40.0,False,,352.1279960566947,[],"[960, 540]",ColorTask,57.0,16.0,,,HRV,HRV_0039,2022-11-30 18:06:59
,wl-rdm,136,482553,0.0-8.16-0.16,1.0,134.0,,,,,,,[],,,,,,50.0,1.0,u,0.0,False,1893.800000000745,114.0,59.0,40.0,False,,209.153478301809,[],"[960, 540]",ColorTask,56.0,17.0,,,HRV,HRV_0039,2022-11-30 18:06:59
,wl-rdm,137,485088,0.0-8.17-0.17,1.0,135.0,,,,,,,[],,,,,,73.6,0.0,u,0.0,True,1184.7000000029802,71.0,59.0,40.0,False,,286.9753900005474,[],"[960, 540]",ColorTask,57.0,18.0,,,HRV,HRV_0039,2022-11-30 18:06:59
,wl-rdm,138,487491,0.0-8.18-0.18,1.0,136.0,,,,,,,[],,,,,,87.9,0.0,u,0.0,True,1091.4000000022352,66.0,59.0,40.0,False,,240.68411693249354,[],"[960, 540]",ColorTask,58.0,19.0,,,HRV,HRV_0039,2022-11-30 18:06:59
,wl-rdm,139,490311,0.0-8.19-0.19,1.0,137.0,,,,,,,[],,,,,,56.4,1.0,i,1.0,True,1475.4000000022352,89.0,59.0,40.0,False,,272.5492985085026,[],"[960, 540]",ColorTask,59.0,20.0,,,HRV,HRV_0039,2022-11-30 18:06:59
,wl-rdm,140,493130,0.0-8.20-0.20,1.0,138.0,,,,,,,[],,,,,,50.0,1.0,i,1.0,True,1499.7999999970198,90.0,59.0,40.0,False,,264.63865284162864,[],"[960, 540]",ColorTask,60.0,21.0,,,HRV,HRV_0039,2022-11-30 18:06:59
,wl-rdm,141,495232,0.0-8.21-0.21,1.0,139.0,,,,,,,[],,,,,,87.9,1.0,i,1.0,True,796.4000000022352,48.0,59.0,40.0,False,,232.31820393856628,[],"[960, 540]",ColorTask,61.0,22.0,,,HRV,HRV_0039,2022-11-30 18:06:59
,wl-rdm,142,497885,0.0-8.22-0.22,1.0,140.0,,,,,,,[],,,,,,50.0,1.0,i,1.0,True,1278.300000000745,77.0,59.0,40.0,False,,317.79050115373445,[],"[960, 540]",ColorTask,62.0,23.0,,,HRV,HRV_0039,2022-11-30 18:06:59
,wl-rdm,143,500305,0.0-8.23-0.23,1.0,141.0,,,,,,,[],,,,,,73.6,0.0,u,0.0,True,979.0999999977648,59.0,59.0,40.0,False,,369.50268300255584,[],"[960, 540]",ColorTask,63.0,24.0,,,HRV,HRV_0039,2022-11-30 18:06:59
,wl-rdm,144,502873,0.0-8.24-0.24,1.0,142.0,,,,,,,[],,,,,,87.9,1.0,i,1.0,True,1108.0,67.0,59.0,40.0,False,,388.26694884334734,[],"[960, 540]",ColorTask,64.0,25.0,,,HRV,HRV_0039,2022-11-30 18:06:59
,wl-rdm,145,505443,0.0-8.25-0.25,1.0,143.0,,,,,,,[],,,,,,62.5,0.0,u,0.0,True,1297.800000000745,78.0,59.0,40.0,False,,201.77645415084754,[],"[960, 540]",ColorTask,65.0,26.0,,,HRV,HRV_0039,2022-11-30 18:06:59
,wl-rdm,146,508346,0.0-8.26-0.26,1.0,144.0,,,,,,,[],,,,,,50.0,0.0,u,0.0,True,1439.8999999985099,87.0,59.0,40.0,False,,399.1146714624293,[],"[960, 540]",ColorTask,66.0,27.0,,,HRV,HRV_0039,2022-11-30 18:06:59
,wl-rdm,147,511682,0.0-8.27-0.27,1.0,145.0,,,,,,,[],,,,,,53.2,1.0,i,1.0,True,1985.300000000745,119.0,59.0,40.0,False,,290.7289542780251,[],"[960, 540]",ColorTask,67.0,28.0,,,HRV,HRV_0039,2022-11-30 18:06:59
,wl-rdm,148,514468,0.0-8.28-0.28,1.0,146.0,,,,,,,[],,,,,,53.2,0.0,u,0.0,True,1462.800000000745,88.0,59.0,40.0,False,,261.03544183053833,[],"[960, 540]",ColorTask,68.0,29.0,,,HRV,HRV_0039,2022-11-30 18:06:59
,wl-rdm,149,516887,0.0-8.29-0.29,1.0,147.0,,,,,,,[],,,,,,62.5,1.0,i,1.0,True,1014.6999999992549,61.0,59.0,40.0,False,,337.3366394447479,[],"[960, 540]",ColorTask,69.0,30.0,,,HRV,HRV_0039,2022-11-30 18:06:59
,wl-rdm,150,519591,0.0-8.30-0.30,1.0,148.0,,,,,,,[],,,,,,73.6,1.0,i,1.0,True,1266.5,76.0,59.0,40.0,False,,379.4714011318863,[],"[960, 540]",ColorTask,70.0,31.0,,,HRV,HRV_0039,2022-11-30 18:06:59
,wl-rdm,151,521992,0.0-8.31-0.31,1.0,149.0,,,,,,,[],,,,,,73.6,0.0,u,0.0,True,1048.7999999970198,63.0,59.0,40.0,False,,299.3204914542766,[],"[960, 540]",ColorTask,71.0,32.0,,,HRV,HRV_0039,2022-11-30 18:06:59
,wl-rdm,152,524345,0.0-8.32-0.32,1.0,150.0,,,,,,,[],,,,,,87.9,1.0,i,1.0,True,930.9000000022352,56.0,59.0,40.0,False,,361.21121277687206,[],"[960, 540]",ColorTask,72.0,33.0,,,HRV,HRV_0039,2022-11-30 18:06:59
,wl-rdm,153,527699,0.0-8.33-0.33,1.0,151.0,,,,,,,[],,,,,,53.2,1.0,i,1.0,True,1908.6000000014901,115.0,59.0,40.0,False,,376.89099824712025,[],"[960, 540]",ColorTask,73.0,34.0,,,HRV,HRV_0039,2022-11-30 18:06:59
,wl-rdm,154,530200,0.0-8.34-0.34,1.0,152.0,,,,,,,[],,,,,,56.4,1.0,i,1.0,True,1207.199999999255,73.0,59.0,40.0,False,,217.43992210723607,[],"[960, 540]",ColorTask,74.0,35.0,,,HRV,HRV_0039,2022-11-30 18:06:59
,wl-rdm,155,532971,0.0-8.35-0.35,1.0,153.0,,,,,,,[],,,,,,73.6,0.0,u,0.0,True,1375.199999999255,83.0,59.0,40.0,False,,327.13683103581974,[],"[960, 540]",ColorTask,75.0,36.0,,,HRV,HRV_0039,2022-11-30 18:06:59
,wl-rdm,156,535339,0.0-8.36-0.36,1.0,154.0,,,,,,,[],,,,,,50.0,1.0,i,1.0,True,1099.3999999947846,66.0,59.0,40.0,False,,210.88056236242792,[],"[960, 540]",ColorTask,76.0,37.0,,,HRV,HRV_0039,2022-11-30 18:06:59
,wl-rdm,157,538493,0.0-8.37-0.37,1.0,155.0,,,,,,,[],,,,,,53.2,1.0,i,1.0,True,1811.8999999985099,109.0,59.0,40.0,False,,282.0038329856975,[],"[960, 540]",ColorTask,77.0,38.0,,,HRV,HRV_0039,2022-11-30 18:06:59
,wl-rdm,158,541462,0.0-8.38-0.38,1.0,156.0,,,,,,,[],,,,,,50.0,0.0,i,1.0,False,1699.0,102.0,59.0,40.0,False,,201.59847269742815,[],"[960, 540]",ColorTask,76.0,39.0,,,HRV,HRV_0039,2022-11-30 18:06:59
,wl-rdm,159,544282,0.0-8.39-0.39,1.0,157.0,,,,,,,[],,,,,,62.5,0.0,u,0.0,True,1551.0,93.0,59.0,40.0,False,,205.75250057551744,[],"[960, 540]",ColorTask,77.0,40.0,,,HRV,HRV_0039,2022-11-30 18:06:59
,wl-rdm,160,547568,0.0-8.40-0.40,1.0,158.0,,,,,,,[],,,,,,56.4,1.0,i,1.0,True,1944.0999999977648,117.0,59.0,40.0,False,,269.63188687253034,[],"[960, 540]",ColorTask,78.0,41.0,,,HRV,HRV_0039,2022-11-30 18:06:59
,wl-rdm,161,550671,0.0-8.41-0.41,1.0,159.0,,,,,,,[],,,,,,62.5,1.0,i,1.0,True,1808.0,109.0,59.0,40.0,False,,226.6856336632876,[],"[960, 540]",ColorTask,79.0,42.0,,,HRV,HRV_0039,2022-11-30 18:06:59
,wl-rdm,162,553823,0.0-8.42-0.42,1.0,160.0,,,,,,,[],,,,,,50.0,1.0,i,1.0,True,1872.199999999255,113.0,59.0,40.0,False,,207.86659074856678,[],"[960, 540]",ColorTask,80.0,43.0,,,HRV,HRV_0039,2022-11-30 18:06:59
,wl-rdm,163,557327,0.0-8.43-0.43,1.0,161.0,,,,,,,[],,,,,,62.5,1.0,u,0.0,False,2073.400000002235,125.0,59.0,40.0,False,,357.78935964398227,[],"[960, 540]",ColorTask,79.0,44.0,,,HRV,HRV_0039,2022-11-30 18:06:59
,wl-rdm,164,560448,0.0-8.44-0.44,1.0,162.0,,,,,,,[],,,,,,56.4,0.0,u,0.0,True,1750.9000000022352,105.0,59.0,40.0,False,,312.56763519809687,[],"[960, 540]",ColorTask,80.0,45.0,,,HRV,HRV_0039,2022-11-30 18:06:59
,wl-rdm,165,562649,0.0-8.45-0.45,1.0,163.0,,,,,,,[],,,,,,87.9,1.0,i,1.0,True,750.1999999955297,45.0,59.0,40.0,False,,393.70998423256526,[],"[960, 540]",ColorTask,81.0,46.0,,,HRV,HRV_0039,2022-11-30 18:06:59
,wl-rdm,166,565936,0.0-8.46-0.46,1.0,164.0,,,,,,,[],,,,,,50.0,0.0,i,1.0,False,1989.7000000029802,120.0,59.0,40.0,False,,221.1300714539943,[],"[960, 540]",ColorTask,80.0,47.0,,,HRV,HRV_0039,2022-11-30 18:06:59
,wl-rdm,167,568255,0.0-8.47-0.47,1.0,165.0,,,,,,,[],,,,,,62.5,1.0,i,1.0,True,1012.3999999985099,61.0,59.0,40.0,False,,245.4661009586281,[],"[960, 540]",ColorTask,81.0,48.0,,,HRV,HRV_0039,2022-11-30 18:06:59
,wl-rdm,168,571007,0.0-8.48-0.48,1.0,166.0,,,,,,,[],,,,,,53.2,1.0,u,0.0,False,1341.800000000745,81.0,59.0,40.0,False,,341.0066687059538,[],"[960, 540]",ColorTask,80.0,49.0,,,HRV,HRV_0039,2022-11-30 18:06:59
,wl-rdm,169,573410,0.0-8.49-0.49,1.0,167.0,,,,,,,[],,,,,,73.6,0.0,u,0.0,True,1071.3999999985099,65.0,59.0,40.0,False,,260.22663089698943,[],"[960, 540]",ColorTask,81.0,50.0,,,HRV,HRV_0039,2022-11-30 18:06:59
,wl-rdm,170,576146,0.0-8.50-0.50,1.0,168.0,,,,,,,[],,,,,,62.5,0.0,u,0.0,True,1448.199999999255,87.0,59.0,40.0,False,,224.14310085224201,[],"[960, 540]",ColorTask,82.0,51.0,,,HRV,HRV_0039,2022-11-30 18:06:59
,wl-rdm,171,578615,0.0-8.51-0.51,1.0,169.0,,,,,,,[],,,,,,73.6,0.0,u,0.0,True,1021.2000000029802,62.0,59.0,40.0,False,,370.33283838186617,[],"[960, 540]",ColorTask,83.0,52.0,,,HRV,HRV_0039,2022-11-30 18:06:59
,wl-rdm,172,581652,0.0-8.52-0.52,1.0,170.0,,,,,,,[],,,,,,56.4,1.0,i,1.0,True,1622.4000000022352,98.0,59.0,40.0,False,,351.1964951363277,[],"[960, 540]",ColorTask,84.0,53.0,,,HRV,HRV_0039,2022-11-30 18:06:59
,wl-rdm,173,584387,0.0-8.53-0.53,1.0,171.0,,,,,,,[],,,,,,56.4,0.0,i,1.0,False,1405.3999999985099,85.0,59.0,40.0,False,,257.0182488094455,[],"[960, 540]",ColorTask,83.0,54.0,,,HRV,HRV_0039,2022-11-30 18:06:59
,wl-rdm,174,586623,0.0-8.54-0.54,1.0,172.0,,,,,,,[],,,,,,53.2,1.0,u,0.0,False,939.5,57.0,59.0,40.0,False,,224.7404058822082,[],"[960, 540]",ColorTask,82.0,55.0,,,HRV,HRV_0039,2022-11-30 18:06:59
,wl-rdm,175,588975,0.0-8.55-0.55,1.0,173.0,,,,,,,[],,,,,,53.2,0.0,u,0.0,True,921.6999999992549,56.0,59.0,40.0,False,,359.2430988676466,[],"[960, 540]",ColorTask,83.0,56.0,,,HRV,HRV_0039,2022-11-30 18:06:59
,wl-rdm,176,591711,0.0-8.56-0.56,1.0,174.0,,,,,,,[],,,,,,56.4,1.0,u,0.0,False,1414.0999999977648,85.0,59.0,40.0,False,,266.78209237906214,[],"[960, 540]",ColorTask,82.0,57.0,,,HRV,HRV_0039,2022-11-30 18:06:59
,wl-rdm,177,594047,0.0-8.57-0.57,1.0,175.0,,,,,,,[],,,,,,87.9,0.0,u,0.0,True,966.0,58.0,59.0,40.0,False,,302.6667992923094,[],"[960, 540]",ColorTask,83.0,58.0,,,HRV,HRV_0039,2022-11-30 18:06:59
,wl-rdm,178,596833,0.0-8.58-0.58,1.0,176.0,,,,,,,[],,,,,,87.9,0.0,u,0.0,True,1507.800000000745,91.0,59.0,40.0,False,,209.31026027921067,[],"[960, 540]",ColorTask,84.0,59.0,,,HRV,HRV_0039,2022-11-30 18:06:59
,wl-rdm,179,599853,0.0-8.59-0.59,1.0,177.0,,,,,,,[],,,,,,56.4,0.0,i,1.0,False,1727.4000000022352,104.0,59.0,40.0,False,,227.11897732714897,[],"[960, 540]",ColorTask,83.0,60.0,,,HRV,HRV_0039,2022-11-30 18:06:59
,wl-rdm,180,602705,0.0-8.60-0.60,1.0,178.0,,,,,,,[],,,,,,50.0,0.0,i,1.0,False,1583.699999999255,95.0,59.0,40.0,False,,210.9789506583778,[],"[960, 540]",ColorTask,82.0,61.0,,,HRV,HRV_0039,2022-11-30 18:06:59
,wl-rdm,181,604974,0.0-8.61-0.61,1.0,179.0,,,,,,,[],,,,,,62.5,0.0,u,0.0,True,879.8000000007451,53.0,59.0,40.0,False,,329.0820279868176,[],"[960, 540]",ColorTask,83.0,62.0,,,HRV,HRV_0039,2022-11-30 18:06:59
,wl-rdm,182,607844,0.0-8.62-0.62,1.0,180.0,,,,,,,[],,,,,,62.5,1.0,i,1.0,True,1439.0,87.0,59.0,40.0,False,,364.31331835276285,[],"[960, 540]",ColorTask,84.0,63.0,,,HRV,HRV_0039,2022-11-30 18:06:59
,wl-rdm,183,610547,0.0-8.63-0.63,1.0,181.0,,,,,,,[],,,,,,73.6,0.0,u,0.0,True,1366.1000000014901,82.0,59.0,40.0,False,,271.17423338448026,[],"[960, 540]",ColorTask,85.0,64.0,,,HRV,HRV_0039,2022-11-30 18:06:59
,wl-rdm,184,613434,0.0-8.64-0.64,1.0,182.0,,,,,,,[],,,,,,50.0,0.0,u,0.0,True,1591.699999999255,96.0,59.0,40.0,False,,236.58105811813522,[],"[960, 540]",ColorTask,86.0,65.0,,,HRV,HRV_0039,2022-11-30 18:06:59
,wl-rdm,185,616453,0.0-8.65-0.65,1.0,183.0,,,,,,,[],,,,,,50.0,0.0,i,1.0,False,1673.0,101.0,59.0,40.0,False,,281.7566361545355,[],"[960, 540]",ColorTask,85.0,66.0,,,HRV,HRV_0039,2022-11-30 18:06:59
,wl-rdm,186,619522,0.0-8.66-0.66,1.0,184.0,,,,,,,[],,,,,,56.4,0.0,u,0.0,True,1683.300000000745,101.0,59.0,40.0,False,,327.5809731901493,[],"[960, 540]",ColorTask,86.0,67.0,,,HRV,HRV_0039,2022-11-30 18:06:59
,wl-rdm,187,622360,0.0-8.67-0.67,1.0,185.0,,,,,,,[],,,,,,56.4,1.0,i,1.0,True,1423.8999999947846,86.0,59.0,40.0,False,,342.29128296315366,[],"[960, 540]",ColorTask,87.0,68.0,,,HRV,HRV_0039,2022-11-30 18:06:59
,wl-rdm,188,624995,0.0-8.68-0.68,1.0,186.0,,,,,,,[],,,,,,73.6,0.0,u,0.0,True,1342.5999999977648,81.0,59.0,40.0,False,,230.5588275428497,[],"[960, 540]",ColorTask,88.0,69.0,,,HRV,HRV_0039,2022-11-30 18:06:59
,wl-rdm,189,627281,0.0-8.69-0.69,1.0,187.0,,,,,,,[],,,,,,87.9,0.0,u,0.0,True,943.3999999985099,57.0,59.0,40.0,False,,279.0837212405739,[],"[960, 540]",ColorTask,89.0,70.0,,,HRV,HRV_0039,2022-11-30 18:06:59
,wl-rdm,190,629483,0.0-8.70-0.70,1.0,188.0,,,,,,,[],,,,,,62.5,0.0,u,0.0,True,905.5999999977648,55.0,59.0,40.0,False,,225.69155692368494,[],"[960, 540]",ColorTask,90.0,71.0,,,HRV,HRV_0039,2022-11-30 18:06:59
,wl-rdm,191,632953,0.0-8.71-0.71,1.0,189.0,,,,,,,[],,,,,,62.5,1.0,u,0.0,False,2081.199999999255,125.0,59.0,40.0,False,,325.3132449037757,[],"[960, 540]",ColorTask,89.0,72.0,,,HRV,HRV_0039,2022-11-30 18:06:59
,wl-rdm,192,635540,0.0-8.72-0.72,1.0,190.0,,,,,,,[],,,,,,50.0,1.0,i,1.0,True,1198.2999999970198,72.0,59.0,40.0,False,,302.0035148078539,[],"[960, 540]",ColorTask,90.0,73.0,,,HRV,HRV_0039,2022-11-30 18:06:59
,wl-rdm,193,638842,0.0-8.73-0.73,1.0,191.0,,,,,,,[],,,,,,53.2,0.0,u,0.0,True,2012.1000000014901,121.0,59.0,40.0,False,,230.33947206563494,[],"[960, 540]",ColorTask,91.0,74.0,,,HRV,HRV_0039,2022-11-30 18:06:59
,wl-rdm,194,641544,0.0-8.74-0.74,1.0,192.0,,,,,,,[],,,,,,62.5,1.0,i,1.0,True,1424.800000000745,86.0,59.0,40.0,False,,206.43257949089593,[],"[960, 540]",ColorTask,92.0,75.0,,,HRV,HRV_0039,2022-11-30 18:06:59
,wl-rdm,195,644130,0.0-8.75-0.75,1.0,193.0,,,,,,,[],,,,,,73.6,0.0,u,0.0,True,1280.4000000022352,77.0,59.0,40.0,False,,246.10764379388257,[],"[960, 540]",ColorTask,93.0,76.0,,,HRV,HRV_0039,2022-11-30 18:06:59
,wl-rdm,196,647167,0.0-8.76-0.76,1.0,194.0,,,,,,,[],,,,,,50.0,0.0,u,0.0,True,1705.6000000014901,103.0,59.0,40.0,False,,242.02125454987925,[],"[960, 540]",ColorTask,94.0,77.0,,,HRV,HRV_0039,2022-11-30 18:06:59
,wl-rdm,197,650287,0.0-8.77-0.77,1.0,195.0,,,,,,,[],,,,,,73.6,1.0,i,1.0,True,1705.1999999955297,103.0,59.0,40.0,False,,347.716578596967,[],"[960, 540]",ColorTask,95.0,78.0,,,HRV,HRV_0039,2022-11-30 18:06:59
,wl-rdm,198,652756,0.0-8.78-0.78,1.0,196.0,,,,,,,[],,,,,,53.2,1.0,u,0.0,False,1165.2999999970198,70.0,59.0,40.0,False,,235.13912551058678,[],"[960, 540]",ColorTask,94.0,79.0,,,HRV,HRV_0039,2022-11-30 18:06:59
,wl-rdm,199,654975,0.0-8.79-0.79,1.0,197.0,,,,,,,[],,,,,,87.9,0.0,u,0.0,True,882.1999999992549,53.0,59.0,40.0,False,,272.4878802974001,[],"[960, 540]",ColorTask,95.0,80.0,,,HRV,HRV_0039,2022-11-30 18:06:59
,wl-rdm,200,657794,0.0-8.80-0.80,1.0,198.0,,,,,,,[],,,,,,53.2,1.0,i,1.0,True,1483.199999999255,89.0,59.0,40.0,False,,282.1661199735435,[],"[960, 540]",ColorTask,96.0,81.0,,,HRV,HRV_0039,2022-11-30 18:06:59
,wl-rdm,201,660647,0.0-8.81-0.81,1.0,199.0,,,,,,,[],,,,,,53.2,0.0,i,1.0,False,1443.7000000029802,87.0,59.0,40.0,False,,344.68433795174064,[],"[960, 540]",ColorTask,95.0,82.0,,,HRV,HRV_0039,2022-11-30 18:06:59
,wl-rdm,202,663032,0.0-8.82-0.82,1.0,200.0,,,,,,,[],,,,,,87.9,1.0,u,0.0,False,1095.9000000022352,66.0,59.0,40.0,False,,228.54780645494176,[],"[960, 540]",ColorTask,94.0,83.0,,,HRV,HRV_0039,2022-11-30 18:06:59
,wl-rdm,203,664934,0.0-8.83-0.83,1.0,201.0,,,,,,,[],,,,,,87.9,1.0,i,1.0,True,590.6000000014901,36.0,59.0,40.0,False,,240.8713648898155,[],"[960, 540]",ColorTask,95.0,84.0,,,HRV,HRV_0039,2022-11-30 18:06:59
,wl-rdm,204,667854,0.0-8.84-0.84,1.0,202.0,,,,,,,[],,,,,,56.4,0.0,u,0.0,True,1576.699999999255,95.0,59.0,40.0,False,,275.36599228286724,[],"[960, 540]",ColorTask,96.0,85.0,,,HRV,HRV_0039,2022-11-30 18:06:59
,wl-rdm,205,670106,0.0-8.85-0.85,1.0,203.0,,,,,,,[],,,,,,87.9,1.0,i,1.0,True,870.6999999992549,53.0,59.0,40.0,False,,308.9349843925343,[],"[960, 540]",ColorTask,97.0,86.0,,,HRV,HRV_0039,2022-11-30 18:06:59
,wl-rdm,206,672659,0.0-8.86-0.86,1.0,204.0,,,,,,,[],,,,,,73.6,1.0,i,1.0,True,1087.9000000022352,66.0,59.0,40.0,False,,398.5702309011439,[],"[960, 540]",ColorTask,98.0,87.0,,,HRV,HRV_0039,2022-11-30 18:06:59
,wl-rdm,207,675378,0.0-8.87-0.87,1.0,205.0,,,,,,,[],,,,,,62.5,1.0,i,1.0,True,1448.7000000029802,87.0,59.0,40.0,False,,209.68444429470154,[],"[960, 540]",ColorTask,99.0,88.0,,,HRV,HRV_0039,2022-11-30 18:06:59
,wl-rdm,208,678030,0.0-8.88-0.88,1.0,206.0,,,,,,,[],,,,,,56.4,0.0,u,0.0,True,1341.5,81.0,59.0,40.0,False,,237.2830144987096,[],"[960, 540]",ColorTask,100.0,89.0,,,HRV,HRV_0039,2022-11-30 18:06:59
,wl-rdm,209,681051,0.0-8.89-0.89,1.0,207.0,,,,,,,[],,,,,,50.0,1.0,u,0.0,False,1672.5999999977648,101.0,59.0,40.0,False,,276.9981204301714,[],"[960, 540]",ColorTask,99.0,90.0,,,HRV,HRV_0039,2022-11-30 18:06:59
,wl-rdm,210,683269,0.0-8.90-0.90,1.0,208.0,,,,,,,[],,,,,,53.2,0.0,u,0.0,True,906.1000000014901,55.0,59.0,40.0,False,,247.86173870071875,[],"[960, 540]",ColorTask,100.0,91.0,,,HRV,HRV_0039,2022-11-30 18:06:59
,wl-rdm,211,686206,0.0-8.91-0.91,1.0,209.0,,,,,,,[],,,,,,50.0,1.0,u,0.0,False,1559.4999999962747,94.0,59.0,40.0,False,,313.9791299156036,[],"[960, 540]",ColorTask,99.0,92.0,,,HRV,HRV_0039,2022-11-30 18:06:59
,wl-rdm,212,688559,0.0-8.92-0.92,1.0,210.0,,,,,,,[],,,,,,56.4,1.0,i,1.0,True,1022.2000000029802,62.0,59.0,40.0,False,,265.02805199806704,[],"[960, 540]",ColorTask,100.0,93.0,,,HRV,HRV_0039,2022-11-30 18:06:59
,wl-rdm,213,690910,0.0-8.93-0.93,1.0,211.0,,,,,,,[],,,,,,73.6,1.0,i,1.0,True,1005.6000000014901,61.0,59.0,40.0,False,,274.8128958064824,[],"[960, 540]",ColorTask,101.0,94.0,,,HRV,HRV_0039,2022-11-30 18:06:59
,wl-rdm,214,693481,0.0-8.94-0.94,1.0,212.0,,,,,,,[],,,,,,56.4,0.0,u,0.0,True,1280.199999999255,77.0,59.0,40.0,False,,229.45049167947113,[],"[960, 540]",ColorTask,102.0,95.0,,,HRV,HRV_0039,2022-11-30 18:06:59
,wl-rdm,215,696032,0.0-8.95-0.95,1.0,213.0,,,,,,,[],,,,,,56.4,1.0,i,1.0,True,1188.800000000745,72.0,59.0,40.0,False,,286.72031799995483,[],"[960, 540]",ColorTask,103.0,96.0,,,HRV,HRV_0039,2022-11-30 18:06:59
,wl-rdm,216,699002,0.0-8.96-0.96,1.0,214.0,,,,,,,[],,,,,,56.4,1.0,u,0.0,False,1589.1000000014901,96.0,59.0,40.0,False,,290.4108009603706,[],"[960, 540]",ColorTask,102.0,97.0,,,HRV,HRV_0039,2022-11-30 18:06:59
,wl-rdm,217,701104,0.0-8.97-0.97,1.0,215.0,,,,,,,[],,,,,,62.5,1.0,i,1.0,True,764.8000000007451,46.0,59.0,40.0,False,,268.5329980971165,[],"[960, 540]",ColorTask,103.0,98.0,,,HRV,HRV_0039,2022-11-30 18:06:59
,wl-rdm,218,703272,0.0-8.98-0.98,1.0,216.0,,,,,,,[],,,,,,87.9,1.0,i,1.0,True,761.6000000014901,46.0,59.0,40.0,False,,340.9188552650078,[],"[960, 540]",ColorTask,104.0,99.0,,,HRV,HRV_0039,2022-11-30 18:06:59
,wl-rdm,219,705558,0.0-8.99-0.99,1.0,217.0,,,,,,,[],,,,,,87.9,0.0,u,0.0,True,959.8000000044703,58.0,59.0,40.0,False,,254.39739767647262,[],"[960, 540]",ColorTask,105.0,100.0,,,HRV,HRV_0039,2022-11-30 18:06:59
,wl-rdm,220,707777,0.0-8.100-0.100,1.0,218.0,,,,,,,[],,,,,,87.9,1.0,i,1.0,True,943.6000000014901,57.0,59.0,40.0,False,,204.17983548372308,[],"[960, 540]",ColorTask,106.0,101.0,,,HRV,HRV_0039,2022-11-30 18:06:59
,wl-rdm,221,711681,0.0-8.101-0.101,1.0,219.0,,,,,,,[],,,,,,50.0,0.0,i,1.0,False,2475.89999999851,149.0,59.0,40.0,False,,365.4561859955588,[],"[960, 540]",ColorTask,105.0,102.0,,,HRV,HRV_0039,2022-11-30 18:06:59
,wl-rdm,222,714718,0.0-8.102-0.102,1.0,220.0,,,,,,,[],,,,,,50.0,1.0,u,0.0,False,1674.0,101.0,59.0,40.0,False,,295.19984581008174,[],"[960, 540]",ColorTask,104.0,103.0,,,HRV,HRV_0039,2022-11-30 18:06:59
,wl-rdm,223,717103,0.0-8.103-0.103,1.0,221.0,,,,,,,[],,,,,,73.6,1.0,i,1.0,True,962.6000000014901,58.0,59.0,40.0,False,,341.63802254574443,[],"[960, 540]",ColorTask,105.0,104.0,,,HRV,HRV_0039,2022-11-30 18:06:59
,wl-rdm,224,720022,0.0-8.104-0.104,1.0,222.0,,,,,,,[],,,,,,53.2,1.0,u,0.0,False,1623.300000000745,98.0,59.0,40.0,False,,231.2688691899756,[],"[960, 540]",ColorTask,104.0,105.0,,,HRV,HRV_0039,2022-11-30 18:06:59
,wl-rdm,225,722609,0.0-8.105-0.105,1.0,223.0,,,,,,,[],,,,,,50.0,0.0,i,1.0,False,1317.800000000745,79.0,59.0,40.0,False,,200.30455594194186,[],"[960, 540]",ColorTask,103.0,106.0,,,HRV,HRV_0039,2022-11-30 18:06:59
,wl-rdm,226,725161,0.0-8.106-0.106,1.0,224.0,,,,,,,[],,,,,,73.6,1.0,i,1.0,True,1240.5,75.0,59.0,40.0,False,,237.2049227890006,[],"[960, 540]",ColorTask,104.0,107.0,,,HRV,HRV_0039,2022-11-30 18:06:59
,wl-rdm,227,728631,0.0-8.107-0.107,1.0,225.0,,,,,,,[],,,,,,62.5,0.0,u,0.0,True,2109.10000000149,127.0,59.0,40.0,False,,289.45536401559696,[],"[960, 540]",ColorTask,105.0,108.0,,,HRV,HRV_0039,2022-11-30 18:06:59
,wl-html-button-response,228,732952,0.0-9.0-0.0,,,,,,,,,,4318.39999999851,,0,,,,,,,,,,,,,,,,,,,,<h3>End of this session. Thank you!</h3><br>,['Close window'],HRV,HRV_0039,2022-11-30 18:06:59
