trialN,stimuli,trialStartTime,trialStartTime_UNIX,stimulus1,stimulus2,stimulus1Bid,stimulus2Bid,delta,selected,rt,rt_UNIX,rt_perfnow,receivedResponse,rsp,trialEndTime,trialDuration,trialEndTime_UNIX,trialDuration_UNIX,exp,subjectId,date
0,"[{'imgObject': {}, 'id': 'olives', 'src': '/static/foodstim60/olives.jpg', 'key': 'u', 'origWidth': 410, 'origHeight': 410, 'width': 410, 'height': 410, 'widthPercent': 0.45, 'rescaleHeight': False, 'trialN': 0, 'loaded': True, 'loadedTime': 5268.900000002235, 'positionName': 'LEFT', 'positionCoords': [511.6, 335], 'bid': 0.2}, {'imgObject': {}, 'id': 'kiwi', 'src': '/static/foodstim60/kiwi.jpg', 'key': 'i', 'origWidth': 410, 'origHeight': 410, 'width': 410, 'height': 410, 'widthPercent': 0.45, 'rescaleHeight': False, 'trialN': 0, 'loaded': True, 'loadedTime': 5296.300000000745, 'positionName': 'RIGHT', 'positionCoords': [998.4, 335], 'bid': 0.86}]",6102.900000002235,1669830384108,olives,kiwi,0.2,0.86,0.6599999999999999,kiwi,1466.3999999985099,1467,1467.0999999977648,True,i,8089.10000000149,1986.199999999255,1669830386094,1986,HRV,HRV_0039,2022-11-30 17:54:41
1,"[{'imgObject': {}, 'id': 'grilled chicken strips', 'src': '/static/foodstim60/grilled chicken strips.jpg', 'key': 'u', 'origWidth': 410, 'origHeight': 411, 'width': 410, 'height': 411, 'widthPercent': 0.45, 'rescaleHeight': False, 'trialN': 1, 'loaded': True, 'loadedTime': 5347.60000000149, 'positionName': 'LEFT', 'positionCoords': [511.6, 334.5], 'bid': 7.96}, {'imgObject': {}, 'id': 'omelette', 'src': '/static/foodstim60/omelette.jpg', 'key': 'i', 'origWidth': 410, 'origHeight': 409, 'width': 410, 'height': 409, 'widthPercent': 0.45, 'rescaleHeight': False, 'trialN': 1, 'loaded': True, 'loadedTime': 5365.800000000745, 'positionName': 'RIGHT', 'positionCoords': [998.4, 335.5], 'bid': 7.71}]",8089.400000002235,1669830386094,grilled chicken strips,omelette,7.96,7.71,-0.25,omelette,2011.0999999977648,2012,2011.3999999985099,True,i,10616.400000002235,2527.0,1669830388621,2527,HRV,HRV_0039,2022-11-30 17:54:41
2,"[{'imgObject': {}, 'id': 'bagel and cc', 'src': '/static/foodstim60/bagel and cc.jpg', 'key': 'u', 'origWidth': 410, 'origHeight': 410, 'width': 410, 'height': 410, 'widthPercent': 0.45, 'rescaleHeight': False, 'trialN': 2, 'loaded': True, 'loadedTime': 5550.70000000298, 'positionName': 'LEFT', 'positionCoords': [511.6, 335], 'bid': 8.11}, {'imgObject': {}, 'id': 'bagel plain', 'src': '/static/foodstim60/bagel plain.jpg', 'key': 'i', 'origWidth': 410, 'origHeight': 410, 'width': 410, 'height': 410, 'widthPercent': 0.45, 'rescaleHeight': False, 'trialN': 2, 'loaded': True, 'loadedTime': 5595.800000000745, 'positionName': 'RIGHT', 'positionCoords': [998.4, 335], 'bid': 8.72}]",10616.5,1669830388622,bagel and cc,bagel plain,8.11,8.72,0.6100000000000012,bagel plain,1425.7000000029802,1426,1426.0,True,i,12563.70000000298,1947.2000000029802,1669830390569,1947,HRV,HRV_0039,2022-11-30 17:54:41
3,"[{'imgObject': {}, 'id': 'turkey sandwich', 'src': '/static/foodstim60/turkey sandwich.jpg', 'key': 'u', 'origWidth': 409, 'origHeight': 409, 'width': 409, 'height': 409, 'widthPercent': 0.45, 'rescaleHeight': False, 'trialN': 3, 'loaded': True, 'loadedTime': 5606.300000000745, 'positionName': 'LEFT', 'positionCoords': [512.6, 335.5], 'bid': 9.09}, {'imgObject': {}, 'id': 'bagel plain', 'src': '/static/foodstim60/bagel plain.jpg', 'key': 'i', 'origWidth': 410, 'origHeight': 410, 'width': 410, 'height': 410, 'widthPercent': 0.45, 'rescaleHeight': False, 'trialN': 3, 'loaded': True, 'loadedTime': 5602.800000000745, 'positionName': 'RIGHT', 'positionCoords': [998.4, 335], 'bid': 8.72}]",12563.900000002235,1669830390569,turkey sandwich,bagel plain,9.09,8.72,-0.3699999999999992,turkey sandwich,1192.800000000745,1193,1193.0999999977648,True,u,14262.900000002235,1699.0,1669830392268,1699,HRV,HRV_0039,2022-11-30 17:54:41
4,"[{'imgObject': {}, 'id': 'ice cream sundae 002', 'src': '/static/foodstim60/ice cream sundae 002.jpg', 'key': 'u', 'origWidth': 409, 'origHeight': 409, 'width': 409, 'height': 409, 'widthPercent': 0.45, 'rescaleHeight': False, 'trialN': 4, 'loaded': True, 'loadedTime': 5635.400000002235, 'positionName': 'LEFT', 'positionCoords': [512.6, 335.5], 'bid': 0.08}, {'imgObject': {}, 'id': 'olives', 'src': '/static/foodstim60/olives.jpg', 'key': 'i', 'origWidth': 410, 'origHeight': 410, 'width': 410, 'height': 410, 'widthPercent': 0.45, 'rescaleHeight': False, 'trialN': 4, 'loaded': True, 'loadedTime': 5265.5, 'positionName': 'RIGHT', 'positionCoords': [998.4, 335], 'bid': 0.2}]",14263.10000000149,1669830392268,ice cream sundae 002,olives,0.08,0.2,0.12000000000000001,ice cream sundae 002,1599.8999999985099,1600,1600.300000000745,True,u,16372.70000000298,2109.60000000149,1669830394378,2110,HRV,HRV_0039,2022-11-30 17:54:41
5,"[{'imgObject': {}, 'id': 'veggieswithdip', 'src': '/static/foodstim60/veggieswithdip.jpg', 'key': 'u', 'origWidth': 409, 'origHeight': 409, 'width': 409, 'height': 409, 'widthPercent': 0.45, 'rescaleHeight': False, 'trialN': 5, 'loaded': True, 'loadedTime': 5312.800000000745, 'positionName': 'LEFT', 'positionCoords': [512.6, 335.5], 'bid': 6.16}, {'imgObject': {}, 'id': 'omelette', 'src': '/static/foodstim60/omelette.jpg', 'key': 'i', 'origWidth': 410, 'origHeight': 409, 'width': 410, 'height': 409, 'widthPercent': 0.45, 'rescaleHeight': False, 'trialN': 5, 'loaded': True, 'loadedTime': 5365, 'positionName': 'RIGHT', 'positionCoords': [998.4, 335.5], 'bid': 7.71}]",16372.900000002235,1669830394378,veggieswithdip,omelette,6.16,7.71,1.5499999999999998,veggieswithdip,1855.699999999255,1856,1856.0,True,u,18733.900000002235,2361.0,1669830396739,2361,HRV,HRV_0039,2022-11-30 17:54:41
6,"[{'imgObject': {}, 'id': 'salmon', 'src': '/static/foodstim60/salmon.jpg', 'key': 'u', 'origWidth': 410, 'origHeight': 409, 'width': 410, 'height': 409, 'widthPercent': 0.45, 'rescaleHeight': False, 'trialN': 6, 'loaded': True, 'loadedTime': 5337.400000002235, 'positionName': 'LEFT', 'positionCoords': [511.6, 335.5], 'bid': 0.98}, {'imgObject': {}, 'id': 'yogurt no spoon', 'src': '/static/foodstim60/yogurt no spoon.jpg', 'key': 'i', 'origWidth': 411, 'origHeight': 410, 'width': 411, 'height': 410, 'widthPercent': 0.45, 'rescaleHeight': False, 'trialN': 6, 'loaded': True, 'loadedTime': 5407.10000000149, 'positionName': 'RIGHT', 'positionCoords': [998.4, 335], 'bid': 8.06}]",18734.10000000149,1669830396739,salmon,yogurt no spoon,0.98,8.06,7.08,yogurt no spoon,1819.699999999255,1820,1820.0,True,i,21068.400000002235,2334.300000000745,1669830399073,2334,HRV,HRV_0039,2022-11-30 17:54:41
7,"[{'imgObject': {}, 'id': 'sushi w_condiments', 'src': '/static/foodstim60/sushi w_condiments.jpg', 'key': 'u', 'origWidth': 410, 'origHeight': 410, 'width': 410, 'height': 410, 'widthPercent': 0.45, 'rescaleHeight': False, 'trialN': 7, 'loaded': True, 'loadedTime': 5437.400000002235, 'positionName': 'LEFT', 'positionCoords': [511.6, 335], 'bid': 0.06}, {'imgObject': {}, 'id': 'blackbeanswithrice', 'src': '/static/foodstim60/blackbeanswithrice.jpg', 'key': 'i', 'origWidth': 410, 'origHeight': 410, 'width': 410, 'height': 410, 'widthPercent': 0.45, 'rescaleHeight': False, 'trialN': 7, 'loaded': True, 'loadedTime': 5441, 'positionName': 'RIGHT', 'positionCoords': [998.4, 335], 'bid': 2.04}]",21068.60000000149,1669830399074,sushi w_condiments,blackbeanswithrice,0.06,2.04,1.98,blackbeanswithrice,1964.5,1965,1964.800000000745,True,i,23545.10000000149,2476.5,1669830401550,2476,HRV,HRV_0039,2022-11-30 17:54:41
8,"[{'imgObject': {}, 'id': 'cheerios', 'src': '/static/foodstim60/cheerios.jpg', 'key': 'u', 'origWidth': 409, 'origHeight': 410, 'width': 409, 'height': 410, 'widthPercent': 0.45, 'rescaleHeight': False, 'trialN': 8, 'loaded': True, 'loadedTime': 5459.300000000745, 'positionName': 'LEFT', 'positionCoords': [512.6, 335], 'bid': 4.28}, {'imgObject': {}, 'id': 'salmon', 'src': '/static/foodstim60/salmon.jpg', 'key': 'i', 'origWidth': 410, 'origHeight': 409, 'width': 410, 'height': 409, 'widthPercent': 0.45, 'rescaleHeight': False, 'trialN': 8, 'loaded': True, 'loadedTime': 5329.800000000745, 'positionName': 'RIGHT', 'positionCoords': [998.4, 335.5], 'bid': 0.98}]",23545.20000000298,1669830401550,cheerios,salmon,4.28,0.98,-3.3000000000000003,cheerios,2081.599999997765,2082,2081.89999999851,True,u,26144.400000002235,2599.199999999255,1669830404150,2600,HRV,HRV_0039,2022-11-30 17:54:41
9,"[{'imgObject': {}, 'id': 'eggsalad', 'src': '/static/foodstim60/eggsalad.jpg', 'key': 'u', 'origWidth': 410, 'origHeight': 409, 'width': 410, 'height': 409, 'widthPercent': 0.45, 'rescaleHeight': False, 'trialN': 9, 'loaded': True, 'loadedTime': 5495, 'positionName': 'LEFT', 'positionCoords': [511.6, 335.5], 'bid': 6.97}, {'imgObject': {}, 'id': 'luckycharms', 'src': '/static/foodstim60/luckycharms.jpg', 'key': 'i', 'origWidth': 410, 'origHeight': 409, 'width': 410, 'height': 409, 'widthPercent': 0.45, 'rescaleHeight': False, 'trialN': 9, 'loaded': True, 'loadedTime': 5516.60000000149, 'positionName': 'RIGHT', 'positionCoords': [998.4, 335.5], 'bid': 6.25}]",26144.60000000149,1669830404150,eggsalad,luckycharms,6.97,6.25,-0.7199999999999998,eggsalad,1671.1000000014901,1672,1671.3999999985099,True,u,28329.10000000149,2184.5,1669830406335,2185,HRV,HRV_0039,2022-11-30 17:54:41
10,"[{'imgObject': {}, 'id': 'baked potato', 'src': '/static/foodstim60/baked potato.jpg', 'key': 'u', 'origWidth': 409, 'origHeight': 410, 'width': 409, 'height': 410, 'widthPercent': 0.45, 'rescaleHeight': False, 'trialN': 10, 'loaded': True, 'loadedTime': 5527.900000002235, 'positionName': 'LEFT', 'positionCoords': [512.6, 335], 'bid': 8.27}, {'imgObject': {}, 'id': 'eggsalad', 'src': '/static/foodstim60/eggsalad.jpg', 'key': 'i', 'origWidth': 410, 'origHeight': 409, 'width': 410, 'height': 409, 'widthPercent': 0.45, 'rescaleHeight': False, 'trialN': 10, 'loaded': True, 'loadedTime': 5481.5, 'positionName': 'RIGHT', 'positionCoords': [998.4, 335.5], 'bid': 6.97}]",28329.300000000745,1669830406335,baked potato,eggsalad,8.27,6.97,-1.2999999999999998,baked potato,1729.300000000745,1730,1729.699999999255,True,u,30578.70000000298,2249.400000002235,1669830408585,2250,HRV,HRV_0039,2022-11-30 17:54:41
11,"[{'imgObject': {}, 'id': 'avocado', 'src': '/static/foodstim60/avocado.jpg', 'key': 'u', 'origWidth': 409, 'origHeight': 409, 'width': 409, 'height': 409, 'widthPercent': 0.45, 'rescaleHeight': False, 'trialN': 11, 'loaded': True, 'loadedTime': 5554.400000002235, 'positionName': 'LEFT', 'positionCoords': [512.6, 335.5], 'bid': 0.56}, {'imgObject': {}, 'id': 'shreddedwheatwithmilk', 'src': '/static/foodstim60/shreddedwheatwithmilk.jpg', 'key': 'i', 'origWidth': 410, 'origHeight': 410, 'width': 410, 'height': 410, 'widthPercent': 0.45, 'rescaleHeight': False, 'trialN': 11, 'loaded': True, 'loadedTime': 5588.400000002235, 'positionName': 'RIGHT', 'positionCoords': [998.4, 335], 'bid': 4.04}]",30578.900000002235,1669830408585,avocado,shreddedwheatwithmilk,0.56,4.04,3.48,shreddedwheatwithmilk,2657,2657,2657.300000000745,True,i,33752.5,3173.599999997765,1669830411758,3173,HRV,HRV_0039,2022-11-30 17:54:41
12,"[{'imgObject': {}, 'id': 'cheerios', 'src': '/static/foodstim60/cheerios.jpg', 'key': 'u', 'origWidth': 409, 'origHeight': 410, 'width': 409, 'height': 410, 'widthPercent': 0.45, 'rescaleHeight': False, 'trialN': 12, 'loaded': True, 'loadedTime': 5458.300000000745, 'positionName': 'LEFT', 'positionCoords': [512.6, 335], 'bid': 4.28}, {'imgObject': {}, 'id': 'blackbeanswithrice', 'src': '/static/foodstim60/blackbeanswithrice.jpg', 'key': 'i', 'origWidth': 410, 'origHeight': 410, 'width': 410, 'height': 410, 'widthPercent': 0.45, 'rescaleHeight': False, 'trialN': 12, 'loaded': True, 'loadedTime': 5451.60000000149, 'positionName': 'RIGHT', 'positionCoords': [998.4, 335], 'bid': 2.04}]",33752.60000000149,1669830411758,cheerios,blackbeanswithrice,4.28,2.04,-2.24,cheerios,1511,1512,1511.5,True,u,35780.0,2027.3999999985099,1669830413786,2028,HRV,HRV_0039,2022-11-30 17:54:41
13,"[{'imgObject': {}, 'id': 'mashed potato', 'src': '/static/foodstim60/mashed potato.jpg', 'key': 'u', 'origWidth': 409, 'origHeight': 409, 'width': 409, 'height': 409, 'widthPercent': 0.45, 'rescaleHeight': False, 'trialN': 13, 'loaded': True, 'loadedTime': 5647.800000000745, 'positionName': 'LEFT', 'positionCoords': [512.6, 335.5], 'bid': 8.03}, {'imgObject': {}, 'id': 'yogurt no spoon', 'src': '/static/foodstim60/yogurt no spoon.jpg', 'key': 'i', 'origWidth': 411, 'origHeight': 410, 'width': 411, 'height': 410, 'widthPercent': 0.45, 'rescaleHeight': False, 'trialN': 13, 'loaded': True, 'loadedTime': 5410.60000000149, 'positionName': 'RIGHT', 'positionCoords': [998.4, 335], 'bid': 8.06}]",35780.0,1669830413786,mashed potato,yogurt no spoon,8.03,8.06,0.030000000000001137,mashed potato,2786.60000000149,2787,2786.900000002235,True,u,39082.400000002235,3302.400000002235,1669830417088,3302,HRV,HRV_0039,2022-11-30 17:54:41
14,"[{'imgObject': {}, 'id': 'hotdog w must', 'src': '/static/foodstim60/hotdog w must.jpg', 'key': 'u', 'origWidth': 409, 'origHeight': 409, 'width': 409, 'height': 409, 'widthPercent': 0.45, 'rescaleHeight': False, 'trialN': 14, 'loaded': True, 'loadedTime': 5672.800000000745, 'positionName': 'LEFT', 'positionCoords': [512.6, 335.5], 'bid': 7.23}, {'imgObject': {}, 'id': 'fruitsalad', 'src': '/static/foodstim60/fruitsalad.jpg', 'key': 'i', 'origWidth': 410, 'origHeight': 410, 'width': 410, 'height': 410, 'widthPercent': 0.45, 'rescaleHeight': False, 'trialN': 14, 'loaded': True, 'loadedTime': 5689.5, 'positionName': 'RIGHT', 'positionCoords': [998.4, 335], 'bid': 5.88}]",39082.5,1669830417088,hotdog w must,fruitsalad,7.23,5.88,-1.3500000000000005,fruitsalad,1729.9000000022352,1731,1730.1000000014901,True,i,41318.5,2236.0,1669830419324,2236,HRV,HRV_0039,2022-11-30 17:54:41
15,"[{'imgObject': {}, 'id': 'banana', 'src': '/static/foodstim60/banana.jpg', 'key': 'u', 'origWidth': 410, 'origHeight': 410, 'width': 410, 'height': 410, 'widthPercent': 0.45, 'rescaleHeight': False, 'trialN': 15, 'loaded': True, 'loadedTime': 5694.800000000745, 'positionName': 'LEFT', 'positionCoords': [511.6, 335], 'bid': 8.040000000000001}, {'imgObject': {}, 'id': 'burger', 'src': '/static/foodstim60/burger.jpg', 'key': 'i', 'origWidth': 409, 'origHeight': 409, 'width': 409, 'height': 409, 'widthPercent': 0.45, 'rescaleHeight': False, 'trialN': 15, 'loaded': True, 'loadedTime': 5714.60000000149, 'positionName': 'RIGHT', 'positionCoords': [998.4, 335.5], 'bid': 8.700000000000001}]",41318.60000000149,1669830419325,banana,burger,8.040000000000001,8.700000000000001,0.6600000000000001,banana,2550.300000000745,2550,2550.60000000149,True,u,44384.20000000298,3065.60000000149,1669830422390,3065,HRV,HRV_0039,2022-11-30 17:54:41
16,"[{'imgObject': {}, 'id': 'froot loops w milk', 'src': '/static/foodstim60/froot loops w milk.jpg', 'key': 'u', 'origWidth': 410, 'origHeight': 410, 'width': 410, 'height': 410, 'widthPercent': 0.45, 'rescaleHeight': False, 'trialN': 16, 'loaded': True, 'loadedTime': 5744.70000000298, 'positionName': 'LEFT', 'positionCoords': [511.6, 335], 'bid': 7.55}, {'imgObject': {}, 'id': 'chicken nuggets2', 'src': '/static/foodstim60/chicken nuggets2.jpg', 'key': 'i', 'origWidth': 410, 'origHeight': 409, 'width': 410, 'height': 409, 'widthPercent': 0.45, 'rescaleHeight': False, 'trialN': 16, 'loaded': True, 'loadedTime': 5772.10000000149, 'positionName': 'RIGHT', 'positionCoords': [998.4, 335.5], 'bid': 8.44}]",44384.300000000745,1669830422390,froot loops w milk,chicken nuggets2,7.55,8.44,0.8899999999999997,froot loops w milk,2497.400000002235,2498,2497.699999999255,True,u,47398.300000000745,3014.0,1669830425404,3014,HRV,HRV_0039,2022-11-30 17:54:41
17,"[{'imgObject': {}, 'id': 'turkey sandwich', 'src': '/static/foodstim60/turkey sandwich.jpg', 'key': 'u', 'origWidth': 409, 'origHeight': 409, 'width': 409, 'height': 409, 'widthPercent': 0.45, 'rescaleHeight': False, 'trialN': 17, 'loaded': True, 'loadedTime': 5623.10000000149, 'positionName': 'LEFT', 'positionCoords': [512.6, 335.5], 'bid': 9.09}, {'imgObject': {}, 'id': 'baked potato', 'src': '/static/foodstim60/baked potato.jpg', 'key': 'i', 'origWidth': 409, 'origHeight': 410, 'width': 409, 'height': 410, 'widthPercent': 0.45, 'rescaleHeight': False, 'trialN': 17, 'loaded': True, 'loadedTime': 5531.20000000298, 'positionName': 'RIGHT', 'positionCoords': [998.4, 335], 'bid': 8.27}]",47398.5,1669830425404,turkey sandwich,baked potato,9.09,8.27,-0.8200000000000003,turkey sandwich,3061.7000000029802,3062,3062.0,True,u,50980.20000000298,3581.7000000029802,1669830428986,3582,HRV,HRV_0039,2022-11-30 17:54:41
18,"[{'imgObject': {}, 'id': 'cherries', 'src': '/static/foodstim60/cherries.jpg', 'key': 'u', 'origWidth': 410, 'origHeight': 411, 'width': 410, 'height': 411, 'widthPercent': 0.45, 'rescaleHeight': False, 'trialN': 18, 'loaded': True, 'loadedTime': 5784, 'positionName': 'LEFT', 'positionCoords': [511.6, 334.5], 'bid': 0.34}, {'imgObject': {}, 'id': 'hashbrowns', 'src': '/static/foodstim60/hashbrowns.jpg', 'key': 'i', 'origWidth': 411, 'origHeight': 410, 'width': 411, 'height': 410, 'widthPercent': 0.45, 'rescaleHeight': False, 'trialN': 18, 'loaded': True, 'loadedTime': 5808.5, 'positionName': 'RIGHT', 'positionCoords': [998.4, 335], 'bid': 4.97}]",50980.400000002235,1669830428986,cherries,hashbrowns,0.34,4.97,4.63,hashbrowns,2124,2125,2124.300000000745,True,i,53617.900000002235,2637.5,1669830431624,2638,HRV,HRV_0039,2022-11-30 17:54:41
19,"[{'imgObject': {}, 'id': 'luckycharms', 'src': '/static/foodstim60/luckycharms.jpg', 'key': 'u', 'origWidth': 410, 'origHeight': 409, 'width': 410, 'height': 409, 'widthPercent': 0.45, 'rescaleHeight': False, 'trialN': 19, 'loaded': True, 'loadedTime': 5498.20000000298, 'positionName': 'LEFT', 'positionCoords': [511.6, 335.5], 'bid': 6.25}, {'imgObject': {}, 'id': 'raspberries', 'src': '/static/foodstim60/raspberries.jpg', 'key': 'i', 'origWidth': 411, 'origHeight': 411, 'width': 411, 'height': 411, 'widthPercent': 0.45, 'rescaleHeight': False, 'trialN': 19, 'loaded': True, 'loadedTime': 5832.900000002235, 'positionName': 'RIGHT', 'positionCoords': [998.4, 334.5], 'bid': 7.640000000000001}]",53618.0,1669830431624,luckycharms,raspberries,6.25,7.640000000000001,1.3900000000000006,luckycharms,1204.7000000029802,1205,1205.1000000014901,True,u,55331.0,1713.0,1669830433337,1713,HRV,HRV_0039,2022-11-30 17:54:41
20,"[{'imgObject': {}, 'id': 'turkeysandwich', 'src': '/static/foodstim60/turkeysandwich.jpg', 'key': 'u', 'origWidth': 409, 'origHeight': 409, 'width': 409, 'height': 409, 'widthPercent': 0.45, 'rescaleHeight': False, 'trialN': 20, 'loaded': True, 'loadedTime': 5844.900000002235, 'positionName': 'LEFT', 'positionCoords': [512.6, 335.5], 'bid': 7.91}, {'imgObject': {}, 'id': 'grilled chicken strips', 'src': '/static/foodstim60/grilled chicken strips.jpg', 'key': 'i', 'origWidth': 410, 'origHeight': 411, 'width': 410, 'height': 411, 'widthPercent': 0.45, 'rescaleHeight': False, 'trialN': 20, 'loaded': True, 'loadedTime': 5351.5, 'positionName': 'RIGHT', 'positionCoords': [998.4, 334.5], 'bid': 7.96}]",55331.0,1669830433337,turkeysandwich,grilled chicken strips,7.91,7.96,0.04999999999999982,grilled chicken strips,1992.5,1993,1992.7000000029802,True,i,57837.300000000745,2506.300000000745,1669830435843,2506,HRV,HRV_0039,2022-11-30 17:54:41
21,"[{'imgObject': {}, 'id': 'mashed potato', 'src': '/static/foodstim60/mashed potato.jpg', 'key': 'u', 'origWidth': 409, 'origHeight': 409, 'width': 409, 'height': 409, 'widthPercent': 0.45, 'rescaleHeight': False, 'trialN': 21, 'loaded': True, 'loadedTime': 5639.400000002235, 'positionName': 'LEFT', 'positionCoords': [512.6, 335.5], 'bid': 8.03}, {'imgObject': {}, 'id': 'chickenfingers', 'src': '/static/foodstim60/chickenfingers.jpg', 'key': 'i', 'origWidth': 410, 'origHeight': 410, 'width': 410, 'height': 410, 'widthPercent': 0.45, 'rescaleHeight': False, 'trialN': 21, 'loaded': True, 'loadedTime': 5850.300000000745, 'positionName': 'RIGHT', 'positionCoords': [998.4, 335], 'bid': 8.69}]",57837.400000002235,1669830435843,mashed potato,chickenfingers,8.03,8.69,0.6600000000000001,chickenfingers,2206.89999999851,2208,2207.199999999255,True,i,60550.0,2712.599999997765,1669830438556,2713,HRV,HRV_0039,2022-11-30 17:54:41
22,"[{'imgObject': {}, 'id': 'sushi w_condiments', 'src': '/static/foodstim60/sushi w_condiments.jpg', 'key': 'u', 'origWidth': 410, 'origHeight': 410, 'width': 410, 'height': 410, 'widthPercent': 0.45, 'rescaleHeight': False, 'trialN': 22, 'loaded': True, 'loadedTime': 5417.300000000745, 'positionName': 'LEFT', 'positionCoords': [511.6, 335], 'bid': 0.06}, {'imgObject': {}, 'id': 'seaweed', 'src': '/static/foodstim60/seaweed.jpg', 'key': 'i', 'origWidth': 410, 'origHeight': 410, 'width': 410, 'height': 410, 'widthPercent': 0.45, 'rescaleHeight': False, 'trialN': 22, 'loaded': True, 'loadedTime': 5858, 'positionName': 'RIGHT', 'positionCoords': [998.4, 335], 'bid': 0}]",60550.10000000149,1669830438556,sushi w_condiments,seaweed,0.06,0.0,-0.06,sushi w_condiments,1604.1000000014901,1604,1604.3999999985099,True,u,62674.400000002235,2124.300000000745,1669830440680,2124,HRV,HRV_0039,2022-11-30 17:54:41
23,"[{'imgObject': {}, 'id': 'popsicles', 'src': '/static/foodstim60/popsicles.jpg', 'key': 'u', 'origWidth': 410, 'origHeight': 410, 'width': 410, 'height': 410, 'widthPercent': 0.45, 'rescaleHeight': False, 'trialN': 23, 'loaded': True, 'loadedTime': 6098.70000000298, 'positionName': 'LEFT', 'positionCoords': [511.6, 335], 'bid': 5.26}, {'imgObject': {}, 'id': 'cantaloupe', 'src': '/static/foodstim60/cantaloupe.jpg', 'key': 'i', 'origWidth': 409, 'origHeight': 409, 'width': 409, 'height': 409, 'widthPercent': 0.45, 'rescaleHeight': False, 'trialN': 23, 'loaded': True, 'loadedTime': 5888.400000002235, 'positionName': 'RIGHT', 'positionCoords': [998.4, 335.5], 'bid': 5.43}]",62674.60000000149,1669830440680,popsicles,cantaloupe,5.26,5.43,0.16999999999999993,cantaloupe,1590.6000000014901,1591,1590.800000000745,True,i,64780.10000000149,2105.5,1669830442786,2106,HRV,HRV_0039,2022-11-30 17:54:41
24,"[{'imgObject': {}, 'id': 'mango', 'src': '/static/foodstim60/mango.jpg', 'key': 'u', 'origWidth': 411, 'origHeight': 411, 'width': 411, 'height': 411, 'widthPercent': 0.45, 'rescaleHeight': False, 'trialN': 24, 'loaded': True, 'loadedTime': 5899.900000002235, 'positionName': 'LEFT', 'positionCoords': [510.6, 334.5], 'bid': 0.89}, {'imgObject': {}, 'id': 'kiwi', 'src': '/static/foodstim60/kiwi.jpg', 'key': 'i', 'origWidth': 410, 'origHeight': 410, 'width': 410, 'height': 410, 'widthPercent': 0.45, 'rescaleHeight': False, 'trialN': 24, 'loaded': True, 'loadedTime': 5288.5, 'positionName': 'RIGHT', 'positionCoords': [998.4, 335], 'bid': 0.86}]",64780.20000000298,1669830442786,mango,kiwi,0.89,0.86,-0.030000000000000027,kiwi,2623.2999999970198,2624,2623.699999999255,True,i,67922.40000000224,3142.199999999255,1669830445928,3142,HRV,HRV_0039,2022-11-30 17:54:41
25,"[{'imgObject': {}, 'id': 'omelette', 'src': '/static/foodstim60/omelette.jpg', 'key': 'u', 'origWidth': 410, 'origHeight': 409, 'width': 410, 'height': 409, 'widthPercent': 0.45, 'rescaleHeight': False, 'trialN': 25, 'loaded': True, 'loadedTime': 5369.20000000298, 'positionName': 'LEFT', 'positionCoords': [511.6, 335.5], 'bid': 7.71}, {'imgObject': {}, 'id': 'eggs', 'src': '/static/foodstim60/eggs.jpg', 'key': 'i', 'origWidth': 409, 'origHeight': 409, 'width': 409, 'height': 409, 'widthPercent': 0.45, 'rescaleHeight': False, 'trialN': 25, 'loaded': True, 'loadedTime': 5908.400000002235, 'positionName': 'RIGHT', 'positionCoords': [998.4, 335.5], 'bid': 8.72}]",67922.60000000149,1669830445928,omelette,eggs,7.71,8.72,1.0100000000000007,omelette,2453.699999999255,2454,2453.89999999851,True,u,70890.20000000298,2967.60000000149,1669830448896,2968,HRV,HRV_0039,2022-11-30 17:54:41
26,"[{'imgObject': {}, 'id': 'popsicles', 'src': '/static/foodstim60/popsicles.jpg', 'key': 'u', 'origWidth': 410, 'origHeight': 410, 'width': 410, 'height': 410, 'widthPercent': 0.45, 'rescaleHeight': False, 'trialN': 26, 'loaded': True, 'loadedTime': 6098.800000000745, 'positionName': 'LEFT', 'positionCoords': [511.6, 335], 'bid': 5.26}, {'imgObject': {}, 'id': 'eggsalad', 'src': '/static/foodstim60/eggsalad.jpg', 'key': 'i', 'origWidth': 410, 'origHeight': 409, 'width': 410, 'height': 409, 'widthPercent': 0.45, 'rescaleHeight': False, 'trialN': 26, 'loaded': True, 'loadedTime': 5488.400000002235, 'positionName': 'RIGHT', 'positionCoords': [998.4, 335.5], 'bid': 6.97}]",70890.30000000075,1669830448896,popsicles,eggsalad,5.26,6.97,1.71,eggsalad,2112,2112,2112.300000000745,True,i,73523.80000000075,2633.5,1669830451530,2634,HRV,HRV_0039,2022-11-30 17:54:41
27,"[{'imgObject': {}, 'id': 'corn cob', 'src': '/static/foodstim60/corn cob.jpg', 'key': 'u', 'origWidth': 411, 'origHeight': 411, 'width': 411, 'height': 411, 'widthPercent': 0.45, 'rescaleHeight': False, 'trialN': 27, 'loaded': True, 'loadedTime': 5921, 'positionName': 'LEFT', 'positionCoords': [510.6, 334.5], 'bid': 7.69}, {'imgObject': {}, 'id': 'chickenfingers', 'src': '/static/foodstim60/chickenfingers.jpg', 'key': 'i', 'origWidth': 410, 'origHeight': 410, 'width': 410, 'height': 410, 'widthPercent': 0.45, 'rescaleHeight': False, 'trialN': 27, 'loaded': True, 'loadedTime': 5846.60000000149, 'positionName': 'RIGHT', 'positionCoords': [998.4, 335], 'bid': 8.69}]",73524.0,1669830451530,corn cob,chickenfingers,7.69,8.69,0.9999999999999991,chickenfingers,2200.300000000745,2201,2200.7000000029802,True,i,76239.30000000075,2715.300000000745,1669830454245,2715,HRV,HRV_0039,2022-11-30 17:54:41
28,"[{'imgObject': {}, 'id': 'raspberries', 'src': '/static/foodstim60/raspberries.jpg', 'key': 'u', 'origWidth': 411, 'origHeight': 411, 'width': 411, 'height': 411, 'widthPercent': 0.45, 'rescaleHeight': False, 'trialN': 28, 'loaded': True, 'loadedTime': 5816.800000000745, 'positionName': 'LEFT', 'positionCoords': [510.6, 334.5], 'bid': 7.640000000000001}, {'imgObject': {}, 'id': 'fried eggs', 'src': '/static/foodstim60/fried eggs.jpg', 'key': 'i', 'origWidth': 410, 'origHeight': 410, 'width': 410, 'height': 410, 'widthPercent': 0.45, 'rescaleHeight': False, 'trialN': 28, 'loaded': True, 'loadedTime': 5930.60000000149, 'positionName': 'RIGHT', 'positionCoords': [998.4, 335], 'bid': 7.46}]",76239.40000000224,1669830454245,raspberries,fried eggs,7.640000000000001,7.46,-0.1800000000000006,fried eggs,1327.199999999255,1328,1327.5,True,i,78081.40000000224,1842.0,1669830456087,1842,HRV,HRV_0039,2022-11-30 17:54:41
29,"[{'imgObject': {}, 'id': 'roastedpotatoes', 'src': '/static/foodstim60/roastedpotatoes.jpg', 'key': 'u', 'origWidth': 409, 'origHeight': 410, 'width': 409, 'height': 410, 'widthPercent': 0.45, 'rescaleHeight': False, 'trialN': 29, 'loaded': True, 'loadedTime': 5946.70000000298, 'positionName': 'LEFT', 'positionCoords': [512.6, 335], 'bid': 9.29}, {'imgObject': {}, 'id': 'mac & cheese', 'src': '/static/foodstim60/mac & cheese.jpg', 'key': 'i', 'origWidth': 410, 'origHeight': 410, 'width': 410, 'height': 410, 'widthPercent': 0.45, 'rescaleHeight': False, 'trialN': 29, 'loaded': True, 'loadedTime': 5951.60000000149, 'positionName': 'RIGHT', 'positionCoords': [998.4, 335], 'bid': 9.18}]",78081.60000000149,1669830456087,roastedpotatoes,mac & cheese,9.29,9.18,-0.10999999999999943,mac & cheese,1895.5,1896,1895.699999999255,True,i,80493.5,2411.89999999851,1669830458499,2412,HRV,HRV_0039,2022-11-30 17:54:41
30,"[{'imgObject': {}, 'id': 'raisin bran w milk', 'src': '/static/foodstim60/raisin bran w milk.jpg', 'key': 'u', 'origWidth': 411, 'origHeight': 411, 'width': 411, 'height': 411, 'widthPercent': 0.45, 'rescaleHeight': False, 'trialN': 30, 'loaded': True, 'loadedTime': 5979.10000000149, 'positionName': 'LEFT', 'positionCoords': [510.6, 334.5], 'bid': 1.33}, {'imgObject': {}, 'id': 'salmon', 'src': '/static/foodstim60/salmon.jpg', 'key': 'i', 'origWidth': 410, 'origHeight': 409, 'width': 410, 'height': 409, 'widthPercent': 0.45, 'rescaleHeight': False, 'trialN': 30, 'loaded': True, 'loadedTime': 5334.10000000149, 'positionName': 'RIGHT', 'positionCoords': [998.4, 335.5], 'bid': 0.98}]",80493.60000000149,1669830458499,raisin bran w milk,salmon,1.33,0.98,-0.3500000000000001,raisin bran w milk,1912.6000000014901,1913,1912.800000000745,True,u,82911.90000000224,2418.300000000745,1669830460918,2419,HRV,HRV_0039,2022-11-30 17:54:41
31,"[{'imgObject': {}, 'id': 'cheerios', 'src': '/static/foodstim60/cheerios.jpg', 'key': 'u', 'origWidth': 409, 'origHeight': 410, 'width': 409, 'height': 410, 'widthPercent': 0.45, 'rescaleHeight': False, 'trialN': 31, 'loaded': True, 'loadedTime': 5459.5, 'positionName': 'LEFT', 'positionCoords': [512.6, 335], 'bid': 4.28}, {'imgObject': {}, 'id': 'hashbrowns', 'src': '/static/foodstim60/hashbrowns.jpg', 'key': 'i', 'origWidth': 411, 'origHeight': 410, 'width': 411, 'height': 410, 'widthPercent': 0.45, 'rescaleHeight': False, 'trialN': 31, 'loaded': True, 'loadedTime': 5808.300000000745, 'positionName': 'RIGHT', 'positionCoords': [998.4, 335], 'bid': 4.97}]",82912.0,1669830460918,cheerios,hashbrowns,4.28,4.97,0.6899999999999995,cheerios,2010.300000000745,2010,2010.6000000014901,True,u,85433.80000000075,2521.800000000745,1669830463440,2522,HRV,HRV_0039,2022-11-30 17:54:41
32,"[{'imgObject': {}, 'id': 'pear', 'src': '/static/foodstim60/pear.jpg', 'key': 'u', 'origWidth': 411, 'origHeight': 410, 'width': 411, 'height': 410, 'widthPercent': 0.45, 'rescaleHeight': False, 'trialN': 32, 'loaded': True, 'loadedTime': 5984, 'positionName': 'LEFT', 'positionCoords': [510.6, 335], 'bid': 5.47}, {'imgObject': {}, 'id': 'Tribe humus pita', 'src': '/static/foodstim60/Tribe humus pita.jpg', 'key': 'i', 'origWidth': 411, 'origHeight': 411, 'width': 411, 'height': 411, 'widthPercent': 0.45, 'rescaleHeight': False, 'trialN': 32, 'loaded': True, 'loadedTime': 5992.60000000149, 'positionName': 'RIGHT', 'positionCoords': [998.4, 334.5], 'bid': 5.73}]",85433.80000000075,1669830463440,pear,Tribe humus pita,5.47,5.73,0.2600000000000007,Tribe humus pita,3492.699999999255,3493,3492.900000002235,True,i,89438.60000000149,4004.800000000745,1669830467445,4005,HRV,HRV_0039,2022-11-30 17:54:41
33,"[{'imgObject': {}, 'id': 'hashbrowns', 'src': '/static/foodstim60/hashbrowns.jpg', 'key': 'u', 'origWidth': 411, 'origHeight': 410, 'width': 411, 'height': 410, 'widthPercent': 0.45, 'rescaleHeight': False, 'trialN': 33, 'loaded': True, 'loadedTime': 5808.10000000149, 'positionName': 'LEFT', 'positionCoords': [510.6, 335], 'bid': 4.97}, {'imgObject': {}, 'id': 'kiwi', 'src': '/static/foodstim60/kiwi.jpg', 'key': 'i', 'origWidth': 410, 'origHeight': 410, 'width': 410, 'height': 410, 'widthPercent': 0.45, 'rescaleHeight': False, 'trialN': 33, 'loaded': True, 'loadedTime': 5304.900000002235, 'positionName': 'RIGHT', 'positionCoords': [998.4, 335], 'bid': 0.86}]",89438.80000000075,1669830467445,hashbrowns,kiwi,4.97,0.86,-4.109999999999999,kiwi,3422.5,3423,3423.0,True,i,93377.60000000149,3938.800000000745,1669830471383,3938,HRV,HRV_0039,2022-11-30 17:54:41
34,"[{'imgObject': {}, 'id': 'roastedpotatoes', 'src': '/static/foodstim60/roastedpotatoes.jpg', 'key': 'u', 'origWidth': 409, 'origHeight': 410, 'width': 409, 'height': 410, 'widthPercent': 0.45, 'rescaleHeight': False, 'trialN': 34, 'loaded': True, 'loadedTime': 5941.800000000745, 'positionName': 'LEFT', 'positionCoords': [512.6, 335], 'bid': 9.29}, {'imgObject': {}, 'id': 'burrito', 'src': '/static/foodstim60/burrito.jpg', 'key': 'i', 'origWidth': 410, 'origHeight': 410, 'width': 410, 'height': 410, 'widthPercent': 0.45, 'rescaleHeight': False, 'trialN': 34, 'loaded': True, 'loadedTime': 6001.70000000298, 'positionName': 'RIGHT', 'positionCoords': [998.4, 335], 'bid': 9.31}]",93377.80000000075,1669830471384,roastedpotatoes,burrito,9.29,9.31,0.02000000000000135,roastedpotatoes,2487.400000002235,2487,2487.800000000745,True,u,96373.60000000149,2995.800000000745,1669830474379,2995,HRV,HRV_0039,2022-11-30 17:54:41
35,"[{'imgObject': {}, 'id': 'seaweed', 'src': '/static/foodstim60/seaweed.jpg', 'key': 'u', 'origWidth': 410, 'origHeight': 410, 'width': 410, 'height': 410, 'widthPercent': 0.45, 'rescaleHeight': False, 'trialN': 35, 'loaded': True, 'loadedTime': 5875.5, 'positionName': 'LEFT', 'positionCoords': [511.6, 335], 'bid': 0}, {'imgObject': {}, 'id': 'ice cream sundae 002', 'src': '/static/foodstim60/ice cream sundae 002.jpg', 'key': 'i', 'origWidth': 409, 'origHeight': 409, 'width': 409, 'height': 409, 'widthPercent': 0.45, 'rescaleHeight': False, 'trialN': 35, 'loaded': True, 'loadedTime': 5631.70000000298, 'positionName': 'RIGHT', 'positionCoords': [998.4, 335.5], 'bid': 0.08}]",96373.80000000075,1669830474380,seaweed,ice cream sundae 002,0.0,0.08,0.08,ice cream sundae 002,1839.300000000745,1839,1839.5,True,i,98719.90000000224,2346.10000000149,1669830476726,2346,HRV,HRV_0039,2022-11-30 17:54:41
36,"[{'imgObject': {}, 'id': 'blueberries', 'src': '/static/foodstim60/blueberries.jpg', 'key': 'u', 'origWidth': 411, 'origHeight': 411, 'width': 411, 'height': 411, 'widthPercent': 0.45, 'rescaleHeight': False, 'trialN': 36, 'loaded': True, 'loadedTime': 6018.20000000298, 'positionName': 'LEFT', 'positionCoords': [510.6, 334.5], 'bid': 0.88}, {'imgObject': {}, 'id': 'cherries', 'src': '/static/foodstim60/cherries.jpg', 'key': 'i', 'origWidth': 410, 'origHeight': 411, 'width': 410, 'height': 411, 'widthPercent': 0.45, 'rescaleHeight': False, 'trialN': 36, 'loaded': True, 'loadedTime': 5780.400000002235, 'positionName': 'RIGHT', 'positionCoords': [998.4, 334.5], 'bid': 0.34}]",98720.10000000149,1669830476726,blueberries,cherries,0.88,0.34,-0.54,blueberries,2421.300000000745,2422,2421.5,True,u,101656.80000000075,2936.699999999255,1669830479663,2937,HRV,HRV_0039,2022-11-30 17:54:41
37,"[{'imgObject': {}, 'id': 'fruitsalad', 'src': '/static/foodstim60/fruitsalad.jpg', 'key': 'u', 'origWidth': 410, 'origHeight': 410, 'width': 410, 'height': 410, 'widthPercent': 0.45, 'rescaleHeight': False, 'trialN': 37, 'loaded': True, 'loadedTime': 5689.70000000298, 'positionName': 'LEFT', 'positionCoords': [511.6, 335], 'bid': 5.88}, {'imgObject': {}, 'id': 'turkey sandwich', 'src': '/static/foodstim60/turkey sandwich.jpg', 'key': 'i', 'origWidth': 409, 'origHeight': 409, 'width': 409, 'height': 409, 'widthPercent': 0.45, 'rescaleHeight': False, 'trialN': 37, 'loaded': True, 'loadedTime': 5607, 'positionName': 'RIGHT', 'positionCoords': [998.4, 335.5], 'bid': 9.09}]",101656.90000000224,1669830479663,fruitsalad,turkey sandwich,5.88,9.09,3.21,turkey sandwich,1896.8999999985099,1897,1897.0999999977648,True,i,104070.20000000298,2413.300000000745,1669830482076,2413,HRV,HRV_0039,2022-11-30 17:54:41
38,"[{'imgObject': {}, 'id': 'banana', 'src': '/static/foodstim60/banana.jpg', 'key': 'u', 'origWidth': 410, 'origHeight': 410, 'width': 410, 'height': 410, 'widthPercent': 0.45, 'rescaleHeight': False, 'trialN': 38, 'loaded': True, 'loadedTime': 5708.900000002235, 'positionName': 'LEFT', 'positionCoords': [511.6, 335], 'bid': 8.040000000000001}, {'imgObject': {}, 'id': 'mashed potato', 'src': '/static/foodstim60/mashed potato.jpg', 'key': 'i', 'origWidth': 409, 'origHeight': 409, 'width': 409, 'height': 409, 'widthPercent': 0.45, 'rescaleHeight': False, 'trialN': 38, 'loaded': True, 'loadedTime': 5644.10000000149, 'positionName': 'RIGHT', 'positionCoords': [998.4, 335.5], 'bid': 8.03}]",104070.40000000224,1669830482076,banana,mashed potato,8.040000000000001,8.03,-0.010000000000001563,mashed potato,2268.39999999851,2269,2268.800000000745,True,i,106856.80000000075,2786.39999999851,1669830484863,2787,HRV,HRV_0039,2022-11-30 17:54:41
39,"[{'imgObject': {}, 'id': 'turkeysandwich', 'src': '/static/foodstim60/turkeysandwich.jpg', 'key': 'u', 'origWidth': 409, 'origHeight': 409, 'width': 409, 'height': 409, 'widthPercent': 0.45, 'rescaleHeight': False, 'trialN': 39, 'loaded': True, 'loadedTime': 5841.20000000298, 'positionName': 'LEFT', 'positionCoords': [512.6, 335.5], 'bid': 7.91}, {'imgObject': {}, 'id': 'rigatoni', 'src': '/static/foodstim60/rigatoni.jpg', 'key': 'i', 'origWidth': 411, 'origHeight': 411, 'width': 411, 'height': 411, 'widthPercent': 0.45, 'rescaleHeight': False, 'trialN': 39, 'loaded': True, 'loadedTime': 6023.300000000745, 'positionName': 'RIGHT', 'positionCoords': [998.4, 334.5], 'bid': 8.13}]",106856.90000000224,1669830484863,turkeysandwich,rigatoni,7.91,8.13,0.22000000000000064,rigatoni,2394.89999999851,2395,2395.099999997765,True,i,109757.10000000149,2900.199999999255,1669830487763,2900,HRV,HRV_0039,2022-11-30 17:54:41
40,"[{'imgObject': {}, 'id': 'rigatoni and sauce', 'src': '/static/foodstim60/rigatoni and sauce.jpg', 'key': 'u', 'origWidth': 410, 'origHeight': 411, 'width': 410, 'height': 411, 'widthPercent': 0.45, 'rescaleHeight': False, 'trialN': 40, 'loaded': True, 'loadedTime': 6032.10000000149, 'positionName': 'LEFT', 'positionCoords': [511.6, 334.5], 'bid': 8.83}, {'imgObject': {}, 'id': 'eggs', 'src': '/static/foodstim60/eggs.jpg', 'key': 'i', 'origWidth': 409, 'origHeight': 409, 'width': 409, 'height': 409, 'widthPercent': 0.45, 'rescaleHeight': False, 'trialN': 40, 'loaded': True, 'loadedTime': 5917, 'positionName': 'RIGHT', 'positionCoords': [998.4, 335.5], 'bid': 8.72}]",109757.20000000298,1669830487763,rigatoni and sauce,eggs,8.83,8.72,-0.10999999999999943,rigatoni and sauce,1737.199999999255,1737,1737.3999999985099,True,u,112007.0,2249.7999999970198,1669830490013,2250,HRV,HRV_0039,2022-11-30 17:54:41
41,"[{'imgObject': {}, 'id': 'popsicles', 'src': '/static/foodstim60/popsicles.jpg', 'key': 'u', 'origWidth': 410, 'origHeight': 410, 'width': 410, 'height': 410, 'widthPercent': 0.45, 'rescaleHeight': False, 'trialN': 41, 'loaded': True, 'loadedTime': 6099, 'positionName': 'LEFT', 'positionCoords': [511.6, 335], 'bid': 5.26}, {'imgObject': {}, 'id': 'pear', 'src': '/static/foodstim60/pear.jpg', 'key': 'i', 'origWidth': 411, 'origHeight': 410, 'width': 411, 'height': 410, 'widthPercent': 0.45, 'rescaleHeight': False, 'trialN': 41, 'loaded': True, 'loadedTime': 5987.60000000149, 'positionName': 'RIGHT', 'positionCoords': [998.4, 335], 'bid': 5.47}]",112007.20000000298,1669830490013,popsicles,pear,5.26,5.47,0.20999999999999996,popsicles,2585.2999999970198,2586,2585.599999997765,True,u,115102.5,3095.2999999970198,1669830493108,3095,HRV,HRV_0039,2022-11-30 17:54:41
42,"[{'imgObject': {}, 'id': 'rigatoni', 'src': '/static/foodstim60/rigatoni.jpg', 'key': 'u', 'origWidth': 411, 'origHeight': 411, 'width': 411, 'height': 411, 'widthPercent': 0.45, 'rescaleHeight': False, 'trialN': 42, 'loaded': True, 'loadedTime': 6027, 'positionName': 'LEFT', 'positionCoords': [510.6, 334.5], 'bid': 8.13}, {'imgObject': {}, 'id': 'raisin bran w milk', 'src': '/static/foodstim60/raisin bran w milk.jpg', 'key': 'i', 'origWidth': 411, 'origHeight': 411, 'width': 411, 'height': 411, 'widthPercent': 0.45, 'rescaleHeight': False, 'trialN': 42, 'loaded': True, 'loadedTime': 5972, 'positionName': 'RIGHT', 'positionCoords': [998.4, 334.5], 'bid': 1.33}]",115102.70000000298,1669830493108,rigatoni,raisin bran w milk,8.13,1.33,-6.800000000000001,rigatoni,2631.89999999851,2633,2632.099999997765,True,u,118251.20000000298,3148.5,1669830496257,3149,HRV,HRV_0039,2022-11-30 17:54:41
43,"[{'imgObject': {}, 'id': 'mac & cheese', 'src': '/static/foodstim60/mac & cheese.jpg', 'key': 'u', 'origWidth': 410, 'origHeight': 410, 'width': 410, 'height': 410, 'widthPercent': 0.45, 'rescaleHeight': False, 'trialN': 43, 'loaded': True, 'loadedTime': 5951.70000000298, 'positionName': 'LEFT', 'positionCoords': [511.6, 335], 'bid': 9.18}, {'imgObject': {}, 'id': 'chickenfingers', 'src': '/static/foodstim60/chickenfingers.jpg', 'key': 'i', 'origWidth': 410, 'origHeight': 410, 'width': 410, 'height': 410, 'widthPercent': 0.45, 'rescaleHeight': False, 'trialN': 43, 'loaded': True, 'loadedTime': 5854.20000000298, 'positionName': 'RIGHT', 'positionCoords': [998.4, 335], 'bid': 8.69}]",118251.30000000075,1669830496257,mac & cheese,chickenfingers,9.18,8.69,-0.4900000000000002,mac & cheese,3353.800000000745,3354,3354.10000000149,True,u,122116.40000000224,3865.10000000149,1669830500122,3865,HRV,HRV_0039,2022-11-30 17:54:41
44,"[{'imgObject': {}, 'id': 'edamame', 'src': '/static/foodstim60/edamame.jpg', 'key': 'u', 'origWidth': 409, 'origHeight': 410, 'width': 409, 'height': 410, 'widthPercent': 0.45, 'rescaleHeight': False, 'trialN': 44, 'loaded': True, 'loadedTime': 6045.10000000149, 'positionName': 'LEFT', 'positionCoords': [512.6, 335], 'bid': 1.19}, {'imgObject': {}, 'id': 'bagel and cc', 'src': '/static/foodstim60/bagel and cc.jpg', 'key': 'i', 'origWidth': 410, 'origHeight': 410, 'width': 410, 'height': 410, 'widthPercent': 0.45, 'rescaleHeight': False, 'trialN': 44, 'loaded': True, 'loadedTime': 5543.70000000298, 'positionName': 'RIGHT', 'positionCoords': [998.4, 335], 'bid': 8.11}]",122116.60000000149,1669830500122,edamame,bagel and cc,1.19,8.11,6.92,bagel and cc,1913.1000000014901,1914,1913.300000000745,True,i,124535.90000000224,2419.300000000745,1669830502542,2420,HRV,HRV_0039,2022-11-30 17:54:41
45,"[{'imgObject': {}, 'id': 'cocktailshrimp', 'src': '/static/foodstim60/cocktailshrimp.jpg', 'key': 'u', 'origWidth': 410, 'origHeight': 410, 'width': 410, 'height': 410, 'widthPercent': 0.45, 'rescaleHeight': False, 'trialN': 45, 'loaded': True, 'loadedTime': 6050.300000000745, 'positionName': 'LEFT', 'positionCoords': [511.6, 335], 'bid': 5.78}, {'imgObject': {}, 'id': 'eggsalad', 'src': '/static/foodstim60/eggsalad.jpg', 'key': 'i', 'origWidth': 410, 'origHeight': 409, 'width': 410, 'height': 409, 'widthPercent': 0.45, 'rescaleHeight': False, 'trialN': 45, 'loaded': True, 'loadedTime': 5477.70000000298, 'positionName': 'RIGHT', 'positionCoords': [998.4, 335.5], 'bid': 6.97}]",124535.90000000224,1669830502542,cocktailshrimp,eggsalad,5.78,6.97,1.1899999999999995,eggsalad,2288,2288,2288.300000000745,True,i,127332.30000000075,2796.39999999851,1669830505338,2796,HRV,HRV_0039,2022-11-30 17:54:41
46,"[{'imgObject': {}, 'id': 'blueberries', 'src': '/static/foodstim60/blueberries.jpg', 'key': 'u', 'origWidth': 411, 'origHeight': 411, 'width': 411, 'height': 411, 'widthPercent': 0.45, 'rescaleHeight': False, 'trialN': 46, 'loaded': True, 'loadedTime': 6022.20000000298, 'positionName': 'LEFT', 'positionCoords': [510.6, 334.5], 'bid': 0.88}, {'imgObject': {}, 'id': 'mango', 'src': '/static/foodstim60/mango.jpg', 'key': 'i', 'origWidth': 411, 'origHeight': 411, 'width': 411, 'height': 411, 'widthPercent': 0.45, 'rescaleHeight': False, 'trialN': 46, 'loaded': True, 'loadedTime': 5896.10000000149, 'positionName': 'RIGHT', 'positionCoords': [998.4, 334.5], 'bid': 0.89}]",127332.40000000224,1669830505338,blueberries,mango,0.88,0.89,0.010000000000000009,blueberries,1656.199999999255,1657,1656.5,True,u,129498.30000000075,2165.89999999851,1669830507504,2166,HRV,HRV_0039,2022-11-30 17:54:41
47,"[{'imgObject': {}, 'id': 'ice cream sundae 002', 'src': '/static/foodstim60/ice cream sundae 002.jpg', 'key': 'u', 'origWidth': 409, 'origHeight': 409, 'width': 409, 'height': 409, 'widthPercent': 0.45, 'rescaleHeight': False, 'trialN': 47, 'loaded': True, 'loadedTime': 5635.70000000298, 'positionName': 'LEFT', 'positionCoords': [512.6, 335.5], 'bid': 0.08}, {'imgObject': {}, 'id': 'salmon', 'src': '/static/foodstim60/salmon.jpg', 'key': 'i', 'origWidth': 410, 'origHeight': 409, 'width': 410, 'height': 409, 'widthPercent': 0.45, 'rescaleHeight': False, 'trialN': 47, 'loaded': True, 'loadedTime': 5344, 'positionName': 'RIGHT', 'positionCoords': [998.4, 335.5], 'bid': 0.98}]",129498.5,1669830507504,ice cream sundae 002,salmon,0.08,0.98,0.9,ice cream sundae 002,2211.5,2212,2211.800000000745,True,u,132217.80000000075,2719.300000000745,1669830510224,2720,HRV,HRV_0039,2022-11-30 17:54:41
48,"[{'imgObject': {}, 'id': 'raisin bran w milk', 'src': '/static/foodstim60/raisin bran w milk.jpg', 'key': 'u', 'origWidth': 411, 'origHeight': 411, 'width': 411, 'height': 411, 'widthPercent': 0.45, 'rescaleHeight': False, 'trialN': 48, 'loaded': True, 'loadedTime': 5967.70000000298, 'positionName': 'LEFT', 'positionCoords': [510.6, 334.5], 'bid': 1.33}, {'imgObject': {}, 'id': 'strawberries', 'src': '/static/foodstim60/strawberries.jpg', 'key': 'i', 'origWidth': 410, 'origHeight': 410, 'width': 410, 'height': 410, 'widthPercent': 0.45, 'rescaleHeight': False, 'trialN': 48, 'loaded': True, 'loadedTime': 6052.400000002235, 'positionName': 'RIGHT', 'positionCoords': [998.4, 335], 'bid': 6.44}]",132217.90000000224,1669830510224,raisin bran w milk,strawberries,1.33,6.44,5.11,strawberries,2805,2805,2805.199999999255,True,i,135529.90000000224,3312.0,1669830513536,3312,HRV,HRV_0039,2022-11-30 17:54:41
49,"[{'imgObject': {}, 'id': 'rigatoni and sauce', 'src': '/static/foodstim60/rigatoni and sauce.jpg', 'key': 'u', 'origWidth': 410, 'origHeight': 411, 'width': 410, 'height': 411, 'widthPercent': 0.45, 'rescaleHeight': False, 'trialN': 49, 'loaded': True, 'loadedTime': 6032.300000000745, 'positionName': 'LEFT', 'positionCoords': [511.6, 334.5], 'bid': 8.83}, {'imgObject': {}, 'id': 'rigatoni', 'src': '/static/foodstim60/rigatoni.jpg', 'key': 'i', 'origWidth': 411, 'origHeight': 411, 'width': 411, 'height': 411, 'widthPercent': 0.45, 'rescaleHeight': False, 'trialN': 49, 'loaded': True, 'loadedTime': 6023.400000002235, 'positionName': 'RIGHT', 'positionCoords': [998.4, 334.5], 'bid': 8.13}]",135530.1000000015,1669830513536,rigatoni and sauce,rigatoni,8.83,8.13,-0.6999999999999993,rigatoni and sauce,1547.5,1548,1547.8999999985099,True,u,137583.70000000298,2053.60000000149,1669830515590,2054,HRV,HRV_0039,2022-11-30 17:54:41
50,"[{'imgObject': {}, 'id': 'banana', 'src': '/static/foodstim60/banana.jpg', 'key': 'u', 'origWidth': 410, 'origHeight': 410, 'width': 410, 'height': 410, 'widthPercent': 0.45, 'rescaleHeight': False, 'trialN': 50, 'loaded': True, 'loadedTime': 5703.800000000745, 'positionName': 'LEFT', 'positionCoords': [511.6, 335], 'bid': 8.040000000000001}, {'imgObject': {}, 'id': 'salad w chicken', 'src': '/static/foodstim60/salad w chicken.jpg', 'key': 'i', 'origWidth': 411, 'origHeight': 411, 'width': 411, 'height': 411, 'widthPercent': 0.45, 'rescaleHeight': False, 'trialN': 50, 'loaded': True, 'loadedTime': 6057, 'positionName': 'RIGHT', 'positionCoords': [998.4, 334.5], 'bid': 8.35}]",137583.80000000075,1669830515590,banana,salad w chicken,8.040000000000001,8.35,0.3099999999999987,salad w chicken,1580.9000000022352,1581,1581.1000000014901,True,i,139678.30000000075,2094.5,1669830517684,2094,HRV,HRV_0039,2022-11-30 17:54:41
51,"[{'imgObject': {}, 'id': 'bagel and cc', 'src': '/static/foodstim60/bagel and cc.jpg', 'key': 'u', 'origWidth': 410, 'origHeight': 410, 'width': 410, 'height': 410, 'widthPercent': 0.45, 'rescaleHeight': False, 'trialN': 51, 'loaded': True, 'loadedTime': 5547.300000000745, 'positionName': 'LEFT', 'positionCoords': [511.6, 335], 'bid': 8.11}, {'imgObject': {}, 'id': 'yogurt no spoon', 'src': '/static/foodstim60/yogurt no spoon.jpg', 'key': 'i', 'origWidth': 411, 'origHeight': 410, 'width': 411, 'height': 410, 'widthPercent': 0.45, 'rescaleHeight': False, 'trialN': 51, 'loaded': True, 'loadedTime': 5403.800000000745, 'positionName': 'RIGHT', 'positionCoords': [998.4, 335], 'bid': 8.06}]",139678.5,1669830517684,bagel and cc,yogurt no spoon,8.11,8.06,-0.049999999999998934,bagel and cc,1901.1000000014901,1902,1901.6000000014901,True,u,142090.20000000298,2411.7000000029802,1669830520096,2412,HRV,HRV_0039,2022-11-30 17:54:41
52,"[{'imgObject': {}, 'id': 'strawberries', 'src': '/static/foodstim60/strawberries.jpg', 'key': 'u', 'origWidth': 410, 'origHeight': 410, 'width': 410, 'height': 410, 'widthPercent': 0.45, 'rescaleHeight': False, 'trialN': 52, 'loaded': True, 'loadedTime': 6050.900000002235, 'positionName': 'LEFT', 'positionCoords': [511.6, 335], 'bid': 6.44}, {'imgObject': {}, 'id': 'burrito', 'src': '/static/foodstim60/burrito.jpg', 'key': 'i', 'origWidth': 410, 'origHeight': 410, 'width': 410, 'height': 410, 'widthPercent': 0.45, 'rescaleHeight': False, 'trialN': 52, 'loaded': True, 'loadedTime': 6003, 'positionName': 'RIGHT', 'positionCoords': [998.4, 335], 'bid': 9.31}]",142090.30000000075,1669830520096,strawberries,burrito,6.44,9.31,2.87,burrito,1521.9000000022352,1522,1522.1000000014901,True,i,144118.20000000298,2027.9000000022352,1669830522124,2028,HRV,HRV_0039,2022-11-30 17:54:41
53,"[{'imgObject': {}, 'id': 'veggieswithdip', 'src': '/static/foodstim60/veggieswithdip.jpg', 'key': 'u', 'origWidth': 409, 'origHeight': 409, 'width': 409, 'height': 409, 'widthPercent': 0.45, 'rescaleHeight': False, 'trialN': 53, 'loaded': True, 'loadedTime': 5316.300000000745, 'positionName': 'LEFT', 'positionCoords': [512.6, 335.5], 'bid': 6.16}, {'imgObject': {}, 'id': 'salmon', 'src': '/static/foodstim60/salmon.jpg', 'key': 'i', 'origWidth': 410, 'origHeight': 409, 'width': 410, 'height': 409, 'widthPercent': 0.45, 'rescaleHeight': False, 'trialN': 53, 'loaded': True, 'loadedTime': 5337.300000000745, 'positionName': 'RIGHT', 'positionCoords': [998.4, 335.5], 'bid': 0.98}]",144118.30000000075,1669830522124,veggieswithdip,salmon,6.16,0.98,-5.18,veggieswithdip,1630.4000000022352,1631,1630.699999999255,True,u,146259.40000000224,2141.10000000149,1669830524265,2141,HRV,HRV_0039,2022-11-30 17:54:41
54,"[{'imgObject': {}, 'id': 'avocado', 'src': '/static/foodstim60/avocado.jpg', 'key': 'u', 'origWidth': 409, 'origHeight': 409, 'width': 409, 'height': 409, 'widthPercent': 0.45, 'rescaleHeight': False, 'trialN': 54, 'loaded': True, 'loadedTime': 5564.800000000745, 'positionName': 'LEFT', 'positionCoords': [512.6, 335.5], 'bid': 0.56}, {'imgObject': {}, 'id': 'sushi w_condiments', 'src': '/static/foodstim60/sushi w_condiments.jpg', 'key': 'i', 'origWidth': 410, 'origHeight': 410, 'width': 410, 'height': 410, 'widthPercent': 0.45, 'rescaleHeight': False, 'trialN': 54, 'loaded': True, 'loadedTime': 5430.5, 'positionName': 'RIGHT', 'positionCoords': [998.4, 335], 'bid': 0.06}]",146259.6000000015,1669830524265,avocado,sushi w_condiments,0.56,0.06,-0.5,avocado,1887.199999999255,1888,1887.3999999985099,True,u,148669.20000000298,2409.60000000149,1669830526675,2410,HRV,HRV_0039,2022-11-30 17:54:41
55,"[{'imgObject': {}, 'id': 'chicken nuggets2', 'src': '/static/foodstim60/chicken nuggets2.jpg', 'key': 'u', 'origWidth': 410, 'origHeight': 409, 'width': 410, 'height': 409, 'widthPercent': 0.45, 'rescaleHeight': False, 'trialN': 55, 'loaded': True, 'loadedTime': 5760.400000002235, 'positionName': 'LEFT', 'positionCoords': [511.6, 335.5], 'bid': 8.44}, {'imgObject': {}, 'id': 'chickenfingers', 'src': '/static/foodstim60/chickenfingers.jpg', 'key': 'i', 'origWidth': 410, 'origHeight': 410, 'width': 410, 'height': 410, 'widthPercent': 0.45, 'rescaleHeight': False, 'trialN': 55, 'loaded': True, 'loadedTime': 5845.300000000745, 'positionName': 'RIGHT', 'positionCoords': [998.4, 335], 'bid': 8.69}]",148669.40000000224,1669830526675,chicken nuggets2,chickenfingers,8.44,8.69,0.25,chicken nuggets2,2630.39999999851,2630,2630.599999997765,True,u,151812.0,3142.599999997765,1669830529817,3142,HRV,HRV_0039,2022-11-30 17:54:41
56,"[{'imgObject': {}, 'id': 'omelette', 'src': '/static/foodstim60/omelette.jpg', 'key': 'u', 'origWidth': 410, 'origHeight': 409, 'width': 410, 'height': 409, 'widthPercent': 0.45, 'rescaleHeight': False, 'trialN': 56, 'loaded': True, 'loadedTime': 5380.5, 'positionName': 'LEFT', 'positionCoords': [511.6, 335.5], 'bid': 7.71}, {'imgObject': {}, 'id': 'steak', 'src': '/static/foodstim60/steak.jpg', 'key': 'i', 'origWidth': 410, 'origHeight': 410, 'width': 410, 'height': 410, 'widthPercent': 0.45, 'rescaleHeight': False, 'trialN': 56, 'loaded': True, 'loadedTime': 6069.5, 'positionName': 'RIGHT', 'positionCoords': [998.4, 335], 'bid': 7.7}]",151812.1000000015,1669830529817,omelette,steak,7.71,7.7,-0.009999999999999787,omelette,1534.6000000014901,1535,1534.8999999985099,True,u,153859.20000000298,2047.1000000014901,1669830531864,2047,HRV,HRV_0039,2022-11-30 17:54:41
57,"[{'imgObject': {}, 'id': 'apple slices', 'src': '/static/foodstim60/apple slices.jpg', 'key': 'u', 'origWidth': 409, 'origHeight': 410, 'width': 409, 'height': 410, 'widthPercent': 0.45, 'rescaleHeight': False, 'trialN': 57, 'loaded': True, 'loadedTime': 6069.900000002235, 'positionName': 'LEFT', 'positionCoords': [512.6, 335], 'bid': 8.32}, {'imgObject': {}, 'id': 'rigatoni', 'src': '/static/foodstim60/rigatoni.jpg', 'key': 'i', 'origWidth': 411, 'origHeight': 411, 'width': 411, 'height': 411, 'widthPercent': 0.45, 'rescaleHeight': False, 'trialN': 57, 'loaded': True, 'loadedTime': 6027.10000000149, 'positionName': 'RIGHT', 'positionCoords': [998.4, 334.5], 'bid': 8.13}]",153859.20000000298,1669830531864,apple slices,rigatoni,8.32,8.13,-0.1899999999999995,rigatoni,1629.3999999985099,1630,1629.5999999977648,True,i,156001.20000000298,2142.0,1669830534006,2142,HRV,HRV_0039,2022-11-30 17:54:41
58,"[{'imgObject': {}, 'id': 'steak', 'src': '/static/foodstim60/steak.jpg', 'key': 'u', 'origWidth': 410, 'origHeight': 410, 'width': 410, 'height': 410, 'widthPercent': 0.45, 'rescaleHeight': False, 'trialN': 58, 'loaded': True, 'loadedTime': 6061.20000000298, 'positionName': 'LEFT', 'positionCoords': [511.6, 335], 'bid': 7.7}, {'imgObject': {}, 'id': 'lox', 'src': '/static/foodstim60/lox.jpg', 'key': 'i', 'origWidth': 410, 'origHeight': 411, 'width': 410, 'height': 411, 'widthPercent': 0.45, 'rescaleHeight': False, 'trialN': 58, 'loaded': True, 'loadedTime': 6072.800000000745, 'positionName': 'RIGHT', 'positionCoords': [998.4, 334.5], 'bid': 0.51}]",156001.40000000224,1669830534006,steak,lox,7.7,0.51,-7.19,steak,1907,1908,1907.300000000745,True,u,158416.90000000224,2415.5,1669830536422,2416,HRV,HRV_0039,2022-11-30 17:54:41
59,"[{'imgObject': {}, 'id': 'strawberries', 'src': '/static/foodstim60/strawberries.jpg', 'key': 'u', 'origWidth': 410, 'origHeight': 410, 'width': 410, 'height': 410, 'widthPercent': 0.45, 'rescaleHeight': False, 'trialN': 59, 'loaded': True, 'loadedTime': 6052.20000000298, 'positionName': 'LEFT', 'positionCoords': [511.6, 335], 'bid': 6.44}, {'imgObject': {}, 'id': 'corn cob', 'src': '/static/foodstim60/corn cob.jpg', 'key': 'i', 'origWidth': 411, 'origHeight': 411, 'width': 411, 'height': 411, 'widthPercent': 0.45, 'rescaleHeight': False, 'trialN': 59, 'loaded': True, 'loadedTime': 5925.5, 'positionName': 'RIGHT', 'positionCoords': [998.4, 334.5], 'bid': 7.69}]",158417.0,1669830536422,strawberries,corn cob,6.44,7.69,1.25,corn cob,1128.6000000014901,1129,1128.800000000745,True,i,160059.30000000075,1642.300000000745,1669830538064,1642,HRV,HRV_0039,2022-11-30 17:54:41
60,"[{'imgObject': {}, 'id': 'blueberries', 'src': '/static/foodstim60/blueberries.jpg', 'key': 'u', 'origWidth': 411, 'origHeight': 411, 'width': 411, 'height': 411, 'widthPercent': 0.45, 'rescaleHeight': False, 'trialN': 60, 'loaded': True, 'loadedTime': 6018.5, 'positionName': 'LEFT', 'positionCoords': [510.6, 334.5], 'bid': 0.88}, {'imgObject': {}, 'id': 'granola w milk', 'src': '/static/foodstim60/granola w milk.jpg', 'key': 'i', 'origWidth': 410, 'origHeight': 410, 'width': 410, 'height': 410, 'widthPercent': 0.45, 'rescaleHeight': False, 'trialN': 60, 'loaded': True, 'loadedTime': 6074.300000000745, 'positionName': 'RIGHT', 'positionCoords': [998.4, 335], 'bid': 0.79}]",160059.5,1669830538065,blueberries,granola w milk,0.88,0.79,-0.08999999999999997,blueberries,1727.7000000029802,1728,1728.1000000014901,True,u,162302.0,2242.5,1669830540307,2242,HRV,HRV_0039,2022-11-30 17:54:41
61,"[{'imgObject': {}, 'id': 'apple slices', 'src': '/static/foodstim60/apple slices.jpg', 'key': 'u', 'origWidth': 409, 'origHeight': 410, 'width': 409, 'height': 410, 'widthPercent': 0.45, 'rescaleHeight': False, 'trialN': 61, 'loaded': True, 'loadedTime': 6070.900000002235, 'positionName': 'LEFT', 'positionCoords': [512.6, 335], 'bid': 8.32}, {'imgObject': {}, 'id': 'blackbeanswithrice', 'src': '/static/foodstim60/blackbeanswithrice.jpg', 'key': 'i', 'origWidth': 410, 'origHeight': 410, 'width': 410, 'height': 410, 'widthPercent': 0.45, 'rescaleHeight': False, 'trialN': 61, 'loaded': True, 'loadedTime': 5441.800000000745, 'positionName': 'RIGHT', 'positionCoords': [998.4, 335], 'bid': 2.04}]",162302.20000000298,1669830540307,apple slices,blackbeanswithrice,8.32,2.04,-6.28,apple slices,2680.39999999851,2681,2680.699999999255,True,u,165487.20000000298,3185.0,1669830543492,3185,HRV,HRV_0039,2022-11-30 17:54:41
62,"[{'imgObject': {}, 'id': 'raspberries', 'src': '/static/foodstim60/raspberries.jpg', 'key': 'u', 'origWidth': 411, 'origHeight': 411, 'width': 411, 'height': 411, 'widthPercent': 0.45, 'rescaleHeight': False, 'trialN': 62, 'loaded': True, 'loadedTime': 5820.400000002235, 'positionName': 'LEFT', 'positionCoords': [510.6, 334.5], 'bid': 7.640000000000001}, {'imgObject': {}, 'id': 'tacos', 'src': '/static/foodstim60/tacos.jpg', 'key': 'i', 'origWidth': 411, 'origHeight': 411, 'width': 411, 'height': 411, 'widthPercent': 0.45, 'rescaleHeight': False, 'trialN': 62, 'loaded': True, 'loadedTime': 6076.10000000149, 'positionName': 'RIGHT', 'positionCoords': [998.4, 334.5], 'bid': 8.58}]",165487.20000000298,1669830543492,raspberries,tacos,7.640000000000001,8.58,0.9399999999999995,tacos,1222.2999999970198,1223,1222.5,True,i,167215.1000000015,1727.8999999985099,1669830545220,1728,HRV,HRV_0039,2022-11-30 17:54:41
63,"[{'imgObject': {}, 'id': 'apple slices', 'src': '/static/foodstim60/apple slices.jpg', 'key': 'u', 'origWidth': 409, 'origHeight': 410, 'width': 409, 'height': 410, 'widthPercent': 0.45, 'rescaleHeight': False, 'trialN': 63, 'loaded': True, 'loadedTime': 6071.10000000149, 'positionName': 'LEFT', 'positionCoords': [512.6, 335], 'bid': 8.32}, {'imgObject': {}, 'id': 'salad w chicken', 'src': '/static/foodstim60/salad w chicken.jpg', 'key': 'i', 'origWidth': 411, 'origHeight': 411, 'width': 411, 'height': 411, 'widthPercent': 0.45, 'rescaleHeight': False, 'trialN': 63, 'loaded': True, 'loadedTime': 6052.900000002235, 'positionName': 'RIGHT', 'positionCoords': [998.4, 334.5], 'bid': 8.35}]",167215.30000000075,1669830545220,apple slices,salad w chicken,8.32,8.35,0.02999999999999936,salad w chicken,1601.1000000014901,1602,1601.4000000022352,True,i,169325.40000000224,2110.10000000149,1669830547330,2110,HRV,HRV_0039,2022-11-30 17:54:41
64,"[{'imgObject': {}, 'id': 'granola w milk', 'src': '/static/foodstim60/granola w milk.jpg', 'key': 'u', 'origWidth': 410, 'origHeight': 410, 'width': 410, 'height': 410, 'widthPercent': 0.45, 'rescaleHeight': False, 'trialN': 64, 'loaded': True, 'loadedTime': 6073.10000000149, 'positionName': 'LEFT', 'positionCoords': [511.6, 335], 'bid': 0.79}, {'imgObject': {}, 'id': 'kiwi', 'src': '/static/foodstim60/kiwi.jpg', 'key': 'i', 'origWidth': 410, 'origHeight': 410, 'width': 410, 'height': 410, 'widthPercent': 0.45, 'rescaleHeight': False, 'trialN': 64, 'loaded': True, 'loadedTime': 5292.400000002235, 'positionName': 'RIGHT', 'positionCoords': [998.4, 335], 'bid': 0.86}]",169325.5,1669830547331,granola w milk,kiwi,0.79,0.86,0.06999999999999995,granola w milk,1450.7000000029802,1451,1451.0,True,u,171277.20000000298,1951.7000000029802,1669830549282,1951,HRV,HRV_0039,2022-11-30 17:54:41
65,"[{'imgObject': {}, 'id': 'chicken nuggets2', 'src': '/static/foodstim60/chicken nuggets2.jpg', 'key': 'u', 'origWidth': 410, 'origHeight': 409, 'width': 410, 'height': 409, 'widthPercent': 0.45, 'rescaleHeight': False, 'trialN': 65, 'loaded': True, 'loadedTime': 5768.60000000149, 'positionName': 'LEFT', 'positionCoords': [511.6, 335.5], 'bid': 8.44}, {'imgObject': {}, 'id': 'roastedpotatoes', 'src': '/static/foodstim60/roastedpotatoes.jpg', 'key': 'i', 'origWidth': 409, 'origHeight': 410, 'width': 409, 'height': 410, 'widthPercent': 0.45, 'rescaleHeight': False, 'trialN': 65, 'loaded': True, 'loadedTime': 5946.20000000298, 'positionName': 'RIGHT', 'positionCoords': [998.4, 335], 'bid': 9.29}]",171277.30000000075,1669830549282,chicken nuggets2,roastedpotatoes,8.44,9.29,0.8499999999999996,roastedpotatoes,2247.900000002235,2249,2248.10000000149,True,i,174039.1000000015,2761.800000000745,1669830552044,2762,HRV,HRV_0039,2022-11-30 17:54:41
66,"[{'imgObject': {}, 'id': 'grilled chicken strips', 'src': '/static/foodstim60/grilled chicken strips.jpg', 'key': 'u', 'origWidth': 410, 'origHeight': 411, 'width': 410, 'height': 411, 'widthPercent': 0.45, 'rescaleHeight': False, 'trialN': 66, 'loaded': True, 'loadedTime': 5358.300000000745, 'positionName': 'LEFT', 'positionCoords': [511.6, 334.5], 'bid': 7.96}, {'imgObject': {}, 'id': 'rigatoni and sauce', 'src': '/static/foodstim60/rigatoni and sauce.jpg', 'key': 'i', 'origWidth': 410, 'origHeight': 411, 'width': 410, 'height': 411, 'widthPercent': 0.45, 'rescaleHeight': False, 'trialN': 66, 'loaded': True, 'loadedTime': 6031.10000000149, 'positionName': 'RIGHT', 'positionCoords': [998.4, 334.5], 'bid': 8.83}]",174039.20000000298,1669830552044,grilled chicken strips,rigatoni and sauce,7.96,8.83,0.8700000000000001,rigatoni and sauce,1158.0999999977648,1159,1158.3999999985099,True,i,175702.90000000224,1663.699999999255,1669830553708,1664,HRV,HRV_0039,2022-11-30 17:54:41
67,"[{'imgObject': {}, 'id': 'edamame', 'src': '/static/foodstim60/edamame.jpg', 'key': 'u', 'origWidth': 409, 'origHeight': 410, 'width': 409, 'height': 410, 'widthPercent': 0.45, 'rescaleHeight': False, 'trialN': 67, 'loaded': True, 'loadedTime': 6045.60000000149, 'positionName': 'LEFT', 'positionCoords': [512.6, 335], 'bid': 1.19}, {'imgObject': {}, 'id': 'salmon', 'src': '/static/foodstim60/salmon.jpg', 'key': 'i', 'origWidth': 410, 'origHeight': 409, 'width': 410, 'height': 409, 'widthPercent': 0.45, 'rescaleHeight': False, 'trialN': 67, 'loaded': True, 'loadedTime': 5341, 'positionName': 'RIGHT', 'positionCoords': [998.4, 335.5], 'bid': 0.98}]",175703.0,1669830553708,edamame,salmon,1.19,0.98,-0.20999999999999996,edamame,1855.6000000014901,1856,1855.9000000022352,True,u,178065.0,2362.0,1669830556070,2362,HRV,HRV_0039,2022-11-30 17:54:41
68,"[{'imgObject': {}, 'id': 'hotdog w must', 'src': '/static/foodstim60/hotdog w must.jpg', 'key': 'u', 'origWidth': 409, 'origHeight': 409, 'width': 409, 'height': 409, 'widthPercent': 0.45, 'rescaleHeight': False, 'trialN': 68, 'loaded': True, 'loadedTime': 5669, 'positionName': 'LEFT', 'positionCoords': [512.6, 335.5], 'bid': 7.23}, {'imgObject': {}, 'id': 'sushi w_condiments', 'src': '/static/foodstim60/sushi w_condiments.jpg', 'key': 'i', 'origWidth': 410, 'origHeight': 410, 'width': 410, 'height': 410, 'widthPercent': 0.45, 'rescaleHeight': False, 'trialN': 68, 'loaded': True, 'loadedTime': 5421.400000002235, 'positionName': 'RIGHT', 'positionCoords': [998.4, 335], 'bid': 0.06}]",178065.20000000298,1669830556070,hotdog w must,sushi w_condiments,7.23,0.06,-7.170000000000001,hotdog w must,1338,1338,1338.199999999255,True,u,179921.1000000015,1855.8999999985099,1669830557926,1856,HRV,HRV_0039,2022-11-30 17:54:41
69,"[{'imgObject': {}, 'id': 'turkey sandwich', 'src': '/static/foodstim60/turkey sandwich.jpg', 'key': 'u', 'origWidth': 409, 'origHeight': 409, 'width': 409, 'height': 409, 'widthPercent': 0.45, 'rescaleHeight': False, 'trialN': 69, 'loaded': True, 'loadedTime': 5623.300000000745, 'positionName': 'LEFT', 'positionCoords': [512.6, 335.5], 'bid': 9.09}, {'imgObject': {}, 'id': 'mashed potato', 'src': '/static/foodstim60/mashed potato.jpg', 'key': 'i', 'origWidth': 409, 'origHeight': 409, 'width': 409, 'height': 409, 'widthPercent': 0.45, 'rescaleHeight': False, 'trialN': 69, 'loaded': True, 'loadedTime': 5643.900000002235, 'positionName': 'RIGHT', 'positionCoords': [998.4, 335.5], 'bid': 8.03}]",179921.20000000298,1669830557926,turkey sandwich,mashed potato,9.09,8.03,-1.0600000000000005,turkey sandwich,2453.89999999851,2454,2454.199999999255,True,u,182889.5,2968.2999999970198,1669830560894,2968,HRV,HRV_0039,2022-11-30 17:54:41
70,"[{'imgObject': {}, 'id': 'roastedpotatoes', 'src': '/static/foodstim60/roastedpotatoes.jpg', 'key': 'u', 'origWidth': 409, 'origHeight': 410, 'width': 409, 'height': 410, 'widthPercent': 0.45, 'rescaleHeight': False, 'trialN': 70, 'loaded': True, 'loadedTime': 5950.300000000745, 'positionName': 'LEFT', 'positionCoords': [512.6, 335], 'bid': 9.29}, {'imgObject': {}, 'id': 'bagel and cc', 'src': '/static/foodstim60/bagel and cc.jpg', 'key': 'i', 'origWidth': 410, 'origHeight': 410, 'width': 410, 'height': 410, 'widthPercent': 0.45, 'rescaleHeight': False, 'trialN': 70, 'loaded': True, 'loadedTime': 5547.70000000298, 'positionName': 'RIGHT', 'positionCoords': [998.4, 335], 'bid': 8.11}]",182889.5,1669830560895,roastedpotatoes,bagel and cc,9.29,8.11,-1.1799999999999997,roastedpotatoes,2060.60000000149,2060,2060.800000000745,True,u,185468.5,2579.0,1669830563474,2579,HRV,HRV_0039,2022-11-30 17:54:41
71,"[{'imgObject': {}, 'id': 'seaweed', 'src': '/static/foodstim60/seaweed.jpg', 'key': 'u', 'origWidth': 410, 'origHeight': 410, 'width': 410, 'height': 410, 'widthPercent': 0.45, 'rescaleHeight': False, 'trialN': 71, 'loaded': True, 'loadedTime': 5862.70000000298, 'positionName': 'LEFT', 'positionCoords': [511.6, 335], 'bid': 0}, {'imgObject': {}, 'id': 'sweetpotato', 'src': '/static/foodstim60/sweetpotato.jpg', 'key': 'i', 'origWidth': 410, 'origHeight': 410, 'width': 410, 'height': 410, 'widthPercent': 0.45, 'rescaleHeight': False, 'trialN': 71, 'loaded': True, 'loadedTime': 6076.800000000745, 'positionName': 'RIGHT', 'positionCoords': [998.4, 335], 'bid': 1.84}]",185468.70000000298,1669830563474,seaweed,sweetpotato,0.0,1.84,1.84,sweetpotato,2429.699999999255,2430,2430.0,True,i,188409.0,2940.2999999970198,1669830566414,2940,HRV,HRV_0039,2022-11-30 17:54:41
72,"[{'imgObject': {}, 'id': 'cocktailshrimp', 'src': '/static/foodstim60/cocktailshrimp.jpg', 'key': 'u', 'origWidth': 410, 'origHeight': 410, 'width': 410, 'height': 410, 'widthPercent': 0.45, 'rescaleHeight': False, 'trialN': 72, 'loaded': True, 'loadedTime': 6046.900000002235, 'positionName': 'LEFT', 'positionCoords': [511.6, 335], 'bid': 5.78}, {'imgObject': {}, 'id': 'cherry tomato', 'src': '/static/foodstim60/cherry tomato.jpg', 'key': 'i', 'origWidth': 410, 'origHeight': 410, 'width': 410, 'height': 410, 'widthPercent': 0.45, 'rescaleHeight': False, 'trialN': 72, 'loaded': True, 'loadedTime': 6083.10000000149, 'positionName': 'RIGHT', 'positionCoords': [998.4, 335], 'bid': 5.93}]",188409.20000000298,1669830566414,cocktailshrimp,cherry tomato,5.78,5.93,0.14999999999999947,cherry tomato,2771.199999999255,2772,2771.39999999851,True,i,191690.5,3281.2999999970198,1669830569695,3281,HRV,HRV_0039,2022-11-30 17:54:41
73,"[{'imgObject': {}, 'id': 'cherry tomato', 'src': '/static/foodstim60/cherry tomato.jpg', 'key': 'u', 'origWidth': 410, 'origHeight': 410, 'width': 410, 'height': 410, 'widthPercent': 0.45, 'rescaleHeight': False, 'trialN': 73, 'loaded': True, 'loadedTime': 6083, 'positionName': 'LEFT', 'positionCoords': [511.6, 335], 'bid': 5.93}, {'imgObject': {}, 'id': 'fried eggs', 'src': '/static/foodstim60/fried eggs.jpg', 'key': 'i', 'origWidth': 410, 'origHeight': 410, 'width': 410, 'height': 410, 'widthPercent': 0.45, 'rescaleHeight': False, 'trialN': 73, 'loaded': True, 'loadedTime': 5930.800000000745, 'positionName': 'RIGHT', 'positionCoords': [998.4, 335], 'bid': 7.46}]",191690.6000000015,1669830569696,cherry tomato,fried eggs,5.93,7.46,1.5300000000000002,fried eggs,2326.5,2326,2326.699999999255,True,i,194532.20000000298,2841.60000000149,1669830572537,2841,HRV,HRV_0039,2022-11-30 17:54:41
74,"[{'imgObject': {}, 'id': 'orange slices', 'src': '/static/foodstim60/orange slices.jpg', 'key': 'u', 'origWidth': 409, 'origHeight': 410, 'width': 409, 'height': 410, 'widthPercent': 0.45, 'rescaleHeight': False, 'trialN': 74, 'loaded': True, 'loadedTime': 6083.60000000149, 'positionName': 'LEFT', 'positionCoords': [512.6, 335], 'bid': 0.5}, {'imgObject': {}, 'id': 'popsicles', 'src': '/static/foodstim60/popsicles.jpg', 'key': 'i', 'origWidth': 410, 'origHeight': 410, 'width': 410, 'height': 410, 'widthPercent': 0.45, 'rescaleHeight': False, 'trialN': 74, 'loaded': True, 'loadedTime': 6099.10000000149, 'positionName': 'RIGHT', 'positionCoords': [998.4, 335], 'bid': 5.26}]",194532.30000000075,1669830572537,orange slices,popsicles,0.5,5.26,4.76,popsicles,2235.900000002235,2236,2236.10000000149,True,i,197271.80000000075,2739.5,1669830575277,2740,HRV,HRV_0039,2022-11-30 17:54:41
75,"[{'imgObject': {}, 'id': 'cantaloupe', 'src': '/static/foodstim60/cantaloupe.jpg', 'key': 'u', 'origWidth': 409, 'origHeight': 409, 'width': 409, 'height': 409, 'widthPercent': 0.45, 'rescaleHeight': False, 'trialN': 75, 'loaded': True, 'loadedTime': 5880, 'positionName': 'LEFT', 'positionCoords': [512.6, 335.5], 'bid': 5.43}, {'imgObject': {}, 'id': 'sweetpotato', 'src': '/static/foodstim60/sweetpotato.jpg', 'key': 'i', 'origWidth': 410, 'origHeight': 410, 'width': 410, 'height': 410, 'widthPercent': 0.45, 'rescaleHeight': False, 'trialN': 75, 'loaded': True, 'loadedTime': 6081.800000000745, 'positionName': 'RIGHT', 'positionCoords': [998.4, 335], 'bid': 1.84}]",197271.90000000224,1669830575277,cantaloupe,sweetpotato,5.43,1.84,-3.59,cantaloupe,3382.5,3383,3382.800000000745,True,u,201172.70000000298,3900.800000000745,1669830579178,3901,HRV,HRV_0039,2022-11-30 17:54:41
76,"[{'imgObject': {}, 'id': 'salad w chicken', 'src': '/static/foodstim60/salad w chicken.jpg', 'key': 'u', 'origWidth': 411, 'origHeight': 411, 'width': 411, 'height': 411, 'widthPercent': 0.45, 'rescaleHeight': False, 'trialN': 76, 'loaded': True, 'loadedTime': 6057.400000002235, 'positionName': 'LEFT', 'positionCoords': [510.6, 334.5], 'bid': 8.35}, {'imgObject': {}, 'id': 'Grapes', 'src': '/static/foodstim60/Grapes.jpg', 'key': 'i', 'origWidth': 411, 'origHeight': 411, 'width': 411, 'height': 411, 'widthPercent': 0.45, 'rescaleHeight': False, 'trialN': 76, 'loaded': True, 'loadedTime': 6089.60000000149, 'positionName': 'RIGHT', 'positionCoords': [998.4, 334.5], 'bid': 9.26}]",201172.80000000075,1669830579178,salad w chicken,Grapes,8.35,9.26,0.9100000000000001,salad w chicken,2788.60000000149,2789,2788.800000000745,True,u,204483.6000000015,3310.800000000745,1669830582489,3311,HRV,HRV_0039,2022-11-30 17:54:41
77,"[{'imgObject': {}, 'id': 'salad w chicken', 'src': '/static/foodstim60/salad w chicken.jpg', 'key': 'u', 'origWidth': 411, 'origHeight': 411, 'width': 411, 'height': 411, 'widthPercent': 0.45, 'rescaleHeight': False, 'trialN': 77, 'loaded': True, 'loadedTime': 6060.900000002235, 'positionName': 'LEFT', 'positionCoords': [510.6, 334.5], 'bid': 8.35}, {'imgObject': {}, 'id': 'shreddedwheatwithmilk', 'src': '/static/foodstim60/shreddedwheatwithmilk.jpg', 'key': 'i', 'origWidth': 410, 'origHeight': 410, 'width': 410, 'height': 410, 'widthPercent': 0.45, 'rescaleHeight': False, 'trialN': 77, 'loaded': True, 'loadedTime': 5572.5, 'positionName': 'RIGHT', 'positionCoords': [998.4, 335], 'bid': 4.04}]",204483.80000000075,1669830582489,salad w chicken,shreddedwheatwithmilk,8.35,4.04,-4.31,shreddedwheatwithmilk,2673.10000000149,2673,2673.400000002235,True,i,207664.70000000298,3180.900000002235,1669830585670,3181,HRV,HRV_0039,2022-11-30 17:54:41
78,"[{'imgObject': {}, 'id': 'mac & cheese', 'src': '/static/foodstim60/mac & cheese.jpg', 'key': 'u', 'origWidth': 410, 'origHeight': 410, 'width': 410, 'height': 410, 'widthPercent': 0.45, 'rescaleHeight': False, 'trialN': 78, 'loaded': True, 'loadedTime': 5964.10000000149, 'positionName': 'LEFT', 'positionCoords': [511.6, 335], 'bid': 9.18}, {'imgObject': {}, 'id': 'Grapes', 'src': '/static/foodstim60/Grapes.jpg', 'key': 'i', 'origWidth': 411, 'origHeight': 411, 'width': 411, 'height': 411, 'widthPercent': 0.45, 'rescaleHeight': False, 'trialN': 78, 'loaded': True, 'loadedTime': 6090.20000000298, 'positionName': 'RIGHT', 'positionCoords': [998.4, 334.5], 'bid': 9.26}]",207664.90000000224,1669830585670,mac & cheese,Grapes,9.18,9.26,0.08000000000000007,NaN,NaN,NaN,,False,NaN,211689.1000000015,4024.199999999255,1669830589695,4025,HRV,HRV_0039,2022-11-30 17:54:41
79,"[{'imgObject': {}, 'id': 'burger', 'src': '/static/foodstim60/burger.jpg', 'key': 'u', 'origWidth': 409, 'origHeight': 409, 'width': 409, 'height': 409, 'widthPercent': 0.45, 'rescaleHeight': False, 'trialN': 79, 'loaded': True, 'loadedTime': 5715.800000000745, 'positionName': 'LEFT', 'positionCoords': [512.6, 335.5], 'bid': 8.700000000000001}, {'imgObject': {}, 'id': 'chickenfingers', 'src': '/static/foodstim60/chickenfingers.jpg', 'key': 'i', 'origWidth': 410, 'origHeight': 410, 'width': 410, 'height': 410, 'widthPercent': 0.45, 'rescaleHeight': False, 'trialN': 79, 'loaded': True, 'loadedTime': 5854, 'positionName': 'RIGHT', 'positionCoords': [998.4, 335], 'bid': 8.69}]",211689.20000000298,1669830589695,burger,chickenfingers,8.700000000000001,8.69,-0.010000000000001563,burger,6.099999997764826,7,6.5,True,u,212209.6000000015,520.3999999985099,1669830590215,520,HRV,HRV_0039,2022-11-30 17:54:41
80,"[{'imgObject': {}, 'id': 'cocktailshrimp', 'src': '/static/foodstim60/cocktailshrimp.jpg', 'key': 'u', 'origWidth': 410, 'origHeight': 410, 'width': 410, 'height': 410, 'widthPercent': 0.45, 'rescaleHeight': False, 'trialN': 80, 'loaded': True, 'loadedTime': 6050.5, 'positionName': 'LEFT', 'positionCoords': [511.6, 335], 'bid': 5.78}, {'imgObject': {}, 'id': 'rigatoni and sauce', 'src': '/static/foodstim60/rigatoni and sauce.jpg', 'key': 'i', 'origWidth': 410, 'origHeight': 411, 'width': 410, 'height': 411, 'widthPercent': 0.45, 'rescaleHeight': False, 'trialN': 80, 'loaded': True, 'loadedTime': 6032.400000002235, 'positionName': 'RIGHT', 'positionCoords': [998.4, 334.5], 'bid': 8.83}]",212209.70000000298,1669830590216,cocktailshrimp,rigatoni and sauce,5.78,8.83,3.05,rigatoni and sauce,1586.3999999985099,1586,1586.5999999977648,True,i,214313.1000000015,2103.39999999851,1669830592319,2103,HRV,HRV_0039,2022-11-30 17:54:41
81,"[{'imgObject': {}, 'id': 'tacos', 'src': '/static/foodstim60/tacos.jpg', 'key': 'u', 'origWidth': 411, 'origHeight': 411, 'width': 411, 'height': 411, 'widthPercent': 0.45, 'rescaleHeight': False, 'trialN': 81, 'loaded': True, 'loadedTime': 6076.60000000149, 'positionName': 'LEFT', 'positionCoords': [510.6, 334.5], 'bid': 8.58}, {'imgObject': {}, 'id': 'burger', 'src': '/static/foodstim60/burger.jpg', 'key': 'i', 'origWidth': 409, 'origHeight': 409, 'width': 409, 'height': 409, 'widthPercent': 0.45, 'rescaleHeight': False, 'trialN': 81, 'loaded': True, 'loadedTime': 5726.800000000745, 'positionName': 'RIGHT', 'positionCoords': [998.4, 335.5], 'bid': 8.700000000000001}]",214313.20000000298,1669830592319,tacos,burger,8.58,8.700000000000001,0.120000000000001,burger,2307.5,2308,2307.89999999851,True,i,217128.6000000015,2815.39999999851,1669830595135,2816,HRV,HRV_0039,2022-11-30 17:54:41
82,"[{'imgObject': {}, 'id': 'roastedpotatoes', 'src': '/static/foodstim60/roastedpotatoes.jpg', 'key': 'u', 'origWidth': 409, 'origHeight': 410, 'width': 409, 'height': 410, 'widthPercent': 0.45, 'rescaleHeight': False, 'trialN': 82, 'loaded': True, 'loadedTime': 5946.400000002235, 'positionName': 'LEFT', 'positionCoords': [512.6, 335], 'bid': 9.29}, {'imgObject': {}, 'id': 'eggs', 'src': '/static/foodstim60/eggs.jpg', 'key': 'i', 'origWidth': 409, 'origHeight': 409, 'width': 409, 'height': 409, 'widthPercent': 0.45, 'rescaleHeight': False, 'trialN': 82, 'loaded': True, 'loadedTime': 5908.60000000149, 'positionName': 'RIGHT', 'positionCoords': [998.4, 335.5], 'bid': 8.72}]",217128.80000000075,1669830595135,roastedpotatoes,eggs,9.29,8.72,-0.5699999999999985,roastedpotatoes,3154.10000000149,3154,3154.5,True,u,220790.30000000075,3661.5,1669830598796,3661,HRV,HRV_0039,2022-11-30 17:54:41
83,"[{'imgObject': {}, 'id': 'burrito', 'src': '/static/foodstim60/burrito.jpg', 'key': 'u', 'origWidth': 410, 'origHeight': 410, 'width': 410, 'height': 410, 'widthPercent': 0.45, 'rescaleHeight': False, 'trialN': 83, 'loaded': True, 'loadedTime': 6009.800000000745, 'positionName': 'LEFT', 'positionCoords': [511.6, 335], 'bid': 9.31}, {'imgObject': {}, 'id': 'bagel plain', 'src': '/static/foodstim60/bagel plain.jpg', 'key': 'i', 'origWidth': 410, 'origHeight': 410, 'width': 410, 'height': 410, 'widthPercent': 0.45, 'rescaleHeight': False, 'trialN': 83, 'loaded': True, 'loadedTime': 5596, 'positionName': 'RIGHT', 'positionCoords': [998.4, 335], 'bid': 8.72}]",220790.40000000224,1669830598796,burrito,bagel plain,9.31,8.72,-0.5899999999999999,burrito,2204,2205,2204.300000000745,True,u,223511.80000000075,2721.39999999851,1669830601518,2722,HRV,HRV_0039,2022-11-30 17:54:41
84,"[{'imgObject': {}, 'id': 'froot loops w milk', 'src': '/static/foodstim60/froot loops w milk.jpg', 'key': 'u', 'origWidth': 410, 'origHeight': 410, 'width': 410, 'height': 410, 'widthPercent': 0.45, 'rescaleHeight': False, 'trialN': 84, 'loaded': True, 'loadedTime': 5739.70000000298, 'positionName': 'LEFT', 'positionCoords': [511.6, 335], 'bid': 7.55}, {'imgObject': {}, 'id': 'corn cob', 'src': '/static/foodstim60/corn cob.jpg', 'key': 'i', 'origWidth': 411, 'origHeight': 411, 'width': 411, 'height': 411, 'widthPercent': 0.45, 'rescaleHeight': False, 'trialN': 84, 'loaded': True, 'loadedTime': 5929.300000000745, 'positionName': 'RIGHT', 'positionCoords': [998.4, 334.5], 'bid': 7.69}]",223511.90000000224,1669830601518,froot loops w milk,corn cob,7.55,7.69,0.14000000000000057,froot loops w milk,2701.89999999851,2702,2702.199999999255,True,u,226725.0,3213.099999997765,1669830604731,3213,HRV,HRV_0039,2022-11-30 17:54:41
85,"[{'imgObject': {}, 'id': 'eggs', 'src': '/static/foodstim60/eggs.jpg', 'key': 'u', 'origWidth': 409, 'origHeight': 409, 'width': 409, 'height': 409, 'widthPercent': 0.45, 'rescaleHeight': False, 'trialN': 85, 'loaded': True, 'loadedTime': 5904.20000000298, 'positionName': 'LEFT', 'positionCoords': [512.6, 335.5], 'bid': 8.72}, {'imgObject': {}, 'id': 'pear', 'src': '/static/foodstim60/pear.jpg', 'key': 'i', 'origWidth': 411, 'origHeight': 410, 'width': 411, 'height': 410, 'widthPercent': 0.45, 'rescaleHeight': False, 'trialN': 85, 'loaded': True, 'loadedTime': 5991.10000000149, 'positionName': 'RIGHT', 'positionCoords': [998.4, 335], 'bid': 5.47}]",226725.1000000015,1669830604731,eggs,pear,8.72,5.47,-3.250000000000001,eggs,2234.800000000745,2235,2235.10000000149,True,u,229472.20000000298,2747.10000000149,1669830607478,2747,HRV,HRV_0039,2022-11-30 17:54:41
86,"[{'imgObject': {}, 'id': 'cantaloupe', 'src': '/static/foodstim60/cantaloupe.jpg', 'key': 'u', 'origWidth': 409, 'origHeight': 409, 'width': 409, 'height': 409, 'widthPercent': 0.45, 'rescaleHeight': False, 'trialN': 86, 'loaded': True, 'loadedTime': 5875.70000000298, 'positionName': 'LEFT', 'positionCoords': [512.6, 335.5], 'bid': 5.43}, {'imgObject': {}, 'id': 'lox', 'src': '/static/foodstim60/lox.jpg', 'key': 'i', 'origWidth': 410, 'origHeight': 411, 'width': 410, 'height': 411, 'widthPercent': 0.45, 'rescaleHeight': False, 'trialN': 86, 'loaded': True, 'loadedTime': 6072.400000002235, 'positionName': 'RIGHT', 'positionCoords': [998.4, 334.5], 'bid': 0.51}]",229472.30000000075,1669830607478,cantaloupe,lox,5.43,0.51,-4.92,cantaloupe,1516.800000000745,1517,1517.199999999255,True,u,231501.30000000075,2029.0,1669830609507,2029,HRV,HRV_0039,2022-11-30 17:54:41
87,"[{'imgObject': {}, 'id': 'orange slices', 'src': '/static/foodstim60/orange slices.jpg', 'key': 'u', 'origWidth': 409, 'origHeight': 410, 'width': 409, 'height': 410, 'widthPercent': 0.45, 'rescaleHeight': False, 'trialN': 87, 'loaded': True, 'loadedTime': 6088.10000000149, 'positionName': 'LEFT', 'positionCoords': [512.6, 335], 'bid': 0.5}, {'imgObject': {}, 'id': 'avocado', 'src': '/static/foodstim60/avocado.jpg', 'key': 'i', 'origWidth': 409, 'origHeight': 409, 'width': 409, 'height': 409, 'widthPercent': 0.45, 'rescaleHeight': False, 'trialN': 87, 'loaded': True, 'loadedTime': 5558.10000000149, 'positionName': 'RIGHT', 'positionCoords': [998.4, 335.5], 'bid': 0.56}]",231501.40000000224,1669830609507,orange slices,avocado,0.5,0.56,0.06000000000000005,avocado,1160.5,1161,1160.699999999255,True,i,233165.90000000224,1664.5,1669830611172,1665,HRV,HRV_0039,2022-11-30 17:54:41
88,"[{'imgObject': {}, 'id': 'raisin bran w milk', 'src': '/static/foodstim60/raisin bran w milk.jpg', 'key': 'u', 'origWidth': 411, 'origHeight': 411, 'width': 411, 'height': 411, 'widthPercent': 0.45, 'rescaleHeight': False, 'trialN': 88, 'loaded': True, 'loadedTime': 5975.5, 'positionName': 'LEFT', 'positionCoords': [510.6, 334.5], 'bid': 1.33}, {'imgObject': {}, 'id': 'popsicles', 'src': '/static/foodstim60/popsicles.jpg', 'key': 'i', 'origWidth': 410, 'origHeight': 410, 'width': 410, 'height': 410, 'widthPercent': 0.45, 'rescaleHeight': False, 'trialN': 88, 'loaded': True, 'loadedTime': 6097.70000000298, 'positionName': 'RIGHT', 'positionCoords': [998.4, 335], 'bid': 5.26}]",233166.0,1669830611172,raisin bran w milk,popsicles,1.33,5.26,3.9299999999999997,popsicles,1867.300000000745,1868,1867.6000000014901,True,i,235536.5,2370.5,1669830613542,2370,HRV,HRV_0039,2022-11-30 17:54:41
89,"[{'imgObject': {}, 'id': 'mango', 'src': '/static/foodstim60/mango.jpg', 'key': 'u', 'origWidth': 411, 'origHeight': 411, 'width': 411, 'height': 411, 'widthPercent': 0.45, 'rescaleHeight': False, 'trialN': 89, 'loaded': True, 'loadedTime': 5903.800000000745, 'positionName': 'LEFT', 'positionCoords': [510.6, 334.5], 'bid': 0.89}, {'imgObject': {}, 'id': 'banana', 'src': '/static/foodstim60/banana.jpg', 'key': 'i', 'origWidth': 410, 'origHeight': 410, 'width': 410, 'height': 410, 'widthPercent': 0.45, 'rescaleHeight': False, 'trialN': 89, 'loaded': True, 'loadedTime': 5709.300000000745, 'positionName': 'RIGHT', 'positionCoords': [998.4, 335], 'bid': 8.040000000000001}]",235536.6000000015,1669830613543,mango,banana,0.89,8.040000000000001,7.150000000000001,banana,1962.1000000014901,1962,1962.300000000745,True,i,238018.6000000015,2482.0,1669830616025,2482,HRV,HRV_0039,2022-11-30 17:54:41
90,"[{'imgObject': {}, 'id': 'cantaloupe', 'src': '/static/foodstim60/cantaloupe.jpg', 'key': 'u', 'origWidth': 409, 'origHeight': 409, 'width': 409, 'height': 409, 'widthPercent': 0.45, 'rescaleHeight': False, 'trialN': 90, 'loaded': True, 'loadedTime': 5883.800000000745, 'positionName': 'LEFT', 'positionCoords': [512.6, 335.5], 'bid': 5.43}, {'imgObject': {}, 'id': 'hotdog w must', 'src': '/static/foodstim60/hotdog w must.jpg', 'key': 'i', 'origWidth': 409, 'origHeight': 409, 'width': 409, 'height': 409, 'widthPercent': 0.45, 'rescaleHeight': False, 'trialN': 90, 'loaded': True, 'loadedTime': 5665.300000000745, 'positionName': 'RIGHT', 'positionCoords': [998.4, 335.5], 'bid': 7.23}]",254957.0,1669830632963,cantaloupe,hotdog w must,5.43,7.23,1.8000000000000007,hotdog w must,3164,3164,3164.300000000745,True,i,258643.20000000298,3686.2000000029802,1669830636649,3686,HRV,HRV_0039,2022-11-30 17:54:41
91,"[{'imgObject': {}, 'id': 'hotdog w must', 'src': '/static/foodstim60/hotdog w must.jpg', 'key': 'u', 'origWidth': 409, 'origHeight': 409, 'width': 409, 'height': 409, 'widthPercent': 0.45, 'rescaleHeight': False, 'trialN': 91, 'loaded': True, 'loadedTime': 5665.10000000149, 'positionName': 'LEFT', 'positionCoords': [512.6, 335.5], 'bid': 7.23}, {'imgObject': {}, 'id': 'eggsalad', 'src': '/static/foodstim60/eggsalad.jpg', 'key': 'i', 'origWidth': 410, 'origHeight': 409, 'width': 410, 'height': 409, 'widthPercent': 0.45, 'rescaleHeight': False, 'trialN': 91, 'loaded': True, 'loadedTime': 5485.300000000745, 'positionName': 'RIGHT', 'positionCoords': [998.4, 335.5], 'bid': 6.97}]",258643.30000000075,1669830636649,hotdog w must,eggsalad,7.23,6.97,-0.2600000000000007,eggsalad,1479.300000000745,1480,1479.5,True,i,260640.20000000298,1996.9000000022352,1669830638646,1997,HRV,HRV_0039,2022-11-30 17:54:41
92,"[{'imgObject': {}, 'id': 'salad w chicken', 'src': '/static/foodstim60/salad w chicken.jpg', 'key': 'u', 'origWidth': 411, 'origHeight': 411, 'width': 411, 'height': 411, 'widthPercent': 0.45, 'rescaleHeight': False, 'trialN': 92, 'loaded': True, 'loadedTime': 6061, 'positionName': 'LEFT', 'positionCoords': [510.6, 334.5], 'bid': 8.35}, {'imgObject': {}, 'id': 'baked potato', 'src': '/static/foodstim60/baked potato.jpg', 'key': 'i', 'origWidth': 409, 'origHeight': 410, 'width': 409, 'height': 410, 'widthPercent': 0.45, 'rescaleHeight': False, 'trialN': 92, 'loaded': True, 'loadedTime': 5520.300000000745, 'positionName': 'RIGHT', 'positionCoords': [998.4, 335], 'bid': 8.27}]",260640.40000000224,1669830638646,salad w chicken,baked potato,8.35,8.27,-0.08000000000000007,baked potato,2257,2258,2257.300000000745,True,i,263410.1000000015,2769.699999999255,1669830641416,2770,HRV,HRV_0039,2022-11-30 17:54:41
93,"[{'imgObject': {}, 'id': 'raisin bran w milk', 'src': '/static/foodstim60/raisin bran w milk.jpg', 'key': 'u', 'origWidth': 411, 'origHeight': 411, 'width': 411, 'height': 411, 'widthPercent': 0.45, 'rescaleHeight': False, 'trialN': 93, 'loaded': True, 'loadedTime': 5982.900000002235, 'positionName': 'LEFT', 'positionCoords': [510.6, 334.5], 'bid': 1.33}, {'imgObject': {}, 'id': 'cherries', 'src': '/static/foodstim60/cherries.jpg', 'key': 'i', 'origWidth': 410, 'origHeight': 411, 'width': 410, 'height': 411, 'widthPercent': 0.45, 'rescaleHeight': False, 'trialN': 93, 'loaded': True, 'loadedTime': 5799.800000000745, 'positionName': 'RIGHT', 'positionCoords': [998.4, 334.5], 'bid': 0.34}]",263410.200000003,1669830641416,raisin bran w milk,cherries,1.33,0.34,-0.99,NaN,NaN,NaN,,False,NaN,267429.1000000015,4018.89999999851,1669830645435,4019,HRV,HRV_0039,2022-11-30 17:54:41
94,"[{'imgObject': {}, 'id': 'bagel and cc', 'src': '/static/foodstim60/bagel and cc.jpg', 'key': 'u', 'origWidth': 410, 'origHeight': 410, 'width': 410, 'height': 410, 'widthPercent': 0.45, 'rescaleHeight': False, 'trialN': 94, 'loaded': True, 'loadedTime': 5547.5, 'positionName': 'LEFT', 'positionCoords': [511.6, 335], 'bid': 8.11}, {'imgObject': {}, 'id': 'omelette', 'src': '/static/foodstim60/omelette.jpg', 'key': 'i', 'origWidth': 410, 'origHeight': 409, 'width': 410, 'height': 409, 'widthPercent': 0.45, 'rescaleHeight': False, 'trialN': 94, 'loaded': True, 'loadedTime': 5366, 'positionName': 'RIGHT', 'positionCoords': [998.4, 335.5], 'bid': 7.71}]",267429.200000003,1669830645435,bagel and cc,omelette,8.11,7.71,-0.39999999999999947,omelette,3396.39999999851,3397,3396.699999999255,True,i,271342.700000003,3913.5,1669830649349,3914,HRV,HRV_0039,2022-11-30 17:54:41
95,"[{'imgObject': {}, 'id': 'avocado', 'src': '/static/foodstim60/avocado.jpg', 'key': 'u', 'origWidth': 409, 'origHeight': 409, 'width': 409, 'height': 409, 'widthPercent': 0.45, 'rescaleHeight': False, 'trialN': 95, 'loaded': True, 'loadedTime': 5565.10000000149, 'positionName': 'LEFT', 'positionCoords': [512.6, 335.5], 'bid': 0.56}, {'imgObject': {}, 'id': 'pear', 'src': '/static/foodstim60/pear.jpg', 'key': 'i', 'origWidth': 411, 'origHeight': 410, 'width': 411, 'height': 410, 'widthPercent': 0.45, 'rescaleHeight': False, 'trialN': 95, 'loaded': True, 'loadedTime': 5991.300000000745, 'positionName': 'RIGHT', 'positionCoords': [998.4, 335], 'bid': 5.47}]",271342.80000000075,1669830649349,avocado,pear,0.56,5.47,4.91,pear,2568.699999999255,2569,2568.900000002235,True,i,274413.0,3070.199999999255,1669830652419,3070,HRV,HRV_0039,2022-11-30 17:54:41
96,"[{'imgObject': {}, 'id': 'turkeysandwich', 'src': '/static/foodstim60/turkeysandwich.jpg', 'key': 'u', 'origWidth': 409, 'origHeight': 409, 'width': 409, 'height': 409, 'widthPercent': 0.45, 'rescaleHeight': False, 'trialN': 96, 'loaded': True, 'loadedTime': 5845.10000000149, 'positionName': 'LEFT', 'positionCoords': [512.6, 335.5], 'bid': 7.91}, {'imgObject': {}, 'id': 'bagel plain', 'src': '/static/foodstim60/bagel plain.jpg', 'key': 'i', 'origWidth': 410, 'origHeight': 410, 'width': 410, 'height': 410, 'widthPercent': 0.45, 'rescaleHeight': False, 'trialN': 96, 'loaded': True, 'loadedTime': 5588.60000000149, 'positionName': 'RIGHT', 'positionCoords': [998.4, 335], 'bid': 8.72}]",274413.1000000015,1669830652419,turkeysandwich,bagel plain,7.91,8.72,0.8100000000000005,turkeysandwich,2174.300000000745,2174,2174.5,True,u,277100.700000003,2687.60000000149,1669830655107,2688,HRV,HRV_0039,2022-11-30 17:54:41
97,"[{'imgObject': {}, 'id': 'apple slices', 'src': '/static/foodstim60/apple slices.jpg', 'key': 'u', 'origWidth': 409, 'origHeight': 410, 'width': 409, 'height': 410, 'widthPercent': 0.45, 'rescaleHeight': False, 'trialN': 97, 'loaded': True, 'loadedTime': 6071.20000000298, 'positionName': 'LEFT', 'positionCoords': [512.6, 335], 'bid': 8.32}, {'imgObject': {}, 'id': 'mac & cheese', 'src': '/static/foodstim60/mac & cheese.jpg', 'key': 'i', 'origWidth': 410, 'origHeight': 410, 'width': 410, 'height': 410, 'widthPercent': 0.45, 'rescaleHeight': False, 'trialN': 97, 'loaded': True, 'loadedTime': 5951.900000002235, 'positionName': 'RIGHT', 'positionCoords': [998.4, 335], 'bid': 9.18}]",277100.80000000075,1669830655107,apple slices,mac & cheese,8.32,9.18,0.8599999999999994,mac & cheese,1319.6000000014901,1320,1319.9000000022352,True,i,278931.6000000015,1830.800000000745,1669830656938,1831,HRV,HRV_0039,2022-11-30 17:54:41
98,"[{'imgObject': {}, 'id': 'chicken nuggets2', 'src': '/static/foodstim60/chicken nuggets2.jpg', 'key': 'u', 'origWidth': 410, 'origHeight': 409, 'width': 410, 'height': 409, 'widthPercent': 0.45, 'rescaleHeight': False, 'trialN': 98, 'loaded': True, 'loadedTime': 5772.300000000745, 'positionName': 'LEFT', 'positionCoords': [511.6, 335.5], 'bid': 8.44}, {'imgObject': {}, 'id': 'cheerios', 'src': '/static/foodstim60/cheerios.jpg', 'key': 'i', 'origWidth': 409, 'origHeight': 410, 'width': 409, 'height': 410, 'widthPercent': 0.45, 'rescaleHeight': False, 'trialN': 98, 'loaded': True, 'loadedTime': 5471, 'positionName': 'RIGHT', 'positionCoords': [998.4, 335], 'bid': 4.28}]",278931.80000000075,1669830656938,chicken nuggets2,cheerios,8.44,4.28,-4.159999999999999,chicken nuggets2,1624.800000000745,1625,1625.0,True,u,281072.200000003,2140.400000002235,1669830659078,2140,HRV,HRV_0039,2022-11-30 17:54:41
99,"[{'imgObject': {}, 'id': 'cheerios', 'src': '/static/foodstim60/cheerios.jpg', 'key': 'u', 'origWidth': 409, 'origHeight': 410, 'width': 409, 'height': 410, 'widthPercent': 0.45, 'rescaleHeight': False, 'trialN': 99, 'loaded': True, 'loadedTime': 5474.20000000298, 'positionName': 'LEFT', 'positionCoords': [512.6, 335], 'bid': 4.28}, {'imgObject': {}, 'id': 'granola w milk', 'src': '/static/foodstim60/granola w milk.jpg', 'key': 'i', 'origWidth': 410, 'origHeight': 410, 'width': 410, 'height': 410, 'widthPercent': 0.45, 'rescaleHeight': False, 'trialN': 99, 'loaded': True, 'loadedTime': 6074.5, 'positionName': 'RIGHT', 'positionCoords': [998.4, 335], 'bid': 0.79}]",281072.40000000224,1669830659078,cheerios,granola w milk,4.28,0.79,-3.49,cheerios,2500.699999999255,2501,2501.099999997765,True,u,284089.200000003,3016.800000000745,1669830662095,3017,HRV,HRV_0039,2022-11-30 17:54:41
100,"[{'imgObject': {}, 'id': 'Tribe humus pita', 'src': '/static/foodstim60/Tribe humus pita.jpg', 'key': 'u', 'origWidth': 411, 'origHeight': 411, 'width': 411, 'height': 411, 'widthPercent': 0.45, 'rescaleHeight': False, 'trialN': 100, 'loaded': True, 'loadedTime': 6001.300000000745, 'positionName': 'LEFT', 'positionCoords': [510.6, 334.5], 'bid': 5.73}, {'imgObject': {}, 'id': 'shreddedwheatwithmilk', 'src': '/static/foodstim60/shreddedwheatwithmilk.jpg', 'key': 'i', 'origWidth': 410, 'origHeight': 410, 'width': 410, 'height': 410, 'widthPercent': 0.45, 'rescaleHeight': False, 'trialN': 100, 'loaded': True, 'loadedTime': 5568.70000000298, 'positionName': 'RIGHT', 'positionCoords': [998.4, 335], 'bid': 4.04}]",284089.200000003,1669830662095,Tribe humus pita,shreddedwheatwithmilk,5.73,4.04,-1.6900000000000004,Tribe humus pita,2475.39999999851,2476,2475.699999999255,True,u,287083.6000000015,2994.39999999851,1669830665089,2994,HRV,HRV_0039,2022-11-30 17:54:41
101,"[{'imgObject': {}, 'id': 'chicken nuggets2', 'src': '/static/foodstim60/chicken nuggets2.jpg', 'key': 'u', 'origWidth': 410, 'origHeight': 409, 'width': 410, 'height': 409, 'widthPercent': 0.45, 'rescaleHeight': False, 'trialN': 101, 'loaded': True, 'loadedTime': 5764.800000000745, 'positionName': 'LEFT', 'positionCoords': [511.6, 335.5], 'bid': 8.44}, {'imgObject': {}, 'id': 'rigatoni and sauce', 'src': '/static/foodstim60/rigatoni and sauce.jpg', 'key': 'i', 'origWidth': 410, 'origHeight': 411, 'width': 410, 'height': 411, 'widthPercent': 0.45, 'rescaleHeight': False, 'trialN': 101, 'loaded': True, 'loadedTime': 6036.10000000149, 'positionName': 'RIGHT', 'positionCoords': [998.4, 334.5], 'bid': 8.83}]",287083.700000003,1669830665090,chicken nuggets2,rigatoni and sauce,8.44,8.83,0.39000000000000057,rigatoni and sauce,1581.8999999985099,1582,1582.2999999970198,True,i,289182.80000000075,2099.099999997765,1669830667189,2099,HRV,HRV_0039,2022-11-30 17:54:41
102,"[{'imgObject': {}, 'id': 'cantaloupe', 'src': '/static/foodstim60/cantaloupe.jpg', 'key': 'u', 'origWidth': 409, 'origHeight': 409, 'width': 409, 'height': 409, 'widthPercent': 0.45, 'rescaleHeight': False, 'trialN': 102, 'loaded': True, 'loadedTime': 5888.20000000298, 'positionName': 'LEFT', 'positionCoords': [512.6, 335.5], 'bid': 5.43}, {'imgObject': {}, 'id': 'burger', 'src': '/static/foodstim60/burger.jpg', 'key': 'i', 'origWidth': 409, 'origHeight': 409, 'width': 409, 'height': 409, 'widthPercent': 0.45, 'rescaleHeight': False, 'trialN': 102, 'loaded': True, 'loadedTime': 5721.10000000149, 'positionName': 'RIGHT', 'positionCoords': [998.4, 335.5], 'bid': 8.700000000000001}]",289182.90000000224,1669830667189,cantaloupe,burger,5.43,8.700000000000001,3.2700000000000014,burger,2262.099999997765,2262,2262.5,True,i,291956.200000003,2773.300000000745,1669830669962,2773,HRV,HRV_0039,2022-11-30 17:54:41
103,"[{'imgObject': {}, 'id': 'Tribe humus pita', 'src': '/static/foodstim60/Tribe humus pita.jpg', 'key': 'u', 'origWidth': 411, 'origHeight': 411, 'width': 411, 'height': 411, 'widthPercent': 0.45, 'rescaleHeight': False, 'trialN': 103, 'loaded': True, 'loadedTime': 5992.70000000298, 'positionName': 'LEFT', 'positionCoords': [510.6, 334.5], 'bid': 5.73}, {'imgObject': {}, 'id': 'cantaloupe', 'src': '/static/foodstim60/cantaloupe.jpg', 'key': 'i', 'origWidth': 409, 'origHeight': 409, 'width': 409, 'height': 409, 'widthPercent': 0.45, 'rescaleHeight': False, 'trialN': 103, 'loaded': True, 'loadedTime': 5884, 'positionName': 'RIGHT', 'positionCoords': [998.4, 335.5], 'bid': 5.43}]",291956.30000000075,1669830669962,Tribe humus pita,cantaloupe,5.73,5.43,-0.3000000000000007,cantaloupe,2383.10000000149,2383,2383.199999999255,True,i,294845.1000000015,2888.800000000745,1669830672851,2889,HRV,HRV_0039,2022-11-30 17:54:41
104,"[{'imgObject': {}, 'id': 'orange slices', 'src': '/static/foodstim60/orange slices.jpg', 'key': 'u', 'origWidth': 409, 'origHeight': 410, 'width': 409, 'height': 410, 'widthPercent': 0.45, 'rescaleHeight': False, 'trialN': 104, 'loaded': True, 'loadedTime': 6088.400000002235, 'positionName': 'LEFT', 'positionCoords': [512.6, 335], 'bid': 0.5}, {'imgObject': {}, 'id': 'cherries', 'src': '/static/foodstim60/cherries.jpg', 'key': 'i', 'origWidth': 410, 'origHeight': 411, 'width': 410, 'height': 411, 'widthPercent': 0.45, 'rescaleHeight': False, 'trialN': 104, 'loaded': True, 'loadedTime': 5776, 'positionName': 'RIGHT', 'positionCoords': [998.4, 334.5], 'bid': 0.34}]",294845.1000000015,1669830672851,orange slices,cherries,0.5,0.34,-0.15999999999999998,cherries,2009.5,2010,2009.699999999255,True,i,297364.0,2518.89999999851,1669830675370,2519,HRV,HRV_0039,2022-11-30 17:54:41
105,"[{'imgObject': {}, 'id': 'baked potato', 'src': '/static/foodstim60/baked potato.jpg', 'key': 'u', 'origWidth': 409, 'origHeight': 410, 'width': 409, 'height': 410, 'widthPercent': 0.45, 'rescaleHeight': False, 'trialN': 105, 'loaded': True, 'loadedTime': 5534.60000000149, 'positionName': 'LEFT', 'positionCoords': [512.6, 335], 'bid': 8.27}, {'imgObject': {}, 'id': 'grilled chicken strips', 'src': '/static/foodstim60/grilled chicken strips.jpg', 'key': 'i', 'origWidth': 410, 'origHeight': 411, 'width': 410, 'height': 411, 'widthPercent': 0.45, 'rescaleHeight': False, 'trialN': 105, 'loaded': True, 'loadedTime': 5355, 'positionName': 'RIGHT', 'positionCoords': [998.4, 334.5], 'bid': 7.96}]",297364.200000003,1669830675370,baked potato,grilled chicken strips,8.27,7.96,-0.3099999999999996,grilled chicken strips,3112.099999997765,3112,3112.2999999970198,True,i,300984.40000000224,3620.199999999255,1669830678990,3620,HRV,HRV_0039,2022-11-30 17:54:41
106,"[{'imgObject': {}, 'id': 'banana', 'src': '/static/foodstim60/banana.jpg', 'key': 'u', 'origWidth': 410, 'origHeight': 410, 'width': 410, 'height': 410, 'widthPercent': 0.45, 'rescaleHeight': False, 'trialN': 106, 'loaded': True, 'loadedTime': 5689.900000002235, 'positionName': 'LEFT', 'positionCoords': [511.6, 335], 'bid': 8.040000000000001}, {'imgObject': {}, 'id': 'mac & cheese', 'src': '/static/foodstim60/mac & cheese.jpg', 'key': 'i', 'origWidth': 410, 'origHeight': 410, 'width': 410, 'height': 410, 'widthPercent': 0.45, 'rescaleHeight': False, 'trialN': 106, 'loaded': True, 'loadedTime': 5950.70000000298, 'positionName': 'RIGHT', 'positionCoords': [998.4, 335], 'bid': 9.18}]",300984.5,1669830678990,banana,mac & cheese,8.040000000000001,9.18,1.1399999999999988,mac & cheese,2003.800000000745,2004,2004.0,True,i,303496.90000000224,2512.400000002235,1669830681503,2513,HRV,HRV_0039,2022-11-30 17:54:41
107,"[{'imgObject': {}, 'id': 'sushi w_condiments', 'src': '/static/foodstim60/sushi w_condiments.jpg', 'key': 'u', 'origWidth': 410, 'origHeight': 410, 'width': 410, 'height': 410, 'widthPercent': 0.45, 'rescaleHeight': False, 'trialN': 107, 'loaded': True, 'loadedTime': 5434.10000000149, 'positionName': 'LEFT', 'positionCoords': [511.6, 335], 'bid': 0.06}, {'imgObject': {}, 'id': 'olives', 'src': '/static/foodstim60/olives.jpg', 'key': 'i', 'origWidth': 410, 'origHeight': 410, 'width': 410, 'height': 410, 'widthPercent': 0.45, 'rescaleHeight': False, 'trialN': 107, 'loaded': True, 'loadedTime': 5272.60000000149, 'positionName': 'RIGHT', 'positionCoords': [998.4, 335], 'bid': 0.2}]",303496.90000000224,1669830681503,sushi w_condiments,olives,0.06,0.2,0.14,olives,2200.099999997765,2200,2200.300000000745,True,i,306219.200000003,2722.300000000745,1669830684225,2722,HRV,HRV_0039,2022-11-30 17:54:41
108,"[{'imgObject': {}, 'id': 'tacos', 'src': '/static/foodstim60/tacos.jpg', 'key': 'u', 'origWidth': 411, 'origHeight': 411, 'width': 411, 'height': 411, 'widthPercent': 0.45, 'rescaleHeight': False, 'trialN': 108, 'loaded': True, 'loadedTime': 6076, 'positionName': 'LEFT', 'positionCoords': [510.6, 334.5], 'bid': 8.58}, {'imgObject': {}, 'id': 'chicken nuggets2', 'src': '/static/foodstim60/chicken nuggets2.jpg', 'key': 'i', 'origWidth': 410, 'origHeight': 409, 'width': 410, 'height': 409, 'widthPercent': 0.45, 'rescaleHeight': False, 'trialN': 108, 'loaded': True, 'loadedTime': 5772.400000002235, 'positionName': 'RIGHT', 'positionCoords': [998.4, 335.5], 'bid': 8.44}]",306219.40000000224,1669830684225,tacos,chicken nuggets2,8.58,8.44,-0.14000000000000057,chicken nuggets2,2322.89999999851,2324,2323.300000000745,True,i,309048.1000000015,2828.699999999255,1669830687054,2829,HRV,HRV_0039,2022-11-30 17:54:41
