trialN,stimuli,question,trialStartTime,trialStartTime_UNIX,stimulus1,trialEvents,rt,receivedResponse,rating,trialEndTime,trialDuration,stimulus1Loaded,exp,subjectId,date
0,"[{'imgObject': {}, 'id': 'pear', 'src': '/static/foodstim60/pear.jpg', 'key': 'NaN', 'origWidth': 411, 'origHeight': 410, 'width': 411, 'height': 410, 'widthPercent': 0.8, 'rescaleHeight': True, 'trialN': 0, 'loaded': True, 'loadedTime': 2210.600000143051, 'positionName': 'CENTER', 'positionCoords': [754.5, 335]}]",Rate how much you want to eat this food from 0 (least) to 10 (most).,2310.800000190735,1669837118514,pear,"[{'event': 'fullscreenchange', 'details': 'fullscreenexit', 'performance time': 2829.7000000476837, 'date time': 1669837119033}]",4318.699999809265,True,4.03,6629.5,4318.699999809265,True,HRV,HRV_0197,2022-11-30 19:40:15
1,"[{'imgObject': {}, 'id': 'mac & cheese', 'src': '/static/foodstim60/mac & cheese.jpg', 'key': 'NaN', 'origWidth': 410, 'origHeight': 410, 'width': 410, 'height': 410, 'widthPercent': 0.8, 'rescaleHeight': True, 'trialN': 1, 'loaded': True, 'loadedTime': 6634.600000143051, 'positionName': 'CENTER', 'positionCoords': [731.5, 263.5]}]",Rate how much you want to eat this food from 0 (least) to 10 (most).,6632.0,1669837122835,mac & cheese,,1725.9000000953674,True,3.7600000000000002,8357.900000095367,1725.9000000953674,True,HRV,HRV_0197,2022-11-30 19:40:15
2,"[{'imgObject': {}, 'id': 'rigatoni and sauce', 'src': '/static/foodstim60/rigatoni and sauce.jpg', 'key': 'NaN', 'origWidth': 410, 'origHeight': 411, 'width': 410, 'height': 411, 'widthPercent': 0.8, 'rescaleHeight': True, 'trialN': 2, 'loaded': True, 'loadedTime': 8361.800000190735, 'positionName': 'CENTER', 'positionCoords': [731.5, 263]}]",Rate how much you want to eat this food from 0 (least) to 10 (most).,8359.200000047684,1669837124562,rigatoni and sauce,,1318.6000001430511,True,2.93,9677.800000190735,1318.6000001430511,True,HRV,HRV_0197,2022-11-30 19:40:15
3,"[{'imgObject': {}, 'id': 'Grapes', 'src': '/static/foodstim60/Grapes.jpg', 'key': 'NaN', 'origWidth': 411, 'origHeight': 411, 'width': 411, 'height': 411, 'widthPercent': 0.8, 'rescaleHeight': True, 'trialN': 3, 'loaded': True, 'loadedTime': 9681.300000190735, 'positionName': 'CENTER', 'positionCoords': [731, 263]}]",Rate how much you want to eat this food from 0 (least) to 10 (most).,9678.700000047684,1669837125882,Grapes,,2151.0,True,4.2700000000000005,11829.700000047684,2151.0,True,HRV,HRV_0197,2022-11-30 19:40:15
4,"[{'imgObject': {}, 'id': 'lox', 'src': '/static/foodstim60/lox.jpg', 'key': 'NaN', 'origWidth': 410, 'origHeight': 411, 'width': 410, 'height': 411, 'widthPercent': 0.8, 'rescaleHeight': True, 'trialN': 4, 'loaded': True, 'loadedTime': 11833.400000095367, 'positionName': 'CENTER', 'positionCoords': [731.5, 263]}]",Rate how much you want to eat this food from 0 (least) to 10 (most).,11830.800000190735,1669837128034,lox,,1423.0999999046326,True,5.66,13253.900000095367,1423.0999999046326,True,HRV,HRV_0197,2022-11-30 19:40:15
5,"[{'imgObject': {}, 'id': 'avocado', 'src': '/static/foodstim60/avocado.jpg', 'key': 'NaN', 'origWidth': 409, 'origHeight': 409, 'width': 409, 'height': 409, 'widthPercent': 0.8, 'rescaleHeight': True, 'trialN': 5, 'loaded': True, 'loadedTime': 13257.600000143051, 'positionName': 'CENTER', 'positionCoords': [732, 264]}]",Rate how much you want to eat this food from 0 (least) to 10 (most).,13255.0,1669837129458,avocado,,1519.0,True,7.82,14774.0,1519.0,True,HRV,HRV_0197,2022-11-30 19:40:15
6,"[{'imgObject': {}, 'id': 'kiwi', 'src': '/static/foodstim60/kiwi.jpg', 'key': 'NaN', 'origWidth': 410, 'origHeight': 410, 'width': 410, 'height': 410, 'widthPercent': 0.8, 'rescaleHeight': True, 'trialN': 6, 'loaded': True, 'loadedTime': 14777.700000047684, 'positionName': 'CENTER', 'positionCoords': [731.5, 263.5]}]",Rate how much you want to eat this food from 0 (least) to 10 (most).,14775.100000143051,1669837130978,kiwi,,1262.7999999523163,True,3.77,16037.900000095367,1262.7999999523163,True,HRV,HRV_0197,2022-11-30 19:40:15
7,"[{'imgObject': {}, 'id': 'sushi w_condiments', 'src': '/static/foodstim60/sushi w_condiments.jpg', 'key': 'NaN', 'origWidth': 410, 'origHeight': 410, 'width': 410, 'height': 410, 'widthPercent': 0.8, 'rescaleHeight': True, 'trialN': 7, 'loaded': True, 'loadedTime': 16041.700000047684, 'positionName': 'CENTER', 'positionCoords': [731.5, 263.5]}]",Rate how much you want to eat this food from 0 (least) to 10 (most).,16038.900000095367,1669837132242,sushi w_condiments,,1671.0,True,8.86,17709.900000095367,1671.0,True,HRV,HRV_0197,2022-11-30 19:40:15
8,"[{'imgObject': {}, 'id': 'Tribe humus pita', 'src': '/static/foodstim60/Tribe humus pita.jpg', 'key': 'NaN', 'origWidth': 411, 'origHeight': 411, 'width': 411, 'height': 411, 'widthPercent': 0.8, 'rescaleHeight': True, 'trialN': 8, 'loaded': True, 'loadedTime': 17713.800000190735, 'positionName': 'CENTER', 'positionCoords': [731, 263]}]",Rate how much you want to eat this food from 0 (least) to 10 (most).,17711.10000014305,1669837133927,Tribe humus pita,,1438.5,True,8.32,19149.60000014305,1438.5,True,HRV,HRV_0197,2022-11-30 19:40:15
9,"[{'imgObject': {}, 'id': 'omelette', 'src': '/static/foodstim60/omelette.jpg', 'key': 'NaN', 'origWidth': 410, 'origHeight': 409, 'width': 410, 'height': 409, 'widthPercent': 0.8, 'rescaleHeight': True, 'trialN': 9, 'loaded': True, 'loadedTime': 19153.700000047684, 'positionName': 'CENTER', 'positionCoords': [731.5, 264]}]",Rate how much you want to eat this food from 0 (least) to 10 (most).,19150.800000190735,1669837135367,omelette,,1751.0,True,9.86,20901.800000190735,1751.0,True,HRV,HRV_0197,2022-11-30 19:40:15
10,"[{'imgObject': {}, 'id': 'cherry tomato', 'src': '/static/foodstim60/cherry tomato.jpg', 'key': 'NaN', 'origWidth': 410, 'origHeight': 410, 'width': 410, 'height': 410, 'widthPercent': 0.8, 'rescaleHeight': True, 'trialN': 10, 'loaded': True, 'loadedTime': 20905.900000095367, 'positionName': 'CENTER', 'positionCoords': [731.5, 263.5]}]",Rate how much you want to eat this food from 0 (least) to 10 (most).,20903.0,1669837137119,cherry tomato,,2390.800000190735,True,4.14,23293.800000190735,2390.800000190735,True,HRV,HRV_0197,2022-11-30 19:40:15
11,"[{'imgObject': {}, 'id': 'turkey sandwich', 'src': '/static/foodstim60/turkey sandwich.jpg', 'key': 'NaN', 'origWidth': 409, 'origHeight': 409, 'width': 409, 'height': 409, 'widthPercent': 0.8, 'rescaleHeight': True, 'trialN': 11, 'loaded': True, 'loadedTime': 23297.900000095367, 'positionName': 'CENTER', 'positionCoords': [732, 264]}]",Rate how much you want to eat this food from 0 (least) to 10 (most).,23295.0,1669837139511,turkey sandwich,,1166.9000000953674,True,7.17,24461.900000095367,1166.9000000953674,True,HRV,HRV_0197,2022-11-30 19:40:15
12,"[{'imgObject': {}, 'id': 'eggs', 'src': '/static/foodstim60/eggs.jpg', 'key': 'NaN', 'origWidth': 409, 'origHeight': 409, 'width': 409, 'height': 409, 'widthPercent': 0.8, 'rescaleHeight': True, 'trialN': 12, 'loaded': True, 'loadedTime': 24465.800000190735, 'positionName': 'CENTER', 'positionCoords': [732, 264]}]",Rate how much you want to eat this food from 0 (least) to 10 (most).,24463.0,1669837140679,eggs,,1510.6000001430511,True,9.89,25973.60000014305,1510.6000001430511,True,HRV,HRV_0197,2022-11-30 19:40:15
13,"[{'imgObject': {}, 'id': 'ice cream sundae 002', 'src': '/static/foodstim60/ice cream sundae 002.jpg', 'key': 'NaN', 'origWidth': 409, 'origHeight': 409, 'width': 409, 'height': 409, 'widthPercent': 0.8, 'rescaleHeight': True, 'trialN': 13, 'loaded': True, 'loadedTime': 25977.700000047684, 'positionName': 'CENTER', 'positionCoords': [732, 264]}]",Rate how much you want to eat this food from 0 (least) to 10 (most).,25974.800000190735,1669837142191,ice cream sundae 002,,1647.0,True,2.22,27621.800000190735,1647.0,True,HRV,HRV_0197,2022-11-30 19:40:15
14,"[{'imgObject': {}, 'id': 'cantaloupe', 'src': '/static/foodstim60/cantaloupe.jpg', 'key': 'NaN', 'origWidth': 409, 'origHeight': 409, 'width': 409, 'height': 409, 'widthPercent': 0.8, 'rescaleHeight': True, 'trialN': 14, 'loaded': True, 'loadedTime': 27626.400000095367, 'positionName': 'CENTER', 'positionCoords': [732, 264]}]",Rate how much you want to eat this food from 0 (least) to 10 (most).,27623.0,1669837143839,cantaloupe,,1766.9000000953674,True,0.14,29389.900000095367,1766.9000000953674,True,HRV,HRV_0197,2022-11-30 19:40:15
15,"[{'imgObject': {}, 'id': 'blackbeanswithrice', 'src': '/static/foodstim60/blackbeanswithrice.jpg', 'key': 'NaN', 'origWidth': 410, 'origHeight': 410, 'width': 410, 'height': 410, 'widthPercent': 0.8, 'rescaleHeight': True, 'trialN': 15, 'loaded': True, 'loadedTime': 29393.200000047684, 'positionName': 'CENTER', 'positionCoords': [731.5, 263.5]}]",Rate how much you want to eat this food from 0 (least) to 10 (most).,29391.10000014305,1669837145607,blackbeanswithrice,,1366.7000000476837,True,0.08,30757.800000190735,1366.7000000476837,True,HRV,HRV_0197,2022-11-30 19:40:15
16,"[{'imgObject': {}, 'id': 'strawberries', 'src': '/static/foodstim60/strawberries.jpg', 'key': 'NaN', 'origWidth': 410, 'origHeight': 410, 'width': 410, 'height': 410, 'widthPercent': 0.8, 'rescaleHeight': True, 'trialN': 16, 'loaded': True, 'loadedTime': 30762.10000014305, 'positionName': 'CENTER', 'positionCoords': [731.5, 263.5]}]",Rate how much you want to eat this food from 0 (least) to 10 (most).,30759.10000014305,1669837146975,strawberries,,1462.7000000476837,True,6.17,32221.800000190735,1462.7000000476837,True,HRV,HRV_0197,2022-11-30 19:40:15
17,"[{'imgObject': {}, 'id': 'banana', 'src': '/static/foodstim60/banana.jpg', 'key': 'NaN', 'origWidth': 410, 'origHeight': 410, 'width': 410, 'height': 410, 'widthPercent': 0.8, 'rescaleHeight': True, 'trialN': 17, 'loaded': True, 'loadedTime': 32225.900000095367, 'positionName': 'CENTER', 'positionCoords': [731.5, 263.5]}]",Rate how much you want to eat this food from 0 (least) to 10 (most).,32223.0,1669837148439,banana,,2350.800000190735,True,4.3,34573.800000190735,2350.800000190735,True,HRV,HRV_0197,2022-11-30 19:40:15
18,"[{'imgObject': {}, 'id': 'tacos', 'src': '/static/foodstim60/tacos.jpg', 'key': 'NaN', 'origWidth': 411, 'origHeight': 411, 'width': 411, 'height': 411, 'widthPercent': 0.8, 'rescaleHeight': True, 'trialN': 18, 'loaded': True, 'loadedTime': 34577.90000009537, 'positionName': 'CENTER', 'positionCoords': [731, 263]}]",Rate how much you want to eat this food from 0 (least) to 10 (most).,34575.0,1669837150791,tacos,,1374.8000001907349,True,9.99,35949.800000190735,1374.8000001907349,True,HRV,HRV_0197,2022-11-30 19:40:15
19,"[{'imgObject': {}, 'id': 'rigatoni', 'src': '/static/foodstim60/rigatoni.jpg', 'key': 'NaN', 'origWidth': 411, 'origHeight': 411, 'width': 411, 'height': 411, 'widthPercent': 0.8, 'rescaleHeight': True, 'trialN': 19, 'loaded': True, 'loadedTime': 35953.90000009537, 'positionName': 'CENTER', 'positionCoords': [731, 263]}]",Rate how much you want to eat this food from 0 (least) to 10 (most).,35951.0,1669837152167,rigatoni,,1358.9000000953674,True,1.8800000000000001,37309.90000009537,1358.9000000953674,True,HRV,HRV_0197,2022-11-30 19:40:15
20,"[{'imgObject': {}, 'id': 'hashbrowns', 'src': '/static/foodstim60/hashbrowns.jpg', 'key': 'NaN', 'origWidth': 411, 'origHeight': 410, 'width': 411, 'height': 410, 'widthPercent': 0.8, 'rescaleHeight': True, 'trialN': 20, 'loaded': True, 'loadedTime': 37313.90000009537, 'positionName': 'CENTER', 'positionCoords': [731, 263.5]}]",Rate how much you want to eat this food from 0 (least) to 10 (most).,37311.10000014305,1669837153527,hashbrowns,,1038.7999999523163,True,1.5,38349.90000009537,1038.7999999523163,True,HRV,HRV_0197,2022-11-30 19:40:15
21,"[{'imgObject': {}, 'id': 'chicken nuggets2', 'src': '/static/foodstim60/chicken nuggets2.jpg', 'key': 'NaN', 'origWidth': 410, 'origHeight': 409, 'width': 410, 'height': 409, 'widthPercent': 0.8, 'rescaleHeight': True, 'trialN': 21, 'loaded': True, 'loadedTime': 38354.300000190735, 'positionName': 'CENTER', 'positionCoords': [731.5, 264]}]",Rate how much you want to eat this food from 0 (least) to 10 (most).,38351.200000047684,1669837154567,chicken nuggets2,,1926.6000001430511,True,4.2,40277.800000190735,1926.6000001430511,True,HRV,HRV_0197,2022-11-30 19:40:15
22,"[{'imgObject': {}, 'id': 'fried eggs', 'src': '/static/foodstim60/fried eggs.jpg', 'key': 'NaN', 'origWidth': 410, 'origHeight': 410, 'width': 410, 'height': 410, 'widthPercent': 0.8, 'rescaleHeight': True, 'trialN': 22, 'loaded': True, 'loadedTime': 40282, 'positionName': 'CENTER', 'positionCoords': [731.5, 263.5]}]",Rate how much you want to eat this food from 0 (least) to 10 (most).,40279.200000047684,1669837156495,fried eggs,,1710.6000001430511,True,9.85,41989.800000190735,1710.6000001430511,True,HRV,HRV_0197,2022-11-30 19:40:15
23,"[{'imgObject': {}, 'id': 'sweetpotato', 'src': '/static/foodstim60/sweetpotato.jpg', 'key': 'NaN', 'origWidth': 410, 'origHeight': 410, 'width': 410, 'height': 410, 'widthPercent': 0.8, 'rescaleHeight': True, 'trialN': 23, 'loaded': True, 'loadedTime': 41994.200000047684, 'positionName': 'CENTER', 'positionCoords': [731.5, 263.5]}]",Rate how much you want to eat this food from 0 (least) to 10 (most).,41991.200000047684,1669837158207,sweetpotato,,1390.7000000476837,True,1.05,43381.90000009537,1390.7000000476837,True,HRV,HRV_0197,2022-11-30 19:40:15
24,"[{'imgObject': {}, 'id': 'corn cob', 'src': '/static/foodstim60/corn cob.jpg', 'key': 'NaN', 'origWidth': 411, 'origHeight': 411, 'width': 411, 'height': 411, 'widthPercent': 0.8, 'rescaleHeight': True, 'trialN': 24, 'loaded': True, 'loadedTime': 43386.200000047684, 'positionName': 'CENTER', 'positionCoords': [731, 263]}]",Rate how much you want to eat this food from 0 (least) to 10 (most).,43383.200000047684,1669837159599,corn cob,,1406.5,True,1.67,44789.700000047684,1406.5,True,HRV,HRV_0197,2022-11-30 19:40:15
25,"[{'imgObject': {}, 'id': 'granola w milk', 'src': '/static/foodstim60/granola w milk.jpg', 'key': 'NaN', 'origWidth': 410, 'origHeight': 410, 'width': 410, 'height': 410, 'widthPercent': 0.8, 'rescaleHeight': True, 'trialN': 25, 'loaded': True, 'loadedTime': 44793.90000009537, 'positionName': 'CENTER', 'positionCoords': [731.5, 263.5]}]",Rate how much you want to eat this food from 0 (least) to 10 (most).,44791.5,1669837161008,granola w milk,,1302.4000000953674,True,1.94,46093.90000009537,1302.4000000953674,True,HRV,HRV_0197,2022-11-30 19:40:15
26,"[{'imgObject': {}, 'id': 'hotdog w must', 'src': '/static/foodstim60/hotdog w must.jpg', 'key': 'NaN', 'origWidth': 409, 'origHeight': 409, 'width': 409, 'height': 409, 'widthPercent': 0.8, 'rescaleHeight': True, 'trialN': 26, 'loaded': True, 'loadedTime': 46098.300000190735, 'positionName': 'CENTER', 'positionCoords': [732, 264]}]",Rate how much you want to eat this food from 0 (least) to 10 (most).,46095.300000190735,1669837162312,hotdog w must,,1294.5,True,2.0,47389.800000190735,1294.5,True,HRV,HRV_0197,2022-11-30 19:40:15
27,"[{'imgObject': {}, 'id': 'burrito', 'src': '/static/foodstim60/burrito.jpg', 'key': 'NaN', 'origWidth': 410, 'origHeight': 410, 'width': 410, 'height': 410, 'widthPercent': 0.8, 'rescaleHeight': True, 'trialN': 27, 'loaded': True, 'loadedTime': 47394.700000047684, 'positionName': 'CENTER', 'positionCoords': [731.5, 263.5]}]",Rate how much you want to eat this food from 0 (least) to 10 (most).,47391.300000190735,1669837163607,burrito,,1526.3999998569489,True,4.99,48917.700000047684,1526.3999998569489,True,HRV,HRV_0197,2022-11-30 19:40:15
28,"[{'imgObject': {}, 'id': 'salmon', 'src': '/static/foodstim60/salmon.jpg', 'key': 'NaN', 'origWidth': 410, 'origHeight': 409, 'width': 410, 'height': 409, 'widthPercent': 0.8, 'rescaleHeight': True, 'trialN': 28, 'loaded': True, 'loadedTime': 48921.40000009537, 'positionName': 'CENTER', 'positionCoords': [731.5, 264]}]",Rate how much you want to eat this food from 0 (least) to 10 (most).,48918.90000009537,1669837165135,salmon,,1703.0,True,9.21,50621.90000009537,1703.0,True,HRV,HRV_0197,2022-11-30 19:40:15
29,"[{'imgObject': {}, 'id': 'olives', 'src': '/static/foodstim60/olives.jpg', 'key': 'NaN', 'origWidth': 410, 'origHeight': 410, 'width': 410, 'height': 410, 'widthPercent': 0.8, 'rescaleHeight': True, 'trialN': 29, 'loaded': True, 'loadedTime': 50625.5, 'positionName': 'CENTER', 'positionCoords': [731.5, 263.5]}]",Rate how much you want to eat this food from 0 (least) to 10 (most).,50622.90000009537,1669837166839,olives,,2119.0,True,1.21,52741.90000009537,2119.0,True,HRV,HRV_0197,2022-11-30 19:40:15
30,"[{'imgObject': {}, 'id': 'chickenfingers', 'src': '/static/foodstim60/chickenfingers.jpg', 'key': 'NaN', 'origWidth': 410, 'origHeight': 410, 'width': 410, 'height': 410, 'widthPercent': 0.8, 'rescaleHeight': True, 'trialN': 30, 'loaded': True, 'loadedTime': 52745.60000014305, 'positionName': 'CENTER', 'positionCoords': [731.5, 263.5]}]",Rate how much you want to eat this food from 0 (least) to 10 (most).,52742.90000009537,1669837168959,chickenfingers,,1942.9000000953674,True,4.98,54685.800000190735,1942.9000000953674,True,HRV,HRV_0197,2022-11-30 19:40:15
31,"[{'imgObject': {}, 'id': 'turkeysandwich', 'src': '/static/foodstim60/turkeysandwich.jpg', 'key': 'NaN', 'origWidth': 409, 'origHeight': 409, 'width': 409, 'height': 409, 'widthPercent': 0.8, 'rescaleHeight': True, 'trialN': 31, 'loaded': True, 'loadedTime': 54689.5, 'positionName': 'CENTER', 'positionCoords': [732, 264]}]",Rate how much you want to eat this food from 0 (least) to 10 (most).,54686.800000190735,1669837170903,turkeysandwich,,1167.0,True,6.2700000000000005,55853.800000190735,1167.0,True,HRV,HRV_0197,2022-11-30 19:40:15
32,"[{'imgObject': {}, 'id': 'eggsalad', 'src': '/static/foodstim60/eggsalad.jpg', 'key': 'NaN', 'origWidth': 410, 'origHeight': 409, 'width': 410, 'height': 409, 'widthPercent': 0.8, 'rescaleHeight': True, 'trialN': 32, 'loaded': True, 'loadedTime': 55857.5, 'positionName': 'CENTER', 'positionCoords': [731.5, 264]}]",Rate how much you want to eat this food from 0 (least) to 10 (most).,55854.90000009537,1669837172071,eggsalad,,1886.9000000953674,True,4.82,57741.800000190735,1886.9000000953674,True,HRV,HRV_0197,2022-11-30 19:40:15
33,"[{'imgObject': {}, 'id': 'roastedpotatoes', 'src': '/static/foodstim60/roastedpotatoes.jpg', 'key': 'NaN', 'origWidth': 409, 'origHeight': 410, 'width': 409, 'height': 410, 'widthPercent': 0.8, 'rescaleHeight': True, 'trialN': 33, 'loaded': True, 'loadedTime': 57745.40000009537, 'positionName': 'CENTER', 'positionCoords': [732, 263.5]}]",Rate how much you want to eat this food from 0 (least) to 10 (most).,57742.800000190735,1669837173959,roastedpotatoes,,1159.0,True,4.91,58901.800000190735,1159.0,True,HRV,HRV_0197,2022-11-30 19:40:15
34,"[{'imgObject': {}, 'id': 'yogurt no spoon', 'src': '/static/foodstim60/yogurt no spoon.jpg', 'key': 'NaN', 'origWidth': 411, 'origHeight': 410, 'width': 411, 'height': 410, 'widthPercent': 0.8, 'rescaleHeight': True, 'trialN': 34, 'loaded': True, 'loadedTime': 58906, 'positionName': 'CENTER', 'positionCoords': [731, 263.5]}]",Rate how much you want to eat this food from 0 (least) to 10 (most).,58903.10000014305,1669837175119,yogurt no spoon,,1438.3999998569489,True,9.27,60341.5,1438.3999998569489,True,HRV,HRV_0197,2022-11-30 19:40:15
35,"[{'imgObject': {}, 'id': 'burger', 'src': '/static/foodstim60/burger.jpg', 'key': 'NaN', 'origWidth': 409, 'origHeight': 409, 'width': 409, 'height': 409, 'widthPercent': 0.8, 'rescaleHeight': True, 'trialN': 35, 'loaded': True, 'loadedTime': 60345.40000009537, 'positionName': 'CENTER', 'positionCoords': [732, 264]}]",Rate how much you want to eat this food from 0 (least) to 10 (most).,60342.700000047684,1669837176559,burger,,1143.5,True,9.66,61486.200000047684,1143.5,True,HRV,HRV_0197,2022-11-30 19:40:15
36,"[{'imgObject': {}, 'id': 'fruitsalad', 'src': '/static/foodstim60/fruitsalad.jpg', 'key': 'NaN', 'origWidth': 410, 'origHeight': 410, 'width': 410, 'height': 410, 'widthPercent': 0.8, 'rescaleHeight': True, 'trialN': 36, 'loaded': True, 'loadedTime': 61490.700000047684, 'positionName': 'CENTER', 'positionCoords': [731.5, 263.5]}]",Rate how much you want to eat this food from 0 (least) to 10 (most).,61487.5,1669837177704,fruitsalad,,1414.4000000953674,True,5.87,62901.90000009537,1414.4000000953674,True,HRV,HRV_0197,2022-11-30 19:40:15
37,"[{'imgObject': {}, 'id': 'bagel and cc', 'src': '/static/foodstim60/bagel and cc.jpg', 'key': 'NaN', 'origWidth': 410, 'origHeight': 410, 'width': 410, 'height': 410, 'widthPercent': 0.8, 'rescaleHeight': True, 'trialN': 37, 'loaded': True, 'loadedTime': 62905.800000190735, 'positionName': 'CENTER', 'positionCoords': [731.5, 263.5]}]",Rate how much you want to eat this food from 0 (least) to 10 (most).,62903.10000014305,1669837179119,bagel and cc,,1734.7000000476837,True,3.3200000000000003,64637.800000190735,1734.7000000476837,True,HRV,HRV_0197,2022-11-30 19:40:15
38,"[{'imgObject': {}, 'id': 'edamame', 'src': '/static/foodstim60/edamame.jpg', 'key': 'NaN', 'origWidth': 409, 'origHeight': 410, 'width': 409, 'height': 410, 'widthPercent': 0.8, 'rescaleHeight': True, 'trialN': 38, 'loaded': True, 'loadedTime': 64642.10000014305, 'positionName': 'CENTER', 'positionCoords': [732, 263.5]}]",Rate how much you want to eat this food from 0 (least) to 10 (most).,64639.0,1669837180855,edamame,,1790.9000000953674,True,4.98,66429.90000009537,1790.9000000953674,True,HRV,HRV_0197,2022-11-30 19:40:15
39,"[{'imgObject': {}, 'id': 'shreddedwheatwithmilk', 'src': '/static/foodstim60/shreddedwheatwithmilk.jpg', 'key': 'NaN', 'origWidth': 410, 'origHeight': 410, 'width': 410, 'height': 410, 'widthPercent': 0.8, 'rescaleHeight': True, 'trialN': 39, 'loaded': True, 'loadedTime': 66433.90000009537, 'positionName': 'CENTER', 'positionCoords': [731.5, 263.5]}]",Rate how much you want to eat this food from 0 (least) to 10 (most).,66431.20000004768,1669837182647,shreddedwheatwithmilk,,1950.6000001430511,True,4.43,68381.80000019073,1950.6000001430511,True,HRV,HRV_0197,2022-11-30 19:40:15
40,"[{'imgObject': {}, 'id': 'froot loops w milk', 'src': '/static/foodstim60/froot loops w milk.jpg', 'key': 'NaN', 'origWidth': 410, 'origHeight': 410, 'width': 410, 'height': 410, 'widthPercent': 0.8, 'rescaleHeight': True, 'trialN': 40, 'loaded': True, 'loadedTime': 68385.70000004768, 'positionName': 'CENTER', 'positionCoords': [731.5, 263.5]}]",Rate how much you want to eat this food from 0 (least) to 10 (most).,68383.0,1669837184599,froot loops w milk,,2134.800000190735,True,0.27,70517.80000019073,2134.800000190735,True,HRV,HRV_0197,2022-11-30 19:40:15
41,"[{'imgObject': {}, 'id': 'luckycharms', 'src': '/static/foodstim60/luckycharms.jpg', 'key': 'NaN', 'origWidth': 410, 'origHeight': 409, 'width': 410, 'height': 409, 'widthPercent': 0.8, 'rescaleHeight': True, 'trialN': 41, 'loaded': True, 'loadedTime': 70521.70000004768, 'positionName': 'CENTER', 'positionCoords': [731.5, 264]}]",Rate how much you want to eat this food from 0 (least) to 10 (most).,70519.0,1669837186735,luckycharms,,950.7000000476837,True,0.49,71469.70000004768,950.7000000476837,True,HRV,HRV_0197,2022-11-30 19:40:15
42,"[{'imgObject': {}, 'id': 'veggieswithdip', 'src': '/static/foodstim60/veggieswithdip.jpg', 'key': 'NaN', 'origWidth': 409, 'origHeight': 409, 'width': 409, 'height': 409, 'widthPercent': 0.8, 'rescaleHeight': True, 'trialN': 42, 'loaded': True, 'loadedTime': 71473.80000019073, 'positionName': 'CENTER', 'positionCoords': [732, 264]}]",Rate how much you want to eat this food from 0 (least) to 10 (most).,71470.90000009537,1669837187687,veggieswithdip,,1350.7999999523163,True,5.61,72821.70000004768,1350.7999999523163,True,HRV,HRV_0197,2022-11-30 19:40:15
43,"[{'imgObject': {}, 'id': 'orange slices', 'src': '/static/foodstim60/orange slices.jpg', 'key': 'NaN', 'origWidth': 409, 'origHeight': 410, 'width': 409, 'height': 410, 'widthPercent': 0.8, 'rescaleHeight': True, 'trialN': 43, 'loaded': True, 'loadedTime': 72825.80000019073, 'positionName': 'CENTER', 'positionCoords': [732, 263.5]}]",Rate how much you want to eat this food from 0 (least) to 10 (most).,72823.0,1669837189039,orange slices,,2262.7000000476837,True,4.97,75085.70000004768,2262.7000000476837,True,HRV,HRV_0197,2022-11-30 19:40:15
44,"[{'imgObject': {}, 'id': 'bagel plain', 'src': '/static/foodstim60/bagel plain.jpg', 'key': 'NaN', 'origWidth': 410, 'origHeight': 410, 'width': 410, 'height': 410, 'widthPercent': 0.8, 'rescaleHeight': True, 'trialN': 44, 'loaded': True, 'loadedTime': 75089.90000009537, 'positionName': 'CENTER', 'positionCoords': [731.5, 263.5]}]",Rate how much you want to eat this food from 0 (least) to 10 (most).,75086.90000009537,1669837191303,bagel plain,,1678.9000000953674,True,3.7800000000000002,76765.80000019073,1678.9000000953674,True,HRV,HRV_0197,2022-11-30 19:40:15
45,"[{'imgObject': {}, 'id': 'salad w chicken', 'src': '/static/foodstim60/salad w chicken.jpg', 'key': 'NaN', 'origWidth': 411, 'origHeight': 411, 'width': 411, 'height': 411, 'widthPercent': 0.8, 'rescaleHeight': True, 'trialN': 45, 'loaded': True, 'loadedTime': 76770.40000009537, 'positionName': 'CENTER', 'positionCoords': [731, 263]}]",Rate how much you want to eat this food from 0 (least) to 10 (most).,76767.10000014305,1669837192985,salad w chicken,,1254.5999999046326,True,9.15,78021.70000004768,1254.5999999046326,True,HRV,HRV_0197,2022-11-30 19:40:15
46,"[{'imgObject': {}, 'id': 'baked potato', 'src': '/static/foodstim60/baked potato.jpg', 'key': 'NaN', 'origWidth': 409, 'origHeight': 410, 'width': 409, 'height': 410, 'widthPercent': 0.8, 'rescaleHeight': True, 'trialN': 46, 'loaded': True, 'loadedTime': 78025.80000019073, 'positionName': 'CENTER', 'positionCoords': [732, 263.5]}]",Rate how much you want to eat this food from 0 (least) to 10 (most).,78023.0,1669837194240,baked potato,,1854.8000001907349,True,4.95,79877.80000019073,1854.8000001907349,True,HRV,HRV_0197,2022-11-30 19:40:15
47,"[{'imgObject': {}, 'id': 'cheerios', 'src': '/static/foodstim60/cheerios.jpg', 'key': 'NaN', 'origWidth': 409, 'origHeight': 410, 'width': 409, 'height': 410, 'widthPercent': 0.8, 'rescaleHeight': True, 'trialN': 47, 'loaded': True, 'loadedTime': 79881.90000009537, 'positionName': 'CENTER', 'positionCoords': [732, 263.5]}]",Rate how much you want to eat this food from 0 (least) to 10 (most).,79879.0,1669837196096,cheerios,,1230.8000001907349,True,0.61,81109.80000019073,1230.8000001907349,True,HRV,HRV_0197,2022-11-30 19:40:15
48,"[{'imgObject': {}, 'id': 'grilled chicken strips', 'src': '/static/foodstim60/grilled chicken strips.jpg', 'key': 'NaN', 'origWidth': 410, 'origHeight': 411, 'width': 410, 'height': 411, 'widthPercent': 0.8, 'rescaleHeight': True, 'trialN': 48, 'loaded': True, 'loadedTime': 81114.20000004768, 'positionName': 'CENTER', 'positionCoords': [731.5, 263]}]",Rate how much you want to eat this food from 0 (least) to 10 (most).,81111.30000019073,1669837197329,grilled chicken strips,,1654.3999998569489,True,8.9,82765.70000004768,1654.3999998569489,True,HRV,HRV_0197,2022-11-30 19:40:15
49,"[{'imgObject': {}, 'id': 'steak', 'src': '/static/foodstim60/steak.jpg', 'key': 'NaN', 'origWidth': 410, 'origHeight': 410, 'width': 410, 'height': 410, 'widthPercent': 0.8, 'rescaleHeight': True, 'trialN': 49, 'loaded': True, 'loadedTime': 82770.30000019073, 'positionName': 'CENTER', 'positionCoords': [731.5, 263.5]}]",Rate how much you want to eat this food from 0 (least) to 10 (most).,82767.20000004768,1669837198985,steak,,934.5,True,9.200000000000001,83701.70000004768,934.5,True,HRV,HRV_0197,2022-11-30 19:40:15
50,"[{'imgObject': {}, 'id': 'apple slices', 'src': '/static/foodstim60/apple slices.jpg', 'key': 'NaN', 'origWidth': 409, 'origHeight': 410, 'width': 409, 'height': 410, 'widthPercent': 0.8, 'rescaleHeight': True, 'trialN': 50, 'loaded': True, 'loadedTime': 83706.10000014305, 'positionName': 'CENTER', 'positionCoords': [732, 263.5]}]",Rate how much you want to eat this food from 0 (least) to 10 (most).,83703.20000004768,1669837199921,apple slices,,1542.5,True,5.04,85245.70000004768,1542.5,True,HRV,HRV_0197,2022-11-30 19:40:15
51,"[{'imgObject': {}, 'id': 'cocktailshrimp', 'src': '/static/foodstim60/cocktailshrimp.jpg', 'key': 'NaN', 'origWidth': 410, 'origHeight': 410, 'width': 410, 'height': 410, 'widthPercent': 0.8, 'rescaleHeight': True, 'trialN': 51, 'loaded': True, 'loadedTime': 85249.40000009537, 'positionName': 'CENTER', 'positionCoords': [731.5, 263.5]}]",Rate how much you want to eat this food from 0 (least) to 10 (most).,85246.90000009537,1669837201464,cocktailshrimp,,1342.7999999523163,True,5.91,86589.70000004768,1342.7999999523163,True,HRV,HRV_0197,2022-11-30 19:40:15
52,"[{'imgObject': {}, 'id': 'popsicles', 'src': '/static/foodstim60/popsicles.jpg', 'key': 'NaN', 'origWidth': 410, 'origHeight': 410, 'width': 410, 'height': 410, 'widthPercent': 0.8, 'rescaleHeight': True, 'trialN': 52, 'loaded': True, 'loadedTime': 86593.40000009537, 'positionName': 'CENTER', 'positionCoords': [731.5, 263.5]}]",Rate how much you want to eat this food from 0 (least) to 10 (most).,86590.80000019073,1669837202808,popsicles,,1575.0999999046326,True,0.5700000000000001,88165.90000009537,1575.0999999046326,True,HRV,HRV_0197,2022-11-30 19:40:15
53,"[{'imgObject': {}, 'id': 'mango', 'src': '/static/foodstim60/mango.jpg', 'key': 'NaN', 'origWidth': 411, 'origHeight': 411, 'width': 411, 'height': 411, 'widthPercent': 0.8, 'rescaleHeight': True, 'trialN': 53, 'loaded': True, 'loadedTime': 88169.5, 'positionName': 'CENTER', 'positionCoords': [731, 263]}]",Rate how much you want to eat this food from 0 (least) to 10 (most).,88166.90000009537,1669837204384,mango,,1790.9000000953674,True,0.13,89957.80000019073,1790.9000000953674,True,HRV,HRV_0197,2022-11-30 19:40:15
54,"[{'imgObject': {}, 'id': 'seaweed', 'src': '/static/foodstim60/seaweed.jpg', 'key': 'NaN', 'origWidth': 410, 'origHeight': 410, 'width': 410, 'height': 410, 'widthPercent': 0.8, 'rescaleHeight': True, 'trialN': 54, 'loaded': True, 'loadedTime': 89961.40000009537, 'positionName': 'CENTER', 'positionCoords': [731.5, 263.5]}]",Rate how much you want to eat this food from 0 (least) to 10 (most).,89958.80000019073,1669837206176,seaweed,,1679.0,True,0.09,91637.80000019073,1679.0,True,HRV,HRV_0197,2022-11-30 19:40:15
55,"[{'imgObject': {}, 'id': 'mashed potato', 'src': '/static/foodstim60/mashed potato.jpg', 'key': 'NaN', 'origWidth': 409, 'origHeight': 409, 'width': 409, 'height': 409, 'widthPercent': 0.8, 'rescaleHeight': True, 'trialN': 55, 'loaded': True, 'loadedTime': 91641.5, 'positionName': 'CENTER', 'positionCoords': [732, 264]}]",Rate how much you want to eat this food from 0 (least) to 10 (most).,91638.90000009537,1669837207856,mashed potato,,2318.7999999523163,True,5.79,93957.70000004768,2318.7999999523163,True,HRV,HRV_0197,2022-11-30 19:40:15
56,"[{'imgObject': {}, 'id': 'raspberries', 'src': '/static/foodstim60/raspberries.jpg', 'key': 'NaN', 'origWidth': 411, 'origHeight': 411, 'width': 411, 'height': 411, 'widthPercent': 0.8, 'rescaleHeight': True, 'trialN': 56, 'loaded': True, 'loadedTime': 93961.5, 'positionName': 'CENTER', 'positionCoords': [731, 263]}]",Rate how much you want to eat this food from 0 (least) to 10 (most).,93958.80000019073,1669837210176,raspberries,,1102.8999998569489,True,6.7,95061.70000004768,1102.8999998569489,True,HRV,HRV_0197,2022-11-30 19:40:15
57,"[{'imgObject': {}, 'id': 'blueberries', 'src': '/static/foodstim60/blueberries.jpg', 'key': 'NaN', 'origWidth': 411, 'origHeight': 411, 'width': 411, 'height': 411, 'widthPercent': 0.8, 'rescaleHeight': True, 'trialN': 57, 'loaded': True, 'loadedTime': 95065.5, 'positionName': 'CENTER', 'positionCoords': [731, 263]}]",Rate how much you want to eat this food from 0 (least) to 10 (most).,95062.90000009537,1669837211280,blueberries,,1294.7999999523163,True,5.09,96357.70000004768,1294.7999999523163,True,HRV,HRV_0197,2022-11-30 19:40:15
58,"[{'imgObject': {}, 'id': 'raisin bran w milk', 'src': '/static/foodstim60/raisin bran w milk.jpg', 'key': 'NaN', 'origWidth': 411, 'origHeight': 411, 'width': 411, 'height': 411, 'widthPercent': 0.8, 'rescaleHeight': True, 'trialN': 58, 'loaded': True, 'loadedTime': 96361.60000014305, 'positionName': 'CENTER', 'positionCoords': [731, 263]}]",Rate how much you want to eat this food from 0 (least) to 10 (most).,96358.90000009537,1669837212576,raisin bran w milk,,1430.7000000476837,True,0.67,97789.60000014305,1430.7000000476837,True,HRV,HRV_0197,2022-11-30 19:40:15
59,"[{'imgObject': {}, 'id': 'cherries', 'src': '/static/foodstim60/cherries.jpg', 'key': 'NaN', 'origWidth': 410, 'origHeight': 411, 'width': 410, 'height': 411, 'widthPercent': 0.8, 'rescaleHeight': True, 'trialN': 59, 'loaded': True, 'loadedTime': 97793.30000019073, 'positionName': 'CENTER', 'positionCoords': [731.5, 263]}]",Rate how much you want to eat this food from 0 (least) to 10 (most).,97790.5,1669837214008,cherries,,1415.2000000476837,True,7.71,99205.70000004768,1415.2000000476837,True,HRV,HRV_0197,2022-11-30 19:40:15
