trialN,stimuli,question,trialStartTime,trialStartTime_UNIX,stimulus1,trialEvents,rt,receivedResponse,rating,trialEndTime,trialDuration,stimulus1Loaded,exp,subjectId,date
0,"[{'imgObject': {}, 'id': 'eggs', 'src': '/static/foodstim60/eggs.jpg', 'key': 'NaN', 'origWidth': 409, 'origHeight': 409, 'width': 409, 'height': 409, 'widthPercent': 0.8, 'rescaleHeight': True, 'trialN': 0, 'loaded': True, 'loadedTime': 3000.0999999046326, 'positionName': 'CENTER', 'positionCoords': [732, 264]}]",Rate how much you want to eat this food from 0 (least) to 10 (most).,2994.0999999046326,1669836334877,eggs,"[{'event': 'fullscreenchange', 'details': 'fullscreenexit', 'performance time': 2999.2999999523163, 'date time': 1669836334882}]",2939.800000190735,True,9.950000000000001,5933.900000095367,2939.800000190735,True,HRV,HRV_0197,2022-11-30 19:38:31
1,"[{'imgObject': {}, 'id': 'mashed potato', 'src': '/static/foodstim60/mashed potato.jpg', 'key': 'NaN', 'origWidth': 409, 'origHeight': 409, 'width': 409, 'height': 409, 'widthPercent': 0.8, 'rescaleHeight': True, 'trialN': 1, 'loaded': True, 'loadedTime': 5939.599999904633, 'positionName': 'CENTER', 'positionCoords': [732, 264]}]",Rate how much you want to eat this food from 0 (least) to 10 (most).,5936.599999904633,1669836337819,mashed potato,,2332.800000190735,True,7.33,8269.400000095367,2332.800000190735,True,HRV,HRV_0197,2022-11-30 19:38:31
2,"[{'imgObject': {}, 'id': 'salad w chicken', 'src': '/static/foodstim60/salad w chicken.jpg', 'key': 'NaN', 'origWidth': 411, 'origHeight': 411, 'width': 411, 'height': 411, 'widthPercent': 0.8, 'rescaleHeight': True, 'trialN': 2, 'loaded': True, 'loadedTime': 8273.200000047684, 'positionName': 'CENTER', 'positionCoords': [731, 263]}]",Rate how much you want to eat this food from 0 (least) to 10 (most).,8270.400000095367,1669836340153,salad w chicken,,1831.3999998569489,True,9.35,10101.799999952316,1831.3999998569489,True,HRV,HRV_0197,2022-11-30 19:38:31
3,"[{'imgObject': {}, 'id': 'ice cream sundae 002', 'src': '/static/foodstim60/ice cream sundae 002.jpg', 'key': 'NaN', 'origWidth': 409, 'origHeight': 409, 'width': 409, 'height': 409, 'widthPercent': 0.8, 'rescaleHeight': True, 'trialN': 3, 'loaded': True, 'loadedTime': 10105.5, 'positionName': 'CENTER', 'positionCoords': [732, 264]}]",Rate how much you want to eat this food from 0 (least) to 10 (most).,10102.900000095367,1669836341985,ice cream sundae 002,,2143.0,True,2.07,12245.900000095367,2143.0,True,HRV,HRV_0197,2022-11-30 19:38:31
4,"[{'imgObject': {}, 'id': 'avocado', 'src': '/static/foodstim60/avocado.jpg', 'key': 'NaN', 'origWidth': 409, 'origHeight': 409, 'width': 409, 'height': 409, 'widthPercent': 0.8, 'rescaleHeight': True, 'trialN': 4, 'loaded': True, 'loadedTime': 12249.700000047684, 'positionName': 'CENTER', 'positionCoords': [732, 264]}]",Rate how much you want to eat this food from 0 (least) to 10 (most).,12247.099999904633,1669836344130,avocado,,1670.8000001907349,True,7.22,13917.900000095367,1670.8000001907349,True,HRV,HRV_0197,2022-11-30 19:38:31
5,"[{'imgObject': {}, 'id': 'salmon', 'src': '/static/foodstim60/salmon.jpg', 'key': 'NaN', 'origWidth': 410, 'origHeight': 409, 'width': 410, 'height': 409, 'widthPercent': 0.8, 'rescaleHeight': True, 'trialN': 5, 'loaded': True, 'loadedTime': 13921.599999904633, 'positionName': 'CENTER', 'positionCoords': [731.5, 264]}]",Rate how much you want to eat this food from 0 (least) to 10 (most).,13918.900000095367,1669836345801,salmon,,1887.0999999046326,True,9.02,15806.0,1887.0999999046326,True,HRV,HRV_0197,2022-11-30 19:38:31
6,"[{'imgObject': {}, 'id': 'Tribe humus pita', 'src': '/static/foodstim60/Tribe humus pita.jpg', 'key': 'NaN', 'origWidth': 411, 'origHeight': 411, 'width': 411, 'height': 411, 'widthPercent': 0.8, 'rescaleHeight': True, 'trialN': 6, 'loaded': True, 'loadedTime': 15809.900000095367, 'positionName': 'CENTER', 'positionCoords': [731, 263]}]",Rate how much you want to eat this food from 0 (least) to 10 (most).,15807.200000047684,1669836347690,Tribe humus pita,,1902.5999999046326,True,7.86,17709.799999952316,1902.5999999046326,True,HRV,HRV_0197,2022-11-30 19:38:31
7,"[{'imgObject': {}, 'id': 'chickenfingers', 'src': '/static/foodstim60/chickenfingers.jpg', 'key': 'NaN', 'origWidth': 410, 'origHeight': 410, 'width': 410, 'height': 410, 'widthPercent': 0.8, 'rescaleHeight': True, 'trialN': 7, 'loaded': True, 'loadedTime': 17713.700000047684, 'positionName': 'CENTER', 'positionCoords': [731.5, 263.5]}]",Rate how much you want to eat this food from 0 (least) to 10 (most).,17711.0,1669836349594,chickenfingers,,2238.7000000476837,True,4.97,19949.700000047684,2238.7000000476837,True,HRV,HRV_0197,2022-11-30 19:38:31
8,"[{'imgObject': {}, 'id': 'cocktailshrimp', 'src': '/static/foodstim60/cocktailshrimp.jpg', 'key': 'NaN', 'origWidth': 410, 'origHeight': 410, 'width': 410, 'height': 410, 'widthPercent': 0.8, 'rescaleHeight': True, 'trialN': 8, 'loaded': True, 'loadedTime': 19954, 'positionName': 'CENTER', 'positionCoords': [731.5, 263.5]}]",Rate how much you want to eat this food from 0 (least) to 10 (most).,19951.0,1669836351834,cocktailshrimp,,1894.9000000953674,True,2.11,21845.900000095367,1894.9000000953674,True,HRV,HRV_0197,2022-11-30 19:38:31
9,"[{'imgObject': {}, 'id': 'luckycharms', 'src': '/static/foodstim60/luckycharms.jpg', 'key': 'NaN', 'origWidth': 410, 'origHeight': 409, 'width': 410, 'height': 409, 'widthPercent': 0.8, 'rescaleHeight': True, 'trialN': 9, 'loaded': True, 'loadedTime': 21849.900000095367, 'positionName': 'CENTER', 'positionCoords': [731.5, 264]}]",Rate how much you want to eat this food from 0 (least) to 10 (most).,21847.099999904633,1669836353730,luckycharms,,2054.9000000953674,True,0.8,23902.0,2054.9000000953674,True,HRV,HRV_0197,2022-11-30 19:38:31
10,"[{'imgObject': {}, 'id': 'eggsalad', 'src': '/static/foodstim60/eggsalad.jpg', 'key': 'NaN', 'origWidth': 410, 'origHeight': 409, 'width': 410, 'height': 409, 'widthPercent': 0.8, 'rescaleHeight': True, 'trialN': 10, 'loaded': True, 'loadedTime': 23906.799999952316, 'positionName': 'CENTER', 'positionCoords': [731.5, 264]}]",Rate how much you want to eat this food from 0 (least) to 10 (most).,23903.799999952316,1669836355786,eggsalad,,1982.1000001430511,True,5.03,25885.900000095367,1982.1000001430511,True,HRV,HRV_0197,2022-11-30 19:38:31
11,"[{'imgObject': {}, 'id': 'grilled chicken strips', 'src': '/static/foodstim60/grilled chicken strips.jpg', 'key': 'NaN', 'origWidth': 410, 'origHeight': 411, 'width': 410, 'height': 411, 'widthPercent': 0.8, 'rescaleHeight': True, 'trialN': 11, 'loaded': True, 'loadedTime': 25890, 'positionName': 'CENTER', 'positionCoords': [731.5, 263]}]",Rate how much you want to eat this food from 0 (least) to 10 (most).,25887.0,1669836357770,grilled chicken strips,,1286.7999999523163,True,7.5200000000000005,27173.799999952316,1286.7999999523163,True,HRV,HRV_0197,2022-11-30 19:38:31
12,"[{'imgObject': {}, 'id': 'bagel and cc', 'src': '/static/foodstim60/bagel and cc.jpg', 'key': 'NaN', 'origWidth': 410, 'origHeight': 410, 'width': 410, 'height': 410, 'widthPercent': 0.8, 'rescaleHeight': True, 'trialN': 12, 'loaded': True, 'loadedTime': 27178.400000095367, 'positionName': 'CENTER', 'positionCoords': [731.5, 263.5]}]",Rate how much you want to eat this food from 0 (least) to 10 (most).,27175.0,1669836359058,bagel and cc,,2102.7999999523163,True,4.97,29277.799999952316,2102.7999999523163,True,HRV,HRV_0197,2022-11-30 19:38:31
13,"[{'imgObject': {}, 'id': 'chicken nuggets2', 'src': '/static/foodstim60/chicken nuggets2.jpg', 'key': 'NaN', 'origWidth': 410, 'origHeight': 409, 'width': 410, 'height': 409, 'widthPercent': 0.8, 'rescaleHeight': True, 'trialN': 13, 'loaded': True, 'loadedTime': 29282.099999904633, 'positionName': 'CENTER', 'positionCoords': [731.5, 264]}]",Rate how much you want to eat this food from 0 (least) to 10 (most).,29279.200000047684,1669836361162,chicken nuggets2,,2054.5999999046326,True,1.68,31333.799999952316,2054.5999999046326,True,HRV,HRV_0197,2022-11-30 19:38:31
14,"[{'imgObject': {}, 'id': 'bagel plain', 'src': '/static/foodstim60/bagel plain.jpg', 'key': 'NaN', 'origWidth': 410, 'origHeight': 410, 'width': 410, 'height': 410, 'widthPercent': 0.8, 'rescaleHeight': True, 'trialN': 14, 'loaded': True, 'loadedTime': 31337.799999952316, 'positionName': 'CENTER', 'positionCoords': [731.5, 263.5]}]",Rate how much you want to eat this food from 0 (least) to 10 (most).,31335.099999904633,1669836363218,bagel plain,"[{'event': 'onblur', 'details': 'out of focus', 'performance time': 33409.40000009537, 'date time': 1669836365292}, {'event': 'visibilitychange', 'details': 'hidden', 'performance time': 33475.59999990463, 'date time': 1669836365358}, {'event': 'visibilitychange', 'details': 'visible', 'performance time': 41781.700000047684, 'date time': 1669836373664}, {'event': 'onfocus', 'details': 'in focus', 'performance time': 41782.09999990463, 'date time': 1669836373665}]",11382.600000143051,True,2.35,42717.700000047684,11382.600000143051,True,HRV,HRV_0197,2022-11-30 19:38:31
15,"[{'imgObject': {}, 'id': 'roastedpotatoes', 'src': '/static/foodstim60/roastedpotatoes.jpg', 'key': 'NaN', 'origWidth': 409, 'origHeight': 410, 'width': 409, 'height': 410, 'widthPercent': 0.8, 'rescaleHeight': True, 'trialN': 15, 'loaded': True, 'loadedTime': 42721.59999990463, 'positionName': 'CENTER', 'positionCoords': [732, 263.5]}]",Rate how much you want to eat this food from 0 (least) to 10 (most).,42719.0,1669836374602,roastedpotatoes,,1822.9000000953674,True,4.99,44541.90000009537,1822.9000000953674,True,HRV,HRV_0197,2022-11-30 19:38:31
16,"[{'imgObject': {}, 'id': 'baked potato', 'src': '/static/foodstim60/baked potato.jpg', 'key': 'NaN', 'origWidth': 409, 'origHeight': 410, 'width': 409, 'height': 410, 'widthPercent': 0.8, 'rescaleHeight': True, 'trialN': 16, 'loaded': True, 'loadedTime': 44545.5, 'positionName': 'CENTER', 'positionCoords': [732, 263.5]}]",Rate how much you want to eat this food from 0 (least) to 10 (most).,44542.90000009537,1669836376425,baked potato,,1374.8999998569489,True,4.97,45917.799999952316,1374.8999998569489,True,HRV,HRV_0197,2022-11-30 19:38:31
17,"[{'imgObject': {}, 'id': 'omelette', 'src': '/static/foodstim60/omelette.jpg', 'key': 'NaN', 'origWidth': 410, 'origHeight': 409, 'width': 410, 'height': 409, 'widthPercent': 0.8, 'rescaleHeight': True, 'trialN': 17, 'loaded': True, 'loadedTime': 45921.5, 'positionName': 'CENTER', 'positionCoords': [731.5, 264]}]",Rate how much you want to eat this food from 0 (least) to 10 (most).,45918.90000009537,1669836377801,omelette,,2526.7999999523163,True,9.94,48445.700000047684,2526.7999999523163,True,HRV,HRV_0197,2022-11-30 19:38:31
18,"[{'imgObject': {}, 'id': 'fried eggs', 'src': '/static/foodstim60/fried eggs.jpg', 'key': 'NaN', 'origWidth': 410, 'origHeight': 410, 'width': 410, 'height': 410, 'widthPercent': 0.8, 'rescaleHeight': True, 'trialN': 18, 'loaded': True, 'loadedTime': 48449.5, 'positionName': 'CENTER', 'positionCoords': [731.5, 263.5]}]",Rate how much you want to eat this food from 0 (least) to 10 (most).,48446.90000009537,1669836380330,fried eggs,,1598.7999999523163,True,9.85,50045.700000047684,1598.7999999523163,True,HRV,HRV_0197,2022-11-30 19:38:31
19,"[{'imgObject': {}, 'id': 'cantaloupe', 'src': '/static/foodstim60/cantaloupe.jpg', 'key': 'NaN', 'origWidth': 409, 'origHeight': 409, 'width': 409, 'height': 409, 'widthPercent': 0.8, 'rescaleHeight': True, 'trialN': 19, 'loaded': True, 'loadedTime': 50049.59999990463, 'positionName': 'CENTER', 'positionCoords': [732, 264]}]",Rate how much you want to eat this food from 0 (least) to 10 (most).,50047.0,1669836381930,cantaloupe,,1759.0999999046326,True,0.58,51806.09999990463,1759.0999999046326,True,HRV,HRV_0197,2022-11-30 19:38:31
20,"[{'imgObject': {}, 'id': 'rigatoni', 'src': '/static/foodstim60/rigatoni.jpg', 'key': 'NaN', 'origWidth': 411, 'origHeight': 411, 'width': 411, 'height': 411, 'widthPercent': 0.8, 'rescaleHeight': True, 'trialN': 20, 'loaded': True, 'loadedTime': 51809.799999952316, 'positionName': 'CENTER', 'positionCoords': [731, 263]}]",Rate how much you want to eat this food from 0 (least) to 10 (most).,51807.200000047684,1669836383690,rigatoni,,1830.5999999046326,True,0.7000000000000001,53637.799999952316,1830.5999999046326,True,HRV,HRV_0197,2022-11-30 19:38:31
21,"[{'imgObject': {}, 'id': 'froot loops w milk', 'src': '/static/foodstim60/froot loops w milk.jpg', 'key': 'NaN', 'origWidth': 410, 'origHeight': 410, 'width': 410, 'height': 410, 'widthPercent': 0.8, 'rescaleHeight': True, 'trialN': 21, 'loaded': True, 'loadedTime': 53641.59999990463, 'positionName': 'CENTER', 'positionCoords': [731.5, 263.5]}]",Rate how much you want to eat this food from 0 (least) to 10 (most).,53638.90000009537,1669836385523,froot loops w milk,,1646.5999999046326,True,0.46,55285.5,1646.5999999046326,True,HRV,HRV_0197,2022-11-30 19:38:31
22,"[{'imgObject': {}, 'id': 'popsicles', 'src': '/static/foodstim60/popsicles.jpg', 'key': 'NaN', 'origWidth': 410, 'origHeight': 410, 'width': 410, 'height': 410, 'widthPercent': 0.8, 'rescaleHeight': True, 'trialN': 22, 'loaded': True, 'loadedTime': 55289.200000047684, 'positionName': 'CENTER', 'positionCoords': [731.5, 263.5]}]",Rate how much you want to eat this food from 0 (least) to 10 (most).,55286.40000009537,1669836387170,popsicles,,1007.3999998569489,True,0.47000000000000003,56293.799999952316,1007.3999998569489,True,HRV,HRV_0197,2022-11-30 19:38:31
23,"[{'imgObject': {}, 'id': 'fruitsalad', 'src': '/static/foodstim60/fruitsalad.jpg', 'key': 'NaN', 'origWidth': 410, 'origHeight': 410, 'width': 410, 'height': 410, 'widthPercent': 0.8, 'rescaleHeight': True, 'trialN': 23, 'loaded': True, 'loadedTime': 56297.59999990463, 'positionName': 'CENTER', 'positionCoords': [731.5, 263.5]}]",Rate how much you want to eat this food from 0 (least) to 10 (most).,56295.0,1669836388179,fruitsalad,,2150.7999999523163,True,4.96,58445.799999952316,2150.7999999523163,True,HRV,HRV_0197,2022-11-30 19:38:31
24,"[{'imgObject': {}, 'id': 'mac & cheese', 'src': '/static/foodstim60/mac & cheese.jpg', 'key': 'NaN', 'origWidth': 410, 'origHeight': 410, 'width': 410, 'height': 410, 'widthPercent': 0.8, 'rescaleHeight': True, 'trialN': 24, 'loaded': True, 'loadedTime': 58449.700000047684, 'positionName': 'CENTER', 'positionCoords': [731.5, 263.5]}]",Rate how much you want to eat this food from 0 (least) to 10 (most).,58447.0,1669836390331,mac & cheese,,3006.7999999523163,True,3.0700000000000003,61453.799999952316,3006.7999999523163,True,HRV,HRV_0197,2022-11-30 19:38:31
25,"[{'imgObject': {}, 'id': 'blackbeanswithrice', 'src': '/static/foodstim60/blackbeanswithrice.jpg', 'key': 'NaN', 'origWidth': 410, 'origHeight': 410, 'width': 410, 'height': 410, 'widthPercent': 0.8, 'rescaleHeight': True, 'trialN': 25, 'loaded': True, 'loadedTime': 61458.40000009537, 'positionName': 'CENTER', 'positionCoords': [731.5, 263.5]}]",Rate how much you want to eat this food from 0 (least) to 10 (most).,61455.0,1669836393339,blackbeanswithrice,,2318.7000000476837,True,5.0200000000000005,63773.700000047684,2318.7000000476837,True,HRV,HRV_0197,2022-11-30 19:38:31
26,"[{'imgObject': {}, 'id': 'sushi w_condiments', 'src': '/static/foodstim60/sushi w_condiments.jpg', 'key': 'NaN', 'origWidth': 410, 'origHeight': 410, 'width': 410, 'height': 410, 'widthPercent': 0.8, 'rescaleHeight': True, 'trialN': 26, 'loaded': True, 'loadedTime': 63778.200000047684, 'positionName': 'CENTER', 'positionCoords': [731.5, 263.5]}]",Rate how much you want to eat this food from 0 (least) to 10 (most).,63775.200000047684,1669836395659,sushi w_condiments,,1798.5999999046326,True,9.08,65573.79999995232,1798.5999999046326,True,HRV,HRV_0197,2022-11-30 19:38:31
27,"[{'imgObject': {}, 'id': 'hashbrowns', 'src': '/static/foodstim60/hashbrowns.jpg', 'key': 'NaN', 'origWidth': 411, 'origHeight': 410, 'width': 411, 'height': 410, 'widthPercent': 0.8, 'rescaleHeight': True, 'trialN': 27, 'loaded': True, 'loadedTime': 65578.40000009537, 'positionName': 'CENTER', 'positionCoords': [731, 263.5]}]",Rate how much you want to eat this food from 0 (least) to 10 (most).,65575.0,1669836397459,hashbrowns,,2366.7999999523163,True,1.01,67941.79999995232,2366.7999999523163,True,HRV,HRV_0197,2022-11-30 19:38:31
28,"[{'imgObject': {}, 'id': 'edamame', 'src': '/static/foodstim60/edamame.jpg', 'key': 'NaN', 'origWidth': 409, 'origHeight': 410, 'width': 409, 'height': 410, 'widthPercent': 0.8, 'rescaleHeight': True, 'trialN': 28, 'loaded': True, 'loadedTime': 67946.40000009537, 'positionName': 'CENTER', 'positionCoords': [732, 263.5]}]",Rate how much you want to eat this food from 0 (least) to 10 (most).,67943.0,1669836399827,edamame,,2190.7999999523163,True,5.0200000000000005,70133.79999995232,2190.7999999523163,True,HRV,HRV_0197,2022-11-30 19:38:31
29,"[{'imgObject': {}, 'id': 'corn cob', 'src': '/static/foodstim60/corn cob.jpg', 'key': 'NaN', 'origWidth': 411, 'origHeight': 411, 'width': 411, 'height': 411, 'widthPercent': 0.8, 'rescaleHeight': True, 'trialN': 29, 'loaded': True, 'loadedTime': 70137.79999995232, 'positionName': 'CENTER', 'positionCoords': [731, 263]}]",Rate how much you want to eat this food from 0 (least) to 10 (most).,70135.0,1669836402019,corn cob,,2022.7999999523163,True,1.9100000000000001,72157.79999995232,2022.7999999523163,True,HRV,HRV_0197,2022-11-30 19:38:31
30,"[{'imgObject': {}, 'id': 'strawberries', 'src': '/static/foodstim60/strawberries.jpg', 'key': 'NaN', 'origWidth': 410, 'origHeight': 410, 'width': 410, 'height': 410, 'widthPercent': 0.8, 'rescaleHeight': True, 'trialN': 30, 'loaded': True, 'loadedTime': 72161.90000009537, 'positionName': 'CENTER', 'positionCoords': [731.5, 263.5]}]",Rate how much you want to eat this food from 0 (least) to 10 (most).,72159.0,1669836404043,strawberries,,1694.9000000953674,True,5.0,73853.90000009537,1694.9000000953674,True,HRV,HRV_0197,2022-11-30 19:38:31
31,"[{'imgObject': {}, 'id': 'shreddedwheatwithmilk', 'src': '/static/foodstim60/shreddedwheatwithmilk.jpg', 'key': 'NaN', 'origWidth': 410, 'origHeight': 410, 'width': 410, 'height': 410, 'widthPercent': 0.8, 'rescaleHeight': True, 'trialN': 31, 'loaded': True, 'loadedTime': 73858.09999990463, 'positionName': 'CENTER', 'positionCoords': [731.5, 263.5]}]",Rate how much you want to eat this food from 0 (least) to 10 (most).,73855.20000004768,1669836405739,shreddedwheatwithmilk,,2222.5999999046326,True,4.98,76077.79999995232,2222.5999999046326,True,HRV,HRV_0197,2022-11-30 19:38:31
32,"[{'imgObject': {}, 'id': 'granola w milk', 'src': '/static/foodstim60/granola w milk.jpg', 'key': 'NaN', 'origWidth': 410, 'origHeight': 410, 'width': 410, 'height': 410, 'widthPercent': 0.8, 'rescaleHeight': True, 'trialN': 32, 'loaded': True, 'loadedTime': 76081.90000009537, 'positionName': 'CENTER', 'positionCoords': [731.5, 263.5]}]",Rate how much you want to eat this food from 0 (least) to 10 (most).,76079.09999990463,1669836407963,granola w milk,"[{'event': 'onblur', 'details': 'out of focus', 'performance time': 77881.90000009537, 'date time': 1669836409766}, {'event': 'visibilitychange', 'details': 'hidden', 'performance time': 77935.70000004768, 'date time': 1669836409820}, {'event': 'visibilitychange', 'details': 'visible', 'performance time': 364148.09999990463, 'date time': 1669836696033}, {'event': 'onfocus', 'details': 'in focus', 'performance time': 364148.2999999523, 'date time': 1669836696034}]",289262.10000014305,True,1.24,365341.2000000477,289262.10000014305,True,HRV,HRV_0197,2022-11-30 19:38:31
33,"[{'imgObject': {}, 'id': 'burrito', 'src': '/static/foodstim60/burrito.jpg', 'key': 'NaN', 'origWidth': 410, 'origHeight': 410, 'width': 410, 'height': 410, 'widthPercent': 0.8, 'rescaleHeight': True, 'trialN': 33, 'loaded': True, 'loadedTime': 365345.7000000477, 'positionName': 'CENTER', 'positionCoords': [731.5, 263.5]}]",Rate how much you want to eat this food from 0 (least) to 10 (most).,365342.90000009537,1669836697228,burrito,,2182.2999999523163,True,5.0,367525.2000000477,2182.2999999523163,True,HRV,HRV_0197,2022-11-30 19:38:31
34,"[{'imgObject': {}, 'id': 'sweetpotato', 'src': '/static/foodstim60/sweetpotato.jpg', 'key': 'NaN', 'origWidth': 410, 'origHeight': 410, 'width': 410, 'height': 410, 'widthPercent': 0.8, 'rescaleHeight': True, 'trialN': 34, 'loaded': True, 'loadedTime': 367529.2999999523, 'positionName': 'CENTER', 'positionCoords': [731.5, 263.5]}]",Rate how much you want to eat this food from 0 (least) to 10 (most).,367526.40000009537,1669836699412,sweetpotato,,1966.8999998569489,True,2.44,369493.2999999523,1966.8999998569489,True,HRV,HRV_0197,2022-11-30 19:38:31
35,"[{'imgObject': {}, 'id': 'orange slices', 'src': '/static/foodstim60/orange slices.jpg', 'key': 'NaN', 'origWidth': 409, 'origHeight': 410, 'width': 409, 'height': 410, 'widthPercent': 0.8, 'rescaleHeight': True, 'trialN': 35, 'loaded': True, 'loadedTime': 369497.2999999523, 'positionName': 'CENTER', 'positionCoords': [732, 263.5]}]",Rate how much you want to eat this food from 0 (least) to 10 (most).,369494.2999999523,1669836701380,orange slices,,2334.600000143051,True,4.96,371828.90000009537,2334.600000143051,True,HRV,HRV_0197,2022-11-30 19:38:31
36,"[{'imgObject': {}, 'id': 'lox', 'src': '/static/foodstim60/lox.jpg', 'key': 'NaN', 'origWidth': 410, 'origHeight': 411, 'width': 410, 'height': 411, 'widthPercent': 0.8, 'rescaleHeight': True, 'trialN': 36, 'loaded': True, 'loadedTime': 371835.7999999523, 'positionName': 'CENTER', 'positionCoords': [731.5, 263]}]",Rate how much you want to eat this food from 0 (least) to 10 (most).,371830.09999990463,1669836703716,lox,,1591.1000001430511,True,5.03,373421.2000000477,1591.1000001430511,True,HRV,HRV_0197,2022-11-30 19:38:31
37,"[{'imgObject': {}, 'id': 'rigatoni and sauce', 'src': '/static/foodstim60/rigatoni and sauce.jpg', 'key': 'NaN', 'origWidth': 410, 'origHeight': 411, 'width': 410, 'height': 411, 'widthPercent': 0.8, 'rescaleHeight': True, 'trialN': 37, 'loaded': True, 'loadedTime': 373425, 'positionName': 'CENTER', 'positionCoords': [731.5, 263]}]",Rate how much you want to eat this food from 0 (least) to 10 (most).,373422.40000009537,1669836705308,rigatoni and sauce,"[{'event': 'onblur', 'details': 'out of focus', 'performance time': 374425.09999990463, 'date time': 1669836706311}, {'event': 'visibilitychange', 'details': 'hidden', 'performance time': 374523, 'date time': 1669836706409}, {'event': 'visibilitychange', 'details': 'visible', 'performance time': 741194, 'date time': 1669837073070}, {'event': 'onfocus', 'details': 'in focus', 'performance time': 741194.2000000477, 'date time': 1669837073071}, {'event': 'onblur', 'details': 'out of focus', 'performance time': 741519.7000000477, 'date time': 1669837073396}, {'event': 'visibilitychange', 'details': 'hidden', 'performance time': 741522.2999999523, 'date time': 1669837073399}, {'event': 'visibilitychange', 'details': 'visible', 'performance time': 744334.9000000954, 'date time': 1669837076211}, {'event': 'onfocus', 'details': 'in focus', 'performance time': 744335.2000000477, 'date time': 1669837076211}]",371390.09999990463,True,2.45,744812.5,371390.09999990463,True,HRV,HRV_0197,2022-11-30 19:38:31
38,"[{'imgObject': {}, 'id': 'turkeysandwich', 'src': '/static/foodstim60/turkeysandwich.jpg', 'key': 'NaN', 'origWidth': 409, 'origHeight': 409, 'width': 409, 'height': 409, 'widthPercent': 0.8, 'rescaleHeight': True, 'trialN': 38, 'loaded': True, 'loadedTime': 744817.2999999523, 'positionName': 'CENTER', 'positionCoords': [732, 264]}]",Rate how much you want to eat this food from 0 (least) to 10 (most).,744814.0999999046,1669837076690,turkeysandwich,,1374.4000000953674,True,4.98,746188.5,1374.4000000953674,True,HRV,HRV_0197,2022-11-30 19:38:31
39,"[{'imgObject': {}, 'id': 'steak', 'src': '/static/foodstim60/steak.jpg', 'key': 'NaN', 'origWidth': 410, 'origHeight': 410, 'width': 410, 'height': 410, 'widthPercent': 0.8, 'rescaleHeight': True, 'trialN': 39, 'loaded': True, 'loadedTime': 746192.2000000477, 'positionName': 'CENTER', 'positionCoords': [731.5, 263.5]}]",Rate how much you want to eat this food from 0 (least) to 10 (most).,746189.5999999046,1669837078066,steak,,1294.9000000953674,True,8.43,747484.5,1294.9000000953674,True,HRV,HRV_0197,2022-11-30 19:38:31
40,"[{'imgObject': {}, 'id': 'cherry tomato', 'src': '/static/foodstim60/cherry tomato.jpg', 'key': 'NaN', 'origWidth': 410, 'origHeight': 410, 'width': 410, 'height': 410, 'widthPercent': 0.8, 'rescaleHeight': True, 'trialN': 40, 'loaded': True, 'loadedTime': 747488.0999999046, 'positionName': 'CENTER', 'positionCoords': [731.5, 263.5]}]",Rate how much you want to eat this food from 0 (least) to 10 (most).,747485.5999999046,1669837079362,cherry tomato,,1670.9000000953674,True,1.99,749156.5,1670.9000000953674,True,HRV,HRV_0197,2022-11-30 19:38:31
41,"[{'imgObject': {}, 'id': 'apple slices', 'src': '/static/foodstim60/apple slices.jpg', 'key': 'NaN', 'origWidth': 409, 'origHeight': 410, 'width': 409, 'height': 410, 'widthPercent': 0.8, 'rescaleHeight': True, 'trialN': 41, 'loaded': True, 'loadedTime': 749160.2999999523, 'positionName': 'CENTER', 'positionCoords': [732, 263.5]}]",Rate how much you want to eat this food from 0 (least) to 10 (most).,749157.7000000477,1669837081034,apple slices,,1822.7000000476837,True,5.03,750980.4000000954,1822.7000000476837,True,HRV,HRV_0197,2022-11-30 19:38:31
42,"[{'imgObject': {}, 'id': 'veggieswithdip', 'src': '/static/foodstim60/veggieswithdip.jpg', 'key': 'NaN', 'origWidth': 409, 'origHeight': 409, 'width': 409, 'height': 409, 'widthPercent': 0.8, 'rescaleHeight': True, 'trialN': 42, 'loaded': True, 'loadedTime': 750984.5999999046, 'positionName': 'CENTER', 'positionCoords': [732, 264]}]",Rate how much you want to eat this food from 0 (least) to 10 (most).,750981.5999999046,1669837082858,veggieswithdip,,1206.9000000953674,True,5.74,752188.5,1206.9000000953674,True,HRV,HRV_0197,2022-11-30 19:38:31
43,"[{'imgObject': {}, 'id': 'Grapes', 'src': '/static/foodstim60/Grapes.jpg', 'key': 'NaN', 'origWidth': 411, 'origHeight': 411, 'width': 411, 'height': 411, 'widthPercent': 0.8, 'rescaleHeight': True, 'trialN': 43, 'loaded': True, 'loadedTime': 752192.5, 'positionName': 'CENTER', 'positionCoords': [731, 263]}]",Rate how much you want to eat this food from 0 (least) to 10 (most).,752189.7000000477,1669837084066,Grapes,,1758.7999999523163,True,3.8000000000000003,753948.5,1758.7999999523163,True,HRV,HRV_0197,2022-11-30 19:38:31
44,"[{'imgObject': {}, 'id': 'tacos', 'src': '/static/foodstim60/tacos.jpg', 'key': 'NaN', 'origWidth': 411, 'origHeight': 411, 'width': 411, 'height': 411, 'widthPercent': 0.8, 'rescaleHeight': True, 'trialN': 44, 'loaded': True, 'loadedTime': 753952.7999999523, 'positionName': 'CENTER', 'positionCoords': [731, 263]}]",Rate how much you want to eat this food from 0 (least) to 10 (most).,753949.5999999046,1669837085826,tacos,,1639.0,True,9.82,755588.5999999046,1639.0,True,HRV,HRV_0197,2022-11-30 19:38:31
45,"[{'imgObject': {}, 'id': 'kiwi', 'src': '/static/foodstim60/kiwi.jpg', 'key': 'NaN', 'origWidth': 410, 'origHeight': 410, 'width': 410, 'height': 410, 'widthPercent': 0.8, 'rescaleHeight': True, 'trialN': 45, 'loaded': True, 'loadedTime': 755592.4000000954, 'positionName': 'CENTER', 'positionCoords': [731.5, 263.5]}]",Rate how much you want to eat this food from 0 (least) to 10 (most).,755589.7000000477,1669837087466,kiwi,,1406.7999999523163,True,3.7,756996.5,1406.7999999523163,True,HRV,HRV_0197,2022-11-30 19:38:31
46,"[{'imgObject': {}, 'id': 'raspberries', 'src': '/static/foodstim60/raspberries.jpg', 'key': 'NaN', 'origWidth': 411, 'origHeight': 411, 'width': 411, 'height': 411, 'widthPercent': 0.8, 'rescaleHeight': True, 'trialN': 46, 'loaded': True, 'loadedTime': 757000.5, 'positionName': 'CENTER', 'positionCoords': [731, 263]}]",Rate how much you want to eat this food from 0 (least) to 10 (most).,756997.7000000477,1669837088874,raspberries,,1534.7999999523163,True,6.67,758532.5,1534.7999999523163,True,HRV,HRV_0197,2022-11-30 19:38:31
47,"[{'imgObject': {}, 'id': 'banana', 'src': '/static/foodstim60/banana.jpg', 'key': 'NaN', 'origWidth': 410, 'origHeight': 410, 'width': 410, 'height': 410, 'widthPercent': 0.8, 'rescaleHeight': True, 'trialN': 47, 'loaded': True, 'loadedTime': 758536.5, 'positionName': 'CENTER', 'positionCoords': [731.5, 263.5]}]",Rate how much you want to eat this food from 0 (least) to 10 (most).,758533.7000000477,1669837090410,banana,,1366.7999999523163,True,2.3000000000000003,759900.5,1366.7999999523163,True,HRV,HRV_0197,2022-11-30 19:38:31
48,"[{'imgObject': {}, 'id': 'pear', 'src': '/static/foodstim60/pear.jpg', 'key': 'NaN', 'origWidth': 411, 'origHeight': 410, 'width': 411, 'height': 410, 'widthPercent': 0.8, 'rescaleHeight': True, 'trialN': 48, 'loaded': True, 'loadedTime': 759904.7000000477, 'positionName': 'CENTER', 'positionCoords': [731, 263.5]}]",Rate how much you want to eat this food from 0 (least) to 10 (most).,759901.7000000477,1669837091778,pear,,1246.8999998569489,True,4.43,761148.5999999046,1246.8999998569489,True,HRV,HRV_0197,2022-11-30 19:38:31
49,"[{'imgObject': {}, 'id': 'cherries', 'src': '/static/foodstim60/cherries.jpg', 'key': 'NaN', 'origWidth': 410, 'origHeight': 411, 'width': 410, 'height': 411, 'widthPercent': 0.8, 'rescaleHeight': True, 'trialN': 49, 'loaded': True, 'loadedTime': 761152.5, 'positionName': 'CENTER', 'positionCoords': [731.5, 263]}]",Rate how much you want to eat this food from 0 (least) to 10 (most).,761149.9000000954,1669837093026,cherries,,1222.6999998092651,True,8.11,762372.5999999046,1222.6999998092651,True,HRV,HRV_0197,2022-11-30 19:38:31
50,"[{'imgObject': {}, 'id': 'raisin bran w milk', 'src': '/static/foodstim60/raisin bran w milk.jpg', 'key': 'NaN', 'origWidth': 411, 'origHeight': 411, 'width': 411, 'height': 411, 'widthPercent': 0.8, 'rescaleHeight': True, 'trialN': 50, 'loaded': True, 'loadedTime': 762377.2000000477, 'positionName': 'CENTER', 'positionCoords': [731, 263]}]",Rate how much you want to eat this food from 0 (least) to 10 (most).,762373.7999999523,1669837094250,raisin bran w milk,,1503.2999999523163,True,1.96,763877.0999999046,1503.2999999523163,True,HRV,HRV_0197,2022-11-30 19:38:31
51,"[{'imgObject': {}, 'id': 'mango', 'src': '/static/foodstim60/mango.jpg', 'key': 'NaN', 'origWidth': 411, 'origHeight': 411, 'width': 411, 'height': 411, 'widthPercent': 0.8, 'rescaleHeight': True, 'trialN': 51, 'loaded': True, 'loadedTime': 763881, 'positionName': 'CENTER', 'positionCoords': [731, 263]}]",Rate how much you want to eat this food from 0 (least) to 10 (most).,763878.2000000477,1669837095755,mango,,2102.2999999523163,True,0.16,765980.5,2102.2999999523163,True,HRV,HRV_0197,2022-11-30 19:38:31
52,"[{'imgObject': {}, 'id': 'seaweed', 'src': '/static/foodstim60/seaweed.jpg', 'key': 'NaN', 'origWidth': 410, 'origHeight': 410, 'width': 410, 'height': 410, 'widthPercent': 0.8, 'rescaleHeight': True, 'trialN': 52, 'loaded': True, 'loadedTime': 765984.7000000477, 'positionName': 'CENTER', 'positionCoords': [731.5, 263.5]}]",Rate how much you want to eat this food from 0 (least) to 10 (most).,765981.9000000954,1669837097858,seaweed,,1982.5999999046326,True,0.07,767964.5,1982.5999999046326,True,HRV,HRV_0197,2022-11-30 19:38:31
53,"[{'imgObject': {}, 'id': 'olives', 'src': '/static/foodstim60/olives.jpg', 'key': 'NaN', 'origWidth': 410, 'origHeight': 410, 'width': 410, 'height': 410, 'widthPercent': 0.8, 'rescaleHeight': True, 'trialN': 53, 'loaded': True, 'loadedTime': 767968.5999999046, 'positionName': 'CENTER', 'positionCoords': [731.5, 263.5]}]",Rate how much you want to eat this food from 0 (least) to 10 (most).,767965.7999999523,1669837099842,olives,,1918.7999999523163,True,0.75,769884.5999999046,1918.7999999523163,True,HRV,HRV_0197,2022-11-30 19:38:31
54,"[{'imgObject': {}, 'id': 'turkey sandwich', 'src': '/static/foodstim60/turkey sandwich.jpg', 'key': 'NaN', 'origWidth': 409, 'origHeight': 409, 'width': 409, 'height': 409, 'widthPercent': 0.8, 'rescaleHeight': True, 'trialN': 54, 'loaded': True, 'loadedTime': 769888.5, 'positionName': 'CENTER', 'positionCoords': [732, 264]}]",Rate how much you want to eat this food from 0 (least) to 10 (most).,769885.7999999523,1669837101762,turkey sandwich,,1414.6000001430511,True,6.640000000000001,771300.4000000954,1414.6000001430511,True,HRV,HRV_0197,2022-11-30 19:38:31
55,"[{'imgObject': {}, 'id': 'yogurt no spoon', 'src': '/static/foodstim60/yogurt no spoon.jpg', 'key': 'NaN', 'origWidth': 411, 'origHeight': 410, 'width': 411, 'height': 410, 'widthPercent': 0.8, 'rescaleHeight': True, 'trialN': 55, 'loaded': True, 'loadedTime': 771304.7000000477, 'positionName': 'CENTER', 'positionCoords': [731, 263.5]}]",Rate how much you want to eat this food from 0 (least) to 10 (most).,771301.7000000477,1669837103178,yogurt no spoon,,2022.7999999523163,True,9.56,773324.5,2022.7999999523163,True,HRV,HRV_0197,2022-11-30 19:38:31
56,"[{'imgObject': {}, 'id': 'cheerios', 'src': '/static/foodstim60/cheerios.jpg', 'key': 'NaN', 'origWidth': 409, 'origHeight': 410, 'width': 409, 'height': 410, 'widthPercent': 0.8, 'rescaleHeight': True, 'trialN': 56, 'loaded': True, 'loadedTime': 773328.7000000477, 'positionName': 'CENTER', 'positionCoords': [732, 263.5]}]",Rate how much you want to eat this food from 0 (least) to 10 (most).,773325.7999999523,1669837105202,cheerios,,1223.0,True,0.52,774548.7999999523,1223.0,True,HRV,HRV_0197,2022-11-30 19:38:31
57,"[{'imgObject': {}, 'id': 'blueberries', 'src': '/static/foodstim60/blueberries.jpg', 'key': 'NaN', 'origWidth': 411, 'origHeight': 411, 'width': 411, 'height': 411, 'widthPercent': 0.8, 'rescaleHeight': True, 'trialN': 57, 'loaded': True, 'loadedTime': 774553.4000000954, 'positionName': 'CENTER', 'positionCoords': [731, 263]}]",Rate how much you want to eat this food from 0 (least) to 10 (most).,774550.0999999046,1669837106426,blueberries,,1454.2000000476837,True,5.03,776004.2999999523,1454.2000000476837,True,HRV,HRV_0197,2022-11-30 19:38:31
58,"[{'imgObject': {}, 'id': 'hotdog w must', 'src': '/static/foodstim60/hotdog w must.jpg', 'key': 'NaN', 'origWidth': 409, 'origHeight': 409, 'width': 409, 'height': 409, 'widthPercent': 0.8, 'rescaleHeight': True, 'trialN': 58, 'loaded': True, 'loadedTime': 776008.7000000477, 'positionName': 'CENTER', 'positionCoords': [732, 264]}]",Rate how much you want to eat this food from 0 (least) to 10 (most).,776005.7000000477,1669837107882,hotdog w must,,1478.3999998569489,True,0.99,777484.0999999046,1478.3999998569489,True,HRV,HRV_0197,2022-11-30 19:38:31
59,"[{'imgObject': {}, 'id': 'burger', 'src': '/static/foodstim60/burger.jpg', 'key': 'NaN', 'origWidth': 409, 'origHeight': 409, 'width': 409, 'height': 409, 'widthPercent': 0.8, 'rescaleHeight': True, 'trialN': 59, 'loaded': True, 'loadedTime': 777487.7999999523, 'positionName': 'CENTER', 'positionCoords': [732, 264]}]",Rate how much you want to eat this food from 0 (least) to 10 (most).,777485.2999999523,1669837109362,burger,,1855.1000001430511,True,9.13,779340.4000000954,1855.1000001430511,True,HRV,HRV_0197,2022-11-30 19:38:31
