trialN,stimuli,trialStartTime,trialStartTime_UNIX,stimulus1,stimulus2,stimulus1Bid,stimulus2Bid,delta,trialEvents,selected,rt,rt_UNIX,rt_perfnow,receivedResponse,rsp,trialEndTime,trialDuration,trialEndTime_UNIX,trialDuration_UNIX,exp,subjectId,date
0,"[{'imgObject': {}, 'id': 'granola w milk', 'src': '/static/foodstim60/granola w milk.jpg', 'key': 'u', 'origWidth': 410, 'origHeight': 410, 'width': 410, 'height': 410, 'widthPercent': 0.45, 'rescaleHeight': False, 'trialN': 0, 'loaded': True, 'loadedTime': 2814.7999999523163, 'positionName': 'LEFT', 'positionCoords': [511.6, 335], 'bid': 1.94}, {'imgObject': {}, 'id': 'froot loops w milk', 'src': '/static/foodstim60/froot loops w milk.jpg', 'key': 'i', 'origWidth': 410, 'origHeight': 410, 'width': 410, 'height': 410, 'widthPercent': 0.45, 'rescaleHeight': False, 'trialN': 0, 'loaded': True, 'loadedTime': 2819.2000000476837, 'positionName': 'RIGHT', 'positionCoords': [998.4, 335], 'bid': 0.27}]",3242.2000000476837,1669837282028,granola w milk,froot loops w milk,1.94,0.27,-1.67,"[{'event': 'fullscreenchange', 'details': 'fullscreenexit', 'performance time': 4605.799999952316, 'date time': 1669837283391}]",granola w milk,3356,3356,3356.4000000953674,True,u,7104.400000095367,3862.2000000476837,1669837285890,3862,HRV,HRV_0197,2022-11-30 19:46:14
1,"[{'imgObject': {}, 'id': 'cherry tomato', 'src': '/static/foodstim60/cherry tomato.jpg', 'key': 'u', 'origWidth': 410, 'origHeight': 410, 'width': 410, 'height': 410, 'widthPercent': 0.45, 'rescaleHeight': False, 'trialN': 1, 'loaded': True, 'loadedTime': 7106.100000143051, 'positionName': 'LEFT', 'positionCoords': [489.04, 263.5], 'bid': 4.14}, {'imgObject': {}, 'id': 'rigatoni and sauce', 'src': '/static/foodstim60/rigatoni and sauce.jpg', 'key': 'i', 'origWidth': 410, 'origHeight': 411, 'width': 410, 'height': 411, 'widthPercent': 0.45, 'rescaleHeight': False, 'trialN': 1, 'loaded': True, 'loadedTime': 7106.400000095367, 'positionName': 'RIGHT', 'positionCoords': [973.96, 263], 'bid': 2.93}]",7105.0,1669837285890,cherry tomato,rigatoni and sauce,4.14,2.93,-1.2099999999999995,,cherry tomato,1308.9000000953674,1310,1309.1000001430511,True,u,8925.900000095367,1820.9000000953674,1669837287711,1821,HRV,HRV_0197,2022-11-30 19:46:14
2,"[{'imgObject': {}, 'id': 'rigatoni and sauce', 'src': '/static/foodstim60/rigatoni and sauce.jpg', 'key': 'u', 'origWidth': 410, 'origHeight': 411, 'width': 410, 'height': 411, 'widthPercent': 0.45, 'rescaleHeight': False, 'trialN': 2, 'loaded': True, 'loadedTime': 8927.900000095367, 'positionName': 'LEFT', 'positionCoords': [489.04, 263], 'bid': 2.93}, {'imgObject': {}, 'id': 'cheerios', 'src': '/static/foodstim60/cheerios.jpg', 'key': 'i', 'origWidth': 409, 'origHeight': 410, 'width': 409, 'height': 410, 'widthPercent': 0.45, 'rescaleHeight': False, 'trialN': 2, 'loaded': True, 'loadedTime': 8928.100000143051, 'positionName': 'RIGHT', 'positionCoords': [973.96, 263.5], 'bid': 0.61}]",8926.600000143051,1669837287712,rigatoni and sauce,cheerios,2.93,0.61,-2.3200000000000003,,rigatoni and sauce,1343.8999998569489,1344,1344.0999999046326,True,u,10790.200000047684,1863.5999999046326,1669837289576,1864,HRV,HRV_0197,2022-11-30 19:46:14
3,"[{'imgObject': {}, 'id': 'lox', 'src': '/static/foodstim60/lox.jpg', 'key': 'u', 'origWidth': 410, 'origHeight': 411, 'width': 410, 'height': 411, 'widthPercent': 0.45, 'rescaleHeight': False, 'trialN': 3, 'loaded': True, 'loadedTime': 10791.900000095367, 'positionName': 'LEFT', 'positionCoords': [489.04, 263], 'bid': 5.66}, {'imgObject': {}, 'id': 'eggsalad', 'src': '/static/foodstim60/eggsalad.jpg', 'key': 'i', 'origWidth': 410, 'origHeight': 409, 'width': 410, 'height': 409, 'widthPercent': 0.45, 'rescaleHeight': False, 'trialN': 3, 'loaded': True, 'loadedTime': 10792.100000143051, 'positionName': 'RIGHT', 'positionCoords': [973.96, 264], 'bid': 4.82}]",10790.799999952316,1669837289576,lox,eggsalad,5.66,4.82,-0.8399999999999999,,lox,1487.4000000953674,1488,1487.8000001907349,True,u,12790.900000095367,2000.1000001430511,1669837291576,2000,HRV,HRV_0197,2022-11-30 19:46:14
4,"[{'imgObject': {}, 'id': 'salad w chicken', 'src': '/static/foodstim60/salad w chicken.jpg', 'key': 'u', 'origWidth': 411, 'origHeight': 411, 'width': 411, 'height': 411, 'widthPercent': 0.45, 'rescaleHeight': False, 'trialN': 4, 'loaded': True, 'loadedTime': 12792.600000143051, 'positionName': 'LEFT', 'positionCoords': [488.04, 263], 'bid': 9.15}, {'imgObject': {}, 'id': 'grilled chicken strips', 'src': '/static/foodstim60/grilled chicken strips.jpg', 'key': 'i', 'origWidth': 410, 'origHeight': 411, 'width': 410, 'height': 411, 'widthPercent': 0.45, 'rescaleHeight': False, 'trialN': 4, 'loaded': True, 'loadedTime': 12792.799999952316, 'positionName': 'RIGHT', 'positionCoords': [973.96, 263], 'bid': 8.9}]",12791.400000095367,1669837291577,salad w chicken,grilled chicken strips,9.15,8.9,-0.25,,salad w chicken,694.8999998569489,695,695.2000000476837,True,u,14006.0,1214.5999999046326,1669837292791,1214,HRV,HRV_0197,2022-11-30 19:46:14
5,"[{'imgObject': {}, 'id': 'raisin bran w milk', 'src': '/static/foodstim60/raisin bran w milk.jpg', 'key': 'u', 'origWidth': 411, 'origHeight': 411, 'width': 411, 'height': 411, 'widthPercent': 0.45, 'rescaleHeight': False, 'trialN': 5, 'loaded': True, 'loadedTime': 14007.700000047684, 'positionName': 'LEFT', 'positionCoords': [488.04, 263], 'bid': 0.67}, {'imgObject': {}, 'id': 'bagel and cc', 'src': '/static/foodstim60/bagel and cc.jpg', 'key': 'i', 'origWidth': 410, 'origHeight': 410, 'width': 410, 'height': 410, 'widthPercent': 0.45, 'rescaleHeight': False, 'trialN': 5, 'loaded': True, 'loadedTime': 14007.900000095367, 'positionName': 'RIGHT', 'positionCoords': [973.96, 263.5], 'bid': 3.3200000000000003}]",14006.5,1669837292792,raisin bran w milk,bagel and cc,0.67,3.3200000000000003,2.6500000000000004,,bagel and cc,1735.7000000476837,1736,1735.9000000953674,True,i,16260.299999952316,2253.7999999523163,1669837295046,2254,HRV,HRV_0197,2022-11-30 19:46:14
6,"[{'imgObject': {}, 'id': 'salad w chicken', 'src': '/static/foodstim60/salad w chicken.jpg', 'key': 'u', 'origWidth': 411, 'origHeight': 411, 'width': 411, 'height': 411, 'widthPercent': 0.45, 'rescaleHeight': False, 'trialN': 6, 'loaded': True, 'loadedTime': 16262.400000095367, 'positionName': 'LEFT', 'positionCoords': [488.04, 263], 'bid': 9.15}, {'imgObject': {}, 'id': 'omelette', 'src': '/static/foodstim60/omelette.jpg', 'key': 'i', 'origWidth': 410, 'origHeight': 409, 'width': 410, 'height': 409, 'widthPercent': 0.45, 'rescaleHeight': False, 'trialN': 6, 'loaded': True, 'loadedTime': 16262.799999952316, 'positionName': 'RIGHT', 'positionCoords': [973.96, 264], 'bid': 9.86}]",16260.900000095367,1669837295046,salad w chicken,omelette,9.15,9.86,0.7099999999999991,,salad w chicken,1281,1282,1281.2999999523163,True,u,18047.400000095367,1786.5,1669837296833,1787,HRV,HRV_0197,2022-11-30 19:46:14
7,"[{'imgObject': {}, 'id': 'shreddedwheatwithmilk', 'src': '/static/foodstim60/shreddedwheatwithmilk.jpg', 'key': 'u', 'origWidth': 410, 'origHeight': 410, 'width': 410, 'height': 410, 'widthPercent': 0.45, 'rescaleHeight': False, 'trialN': 7, 'loaded': True, 'loadedTime': 18049.10000014305, 'positionName': 'LEFT', 'positionCoords': [489.04, 263.5], 'bid': 4.43}, {'imgObject': {}, 'id': 'Grapes', 'src': '/static/foodstim60/Grapes.jpg', 'key': 'i', 'origWidth': 411, 'origHeight': 411, 'width': 411, 'height': 411, 'widthPercent': 0.45, 'rescaleHeight': False, 'trialN': 7, 'loaded': True, 'loadedTime': 18049.700000047684, 'positionName': 'RIGHT', 'positionCoords': [973.96, 263], 'bid': 4.2700000000000005}]",18047.900000095367,1669837296833,shreddedwheatwithmilk,Grapes,4.43,4.2700000000000005,-0.15999999999999925,,shreddedwheatwithmilk,1198.2999999523163,1199,1198.5999999046326,True,u,19763.700000047684,1715.7999999523163,1669837298549,1716,HRV,HRV_0197,2022-11-30 19:46:14
8,"[{'imgObject': {}, 'id': 'seaweed', 'src': '/static/foodstim60/seaweed.jpg', 'key': 'u', 'origWidth': 410, 'origHeight': 410, 'width': 410, 'height': 410, 'widthPercent': 0.45, 'rescaleHeight': False, 'trialN': 8, 'loaded': True, 'loadedTime': 19765.60000014305, 'positionName': 'LEFT', 'positionCoords': [489.04, 263.5], 'bid': 0.09}, {'imgObject': {}, 'id': 'cantaloupe', 'src': '/static/foodstim60/cantaloupe.jpg', 'key': 'i', 'origWidth': 409, 'origHeight': 409, 'width': 409, 'height': 409, 'widthPercent': 0.45, 'rescaleHeight': False, 'trialN': 8, 'loaded': True, 'loadedTime': 19766.10000014305, 'positionName': 'RIGHT', 'positionCoords': [973.96, 264], 'bid': 0.14}]",19764.299999952316,1669837298550,seaweed,cantaloupe,0.09,0.14,0.05000000000000002,,seaweed,1842.2000000476837,1842,1842.4000000953674,True,u,22115.299999952316,2351.0,1669837300901,2351,HRV,HRV_0197,2022-11-30 19:46:14
9,"[{'imgObject': {}, 'id': 'cherry tomato', 'src': '/static/foodstim60/cherry tomato.jpg', 'key': 'u', 'origWidth': 410, 'origHeight': 410, 'width': 410, 'height': 410, 'widthPercent': 0.45, 'rescaleHeight': False, 'trialN': 9, 'loaded': True, 'loadedTime': 22116.900000095367, 'positionName': 'LEFT', 'positionCoords': [489.04, 263.5], 'bid': 4.14}, {'imgObject': {}, 'id': 'pear', 'src': '/static/foodstim60/pear.jpg', 'key': 'i', 'origWidth': 411, 'origHeight': 410, 'width': 411, 'height': 410, 'widthPercent': 0.45, 'rescaleHeight': False, 'trialN': 9, 'loaded': True, 'loadedTime': 22117.60000014305, 'positionName': 'RIGHT', 'positionCoords': [973.96, 263.5], 'bid': 4.03}]",22115.799999952316,1669837300901,cherry tomato,pear,4.14,4.03,-0.10999999999999943,,pear,818.4000000953674,819,818.7000000476837,True,i,23452.900000095367,1337.1000001430511,1669837302238,1337,HRV,HRV_0197,2022-11-30 19:46:14
10,"[{'imgObject': {}, 'id': 'salmon', 'src': '/static/foodstim60/salmon.jpg', 'key': 'u', 'origWidth': 410, 'origHeight': 409, 'width': 410, 'height': 409, 'widthPercent': 0.45, 'rescaleHeight': False, 'trialN': 10, 'loaded': True, 'loadedTime': 23454.799999952316, 'positionName': 'LEFT', 'positionCoords': [489.04, 264], 'bid': 9.21}, {'imgObject': {}, 'id': 'tacos', 'src': '/static/foodstim60/tacos.jpg', 'key': 'i', 'origWidth': 411, 'origHeight': 411, 'width': 411, 'height': 411, 'widthPercent': 0.45, 'rescaleHeight': False, 'trialN': 10, 'loaded': True, 'loadedTime': 23455, 'positionName': 'RIGHT', 'positionCoords': [973.96, 263], 'bid': 9.99}]",23453.400000095367,1669837302239,salmon,tacos,9.21,9.99,0.7799999999999994,,tacos,609,609,609.2999999523163,True,i,24577.200000047684,1123.7999999523163,1669837303363,1124,HRV,HRV_0197,2022-11-30 19:46:14
11,"[{'imgObject': {}, 'id': 'banana', 'src': '/static/foodstim60/banana.jpg', 'key': 'u', 'origWidth': 410, 'origHeight': 410, 'width': 410, 'height': 410, 'widthPercent': 0.45, 'rescaleHeight': False, 'trialN': 11, 'loaded': True, 'loadedTime': 24579, 'positionName': 'LEFT', 'positionCoords': [489.04, 263.5], 'bid': 4.3}, {'imgObject': {}, 'id': 'blueberries', 'src': '/static/foodstim60/blueberries.jpg', 'key': 'i', 'origWidth': 411, 'origHeight': 411, 'width': 411, 'height': 411, 'widthPercent': 0.45, 'rescaleHeight': False, 'trialN': 11, 'loaded': True, 'loadedTime': 24579.200000047684, 'positionName': 'RIGHT', 'positionCoords': [973.96, 263], 'bid': 5.09}]",24577.700000047684,1669837303363,banana,blueberries,4.3,5.09,0.79,,blueberries,771.9000000953674,772,772.0999999046326,True,i,25868.60000014305,1290.9000000953674,1669837304654,1291,HRV,HRV_0197,2022-11-30 19:46:14
12,"[{'imgObject': {}, 'id': 'burrito', 'src': '/static/foodstim60/burrito.jpg', 'key': 'u', 'origWidth': 410, 'origHeight': 410, 'width': 410, 'height': 410, 'widthPercent': 0.45, 'rescaleHeight': False, 'trialN': 12, 'loaded': True, 'loadedTime': 25870.400000095367, 'positionName': 'LEFT', 'positionCoords': [489.04, 263.5], 'bid': 4.99}, {'imgObject': {}, 'id': 'froot loops w milk', 'src': '/static/foodstim60/froot loops w milk.jpg', 'key': 'i', 'origWidth': 410, 'origHeight': 410, 'width': 410, 'height': 410, 'widthPercent': 0.45, 'rescaleHeight': False, 'trialN': 12, 'loaded': True, 'loadedTime': 25870.60000014305, 'positionName': 'RIGHT', 'positionCoords': [973.96, 263.5], 'bid': 0.27}]",25869.200000047684,1669837304655,burrito,froot loops w milk,4.99,0.27,-4.720000000000001,,burrito,873,873,873.4000000953674,True,u,27254.299999952316,1385.0999999046326,1669837306040,1385,HRV,HRV_0197,2022-11-30 19:46:14
13,"[{'imgObject': {}, 'id': 'apple slices', 'src': '/static/foodstim60/apple slices.jpg', 'key': 'u', 'origWidth': 409, 'origHeight': 410, 'width': 409, 'height': 410, 'widthPercent': 0.45, 'rescaleHeight': False, 'trialN': 13, 'loaded': True, 'loadedTime': 27256, 'positionName': 'LEFT', 'positionCoords': [490.04, 263.5], 'bid': 5.04}, {'imgObject': {}, 'id': 'burrito', 'src': '/static/foodstim60/burrito.jpg', 'key': 'i', 'origWidth': 410, 'origHeight': 410, 'width': 410, 'height': 410, 'widthPercent': 0.45, 'rescaleHeight': False, 'trialN': 13, 'loaded': True, 'loadedTime': 27256.299999952316, 'positionName': 'RIGHT', 'positionCoords': [973.96, 263.5], 'bid': 4.99}]",27254.900000095367,1669837306040,apple slices,burrito,5.04,4.99,-0.04999999999999982,,apple slices,863.3999998569489,864,863.7000000476837,True,u,28623.400000095367,1368.5,1669837307409,1369,HRV,HRV_0197,2022-11-30 19:46:14
14,"[{'imgObject': {}, 'id': 'seaweed', 'src': '/static/foodstim60/seaweed.jpg', 'key': 'u', 'origWidth': 410, 'origHeight': 410, 'width': 410, 'height': 410, 'widthPercent': 0.45, 'rescaleHeight': False, 'trialN': 14, 'loaded': True, 'loadedTime': 28625.10000014305, 'positionName': 'LEFT', 'positionCoords': [489.04, 263.5], 'bid': 0.09}, {'imgObject': {}, 'id': 'hashbrowns', 'src': '/static/foodstim60/hashbrowns.jpg', 'key': 'i', 'origWidth': 411, 'origHeight': 410, 'width': 411, 'height': 410, 'widthPercent': 0.45, 'rescaleHeight': False, 'trialN': 14, 'loaded': True, 'loadedTime': 28625.60000014305, 'positionName': 'RIGHT', 'positionCoords': [973.96, 263.5], 'bid': 1.5}]",28623.900000095367,1669837307409,seaweed,hashbrowns,0.09,1.5,1.41,,hashbrowns,1814.5,1815,1814.7999999523163,True,i,30962.200000047684,2338.2999999523163,1669837309748,2339,HRV,HRV_0197,2022-11-30 19:46:14
15,"[{'imgObject': {}, 'id': 'kiwi', 'src': '/static/foodstim60/kiwi.jpg', 'key': 'u', 'origWidth': 410, 'origHeight': 410, 'width': 410, 'height': 410, 'widthPercent': 0.45, 'rescaleHeight': False, 'trialN': 15, 'loaded': True, 'loadedTime': 30963.900000095367, 'positionName': 'LEFT', 'positionCoords': [489.04, 263.5], 'bid': 3.77}, {'imgObject': {}, 'id': 'luckycharms', 'src': '/static/foodstim60/luckycharms.jpg', 'key': 'i', 'origWidth': 410, 'origHeight': 409, 'width': 410, 'height': 409, 'widthPercent': 0.45, 'rescaleHeight': False, 'trialN': 15, 'loaded': True, 'loadedTime': 30964.200000047684, 'positionName': 'RIGHT', 'positionCoords': [973.96, 264], 'bid': 0.49}]",30962.700000047684,1669837309748,kiwi,luckycharms,3.77,0.49,-3.2800000000000002,,luckycharms,1915.5,1916,1915.9000000953674,True,i,33394.200000047684,2431.5,1669837312180,2432,HRV,HRV_0197,2022-11-30 19:46:14
16,"[{'imgObject': {}, 'id': 'hotdog w must', 'src': '/static/foodstim60/hotdog w must.jpg', 'key': 'u', 'origWidth': 409, 'origHeight': 409, 'width': 409, 'height': 409, 'widthPercent': 0.45, 'rescaleHeight': False, 'trialN': 16, 'loaded': True, 'loadedTime': 33396, 'positionName': 'LEFT', 'positionCoords': [490.04, 264], 'bid': 2}, {'imgObject': {}, 'id': 'blackbeanswithrice', 'src': '/static/foodstim60/blackbeanswithrice.jpg', 'key': 'i', 'origWidth': 410, 'origHeight': 410, 'width': 410, 'height': 410, 'widthPercent': 0.45, 'rescaleHeight': False, 'trialN': 16, 'loaded': True, 'loadedTime': 33396.200000047684, 'positionName': 'RIGHT', 'positionCoords': [973.96, 263.5], 'bid': 0.08}]",33394.90000009537,1669837312180,hotdog w must,blackbeanswithrice,2.0,0.08,-1.92,,blackbeanswithrice,1419.2000000476837,1407,1419.7000000476837,True,i,35325.700000047684,1930.7999999523163,1669837314098,1918,HRV,HRV_0197,2022-11-30 19:46:14
17,"[{'imgObject': {}, 'id': 'kiwi', 'src': '/static/foodstim60/kiwi.jpg', 'key': 'u', 'origWidth': 410, 'origHeight': 410, 'width': 410, 'height': 410, 'widthPercent': 0.45, 'rescaleHeight': False, 'trialN': 17, 'loaded': True, 'loadedTime': 35327.5, 'positionName': 'LEFT', 'positionCoords': [489.04, 263.5], 'bid': 3.77}, {'imgObject': {}, 'id': 'pear', 'src': '/static/foodstim60/pear.jpg', 'key': 'i', 'origWidth': 411, 'origHeight': 410, 'width': 411, 'height': 410, 'widthPercent': 0.45, 'rescaleHeight': False, 'trialN': 17, 'loaded': True, 'loadedTime': 35327.90000009537, 'positionName': 'RIGHT', 'positionCoords': [973.96, 263.5], 'bid': 4.03}]",35326.200000047684,1669837314098,kiwi,pear,3.77,4.03,0.26000000000000023,,pear,864.2000000476837,865,864.5,True,i,36696.299999952316,1370.0999999046326,1669837315468,1370,HRV,HRV_0197,2022-11-30 19:46:14
18,"[{'imgObject': {}, 'id': 'bagel plain', 'src': '/static/foodstim60/bagel plain.jpg', 'key': 'u', 'origWidth': 410, 'origHeight': 410, 'width': 410, 'height': 410, 'widthPercent': 0.45, 'rescaleHeight': False, 'trialN': 18, 'loaded': True, 'loadedTime': 36698.10000014305, 'positionName': 'LEFT', 'positionCoords': [489.04, 263.5], 'bid': 3.78}, {'imgObject': {}, 'id': 'kiwi', 'src': '/static/foodstim60/kiwi.jpg', 'key': 'i', 'origWidth': 410, 'origHeight': 410, 'width': 410, 'height': 410, 'widthPercent': 0.45, 'rescaleHeight': False, 'trialN': 18, 'loaded': True, 'loadedTime': 36698.5, 'positionName': 'RIGHT', 'positionCoords': [973.96, 263.5], 'bid': 3.77}]",36696.90000009537,1669837315469,bagel plain,kiwi,3.78,3.77,-0.009999999999999787,,bagel plain,869.2999999523163,869,869.5,True,u,38080.5,1383.5999999046326,1669837316853,1384,HRV,HRV_0197,2022-11-30 19:46:14
19,"[{'imgObject': {}, 'id': 'bagel plain', 'src': '/static/foodstim60/bagel plain.jpg', 'key': 'u', 'origWidth': 410, 'origHeight': 410, 'width': 410, 'height': 410, 'widthPercent': 0.45, 'rescaleHeight': False, 'trialN': 19, 'loaded': True, 'loadedTime': 38082.200000047684, 'positionName': 'LEFT', 'positionCoords': [489.04, 263.5], 'bid': 3.78}, {'imgObject': {}, 'id': 'popsicles', 'src': '/static/foodstim60/popsicles.jpg', 'key': 'i', 'origWidth': 410, 'origHeight': 410, 'width': 410, 'height': 410, 'widthPercent': 0.45, 'rescaleHeight': False, 'trialN': 19, 'loaded': True, 'loadedTime': 38082.5, 'positionName': 'RIGHT', 'positionCoords': [973.96, 263.5], 'bid': 0.5700000000000001}]",38081.10000014305,1669837316853,bagel plain,popsicles,3.78,0.5700000000000001,-3.21,,bagel plain,613.1999998092651,613,613.3999998569489,True,u,39213.60000014305,1132.5,1669837317986,1133,HRV,HRV_0197,2022-11-30 19:46:14
20,"[{'imgObject': {}, 'id': 'olives', 'src': '/static/foodstim60/olives.jpg', 'key': 'u', 'origWidth': 410, 'origHeight': 410, 'width': 410, 'height': 410, 'widthPercent': 0.45, 'rescaleHeight': False, 'trialN': 20, 'loaded': True, 'loadedTime': 39215.40000009537, 'positionName': 'LEFT', 'positionCoords': [489.04, 263.5], 'bid': 1.21}, {'imgObject': {}, 'id': 'hashbrowns', 'src': '/static/foodstim60/hashbrowns.jpg', 'key': 'i', 'origWidth': 411, 'origHeight': 410, 'width': 411, 'height': 410, 'widthPercent': 0.45, 'rescaleHeight': False, 'trialN': 20, 'loaded': True, 'loadedTime': 39215.60000014305, 'positionName': 'RIGHT', 'positionCoords': [973.96, 263.5], 'bid': 1.5}]",39214.200000047684,1669837317986,olives,hashbrowns,1.21,1.5,0.29000000000000004,,olives,887.9000000953674,888,888.2999999523163,True,u,40615.60000014305,1401.4000000953674,1669837319388,1402,HRV,HRV_0197,2022-11-30 19:46:14
21,"[{'imgObject': {}, 'id': 'fried eggs', 'src': '/static/foodstim60/fried eggs.jpg', 'key': 'u', 'origWidth': 410, 'origHeight': 410, 'width': 410, 'height': 410, 'widthPercent': 0.45, 'rescaleHeight': False, 'trialN': 21, 'loaded': True, 'loadedTime': 40617.40000009537, 'positionName': 'LEFT', 'positionCoords': [489.04, 263.5], 'bid': 9.85}, {'imgObject': {}, 'id': 'grilled chicken strips', 'src': '/static/foodstim60/grilled chicken strips.jpg', 'key': 'i', 'origWidth': 410, 'origHeight': 411, 'width': 410, 'height': 411, 'widthPercent': 0.45, 'rescaleHeight': False, 'trialN': 21, 'loaded': True, 'loadedTime': 40617.5, 'positionName': 'RIGHT', 'positionCoords': [973.96, 263], 'bid': 8.9}]",40616.200000047684,1669837319388,fried eggs,grilled chicken strips,9.85,8.9,-0.9499999999999993,,fried eggs,1126,1127,1126.4000000953674,True,u,42250.299999952316,1634.0999999046326,1669837321022,1634,HRV,HRV_0197,2022-11-30 19:46:14
22,"[{'imgObject': {}, 'id': 'cherries', 'src': '/static/foodstim60/cherries.jpg', 'key': 'u', 'origWidth': 410, 'origHeight': 411, 'width': 410, 'height': 411, 'widthPercent': 0.45, 'rescaleHeight': False, 'trialN': 22, 'loaded': True, 'loadedTime': 42252, 'positionName': 'LEFT', 'positionCoords': [489.04, 263], 'bid': 7.71}, {'imgObject': {}, 'id': 'avocado', 'src': '/static/foodstim60/avocado.jpg', 'key': 'i', 'origWidth': 409, 'origHeight': 409, 'width': 409, 'height': 409, 'widthPercent': 0.45, 'rescaleHeight': False, 'trialN': 22, 'loaded': True, 'loadedTime': 42252.40000009537, 'positionName': 'RIGHT', 'positionCoords': [973.96, 264], 'bid': 7.82}]",42250.90000009537,1669837321023,cherries,avocado,7.71,7.82,0.11000000000000032,,cherries,619.2999999523163,619,619.5,True,u,43384.799999952316,1133.8999998569489,1669837322157,1134,HRV,HRV_0197,2022-11-30 19:46:14
23,"[{'imgObject': {}, 'id': 'sushi w_condiments', 'src': '/static/foodstim60/sushi w_condiments.jpg', 'key': 'u', 'origWidth': 410, 'origHeight': 410, 'width': 410, 'height': 410, 'widthPercent': 0.45, 'rescaleHeight': False, 'trialN': 23, 'loaded': True, 'loadedTime': 43386.5, 'positionName': 'LEFT', 'positionCoords': [489.04, 263.5], 'bid': 8.86}, {'imgObject': {}, 'id': 'mac & cheese', 'src': '/static/foodstim60/mac & cheese.jpg', 'key': 'i', 'origWidth': 410, 'origHeight': 410, 'width': 410, 'height': 410, 'widthPercent': 0.45, 'rescaleHeight': False, 'trialN': 23, 'loaded': True, 'loadedTime': 43387, 'positionName': 'RIGHT', 'positionCoords': [973.96, 263.5], 'bid': 3.76}]",43385.40000009537,1669837322157,sushi w_condiments,mac & cheese,8.86,3.76,-5.1,,sushi w_condiments,797,798,797.2999999523163,True,u,44688.799999952316,1303.3999998569489,1669837323461,1304,HRV,HRV_0197,2022-11-30 19:46:14
24,"[{'imgObject': {}, 'id': 'sweetpotato', 'src': '/static/foodstim60/sweetpotato.jpg', 'key': 'u', 'origWidth': 410, 'origHeight': 410, 'width': 410, 'height': 410, 'widthPercent': 0.45, 'rescaleHeight': False, 'trialN': 24, 'loaded': True, 'loadedTime': 44690.700000047684, 'positionName': 'LEFT', 'positionCoords': [489.04, 263.5], 'bid': 1.05}, {'imgObject': {}, 'id': 'hashbrowns', 'src': '/static/foodstim60/hashbrowns.jpg', 'key': 'i', 'origWidth': 411, 'origHeight': 410, 'width': 411, 'height': 410, 'widthPercent': 0.45, 'rescaleHeight': False, 'trialN': 24, 'loaded': True, 'loadedTime': 44690.90000009537, 'positionName': 'RIGHT', 'positionCoords': [973.96, 263.5], 'bid': 1.5}]",44689.40000009537,1669837323461,sweetpotato,hashbrowns,1.05,1.5,0.44999999999999996,,hashbrowns,909.0999999046326,910,909.2000000476837,True,i,46111.10000014305,1421.7000000476837,1669837324883,1422,HRV,HRV_0197,2022-11-30 19:46:14
25,"[{'imgObject': {}, 'id': 'hotdog w must', 'src': '/static/foodstim60/hotdog w must.jpg', 'key': 'u', 'origWidth': 409, 'origHeight': 409, 'width': 409, 'height': 409, 'widthPercent': 0.45, 'rescaleHeight': False, 'trialN': 25, 'loaded': True, 'loadedTime': 46112.799999952316, 'positionName': 'LEFT', 'positionCoords': [490.04, 264], 'bid': 2}, {'imgObject': {}, 'id': 'granola w milk', 'src': '/static/foodstim60/granola w milk.jpg', 'key': 'i', 'origWidth': 410, 'origHeight': 410, 'width': 410, 'height': 410, 'widthPercent': 0.45, 'rescaleHeight': False, 'trialN': 25, 'loaded': True, 'loadedTime': 46113, 'positionName': 'RIGHT', 'positionCoords': [973.96, 263.5], 'bid': 1.94}]",46111.60000014305,1669837324884,hotdog w must,granola w milk,2.0,1.94,-0.06000000000000005,,granola w milk,806.5999999046326,806,806.8999998569489,True,i,47437.0,1325.3999998569489,1669837326209,1325,HRV,HRV_0197,2022-11-30 19:46:14
26,"[{'imgObject': {}, 'id': 'pear', 'src': '/static/foodstim60/pear.jpg', 'key': 'u', 'origWidth': 411, 'origHeight': 410, 'width': 411, 'height': 410, 'widthPercent': 0.45, 'rescaleHeight': False, 'trialN': 26, 'loaded': True, 'loadedTime': 47438.60000014305, 'positionName': 'LEFT', 'positionCoords': [488.04, 263.5], 'bid': 4.03}, {'imgObject': {}, 'id': 'cheerios', 'src': '/static/foodstim60/cheerios.jpg', 'key': 'i', 'origWidth': 409, 'origHeight': 410, 'width': 409, 'height': 410, 'widthPercent': 0.45, 'rescaleHeight': False, 'trialN': 26, 'loaded': True, 'loadedTime': 47439.10000014305, 'positionName': 'RIGHT', 'positionCoords': [973.96, 263.5], 'bid': 0.61}]",47437.5,1669837326210,pear,cheerios,4.03,0.61,-3.4200000000000004,,pear,744.7999999523163,745,745.1000001430511,True,u,48691.0,1253.5,1669837327463,1253,HRV,HRV_0197,2022-11-30 19:46:14
27,"[{'imgObject': {}, 'id': 'cherry tomato', 'src': '/static/foodstim60/cherry tomato.jpg', 'key': 'u', 'origWidth': 410, 'origHeight': 410, 'width': 410, 'height': 410, 'widthPercent': 0.45, 'rescaleHeight': False, 'trialN': 27, 'loaded': True, 'loadedTime': 48692.799999952316, 'positionName': 'LEFT', 'positionCoords': [489.04, 263.5], 'bid': 4.14}, {'imgObject': {}, 'id': 'bagel plain', 'src': '/static/foodstim60/bagel plain.jpg', 'key': 'i', 'origWidth': 410, 'origHeight': 410, 'width': 410, 'height': 410, 'widthPercent': 0.45, 'rescaleHeight': False, 'trialN': 27, 'loaded': True, 'loadedTime': 48693.299999952316, 'positionName': 'RIGHT', 'positionCoords': [973.96, 263.5], 'bid': 3.78}]",48691.60000014305,1669837327464,cherry tomato,bagel plain,4.14,3.78,-0.3599999999999999,,bagel plain,962.5999999046326,962,962.7999999523163,True,i,50173.5,1481.8999998569489,1669837328945,1481,HRV,HRV_0197,2022-11-30 19:46:14
28,"[{'imgObject': {}, 'id': 'Grapes', 'src': '/static/foodstim60/Grapes.jpg', 'key': 'u', 'origWidth': 411, 'origHeight': 411, 'width': 411, 'height': 411, 'widthPercent': 0.45, 'rescaleHeight': False, 'trialN': 28, 'loaded': True, 'loadedTime': 50175.299999952316, 'positionName': 'LEFT', 'positionCoords': [488.04, 263], 'bid': 4.2700000000000005}, {'imgObject': {}, 'id': 'olives', 'src': '/static/foodstim60/olives.jpg', 'key': 'i', 'origWidth': 410, 'origHeight': 410, 'width': 410, 'height': 410, 'widthPercent': 0.45, 'rescaleHeight': False, 'trialN': 28, 'loaded': True, 'loadedTime': 50175.40000009537, 'positionName': 'RIGHT', 'positionCoords': [973.96, 263.5], 'bid': 1.21}]",50174.0,1669837328946,Grapes,olives,4.2700000000000005,1.21,-3.0600000000000005,,olives,1376.1000001430511,1376,1376.4000000953674,True,i,52058.90000009537,1884.9000000953674,1669837330831,1885,HRV,HRV_0197,2022-11-30 19:46:14
29,"[{'imgObject': {}, 'id': 'edamame', 'src': '/static/foodstim60/edamame.jpg', 'key': 'u', 'origWidth': 409, 'origHeight': 410, 'width': 409, 'height': 410, 'widthPercent': 0.45, 'rescaleHeight': False, 'trialN': 29, 'loaded': True, 'loadedTime': 52060.799999952316, 'positionName': 'LEFT', 'positionCoords': [490.04, 263.5], 'bid': 4.98}, {'imgObject': {}, 'id': 'cherry tomato', 'src': '/static/foodstim60/cherry tomato.jpg', 'key': 'i', 'origWidth': 410, 'origHeight': 410, 'width': 410, 'height': 410, 'widthPercent': 0.45, 'rescaleHeight': False, 'trialN': 29, 'loaded': True, 'loadedTime': 52061, 'positionName': 'RIGHT', 'positionCoords': [973.96, 263.5], 'bid': 4.14}]",52059.60000014305,1669837330832,edamame,cherry tomato,4.98,4.14,-0.8400000000000007,,edamame,906.5,906,906.8999998569489,True,u,53483.799999952316,1424.1999998092651,1669837332256,1424,HRV,HRV_0197,2022-11-30 19:46:14
30,"[{'imgObject': {}, 'id': 'baked potato', 'src': '/static/foodstim60/baked potato.jpg', 'key': 'u', 'origWidth': 409, 'origHeight': 410, 'width': 409, 'height': 410, 'widthPercent': 0.45, 'rescaleHeight': False, 'trialN': 30, 'loaded': True, 'loadedTime': 53485.5, 'positionName': 'LEFT', 'positionCoords': [490.04, 263.5], 'bid': 4.95}, {'imgObject': {}, 'id': 'eggsalad', 'src': '/static/foodstim60/eggsalad.jpg', 'key': 'i', 'origWidth': 410, 'origHeight': 409, 'width': 410, 'height': 409, 'widthPercent': 0.45, 'rescaleHeight': False, 'trialN': 30, 'loaded': True, 'loadedTime': 53485.700000047684, 'positionName': 'RIGHT', 'positionCoords': [973.96, 264], 'bid': 4.82}]",53484.299999952316,1669837332256,baked potato,eggsalad,4.95,4.82,-0.1299999999999999,,eggsalad,906.2000000476837,907,906.4000000953674,True,i,54896.10000014305,1411.8000001907349,1669837333668,1412,HRV,HRV_0197,2022-11-30 19:46:14
31,"[{'imgObject': {}, 'id': 'banana', 'src': '/static/foodstim60/banana.jpg', 'key': 'u', 'origWidth': 410, 'origHeight': 410, 'width': 410, 'height': 410, 'widthPercent': 0.45, 'rescaleHeight': False, 'trialN': 31, 'loaded': True, 'loadedTime': 54897.90000009537, 'positionName': 'LEFT', 'positionCoords': [489.04, 263.5], 'bid': 4.3}, {'imgObject': {}, 'id': 'fried eggs', 'src': '/static/foodstim60/fried eggs.jpg', 'key': 'i', 'origWidth': 410, 'origHeight': 410, 'width': 410, 'height': 410, 'widthPercent': 0.45, 'rescaleHeight': False, 'trialN': 31, 'loaded': True, 'loadedTime': 54898.40000009537, 'positionName': 'RIGHT', 'positionCoords': [973.96, 263.5], 'bid': 9.85}]",54896.700000047684,1669837333669,banana,fried eggs,4.3,9.85,5.55,,fried eggs,557.4000000953674,557,557.7000000476837,True,i,55963.200000047684,1066.5,1669837334735,1066,HRV,HRV_0197,2022-11-30 19:46:14
32,"[{'imgObject': {}, 'id': 'veggieswithdip', 'src': '/static/foodstim60/veggieswithdip.jpg', 'key': 'u', 'origWidth': 409, 'origHeight': 409, 'width': 409, 'height': 409, 'widthPercent': 0.45, 'rescaleHeight': False, 'trialN': 32, 'loaded': True, 'loadedTime': 55964.90000009537, 'positionName': 'LEFT', 'positionCoords': [490.04, 264], 'bid': 5.61}, {'imgObject': {}, 'id': 'shreddedwheatwithmilk', 'src': '/static/foodstim60/shreddedwheatwithmilk.jpg', 'key': 'i', 'origWidth': 410, 'origHeight': 410, 'width': 410, 'height': 410, 'widthPercent': 0.45, 'rescaleHeight': False, 'trialN': 32, 'loaded': True, 'loadedTime': 55965.40000009537, 'positionName': 'RIGHT', 'positionCoords': [973.96, 263.5], 'bid': 4.43}]",55963.700000047684,1669837334736,veggieswithdip,shreddedwheatwithmilk,5.61,4.43,-1.1800000000000006,,veggieswithdip,1026.5,1027,1026.9000000953674,True,u,57497.200000047684,1533.5,1669837336269,1533,HRV,HRV_0197,2022-11-30 19:46:14
33,"[{'imgObject': {}, 'id': 'hashbrowns', 'src': '/static/foodstim60/hashbrowns.jpg', 'key': 'u', 'origWidth': 411, 'origHeight': 410, 'width': 411, 'height': 410, 'widthPercent': 0.45, 'rescaleHeight': False, 'trialN': 33, 'loaded': True, 'loadedTime': 57499, 'positionName': 'LEFT', 'positionCoords': [488.04, 263.5], 'bid': 1.5}, {'imgObject': {}, 'id': 'luckycharms', 'src': '/static/foodstim60/luckycharms.jpg', 'key': 'i', 'origWidth': 410, 'origHeight': 409, 'width': 410, 'height': 409, 'widthPercent': 0.45, 'rescaleHeight': False, 'trialN': 33, 'loaded': True, 'loadedTime': 57499.299999952316, 'positionName': 'RIGHT', 'positionCoords': [973.96, 264], 'bid': 0.49}]",57497.700000047684,1669837336270,hashbrowns,luckycharms,1.5,0.49,-1.01,,hashbrowns,948.2999999523163,948,948.7000000476837,True,u,58965.299999952316,1467.5999999046326,1669837337737,1467,HRV,HRV_0197,2022-11-30 19:46:14
34,"[{'imgObject': {}, 'id': 'chicken nuggets2', 'src': '/static/foodstim60/chicken nuggets2.jpg', 'key': 'u', 'origWidth': 410, 'origHeight': 409, 'width': 410, 'height': 409, 'widthPercent': 0.45, 'rescaleHeight': False, 'trialN': 34, 'loaded': True, 'loadedTime': 58966.90000009537, 'positionName': 'LEFT', 'positionCoords': [489.04, 264], 'bid': 4.2}, {'imgObject': {}, 'id': 'yogurt no spoon', 'src': '/static/foodstim60/yogurt no spoon.jpg', 'key': 'i', 'origWidth': 411, 'origHeight': 410, 'width': 411, 'height': 410, 'widthPercent': 0.45, 'rescaleHeight': False, 'trialN': 34, 'loaded': True, 'loadedTime': 58967.200000047684, 'positionName': 'RIGHT', 'positionCoords': [973.96, 263.5], 'bid': 9.27}]",58965.799999952316,1669837337738,chicken nuggets2,yogurt no spoon,4.2,9.27,5.069999999999999,,yogurt no spoon,1000.3000001907349,1000,1000.6000001430511,True,i,60482.700000047684,1516.9000000953674,1669837339255,1517,HRV,HRV_0197,2022-11-30 19:46:14
35,"[{'imgObject': {}, 'id': 'eggs', 'src': '/static/foodstim60/eggs.jpg', 'key': 'u', 'origWidth': 409, 'origHeight': 409, 'width': 409, 'height': 409, 'widthPercent': 0.45, 'rescaleHeight': False, 'trialN': 35, 'loaded': True, 'loadedTime': 60484.40000009537, 'positionName': 'LEFT', 'positionCoords': [490.04, 264], 'bid': 9.89}, {'imgObject': {}, 'id': 'steak', 'src': '/static/foodstim60/steak.jpg', 'key': 'i', 'origWidth': 410, 'origHeight': 410, 'width': 410, 'height': 410, 'widthPercent': 0.45, 'rescaleHeight': False, 'trialN': 35, 'loaded': True, 'loadedTime': 60484.90000009537, 'positionName': 'RIGHT', 'positionCoords': [973.96, 263.5], 'bid': 9.2}]",60483.299999952316,1669837339255,eggs,steak,9.89,9.2,-0.6900000000000013,,eggs,698.8000001907349,699,699.0,True,u,61701.5,1218.2000000476837,1669837340474,1219,HRV,HRV_0197,2022-11-30 19:46:14
36,"[{'imgObject': {}, 'id': 'rigatoni and sauce', 'src': '/static/foodstim60/rigatoni and sauce.jpg', 'key': 'u', 'origWidth': 410, 'origHeight': 411, 'width': 410, 'height': 411, 'widthPercent': 0.45, 'rescaleHeight': False, 'trialN': 36, 'loaded': True, 'loadedTime': 61703.299999952316, 'positionName': 'LEFT', 'positionCoords': [489.04, 263], 'bid': 2.93}, {'imgObject': {}, 'id': 'ice cream sundae 002', 'src': '/static/foodstim60/ice cream sundae 002.jpg', 'key': 'i', 'origWidth': 409, 'origHeight': 409, 'width': 409, 'height': 409, 'widthPercent': 0.45, 'rescaleHeight': False, 'trialN': 36, 'loaded': True, 'loadedTime': 61703.799999952316, 'positionName': 'RIGHT', 'positionCoords': [973.96, 264], 'bid': 2.22}]",61702.10000014305,1669837340474,rigatoni and sauce,ice cream sundae 002,2.93,2.22,-0.71,,ice cream sundae 002,824,824,824.2999999523163,True,i,63035.10000014305,1333.0,1669837341807,1333,HRV,HRV_0197,2022-11-30 19:46:14
37,"[{'imgObject': {}, 'id': 'turkeysandwich', 'src': '/static/foodstim60/turkeysandwich.jpg', 'key': 'u', 'origWidth': 409, 'origHeight': 409, 'width': 409, 'height': 409, 'widthPercent': 0.45, 'rescaleHeight': False, 'trialN': 37, 'loaded': True, 'loadedTime': 63036.799999952316, 'positionName': 'LEFT', 'positionCoords': [490.04, 264], 'bid': 6.2700000000000005}, {'imgObject': {}, 'id': 'strawberries', 'src': '/static/foodstim60/strawberries.jpg', 'key': 'i', 'origWidth': 410, 'origHeight': 410, 'width': 410, 'height': 410, 'widthPercent': 0.45, 'rescaleHeight': False, 'trialN': 37, 'loaded': True, 'loadedTime': 63037.200000047684, 'positionName': 'RIGHT', 'positionCoords': [973.96, 263.5], 'bid': 6.17}]",63035.40000009537,1669837341807,turkeysandwich,strawberries,6.2700000000000005,6.17,-0.10000000000000053,"[{'event': 'onblur', 'details': 'out of focus', 'performance time': 64770.299999952316, 'date time': 1669837343542}, {'event': 'visibilitychange', 'details': 'hidden', 'performance time': 64848.299999952316, 'date time': 1669837343620}]",NaN,NaN,NaN,,False,NaN,68222.70000004768,5187.299999952316,1669837346995,5188,HRV,HRV_0197,2022-11-30 19:46:14
38,"[{'imgObject': {}, 'id': 'luckycharms', 'src': '/static/foodstim60/luckycharms.jpg', 'key': 'u', 'origWidth': 410, 'origHeight': 409, 'width': 410, 'height': 409, 'widthPercent': 0.45, 'rescaleHeight': False, 'trialN': 38, 'loaded': True, 'loadedTime': 68225, 'positionName': 'LEFT', 'positionCoords': [489.04, 264], 'bid': 0.49}, {'imgObject': {}, 'id': 'hotdog w must', 'src': '/static/foodstim60/hotdog w must.jpg', 'key': 'i', 'origWidth': 409, 'origHeight': 409, 'width': 409, 'height': 409, 'widthPercent': 0.45, 'rescaleHeight': False, 'trialN': 38, 'loaded': True, 'loadedTime': 68225.10000014305, 'positionName': 'RIGHT', 'positionCoords': [973.96, 264], 'bid': 2}]",68223.0,1669837346995,luckycharms,hotdog w must,0.49,2.0,1.51,,NaN,NaN,NaN,,False,NaN,73221.10000014305,4998.100000143051,1669837351993,4998,HRV,HRV_0197,2022-11-30 19:46:14
39,"[{'imgObject': {}, 'id': 'olives', 'src': '/static/foodstim60/olives.jpg', 'key': 'u', 'origWidth': 410, 'origHeight': 410, 'width': 410, 'height': 410, 'widthPercent': 0.45, 'rescaleHeight': False, 'trialN': 39, 'loaded': True, 'loadedTime': 73222.29999995232, 'positionName': 'LEFT', 'positionCoords': [489.04, 263.5], 'bid': 1.21}, {'imgObject': {}, 'id': 'fruitsalad', 'src': '/static/foodstim60/fruitsalad.jpg', 'key': 'i', 'origWidth': 410, 'origHeight': 410, 'width': 410, 'height': 410, 'widthPercent': 0.45, 'rescaleHeight': False, 'trialN': 39, 'loaded': True, 'loadedTime': 73222.40000009537, 'positionName': 'RIGHT', 'positionCoords': [973.96, 263.5], 'bid': 5.87}]",73221.90000009537,1669837351994,olives,fruitsalad,1.21,5.87,4.66,,NaN,NaN,NaN,,False,NaN,78223.0,5001.099999904633,1669837356995,5001,HRV,HRV_0197,2022-11-30 19:46:14
40,"[{'imgObject': {}, 'id': 'mashed potato', 'src': '/static/foodstim60/mashed potato.jpg', 'key': 'u', 'origWidth': 409, 'origHeight': 409, 'width': 409, 'height': 409, 'widthPercent': 0.45, 'rescaleHeight': False, 'trialN': 40, 'loaded': True, 'loadedTime': 78223.90000009537, 'positionName': 'LEFT', 'positionCoords': [490.04, 264], 'bid': 5.79}, {'imgObject': {}, 'id': 'yogurt no spoon', 'src': '/static/foodstim60/yogurt no spoon.jpg', 'key': 'i', 'origWidth': 411, 'origHeight': 410, 'width': 411, 'height': 410, 'widthPercent': 0.45, 'rescaleHeight': False, 'trialN': 40, 'loaded': True, 'loadedTime': 78224.10000014305, 'positionName': 'RIGHT', 'positionCoords': [973.96, 263.5], 'bid': 9.27}]",78223.5,1669837356995,mashed potato,yogurt no spoon,5.79,9.27,3.4799999999999995,,NaN,NaN,NaN,,False,NaN,83215.60000014305,4992.100000143051,1669837361988,4993,HRV,HRV_0197,2022-11-30 19:46:14
41,"[{'imgObject': {}, 'id': 'Tribe humus pita', 'src': '/static/foodstim60/Tribe humus pita.jpg', 'key': 'u', 'origWidth': 411, 'origHeight': 411, 'width': 411, 'height': 411, 'widthPercent': 0.45, 'rescaleHeight': False, 'trialN': 41, 'loaded': True, 'loadedTime': 83216.90000009537, 'positionName': 'LEFT', 'positionCoords': [488.04, 263], 'bid': 8.32}, {'imgObject': {}, 'id': 'yogurt no spoon', 'src': '/static/foodstim60/yogurt no spoon.jpg', 'key': 'i', 'origWidth': 411, 'origHeight': 410, 'width': 411, 'height': 410, 'widthPercent': 0.45, 'rescaleHeight': False, 'trialN': 41, 'loaded': True, 'loadedTime': 83217.10000014305, 'positionName': 'RIGHT', 'positionCoords': [973.96, 263.5], 'bid': 9.27}]",83216.10000014305,1669837361988,Tribe humus pita,yogurt no spoon,8.32,9.27,0.9499999999999993,,NaN,NaN,NaN,,False,NaN,88208.10000014305,4992.0,1669837366980,4992,HRV,HRV_0197,2022-11-30 19:46:14
42,"[{'imgObject': {}, 'id': 'steak', 'src': '/static/foodstim60/steak.jpg', 'key': 'u', 'origWidth': 410, 'origHeight': 410, 'width': 410, 'height': 410, 'widthPercent': 0.45, 'rescaleHeight': False, 'trialN': 42, 'loaded': True, 'loadedTime': 88208.79999995232, 'positionName': 'LEFT', 'positionCoords': [489.04, 263.5], 'bid': 9.2}, {'imgObject': {}, 'id': 'pear', 'src': '/static/foodstim60/pear.jpg', 'key': 'i', 'origWidth': 411, 'origHeight': 410, 'width': 411, 'height': 410, 'widthPercent': 0.45, 'rescaleHeight': False, 'trialN': 42, 'loaded': True, 'loadedTime': 88209, 'positionName': 'RIGHT', 'positionCoords': [973.96, 263.5], 'bid': 4.03}]",88208.40000009537,1669837366980,steak,pear,9.2,4.03,-5.169999999999999,,NaN,NaN,NaN,,False,NaN,93207.90000009537,4999.5,1669837371980,5000,HRV,HRV_0197,2022-11-30 19:46:14
43,"[{'imgObject': {}, 'id': 'bagel plain', 'src': '/static/foodstim60/bagel plain.jpg', 'key': 'u', 'origWidth': 410, 'origHeight': 410, 'width': 410, 'height': 410, 'widthPercent': 0.45, 'rescaleHeight': False, 'trialN': 43, 'loaded': True, 'loadedTime': 93209, 'positionName': 'LEFT', 'positionCoords': [489.04, 263.5], 'bid': 3.78}, {'imgObject': {}, 'id': 'orange slices', 'src': '/static/foodstim60/orange slices.jpg', 'key': 'i', 'origWidth': 409, 'origHeight': 410, 'width': 409, 'height': 410, 'widthPercent': 0.45, 'rescaleHeight': False, 'trialN': 43, 'loaded': True, 'loadedTime': 93209.10000014305, 'positionName': 'RIGHT', 'positionCoords': [973.96, 263.5], 'bid': 4.97}]",93208.40000009537,1669837371980,bagel plain,orange slices,3.78,4.97,1.19,"[{'event': 'visibilitychange', 'details': 'visible', 'performance time': 95657.10000014305, 'date time': 1669837374435}, {'event': 'onfocus', 'details': 'in focus', 'performance time': 95657.70000004768, 'date time': 1669837374436}]",bagel plain,1949.5,2456,2449.5,True,u,96164.60000014305,2956.2000000476837,1669837374942,2962,HRV,HRV_0197,2022-11-30 19:46:14
44,"[{'imgObject': {}, 'id': 'strawberries', 'src': '/static/foodstim60/strawberries.jpg', 'key': 'u', 'origWidth': 410, 'origHeight': 410, 'width': 410, 'height': 410, 'widthPercent': 0.45, 'rescaleHeight': False, 'trialN': 44, 'loaded': True, 'loadedTime': 96166.20000004768, 'positionName': 'LEFT', 'positionCoords': [489.04, 263.5], 'bid': 6.17}, {'imgObject': {}, 'id': 'blueberries', 'src': '/static/foodstim60/blueberries.jpg', 'key': 'i', 'origWidth': 411, 'origHeight': 411, 'width': 411, 'height': 411, 'widthPercent': 0.45, 'rescaleHeight': False, 'trialN': 44, 'loaded': True, 'loadedTime': 96166.60000014305, 'positionName': 'RIGHT', 'positionCoords': [973.96, 263], 'bid': 5.09}]",96165.20000004768,1669837374943,strawberries,blueberries,6.17,5.09,-1.08,,strawberries,793,793,793.2999999523163,True,u,97465.5,1300.2999999523163,1669837376243,1300,HRV,HRV_0197,2022-11-30 19:46:14
45,"[{'imgObject': {}, 'id': 'lox', 'src': '/static/foodstim60/lox.jpg', 'key': 'u', 'origWidth': 410, 'origHeight': 411, 'width': 410, 'height': 411, 'widthPercent': 0.45, 'rescaleHeight': False, 'trialN': 45, 'loaded': True, 'loadedTime': 97466.90000009537, 'positionName': 'LEFT', 'positionCoords': [489.04, 263], 'bid': 5.66}, {'imgObject': {}, 'id': 'salmon', 'src': '/static/foodstim60/salmon.jpg', 'key': 'i', 'origWidth': 410, 'origHeight': 409, 'width': 410, 'height': 409, 'widthPercent': 0.45, 'rescaleHeight': False, 'trialN': 45, 'loaded': True, 'loadedTime': 97467.10000014305, 'positionName': 'RIGHT', 'positionCoords': [973.96, 264], 'bid': 9.21}]",97465.90000009537,1669837376244,lox,salmon,5.66,9.21,3.5500000000000007,,salmon,676.2000000476837,676,676.5,True,i,98651.79999995232,1185.8999998569489,1669837377430,1186,HRV,HRV_0197,2022-11-30 19:46:14
46,"[{'imgObject': {}, 'id': 'cheerios', 'src': '/static/foodstim60/cheerios.jpg', 'key': 'u', 'origWidth': 409, 'origHeight': 410, 'width': 409, 'height': 410, 'widthPercent': 0.45, 'rescaleHeight': False, 'trialN': 46, 'loaded': True, 'loadedTime': 98653.29999995232, 'positionName': 'LEFT', 'positionCoords': [490.04, 263.5], 'bid': 0.61}, {'imgObject': {}, 'id': 'luckycharms', 'src': '/static/foodstim60/luckycharms.jpg', 'key': 'i', 'origWidth': 410, 'origHeight': 409, 'width': 410, 'height': 409, 'widthPercent': 0.45, 'rescaleHeight': False, 'trialN': 46, 'loaded': True, 'loadedTime': 98653.5, 'positionName': 'RIGHT', 'positionCoords': [973.96, 264], 'bid': 0.49}]",98652.40000009537,1669837377430,cheerios,luckycharms,0.61,0.49,-0.12,,cheerios,1473.7000000476837,1474,1474.0,True,u,100635.79999995232,1983.3999998569489,1669837379414,1984,HRV,HRV_0197,2022-11-30 19:46:14
47,"[{'imgObject': {}, 'id': 'shreddedwheatwithmilk', 'src': '/static/foodstim60/shreddedwheatwithmilk.jpg', 'key': 'u', 'origWidth': 410, 'origHeight': 410, 'width': 410, 'height': 410, 'widthPercent': 0.45, 'rescaleHeight': False, 'trialN': 47, 'loaded': True, 'loadedTime': 100637.29999995232, 'positionName': 'LEFT', 'positionCoords': [489.04, 263.5], 'bid': 4.43}, {'imgObject': {}, 'id': 'banana', 'src': '/static/foodstim60/banana.jpg', 'key': 'i', 'origWidth': 410, 'origHeight': 410, 'width': 410, 'height': 410, 'widthPercent': 0.45, 'rescaleHeight': False, 'trialN': 47, 'loaded': True, 'loadedTime': 100637.5, 'positionName': 'RIGHT', 'positionCoords': [973.96, 263.5], 'bid': 4.3}]",100636.40000009537,1669837379414,shreddedwheatwithmilk,banana,4.43,4.3,-0.1299999999999999,,banana,641.3999998569489,642,641.5999999046326,True,i,101783.5,1147.0999999046326,1669837380561,1147,HRV,HRV_0197,2022-11-30 19:46:14
48,"[{'imgObject': {}, 'id': 'cocktailshrimp', 'src': '/static/foodstim60/cocktailshrimp.jpg', 'key': 'u', 'origWidth': 410, 'origHeight': 410, 'width': 410, 'height': 410, 'widthPercent': 0.45, 'rescaleHeight': False, 'trialN': 48, 'loaded': True, 'loadedTime': 101785.10000014305, 'positionName': 'LEFT', 'positionCoords': [489.04, 263.5], 'bid': 5.91}, {'imgObject': {}, 'id': 'fried eggs', 'src': '/static/foodstim60/fried eggs.jpg', 'key': 'i', 'origWidth': 410, 'origHeight': 410, 'width': 410, 'height': 410, 'widthPercent': 0.45, 'rescaleHeight': False, 'trialN': 48, 'loaded': True, 'loadedTime': 101785.60000014305, 'positionName': 'RIGHT', 'positionCoords': [973.96, 263.5], 'bid': 9.85}]",101784.10000014305,1669837380562,cocktailshrimp,fried eggs,5.91,9.85,3.9399999999999995,,fried eggs,686.0999999046326,686,686.3999998569489,True,i,102987.40000009537,1203.2999999523163,1669837381765,1203,HRV,HRV_0197,2022-11-30 19:46:14
49,"[{'imgObject': {}, 'id': 'cheerios', 'src': '/static/foodstim60/cheerios.jpg', 'key': 'u', 'origWidth': 409, 'origHeight': 410, 'width': 409, 'height': 410, 'widthPercent': 0.45, 'rescaleHeight': False, 'trialN': 49, 'loaded': True, 'loadedTime': 102989, 'positionName': 'LEFT', 'positionCoords': [490.04, 263.5], 'bid': 0.61}, {'imgObject': {}, 'id': 'popsicles', 'src': '/static/foodstim60/popsicles.jpg', 'key': 'i', 'origWidth': 410, 'origHeight': 410, 'width': 410, 'height': 410, 'widthPercent': 0.45, 'rescaleHeight': False, 'trialN': 49, 'loaded': True, 'loadedTime': 102989.5, 'positionName': 'RIGHT', 'positionCoords': [973.96, 263.5], 'bid': 0.5700000000000001}]",102988.0,1669837381766,cheerios,popsicles,0.61,0.5700000000000001,-0.039999999999999925,,cheerios,610.2999999523163,611,610.6000001430511,True,u,104103.29999995232,1115.2999999523163,1669837382881,1115,HRV,HRV_0197,2022-11-30 19:46:14
50,"[{'imgObject': {}, 'id': 'shreddedwheatwithmilk', 'src': '/static/foodstim60/shreddedwheatwithmilk.jpg', 'key': 'u', 'origWidth': 410, 'origHeight': 410, 'width': 410, 'height': 410, 'widthPercent': 0.45, 'rescaleHeight': False, 'trialN': 50, 'loaded': True, 'loadedTime': 104105, 'positionName': 'LEFT', 'positionCoords': [489.04, 263.5], 'bid': 4.43}, {'imgObject': {}, 'id': 'corn cob', 'src': '/static/foodstim60/corn cob.jpg', 'key': 'i', 'origWidth': 411, 'origHeight': 411, 'width': 411, 'height': 411, 'widthPercent': 0.45, 'rescaleHeight': False, 'trialN': 50, 'loaded': True, 'loadedTime': 104105.29999995232, 'positionName': 'RIGHT', 'positionCoords': [973.96, 263], 'bid': 1.67}]",104104.0,1669837382882,shreddedwheatwithmilk,corn cob,4.43,1.67,-2.76,,corn cob,661.7000000476837,662,662.0,True,i,105279.20000004768,1175.2000000476837,1669837384057,1175,HRV,HRV_0197,2022-11-30 19:46:14
51,"[{'imgObject': {}, 'id': 'froot loops w milk', 'src': '/static/foodstim60/froot loops w milk.jpg', 'key': 'u', 'origWidth': 410, 'origHeight': 410, 'width': 410, 'height': 410, 'widthPercent': 0.45, 'rescaleHeight': False, 'trialN': 51, 'loaded': True, 'loadedTime': 105280.70000004768, 'positionName': 'LEFT', 'positionCoords': [489.04, 263.5], 'bid': 0.27}, {'imgObject': {}, 'id': 'luckycharms', 'src': '/static/foodstim60/luckycharms.jpg', 'key': 'i', 'origWidth': 410, 'origHeight': 409, 'width': 410, 'height': 409, 'widthPercent': 0.45, 'rescaleHeight': False, 'trialN': 51, 'loaded': True, 'loadedTime': 105280.90000009537, 'positionName': 'RIGHT', 'positionCoords': [973.96, 264], 'bid': 0.49}]",105279.60000014305,1669837384058,froot loops w milk,luckycharms,0.27,0.49,0.21999999999999997,,luckycharms,990.3999998569489,990,990.5999999046326,True,i,106790.5,1510.8999998569489,1669837385568,1510,HRV,HRV_0197,2022-11-30 19:46:14
52,"[{'imgObject': {}, 'id': 'hotdog w must', 'src': '/static/foodstim60/hotdog w must.jpg', 'key': 'u', 'origWidth': 409, 'origHeight': 409, 'width': 409, 'height': 409, 'widthPercent': 0.45, 'rescaleHeight': False, 'trialN': 52, 'loaded': True, 'loadedTime': 106792.10000014305, 'positionName': 'LEFT', 'positionCoords': [490.04, 264], 'bid': 2}, {'imgObject': {}, 'id': 'turkey sandwich', 'src': '/static/foodstim60/turkey sandwich.jpg', 'key': 'i', 'origWidth': 409, 'origHeight': 409, 'width': 409, 'height': 409, 'widthPercent': 0.45, 'rescaleHeight': False, 'trialN': 52, 'loaded': True, 'loadedTime': 106792.5, 'positionName': 'RIGHT', 'positionCoords': [973.96, 264], 'bid': 7.17}]",106791.10000014305,1669837385569,hotdog w must,turkey sandwich,2.0,7.17,5.17,,turkey sandwich,727,727,727.2999999523163,True,i,108023.60000014305,1232.5,1669837386801,1232,HRV,HRV_0197,2022-11-30 19:46:14
53,"[{'imgObject': {}, 'id': 'blueberries', 'src': '/static/foodstim60/blueberries.jpg', 'key': 'u', 'origWidth': 411, 'origHeight': 411, 'width': 411, 'height': 411, 'widthPercent': 0.45, 'rescaleHeight': False, 'trialN': 53, 'loaded': True, 'loadedTime': 108025.20000004768, 'positionName': 'LEFT', 'positionCoords': [488.04, 263], 'bid': 5.09}, {'imgObject': {}, 'id': 'popsicles', 'src': '/static/foodstim60/popsicles.jpg', 'key': 'i', 'origWidth': 410, 'origHeight': 410, 'width': 410, 'height': 410, 'widthPercent': 0.45, 'rescaleHeight': False, 'trialN': 53, 'loaded': True, 'loadedTime': 108025.60000014305, 'positionName': 'RIGHT', 'positionCoords': [973.96, 263.5], 'bid': 0.5700000000000001}]",108024.29999995232,1669837386802,blueberries,popsicles,5.09,0.5700000000000001,-4.52,,blueberries,589.7000000476837,590,590.0,True,u,109126.0,1101.7000000476837,1669837387904,1102,HRV,HRV_0197,2022-11-30 19:46:14
54,"[{'imgObject': {}, 'id': 'yogurt no spoon', 'src': '/static/foodstim60/yogurt no spoon.jpg', 'key': 'u', 'origWidth': 411, 'origHeight': 410, 'width': 411, 'height': 410, 'widthPercent': 0.45, 'rescaleHeight': False, 'trialN': 54, 'loaded': True, 'loadedTime': 109127.5, 'positionName': 'LEFT', 'positionCoords': [488.04, 263.5], 'bid': 9.27}, {'imgObject': {}, 'id': 'steak', 'src': '/static/foodstim60/steak.jpg', 'key': 'i', 'origWidth': 410, 'origHeight': 410, 'width': 410, 'height': 410, 'widthPercent': 0.45, 'rescaleHeight': False, 'trialN': 54, 'loaded': True, 'loadedTime': 109127.70000004768, 'positionName': 'RIGHT', 'positionCoords': [973.96, 263.5], 'bid': 9.2}]",109126.5,1669837387904,yogurt no spoon,steak,9.27,9.2,-0.07000000000000028,,yogurt no spoon,1368,1369,1368.2000000476837,True,u,111011.5,1885.0,1669837389789,1885,HRV,HRV_0197,2022-11-30 19:46:14
55,"[{'imgObject': {}, 'id': 'lox', 'src': '/static/foodstim60/lox.jpg', 'key': 'u', 'origWidth': 410, 'origHeight': 411, 'width': 410, 'height': 411, 'widthPercent': 0.45, 'rescaleHeight': False, 'trialN': 55, 'loaded': True, 'loadedTime': 111013.10000014305, 'positionName': 'LEFT', 'positionCoords': [489.04, 263], 'bid': 5.66}, {'imgObject': {}, 'id': 'raspberries', 'src': '/static/foodstim60/raspberries.jpg', 'key': 'i', 'origWidth': 411, 'origHeight': 411, 'width': 411, 'height': 411, 'widthPercent': 0.45, 'rescaleHeight': False, 'trialN': 55, 'loaded': True, 'loadedTime': 111013.29999995232, 'positionName': 'RIGHT', 'positionCoords': [973.96, 263], 'bid': 6.7}]",111012.0,1669837389790,lox,raspberries,5.66,6.7,1.04,,raspberries,1074.5,1075,1074.7999999523163,True,i,112595.20000004768,1583.2000000476837,1669837391373,1583,HRV,HRV_0197,2022-11-30 19:46:14
56,"[{'imgObject': {}, 'id': 'hashbrowns', 'src': '/static/foodstim60/hashbrowns.jpg', 'key': 'u', 'origWidth': 411, 'origHeight': 410, 'width': 411, 'height': 410, 'widthPercent': 0.45, 'rescaleHeight': False, 'trialN': 56, 'loaded': True, 'loadedTime': 112596.60000014305, 'positionName': 'LEFT', 'positionCoords': [488.04, 263.5], 'bid': 1.5}, {'imgObject': {}, 'id': 'banana', 'src': '/static/foodstim60/banana.jpg', 'key': 'i', 'origWidth': 410, 'origHeight': 410, 'width': 410, 'height': 410, 'widthPercent': 0.45, 'rescaleHeight': False, 'trialN': 56, 'loaded': True, 'loadedTime': 112596.90000009537, 'positionName': 'RIGHT', 'positionCoords': [973.96, 263.5], 'bid': 4.3}]",112595.70000004768,1669837391374,hashbrowns,banana,1.5,4.3,2.8,,banana,1538.2999999523163,1538,1538.7000000476837,True,i,114648.70000004768,2053.0,1669837393427,2053,HRV,HRV_0197,2022-11-30 19:46:14
57,"[{'imgObject': {}, 'id': 'burger', 'src': '/static/foodstim60/burger.jpg', 'key': 'u', 'origWidth': 409, 'origHeight': 409, 'width': 409, 'height': 409, 'widthPercent': 0.45, 'rescaleHeight': False, 'trialN': 57, 'loaded': True, 'loadedTime': 114650.20000004768, 'positionName': 'LEFT', 'positionCoords': [490.04, 264], 'bid': 9.66}, {'imgObject': {}, 'id': 'fruitsalad', 'src': '/static/foodstim60/fruitsalad.jpg', 'key': 'i', 'origWidth': 410, 'origHeight': 410, 'width': 410, 'height': 410, 'widthPercent': 0.45, 'rescaleHeight': False, 'trialN': 57, 'loaded': True, 'loadedTime': 114650.60000014305, 'positionName': 'RIGHT', 'positionCoords': [973.96, 263.5], 'bid': 5.87}]",114649.29999995232,1669837393427,burger,fruitsalad,9.66,5.87,-3.79,,burger,868.7000000476837,869,868.9000000953674,True,u,116032.20000004768,1382.9000000953674,1669837394810,1383,HRV,HRV_0197,2022-11-30 19:46:14
58,"[{'imgObject': {}, 'id': 'banana', 'src': '/static/foodstim60/banana.jpg', 'key': 'u', 'origWidth': 410, 'origHeight': 410, 'width': 410, 'height': 410, 'widthPercent': 0.45, 'rescaleHeight': False, 'trialN': 58, 'loaded': True, 'loadedTime': 116033.60000014305, 'positionName': 'LEFT', 'positionCoords': [489.04, 263.5], 'bid': 4.3}, {'imgObject': {}, 'id': 'chicken nuggets2', 'src': '/static/foodstim60/chicken nuggets2.jpg', 'key': 'i', 'origWidth': 410, 'origHeight': 409, 'width': 410, 'height': 409, 'widthPercent': 0.45, 'rescaleHeight': False, 'trialN': 58, 'loaded': True, 'loadedTime': 116034.20000004768, 'positionName': 'RIGHT', 'positionCoords': [973.96, 264], 'bid': 4.2}]",116032.70000004768,1669837394811,banana,chicken nuggets2,4.3,4.2,-0.09999999999999964,,chicken nuggets2,1429.5999999046326,1429,1429.9000000953674,True,i,117969.5,1936.7999999523163,1669837396747,1936,HRV,HRV_0197,2022-11-30 19:46:14
59,"[{'imgObject': {}, 'id': 'mango', 'src': '/static/foodstim60/mango.jpg', 'key': 'u', 'origWidth': 411, 'origHeight': 411, 'width': 411, 'height': 411, 'widthPercent': 0.45, 'rescaleHeight': False, 'trialN': 59, 'loaded': True, 'loadedTime': 117971.20000004768, 'positionName': 'LEFT', 'positionCoords': [488.04, 263], 'bid': 0.13}, {'imgObject': {}, 'id': 'corn cob', 'src': '/static/foodstim60/corn cob.jpg', 'key': 'i', 'origWidth': 411, 'origHeight': 411, 'width': 411, 'height': 411, 'widthPercent': 0.45, 'rescaleHeight': False, 'trialN': 59, 'loaded': True, 'loadedTime': 117971.5, 'positionName': 'RIGHT', 'positionCoords': [973.96, 263], 'bid': 1.67}]",117970.0,1669837396748,mango,corn cob,0.13,1.67,1.54,,corn cob,852.1000001430511,852,852.4000000953674,True,i,119335.0,1365.0,1669837398113,1365,HRV,HRV_0197,2022-11-30 19:46:14
60,"[{'imgObject': {}, 'id': 'burrito', 'src': '/static/foodstim60/burrito.jpg', 'key': 'u', 'origWidth': 410, 'origHeight': 410, 'width': 410, 'height': 410, 'widthPercent': 0.45, 'rescaleHeight': False, 'trialN': 60, 'loaded': True, 'loadedTime': 119336.5, 'positionName': 'LEFT', 'positionCoords': [489.04, 263.5], 'bid': 4.99}, {'imgObject': {}, 'id': 'eggsalad', 'src': '/static/foodstim60/eggsalad.jpg', 'key': 'i', 'origWidth': 410, 'origHeight': 409, 'width': 410, 'height': 409, 'widthPercent': 0.45, 'rescaleHeight': False, 'trialN': 60, 'loaded': True, 'loadedTime': 119336.70000004768, 'positionName': 'RIGHT', 'positionCoords': [973.96, 264], 'bid': 4.82}]",119335.60000014305,1669837398113,burrito,eggsalad,4.99,4.82,-0.16999999999999993,,eggsalad,646.3999998569489,647,646.7999999523163,True,i,120488.29999995232,1152.6999998092651,1669837399266,1153,HRV,HRV_0197,2022-11-30 19:46:14
61,"[{'imgObject': {}, 'id': 'omelette', 'src': '/static/foodstim60/omelette.jpg', 'key': 'u', 'origWidth': 410, 'origHeight': 409, 'width': 410, 'height': 409, 'widthPercent': 0.45, 'rescaleHeight': False, 'trialN': 61, 'loaded': True, 'loadedTime': 120490, 'positionName': 'LEFT', 'positionCoords': [489.04, 264], 'bid': 9.86}, {'imgObject': {}, 'id': 'strawberries', 'src': '/static/foodstim60/strawberries.jpg', 'key': 'i', 'origWidth': 410, 'origHeight': 410, 'width': 410, 'height': 410, 'widthPercent': 0.45, 'rescaleHeight': False, 'trialN': 61, 'loaded': True, 'loadedTime': 120490.40000009537, 'positionName': 'RIGHT', 'positionCoords': [973.96, 263.5], 'bid': 6.17}]",120488.90000009537,1669837399267,omelette,strawberries,9.86,6.17,-3.6899999999999995,,strawberries,573.2999999523163,573,573.7000000476837,True,i,121572.29999995232,1083.3999998569489,1669837400350,1083,HRV,HRV_0197,2022-11-30 19:46:14
62,"[{'imgObject': {}, 'id': 'mashed potato', 'src': '/static/foodstim60/mashed potato.jpg', 'key': 'u', 'origWidth': 409, 'origHeight': 409, 'width': 409, 'height': 409, 'widthPercent': 0.45, 'rescaleHeight': False, 'trialN': 62, 'loaded': True, 'loadedTime': 121573.79999995232, 'positionName': 'LEFT', 'positionCoords': [490.04, 264], 'bid': 5.79}, {'imgObject': {}, 'id': 'veggieswithdip', 'src': '/static/foodstim60/veggieswithdip.jpg', 'key': 'i', 'origWidth': 409, 'origHeight': 409, 'width': 409, 'height': 409, 'widthPercent': 0.45, 'rescaleHeight': False, 'trialN': 62, 'loaded': True, 'loadedTime': 121574.29999995232, 'positionName': 'RIGHT', 'positionCoords': [973.96, 264], 'bid': 5.61}]",121572.79999995232,1669837400351,mashed potato,veggieswithdip,5.79,5.61,-0.17999999999999972,,mashed potato,977.3000001907349,977,977.6000001430511,True,u,123056.0,1483.2000000476837,1669837401834,1483,HRV,HRV_0197,2022-11-30 19:46:14
63,"[{'imgObject': {}, 'id': 'avocado', 'src': '/static/foodstim60/avocado.jpg', 'key': 'u', 'origWidth': 409, 'origHeight': 409, 'width': 409, 'height': 409, 'widthPercent': 0.45, 'rescaleHeight': False, 'trialN': 63, 'loaded': True, 'loadedTime': 123057.60000014305, 'positionName': 'LEFT', 'positionCoords': [490.04, 264], 'bid': 7.82}, {'imgObject': {}, 'id': 'cocktailshrimp', 'src': '/static/foodstim60/cocktailshrimp.jpg', 'key': 'i', 'origWidth': 410, 'origHeight': 410, 'width': 410, 'height': 410, 'widthPercent': 0.45, 'rescaleHeight': False, 'trialN': 63, 'loaded': True, 'loadedTime': 123057.70000004768, 'positionName': 'RIGHT', 'positionCoords': [973.96, 263.5], 'bid': 5.91}]",123056.60000014305,1669837401834,avocado,cocktailshrimp,7.82,5.91,-1.9100000000000001,,avocado,669.3999998569489,670,669.5999999046326,True,u,124239.70000004768,1183.0999999046326,1669837403018,1184,HRV,HRV_0197,2022-11-30 19:46:14
64,"[{'imgObject': {}, 'id': 'edamame', 'src': '/static/foodstim60/edamame.jpg', 'key': 'u', 'origWidth': 409, 'origHeight': 410, 'width': 409, 'height': 410, 'widthPercent': 0.45, 'rescaleHeight': False, 'trialN': 64, 'loaded': True, 'loadedTime': 124241.40000009537, 'positionName': 'LEFT', 'positionCoords': [490.04, 263.5], 'bid': 4.98}, {'imgObject': {}, 'id': 'apple slices', 'src': '/static/foodstim60/apple slices.jpg', 'key': 'i', 'origWidth': 409, 'origHeight': 410, 'width': 409, 'height': 410, 'widthPercent': 0.45, 'rescaleHeight': False, 'trialN': 64, 'loaded': True, 'loadedTime': 124241.60000014305, 'positionName': 'RIGHT', 'positionCoords': [973.96, 263.5], 'bid': 5.04}]",124240.29999995232,1669837403018,edamame,apple slices,4.98,5.04,0.05999999999999961,,edamame,1717.7000000476837,1718,1718.0,True,u,126475.40000009537,2235.100000143051,1669837405253,2235,HRV,HRV_0197,2022-11-30 19:46:14
65,"[{'imgObject': {}, 'id': 'blackbeanswithrice', 'src': '/static/foodstim60/blackbeanswithrice.jpg', 'key': 'u', 'origWidth': 410, 'origHeight': 410, 'width': 410, 'height': 410, 'widthPercent': 0.45, 'rescaleHeight': False, 'trialN': 65, 'loaded': True, 'loadedTime': 126476.79999995232, 'positionName': 'LEFT', 'positionCoords': [489.04, 263.5], 'bid': 0.08}, {'imgObject': {}, 'id': 'mango', 'src': '/static/foodstim60/mango.jpg', 'key': 'i', 'origWidth': 411, 'origHeight': 411, 'width': 411, 'height': 411, 'widthPercent': 0.45, 'rescaleHeight': False, 'trialN': 65, 'loaded': True, 'loadedTime': 126477, 'positionName': 'RIGHT', 'positionCoords': [973.96, 263], 'bid': 0.13}]",126475.90000009537,1669837405254,blackbeanswithrice,mango,0.08,0.13,0.05,,blackbeanswithrice,1050,1050,1050.2999999523163,True,u,128042.40000009537,1566.5,1669837406820,1566,HRV,HRV_0197,2022-11-30 19:46:14
66,"[{'imgObject': {}, 'id': 'turkeysandwich', 'src': '/static/foodstim60/turkeysandwich.jpg', 'key': 'u', 'origWidth': 409, 'origHeight': 409, 'width': 409, 'height': 409, 'widthPercent': 0.45, 'rescaleHeight': False, 'trialN': 66, 'loaded': True, 'loadedTime': 128044, 'positionName': 'LEFT', 'positionCoords': [490.04, 264], 'bid': 6.2700000000000005}, {'imgObject': {}, 'id': 'salmon', 'src': '/static/foodstim60/salmon.jpg', 'key': 'i', 'origWidth': 410, 'origHeight': 409, 'width': 410, 'height': 409, 'widthPercent': 0.45, 'rescaleHeight': False, 'trialN': 66, 'loaded': True, 'loadedTime': 128044.5, 'positionName': 'RIGHT', 'positionCoords': [973.96, 264], 'bid': 9.21}]",128043.0,1669837406821,turkeysandwich,salmon,6.2700000000000005,9.21,2.9400000000000004,,salmon,899,899,899.2999999523163,True,i,129460.10000014305,1417.1000001430511,1669837408238,1417,HRV,HRV_0197,2022-11-30 19:46:14
67,"[{'imgObject': {}, 'id': 'raisin bran w milk', 'src': '/static/foodstim60/raisin bran w milk.jpg', 'key': 'u', 'origWidth': 411, 'origHeight': 411, 'width': 411, 'height': 411, 'widthPercent': 0.45, 'rescaleHeight': False, 'trialN': 67, 'loaded': True, 'loadedTime': 129461.60000014305, 'positionName': 'LEFT', 'positionCoords': [488.04, 263], 'bid': 0.67}, {'imgObject': {}, 'id': 'sweetpotato', 'src': '/static/foodstim60/sweetpotato.jpg', 'key': 'i', 'origWidth': 410, 'origHeight': 410, 'width': 410, 'height': 410, 'widthPercent': 0.45, 'rescaleHeight': False, 'trialN': 67, 'loaded': True, 'loadedTime': 129462, 'positionName': 'RIGHT', 'positionCoords': [973.96, 263.5], 'bid': 1.05}]",129460.70000004768,1669837408238,raisin bran w milk,sweetpotato,0.67,1.05,0.38,,raisin bran w milk,1017.4000000953674,1018,1017.7000000476837,True,u,130994.79999995232,1534.0999999046326,1669837409773,1535,HRV,HRV_0197,2022-11-30 19:46:14
68,"[{'imgObject': {}, 'id': 'salad w chicken', 'src': '/static/foodstim60/salad w chicken.jpg', 'key': 'u', 'origWidth': 411, 'origHeight': 411, 'width': 411, 'height': 411, 'widthPercent': 0.45, 'rescaleHeight': False, 'trialN': 68, 'loaded': True, 'loadedTime': 130996.40000009537, 'positionName': 'LEFT', 'positionCoords': [488.04, 263], 'bid': 9.15}, {'imgObject': {}, 'id': 'blueberries', 'src': '/static/foodstim60/blueberries.jpg', 'key': 'i', 'origWidth': 411, 'origHeight': 411, 'width': 411, 'height': 411, 'widthPercent': 0.45, 'rescaleHeight': False, 'trialN': 68, 'loaded': True, 'loadedTime': 130996.60000014305, 'positionName': 'RIGHT', 'positionCoords': [973.96, 263], 'bid': 5.09}]",130995.29999995232,1669837409773,salad w chicken,blueberries,9.15,5.09,-4.0600000000000005,,salad w chicken,642.9000000953674,643,643.1000001430511,True,u,132146.40000009537,1151.1000001430511,1669837410924,1151,HRV,HRV_0197,2022-11-30 19:46:14
69,"[{'imgObject': {}, 'id': 'apple slices', 'src': '/static/foodstim60/apple slices.jpg', 'key': 'u', 'origWidth': 409, 'origHeight': 410, 'width': 409, 'height': 410, 'widthPercent': 0.45, 'rescaleHeight': False, 'trialN': 69, 'loaded': True, 'loadedTime': 132147.90000009537, 'positionName': 'LEFT', 'positionCoords': [490.04, 263.5], 'bid': 5.04}, {'imgObject': {}, 'id': 'roastedpotatoes', 'src': '/static/foodstim60/roastedpotatoes.jpg', 'key': 'i', 'origWidth': 409, 'origHeight': 410, 'width': 409, 'height': 410, 'widthPercent': 0.45, 'rescaleHeight': False, 'trialN': 69, 'loaded': True, 'loadedTime': 132148.10000014305, 'positionName': 'RIGHT', 'positionCoords': [973.96, 263.5], 'bid': 4.91}]",132147.0,1669837410925,apple slices,roastedpotatoes,5.04,4.91,-0.1299999999999999,,apple slices,1203.2000000476837,1203,1203.4000000953674,True,u,133864.70000004768,1717.7000000476837,1669837412643,1718,HRV,HRV_0197,2022-11-30 19:46:14
70,"[{'imgObject': {}, 'id': 'salmon', 'src': '/static/foodstim60/salmon.jpg', 'key': 'u', 'origWidth': 410, 'origHeight': 409, 'width': 410, 'height': 409, 'widthPercent': 0.45, 'rescaleHeight': False, 'trialN': 70, 'loaded': True, 'loadedTime': 133866.10000014305, 'positionName': 'LEFT', 'positionCoords': [489.04, 264], 'bid': 9.21}, {'imgObject': {}, 'id': 'burger', 'src': '/static/foodstim60/burger.jpg', 'key': 'i', 'origWidth': 409, 'origHeight': 409, 'width': 409, 'height': 409, 'widthPercent': 0.45, 'rescaleHeight': False, 'trialN': 70, 'loaded': True, 'loadedTime': 133866.60000014305, 'positionName': 'RIGHT', 'positionCoords': [973.96, 264], 'bid': 9.66}]",133865.20000004768,1669837412643,salmon,burger,9.21,9.66,0.4499999999999993,,burger,820.4000000953674,821,820.7000000476837,True,i,135206.79999995232,1341.5999999046326,1669837413985,1342,HRV,HRV_0197,2022-11-30 19:46:14
71,"[{'imgObject': {}, 'id': 'turkeysandwich', 'src': '/static/foodstim60/turkeysandwich.jpg', 'key': 'u', 'origWidth': 409, 'origHeight': 409, 'width': 409, 'height': 409, 'widthPercent': 0.45, 'rescaleHeight': False, 'trialN': 71, 'loaded': True, 'loadedTime': 135208.10000014305, 'positionName': 'LEFT', 'positionCoords': [490.04, 264], 'bid': 6.2700000000000005}, {'imgObject': {}, 'id': 'cocktailshrimp', 'src': '/static/foodstim60/cocktailshrimp.jpg', 'key': 'i', 'origWidth': 410, 'origHeight': 410, 'width': 410, 'height': 410, 'widthPercent': 0.45, 'rescaleHeight': False, 'trialN': 71, 'loaded': True, 'loadedTime': 135208.60000014305, 'positionName': 'RIGHT', 'positionCoords': [973.96, 263.5], 'bid': 5.91}]",135207.20000004768,1669837413985,turkeysandwich,cocktailshrimp,6.2700000000000005,5.91,-0.3600000000000003,,cocktailshrimp,1134.7000000476837,1135,1135.0999999046326,True,i,136853.70000004768,1646.5,1669837415632,1647,HRV,HRV_0197,2022-11-30 19:46:14
72,"[{'imgObject': {}, 'id': 'eggs', 'src': '/static/foodstim60/eggs.jpg', 'key': 'u', 'origWidth': 409, 'origHeight': 409, 'width': 409, 'height': 409, 'widthPercent': 0.45, 'rescaleHeight': False, 'trialN': 72, 'loaded': True, 'loadedTime': 136855.20000004768, 'positionName': 'LEFT', 'positionCoords': [490.04, 264], 'bid': 9.89}, {'imgObject': {}, 'id': 'tacos', 'src': '/static/foodstim60/tacos.jpg', 'key': 'i', 'origWidth': 411, 'origHeight': 411, 'width': 411, 'height': 411, 'widthPercent': 0.45, 'rescaleHeight': False, 'trialN': 72, 'loaded': True, 'loadedTime': 136855.40000009537, 'positionName': 'RIGHT', 'positionCoords': [973.96, 263], 'bid': 9.99}]",136854.20000004768,1669837415632,eggs,tacos,9.89,9.99,0.09999999999999964,,eggs,623.7000000476837,624,624.0999999046326,True,u,137998.10000014305,1143.9000000953674,1669837416776,1144,HRV,HRV_0197,2022-11-30 19:46:14
73,"[{'imgObject': {}, 'id': 'turkey sandwich', 'src': '/static/foodstim60/turkey sandwich.jpg', 'key': 'u', 'origWidth': 409, 'origHeight': 409, 'width': 409, 'height': 409, 'widthPercent': 0.45, 'rescaleHeight': False, 'trialN': 73, 'loaded': True, 'loadedTime': 137999.60000014305, 'positionName': 'LEFT', 'positionCoords': [490.04, 264], 'bid': 7.17}, {'imgObject': {}, 'id': 'baked potato', 'src': '/static/foodstim60/baked potato.jpg', 'key': 'i', 'origWidth': 409, 'origHeight': 410, 'width': 409, 'height': 410, 'widthPercent': 0.45, 'rescaleHeight': False, 'trialN': 73, 'loaded': True, 'loadedTime': 137999.90000009537, 'positionName': 'RIGHT', 'positionCoords': [973.96, 263.5], 'bid': 4.95}]",137998.70000004768,1669837416777,turkey sandwich,baked potato,7.17,4.95,-2.2199999999999998,,turkey sandwich,695.2000000476837,695,695.4000000953674,True,u,139202.5,1203.7999999523163,1669837417980,1203,HRV,HRV_0197,2022-11-30 19:46:14
74,"[{'imgObject': {}, 'id': 'ice cream sundae 002', 'src': '/static/foodstim60/ice cream sundae 002.jpg', 'key': 'u', 'origWidth': 409, 'origHeight': 409, 'width': 409, 'height': 409, 'widthPercent': 0.45, 'rescaleHeight': False, 'trialN': 74, 'loaded': True, 'loadedTime': 139204.10000014305, 'positionName': 'LEFT', 'positionCoords': [490.04, 264], 'bid': 2.22}, {'imgObject': {}, 'id': 'popsicles', 'src': '/static/foodstim60/popsicles.jpg', 'key': 'i', 'origWidth': 410, 'origHeight': 410, 'width': 410, 'height': 410, 'widthPercent': 0.45, 'rescaleHeight': False, 'trialN': 74, 'loaded': True, 'loadedTime': 139204.29999995232, 'positionName': 'RIGHT', 'positionCoords': [973.96, 263.5], 'bid': 0.5700000000000001}]",139203.0,1669837417981,ice cream sundae 002,popsicles,2.22,0.5700000000000001,-1.6500000000000001,,ice cream sundae 002,867.2000000476837,867,867.5,True,u,140585.60000014305,1382.6000001430511,1669837419363,1382,HRV,HRV_0197,2022-11-30 19:46:14
75,"[{'imgObject': {}, 'id': 'chickenfingers', 'src': '/static/foodstim60/chickenfingers.jpg', 'key': 'u', 'origWidth': 410, 'origHeight': 410, 'width': 410, 'height': 410, 'widthPercent': 0.45, 'rescaleHeight': False, 'trialN': 75, 'loaded': True, 'loadedTime': 140587.10000014305, 'positionName': 'LEFT', 'positionCoords': [489.04, 263.5], 'bid': 4.98}, {'imgObject': {}, 'id': 'mango', 'src': '/static/foodstim60/mango.jpg', 'key': 'i', 'origWidth': 411, 'origHeight': 411, 'width': 411, 'height': 411, 'widthPercent': 0.45, 'rescaleHeight': False, 'trialN': 75, 'loaded': True, 'loadedTime': 140587.60000014305, 'positionName': 'RIGHT', 'positionCoords': [973.96, 263], 'bid': 0.13}]",140586.10000014305,1669837419364,chickenfingers,mango,4.98,0.13,-4.8500000000000005,,chickenfingers,915.8999998569489,916,916.0999999046326,True,u,142007.70000004768,1421.5999999046326,1669837420786,1422,HRV,HRV_0197,2022-11-30 19:46:14
76,"[{'imgObject': {}, 'id': 'steak', 'src': '/static/foodstim60/steak.jpg', 'key': 'u', 'origWidth': 410, 'origHeight': 410, 'width': 410, 'height': 410, 'widthPercent': 0.45, 'rescaleHeight': False, 'trialN': 76, 'loaded': True, 'loadedTime': 142009.29999995232, 'positionName': 'LEFT', 'positionCoords': [489.04, 263.5], 'bid': 9.2}, {'imgObject': {}, 'id': 'veggieswithdip', 'src': '/static/foodstim60/veggieswithdip.jpg', 'key': 'i', 'origWidth': 409, 'origHeight': 409, 'width': 409, 'height': 409, 'widthPercent': 0.45, 'rescaleHeight': False, 'trialN': 76, 'loaded': True, 'loadedTime': 142009.40000009537, 'positionName': 'RIGHT', 'positionCoords': [973.96, 264], 'bid': 5.61}]",142008.29999995232,1669837420786,steak,veggieswithdip,9.2,5.61,-3.589999999999999,,steak,661.7000000476837,662,662.1000001430511,True,u,143189.70000004768,1181.4000000953674,1669837421968,1182,HRV,HRV_0197,2022-11-30 19:46:14
77,"[{'imgObject': {}, 'id': 'orange slices', 'src': '/static/foodstim60/orange slices.jpg', 'key': 'u', 'origWidth': 409, 'origHeight': 410, 'width': 409, 'height': 410, 'widthPercent': 0.45, 'rescaleHeight': False, 'trialN': 77, 'loaded': True, 'loadedTime': 143191.5, 'positionName': 'LEFT', 'positionCoords': [490.04, 263.5], 'bid': 4.97}, {'imgObject': {}, 'id': 'seaweed', 'src': '/static/foodstim60/seaweed.jpg', 'key': 'i', 'origWidth': 410, 'origHeight': 410, 'width': 410, 'height': 410, 'widthPercent': 0.45, 'rescaleHeight': False, 'trialN': 77, 'loaded': True, 'loadedTime': 143191.60000014305, 'positionName': 'RIGHT', 'positionCoords': [973.96, 263.5], 'bid': 0.09}]",143190.29999995232,1669837421968,orange slices,seaweed,4.97,0.09,-4.88,,orange slices,1215.8000001907349,1216,1216.0,True,u,144924.20000004768,1733.9000000953674,1669837423702,1734,HRV,HRV_0197,2022-11-30 19:46:14
78,"[{'imgObject': {}, 'id': 'corn cob', 'src': '/static/foodstim60/corn cob.jpg', 'key': 'u', 'origWidth': 411, 'origHeight': 411, 'width': 411, 'height': 411, 'widthPercent': 0.45, 'rescaleHeight': False, 'trialN': 78, 'loaded': True, 'loadedTime': 144925.70000004768, 'positionName': 'LEFT', 'positionCoords': [488.04, 263], 'bid': 1.67}, {'imgObject': {}, 'id': 'granola w milk', 'src': '/static/foodstim60/granola w milk.jpg', 'key': 'i', 'origWidth': 410, 'origHeight': 410, 'width': 410, 'height': 410, 'widthPercent': 0.45, 'rescaleHeight': False, 'trialN': 78, 'loaded': True, 'loadedTime': 144926, 'positionName': 'RIGHT', 'positionCoords': [973.96, 263.5], 'bid': 1.94}]",144924.79999995232,1669837423703,corn cob,granola w milk,1.67,1.94,0.27,,granola w milk,1001,1001,1001.2000000476837,True,i,146442.10000014305,1517.3000001907349,1669837425220,1517,HRV,HRV_0197,2022-11-30 19:46:14
79,"[{'imgObject': {}, 'id': 'mashed potato', 'src': '/static/foodstim60/mashed potato.jpg', 'key': 'u', 'origWidth': 409, 'origHeight': 409, 'width': 409, 'height': 409, 'widthPercent': 0.45, 'rescaleHeight': False, 'trialN': 79, 'loaded': True, 'loadedTime': 146443.70000004768, 'positionName': 'LEFT', 'positionCoords': [490.04, 264], 'bid': 5.79}, {'imgObject': {}, 'id': 'turkey sandwich', 'src': '/static/foodstim60/turkey sandwich.jpg', 'key': 'i', 'origWidth': 409, 'origHeight': 409, 'width': 409, 'height': 409, 'widthPercent': 0.45, 'rescaleHeight': False, 'trialN': 79, 'loaded': True, 'loadedTime': 146444, 'positionName': 'RIGHT', 'positionCoords': [973.96, 264], 'bid': 7.17}]",146442.70000004768,1669837425220,mashed potato,turkey sandwich,5.79,7.17,1.38,,mashed potato,1011.4000000953674,1012,1011.7000000476837,True,u,147960.79999995232,1518.0999999046326,1669837426739,1519,HRV,HRV_0197,2022-11-30 19:46:14
80,"[{'imgObject': {}, 'id': 'cocktailshrimp', 'src': '/static/foodstim60/cocktailshrimp.jpg', 'key': 'u', 'origWidth': 410, 'origHeight': 410, 'width': 410, 'height': 410, 'widthPercent': 0.45, 'rescaleHeight': False, 'trialN': 80, 'loaded': True, 'loadedTime': 147962.40000009537, 'positionName': 'LEFT', 'positionCoords': [489.04, 263.5], 'bid': 5.91}, {'imgObject': {}, 'id': 'fruitsalad', 'src': '/static/foodstim60/fruitsalad.jpg', 'key': 'i', 'origWidth': 410, 'origHeight': 410, 'width': 410, 'height': 410, 'widthPercent': 0.45, 'rescaleHeight': False, 'trialN': 80, 'loaded': True, 'loadedTime': 147962.90000009537, 'positionName': 'RIGHT', 'positionCoords': [973.96, 263.5], 'bid': 5.87}]",147961.40000009537,1669837426739,cocktailshrimp,fruitsalad,5.91,5.87,-0.040000000000000036,,cocktailshrimp,1036.2000000476837,1037,1036.5,True,u,149511.60000014305,1550.2000000476837,1669837428289,1550,HRV,HRV_0197,2022-11-30 19:46:14
81,"[{'imgObject': {}, 'id': 'burrito', 'src': '/static/foodstim60/burrito.jpg', 'key': 'u', 'origWidth': 410, 'origHeight': 410, 'width': 410, 'height': 410, 'widthPercent': 0.45, 'rescaleHeight': False, 'trialN': 81, 'loaded': True, 'loadedTime': 149513.20000004768, 'positionName': 'LEFT', 'positionCoords': [489.04, 263.5], 'bid': 4.99}, {'imgObject': {}, 'id': 'chicken nuggets2', 'src': '/static/foodstim60/chicken nuggets2.jpg', 'key': 'i', 'origWidth': 410, 'origHeight': 409, 'width': 410, 'height': 409, 'widthPercent': 0.45, 'rescaleHeight': False, 'trialN': 81, 'loaded': True, 'loadedTime': 149513.40000009537, 'positionName': 'RIGHT', 'positionCoords': [973.96, 264], 'bid': 4.2}]",149512.20000004768,1669837428290,burrito,chicken nuggets2,4.99,4.2,-0.79,,burrito,1085.7999999523163,1086,1086.0999999046326,True,u,151113.90000009537,1601.7000000476837,1669837429892,1602,HRV,HRV_0197,2022-11-30 19:46:14
82,"[{'imgObject': {}, 'id': 'fried eggs', 'src': '/static/foodstim60/fried eggs.jpg', 'key': 'u', 'origWidth': 410, 'origHeight': 410, 'width': 410, 'height': 410, 'widthPercent': 0.45, 'rescaleHeight': False, 'trialN': 82, 'loaded': True, 'loadedTime': 151115.60000014305, 'positionName': 'LEFT', 'positionCoords': [489.04, 263.5], 'bid': 9.85}, {'imgObject': {}, 'id': 'eggs', 'src': '/static/foodstim60/eggs.jpg', 'key': 'i', 'origWidth': 409, 'origHeight': 409, 'width': 409, 'height': 409, 'widthPercent': 0.45, 'rescaleHeight': False, 'trialN': 82, 'loaded': True, 'loadedTime': 151115.79999995232, 'positionName': 'RIGHT', 'positionCoords': [973.96, 264], 'bid': 9.89}]",151114.5,1669837429892,fried eggs,eggs,9.85,9.89,0.040000000000000924,,eggs,787.6000001430511,788,787.9000000953674,True,i,152415.40000009537,1300.9000000953674,1669837431193,1301,HRV,HRV_0197,2022-11-30 19:46:14
83,"[{'imgObject': {}, 'id': 'raisin bran w milk', 'src': '/static/foodstim60/raisin bran w milk.jpg', 'key': 'u', 'origWidth': 411, 'origHeight': 411, 'width': 411, 'height': 411, 'widthPercent': 0.45, 'rescaleHeight': False, 'trialN': 83, 'loaded': True, 'loadedTime': 152416.90000009537, 'positionName': 'LEFT', 'positionCoords': [488.04, 263], 'bid': 0.67}, {'imgObject': {}, 'id': 'mango', 'src': '/static/foodstim60/mango.jpg', 'key': 'i', 'origWidth': 411, 'origHeight': 411, 'width': 411, 'height': 411, 'widthPercent': 0.45, 'rescaleHeight': False, 'trialN': 83, 'loaded': True, 'loadedTime': 152417.10000014305, 'positionName': 'RIGHT', 'positionCoords': [973.96, 263], 'bid': 0.13}]",152415.90000009537,1669837431194,raisin bran w milk,mango,0.67,0.13,-0.54,,raisin bran w milk,886.2999999523163,886,886.5,True,u,153816.40000009537,1400.5,1669837432594,1400,HRV,HRV_0197,2022-11-30 19:46:14
84,"[{'imgObject': {}, 'id': 'Tribe humus pita', 'src': '/static/foodstim60/Tribe humus pita.jpg', 'key': 'u', 'origWidth': 411, 'origHeight': 411, 'width': 411, 'height': 411, 'widthPercent': 0.45, 'rescaleHeight': False, 'trialN': 84, 'loaded': True, 'loadedTime': 153818.10000014305, 'positionName': 'LEFT', 'positionCoords': [488.04, 263], 'bid': 8.32}, {'imgObject': {}, 'id': 'eggs', 'src': '/static/foodstim60/eggs.jpg', 'key': 'i', 'origWidth': 409, 'origHeight': 409, 'width': 409, 'height': 409, 'widthPercent': 0.45, 'rescaleHeight': False, 'trialN': 84, 'loaded': True, 'loadedTime': 153818.40000009537, 'positionName': 'RIGHT', 'positionCoords': [973.96, 264], 'bid': 9.89}]",153817.0,1669837432595,Tribe humus pita,eggs,8.32,9.89,1.5700000000000003,,Tribe humus pita,877.2000000476837,877,877.5,True,u,155200.20000004768,1383.2000000476837,1669837433987,1392,HRV,HRV_0197,2022-11-30 19:46:14
85,"[{'imgObject': {}, 'id': 'baked potato', 'src': '/static/foodstim60/baked potato.jpg', 'key': 'u', 'origWidth': 409, 'origHeight': 410, 'width': 409, 'height': 410, 'widthPercent': 0.45, 'rescaleHeight': False, 'trialN': 85, 'loaded': True, 'loadedTime': 155201.79999995232, 'positionName': 'LEFT', 'positionCoords': [490.04, 263.5], 'bid': 4.95}, {'imgObject': {}, 'id': 'chicken nuggets2', 'src': '/static/foodstim60/chicken nuggets2.jpg', 'key': 'i', 'origWidth': 410, 'origHeight': 409, 'width': 410, 'height': 409, 'widthPercent': 0.45, 'rescaleHeight': False, 'trialN': 85, 'loaded': True, 'loadedTime': 155202.20000004768, 'positionName': 'RIGHT', 'positionCoords': [973.96, 264], 'bid': 4.2}]",155200.79999995232,1669837433988,baked potato,chicken nuggets2,4.95,4.2,-0.75,,chicken nuggets2,1317.4000000953674,1318,1317.7000000476837,True,i,157036.60000014305,1835.8000001907349,1669837435824,1836,HRV,HRV_0197,2022-11-30 19:46:14
86,"[{'imgObject': {}, 'id': 'edamame', 'src': '/static/foodstim60/edamame.jpg', 'key': 'u', 'origWidth': 409, 'origHeight': 410, 'width': 409, 'height': 410, 'widthPercent': 0.45, 'rescaleHeight': False, 'trialN': 86, 'loaded': True, 'loadedTime': 157038.29999995232, 'positionName': 'LEFT', 'positionCoords': [490.04, 263.5], 'bid': 4.98}, {'imgObject': {}, 'id': 'Tribe humus pita', 'src': '/static/foodstim60/Tribe humus pita.jpg', 'key': 'i', 'origWidth': 411, 'origHeight': 411, 'width': 411, 'height': 411, 'widthPercent': 0.45, 'rescaleHeight': False, 'trialN': 86, 'loaded': True, 'loadedTime': 157038.5, 'positionName': 'RIGHT', 'positionCoords': [973.96, 263], 'bid': 8.32}]",157037.20000004768,1669837435824,edamame,Tribe humus pita,4.98,8.32,3.34,,Tribe humus pita,680.5999999046326,681,680.7999999523163,True,i,158236.20000004768,1199.0,1669837437023,1199,HRV,HRV_0197,2022-11-30 19:46:14
87,"[{'imgObject': {}, 'id': 'bagel plain', 'src': '/static/foodstim60/bagel plain.jpg', 'key': 'u', 'origWidth': 410, 'origHeight': 410, 'width': 410, 'height': 410, 'widthPercent': 0.45, 'rescaleHeight': False, 'trialN': 87, 'loaded': True, 'loadedTime': 158237.70000004768, 'positionName': 'LEFT', 'positionCoords': [489.04, 263.5], 'bid': 3.78}, {'imgObject': {}, 'id': 'hotdog w must', 'src': '/static/foodstim60/hotdog w must.jpg', 'key': 'i', 'origWidth': 409, 'origHeight': 409, 'width': 409, 'height': 409, 'widthPercent': 0.45, 'rescaleHeight': False, 'trialN': 87, 'loaded': True, 'loadedTime': 158237.90000009537, 'positionName': 'RIGHT', 'positionCoords': [973.96, 264], 'bid': 2}]",158236.70000004768,1669837437024,bagel plain,hotdog w must,3.78,2.0,-1.7799999999999998,,bagel plain,745.0999999046326,745,745.4000000953674,True,u,159488.29999995232,1251.5999999046326,1669837438275,1251,HRV,HRV_0197,2022-11-30 19:46:14
88,"[{'imgObject': {}, 'id': 'grilled chicken strips', 'src': '/static/foodstim60/grilled chicken strips.jpg', 'key': 'u', 'origWidth': 410, 'origHeight': 411, 'width': 410, 'height': 411, 'widthPercent': 0.45, 'rescaleHeight': False, 'trialN': 88, 'loaded': True, 'loadedTime': 159489.79999995232, 'positionName': 'LEFT', 'positionCoords': [489.04, 263], 'bid': 8.9}, {'imgObject': {}, 'id': 'kiwi', 'src': '/static/foodstim60/kiwi.jpg', 'key': 'i', 'origWidth': 410, 'origHeight': 410, 'width': 410, 'height': 410, 'widthPercent': 0.45, 'rescaleHeight': False, 'trialN': 88, 'loaded': True, 'loadedTime': 159489.90000009537, 'positionName': 'RIGHT', 'positionCoords': [973.96, 263.5], 'bid': 3.77}]",159488.79999995232,1669837438276,grilled chicken strips,kiwi,8.9,3.77,-5.130000000000001,,grilled chicken strips,652.8000001907349,653,653.1000001430511,True,u,160654.90000009537,1166.1000001430511,1669837439442,1166,HRV,HRV_0197,2022-11-30 19:46:14
89,"[{'imgObject': {}, 'id': 'steak', 'src': '/static/foodstim60/steak.jpg', 'key': 'u', 'origWidth': 410, 'origHeight': 410, 'width': 410, 'height': 410, 'widthPercent': 0.45, 'rescaleHeight': False, 'trialN': 89, 'loaded': True, 'loadedTime': 160656.40000009537, 'positionName': 'LEFT', 'positionCoords': [489.04, 263.5], 'bid': 9.2}, {'imgObject': {}, 'id': 'strawberries', 'src': '/static/foodstim60/strawberries.jpg', 'key': 'i', 'origWidth': 410, 'origHeight': 410, 'width': 410, 'height': 410, 'widthPercent': 0.45, 'rescaleHeight': False, 'trialN': 89, 'loaded': True, 'loadedTime': 160656.90000009537, 'positionName': 'RIGHT', 'positionCoords': [973.96, 263.5], 'bid': 6.17}]",160655.40000009537,1669837439443,steak,strawberries,9.2,6.17,-3.0299999999999994,,steak,590.0999999046326,590,590.2999999523163,True,u,161754.29999995232,1098.8999998569489,1669837440541,1098,HRV,HRV_0197,2022-11-30 19:46:14
90,"[{'imgObject': {}, 'id': 'sushi w_condiments', 'src': '/static/foodstim60/sushi w_condiments.jpg', 'key': 'u', 'origWidth': 410, 'origHeight': 410, 'width': 410, 'height': 410, 'widthPercent': 0.45, 'rescaleHeight': False, 'trialN': 90, 'loaded': True, 'loadedTime': 3118.4000000953674, 'positionName': 'LEFT', 'positionCoords': [511.6, 335], 'bid': 8.86}, {'imgObject': {}, 'id': 'salad w chicken', 'src': '/static/foodstim60/salad w chicken.jpg', 'key': 'i', 'origWidth': 411, 'origHeight': 411, 'width': 411, 'height': 411, 'widthPercent': 0.45, 'rescaleHeight': False, 'trialN': 90, 'loaded': True, 'loadedTime': 2900.4000000953674, 'positionName': 'RIGHT', 'positionCoords': [998.4, 334.5], 'bid': 9.15}]",165586.29999995232,1669837444373,sushi w_condiments,salad w chicken,8.86,9.15,0.2900000000000009,"[{'event': 'fullscreenchange', 'details': 'fullscreenenter', 'performance time': 165587.29999995232, 'date time': 1669837444374}, {'event': 'fullscreenchange', 'details': 'fullscreenexit', 'performance time': 167766, 'date time': 1669837446553}]",sushi w_condiments,2899.5,2900,2899.7000000476837,True,u,168995.60000014305,3409.300000190735,1669837447783,3410,HRV,HRV_0197,2022-11-30 19:46:14
91,"[{'imgObject': {}, 'id': 'grilled chicken strips', 'src': '/static/foodstim60/grilled chicken strips.jpg', 'key': 'u', 'origWidth': 410, 'origHeight': 411, 'width': 410, 'height': 411, 'widthPercent': 0.45, 'rescaleHeight': False, 'trialN': 91, 'loaded': True, 'loadedTime': 168997.29999995232, 'positionName': 'LEFT', 'positionCoords': [489.04, 263], 'bid': 8.9}, {'imgObject': {}, 'id': 'apple slices', 'src': '/static/foodstim60/apple slices.jpg', 'key': 'i', 'origWidth': 409, 'origHeight': 410, 'width': 409, 'height': 410, 'widthPercent': 0.45, 'rescaleHeight': False, 'trialN': 91, 'loaded': True, 'loadedTime': 168997.5, 'positionName': 'RIGHT', 'positionCoords': [973.96, 263.5], 'bid': 5.04}]",168996.10000014305,1669837447783,grilled chicken strips,apple slices,8.9,5.04,-3.8600000000000003,,grilled chicken strips,729.6999998092651,730,730.0999999046326,True,u,170231.29999995232,1235.1999998092651,1669837449019,1236,HRV,HRV_0197,2022-11-30 19:46:14
92,"[{'imgObject': {}, 'id': 'bagel and cc', 'src': '/static/foodstim60/bagel and cc.jpg', 'key': 'u', 'origWidth': 410, 'origHeight': 410, 'width': 410, 'height': 410, 'widthPercent': 0.45, 'rescaleHeight': False, 'trialN': 92, 'loaded': True, 'loadedTime': 170233.29999995232, 'positionName': 'LEFT', 'positionCoords': [489.04, 263.5], 'bid': 3.3200000000000003}, {'imgObject': {}, 'id': 'Tribe humus pita', 'src': '/static/foodstim60/Tribe humus pita.jpg', 'key': 'i', 'origWidth': 411, 'origHeight': 411, 'width': 411, 'height': 411, 'widthPercent': 0.45, 'rescaleHeight': False, 'trialN': 92, 'loaded': True, 'loadedTime': 170233.40000009537, 'positionName': 'RIGHT', 'positionCoords': [973.96, 263], 'bid': 8.32}]",170232.0,1669837449019,bagel and cc,Tribe humus pita,3.3200000000000003,8.32,5.0,,Tribe humus pita,909.7999999523163,910,910.1000001430511,True,i,171647.70000004768,1415.7000000476837,1669837450435,1416,HRV,HRV_0197,2022-11-30 19:46:14
93,"[{'imgObject': {}, 'id': 'rigatoni and sauce', 'src': '/static/foodstim60/rigatoni and sauce.jpg', 'key': 'u', 'origWidth': 410, 'origHeight': 411, 'width': 410, 'height': 411, 'widthPercent': 0.45, 'rescaleHeight': False, 'trialN': 93, 'loaded': True, 'loadedTime': 171649.5, 'positionName': 'LEFT', 'positionCoords': [489.04, 263], 'bid': 2.93}, {'imgObject': {}, 'id': 'mac & cheese', 'src': '/static/foodstim60/mac & cheese.jpg', 'key': 'i', 'origWidth': 410, 'origHeight': 410, 'width': 410, 'height': 410, 'widthPercent': 0.45, 'rescaleHeight': False, 'trialN': 93, 'loaded': True, 'loadedTime': 171649.60000014305, 'positionName': 'RIGHT', 'positionCoords': [973.96, 263.5], 'bid': 3.76}]",171648.29999995232,1669837450435,rigatoni and sauce,mac & cheese,2.93,3.76,0.8299999999999996,,mac & cheese,869.6000001430511,870,869.9000000953674,True,i,173032.70000004768,1384.4000000953674,1669837451820,1385,HRV,HRV_0197,2022-11-30 19:46:14
94,"[{'imgObject': {}, 'id': 'orange slices', 'src': '/static/foodstim60/orange slices.jpg', 'key': 'u', 'origWidth': 409, 'origHeight': 410, 'width': 409, 'height': 410, 'widthPercent': 0.45, 'rescaleHeight': False, 'trialN': 94, 'loaded': True, 'loadedTime': 173034.29999995232, 'positionName': 'LEFT', 'positionCoords': [490.04, 263.5], 'bid': 4.97}, {'imgObject': {}, 'id': 'baked potato', 'src': '/static/foodstim60/baked potato.jpg', 'key': 'i', 'origWidth': 409, 'origHeight': 410, 'width': 409, 'height': 410, 'widthPercent': 0.45, 'rescaleHeight': False, 'trialN': 94, 'loaded': True, 'loadedTime': 173034.79999995232, 'positionName': 'RIGHT', 'positionCoords': [973.96, 263.5], 'bid': 4.95}]",173033.20000004768,1669837451820,orange slices,baked potato,4.97,4.95,-0.019999999999999574,,orange slices,1084.7999999523163,1085,1085.0999999046326,True,u,174633.29999995232,1600.0999999046326,1669837453420,1600,HRV,HRV_0197,2022-11-30 19:46:14
95,"[{'imgObject': {}, 'id': 'avocado', 'src': '/static/foodstim60/avocado.jpg', 'key': 'u', 'origWidth': 409, 'origHeight': 409, 'width': 409, 'height': 409, 'widthPercent': 0.45, 'rescaleHeight': False, 'trialN': 95, 'loaded': True, 'loadedTime': 174634.90000009537, 'positionName': 'LEFT', 'positionCoords': [490.04, 264], 'bid': 7.82}, {'imgObject': {}, 'id': 'turkey sandwich', 'src': '/static/foodstim60/turkey sandwich.jpg', 'key': 'i', 'origWidth': 409, 'origHeight': 409, 'width': 409, 'height': 409, 'widthPercent': 0.45, 'rescaleHeight': False, 'trialN': 95, 'loaded': True, 'loadedTime': 174635.20000004768, 'positionName': 'RIGHT', 'positionCoords': [973.96, 264], 'bid': 7.17}]",174633.70000004768,1669837453421,avocado,turkey sandwich,7.82,7.17,-0.6500000000000004,,turkey sandwich,1164.5,1165,1164.7000000476837,True,i,176304.40000009537,1670.7000000476837,1669837455092,1671,HRV,HRV_0197,2022-11-30 19:46:14
96,"[{'imgObject': {}, 'id': 'baked potato', 'src': '/static/foodstim60/baked potato.jpg', 'key': 'u', 'origWidth': 409, 'origHeight': 410, 'width': 409, 'height': 410, 'widthPercent': 0.45, 'rescaleHeight': False, 'trialN': 96, 'loaded': True, 'loadedTime': 176306.20000004768, 'positionName': 'LEFT', 'positionCoords': [490.04, 263.5], 'bid': 4.95}, {'imgObject': {}, 'id': 'blackbeanswithrice', 'src': '/static/foodstim60/blackbeanswithrice.jpg', 'key': 'i', 'origWidth': 410, 'origHeight': 410, 'width': 410, 'height': 410, 'widthPercent': 0.45, 'rescaleHeight': False, 'trialN': 96, 'loaded': True, 'loadedTime': 176306.40000009537, 'positionName': 'RIGHT', 'positionCoords': [973.96, 263.5], 'bid': 0.08}]",176305.0,1669837455092,baked potato,blackbeanswithrice,4.95,0.08,-4.87,,baked potato,1060.9000000953674,1061,1061.2000000476837,True,u,177872.60000014305,1567.6000001430511,1669837456660,1568,HRV,HRV_0197,2022-11-30 19:46:14
97,"[{'imgObject': {}, 'id': 'burrito', 'src': '/static/foodstim60/burrito.jpg', 'key': 'u', 'origWidth': 410, 'origHeight': 410, 'width': 410, 'height': 410, 'widthPercent': 0.45, 'rescaleHeight': False, 'trialN': 97, 'loaded': True, 'loadedTime': 177874.29999995232, 'positionName': 'LEFT', 'positionCoords': [489.04, 263.5], 'bid': 4.99}, {'imgObject': {}, 'id': 'sushi w_condiments', 'src': '/static/foodstim60/sushi w_condiments.jpg', 'key': 'i', 'origWidth': 410, 'origHeight': 410, 'width': 410, 'height': 410, 'widthPercent': 0.45, 'rescaleHeight': False, 'trialN': 97, 'loaded': True, 'loadedTime': 177874.5, 'positionName': 'RIGHT', 'positionCoords': [973.96, 263.5], 'bid': 8.86}]",177873.20000004768,1669837456660,burrito,sushi w_condiments,4.99,8.86,3.869999999999999,,sushi w_condiments,852.7000000476837,853,853.0,True,i,179238.10000014305,1364.9000000953674,1669837458025,1365,HRV,HRV_0197,2022-11-30 19:46:14
98,"[{'imgObject': {}, 'id': 'raisin bran w milk', 'src': '/static/foodstim60/raisin bran w milk.jpg', 'key': 'u', 'origWidth': 411, 'origHeight': 411, 'width': 411, 'height': 411, 'widthPercent': 0.45, 'rescaleHeight': False, 'trialN': 98, 'loaded': True, 'loadedTime': 179239.90000009537, 'positionName': 'LEFT', 'positionCoords': [488.04, 263], 'bid': 0.67}, {'imgObject': {}, 'id': 'olives', 'src': '/static/foodstim60/olives.jpg', 'key': 'i', 'origWidth': 410, 'origHeight': 410, 'width': 410, 'height': 410, 'widthPercent': 0.45, 'rescaleHeight': False, 'trialN': 98, 'loaded': True, 'loadedTime': 179240.20000004768, 'positionName': 'RIGHT', 'positionCoords': [973.96, 263.5], 'bid': 1.21}]",179238.70000004768,1669837458026,raisin bran w milk,olives,0.67,1.21,0.5399999999999999,,olives,1719.2000000476837,1719,1719.5,True,i,181475.0,2236.2999999523163,1669837460262,2236,HRV,HRV_0197,2022-11-30 19:46:14
99,"[{'imgObject': {}, 'id': 'yogurt no spoon', 'src': '/static/foodstim60/yogurt no spoon.jpg', 'key': 'u', 'origWidth': 411, 'origHeight': 410, 'width': 411, 'height': 410, 'widthPercent': 0.45, 'rescaleHeight': False, 'trialN': 99, 'loaded': True, 'loadedTime': 181476.70000004768, 'positionName': 'LEFT', 'positionCoords': [488.04, 263.5], 'bid': 9.27}, {'imgObject': {}, 'id': 'burger', 'src': '/static/foodstim60/burger.jpg', 'key': 'i', 'origWidth': 409, 'origHeight': 409, 'width': 409, 'height': 409, 'widthPercent': 0.45, 'rescaleHeight': False, 'trialN': 99, 'loaded': True, 'loadedTime': 181477, 'positionName': 'RIGHT', 'positionCoords': [973.96, 264], 'bid': 9.66}]",181475.60000014305,1669837460263,yogurt no spoon,burger,9.27,9.66,0.39000000000000057,,yogurt no spoon,1034.1999998092651,1034,1034.5999999046326,True,u,183023.10000014305,1547.5,1669837461810,1547,HRV,HRV_0197,2022-11-30 19:46:14
100,"[{'imgObject': {}, 'id': 'apple slices', 'src': '/static/foodstim60/apple slices.jpg', 'key': 'u', 'origWidth': 409, 'origHeight': 410, 'width': 409, 'height': 410, 'widthPercent': 0.45, 'rescaleHeight': False, 'trialN': 100, 'loaded': True, 'loadedTime': 183024.70000004768, 'positionName': 'LEFT', 'positionCoords': [490.04, 263.5], 'bid': 5.04}, {'imgObject': {}, 'id': 'Grapes', 'src': '/static/foodstim60/Grapes.jpg', 'key': 'i', 'origWidth': 411, 'origHeight': 411, 'width': 411, 'height': 411, 'widthPercent': 0.45, 'rescaleHeight': False, 'trialN': 100, 'loaded': True, 'loadedTime': 183025, 'positionName': 'RIGHT', 'positionCoords': [973.96, 263], 'bid': 4.2700000000000005}]",183023.70000004768,1669837461811,apple slices,Grapes,5.04,4.2700000000000005,-0.7699999999999996,,apple slices,718.2999999523163,718,718.7000000476837,True,u,184259.20000004768,1235.5,1669837463046,1235,HRV,HRV_0197,2022-11-30 19:46:14
101,"[{'imgObject': {}, 'id': 'strawberries', 'src': '/static/foodstim60/strawberries.jpg', 'key': 'u', 'origWidth': 410, 'origHeight': 410, 'width': 410, 'height': 410, 'widthPercent': 0.45, 'rescaleHeight': False, 'trialN': 101, 'loaded': True, 'loadedTime': 184261.10000014305, 'positionName': 'LEFT', 'positionCoords': [489.04, 263.5], 'bid': 6.17}, {'imgObject': {}, 'id': 'corn cob', 'src': '/static/foodstim60/corn cob.jpg', 'key': 'i', 'origWidth': 411, 'origHeight': 411, 'width': 411, 'height': 411, 'widthPercent': 0.45, 'rescaleHeight': False, 'trialN': 101, 'loaded': True, 'loadedTime': 184261.20000004768, 'positionName': 'RIGHT', 'positionCoords': [973.96, 263], 'bid': 1.67}]",184259.70000004768,1669837463047,strawberries,corn cob,6.17,1.67,-4.5,,strawberries,746.5,747,746.7000000476837,True,u,185511.60000014305,1251.9000000953674,1669837464299,1252,HRV,HRV_0197,2022-11-30 19:46:14
102,"[{'imgObject': {}, 'id': 'burger', 'src': '/static/foodstim60/burger.jpg', 'key': 'u', 'origWidth': 409, 'origHeight': 409, 'width': 409, 'height': 409, 'widthPercent': 0.45, 'rescaleHeight': False, 'trialN': 102, 'loaded': True, 'loadedTime': 185513.5, 'positionName': 'LEFT', 'positionCoords': [490.04, 264], 'bid': 9.66}, {'imgObject': {}, 'id': 'sushi w_condiments', 'src': '/static/foodstim60/sushi w_condiments.jpg', 'key': 'i', 'origWidth': 410, 'origHeight': 410, 'width': 410, 'height': 410, 'widthPercent': 0.45, 'rescaleHeight': False, 'trialN': 102, 'loaded': True, 'loadedTime': 185513.70000004768, 'positionName': 'RIGHT', 'positionCoords': [973.96, 263.5], 'bid': 8.86}]",185512.10000014305,1669837464299,burger,sushi w_condiments,9.66,8.86,-0.8000000000000007,,burger,630.0999999046326,631,630.3999998569489,True,u,186661.29999995232,1149.1999998092651,1669837465448,1149,HRV,HRV_0197,2022-11-30 19:46:14
103,"[{'imgObject': {}, 'id': 'cheerios', 'src': '/static/foodstim60/cheerios.jpg', 'key': 'u', 'origWidth': 409, 'origHeight': 410, 'width': 409, 'height': 410, 'widthPercent': 0.45, 'rescaleHeight': False, 'trialN': 103, 'loaded': True, 'loadedTime': 186663.10000014305, 'positionName': 'LEFT', 'positionCoords': [490.04, 263.5], 'bid': 0.61}, {'imgObject': {}, 'id': 'veggieswithdip', 'src': '/static/foodstim60/veggieswithdip.jpg', 'key': 'i', 'origWidth': 409, 'origHeight': 409, 'width': 409, 'height': 409, 'widthPercent': 0.45, 'rescaleHeight': False, 'trialN': 103, 'loaded': True, 'loadedTime': 186663.5, 'positionName': 'RIGHT', 'positionCoords': [973.96, 264], 'bid': 5.61}]",186661.90000009537,1669837465449,cheerios,veggieswithdip,0.61,5.61,5.0,,veggieswithdip,847.7000000476837,848,848.0,True,i,188028.90000009537,1367.0,1669837466816,1367,HRV,HRV_0197,2022-11-30 19:46:14
104,"[{'imgObject': {}, 'id': 'salmon', 'src': '/static/foodstim60/salmon.jpg', 'key': 'u', 'origWidth': 410, 'origHeight': 409, 'width': 410, 'height': 409, 'widthPercent': 0.45, 'rescaleHeight': False, 'trialN': 104, 'loaded': True, 'loadedTime': 188030.70000004768, 'positionName': 'LEFT', 'positionCoords': [489.04, 264], 'bid': 9.21}, {'imgObject': {}, 'id': 'steak', 'src': '/static/foodstim60/steak.jpg', 'key': 'i', 'origWidth': 410, 'origHeight': 410, 'width': 410, 'height': 410, 'widthPercent': 0.45, 'rescaleHeight': False, 'trialN': 104, 'loaded': True, 'loadedTime': 188031, 'positionName': 'RIGHT', 'positionCoords': [973.96, 263.5], 'bid': 9.2}]",188029.5,1669837466817,salmon,steak,9.21,9.2,-0.010000000000001563,,steak,600.2999999523163,600,600.7000000476837,True,i,189144.10000014305,1114.6000001430511,1669837467931,1114,HRV,HRV_0197,2022-11-30 19:46:14
105,"[{'imgObject': {}, 'id': 'turkey sandwich', 'src': '/static/foodstim60/turkey sandwich.jpg', 'key': 'u', 'origWidth': 409, 'origHeight': 409, 'width': 409, 'height': 409, 'widthPercent': 0.45, 'rescaleHeight': False, 'trialN': 105, 'loaded': True, 'loadedTime': 189145.90000009537, 'positionName': 'LEFT', 'positionCoords': [490.04, 264], 'bid': 7.17}, {'imgObject': {}, 'id': 'burger', 'src': '/static/foodstim60/burger.jpg', 'key': 'i', 'origWidth': 409, 'origHeight': 409, 'width': 409, 'height': 409, 'widthPercent': 0.45, 'rescaleHeight': False, 'trialN': 105, 'loaded': True, 'loadedTime': 189146.10000014305, 'positionName': 'RIGHT', 'positionCoords': [973.96, 264], 'bid': 9.66}]",189144.70000004768,1669837467932,turkey sandwich,burger,7.17,9.66,2.49,,burger,685.2000000476837,685,685.5,True,i,190335.70000004768,1191.0,1669837469123,1191,HRV,HRV_0197,2022-11-30 19:46:14
106,"[{'imgObject': {}, 'id': 'bagel and cc', 'src': '/static/foodstim60/bagel and cc.jpg', 'key': 'u', 'origWidth': 410, 'origHeight': 410, 'width': 410, 'height': 410, 'widthPercent': 0.45, 'rescaleHeight': False, 'trialN': 106, 'loaded': True, 'loadedTime': 190337.5, 'positionName': 'LEFT', 'positionCoords': [489.04, 263.5], 'bid': 3.3200000000000003}, {'imgObject': {}, 'id': 'cantaloupe', 'src': '/static/foodstim60/cantaloupe.jpg', 'key': 'i', 'origWidth': 409, 'origHeight': 409, 'width': 409, 'height': 409, 'widthPercent': 0.45, 'rescaleHeight': False, 'trialN': 106, 'loaded': True, 'loadedTime': 190337.60000014305, 'positionName': 'RIGHT', 'positionCoords': [973.96, 264], 'bid': 0.14}]",190336.29999995232,1669837469123,bagel and cc,cantaloupe,3.3200000000000003,0.14,-3.18,,bagel and cc,1285.6000001430511,1286,1285.8000001907349,True,u,192129.90000009537,1793.6000001430511,1669837470917,1794,HRV,HRV_0197,2022-11-30 19:46:14
107,"[{'imgObject': {}, 'id': 'Tribe humus pita', 'src': '/static/foodstim60/Tribe humus pita.jpg', 'key': 'u', 'origWidth': 411, 'origHeight': 411, 'width': 411, 'height': 411, 'widthPercent': 0.45, 'rescaleHeight': False, 'trialN': 107, 'loaded': True, 'loadedTime': 192131.60000014305, 'positionName': 'LEFT', 'positionCoords': [488.04, 263], 'bid': 8.32}, {'imgObject': {}, 'id': 'grilled chicken strips', 'src': '/static/foodstim60/grilled chicken strips.jpg', 'key': 'i', 'origWidth': 410, 'origHeight': 411, 'width': 410, 'height': 411, 'widthPercent': 0.45, 'rescaleHeight': False, 'trialN': 107, 'loaded': True, 'loadedTime': 192131.79999995232, 'positionName': 'RIGHT', 'positionCoords': [973.96, 263], 'bid': 8.9}]",192130.5,1669837470918,Tribe humus pita,grilled chicken strips,8.32,8.9,0.5800000000000001,,Tribe humus pita,627.2999999523163,627,627.5,True,u,193265.5,1135.0,1669837472053,1135,HRV,HRV_0197,2022-11-30 19:46:14
