trialN,stimuli,trialStartTime,trialStartTime_UNIX,stimulus1,stimulus2,stimulus1Bid,stimulus2Bid,delta,selected,rt,rt_UNIX,rt_perfnow,receivedResponse,rsp,trialEndTime,trialDuration,trialEndTime_UNIX,trialDuration_UNIX,exp,subjectId,date
0,"[{'imgObject': {}, 'id': 'shreddedwheatwithmilk', 'src': '/static/foodstim60/shreddedwheatwithmilk.jpg', 'key': 'u', 'origWidth': 410, 'origHeight': 410, 'width': 410, 'height': 410, 'widthPercent': 0.45, 'rescaleHeight': False, 'trialN': 0, 'loaded': True, 'loadedTime': 4158.100000023842, 'positionName': 'LEFT', 'positionCoords': [327.28, 227], 'bid': 5.05}, {'imgObject': {}, 'id': 'mac & cheese', 'src': '/static/foodstim60/mac & cheese.jpg', 'key': 'i', 'origWidth': 410, 'origHeight': 410, 'width': 410, 'height': 410, 'widthPercent': 0.45, 'rescaleHeight': False, 'trialN': 0, 'loaded': True, 'loadedTime': 4264.299999952316, 'positionName': 'RIGHT', 'positionCoords': [798.72, 227], 'bid': 5.05}]",4653.399999976158,1669835902634,shreddedwheatwithmilk,mac & cheese,5.05,5.05,0.0,mac & cheese,1273.7999999523163,1275,1274.5,True,i,6433.199999928474,1779.7999999523163,1669835904414,1780,HRV,HRV_0248,2022-11-30 19:23:11
1,"[{'imgObject': {}, 'id': 'hotdog w must', 'src': '/static/foodstim60/hotdog w must.jpg', 'key': 'u', 'origWidth': 409, 'origHeight': 409, 'width': 409, 'height': 409, 'widthPercent': 0.45, 'rescaleHeight': False, 'trialN': 1, 'loaded': True, 'loadedTime': 4264.699999928474, 'positionName': 'LEFT', 'positionCoords': [328.28, 227.5], 'bid': 8.8}, {'imgObject': {}, 'id': 'chickenfingers', 'src': '/static/foodstim60/chickenfingers.jpg', 'key': 'i', 'origWidth': 410, 'origHeight': 410, 'width': 410, 'height': 410, 'widthPercent': 0.45, 'rescaleHeight': False, 'trialN': 1, 'loaded': True, 'loadedTime': 4290.299999952316, 'positionName': 'RIGHT', 'positionCoords': [798.72, 227], 'bid': 7.12}]",6433.5,1669835904415,hotdog w must,chickenfingers,8.8,7.12,-1.6800000000000006,hotdog w must,940.0,940,940.2999999523163,True,u,7881.600000023842,1448.1000000238419,1669835905863,1448,HRV,HRV_0248,2022-11-30 19:23:11
2,"[{'imgObject': {}, 'id': 'eggsalad', 'src': '/static/foodstim60/eggsalad.jpg', 'key': 'u', 'origWidth': 410, 'origHeight': 409, 'width': 410, 'height': 409, 'widthPercent': 0.45, 'rescaleHeight': False, 'trialN': 2, 'loaded': True, 'loadedTime': 4303.699999928474, 'positionName': 'LEFT', 'positionCoords': [327.28, 227.5], 'bid': 4.94}, {'imgObject': {}, 'id': 'edamame', 'src': '/static/foodstim60/edamame.jpg', 'key': 'i', 'origWidth': 409, 'origHeight': 410, 'width': 409, 'height': 410, 'widthPercent': 0.45, 'rescaleHeight': False, 'trialN': 2, 'loaded': True, 'loadedTime': 4338.600000023842, 'positionName': 'RIGHT', 'positionCoords': [798.72, 227], 'bid': 5.0600000000000005}]",7881.899999976158,1669835905863,eggsalad,edamame,4.94,5.0600000000000005,0.1200000000000001,edamame,1347.5,1348,1347.8999999761581,True,i,9744.600000023842,1862.7000000476837,1669835907726,1863,HRV,HRV_0248,2022-11-30 19:23:11
3,"[{'imgObject': {}, 'id': 'cantaloupe', 'src': '/static/foodstim60/cantaloupe.jpg', 'key': 'u', 'origWidth': 409, 'origHeight': 409, 'width': 409, 'height': 409, 'widthPercent': 0.45, 'rescaleHeight': False, 'trialN': 3, 'loaded': True, 'loadedTime': 4350.600000023842, 'positionName': 'LEFT', 'positionCoords': [328.28, 227.5], 'bid': 5.05}, {'imgObject': {}, 'id': 'shreddedwheatwithmilk', 'src': '/static/foodstim60/shreddedwheatwithmilk.jpg', 'key': 'i', 'origWidth': 410, 'origHeight': 410, 'width': 410, 'height': 410, 'widthPercent': 0.45, 'rescaleHeight': False, 'trialN': 3, 'loaded': True, 'loadedTime': 4158.399999976158, 'positionName': 'RIGHT', 'positionCoords': [798.72, 227], 'bid': 5.05}]",9744.899999976158,1669835907726,cantaloupe,shreddedwheatwithmilk,5.05,5.05,0.0,shreddedwheatwithmilk,948.2999999523163,949,948.7999999523163,True,i,11211.799999952316,1466.8999999761581,1669835909193,1467,HRV,HRV_0248,2022-11-30 19:23:11
4,"[{'imgObject': {}, 'id': 'raspberries', 'src': '/static/foodstim60/raspberries.jpg', 'key': 'u', 'origWidth': 411, 'origHeight': 411, 'width': 411, 'height': 411, 'widthPercent': 0.45, 'rescaleHeight': False, 'trialN': 4, 'loaded': True, 'loadedTime': 4351.799999952316, 'positionName': 'LEFT', 'positionCoords': [326.28, 226.5], 'bid': 5}, {'imgObject': {}, 'id': 'sushi w_condiments', 'src': '/static/foodstim60/sushi w_condiments.jpg', 'key': 'i', 'origWidth': 410, 'origHeight': 410, 'width': 410, 'height': 410, 'widthPercent': 0.45, 'rescaleHeight': False, 'trialN': 4, 'loaded': True, 'loadedTime': 4366.5, 'positionName': 'RIGHT', 'positionCoords': [798.72, 227], 'bid': 4.94}]",11212.100000023842,1669835909193,raspberries,sushi w_condiments,5.0,4.94,-0.05999999999999961,raspberries,857.0999999046326,858,857.5,True,u,12575.799999952316,1363.6999999284744,1669835910557,1364,HRV,HRV_0248,2022-11-30 19:23:11
5,"[{'imgObject': {}, 'id': 'turkeysandwich', 'src': '/static/foodstim60/turkeysandwich.jpg', 'key': 'u', 'origWidth': 409, 'origHeight': 409, 'width': 409, 'height': 409, 'widthPercent': 0.45, 'rescaleHeight': False, 'trialN': 5, 'loaded': True, 'loadedTime': 4380.199999928474, 'positionName': 'LEFT', 'positionCoords': [328.28, 227.5], 'bid': 8.16}, {'imgObject': {}, 'id': 'ice cream sundae 002', 'src': '/static/foodstim60/ice cream sundae 002.jpg', 'key': 'i', 'origWidth': 409, 'origHeight': 409, 'width': 409, 'height': 409, 'widthPercent': 0.45, 'rescaleHeight': False, 'trialN': 5, 'loaded': True, 'loadedTime': 4395.699999928474, 'positionName': 'RIGHT', 'positionCoords': [798.72, 227.5], 'bid': 5}]",12576.199999928474,1669835910557,turkeysandwich,ice cream sundae 002,8.16,5.0,-3.16,turkeysandwich,708.6000000238419,709,708.8000000715256,True,u,13806.299999952316,1230.1000000238419,1669835911787,1230,HRV,HRV_0248,2022-11-30 19:23:11
6,"[{'imgObject': {}, 'id': 'chickenfingers', 'src': '/static/foodstim60/chickenfingers.jpg', 'key': 'u', 'origWidth': 410, 'origHeight': 410, 'width': 410, 'height': 410, 'widthPercent': 0.45, 'rescaleHeight': False, 'trialN': 6, 'loaded': True, 'loadedTime': 4289.699999928474, 'positionName': 'LEFT', 'positionCoords': [327.28, 227], 'bid': 7.12}, {'imgObject': {}, 'id': 'lox', 'src': '/static/foodstim60/lox.jpg', 'key': 'i', 'origWidth': 410, 'origHeight': 411, 'width': 410, 'height': 411, 'widthPercent': 0.45, 'rescaleHeight': False, 'trialN': 6, 'loaded': True, 'loadedTime': 4397, 'positionName': 'RIGHT', 'positionCoords': [798.72, 226.5], 'bid': 7.13}]",13806.699999928474,1669835911788,chickenfingers,lox,7.12,7.13,0.009999999999999787,chickenfingers,675.0,675,675.3000000715256,True,u,14990.399999976158,1183.7000000476837,1669835912971,1183,HRV,HRV_0248,2022-11-30 19:23:11
7,"[{'imgObject': {}, 'id': 'baked potato', 'src': '/static/foodstim60/baked potato.jpg', 'key': 'u', 'origWidth': 409, 'origHeight': 410, 'width': 409, 'height': 410, 'widthPercent': 0.45, 'rescaleHeight': False, 'trialN': 7, 'loaded': True, 'loadedTime': 4434.600000023842, 'positionName': 'LEFT', 'positionCoords': [328.28, 227], 'bid': 8.5}, {'imgObject': {}, 'id': 'steak', 'src': '/static/foodstim60/steak.jpg', 'key': 'i', 'origWidth': 410, 'origHeight': 410, 'width': 410, 'height': 410, 'widthPercent': 0.45, 'rescaleHeight': False, 'trialN': 7, 'loaded': True, 'loadedTime': 4461.899999976158, 'positionName': 'RIGHT', 'positionCoords': [798.72, 227], 'bid': 7.52}]",14990.600000023842,1669835912972,baked potato,steak,8.5,7.52,-0.9800000000000004,baked potato,785.0,785,785.1999999284744,True,u,16289.600000023842,1299.0,1669835914271,1299,HRV,HRV_0248,2022-11-30 19:23:11
8,"[{'imgObject': {}, 'id': 'mac & cheese', 'src': '/static/foodstim60/mac & cheese.jpg', 'key': 'u', 'origWidth': 410, 'origHeight': 410, 'width': 410, 'height': 410, 'widthPercent': 0.45, 'rescaleHeight': False, 'trialN': 8, 'loaded': True, 'loadedTime': 4262.5, 'positionName': 'LEFT', 'positionCoords': [327.28, 227], 'bid': 5.05}, {'imgObject': {}, 'id': 'apple slices', 'src': '/static/foodstim60/apple slices.jpg', 'key': 'i', 'origWidth': 409, 'origHeight': 410, 'width': 409, 'height': 410, 'widthPercent': 0.45, 'rescaleHeight': False, 'trialN': 8, 'loaded': True, 'loadedTime': 4473.199999928474, 'positionName': 'RIGHT', 'positionCoords': [798.72, 227], 'bid': 5.05}]",16289.899999976158,1669835914271,mac & cheese,apple slices,5.05,5.05,0.0,mac & cheese,1135.7000000476837,1136,1136.1000000238419,True,u,17939.600000023842,1649.7000000476837,1669835915921,1650,HRV,HRV_0248,2022-11-30 19:23:11
9,"[{'imgObject': {}, 'id': 'burrito', 'src': '/static/foodstim60/burrito.jpg', 'key': 'u', 'origWidth': 410, 'origHeight': 410, 'width': 410, 'height': 410, 'widthPercent': 0.45, 'rescaleHeight': False, 'trialN': 9, 'loaded': True, 'loadedTime': 4491.399999976158, 'positionName': 'LEFT', 'positionCoords': [327.28, 227], 'bid': 4.98}, {'imgObject': {}, 'id': 'popsicles', 'src': '/static/foodstim60/popsicles.jpg', 'key': 'i', 'origWidth': 410, 'origHeight': 410, 'width': 410, 'height': 410, 'widthPercent': 0.45, 'rescaleHeight': False, 'trialN': 9, 'loaded': True, 'loadedTime': 4652.799999952316, 'positionName': 'RIGHT', 'positionCoords': [798.72, 227], 'bid': 4.97}]",17939.899999976158,1669835915921,burrito,popsicles,4.98,4.97,-0.010000000000000675,burrito,959.7999999523163,960,960.2999999523163,True,u,19405.199999928474,1465.2999999523163,1669835917386,1465,HRV,HRV_0248,2022-11-30 19:23:11
10,"[{'imgObject': {}, 'id': 'omelette', 'src': '/static/foodstim60/omelette.jpg', 'key': 'u', 'origWidth': 410, 'origHeight': 409, 'width': 410, 'height': 409, 'widthPercent': 0.45, 'rescaleHeight': False, 'trialN': 10, 'loaded': True, 'loadedTime': 4501.199999928474, 'positionName': 'LEFT', 'positionCoords': [327.28, 227.5], 'bid': 5.07}, {'imgObject': {}, 'id': 'tacos', 'src': '/static/foodstim60/tacos.jpg', 'key': 'i', 'origWidth': 411, 'origHeight': 411, 'width': 411, 'height': 411, 'widthPercent': 0.45, 'rescaleHeight': False, 'trialN': 10, 'loaded': True, 'loadedTime': 4515.5, 'positionName': 'RIGHT', 'positionCoords': [798.72, 226.5], 'bid': 8.48}]",19405.600000023842,1669835917387,omelette,tacos,5.07,8.48,3.41,tacos,924.5999999046326,925,925.0999999046326,True,i,20836.199999928474,1430.5999999046326,1669835918817,1430,HRV,HRV_0248,2022-11-30 19:23:11
11,"[{'imgObject': {}, 'id': 'fried eggs', 'src': '/static/foodstim60/fried eggs.jpg', 'key': 'u', 'origWidth': 410, 'origHeight': 410, 'width': 410, 'height': 410, 'widthPercent': 0.45, 'rescaleHeight': False, 'trialN': 11, 'loaded': True, 'loadedTime': 4528.199999928474, 'positionName': 'LEFT', 'positionCoords': [327.28, 227], 'bid': 9.9}, {'imgObject': {}, 'id': 'cherry tomato', 'src': '/static/foodstim60/cherry tomato.jpg', 'key': 'i', 'origWidth': 410, 'origHeight': 410, 'width': 410, 'height': 410, 'widthPercent': 0.45, 'rescaleHeight': False, 'trialN': 11, 'loaded': True, 'loadedTime': 4540.600000023842, 'positionName': 'RIGHT', 'positionCoords': [798.72, 227], 'bid': 5.88}]",20836.5,1669835918818,fried eggs,cherry tomato,9.9,5.88,-4.0200000000000005,fried eggs,658.1999999284744,658,658.6999999284744,True,u,22001.699999928474,1165.1999999284744,1669835919983,1165,HRV,HRV_0248,2022-11-30 19:23:11
12,"[{'imgObject': {}, 'id': 'mango', 'src': '/static/foodstim60/mango.jpg', 'key': 'u', 'origWidth': 411, 'origHeight': 411, 'width': 411, 'height': 411, 'widthPercent': 0.45, 'rescaleHeight': False, 'trialN': 12, 'loaded': True, 'loadedTime': 4553.199999928474, 'positionName': 'LEFT', 'positionCoords': [326.28, 226.5], 'bid': 4.98}, {'imgObject': {}, 'id': 'bagel and cc', 'src': '/static/foodstim60/bagel and cc.jpg', 'key': 'i', 'origWidth': 410, 'origHeight': 410, 'width': 410, 'height': 410, 'widthPercent': 0.45, 'rescaleHeight': False, 'trialN': 12, 'loaded': True, 'loadedTime': 4565.199999928474, 'positionName': 'RIGHT', 'positionCoords': [798.72, 227], 'bid': 1.52}]",22001.899999976158,1669835919983,mango,bagel and cc,4.98,1.52,-3.4600000000000004,mango,1233.0,1233,1233.5,True,u,23751.799999952316,1749.8999999761581,1669835921733,1750,HRV,HRV_0248,2022-11-30 19:23:11
13,"[{'imgObject': {}, 'id': 'corn cob', 'src': '/static/foodstim60/corn cob.jpg', 'key': 'u', 'origWidth': 411, 'origHeight': 411, 'width': 411, 'height': 411, 'widthPercent': 0.45, 'rescaleHeight': False, 'trialN': 13, 'loaded': True, 'loadedTime': 4567.5, 'positionName': 'LEFT', 'positionCoords': [326.28, 226.5], 'bid': 1.82}, {'imgObject': {}, 'id': 'orange slices', 'src': '/static/foodstim60/orange slices.jpg', 'key': 'i', 'origWidth': 409, 'origHeight': 410, 'width': 409, 'height': 410, 'widthPercent': 0.45, 'rescaleHeight': False, 'trialN': 13, 'loaded': True, 'loadedTime': 4580.799999952316, 'positionName': 'RIGHT', 'positionCoords': [798.72, 227], 'bid': 4.97}]",23752.100000023842,1669835921733,corn cob,orange slices,1.82,4.97,3.1499999999999995,orange slices,884.3999999761581,885,884.7999999523163,True,i,25149.899999976158,1397.7999999523163,1669835923131,1398,HRV,HRV_0248,2022-11-30 19:23:11
14,"[{'imgObject': {}, 'id': 'cocktailshrimp', 'src': '/static/foodstim60/cocktailshrimp.jpg', 'key': 'u', 'origWidth': 410, 'origHeight': 410, 'width': 410, 'height': 410, 'widthPercent': 0.45, 'rescaleHeight': False, 'trialN': 14, 'loaded': True, 'loadedTime': 4585.799999952316, 'positionName': 'LEFT', 'positionCoords': [327.28, 227], 'bid': 8.08}, {'imgObject': {}, 'id': 'salmon', 'src': '/static/foodstim60/salmon.jpg', 'key': 'i', 'origWidth': 410, 'origHeight': 409, 'width': 410, 'height': 409, 'widthPercent': 0.45, 'rescaleHeight': False, 'trialN': 14, 'loaded': True, 'loadedTime': 4599.699999928474, 'positionName': 'RIGHT', 'positionCoords': [798.72, 227.5], 'bid': 7.85}]",25150.299999952316,1669835923131,cocktailshrimp,salmon,8.08,7.85,-0.23000000000000043,cocktailshrimp,1534.6000000238419,1535,1534.8999999761581,True,u,27213.600000023842,2063.3000000715256,1669835925195,2064,HRV,HRV_0248,2022-11-30 19:23:11
15,"[{'imgObject': {}, 'id': 'yogurt no spoon', 'src': '/static/foodstim60/yogurt no spoon.jpg', 'key': 'u', 'origWidth': 411, 'origHeight': 410, 'width': 411, 'height': 410, 'widthPercent': 0.45, 'rescaleHeight': False, 'trialN': 15, 'loaded': True, 'loadedTime': 4600.399999976158, 'positionName': 'LEFT', 'positionCoords': [326.28, 227], 'bid': 5.03}, {'imgObject': {}, 'id': 'chickenfingers', 'src': '/static/foodstim60/chickenfingers.jpg', 'key': 'i', 'origWidth': 410, 'origHeight': 410, 'width': 410, 'height': 410, 'widthPercent': 0.45, 'rescaleHeight': False, 'trialN': 15, 'loaded': True, 'loadedTime': 4290.399999976158, 'positionName': 'RIGHT', 'positionCoords': [798.72, 227], 'bid': 7.12}]",27213.899999976158,1669835925195,yogurt no spoon,chickenfingers,5.03,7.12,2.09,chickenfingers,1090.5,1091,1090.8999999761581,True,i,28813.799999952316,1599.8999999761581,1669835926795,1600,HRV,HRV_0248,2022-11-30 19:23:11
16,"[{'imgObject': {}, 'id': 'seaweed', 'src': '/static/foodstim60/seaweed.jpg', 'key': 'u', 'origWidth': 410, 'origHeight': 410, 'width': 410, 'height': 410, 'widthPercent': 0.45, 'rescaleHeight': False, 'trialN': 16, 'loaded': True, 'loadedTime': 4603.399999976158, 'positionName': 'LEFT', 'positionCoords': [327.28, 227], 'bid': 4.96}, {'imgObject': {}, 'id': 'blueberries', 'src': '/static/foodstim60/blueberries.jpg', 'key': 'i', 'origWidth': 411, 'origHeight': 411, 'width': 411, 'height': 411, 'widthPercent': 0.45, 'rescaleHeight': False, 'trialN': 16, 'loaded': True, 'loadedTime': 4604.899999976158, 'positionName': 'RIGHT', 'positionCoords': [798.72, 226.5], 'bid': 5}]",28814.100000023842,1669835926795,seaweed,blueberries,4.96,5.0,0.040000000000000036,blueberries,1004.7999999523163,1005,1005.0999999046326,True,i,30329.0,1514.8999999761581,1669835928310,1515,HRV,HRV_0248,2022-11-30 19:23:11
17,"[{'imgObject': {}, 'id': 'raspberries', 'src': '/static/foodstim60/raspberries.jpg', 'key': 'u', 'origWidth': 411, 'origHeight': 411, 'width': 411, 'height': 411, 'widthPercent': 0.45, 'rescaleHeight': False, 'trialN': 17, 'loaded': True, 'loadedTime': 4364.699999928474, 'positionName': 'LEFT', 'positionCoords': [326.28, 226.5], 'bid': 5}, {'imgObject': {}, 'id': 'mango', 'src': '/static/foodstim60/mango.jpg', 'key': 'i', 'origWidth': 411, 'origHeight': 411, 'width': 411, 'height': 411, 'widthPercent': 0.45, 'rescaleHeight': False, 'trialN': 17, 'loaded': True, 'loadedTime': 4553, 'positionName': 'RIGHT', 'positionCoords': [798.72, 226.5], 'bid': 4.98}]",30329.299999952316,1669835928310,raspberries,mango,5.0,4.98,-0.019999999999999574,raspberries,1133.8999999761581,1135,1134.3999999761581,True,u,31977.600000023842,1648.3000000715256,1669835929959,1649,HRV,HRV_0248,2022-11-30 19:23:11
18,"[{'imgObject': {}, 'id': 'cherry tomato', 'src': '/static/foodstim60/cherry tomato.jpg', 'key': 'u', 'origWidth': 410, 'origHeight': 410, 'width': 410, 'height': 410, 'widthPercent': 0.45, 'rescaleHeight': False, 'trialN': 18, 'loaded': True, 'loadedTime': 4541.799999952316, 'positionName': 'LEFT', 'positionCoords': [327.28, 227], 'bid': 5.88}, {'imgObject': {}, 'id': 'banana', 'src': '/static/foodstim60/banana.jpg', 'key': 'i', 'origWidth': 410, 'origHeight': 410, 'width': 410, 'height': 410, 'widthPercent': 0.45, 'rescaleHeight': False, 'trialN': 18, 'loaded': True, 'loadedTime': 4607.299999952316, 'positionName': 'RIGHT', 'positionCoords': [798.72, 227], 'bid': 4.97}]",31978.199999928474,1669835929959,cherry tomato,banana,5.88,4.97,-0.9100000000000001,cherry tomato,715.4000000953674,716,715.8000000715256,True,u,33210.5,1232.3000000715256,1669835931192,1233,HRV,HRV_0248,2022-11-30 19:23:11
19,"[{'imgObject': {}, 'id': 'Tribe humus pita', 'src': '/static/foodstim60/Tribe humus pita.jpg', 'key': 'u', 'origWidth': 411, 'origHeight': 411, 'width': 411, 'height': 411, 'widthPercent': 0.45, 'rescaleHeight': False, 'trialN': 19, 'loaded': True, 'loadedTime': 4621, 'positionName': 'LEFT', 'positionCoords': [326.28, 226.5], 'bid': 5.0200000000000005}, {'imgObject': {}, 'id': 'kiwi', 'src': '/static/foodstim60/kiwi.jpg', 'key': 'i', 'origWidth': 410, 'origHeight': 410, 'width': 410, 'height': 410, 'widthPercent': 0.45, 'rescaleHeight': False, 'trialN': 19, 'loaded': True, 'loadedTime': 4189, 'positionName': 'RIGHT', 'positionCoords': [798.72, 227], 'bid': 5.0200000000000005}]",33210.699999928474,1669835931192,Tribe humus pita,kiwi,5.0200000000000005,5.0200000000000005,0.0,kiwi,887.5,888,887.9000000953674,True,i,34608.799999952316,1398.1000000238419,1669835932590,1398,HRV,HRV_0248,2022-11-30 19:23:11
20,"[{'imgObject': {}, 'id': 'tacos', 'src': '/static/foodstim60/tacos.jpg', 'key': 'u', 'origWidth': 411, 'origHeight': 411, 'width': 411, 'height': 411, 'widthPercent': 0.45, 'rescaleHeight': False, 'trialN': 20, 'loaded': True, 'loadedTime': 4513.600000023842, 'positionName': 'LEFT', 'positionCoords': [326.28, 226.5], 'bid': 8.48}, {'imgObject': {}, 'id': 'burger', 'src': '/static/foodstim60/burger.jpg', 'key': 'i', 'origWidth': 409, 'origHeight': 409, 'width': 409, 'height': 409, 'widthPercent': 0.45, 'rescaleHeight': False, 'trialN': 20, 'loaded': True, 'loadedTime': 4191.5, 'positionName': 'RIGHT', 'positionCoords': [798.72, 227.5], 'bid': 8.64}]",34609.0,1669835932590,tacos,burger,8.48,8.64,0.16000000000000014,burger,1032.6000000238419,1033,1033.1000000238419,True,i,36157.299999952316,1548.2999999523163,1669835934138,1548,HRV,HRV_0248,2022-11-30 19:23:11
21,"[{'imgObject': {}, 'id': 'chicken nuggets2', 'src': '/static/foodstim60/chicken nuggets2.jpg', 'key': 'u', 'origWidth': 410, 'origHeight': 409, 'width': 410, 'height': 409, 'widthPercent': 0.45, 'rescaleHeight': False, 'trialN': 21, 'loaded': True, 'loadedTime': 4216.199999928474, 'positionName': 'LEFT', 'positionCoords': [327.28, 227.5], 'bid': 5.48}, {'imgObject': {}, 'id': 'tacos', 'src': '/static/foodstim60/tacos.jpg', 'key': 'i', 'origWidth': 411, 'origHeight': 411, 'width': 411, 'height': 411, 'widthPercent': 0.45, 'rescaleHeight': False, 'trialN': 21, 'loaded': True, 'loadedTime': 4515.100000023842, 'positionName': 'RIGHT', 'positionCoords': [798.72, 226.5], 'bid': 8.48}]",36157.5,1669835934139,chicken nuggets2,tacos,5.48,8.48,3.0,tacos,1004.3999999761581,1004,1004.6999999284744,True,i,37673.39999997616,1515.8999999761581,1669835935654,1515,HRV,HRV_0248,2022-11-30 19:23:11
22,"[{'imgObject': {}, 'id': 'lox', 'src': '/static/foodstim60/lox.jpg', 'key': 'u', 'origWidth': 410, 'origHeight': 411, 'width': 410, 'height': 411, 'widthPercent': 0.45, 'rescaleHeight': False, 'trialN': 22, 'loaded': True, 'loadedTime': 4397.5, 'positionName': 'LEFT', 'positionCoords': [327.28, 226.5], 'bid': 7.13}, {'imgObject': {}, 'id': 'sweetpotato', 'src': '/static/foodstim60/sweetpotato.jpg', 'key': 'i', 'origWidth': 410, 'origHeight': 410, 'width': 410, 'height': 410, 'widthPercent': 0.45, 'rescaleHeight': False, 'trialN': 22, 'loaded': True, 'loadedTime': 4228.600000023842, 'positionName': 'RIGHT', 'positionCoords': [798.72, 227], 'bid': 5.13}]",37673.60000002384,1669835935655,lox,sweetpotato,7.13,5.13,-2.0,lox,966.3999999761581,966,966.7999999523163,True,u,39155.39999997616,1481.7999999523163,1669835937136,1481,HRV,HRV_0248,2022-11-30 19:23:11
23,"[{'imgObject': {}, 'id': 'chicken nuggets2', 'src': '/static/foodstim60/chicken nuggets2.jpg', 'key': 'u', 'origWidth': 410, 'origHeight': 409, 'width': 410, 'height': 409, 'widthPercent': 0.45, 'rescaleHeight': False, 'trialN': 23, 'loaded': True, 'loadedTime': 4204.699999928474, 'positionName': 'LEFT', 'positionCoords': [327.28, 227.5], 'bid': 5.48}, {'imgObject': {}, 'id': 'blackbeanswithrice', 'src': '/static/foodstim60/blackbeanswithrice.jpg', 'key': 'i', 'origWidth': 410, 'origHeight': 410, 'width': 410, 'height': 410, 'widthPercent': 0.45, 'rescaleHeight': False, 'trialN': 23, 'loaded': True, 'loadedTime': 4228.199999928474, 'positionName': 'RIGHT', 'positionCoords': [798.72, 227], 'bid': 5.33}]",39155.60000002384,1669835937137,chicken nuggets2,blackbeanswithrice,5.48,5.33,-0.15000000000000036,chicken nuggets2,990.6999999284744,991,991.0999999046326,True,u,40655.699999928474,1500.0999999046326,1669835938637,1500,HRV,HRV_0248,2022-11-30 19:23:11
24,"[{'imgObject': {}, 'id': 'ice cream sundae 002', 'src': '/static/foodstim60/ice cream sundae 002.jpg', 'key': 'u', 'origWidth': 409, 'origHeight': 409, 'width': 409, 'height': 409, 'widthPercent': 0.45, 'rescaleHeight': False, 'trialN': 24, 'loaded': True, 'loadedTime': 4395.799999952316, 'positionName': 'LEFT', 'positionCoords': [328.28, 227.5], 'bid': 5}, {'imgObject': {}, 'id': 'blueberries', 'src': '/static/foodstim60/blueberries.jpg', 'key': 'i', 'origWidth': 411, 'origHeight': 411, 'width': 411, 'height': 411, 'widthPercent': 0.45, 'rescaleHeight': False, 'trialN': 24, 'loaded': True, 'loadedTime': 4606.100000023842, 'positionName': 'RIGHT', 'positionCoords': [798.72, 226.5], 'bid': 5}]",40655.89999997616,1669835938637,ice cream sundae 002,blueberries,5.0,5.0,0.0,ice cream sundae 002,1146.5,1147,1147.0,True,u,42319.89999997616,1664.0,1669835940301,1664,HRV,HRV_0248,2022-11-30 19:23:11
25,"[{'imgObject': {}, 'id': 'orange slices', 'src': '/static/foodstim60/orange slices.jpg', 'key': 'u', 'origWidth': 409, 'origHeight': 410, 'width': 409, 'height': 410, 'widthPercent': 0.45, 'rescaleHeight': False, 'trialN': 25, 'loaded': True, 'loadedTime': 4582.5, 'positionName': 'LEFT', 'positionCoords': [328.28, 227], 'bid': 4.97}, {'imgObject': {}, 'id': 'cheerios', 'src': '/static/foodstim60/cheerios.jpg', 'key': 'i', 'origWidth': 409, 'origHeight': 410, 'width': 409, 'height': 410, 'widthPercent': 0.45, 'rescaleHeight': False, 'trialN': 25, 'loaded': True, 'loadedTime': 4240.699999928474, 'positionName': 'RIGHT', 'positionCoords': [798.72, 227], 'bid': 4.96}]",42320.199999928474,1669835940301,orange slices,cheerios,4.97,4.96,-0.009999999999999787,cheerios,732.1000000238419,733,732.5,True,i,43553.60000002384,1233.4000000953674,1669835941535,1234,HRV,HRV_0248,2022-11-30 19:23:11
26,"[{'imgObject': {}, 'id': 'roastedpotatoes', 'src': '/static/foodstim60/roastedpotatoes.jpg', 'key': 'u', 'origWidth': 409, 'origHeight': 410, 'width': 409, 'height': 410, 'widthPercent': 0.45, 'rescaleHeight': False, 'trialN': 26, 'loaded': True, 'loadedTime': 4311.600000023842, 'positionName': 'LEFT', 'positionCoords': [328.28, 227], 'bid': 5.01}, {'imgObject': {}, 'id': 'luckycharms', 'src': '/static/foodstim60/luckycharms.jpg', 'key': 'i', 'origWidth': 410, 'origHeight': 409, 'width': 410, 'height': 409, 'widthPercent': 0.45, 'rescaleHeight': False, 'trialN': 26, 'loaded': True, 'loadedTime': 4319.5, 'positionName': 'RIGHT', 'positionCoords': [798.72, 227.5], 'bid': 5.0600000000000005}]",43553.89999997616,1669835941535,roastedpotatoes,luckycharms,5.01,5.0600000000000005,0.05000000000000071,roastedpotatoes,943.8999999761581,944,944.3999999761581,True,u,45003.0,1449.1000000238419,1669835942984,1449,HRV,HRV_0248,2022-11-30 19:23:11
27,"[{'imgObject': {}, 'id': 'banana', 'src': '/static/foodstim60/banana.jpg', 'key': 'u', 'origWidth': 410, 'origHeight': 410, 'width': 410, 'height': 410, 'widthPercent': 0.45, 'rescaleHeight': False, 'trialN': 27, 'loaded': True, 'loadedTime': 4606.5, 'positionName': 'LEFT', 'positionCoords': [327.28, 227], 'bid': 4.97}, {'imgObject': {}, 'id': 'cherries', 'src': '/static/foodstim60/cherries.jpg', 'key': 'i', 'origWidth': 410, 'origHeight': 411, 'width': 410, 'height': 411, 'widthPercent': 0.45, 'rescaleHeight': False, 'trialN': 27, 'loaded': True, 'loadedTime': 4328.899999976158, 'positionName': 'RIGHT', 'positionCoords': [798.72, 226.5], 'bid': 5}]",45003.60000002384,1669835942985,banana,cherries,4.97,5.0,0.03000000000000025,banana,1069.2999999523163,1069,1069.7999999523163,True,u,46582.60000002384,1579.0,1669835944564,1579,HRV,HRV_0248,2022-11-30 19:23:11
28,"[{'imgObject': {}, 'id': 'Tribe humus pita', 'src': '/static/foodstim60/Tribe humus pita.jpg', 'key': 'u', 'origWidth': 411, 'origHeight': 411, 'width': 411, 'height': 411, 'widthPercent': 0.45, 'rescaleHeight': False, 'trialN': 28, 'loaded': True, 'loadedTime': 4620.799999952316, 'positionName': 'LEFT', 'positionCoords': [326.28, 226.5], 'bid': 5.0200000000000005}, {'imgObject': {}, 'id': 'veggieswithdip', 'src': '/static/foodstim60/veggieswithdip.jpg', 'key': 'i', 'origWidth': 409, 'origHeight': 409, 'width': 409, 'height': 409, 'widthPercent': 0.45, 'rescaleHeight': False, 'trialN': 28, 'loaded': True, 'loadedTime': 4398.799999952316, 'positionName': 'RIGHT', 'positionCoords': [798.72, 227.5], 'bid': 5.03}]",46582.799999952316,1669835944564,Tribe humus pita,veggieswithdip,5.0200000000000005,5.03,0.009999999999999787,veggieswithdip,1050.3999999761581,1051,1050.8000000715256,True,i,48149.799999952316,1567.0,1669835946131,1567,HRV,HRV_0248,2022-11-30 19:23:11
29,"[{'imgObject': {}, 'id': 'corn cob', 'src': '/static/foodstim60/corn cob.jpg', 'key': 'u', 'origWidth': 411, 'origHeight': 411, 'width': 411, 'height': 411, 'widthPercent': 0.45, 'rescaleHeight': False, 'trialN': 29, 'loaded': True, 'loadedTime': 4567.399999976158, 'positionName': 'LEFT', 'positionCoords': [326.28, 226.5], 'bid': 1.82}, {'imgObject': {}, 'id': 'avocado', 'src': '/static/foodstim60/avocado.jpg', 'key': 'i', 'origWidth': 409, 'origHeight': 409, 'width': 409, 'height': 409, 'widthPercent': 0.45, 'rescaleHeight': False, 'trialN': 29, 'loaded': True, 'loadedTime': 4418.5, 'positionName': 'RIGHT', 'positionCoords': [798.72, 227.5], 'bid': 4.92}]",48150.10000002384,1669835946131,corn cob,avocado,1.82,4.92,3.0999999999999996,avocado,783.0999999046326,784,783.5,True,i,49448.199999928474,1298.0999999046326,1669835947429,1298,HRV,HRV_0248,2022-11-30 19:23:11
30,"[{'imgObject': {}, 'id': 'cheerios', 'src': '/static/foodstim60/cheerios.jpg', 'key': 'u', 'origWidth': 409, 'origHeight': 410, 'width': 409, 'height': 410, 'widthPercent': 0.45, 'rescaleHeight': False, 'trialN': 30, 'loaded': True, 'loadedTime': 4252.799999952316, 'positionName': 'LEFT', 'positionCoords': [328.28, 227], 'bid': 4.96}, {'imgObject': {}, 'id': 'froot loops w milk', 'src': '/static/foodstim60/froot loops w milk.jpg', 'key': 'i', 'origWidth': 410, 'origHeight': 410, 'width': 410, 'height': 410, 'widthPercent': 0.45, 'rescaleHeight': False, 'trialN': 30, 'loaded': True, 'loadedTime': 4434.100000023842, 'positionName': 'RIGHT', 'positionCoords': [798.72, 227], 'bid': 5.01}]",49448.5,1669835947430,cheerios,froot loops w milk,4.96,5.01,0.04999999999999982,froot loops w milk,1011.6999999284744,1012,1012.3999999761581,True,i,50964.5,1516.0,1669835948946,1516,HRV,HRV_0248,2022-11-30 19:23:11
31,"[{'imgObject': {}, 'id': 'burrito', 'src': '/static/foodstim60/burrito.jpg', 'key': 'u', 'origWidth': 410, 'origHeight': 410, 'width': 410, 'height': 410, 'widthPercent': 0.45, 'rescaleHeight': False, 'trialN': 31, 'loaded': True, 'loadedTime': 4501, 'positionName': 'LEFT', 'positionCoords': [327.28, 227], 'bid': 4.98}, {'imgObject': {}, 'id': 'olives', 'src': '/static/foodstim60/olives.jpg', 'key': 'i', 'origWidth': 410, 'origHeight': 410, 'width': 410, 'height': 410, 'widthPercent': 0.45, 'rescaleHeight': False, 'trialN': 31, 'loaded': True, 'loadedTime': 4463.699999928474, 'positionName': 'RIGHT', 'positionCoords': [798.72, 227], 'bid': 7.81}]",50964.89999997616,1669835948946,burrito,olives,4.98,7.81,2.829999999999999,olives,1061.1000000238419,1062,1061.6000000238419,True,i,52530.0,1565.1000000238419,1669835950511,1565,HRV,HRV_0248,2022-11-30 19:23:11
32,"[{'imgObject': {}, 'id': 'hashbrowns', 'src': '/static/foodstim60/hashbrowns.jpg', 'key': 'u', 'origWidth': 411, 'origHeight': 410, 'width': 411, 'height': 410, 'widthPercent': 0.45, 'rescaleHeight': False, 'trialN': 32, 'loaded': True, 'loadedTime': 4477.199999928474, 'positionName': 'LEFT', 'positionCoords': [326.28, 227], 'bid': 4.96}, {'imgObject': {}, 'id': 'orange slices', 'src': '/static/foodstim60/orange slices.jpg', 'key': 'i', 'origWidth': 409, 'origHeight': 410, 'width': 409, 'height': 410, 'widthPercent': 0.45, 'rescaleHeight': False, 'trialN': 32, 'loaded': True, 'loadedTime': 4582.5, 'positionName': 'RIGHT', 'positionCoords': [798.72, 227], 'bid': 4.97}]",52530.299999952316,1669835950511,hashbrowns,orange slices,4.96,4.97,0.009999999999999787,hashbrowns,872.1000000238419,873,872.5,True,u,53915.799999952316,1385.5,1669835951897,1386,HRV,HRV_0248,2022-11-30 19:23:11
33,"[{'imgObject': {}, 'id': 'fruitsalad', 'src': '/static/foodstim60/fruitsalad.jpg', 'key': 'u', 'origWidth': 410, 'origHeight': 410, 'width': 410, 'height': 410, 'widthPercent': 0.45, 'rescaleHeight': False, 'trialN': 33, 'loaded': True, 'loadedTime': 4531.600000023842, 'positionName': 'LEFT', 'positionCoords': [327.28, 227], 'bid': 4.97}, {'imgObject': {}, 'id': 'grilled chicken strips', 'src': '/static/foodstim60/grilled chicken strips.jpg', 'key': 'i', 'origWidth': 410, 'origHeight': 411, 'width': 410, 'height': 411, 'widthPercent': 0.45, 'rescaleHeight': False, 'trialN': 33, 'loaded': True, 'loadedTime': 4555.100000023842, 'positionName': 'RIGHT', 'positionCoords': [798.72, 226.5], 'bid': 4.98}]",53916.10000002384,1669835951897,fruitsalad,grilled chicken strips,4.97,4.98,0.010000000000000675,grilled chicken strips,956.5999999046326,957,957.1999999284744,True,i,55376.299999952316,1460.1999999284744,1669835953357,1460,HRV,HRV_0248,2022-11-30 19:23:11
34,"[{'imgObject': {}, 'id': 'yogurt no spoon', 'src': '/static/foodstim60/yogurt no spoon.jpg', 'key': 'u', 'origWidth': 411, 'origHeight': 410, 'width': 411, 'height': 410, 'widthPercent': 0.45, 'rescaleHeight': False, 'trialN': 34, 'loaded': True, 'loadedTime': 4601.699999928474, 'positionName': 'LEFT', 'positionCoords': [326.28, 227], 'bid': 5.03}, {'imgObject': {}, 'id': 'corn cob', 'src': '/static/foodstim60/corn cob.jpg', 'key': 'i', 'origWidth': 411, 'origHeight': 411, 'width': 411, 'height': 411, 'widthPercent': 0.45, 'rescaleHeight': False, 'trialN': 34, 'loaded': True, 'loadedTime': 4565.600000023842, 'positionName': 'RIGHT', 'positionCoords': [798.72, 226.5], 'bid': 1.82}]",55376.60000002384,1669835953358,yogurt no spoon,corn cob,5.03,1.82,-3.21,yogurt no spoon,1019.7999999523163,1020,1020.3999999761581,True,u,56909.39999997616,1532.7999999523163,1669835954890,1532,HRV,HRV_0248,2022-11-30 19:23:11
35,"[{'imgObject': {}, 'id': 'edamame', 'src': '/static/foodstim60/edamame.jpg', 'key': 'u', 'origWidth': 409, 'origHeight': 410, 'width': 409, 'height': 410, 'widthPercent': 0.45, 'rescaleHeight': False, 'trialN': 35, 'loaded': True, 'loadedTime': 4338.399999976158, 'positionName': 'LEFT', 'positionCoords': [328.28, 227], 'bid': 5.0600000000000005}, {'imgObject': {}, 'id': 'rigatoni', 'src': '/static/foodstim60/rigatoni.jpg', 'key': 'i', 'origWidth': 411, 'origHeight': 411, 'width': 411, 'height': 411, 'widthPercent': 0.45, 'rescaleHeight': False, 'trialN': 35, 'loaded': True, 'loadedTime': 4580.5, 'positionName': 'RIGHT', 'positionCoords': [798.72, 226.5], 'bid': 5.0200000000000005}]",56909.699999928474,1669835954891,edamame,rigatoni,5.0600000000000005,5.0200000000000005,-0.040000000000000036,edamame,835.5,836,836.0,True,u,58258.5,1348.8000000715256,1669835956240,1349,HRV,HRV_0248,2022-11-30 19:23:11
36,"[{'imgObject': {}, 'id': 'mashed potato', 'src': '/static/foodstim60/mashed potato.jpg', 'key': 'u', 'origWidth': 409, 'origHeight': 409, 'width': 409, 'height': 409, 'widthPercent': 0.45, 'rescaleHeight': False, 'trialN': 36, 'loaded': True, 'loadedTime': 4584.5, 'positionName': 'LEFT', 'positionCoords': [328.28, 227.5], 'bid': 6.87}, {'imgObject': {}, 'id': 'lox', 'src': '/static/foodstim60/lox.jpg', 'key': 'i', 'origWidth': 410, 'origHeight': 411, 'width': 410, 'height': 411, 'widthPercent': 0.45, 'rescaleHeight': False, 'trialN': 36, 'loaded': True, 'loadedTime': 4397, 'positionName': 'RIGHT', 'positionCoords': [798.72, 226.5], 'bid': 7.13}]",58258.89999997616,1669835956240,mashed potato,lox,6.87,7.13,0.2599999999999998,lox,772.7999999523163,773,773.2000000476837,True,i,59539.89999997616,1281.0,1669835957521,1281,HRV,HRV_0248,2022-11-30 19:23:11
37,"[{'imgObject': {}, 'id': 'kiwi', 'src': '/static/foodstim60/kiwi.jpg', 'key': 'u', 'origWidth': 410, 'origHeight': 410, 'width': 410, 'height': 410, 'widthPercent': 0.45, 'rescaleHeight': False, 'trialN': 37, 'loaded': True, 'loadedTime': 4189.600000023842, 'positionName': 'LEFT', 'positionCoords': [327.28, 227], 'bid': 5.0200000000000005}, {'imgObject': {}, 'id': 'strawberries', 'src': '/static/foodstim60/strawberries.jpg', 'key': 'i', 'origWidth': 410, 'origHeight': 410, 'width': 410, 'height': 410, 'widthPercent': 0.45, 'rescaleHeight': False, 'trialN': 37, 'loaded': True, 'loadedTime': 4622.699999928474, 'positionName': 'RIGHT', 'positionCoords': [798.72, 227], 'bid': 5.1000000000000005}]",59540.10000002384,1669835957521,kiwi,strawberries,5.0200000000000005,5.1000000000000005,0.08000000000000007,strawberries,954.5,955,955.0,True,i,61005.60000002384,1465.5,1669835958987,1466,HRV,HRV_0248,2022-11-30 19:23:11
38,"[{'imgObject': {}, 'id': 'grilled chicken strips', 'src': '/static/foodstim60/grilled chicken strips.jpg', 'key': 'u', 'origWidth': 410, 'origHeight': 411, 'width': 410, 'height': 411, 'widthPercent': 0.45, 'rescaleHeight': False, 'trialN': 38, 'loaded': True, 'loadedTime': 4555, 'positionName': 'LEFT', 'positionCoords': [327.28, 226.5], 'bid': 4.98}, {'imgObject': {}, 'id': 'avocado', 'src': '/static/foodstim60/avocado.jpg', 'key': 'i', 'origWidth': 409, 'origHeight': 409, 'width': 409, 'height': 409, 'widthPercent': 0.45, 'rescaleHeight': False, 'trialN': 38, 'loaded': True, 'loadedTime': 4419.199999928474, 'positionName': 'RIGHT', 'positionCoords': [798.72, 227.5], 'bid': 4.92}]",61005.89999997616,1669835958987,grilled chicken strips,avocado,4.98,4.92,-0.0600000000000005,grilled chicken strips,668.6000000238419,669,669.1000000238419,True,u,62186.699999928474,1180.7999999523163,1669835960168,1181,HRV,HRV_0248,2022-11-30 19:23:11
39,"[{'imgObject': {}, 'id': 'burger', 'src': '/static/foodstim60/burger.jpg', 'key': 'u', 'origWidth': 409, 'origHeight': 409, 'width': 409, 'height': 409, 'widthPercent': 0.45, 'rescaleHeight': False, 'trialN': 39, 'loaded': True, 'loadedTime': 4199.299999952316, 'positionName': 'LEFT', 'positionCoords': [328.28, 227.5], 'bid': 8.64}, {'imgObject': {}, 'id': 'raisin bran w milk', 'src': '/static/foodstim60/raisin bran w milk.jpg', 'key': 'i', 'origWidth': 411, 'origHeight': 411, 'width': 411, 'height': 411, 'widthPercent': 0.45, 'rescaleHeight': False, 'trialN': 39, 'loaded': True, 'loadedTime': 4604.799999952316, 'positionName': 'RIGHT', 'positionCoords': [798.72, 226.5], 'bid': 5.1000000000000005}]",62187.0,1669835960168,burger,raisin bran w milk,8.64,5.1000000000000005,-3.54,burger,580.0,581,580.5,True,u,63270.799999952316,1083.7999999523163,1669835961252,1084,HRV,HRV_0248,2022-11-30 19:23:11
40,"[{'imgObject': {}, 'id': 'roastedpotatoes', 'src': '/static/foodstim60/roastedpotatoes.jpg', 'key': 'u', 'origWidth': 409, 'origHeight': 410, 'width': 409, 'height': 410, 'widthPercent': 0.45, 'rescaleHeight': False, 'trialN': 40, 'loaded': True, 'loadedTime': 4312.299999952316, 'positionName': 'LEFT', 'positionCoords': [328.28, 227], 'bid': 5.01}, {'imgObject': {}, 'id': 'rigatoni', 'src': '/static/foodstim60/rigatoni.jpg', 'key': 'i', 'origWidth': 411, 'origHeight': 411, 'width': 411, 'height': 411, 'widthPercent': 0.45, 'rescaleHeight': False, 'trialN': 40, 'loaded': True, 'loadedTime': 4578.899999976158, 'positionName': 'RIGHT', 'positionCoords': [798.72, 226.5], 'bid': 5.0200000000000005}]",63271.0,1669835961252,roastedpotatoes,rigatoni,5.01,5.0200000000000005,0.010000000000000675,roastedpotatoes,609.6000000238419,610,609.8999999761581,True,u,64385.5,1114.5,1669835962367,1115,HRV,HRV_0248,2022-11-30 19:23:11
41,"[{'imgObject': {}, 'id': 'chicken nuggets2', 'src': '/static/foodstim60/chicken nuggets2.jpg', 'key': 'u', 'origWidth': 410, 'origHeight': 409, 'width': 410, 'height': 409, 'widthPercent': 0.45, 'rescaleHeight': False, 'trialN': 41, 'loaded': True, 'loadedTime': 4203.600000023842, 'positionName': 'LEFT', 'positionCoords': [327.28, 227.5], 'bid': 5.48}, {'imgObject': {}, 'id': 'popsicles', 'src': '/static/foodstim60/popsicles.jpg', 'key': 'i', 'origWidth': 410, 'origHeight': 410, 'width': 410, 'height': 410, 'widthPercent': 0.45, 'rescaleHeight': False, 'trialN': 41, 'loaded': True, 'loadedTime': 4652.600000023842, 'positionName': 'RIGHT', 'positionCoords': [798.72, 227], 'bid': 4.97}]",64385.60000002384,1669835962367,chicken nuggets2,popsicles,5.48,4.97,-0.5100000000000007,chicken nuggets2,752.5,753,752.7999999523163,True,u,65650.5,1264.8999999761581,1669835963631,1264,HRV,HRV_0248,2022-11-30 19:23:11
42,"[{'imgObject': {}, 'id': 'eggs', 'src': '/static/foodstim60/eggs.jpg', 'key': 'u', 'origWidth': 409, 'origHeight': 409, 'width': 409, 'height': 409, 'widthPercent': 0.45, 'rescaleHeight': False, 'trialN': 42, 'loaded': True, 'loadedTime': 4623.799999952316, 'positionName': 'LEFT', 'positionCoords': [328.28, 227.5], 'bid': 9.28}, {'imgObject': {}, 'id': 'chicken nuggets2', 'src': '/static/foodstim60/chicken nuggets2.jpg', 'key': 'i', 'origWidth': 410, 'origHeight': 409, 'width': 410, 'height': 409, 'widthPercent': 0.45, 'rescaleHeight': False, 'trialN': 42, 'loaded': True, 'loadedTime': 4216.5, 'positionName': 'RIGHT', 'positionCoords': [798.72, 227.5], 'bid': 5.48}]",65650.69999992847,1669835963632,eggs,chicken nuggets2,9.28,5.48,-3.799999999999999,eggs,691.7000000476837,692,692.1000000238419,True,u,66850.19999992847,1199.5,1669835964831,1199,HRV,HRV_0248,2022-11-30 19:23:11
43,"[{'imgObject': {}, 'id': 'sweetpotato', 'src': '/static/foodstim60/sweetpotato.jpg', 'key': 'u', 'origWidth': 410, 'origHeight': 410, 'width': 410, 'height': 410, 'widthPercent': 0.45, 'rescaleHeight': False, 'trialN': 43, 'loaded': True, 'loadedTime': 4238.399999976158, 'positionName': 'LEFT', 'positionCoords': [327.28, 227], 'bid': 5.13}, {'imgObject': {}, 'id': 'hotdog w must', 'src': '/static/foodstim60/hotdog w must.jpg', 'key': 'i', 'origWidth': 409, 'origHeight': 409, 'width': 409, 'height': 409, 'widthPercent': 0.45, 'rescaleHeight': False, 'trialN': 43, 'loaded': True, 'loadedTime': 4277.699999928474, 'positionName': 'RIGHT', 'positionCoords': [798.72, 227.5], 'bid': 8.8}]",66850.29999995232,1669835964831,sweetpotato,hotdog w must,5.13,8.8,3.670000000000001,sweetpotato,754.2000000476837,755,754.6000000238419,True,u,68115.60000002384,1265.3000000715256,1669835966097,1266,HRV,HRV_0248,2022-11-30 19:23:11
44,"[{'imgObject': {}, 'id': 'bagel and cc', 'src': '/static/foodstim60/bagel and cc.jpg', 'key': 'u', 'origWidth': 410, 'origHeight': 410, 'width': 410, 'height': 410, 'widthPercent': 0.45, 'rescaleHeight': False, 'trialN': 44, 'loaded': True, 'loadedTime': 4565.100000023842, 'positionName': 'LEFT', 'positionCoords': [327.28, 227], 'bid': 1.52}, {'imgObject': {}, 'id': 'cheerios', 'src': '/static/foodstim60/cheerios.jpg', 'key': 'i', 'origWidth': 409, 'origHeight': 410, 'width': 409, 'height': 410, 'widthPercent': 0.45, 'rescaleHeight': False, 'trialN': 44, 'loaded': True, 'loadedTime': 4253, 'positionName': 'RIGHT', 'positionCoords': [798.72, 227], 'bid': 4.96}]",68115.79999995232,1669835966097,bagel and cc,cheerios,1.52,4.96,3.44,bagel and cc,856.2000000476837,857,856.6000000238419,True,u,69481.60000002384,1365.8000000715256,1669835967463,1366,HRV,HRV_0248,2022-11-30 19:23:11
45,"[{'imgObject': {}, 'id': 'luckycharms', 'src': '/static/foodstim60/luckycharms.jpg', 'key': 'u', 'origWidth': 410, 'origHeight': 409, 'width': 410, 'height': 409, 'widthPercent': 0.45, 'rescaleHeight': False, 'trialN': 45, 'loaded': True, 'loadedTime': 4321.100000023842, 'positionName': 'LEFT', 'positionCoords': [327.28, 227.5], 'bid': 5.0600000000000005}, {'imgObject': {}, 'id': 'omelette', 'src': '/static/foodstim60/omelette.jpg', 'key': 'i', 'origWidth': 410, 'origHeight': 409, 'width': 410, 'height': 409, 'widthPercent': 0.45, 'rescaleHeight': False, 'trialN': 45, 'loaded': True, 'loadedTime': 4503.5, 'positionName': 'RIGHT', 'positionCoords': [798.72, 227.5], 'bid': 5.07}]",69481.89999997616,1669835967463,luckycharms,omelette,5.0600000000000005,5.07,0.009999999999999787,omelette,1067.7999999523163,1068,1068.2999999523163,True,i,71063.60000002384,1581.7000000476837,1669835969045,1582,HRV,HRV_0248,2022-11-30 19:23:11
46,"[{'imgObject': {}, 'id': 'olives', 'src': '/static/foodstim60/olives.jpg', 'key': 'u', 'origWidth': 410, 'origHeight': 410, 'width': 410, 'height': 410, 'widthPercent': 0.45, 'rescaleHeight': False, 'trialN': 46, 'loaded': True, 'loadedTime': 4462.299999952316, 'positionName': 'LEFT', 'positionCoords': [327.28, 227], 'bid': 7.81}, {'imgObject': {}, 'id': 'fried eggs', 'src': '/static/foodstim60/fried eggs.jpg', 'key': 'i', 'origWidth': 410, 'origHeight': 410, 'width': 410, 'height': 410, 'widthPercent': 0.45, 'rescaleHeight': False, 'trialN': 46, 'loaded': True, 'loadedTime': 4527.899999976158, 'positionName': 'RIGHT', 'positionCoords': [798.72, 227], 'bid': 9.9}]",71063.89999997616,1669835969045,olives,fried eggs,7.81,9.9,2.0900000000000007,olives,818.8999999761581,819,819.3999999761581,True,u,72395.39999997616,1331.5,1669835970376,1331,HRV,HRV_0248,2022-11-30 19:23:11
47,"[{'imgObject': {}, 'id': 'popsicles', 'src': '/static/foodstim60/popsicles.jpg', 'key': 'u', 'origWidth': 410, 'origHeight': 410, 'width': 410, 'height': 410, 'widthPercent': 0.45, 'rescaleHeight': False, 'trialN': 47, 'loaded': True, 'loadedTime': 4652.799999952316, 'positionName': 'LEFT', 'positionCoords': [327.28, 227], 'bid': 4.97}, {'imgObject': {}, 'id': 'Tribe humus pita', 'src': '/static/foodstim60/Tribe humus pita.jpg', 'key': 'i', 'origWidth': 411, 'origHeight': 411, 'width': 411, 'height': 411, 'widthPercent': 0.45, 'rescaleHeight': False, 'trialN': 47, 'loaded': True, 'loadedTime': 4619.5, 'positionName': 'RIGHT', 'positionCoords': [798.72, 226.5], 'bid': 5.0200000000000005}]",72395.69999992847,1669835970377,popsicles,Tribe humus pita,4.97,5.0200000000000005,0.05000000000000071,Tribe humus pita,746.8000000715256,747,747.1000000238419,True,i,73661.5,1265.8000000715256,1669835971643,1266,HRV,HRV_0248,2022-11-30 19:23:11
48,"[{'imgObject': {}, 'id': 'salmon', 'src': '/static/foodstim60/salmon.jpg', 'key': 'u', 'origWidth': 410, 'origHeight': 409, 'width': 410, 'height': 409, 'widthPercent': 0.45, 'rescaleHeight': False, 'trialN': 48, 'loaded': True, 'loadedTime': 4600.100000023842, 'positionName': 'LEFT', 'positionCoords': [327.28, 227.5], 'bid': 7.85}, {'imgObject': {}, 'id': 'cherries', 'src': '/static/foodstim60/cherries.jpg', 'key': 'i', 'origWidth': 410, 'origHeight': 411, 'width': 410, 'height': 411, 'widthPercent': 0.45, 'rescaleHeight': False, 'trialN': 48, 'loaded': True, 'loadedTime': 4330.100000023842, 'positionName': 'RIGHT', 'positionCoords': [798.72, 226.5], 'bid': 5}]",73661.79999995232,1669835971643,salmon,cherries,7.85,5.0,-2.8499999999999996,cherries,878.8000000715256,879,879.3000000715256,True,i,75058.89999997616,1397.1000000238419,1669835973040,1397,HRV,HRV_0248,2022-11-30 19:23:11
49,"[{'imgObject': {}, 'id': 'baked potato', 'src': '/static/foodstim60/baked potato.jpg', 'key': 'u', 'origWidth': 409, 'origHeight': 410, 'width': 409, 'height': 410, 'widthPercent': 0.45, 'rescaleHeight': False, 'trialN': 49, 'loaded': True, 'loadedTime': 4435.600000023842, 'positionName': 'LEFT', 'positionCoords': [328.28, 227], 'bid': 8.5}, {'imgObject': {}, 'id': 'burger', 'src': '/static/foodstim60/burger.jpg', 'key': 'i', 'origWidth': 409, 'origHeight': 409, 'width': 409, 'height': 409, 'widthPercent': 0.45, 'rescaleHeight': False, 'trialN': 49, 'loaded': True, 'loadedTime': 4190.100000023842, 'positionName': 'RIGHT', 'positionCoords': [798.72, 227.5], 'bid': 8.64}]",75059.19999992847,1669835973040,baked potato,burger,8.5,8.64,0.14000000000000057,baked potato,684.1000000238419,685,684.5,True,u,76252.79999995232,1193.6000000238419,1669835974234,1194,HRV,HRV_0248,2022-11-30 19:23:11
50,"[{'imgObject': {}, 'id': 'Grapes', 'src': '/static/foodstim60/Grapes.jpg', 'key': 'u', 'origWidth': 411, 'origHeight': 411, 'width': 411, 'height': 411, 'widthPercent': 0.45, 'rescaleHeight': False, 'trialN': 50, 'loaded': True, 'loadedTime': 4624.199999928474, 'positionName': 'LEFT', 'positionCoords': [326.28, 226.5], 'bid': 4.98}, {'imgObject': {}, 'id': 'burrito', 'src': '/static/foodstim60/burrito.jpg', 'key': 'i', 'origWidth': 410, 'origHeight': 410, 'width': 410, 'height': 410, 'widthPercent': 0.45, 'rescaleHeight': False, 'trialN': 50, 'loaded': True, 'loadedTime': 4489.899999976158, 'positionName': 'RIGHT', 'positionCoords': [798.72, 227], 'bid': 4.98}]",76253.0,1669835974234,Grapes,burrito,4.98,4.98,0.0,burrito,1068.0,1069,1068.5,True,i,77826.79999995232,1573.7999999523163,1669835975808,1574,HRV,HRV_0248,2022-11-30 19:23:11
51,"[{'imgObject': {}, 'id': 'cocktailshrimp', 'src': '/static/foodstim60/cocktailshrimp.jpg', 'key': 'u', 'origWidth': 410, 'origHeight': 410, 'width': 410, 'height': 410, 'widthPercent': 0.45, 'rescaleHeight': False, 'trialN': 51, 'loaded': True, 'loadedTime': 4585.399999976158, 'positionName': 'LEFT', 'positionCoords': [327.28, 227], 'bid': 8.08}, {'imgObject': {}, 'id': 'turkey sandwich', 'src': '/static/foodstim60/turkey sandwich.jpg', 'key': 'i', 'origWidth': 409, 'origHeight': 409, 'width': 409, 'height': 409, 'widthPercent': 0.45, 'rescaleHeight': False, 'trialN': 51, 'loaded': True, 'loadedTime': 4627.299999952316, 'positionName': 'RIGHT', 'positionCoords': [798.72, 227.5], 'bid': 8.99}]",77827.0,1669835975808,cocktailshrimp,turkey sandwich,8.08,8.99,0.9100000000000001,turkey sandwich,1042.2999999523163,1043,1042.8999999761581,True,i,79375.29999995232,1548.2999999523163,1669835977356,1548,HRV,HRV_0248,2022-11-30 19:23:11
52,"[{'imgObject': {}, 'id': 'burrito', 'src': '/static/foodstim60/burrito.jpg', 'key': 'u', 'origWidth': 410, 'origHeight': 410, 'width': 410, 'height': 410, 'widthPercent': 0.45, 'rescaleHeight': False, 'trialN': 52, 'loaded': True, 'loadedTime': 4491.199999928474, 'positionName': 'LEFT', 'positionCoords': [327.28, 227], 'bid': 4.98}, {'imgObject': {}, 'id': 'hashbrowns', 'src': '/static/foodstim60/hashbrowns.jpg', 'key': 'i', 'origWidth': 411, 'origHeight': 410, 'width': 411, 'height': 410, 'widthPercent': 0.45, 'rescaleHeight': False, 'trialN': 52, 'loaded': True, 'loadedTime': 4488.899999976158, 'positionName': 'RIGHT', 'positionCoords': [798.72, 227], 'bid': 4.96}]",79375.60000002384,1669835977357,burrito,hashbrowns,4.98,4.96,-0.020000000000000462,burrito,1076.7999999523163,1077,1077.1999999284744,True,u,80972.0,1596.3999999761581,1669835978953,1596,HRV,HRV_0248,2022-11-30 19:23:11
53,"[{'imgObject': {}, 'id': 'sweetpotato', 'src': '/static/foodstim60/sweetpotato.jpg', 'key': 'u', 'origWidth': 410, 'origHeight': 410, 'width': 410, 'height': 410, 'widthPercent': 0.45, 'rescaleHeight': False, 'trialN': 53, 'loaded': True, 'loadedTime': 4239.100000023842, 'positionName': 'LEFT', 'positionCoords': [327.28, 227], 'bid': 5.13}, {'imgObject': {}, 'id': 'cocktailshrimp', 'src': '/static/foodstim60/cocktailshrimp.jpg', 'key': 'i', 'origWidth': 410, 'origHeight': 410, 'width': 410, 'height': 410, 'widthPercent': 0.45, 'rescaleHeight': False, 'trialN': 53, 'loaded': True, 'loadedTime': 4584.600000023842, 'positionName': 'RIGHT', 'positionCoords': [798.72, 227], 'bid': 8.08}]",80972.29999995232,1669835978953,sweetpotato,cocktailshrimp,5.13,8.08,2.95,sweetpotato,1085.3000000715256,1086,1085.7000000476837,True,u,82571.10000002384,1598.8000000715256,1669835980552,1599,HRV,HRV_0248,2022-11-30 19:23:11
54,"[{'imgObject': {}, 'id': 'Tribe humus pita', 'src': '/static/foodstim60/Tribe humus pita.jpg', 'key': 'u', 'origWidth': 411, 'origHeight': 411, 'width': 411, 'height': 411, 'widthPercent': 0.45, 'rescaleHeight': False, 'trialN': 54, 'loaded': True, 'loadedTime': 4621.199999928474, 'positionName': 'LEFT', 'positionCoords': [326.28, 226.5], 'bid': 5.0200000000000005}, {'imgObject': {}, 'id': 'shreddedwheatwithmilk', 'src': '/static/foodstim60/shreddedwheatwithmilk.jpg', 'key': 'i', 'origWidth': 410, 'origHeight': 410, 'width': 410, 'height': 410, 'widthPercent': 0.45, 'rescaleHeight': False, 'trialN': 54, 'loaded': True, 'loadedTime': 4158.5, 'positionName': 'RIGHT', 'positionCoords': [798.72, 227], 'bid': 5.05}]",82571.29999995232,1669835980552,Tribe humus pita,shreddedwheatwithmilk,5.0200000000000005,5.05,0.02999999999999936,Tribe humus pita,947.1000000238419,948,947.6000000238419,True,u,84040.5,1469.2000000476837,1669835982021,1469,HRV,HRV_0248,2022-11-30 19:23:11
55,"[{'imgObject': {}, 'id': 'salad w chicken', 'src': '/static/foodstim60/salad w chicken.jpg', 'key': 'u', 'origWidth': 411, 'origHeight': 411, 'width': 411, 'height': 411, 'widthPercent': 0.45, 'rescaleHeight': False, 'trialN': 55, 'loaded': True, 'loadedTime': 4642.699999928474, 'positionName': 'LEFT', 'positionCoords': [326.28, 226.5], 'bid': 4.92}, {'imgObject': {}, 'id': 'cheerios', 'src': '/static/foodstim60/cheerios.jpg', 'key': 'i', 'origWidth': 409, 'origHeight': 410, 'width': 409, 'height': 410, 'widthPercent': 0.45, 'rescaleHeight': False, 'trialN': 55, 'loaded': True, 'loadedTime': 4252.100000023842, 'positionName': 'RIGHT', 'positionCoords': [798.72, 227], 'bid': 4.96}]",84040.69999992847,1669835982022,salad w chicken,cheerios,4.92,4.96,0.040000000000000036,salad w chicken,744.7000000476837,745,745.1000000238419,True,u,85304.0,1263.3000000715256,1669835983285,1263,HRV,HRV_0248,2022-11-30 19:23:11
56,"[{'imgObject': {}, 'id': 'baked potato', 'src': '/static/foodstim60/baked potato.jpg', 'key': 'u', 'origWidth': 409, 'origHeight': 410, 'width': 409, 'height': 410, 'widthPercent': 0.45, 'rescaleHeight': False, 'trialN': 56, 'loaded': True, 'loadedTime': 4448.299999952316, 'positionName': 'LEFT', 'positionCoords': [328.28, 227], 'bid': 8.5}, {'imgObject': {}, 'id': 'turkeysandwich', 'src': '/static/foodstim60/turkeysandwich.jpg', 'key': 'i', 'origWidth': 409, 'origHeight': 409, 'width': 409, 'height': 409, 'widthPercent': 0.45, 'rescaleHeight': False, 'trialN': 56, 'loaded': True, 'loadedTime': 4382, 'positionName': 'RIGHT', 'positionCoords': [798.72, 227.5], 'bid': 8.16}]",85304.5,1669835983286,baked potato,turkeysandwich,8.5,8.16,-0.33999999999999986,turkeysandwich,969.5,970,970.0,True,i,86785.0,1480.5,1669835984766,1480,HRV,HRV_0248,2022-11-30 19:23:11
57,"[{'imgObject': {}, 'id': 'raisin bran w milk', 'src': '/static/foodstim60/raisin bran w milk.jpg', 'key': 'u', 'origWidth': 411, 'origHeight': 411, 'width': 411, 'height': 411, 'widthPercent': 0.45, 'rescaleHeight': False, 'trialN': 57, 'loaded': True, 'loadedTime': 4604.5, 'positionName': 'LEFT', 'positionCoords': [326.28, 226.5], 'bid': 5.1000000000000005}, {'imgObject': {}, 'id': 'chickenfingers', 'src': '/static/foodstim60/chickenfingers.jpg', 'key': 'i', 'origWidth': 410, 'origHeight': 410, 'width': 410, 'height': 410, 'widthPercent': 0.45, 'rescaleHeight': False, 'trialN': 57, 'loaded': True, 'loadedTime': 4277.799999952316, 'positionName': 'RIGHT', 'positionCoords': [798.72, 227], 'bid': 7.12}]",86785.60000002384,1669835984767,raisin bran w milk,chickenfingers,5.1000000000000005,7.12,2.0199999999999996,chickenfingers,773.5999999046326,774,774.0999999046326,True,i,88066.39999997616,1280.7999999523163,1669835986047,1280,HRV,HRV_0248,2022-11-30 19:23:11
58,"[{'imgObject': {}, 'id': 'popsicles', 'src': '/static/foodstim60/popsicles.jpg', 'key': 'u', 'origWidth': 410, 'origHeight': 410, 'width': 410, 'height': 410, 'widthPercent': 0.45, 'rescaleHeight': False, 'trialN': 58, 'loaded': True, 'loadedTime': 4652.699999928474, 'positionName': 'LEFT', 'positionCoords': [327.28, 227], 'bid': 4.97}, {'imgObject': {}, 'id': 'avocado', 'src': '/static/foodstim60/avocado.jpg', 'key': 'i', 'origWidth': 409, 'origHeight': 409, 'width': 409, 'height': 409, 'widthPercent': 0.45, 'rescaleHeight': False, 'trialN': 58, 'loaded': True, 'loadedTime': 4420, 'positionName': 'RIGHT', 'positionCoords': [798.72, 227.5], 'bid': 4.92}]",88066.60000002384,1669835986048,popsicles,avocado,4.97,4.92,-0.04999999999999982,avocado,841.8999999761581,842,842.2999999523163,True,i,89431.60000002384,1365.0,1669835987413,1365,HRV,HRV_0248,2022-11-30 19:23:11
59,"[{'imgObject': {}, 'id': 'cherry tomato', 'src': '/static/foodstim60/cherry tomato.jpg', 'key': 'u', 'origWidth': 410, 'origHeight': 410, 'width': 410, 'height': 410, 'widthPercent': 0.45, 'rescaleHeight': False, 'trialN': 59, 'loaded': True, 'loadedTime': 4541.5, 'positionName': 'LEFT', 'positionCoords': [327.28, 227], 'bid': 5.88}, {'imgObject': {}, 'id': 'mashed potato', 'src': '/static/foodstim60/mashed potato.jpg', 'key': 'i', 'origWidth': 409, 'origHeight': 409, 'width': 409, 'height': 409, 'widthPercent': 0.45, 'rescaleHeight': False, 'trialN': 59, 'loaded': True, 'loadedTime': 4584, 'positionName': 'RIGHT', 'positionCoords': [798.72, 227.5], 'bid': 6.87}]",89432.0,1669835987413,cherry tomato,mashed potato,5.88,6.87,0.9900000000000002,cherry tomato,728.6999999284744,729,729.1000000238419,True,u,90667.0,1235.0,1669835988648,1235,HRV,HRV_0248,2022-11-30 19:23:11
60,"[{'imgObject': {}, 'id': 'burrito', 'src': '/static/foodstim60/burrito.jpg', 'key': 'u', 'origWidth': 410, 'origHeight': 410, 'width': 410, 'height': 410, 'widthPercent': 0.45, 'rescaleHeight': False, 'trialN': 60, 'loaded': True, 'loadedTime': 4500.699999928474, 'positionName': 'LEFT', 'positionCoords': [327.28, 227], 'bid': 4.98}, {'imgObject': {}, 'id': 'grilled chicken strips', 'src': '/static/foodstim60/grilled chicken strips.jpg', 'key': 'i', 'origWidth': 410, 'origHeight': 411, 'width': 410, 'height': 411, 'widthPercent': 0.45, 'rescaleHeight': False, 'trialN': 60, 'loaded': True, 'loadedTime': 4553.699999928474, 'positionName': 'RIGHT', 'positionCoords': [798.72, 226.5], 'bid': 4.98}]",90667.5,1669835988649,burrito,grilled chicken strips,4.98,4.98,0.0,burrito,814.3999999761581,814,814.8999999761581,True,u,91997.39999997616,1329.8999999761581,1669835989978,1329,HRV,HRV_0248,2022-11-30 19:23:11
61,"[{'imgObject': {}, 'id': 'fruitsalad', 'src': '/static/foodstim60/fruitsalad.jpg', 'key': 'u', 'origWidth': 410, 'origHeight': 410, 'width': 410, 'height': 410, 'widthPercent': 0.45, 'rescaleHeight': False, 'trialN': 61, 'loaded': True, 'loadedTime': 4529.899999976158, 'positionName': 'LEFT', 'positionCoords': [327.28, 227], 'bid': 4.97}, {'imgObject': {}, 'id': 'popsicles', 'src': '/static/foodstim60/popsicles.jpg', 'key': 'i', 'origWidth': 410, 'origHeight': 410, 'width': 410, 'height': 410, 'widthPercent': 0.45, 'rescaleHeight': False, 'trialN': 61, 'loaded': True, 'loadedTime': 4652.699999928474, 'positionName': 'RIGHT', 'positionCoords': [798.72, 227], 'bid': 4.97}]",91997.69999992847,1669835989979,fruitsalad,popsicles,4.97,4.97,0.0,fruitsalad,816.6000000238419,817,817.0,True,u,93330.39999997616,1332.7000000476837,1669835991311,1332,HRV,HRV_0248,2022-11-30 19:23:11
62,"[{'imgObject': {}, 'id': 'raisin bran w milk', 'src': '/static/foodstim60/raisin bran w milk.jpg', 'key': 'u', 'origWidth': 411, 'origHeight': 411, 'width': 411, 'height': 411, 'widthPercent': 0.45, 'rescaleHeight': False, 'trialN': 62, 'loaded': True, 'loadedTime': 4604.799999952316, 'positionName': 'LEFT', 'positionCoords': [326.28, 226.5], 'bid': 5.1000000000000005}, {'imgObject': {}, 'id': 'sweetpotato', 'src': '/static/foodstim60/sweetpotato.jpg', 'key': 'i', 'origWidth': 410, 'origHeight': 410, 'width': 410, 'height': 410, 'widthPercent': 0.45, 'rescaleHeight': False, 'trialN': 62, 'loaded': True, 'loadedTime': 4238.899999976158, 'positionName': 'RIGHT', 'positionCoords': [798.72, 227], 'bid': 5.13}]",93330.69999992847,1669835991312,raisin bran w milk,sweetpotato,5.1000000000000005,5.13,0.02999999999999936,sweetpotato,918.3000000715256,918,918.7000000476837,True,i,94761.19999992847,1430.5,1669835992742,1430,HRV,HRV_0248,2022-11-30 19:23:11
63,"[{'imgObject': {}, 'id': 'fruitsalad', 'src': '/static/foodstim60/fruitsalad.jpg', 'key': 'u', 'origWidth': 410, 'origHeight': 410, 'width': 410, 'height': 410, 'widthPercent': 0.45, 'rescaleHeight': False, 'trialN': 63, 'loaded': True, 'loadedTime': 4531.799999952316, 'positionName': 'LEFT', 'positionCoords': [327.28, 227], 'bid': 4.97}, {'imgObject': {}, 'id': 'rigatoni', 'src': '/static/foodstim60/rigatoni.jpg', 'key': 'i', 'origWidth': 411, 'origHeight': 411, 'width': 411, 'height': 411, 'widthPercent': 0.45, 'rescaleHeight': False, 'trialN': 63, 'loaded': True, 'loadedTime': 4580.100000023842, 'positionName': 'RIGHT', 'positionCoords': [798.72, 226.5], 'bid': 5.0200000000000005}]",94761.39999997616,1669835992742,fruitsalad,rigatoni,4.97,5.0200000000000005,0.05000000000000071,fruitsalad,978.5,979,979.0,True,u,96254.39999997616,1493.0,1669835994236,1494,HRV,HRV_0248,2022-11-30 19:23:11
64,"[{'imgObject': {}, 'id': 'steak', 'src': '/static/foodstim60/steak.jpg', 'key': 'u', 'origWidth': 410, 'origHeight': 410, 'width': 410, 'height': 410, 'widthPercent': 0.45, 'rescaleHeight': False, 'trialN': 64, 'loaded': True, 'loadedTime': 4449.299999952316, 'positionName': 'LEFT', 'positionCoords': [327.28, 227], 'bid': 7.52}, {'imgObject': {}, 'id': 'olives', 'src': '/static/foodstim60/olives.jpg', 'key': 'i', 'origWidth': 410, 'origHeight': 410, 'width': 410, 'height': 410, 'widthPercent': 0.45, 'rescaleHeight': False, 'trialN': 64, 'loaded': True, 'loadedTime': 4472.799999952316, 'positionName': 'RIGHT', 'positionCoords': [798.72, 227], 'bid': 7.81}]",96254.79999995232,1669835994236,steak,olives,7.52,7.81,0.29000000000000004,steak,607.0,607,607.3999999761581,True,u,97376.60000002384,1121.8000000715256,1669835995358,1122,HRV,HRV_0248,2022-11-30 19:23:11
65,"[{'imgObject': {}, 'id': 'hashbrowns', 'src': '/static/foodstim60/hashbrowns.jpg', 'key': 'u', 'origWidth': 411, 'origHeight': 410, 'width': 411, 'height': 410, 'widthPercent': 0.45, 'rescaleHeight': False, 'trialN': 65, 'loaded': True, 'loadedTime': 4476.600000023842, 'positionName': 'LEFT', 'positionCoords': [326.28, 227], 'bid': 4.96}, {'imgObject': {}, 'id': 'granola w milk', 'src': '/static/foodstim60/granola w milk.jpg', 'key': 'i', 'origWidth': 410, 'origHeight': 410, 'width': 410, 'height': 410, 'widthPercent': 0.45, 'rescaleHeight': False, 'trialN': 65, 'loaded': True, 'loadedTime': 4644, 'positionName': 'RIGHT', 'positionCoords': [798.72, 227], 'bid': 5}]",97377.0,1669835995358,hashbrowns,granola w milk,4.96,5.0,0.040000000000000036,hashbrowns,837.7999999523163,829,838.1999999284744,True,u,98725.89999997616,1348.8999999761581,1669835996697,1339,HRV,HRV_0248,2022-11-30 19:23:11
66,"[{'imgObject': {}, 'id': 'bagel plain', 'src': '/static/foodstim60/bagel plain.jpg', 'key': 'u', 'origWidth': 410, 'origHeight': 410, 'width': 410, 'height': 410, 'widthPercent': 0.45, 'rescaleHeight': False, 'trialN': 66, 'loaded': True, 'loadedTime': 4645.899999976158, 'positionName': 'LEFT', 'positionCoords': [327.28, 227], 'bid': 2.57}, {'imgObject': {}, 'id': 'avocado', 'src': '/static/foodstim60/avocado.jpg', 'key': 'i', 'origWidth': 409, 'origHeight': 409, 'width': 409, 'height': 409, 'widthPercent': 0.45, 'rescaleHeight': False, 'trialN': 66, 'loaded': True, 'loadedTime': 4420.199999928474, 'positionName': 'RIGHT', 'positionCoords': [798.72, 227.5], 'bid': 4.92}]",98726.10000002384,1669835996698,bagel plain,avocado,2.57,4.92,2.35,avocado,682.5999999046326,683,683.0,True,i,99925.60000002384,1199.5,1669835997897,1199,HRV,HRV_0248,2022-11-30 19:23:11
67,"[{'imgObject': {}, 'id': 'steak', 'src': '/static/foodstim60/steak.jpg', 'key': 'u', 'origWidth': 410, 'origHeight': 410, 'width': 410, 'height': 410, 'widthPercent': 0.45, 'rescaleHeight': False, 'trialN': 67, 'loaded': True, 'loadedTime': 4462, 'positionName': 'LEFT', 'positionCoords': [327.28, 227], 'bid': 7.52}, {'imgObject': {}, 'id': 'grilled chicken strips', 'src': '/static/foodstim60/grilled chicken strips.jpg', 'key': 'i', 'origWidth': 410, 'origHeight': 411, 'width': 410, 'height': 411, 'widthPercent': 0.45, 'rescaleHeight': False, 'trialN': 67, 'loaded': True, 'loadedTime': 4555.100000023842, 'positionName': 'RIGHT', 'positionCoords': [798.72, 226.5], 'bid': 4.98}]",99926.0,1669835997898,steak,grilled chicken strips,7.52,4.98,-2.539999999999999,steak,637.1000000238419,637,637.7999999523163,True,u,101073.29999995232,1147.2999999523163,1669835999045,1147,HRV,HRV_0248,2022-11-30 19:23:11
68,"[{'imgObject': {}, 'id': 'roastedpotatoes', 'src': '/static/foodstim60/roastedpotatoes.jpg', 'key': 'u', 'origWidth': 409, 'origHeight': 410, 'width': 409, 'height': 410, 'widthPercent': 0.45, 'rescaleHeight': False, 'trialN': 68, 'loaded': True, 'loadedTime': 4311.899999976158, 'positionName': 'LEFT', 'positionCoords': [328.28, 227], 'bid': 5.01}, {'imgObject': {}, 'id': 'orange slices', 'src': '/static/foodstim60/orange slices.jpg', 'key': 'i', 'origWidth': 409, 'origHeight': 410, 'width': 409, 'height': 410, 'widthPercent': 0.45, 'rescaleHeight': False, 'trialN': 68, 'loaded': True, 'loadedTime': 4582.299999952316, 'positionName': 'RIGHT', 'positionCoords': [798.72, 227], 'bid': 4.97}]",101073.79999995232,1669835999045,roastedpotatoes,orange slices,5.01,4.97,-0.040000000000000036,roastedpotatoes,744.3000000715256,745,744.7000000476837,True,u,102323.19999992847,1249.3999999761581,1669836000295,1250,HRV,HRV_0248,2022-11-30 19:23:11
69,"[{'imgObject': {}, 'id': 'banana', 'src': '/static/foodstim60/banana.jpg', 'key': 'u', 'origWidth': 410, 'origHeight': 410, 'width': 410, 'height': 410, 'widthPercent': 0.45, 'rescaleHeight': False, 'trialN': 69, 'loaded': True, 'loadedTime': 4607.5, 'positionName': 'LEFT', 'positionCoords': [327.28, 227], 'bid': 4.97}, {'imgObject': {}, 'id': 'mango', 'src': '/static/foodstim60/mango.jpg', 'key': 'i', 'origWidth': 411, 'origHeight': 411, 'width': 411, 'height': 411, 'widthPercent': 0.45, 'rescaleHeight': False, 'trialN': 69, 'loaded': True, 'loadedTime': 4542.100000023842, 'positionName': 'RIGHT', 'positionCoords': [798.72, 226.5], 'bid': 4.98}]",102323.5,1669836000295,banana,mango,4.97,4.98,0.010000000000000675,mango,857.1000000238419,858,857.5,True,i,103703.0,1379.5,1669836001675,1380,HRV,HRV_0248,2022-11-30 19:23:11
70,"[{'imgObject': {}, 'id': 'raisin bran w milk', 'src': '/static/foodstim60/raisin bran w milk.jpg', 'key': 'u', 'origWidth': 411, 'origHeight': 411, 'width': 411, 'height': 411, 'widthPercent': 0.45, 'rescaleHeight': False, 'trialN': 70, 'loaded': True, 'loadedTime': 4604.600000023842, 'positionName': 'LEFT', 'positionCoords': [326.28, 226.5], 'bid': 5.1000000000000005}, {'imgObject': {}, 'id': 'salmon', 'src': '/static/foodstim60/salmon.jpg', 'key': 'i', 'origWidth': 410, 'origHeight': 409, 'width': 410, 'height': 409, 'widthPercent': 0.45, 'rescaleHeight': False, 'trialN': 70, 'loaded': True, 'loadedTime': 4598.299999952316, 'positionName': 'RIGHT', 'positionCoords': [798.72, 227.5], 'bid': 7.85}]",103703.19999992847,1669836001675,raisin bran w milk,salmon,5.1000000000000005,7.85,2.749999999999999,salmon,1132.0,1132,1132.5,True,i,105338.89999997616,1635.7000000476837,1669836003310,1635,HRV,HRV_0248,2022-11-30 19:23:11
71,"[{'imgObject': {}, 'id': 'turkey sandwich', 'src': '/static/foodstim60/turkey sandwich.jpg', 'key': 'u', 'origWidth': 409, 'origHeight': 409, 'width': 409, 'height': 409, 'widthPercent': 0.45, 'rescaleHeight': False, 'trialN': 71, 'loaded': True, 'loadedTime': 4626.899999976158, 'positionName': 'LEFT', 'positionCoords': [328.28, 227.5], 'bid': 8.99}, {'imgObject': {}, 'id': 'lox', 'src': '/static/foodstim60/lox.jpg', 'key': 'i', 'origWidth': 410, 'origHeight': 411, 'width': 410, 'height': 411, 'widthPercent': 0.45, 'rescaleHeight': False, 'trialN': 71, 'loaded': True, 'loadedTime': 4396.100000023842, 'positionName': 'RIGHT', 'positionCoords': [798.72, 226.5], 'bid': 7.13}]",105339.19999992847,1669836003311,turkey sandwich,lox,8.99,7.13,-1.8600000000000003,turkey sandwich,611.0,611,611.4000000953674,True,u,106470.39999997616,1131.2000000476837,1669836004442,1131,HRV,HRV_0248,2022-11-30 19:23:11
72,"[{'imgObject': {}, 'id': 'eggsalad', 'src': '/static/foodstim60/eggsalad.jpg', 'key': 'u', 'origWidth': 410, 'origHeight': 409, 'width': 410, 'height': 409, 'widthPercent': 0.45, 'rescaleHeight': False, 'trialN': 72, 'loaded': True, 'loadedTime': 4303.799999952316, 'positionName': 'LEFT', 'positionCoords': [327.28, 227.5], 'bid': 4.94}, {'imgObject': {}, 'id': 'sushi w_condiments', 'src': '/static/foodstim60/sushi w_condiments.jpg', 'key': 'i', 'origWidth': 410, 'origHeight': 410, 'width': 410, 'height': 410, 'widthPercent': 0.45, 'rescaleHeight': False, 'trialN': 72, 'loaded': True, 'loadedTime': 4364.899999976158, 'positionName': 'RIGHT', 'positionCoords': [798.72, 227], 'bid': 4.94}]",106470.79999995232,1669836004442,eggsalad,sushi w_condiments,4.94,4.94,0.0,eggsalad,995.5,996,996.1000000238419,True,u,107969.69999992847,1498.8999999761581,1669836005941,1499,HRV,HRV_0248,2022-11-30 19:23:11
73,"[{'imgObject': {}, 'id': 'eggs', 'src': '/static/foodstim60/eggs.jpg', 'key': 'u', 'origWidth': 409, 'origHeight': 409, 'width': 409, 'height': 409, 'widthPercent': 0.45, 'rescaleHeight': False, 'trialN': 73, 'loaded': True, 'loadedTime': 4623.699999928474, 'positionName': 'LEFT', 'positionCoords': [328.28, 227.5], 'bid': 9.28}, {'imgObject': {}, 'id': 'fried eggs', 'src': '/static/foodstim60/fried eggs.jpg', 'key': 'i', 'origWidth': 410, 'origHeight': 410, 'width': 410, 'height': 410, 'widthPercent': 0.45, 'rescaleHeight': False, 'trialN': 73, 'loaded': True, 'loadedTime': 4515.799999952316, 'positionName': 'RIGHT', 'positionCoords': [798.72, 227], 'bid': 9.9}]",107969.89999997616,1669836005942,eggs,fried eggs,9.28,9.9,0.620000000000001,eggs,632.3999999761581,632,632.7999999523163,True,u,109117.89999997616,1148.0,1669836007089,1147,HRV,HRV_0248,2022-11-30 19:23:11
74,"[{'imgObject': {}, 'id': 'granola w milk', 'src': '/static/foodstim60/granola w milk.jpg', 'key': 'u', 'origWidth': 410, 'origHeight': 410, 'width': 410, 'height': 410, 'widthPercent': 0.45, 'rescaleHeight': False, 'trialN': 74, 'loaded': True, 'loadedTime': 4644.100000023842, 'positionName': 'LEFT', 'positionCoords': [327.28, 227], 'bid': 5}, {'imgObject': {}, 'id': 'shreddedwheatwithmilk', 'src': '/static/foodstim60/shreddedwheatwithmilk.jpg', 'key': 'i', 'origWidth': 410, 'origHeight': 410, 'width': 410, 'height': 410, 'widthPercent': 0.45, 'rescaleHeight': False, 'trialN': 74, 'loaded': True, 'loadedTime': 4090.600000023842, 'positionName': 'RIGHT', 'positionCoords': [798.72, 227], 'bid': 5.05}]",109118.19999992847,1669836007090,granola w milk,shreddedwheatwithmilk,5.0,5.05,0.04999999999999982,granola w milk,1054.4000000953674,1055,1055.0,True,u,110683.5,1565.3000000715256,1669836008655,1565,HRV,HRV_0248,2022-11-30 19:23:11
75,"[{'imgObject': {}, 'id': 'kiwi', 'src': '/static/foodstim60/kiwi.jpg', 'key': 'u', 'origWidth': 410, 'origHeight': 410, 'width': 410, 'height': 410, 'widthPercent': 0.45, 'rescaleHeight': False, 'trialN': 75, 'loaded': True, 'loadedTime': 4180.100000023842, 'positionName': 'LEFT', 'positionCoords': [327.28, 227], 'bid': 5.0200000000000005}, {'imgObject': {}, 'id': 'fried eggs', 'src': '/static/foodstim60/fried eggs.jpg', 'key': 'i', 'origWidth': 410, 'origHeight': 410, 'width': 410, 'height': 410, 'widthPercent': 0.45, 'rescaleHeight': False, 'trialN': 75, 'loaded': True, 'loadedTime': 4529.5, 'positionName': 'RIGHT', 'positionCoords': [798.72, 227], 'bid': 9.9}]",110683.79999995232,1669836008655,kiwi,fried eggs,5.0200000000000005,9.9,4.88,fried eggs,834.0,835,834.5,True,i,112031.89999997616,1348.1000000238419,1669836010003,1348,HRV,HRV_0248,2022-11-30 19:23:11
76,"[{'imgObject': {}, 'id': 'granola w milk', 'src': '/static/foodstim60/granola w milk.jpg', 'key': 'u', 'origWidth': 410, 'origHeight': 410, 'width': 410, 'height': 410, 'widthPercent': 0.45, 'rescaleHeight': False, 'trialN': 76, 'loaded': True, 'loadedTime': 4644.199999928474, 'positionName': 'LEFT', 'positionCoords': [327.28, 227], 'bid': 5}, {'imgObject': {}, 'id': 'roastedpotatoes', 'src': '/static/foodstim60/roastedpotatoes.jpg', 'key': 'i', 'origWidth': 409, 'origHeight': 410, 'width': 409, 'height': 410, 'widthPercent': 0.45, 'rescaleHeight': False, 'trialN': 76, 'loaded': True, 'loadedTime': 4312, 'positionName': 'RIGHT', 'positionCoords': [798.72, 227], 'bid': 5.01}]",112032.19999992847,1669836010004,granola w milk,roastedpotatoes,5.0,5.01,0.009999999999999787,roastedpotatoes,777.0,777,777.3000000715256,True,i,113315.79999995232,1283.6000000238419,1669836011287,1283,HRV,HRV_0248,2022-11-30 19:23:11
77,"[{'imgObject': {}, 'id': 'tacos', 'src': '/static/foodstim60/tacos.jpg', 'key': 'u', 'origWidth': 411, 'origHeight': 411, 'width': 411, 'height': 411, 'widthPercent': 0.45, 'rescaleHeight': False, 'trialN': 77, 'loaded': True, 'loadedTime': 4515.399999976158, 'positionName': 'LEFT', 'positionCoords': [326.28, 226.5], 'bid': 8.48}, {'imgObject': {}, 'id': 'blueberries', 'src': '/static/foodstim60/blueberries.jpg', 'key': 'i', 'origWidth': 411, 'origHeight': 411, 'width': 411, 'height': 411, 'widthPercent': 0.45, 'rescaleHeight': False, 'trialN': 77, 'loaded': True, 'loadedTime': 4605.899999976158, 'positionName': 'RIGHT', 'positionCoords': [798.72, 226.5], 'bid': 5}]",113316.0,1669836011288,tacos,blueberries,8.48,5.0,-3.4800000000000004,tacos,1069.1999999284744,1069,1069.6999999284744,True,u,114896.10000002384,1580.1000000238419,1669836012868,1580,HRV,HRV_0248,2022-11-30 19:23:11
78,"[{'imgObject': {}, 'id': 'eggs', 'src': '/static/foodstim60/eggs.jpg', 'key': 'u', 'origWidth': 409, 'origHeight': 409, 'width': 409, 'height': 409, 'widthPercent': 0.45, 'rescaleHeight': False, 'trialN': 78, 'loaded': True, 'loadedTime': 4623.699999928474, 'positionName': 'LEFT', 'positionCoords': [328.28, 227.5], 'bid': 9.28}, {'imgObject': {}, 'id': 'hotdog w must', 'src': '/static/foodstim60/hotdog w must.jpg', 'key': 'i', 'origWidth': 409, 'origHeight': 409, 'width': 409, 'height': 409, 'widthPercent': 0.45, 'rescaleHeight': False, 'trialN': 78, 'loaded': True, 'loadedTime': 4277.399999976158, 'positionName': 'RIGHT', 'positionCoords': [798.72, 227.5], 'bid': 8.8}]",114896.5,1669836012868,eggs,hotdog w must,9.28,8.8,-0.47999999999999865,hotdog w must,1337.6999999284744,1338,1338.2999999523163,True,i,116744.19999992847,1847.6999999284744,1669836014716,1848,HRV,HRV_0248,2022-11-30 19:23:11
79,"[{'imgObject': {}, 'id': 'fruitsalad', 'src': '/static/foodstim60/fruitsalad.jpg', 'key': 'u', 'origWidth': 410, 'origHeight': 410, 'width': 410, 'height': 410, 'widthPercent': 0.45, 'rescaleHeight': False, 'trialN': 79, 'loaded': True, 'loadedTime': 4531.199999928474, 'positionName': 'LEFT', 'positionCoords': [327.28, 227], 'bid': 4.97}, {'imgObject': {}, 'id': 'banana', 'src': '/static/foodstim60/banana.jpg', 'key': 'i', 'origWidth': 410, 'origHeight': 410, 'width': 410, 'height': 410, 'widthPercent': 0.45, 'rescaleHeight': False, 'trialN': 79, 'loaded': True, 'loadedTime': 4607.5, 'positionName': 'RIGHT', 'positionCoords': [798.72, 227], 'bid': 4.97}]",116744.5,1669836014716,fruitsalad,banana,4.97,4.97,0.0,fruitsalad,1414.2999999523163,1415,1414.7999999523163,True,u,118677.29999995232,1932.7999999523163,1669836016649,1933,HRV,HRV_0248,2022-11-30 19:23:11
80,"[{'imgObject': {}, 'id': 'raspberries', 'src': '/static/foodstim60/raspberries.jpg', 'key': 'u', 'origWidth': 411, 'origHeight': 411, 'width': 411, 'height': 411, 'widthPercent': 0.45, 'rescaleHeight': False, 'trialN': 80, 'loaded': True, 'loadedTime': 4364.199999928474, 'positionName': 'LEFT', 'positionCoords': [326.28, 226.5], 'bid': 5}, {'imgObject': {}, 'id': 'blueberries', 'src': '/static/foodstim60/blueberries.jpg', 'key': 'i', 'origWidth': 411, 'origHeight': 411, 'width': 411, 'height': 411, 'widthPercent': 0.45, 'rescaleHeight': False, 'trialN': 80, 'loaded': True, 'loadedTime': 4606.100000023842, 'positionName': 'RIGHT', 'positionCoords': [798.72, 226.5], 'bid': 5}]",118677.60000002384,1669836016649,raspberries,blueberries,5.0,5.0,0.0,raspberries,1013.0999999046326,1014,1013.5,True,u,120194.69999992847,1517.0999999046326,1669836018166,1517,HRV,HRV_0248,2022-11-30 19:23:11
81,"[{'imgObject': {}, 'id': 'olives', 'src': '/static/foodstim60/olives.jpg', 'key': 'u', 'origWidth': 410, 'origHeight': 410, 'width': 410, 'height': 410, 'widthPercent': 0.45, 'rescaleHeight': False, 'trialN': 81, 'loaded': True, 'loadedTime': 4463.399999976158, 'positionName': 'LEFT', 'positionCoords': [327.28, 227], 'bid': 7.81}, {'imgObject': {}, 'id': 'shreddedwheatwithmilk', 'src': '/static/foodstim60/shreddedwheatwithmilk.jpg', 'key': 'i', 'origWidth': 410, 'origHeight': 410, 'width': 410, 'height': 410, 'widthPercent': 0.45, 'rescaleHeight': False, 'trialN': 81, 'loaded': True, 'loadedTime': 4158.299999952316, 'positionName': 'RIGHT', 'positionCoords': [798.72, 227], 'bid': 5.05}]",120195.0,1669836018167,olives,shreddedwheatwithmilk,7.81,5.05,-2.76,olives,713.3999999761581,713,713.7999999523163,True,u,121424.29999995232,1229.2999999523163,1669836019396,1229,HRV,HRV_0248,2022-11-30 19:23:11
82,"[{'imgObject': {}, 'id': 'Tribe humus pita', 'src': '/static/foodstim60/Tribe humus pita.jpg', 'key': 'u', 'origWidth': 411, 'origHeight': 411, 'width': 411, 'height': 411, 'widthPercent': 0.45, 'rescaleHeight': False, 'trialN': 82, 'loaded': True, 'loadedTime': 4621.100000023842, 'positionName': 'LEFT', 'positionCoords': [326.28, 226.5], 'bid': 5.0200000000000005}, {'imgObject': {}, 'id': 'eggs', 'src': '/static/foodstim60/eggs.jpg', 'key': 'i', 'origWidth': 409, 'origHeight': 409, 'width': 409, 'height': 409, 'widthPercent': 0.45, 'rescaleHeight': False, 'trialN': 82, 'loaded': True, 'loadedTime': 4623.899999976158, 'positionName': 'RIGHT', 'positionCoords': [798.72, 227.5], 'bid': 9.28}]",121424.5,1669836019396,Tribe humus pita,eggs,5.0200000000000005,9.28,4.259999999999999,eggs,873.1999999284744,874,873.6999999284744,True,i,122807.5,1383.0,1669836020779,1383,HRV,HRV_0248,2022-11-30 19:23:11
83,"[{'imgObject': {}, 'id': 'fruitsalad', 'src': '/static/foodstim60/fruitsalad.jpg', 'key': 'u', 'origWidth': 410, 'origHeight': 410, 'width': 410, 'height': 410, 'widthPercent': 0.45, 'rescaleHeight': False, 'trialN': 83, 'loaded': True, 'loadedTime': 4538.899999976158, 'positionName': 'LEFT', 'positionCoords': [327.28, 227], 'bid': 4.97}, {'imgObject': {}, 'id': 'bagel plain', 'src': '/static/foodstim60/bagel plain.jpg', 'key': 'i', 'origWidth': 410, 'origHeight': 410, 'width': 410, 'height': 410, 'widthPercent': 0.45, 'rescaleHeight': False, 'trialN': 83, 'loaded': True, 'loadedTime': 4644.399999976158, 'positionName': 'RIGHT', 'positionCoords': [798.72, 227], 'bid': 2.57}]",122807.69999992847,1669836020779,fruitsalad,bagel plain,4.97,2.57,-2.4,fruitsalad,957.7000000476837,958,958.2000000476837,True,u,124272.10000002384,1464.4000000953674,1669836022244,1465,HRV,HRV_0248,2022-11-30 19:23:11
84,"[{'imgObject': {}, 'id': 'sushi w_condiments', 'src': '/static/foodstim60/sushi w_condiments.jpg', 'key': 'u', 'origWidth': 410, 'origHeight': 410, 'width': 410, 'height': 410, 'widthPercent': 0.45, 'rescaleHeight': False, 'trialN': 84, 'loaded': True, 'loadedTime': 4366.199999928474, 'positionName': 'LEFT', 'positionCoords': [327.28, 227], 'bid': 4.94}, {'imgObject': {}, 'id': 'pear', 'src': '/static/foodstim60/pear.jpg', 'key': 'i', 'origWidth': 411, 'origHeight': 410, 'width': 411, 'height': 410, 'widthPercent': 0.45, 'rescaleHeight': False, 'trialN': 84, 'loaded': True, 'loadedTime': 4648.299999952316, 'positionName': 'RIGHT', 'positionCoords': [798.72, 227], 'bid': 4.98}]",124272.39999997616,1669836022244,sushi w_condiments,pear,4.94,4.98,0.040000000000000036,sushi w_condiments,1284.1000000238419,1285,1284.6000000238419,True,u,126070.0,1797.6000000238419,1669836024042,1798,HRV,HRV_0248,2022-11-30 19:23:11
85,"[{'imgObject': {}, 'id': 'tacos', 'src': '/static/foodstim60/tacos.jpg', 'key': 'u', 'origWidth': 411, 'origHeight': 411, 'width': 411, 'height': 411, 'widthPercent': 0.45, 'rescaleHeight': False, 'trialN': 85, 'loaded': True, 'loadedTime': 4515.600000023842, 'positionName': 'LEFT', 'positionCoords': [326.28, 226.5], 'bid': 8.48}, {'imgObject': {}, 'id': 'turkeysandwich', 'src': '/static/foodstim60/turkeysandwich.jpg', 'key': 'i', 'origWidth': 409, 'origHeight': 409, 'width': 409, 'height': 409, 'widthPercent': 0.45, 'rescaleHeight': False, 'trialN': 85, 'loaded': True, 'loadedTime': 4377.600000023842, 'positionName': 'RIGHT', 'positionCoords': [798.72, 227.5], 'bid': 8.16}]",126070.39999997616,1669836024042,tacos,turkeysandwich,8.48,8.16,-0.3200000000000003,tacos,707.2999999523163,708,707.7000000476837,True,u,127285.60000002384,1215.2000000476837,1669836025257,1215,HRV,HRV_0248,2022-11-30 19:23:11
86,"[{'imgObject': {}, 'id': 'bagel and cc', 'src': '/static/foodstim60/bagel and cc.jpg', 'key': 'u', 'origWidth': 410, 'origHeight': 410, 'width': 410, 'height': 410, 'widthPercent': 0.45, 'rescaleHeight': False, 'trialN': 86, 'loaded': True, 'loadedTime': 4563.199999928474, 'positionName': 'LEFT', 'positionCoords': [327.28, 227], 'bid': 1.52}, {'imgObject': {}, 'id': 'sushi w_condiments', 'src': '/static/foodstim60/sushi w_condiments.jpg', 'key': 'i', 'origWidth': 410, 'origHeight': 410, 'width': 410, 'height': 410, 'widthPercent': 0.45, 'rescaleHeight': False, 'trialN': 86, 'loaded': True, 'loadedTime': 4366.699999928474, 'positionName': 'RIGHT', 'positionCoords': [798.72, 227], 'bid': 4.94}]",127285.89999997616,1669836025257,bagel and cc,sushi w_condiments,1.52,4.94,3.4200000000000004,sushi w_condiments,1120.2000000476837,1121,1120.7999999523163,True,i,128918.79999995232,1632.8999999761581,1669836026890,1633,HRV,HRV_0248,2022-11-30 19:23:11
87,"[{'imgObject': {}, 'id': 'cantaloupe', 'src': '/static/foodstim60/cantaloupe.jpg', 'key': 'u', 'origWidth': 409, 'origHeight': 409, 'width': 409, 'height': 409, 'widthPercent': 0.45, 'rescaleHeight': False, 'trialN': 87, 'loaded': True, 'loadedTime': 4348.399999976158, 'positionName': 'LEFT', 'positionCoords': [328.28, 227.5], 'bid': 5.05}, {'imgObject': {}, 'id': 'roastedpotatoes', 'src': '/static/foodstim60/roastedpotatoes.jpg', 'key': 'i', 'origWidth': 409, 'origHeight': 410, 'width': 409, 'height': 410, 'widthPercent': 0.45, 'rescaleHeight': False, 'trialN': 87, 'loaded': True, 'loadedTime': 4312.100000023842, 'positionName': 'RIGHT', 'positionCoords': [798.72, 227], 'bid': 5.01}]",128919.0,1669836026891,cantaloupe,roastedpotatoes,5.05,5.01,-0.040000000000000036,roastedpotatoes,1116.2999999523163,1116,1116.7999999523163,True,i,130550.89999997616,1631.8999999761581,1669836028522,1631,HRV,HRV_0248,2022-11-30 19:23:11
88,"[{'imgObject': {}, 'id': 'raspberries', 'src': '/static/foodstim60/raspberries.jpg', 'key': 'u', 'origWidth': 411, 'origHeight': 411, 'width': 411, 'height': 411, 'widthPercent': 0.45, 'rescaleHeight': False, 'trialN': 88, 'loaded': True, 'loadedTime': 4351.399999976158, 'positionName': 'LEFT', 'positionCoords': [326.28, 226.5], 'bid': 5}, {'imgObject': {}, 'id': 'cocktailshrimp', 'src': '/static/foodstim60/cocktailshrimp.jpg', 'key': 'i', 'origWidth': 410, 'origHeight': 410, 'width': 410, 'height': 410, 'widthPercent': 0.45, 'rescaleHeight': False, 'trialN': 88, 'loaded': True, 'loadedTime': 4585.600000023842, 'positionName': 'RIGHT', 'positionCoords': [798.72, 227], 'bid': 8.08}]",130551.10000002384,1669836028523,raspberries,cocktailshrimp,5.0,8.08,3.08,cocktailshrimp,1289.5999999046326,1290,1290.0,True,i,132348.89999997616,1797.7999999523163,1669836030320,1797,HRV,HRV_0248,2022-11-30 19:23:11
89,"[{'imgObject': {}, 'id': 'cantaloupe', 'src': '/static/foodstim60/cantaloupe.jpg', 'key': 'u', 'origWidth': 409, 'origHeight': 409, 'width': 409, 'height': 409, 'widthPercent': 0.45, 'rescaleHeight': False, 'trialN': 89, 'loaded': True, 'loadedTime': 4339.699999928474, 'positionName': 'LEFT', 'positionCoords': [328.28, 227.5], 'bid': 5.05}, {'imgObject': {}, 'id': 'bagel plain', 'src': '/static/foodstim60/bagel plain.jpg', 'key': 'i', 'origWidth': 410, 'origHeight': 410, 'width': 410, 'height': 410, 'widthPercent': 0.45, 'rescaleHeight': False, 'trialN': 89, 'loaded': True, 'loadedTime': 4645.5, 'positionName': 'RIGHT', 'positionCoords': [798.72, 227], 'bid': 2.57}]",132349.39999997616,1669836030321,cantaloupe,bagel plain,5.05,2.57,-2.48,cantaloupe,908.3999999761581,909,909.0,True,u,133763.89999997616,1414.5,1669836031736,1415,HRV,HRV_0248,2022-11-30 19:23:11
90,"[{'imgObject': {}, 'id': 'cherry tomato', 'src': '/static/foodstim60/cherry tomato.jpg', 'key': 'u', 'origWidth': 410, 'origHeight': 410, 'width': 410, 'height': 410, 'widthPercent': 0.45, 'rescaleHeight': False, 'trialN': 90, 'loaded': True, 'loadedTime': 4542, 'positionName': 'LEFT', 'positionCoords': [327.28, 227], 'bid': 5.88}, {'imgObject': {}, 'id': 'omelette', 'src': '/static/foodstim60/omelette.jpg', 'key': 'i', 'origWidth': 410, 'origHeight': 409, 'width': 410, 'height': 409, 'widthPercent': 0.45, 'rescaleHeight': False, 'trialN': 90, 'loaded': True, 'loadedTime': 4502.699999928474, 'positionName': 'RIGHT', 'positionCoords': [798.72, 227.5], 'bid': 5.07}]",158161.60000002384,1669836056133,cherry tomato,omelette,5.88,5.07,-0.8099999999999996,cherry tomato,1751.5999999046326,1762,1752.1999999284744,True,u,160428.0,2266.399999976158,1669836058409,2276,HRV,HRV_0248,2022-11-30 19:23:11
91,"[{'imgObject': {}, 'id': 'raisin bran w milk', 'src': '/static/foodstim60/raisin bran w milk.jpg', 'key': 'u', 'origWidth': 411, 'origHeight': 411, 'width': 411, 'height': 411, 'widthPercent': 0.45, 'rescaleHeight': False, 'trialN': 91, 'loaded': True, 'loadedTime': 4603.699999928474, 'positionName': 'LEFT', 'positionCoords': [326.28, 226.5], 'bid': 5.1000000000000005}, {'imgObject': {}, 'id': 'blackbeanswithrice', 'src': '/static/foodstim60/blackbeanswithrice.jpg', 'key': 'i', 'origWidth': 410, 'origHeight': 410, 'width': 410, 'height': 410, 'widthPercent': 0.45, 'rescaleHeight': False, 'trialN': 91, 'loaded': True, 'loadedTime': 4227.399999976158, 'positionName': 'RIGHT', 'positionCoords': [798.72, 227], 'bid': 5.33}]",160428.19999992847,1669836058410,raisin bran w milk,blackbeanswithrice,5.1000000000000005,5.33,0.22999999999999954,blackbeanswithrice,1211.1000000238419,1211,1211.4000000953674,True,i,162159.89999997616,1731.7000000476837,1669836060141,1731,HRV,HRV_0248,2022-11-30 19:23:11
92,"[{'imgObject': {}, 'id': 'ice cream sundae 002', 'src': '/static/foodstim60/ice cream sundae 002.jpg', 'key': 'u', 'origWidth': 409, 'origHeight': 409, 'width': 409, 'height': 409, 'widthPercent': 0.45, 'rescaleHeight': False, 'trialN': 92, 'loaded': True, 'loadedTime': 4396, 'positionName': 'LEFT', 'positionCoords': [328.28, 227.5], 'bid': 5}, {'imgObject': {}, 'id': 'cantaloupe', 'src': '/static/foodstim60/cantaloupe.jpg', 'key': 'i', 'origWidth': 409, 'origHeight': 409, 'width': 409, 'height': 409, 'widthPercent': 0.45, 'rescaleHeight': False, 'trialN': 92, 'loaded': True, 'loadedTime': 4348.100000023842, 'positionName': 'RIGHT', 'positionCoords': [798.72, 227.5], 'bid': 5.05}]",162160.10000002384,1669836060142,ice cream sundae 002,cantaloupe,5.0,5.05,0.04999999999999982,cantaloupe,1342.7999999523163,1343,1343.2999999523163,True,i,164024.29999995232,1864.1999999284744,1669836062006,1864,HRV,HRV_0248,2022-11-30 19:23:11
93,"[{'imgObject': {}, 'id': 'cocktailshrimp', 'src': '/static/foodstim60/cocktailshrimp.jpg', 'key': 'u', 'origWidth': 410, 'origHeight': 410, 'width': 410, 'height': 410, 'widthPercent': 0.45, 'rescaleHeight': False, 'trialN': 93, 'loaded': True, 'loadedTime': 4597.799999952316, 'positionName': 'LEFT', 'positionCoords': [327.28, 227], 'bid': 8.08}, {'imgObject': {}, 'id': 'luckycharms', 'src': '/static/foodstim60/luckycharms.jpg', 'key': 'i', 'origWidth': 410, 'origHeight': 409, 'width': 410, 'height': 409, 'widthPercent': 0.45, 'rescaleHeight': False, 'trialN': 93, 'loaded': True, 'loadedTime': 4320.699999928474, 'positionName': 'RIGHT', 'positionCoords': [798.72, 227.5], 'bid': 5.0600000000000005}]",164024.60000002384,1669836062006,cocktailshrimp,luckycharms,8.08,5.0600000000000005,-3.0199999999999996,cocktailshrimp,745.0,745,745.3999999761581,True,u,165275.60000002384,1251.0,1669836063257,1251,HRV,HRV_0248,2022-11-30 19:23:11
94,"[{'imgObject': {}, 'id': 'chickenfingers', 'src': '/static/foodstim60/chickenfingers.jpg', 'key': 'u', 'origWidth': 410, 'origHeight': 410, 'width': 410, 'height': 410, 'widthPercent': 0.45, 'rescaleHeight': False, 'trialN': 94, 'loaded': True, 'loadedTime': 4289.299999952316, 'positionName': 'LEFT', 'positionCoords': [327.28, 227], 'bid': 7.12}, {'imgObject': {}, 'id': 'pear', 'src': '/static/foodstim60/pear.jpg', 'key': 'i', 'origWidth': 411, 'origHeight': 410, 'width': 411, 'height': 410, 'widthPercent': 0.45, 'rescaleHeight': False, 'trialN': 94, 'loaded': True, 'loadedTime': 4648, 'positionName': 'RIGHT', 'positionCoords': [798.72, 227], 'bid': 4.98}]",165276.19999992847,1669836063258,chickenfingers,pear,7.12,4.98,-2.1399999999999997,chickenfingers,872.8000000715256,873,873.2000000476837,True,u,166671.0,1394.8000000715256,1669836064652,1394,HRV,HRV_0248,2022-11-30 19:23:11
95,"[{'imgObject': {}, 'id': 'rigatoni and sauce', 'src': '/static/foodstim60/rigatoni and sauce.jpg', 'key': 'u', 'origWidth': 410, 'origHeight': 411, 'width': 410, 'height': 411, 'widthPercent': 0.45, 'rescaleHeight': False, 'trialN': 95, 'loaded': True, 'loadedTime': 4649.899999976158, 'positionName': 'LEFT', 'positionCoords': [327.28, 226.5], 'bid': 4.93}, {'imgObject': {}, 'id': 'mac & cheese', 'src': '/static/foodstim60/mac & cheese.jpg', 'key': 'i', 'origWidth': 410, 'origHeight': 410, 'width': 410, 'height': 410, 'widthPercent': 0.45, 'rescaleHeight': False, 'trialN': 95, 'loaded': True, 'loadedTime': 4264.399999976158, 'positionName': 'RIGHT', 'positionCoords': [798.72, 227], 'bid': 5.05}]",166671.19999992847,1669836064653,rigatoni and sauce,mac & cheese,4.93,5.05,0.1200000000000001,rigatoni and sauce,800.5,801,801.0,True,u,167973.19999992847,1302.0,1669836065955,1302,HRV,HRV_0248,2022-11-30 19:23:11
96,"[{'imgObject': {}, 'id': 'mac & cheese', 'src': '/static/foodstim60/mac & cheese.jpg', 'key': 'u', 'origWidth': 410, 'origHeight': 410, 'width': 410, 'height': 410, 'widthPercent': 0.45, 'rescaleHeight': False, 'trialN': 96, 'loaded': True, 'loadedTime': 4264.299999952316, 'positionName': 'LEFT', 'positionCoords': [327.28, 227], 'bid': 5.05}, {'imgObject': {}, 'id': 'kiwi', 'src': '/static/foodstim60/kiwi.jpg', 'key': 'i', 'origWidth': 410, 'origHeight': 410, 'width': 410, 'height': 410, 'widthPercent': 0.45, 'rescaleHeight': False, 'trialN': 96, 'loaded': True, 'loadedTime': 4180.299999952316, 'positionName': 'RIGHT', 'positionCoords': [798.72, 227], 'bid': 5.0200000000000005}]",167973.5,1669836065955,mac & cheese,kiwi,5.05,5.0200000000000005,-0.02999999999999936,mac & cheese,1064.1000000238419,1064,1064.3999999761581,True,u,169553.19999992847,1579.6999999284744,1669836067535,1580,HRV,HRV_0248,2022-11-30 19:23:11
97,"[{'imgObject': {}, 'id': 'hotdog w must', 'src': '/static/foodstim60/hotdog w must.jpg', 'key': 'u', 'origWidth': 409, 'origHeight': 409, 'width': 409, 'height': 409, 'widthPercent': 0.45, 'rescaleHeight': False, 'trialN': 97, 'loaded': True, 'loadedTime': 4276.799999952316, 'positionName': 'LEFT', 'positionCoords': [328.28, 227.5], 'bid': 8.8}, {'imgObject': {}, 'id': 'turkey sandwich', 'src': '/static/foodstim60/turkey sandwich.jpg', 'key': 'i', 'origWidth': 409, 'origHeight': 409, 'width': 409, 'height': 409, 'widthPercent': 0.45, 'rescaleHeight': False, 'trialN': 97, 'loaded': True, 'loadedTime': 4627.100000023842, 'positionName': 'RIGHT', 'positionCoords': [798.72, 227.5], 'bid': 8.99}]",169553.89999997616,1669836067535,hotdog w must,turkey sandwich,8.8,8.99,0.1899999999999995,turkey sandwich,1012.5,1013,1012.8999999761581,True,i,171070.29999995232,1516.3999999761581,1669836069052,1517,HRV,HRV_0248,2022-11-30 19:23:11
98,"[{'imgObject': {}, 'id': 'salmon', 'src': '/static/foodstim60/salmon.jpg', 'key': 'u', 'origWidth': 410, 'origHeight': 409, 'width': 410, 'height': 409, 'widthPercent': 0.45, 'rescaleHeight': False, 'trialN': 98, 'loaded': True, 'loadedTime': 4599.899999976158, 'positionName': 'LEFT', 'positionCoords': [327.28, 227.5], 'bid': 7.85}, {'imgObject': {}, 'id': 'hotdog w must', 'src': '/static/foodstim60/hotdog w must.jpg', 'key': 'i', 'origWidth': 409, 'origHeight': 409, 'width': 409, 'height': 409, 'widthPercent': 0.45, 'rescaleHeight': False, 'trialN': 98, 'loaded': True, 'loadedTime': 4277.299999952316, 'positionName': 'RIGHT', 'positionCoords': [798.72, 227.5], 'bid': 8.8}]",171070.79999995232,1669836069052,salmon,hotdog w must,7.85,8.8,0.9500000000000011,hotdog w must,782.8999999761581,783,783.2000000476837,True,i,172367.89999997616,1297.1000000238419,1669836070349,1297,HRV,HRV_0248,2022-11-30 19:23:11
99,"[{'imgObject': {}, 'id': 'cantaloupe', 'src': '/static/foodstim60/cantaloupe.jpg', 'key': 'u', 'origWidth': 409, 'origHeight': 409, 'width': 409, 'height': 409, 'widthPercent': 0.45, 'rescaleHeight': False, 'trialN': 99, 'loaded': True, 'loadedTime': 4350.199999928474, 'positionName': 'LEFT', 'positionCoords': [328.28, 227.5], 'bid': 5.05}, {'imgObject': {}, 'id': 'lox', 'src': '/static/foodstim60/lox.jpg', 'key': 'i', 'origWidth': 410, 'origHeight': 411, 'width': 410, 'height': 411, 'widthPercent': 0.45, 'rescaleHeight': False, 'trialN': 99, 'loaded': True, 'loadedTime': 4397.399999976158, 'positionName': 'RIGHT', 'positionCoords': [798.72, 226.5], 'bid': 7.13}]",172368.39999997616,1669836070350,cantaloupe,lox,5.05,7.13,2.08,lox,1006.0,1006,1006.6000000238419,True,i,173882.0,1513.6000000238419,1669836071863,1513,HRV,HRV_0248,2022-11-30 19:23:11
100,"[{'imgObject': {}, 'id': 'blackbeanswithrice', 'src': '/static/foodstim60/blackbeanswithrice.jpg', 'key': 'u', 'origWidth': 410, 'origHeight': 410, 'width': 410, 'height': 410, 'widthPercent': 0.45, 'rescaleHeight': False, 'trialN': 100, 'loaded': True, 'loadedTime': 4216.899999976158, 'positionName': 'LEFT', 'positionCoords': [327.28, 227], 'bid': 5.33}, {'imgObject': {}, 'id': 'turkey sandwich', 'src': '/static/foodstim60/turkey sandwich.jpg', 'key': 'i', 'origWidth': 409, 'origHeight': 409, 'width': 409, 'height': 409, 'widthPercent': 0.45, 'rescaleHeight': False, 'trialN': 100, 'loaded': True, 'loadedTime': 4625.899999976158, 'positionName': 'RIGHT', 'positionCoords': [798.72, 227.5], 'bid': 8.99}]",173882.5,1669836071864,blackbeanswithrice,turkey sandwich,5.33,8.99,3.66,turkey sandwich,865.6000000238419,866,866.1000000238419,True,i,175250.19999992847,1367.6999999284744,1669836073232,1368,HRV,HRV_0248,2022-11-30 19:23:11
101,"[{'imgObject': {}, 'id': 'ice cream sundae 002', 'src': '/static/foodstim60/ice cream sundae 002.jpg', 'key': 'u', 'origWidth': 409, 'origHeight': 409, 'width': 409, 'height': 409, 'widthPercent': 0.45, 'rescaleHeight': False, 'trialN': 101, 'loaded': True, 'loadedTime': 4395.299999952316, 'positionName': 'LEFT', 'positionCoords': [328.28, 227.5], 'bid': 5}, {'imgObject': {}, 'id': 'cherries', 'src': '/static/foodstim60/cherries.jpg', 'key': 'i', 'origWidth': 410, 'origHeight': 411, 'width': 410, 'height': 411, 'widthPercent': 0.45, 'rescaleHeight': False, 'trialN': 101, 'loaded': True, 'loadedTime': 4321.399999976158, 'positionName': 'RIGHT', 'positionCoords': [798.72, 226.5], 'bid': 5}]",175250.5,1669836073232,ice cream sundae 002,cherries,5.0,5.0,0.0,cherries,1017.8999999761581,1018,1018.1999999284744,True,i,176780.79999995232,1530.2999999523163,1669836074762,1530,HRV,HRV_0248,2022-11-30 19:23:11
102,"[{'imgObject': {}, 'id': 'olives', 'src': '/static/foodstim60/olives.jpg', 'key': 'u', 'origWidth': 410, 'origHeight': 410, 'width': 410, 'height': 410, 'widthPercent': 0.45, 'rescaleHeight': False, 'trialN': 102, 'loaded': True, 'loadedTime': 4464, 'positionName': 'LEFT', 'positionCoords': [327.28, 227], 'bid': 7.81}, {'imgObject': {}, 'id': 'cocktailshrimp', 'src': '/static/foodstim60/cocktailshrimp.jpg', 'key': 'i', 'origWidth': 410, 'origHeight': 410, 'width': 410, 'height': 410, 'widthPercent': 0.45, 'rescaleHeight': False, 'trialN': 102, 'loaded': True, 'loadedTime': 4585.799999952316, 'positionName': 'RIGHT', 'positionCoords': [798.72, 227], 'bid': 8.08}]",176781.0,1669836074762,olives,cocktailshrimp,7.81,8.08,0.27000000000000046,olives,788.6999999284744,790,789.1000000238419,True,u,178081.0,1300.0,1669836076062,1300,HRV,HRV_0248,2022-11-30 19:23:11
103,"[{'imgObject': {}, 'id': 'turkeysandwich', 'src': '/static/foodstim60/turkeysandwich.jpg', 'key': 'u', 'origWidth': 409, 'origHeight': 409, 'width': 409, 'height': 409, 'widthPercent': 0.45, 'rescaleHeight': False, 'trialN': 103, 'loaded': True, 'loadedTime': 4381.600000023842, 'positionName': 'LEFT', 'positionCoords': [328.28, 227.5], 'bid': 8.16}, {'imgObject': {}, 'id': 'blackbeanswithrice', 'src': '/static/foodstim60/blackbeanswithrice.jpg', 'key': 'i', 'origWidth': 410, 'origHeight': 410, 'width': 410, 'height': 410, 'widthPercent': 0.45, 'rescaleHeight': False, 'trialN': 103, 'loaded': True, 'loadedTime': 4227.600000023842, 'positionName': 'RIGHT', 'positionCoords': [798.72, 227], 'bid': 5.33}]",178081.19999992847,1669836076063,turkeysandwich,blackbeanswithrice,8.16,5.33,-2.83,turkeysandwich,833.5,833,833.8000000715256,True,u,179428.69999992847,1347.5,1669836077410,1347,HRV,HRV_0248,2022-11-30 19:23:11
104,"[{'imgObject': {}, 'id': 'veggieswithdip', 'src': '/static/foodstim60/veggieswithdip.jpg', 'key': 'u', 'origWidth': 409, 'origHeight': 409, 'width': 409, 'height': 409, 'widthPercent': 0.45, 'rescaleHeight': False, 'trialN': 104, 'loaded': True, 'loadedTime': 4406.399999976158, 'positionName': 'LEFT', 'positionCoords': [328.28, 227.5], 'bid': 5.03}, {'imgObject': {}, 'id': 'mashed potato', 'src': '/static/foodstim60/mashed potato.jpg', 'key': 'i', 'origWidth': 409, 'origHeight': 409, 'width': 409, 'height': 409, 'widthPercent': 0.45, 'rescaleHeight': False, 'trialN': 104, 'loaded': True, 'loadedTime': 4582.799999952316, 'positionName': 'RIGHT', 'positionCoords': [798.72, 227.5], 'bid': 6.87}]",179429.0,1669836077410,veggieswithdip,mashed potato,5.03,6.87,1.8399999999999999,mashed potato,934.5,935,935.0,True,i,180878.19999992847,1449.1999999284744,1669836078860,1450,HRV,HRV_0248,2022-11-30 19:23:11
105,"[{'imgObject': {}, 'id': 'steak', 'src': '/static/foodstim60/steak.jpg', 'key': 'u', 'origWidth': 410, 'origHeight': 410, 'width': 410, 'height': 410, 'widthPercent': 0.45, 'rescaleHeight': False, 'trialN': 105, 'loaded': True, 'loadedTime': 4450.699999928474, 'positionName': 'LEFT', 'positionCoords': [327.28, 227], 'bid': 7.52}, {'imgObject': {}, 'id': 'salmon', 'src': '/static/foodstim60/salmon.jpg', 'key': 'i', 'origWidth': 410, 'origHeight': 409, 'width': 410, 'height': 409, 'widthPercent': 0.45, 'rescaleHeight': False, 'trialN': 105, 'loaded': True, 'loadedTime': 4599.899999976158, 'positionName': 'RIGHT', 'positionCoords': [798.72, 227.5], 'bid': 7.85}]",180878.39999997616,1669836078860,steak,salmon,7.52,7.85,0.33000000000000007,steak,1099.7000000476837,1100,1100.0,True,u,182492.39999997616,1614.0,1669836080474,1614,HRV,HRV_0248,2022-11-30 19:23:11
106,"[{'imgObject': {}, 'id': 'eggsalad', 'src': '/static/foodstim60/eggsalad.jpg', 'key': 'u', 'origWidth': 410, 'origHeight': 409, 'width': 410, 'height': 409, 'widthPercent': 0.45, 'rescaleHeight': False, 'trialN': 106, 'loaded': True, 'loadedTime': 4301.899999976158, 'positionName': 'LEFT', 'positionCoords': [327.28, 227.5], 'bid': 4.94}, {'imgObject': {}, 'id': 'ice cream sundae 002', 'src': '/static/foodstim60/ice cream sundae 002.jpg', 'key': 'i', 'origWidth': 409, 'origHeight': 409, 'width': 409, 'height': 409, 'widthPercent': 0.45, 'rescaleHeight': False, 'trialN': 106, 'loaded': True, 'loadedTime': 4382.199999928474, 'positionName': 'RIGHT', 'positionCoords': [798.72, 227.5], 'bid': 5}]",182492.89999997616,1669836080474,eggsalad,ice cream sundae 002,4.94,5.0,0.05999999999999961,eggsalad,1151.1000000238419,1152,1151.5,True,u,184159.19999992847,1666.2999999523163,1669836082141,1667,HRV,HRV_0248,2022-11-30 19:23:11
107,"[{'imgObject': {}, 'id': 'mango', 'src': '/static/foodstim60/mango.jpg', 'key': 'u', 'origWidth': 411, 'origHeight': 411, 'width': 411, 'height': 411, 'widthPercent': 0.45, 'rescaleHeight': False, 'trialN': 107, 'loaded': True, 'loadedTime': 4551.600000023842, 'positionName': 'LEFT', 'positionCoords': [326.28, 226.5], 'bid': 4.98}, {'imgObject': {}, 'id': 'rigatoni and sauce', 'src': '/static/foodstim60/rigatoni and sauce.jpg', 'key': 'i', 'origWidth': 410, 'origHeight': 411, 'width': 410, 'height': 411, 'widthPercent': 0.45, 'rescaleHeight': False, 'trialN': 107, 'loaded': True, 'loadedTime': 4649.899999976158, 'positionName': 'RIGHT', 'positionCoords': [798.72, 226.5], 'bid': 4.93}]",184159.5,1669836082141,mango,rigatoni and sauce,4.98,4.93,-0.05000000000000071,rigatoni and sauce,983.6999999284744,984,983.8999999761581,True,i,185657.19999992847,1497.6999999284744,1669836083639,1498,HRV,HRV_0248,2022-11-30 19:23:11
108,"[{'imgObject': {}, 'id': 'strawberries', 'src': '/static/foodstim60/strawberries.jpg', 'key': 'u', 'origWidth': 410, 'origHeight': 410, 'width': 410, 'height': 410, 'widthPercent': 0.45, 'rescaleHeight': False, 'trialN': 108, 'loaded': True, 'loadedTime': 4622.299999952316, 'positionName': 'LEFT', 'positionCoords': [327.28, 227], 'bid': 5.1000000000000005}, {'imgObject': {}, 'id': 'edamame', 'src': '/static/foodstim60/edamame.jpg', 'key': 'i', 'origWidth': 409, 'origHeight': 410, 'width': 409, 'height': 410, 'widthPercent': 0.45, 'rescaleHeight': False, 'trialN': 108, 'loaded': True, 'loadedTime': 4338.600000023842, 'positionName': 'RIGHT', 'positionCoords': [798.72, 227], 'bid': 5.0600000000000005}]",185657.5,1669836083639,strawberries,edamame,5.1000000000000005,5.0600000000000005,-0.040000000000000036,edamame,1420.1999999284744,1421,1420.6000000238419,True,i,187589.69999992847,1932.1999999284744,1669836085571,1932,HRV,HRV_0248,2022-11-30 19:23:11
