success,trial_type,trial_index,time_elapsed,internal_node_id,Block,TrialNumber,TrialTime,trialTimeDiff,FPS_avg,FPS_med,FPS_mode,TrialDur,winResizeTime,rt,block,button_pressed,MotCoh,MotDir,ColCoh,Color,ChoiceKey,Choice,Accuracy,RT,nFrames,FPS,PPD,missTrial,missTrialMsg,onsetDelay,fullScreenExitTime,canvCenter,TrialType,Score,BlockTrial,stimulus,button_labels,exp,subjectId,date
True,fullscreen,0,8544,0.0-0.0,0.0,1.0,,,,,,,,,,,,,,,,,,,,,,,,,,,,,,,,HRV,HRV_0248,2022-11-30 19:48:33
,wl-check-fps,1,13535,0.0-1.0,0.0,2.0,"[8814.8, 8822.4, 8837.5, 8854.1, 8870.9, 8887.4, 8903.9, 8920.7, 8937.6, 8954.6, 8970.7, 8987.4, 9004.2, 9020.6, 9037.3, 9053.8, 9070.5, 9087.4, 9103.9, 9120.6, 9137.3, 9153.9, 9170.5, 9187.1, 9203.9, 9220.5, 9237.2, 9253.8, 9270.5, 9287, 9303.6, 9320.4, 9337, 9353.6, 9370.4, 9386.9, 9403.9, 9420.2, 9436.9, 9453.5, 9470.1, 9486.8, 9503.5, 9520.3, 9536.9, 9553.4, 9570.2, 9586.7, 9603.5, 9620, 9636.9, 9653.4, 9670, 9686.8, 9703.4, 9720.2, 9736.6, 9753.2, 9770.2, 9786.7, 9803.4, 9820.1, 9836.7, 9853.2, 9870, 9886.7, 9903.2, 9919.8, 9936.6, 9953.2, 9970.1, 9986.5, 10003.3, 10019.8, 10036.6, 10053.2, 10069.8, 10086.4, 10103, 10119.6, 10137.8, 10153, 10169.6, 10186.3, 10203.2, 10219.8, 10236.2, 10253.1, 10269.5, 10286.1, 10302.8, 10319.7, 10336.3, 10353, 10369.6, 10386.1, 10402.7, 10419.4, 10436.1, 10452.9, 10469.5, 10486, 10502.8, 10519.4, 10535.9, 10552.8, 10569.3, 10586, 10602.8, 10619.8, 10635.9, 10652.6, 10669.3, 10685.9, 10702.5, 10719.5, 10736, 10752.5, 10769.4, 10786.1, 10802.5, 10819.2, 10835.8, 10852.7, 10869.3, 10885.6, 10902.4, 10919.2, 10935.8, 10952.4, 10969, 10985.6, 11002.5, 11019.1, 11035.8, 11052.5, 11068.9, 11085.5, 11102.2, 11119.1, 11135.7, 11152.2, 11169, 11185.6, 11202.3, 11218.8, 11235.7, 11252.1, 11269, 11285.6, 11302.3, 11318.9, 11335.5, 11352.1, 11368.7, 11385.3, 11402, 11418.7, 11436.4, 11451.9, 11468.7, 11485.3, 11502.2, 11518.7, 11535.4, 11551.9, 11568.8, 11585.2, 11602, 11618.7, 11635.1, 11651.9, 11668.6, 11685.4, 11701.7, 11718.6, 11735.2, 11751.7, 11768.4, 11785, 11801.8, 11818.4, 11835.1, 11851.7, 11868.3, 11885.1, 11901.7, 11918.3, 11934.9, 11951.7, 11968.4, 11985, 12001.8, 12018.2, 12034.9, 12051.4, 12068.3, 12085, 12101.5, 12118.3, 12134.9, 12151.5, 12168, 12185, 12201.4, 12218.1, 12234.9, 12251.5, 12268, 12284.9, 12301.5, 12317.9, 12334.7, 12351.4, 12367.9, 12384.8, 12401.3, 12417.8, 12434.5, 12451.2, 12468.2, 12484.7, 12501.1, 12518, 12534.7, 12551.2, 12568, 12584.5, 12601.3, 12617.9, 12634.6, 12651.3, 12667.8, 12684.5, 12701, 12717.9, 12734.3, 12750.9, 12767.6, 12784.5, 12801.2, 12817.6, 12834.3, 12850.9, 12867.5, 12884.2, 12901, 12917.7, 12934.4, 12951.7, 12967.5, 12984.1, 13000.8, 13017.7, 13034.1, 13051.2, 13067.5, 13084.3, 13100.9, 13117.3, 13134.3, 13150.7, 13167.5, 13184.4, 13200.6, 13217.3, 13234, 13250.8, 13267.1, 13284.1, 13300.8, 13317.3, 13333.9, 13350.7, 13367.2, 13383.7, 13400.4, 13417, 13433.8, 13450.5, 13467.3, 13483.8, 13500.3, 13517.2, 13533.7, 13550.5, 13566.9, 13583.8, 13600.5, 13617.1, 13633.9, 13650.3, 13666.9, 13683.5, 13700.4, 13717.1, 13733.6, 13750.3, 13767, 13783.5]","[1.8, 7.6, 15.1, 16.6, 16.8, 16.5, 16.5, 16.8, 16.9, 17, 16.1, 16.7, 16.8, 16.4, 16.7, 16.5, 16.7, 16.9, 16.5, 16.7, 16.7, 16.6, 16.6, 16.6, 16.8, 16.6, 16.7, 16.6, 16.7, 16.5, 16.6, 16.8, 16.6, 16.6, 16.8, 16.5, 17, 16.3, 16.7, 16.6, 16.6, 16.7, 16.7, 16.8, 16.6, 16.5, 16.8, 16.5, 16.8, 16.5, 16.9, 16.5, 16.6, 16.8, 16.6, 16.8, 16.4, 16.6, 17, 16.5, 16.7, 16.7, 16.6, 16.5, 16.8, 16.7, 16.5, 16.6, 16.8, 16.6, 16.9, 16.4, 16.8, 16.5, 16.8, 16.6, 16.6, 16.6, 16.6, 16.6, 18.2, 15.2, 16.6, 16.7, 16.9, 16.6, 16.4, 16.9, 16.4, 16.6, 16.7, 16.9, 16.6, 16.7, 16.6, 16.5, 16.6, 16.7, 16.7, 16.8, 16.6, 16.5, 16.8, 16.6, 16.5, 16.9, 16.5, 16.7, 16.8, 17, 16.1, 16.7, 16.7, 16.6, 16.6, 17, 16.5, 16.5, 16.9, 16.7, 16.4, 16.7, 16.6, 16.9, 16.6, 16.3, 16.8, 16.8, 16.6, 16.6, 16.6, 16.6, 16.9, 16.6, 16.7, 16.7, 16.4, 16.6, 16.7, 16.9, 16.6, 16.5, 16.8, 16.6, 16.7, 16.5, 16.9, 16.4, 16.9, 16.6, 16.7, 16.6, 16.6, 16.6, 16.6, 16.6, 16.7, 16.7, 17.7, 15.5, 16.8, 16.6, 16.9, 16.5, 16.7, 16.5, 16.9, 16.4, 16.8, 16.7, 16.4, 16.8, 16.7, 16.8, 16.3, 16.9, 16.6, 16.5, 16.7, 16.6, 16.8, 16.6, 16.7, 16.6, 16.6, 16.8, 16.6, 16.6, 16.6, 16.8, 16.7, 16.6, 16.8, 16.4, 16.7, 16.5, 16.9, 16.7, 16.5, 16.8, 16.6, 16.6, 16.5, 17, 16.4, 16.7, 16.8, 16.6, 16.5, 16.9, 16.6, 16.4, 16.8, 16.7, 16.5, 16.9, 16.5, 16.5, 16.7, 16.7, 17, 16.5, 16.4, 16.9, 16.7, 16.5, 16.8, 16.5, 16.8, 16.6, 16.7, 16.7, 16.5, 16.7, 16.5, 16.9, 16.4, 16.6, 16.7, 16.9, 16.7, 16.4, 16.7, 16.6, 16.6, 16.7, 16.8, 16.7, 16.7, 17.3, 15.8, 16.6, 16.7, 16.9, 16.4, 17.1, 16.3, 16.8, 16.6, 16.4, 17, 16.4, 16.8, 16.9, 16.2, 16.7, 16.7, 16.8, 16.3, 17, 16.7, 16.5, 16.6, 16.8, 16.5, 16.5, 16.7, 16.6, 16.8, 16.7, 16.8, 16.5, 16.5, 16.9, 16.5, 16.8, 16.4, 16.9, 16.7, 16.6, 16.8, 16.4, 16.6, 16.6, 16.9, 16.7, 16.5, 16.7, 16.7, 16.5]",60.0,60.0,60.0,4987.2,[],,,,,,,,,,,,,,,,,,,,,,,,,HRV,HRV_0248,2022-11-30 19:48:33
,wl-html-keyboard-response,2,131650,0.0-2.0-0.0,0.0,3.0,,,,,,,,116109.5,0.0,0,,,,,,,,,,,,,,,,,,,,,,HRV,HRV_0248,2022-11-30 19:48:33
,wl-rdm,3,139718,0.0-3.0-0.0,0.0,4.0,,,,,,,[],,,,0.0,0.0,87.9,0.0,u,0.0,True,2483.6999999284744,150.0,60.0,40.0,False,,3000.0,[],"[768, 432]",ColorTask_Demo,,,,,HRV,HRV_0248,2022-11-30 19:48:33
,wl-rdm,4,144914,0.0-3.0-1.0,0.0,5.0,,,,,,,[],,,,0.0,0.0,87.9,1.0,i,1.0,True,1100.5,67.0,60.0,40.0,False,,2000.0,[],"[768, 432]",ColorTask_Demo,,,,,HRV,HRV_0248,2022-11-30 19:48:33
,wl-html-keyboard-response,5,154751,0.0-3.0-2.0,0.0,6.0,,,,,,,,7827.699999928474,0.0,1,,,,,,,,,,,,,,,,,,,,,,HRV,HRV_0248,2022-11-30 19:48:33
,wl-html-keyboard-response,6,162434,0.0-4.0-0.0,0.0,7.0,,,,,,,,5676.099999904633,0.0,0,,,,,,,,,,,,,,,,,,,,,,HRV,HRV_0248,2022-11-30 19:48:33
,wl-html-keyboard-response,7,189531,0.0-5.0-0.0,0.0,8.0,,,,,,,,25089.399999976158,0.0,0,,,,,,,,,,,,,,,,,,,,,,HRV,HRV_0248,2022-11-30 19:48:33
,wl-rdm,8,191943,0.0-6.0-0.0,0.0,9.0,,,,,,,[],,,,,,56.4,1.0,i,1.0,True,1088.2999999523163,66.0,60.0,40.0,False,,236.16780517256396,[],"[768, 432]",ColorTask,1.0,1.0,,,HRV,HRV_0248,2022-11-30 19:48:33
,wl-rdm,9,193875,0.0-6.1-0.1,0.0,10.0,,,,,,,[],,,,,,87.9,1.0,i,1.0,True,562.6000000238419,34.0,60.0,40.0,False,,289.26490961057465,[],"[768, 432]",ColorTask,2.0,2.0,,,HRV,HRV_0248,2022-11-30 19:48:33
,wl-rdm,10,195674,0.0-6.2-0.2,0.0,11.0,,,,,,,[],,,,,,87.9,1.0,i,1.0,True,493.3000000715256,30.0,60.0,40.0,False,,225.09721061224937,[],"[768, 432]",ColorTask,3.0,3.0,,,HRV,HRV_0248,2022-11-30 19:48:33
,wl-rdm,11,197456,0.0-6.3-0.3,0.0,12.0,,,,,,,[],,,,,,53.2,1.0,i,1.0,True,473.89999997615814,29.0,60.0,40.0,False,,218.78889541560108,[],"[768, 432]",ColorTask,4.0,4.0,,,HRV,HRV_0248,2022-11-30 19:48:33
,wl-rdm,12,199271,0.0-6.4-0.4,0.0,13.0,,,,,,,[],,,,,,53.2,1.0,i,1.0,True,455.2000000476837,28.0,60.0,40.0,False,,275.17418574394185,[],"[768, 432]",ColorTask,5.0,5.0,,,HRV,HRV_0248,2022-11-30 19:48:33
,wl-rdm,13,201053,0.0-6.5-0.5,0.0,14.0,,,,,,,[],,,,,,73.6,1.0,i,1.0,True,479.7999999523163,29.0,60.0,40.0,False,,224.09793719915407,[],"[768, 432]",ColorTask,6.0,6.0,,,HRV,HRV_0248,2022-11-30 19:48:33
,wl-rdm,14,203035,0.0-6.6-0.6,0.0,15.0,,,,,,,[],,,,,,73.6,0.0,i,1.0,False,669.2000000476837,41.0,60.0,40.0,False,,221.39008644585743,[],"[768, 432]",ColorTask,5.0,7.0,,,HRV,HRV_0248,2022-11-30 19:48:33
,wl-rdm,15,205367,0.0-6.7-0.7,0.0,16.0,,,,,,,[],,,,,,73.6,0.0,i,1.0,False,967.3999999761581,59.0,60.0,40.0,False,,271.7593306531975,[],"[768, 432]",ColorTask,4.0,8.0,,,HRV,HRV_0248,2022-11-30 19:48:33
,wl-rdm,16,207270,0.0-6.8-0.8,0.0,17.0,,,,,,,[],,,,,,87.9,1.0,i,1.0,True,609.8999999761581,37.0,60.0,40.0,False,,208.3084317822404,[],"[768, 432]",ColorTask,5.0,9.0,,,HRV,HRV_0248,2022-11-30 19:48:33
,wl-rdm,17,209380,0.0-6.9-0.9,0.0,18.0,,,,,,,[],,,,,,87.9,0.0,u,0.0,True,821.1000000238419,50.0,60.0,40.0,False,,206.50555198787583,[],"[768, 432]",ColorTask,6.0,10.0,,,HRV,HRV_0248,2022-11-30 19:48:33
,wl-rdm,18,211629,0.0-6.10-0.10,0.0,19.0,,,,,,,[],,,,,,50.0,0.0,u,0.0,True,926.1999999284744,56.0,60.0,40.0,False,,234.9584289057524,[],"[768, 432]",ColorTask,7.0,11.0,,,HRV,HRV_0248,2022-11-30 19:48:33
,wl-rdm,19,213827,0.0-6.11-0.11,0.0,20.0,,,,,,,[],,,,,,56.4,1.0,u,0.0,False,850.8999998569489,52.0,60.0,40.0,False,,259.6128479012614,[],"[768, 432]",ColorTask,6.0,12.0,,,HRV,HRV_0248,2022-11-30 19:48:33
,wl-rdm,20,216408,0.0-6.12-0.12,0.0,21.0,,,,,,,[],,,,,,87.9,0.0,u,0.0,True,1141.5999999046326,69.0,60.0,40.0,False,,352.3651618753786,[],"[768, 432]",ColorTask,7.0,13.0,,,HRV,HRV_0248,2022-11-30 19:48:33
,wl-rdm,21,218623,0.0-6.13-0.13,0.0,22.0,,,,,,,[],,,,,,56.4,0.0,u,0.0,True,735.6000000238419,45.0,60.0,40.0,False,,396.44947291966486,[],"[768, 432]",ColorTask,8.0,14.0,,,HRV,HRV_0248,2022-11-30 19:48:33
,wl-rdm,22,220538,0.0-6.14-0.14,0.0,23.0,,,,,,,[],,,,,,87.9,0.0,i,1.0,False,569.0,35.0,60.0,40.0,False,,251.06998123489842,[],"[768, 432]",ColorTask,7.0,15.0,,,HRV,HRV_0248,2022-11-30 19:48:33
,wl-rdm,23,222420,0.0-6.15-0.15,0.0,24.0,,,,,,,[],,,,,,53.2,1.0,i,1.0,True,567.3999999761581,35.0,60.0,40.0,False,,223.63968509887087,[],"[768, 432]",ColorTask,8.0,16.0,,,HRV,HRV_0248,2022-11-30 19:48:33
,wl-rdm,24,224369,0.0-6.16-0.16,0.0,25.0,,,,,,,[],,,,,,50.0,1.0,i,1.0,True,634.6000000238419,39.0,60.0,40.0,False,,222.43274076585746,[],"[768, 432]",ColorTask,9.0,17.0,,,HRV,HRV_0248,2022-11-30 19:48:33
,wl-rdm,25,226134,0.0-6.17-0.17,0.0,26.0,,,,,,,[],,,,,,53.2,1.0,i,1.0,True,463.0000001192093,28.0,60.0,40.0,False,,225.26486318042078,[],"[768, 432]",ColorTask,10.0,18.0,,,HRV,HRV_0248,2022-11-30 19:48:33
,wl-rdm,26,227982,0.0-6.18-0.18,0.0,27.0,,,,,,,[],,,,,,53.2,0.0,i,1.0,False,476.10000002384186,29.0,60.0,40.0,False,,285.1643808635189,[],"[768, 432]",ColorTask,9.0,19.0,,,HRV,HRV_0248,2022-11-30 19:48:33
,wl-rdm,27,229931,0.0-6.19-0.19,0.0,28.0,,,,,,,[],,,,,,53.2,1.0,i,1.0,True,604.1000000238419,37.0,60.0,40.0,False,,254.69714281340686,[],"[768, 432]",ColorTask,10.0,20.0,,,HRV,HRV_0248,2022-11-30 19:48:33
,wl-rdm,28,231996,0.0-6.20-0.20,0.0,29.0,,,,,,,[],,,,,,53.2,1.0,i,1.0,True,640.0,39.0,60.0,40.0,False,,337.9377549707276,[],"[768, 432]",ColorTask,11.0,21.0,,,HRV,HRV_0248,2022-11-30 19:48:33
,wl-rdm,29,234027,0.0-6.21-0.21,0.0,30.0,,,,,,,[],,,,,,73.6,1.0,u,0.0,False,602.3999999761581,37.0,60.0,40.0,False,,333.98156985655316,[],"[768, 432]",ColorTask,10.0,22.0,,,HRV,HRV_0248,2022-11-30 19:48:33
,wl-rdm,30,236009,0.0-6.22-0.22,0.0,31.0,,,,,,,[],,,,,,87.9,0.0,i,1.0,False,504.3000000715256,31.0,60.0,40.0,False,,391.94337467930757,[],"[768, 432]",ColorTask,9.0,23.0,,,HRV,HRV_0248,2022-11-30 19:48:33
,wl-rdm,31,238174,0.0-6.23-0.23,0.0,32.0,,,,,,,[],,,,,,62.5,1.0,i,1.0,True,684.0999999046326,42.0,60.0,40.0,False,,387.2298796179108,[],"[768, 432]",ColorTask,10.0,24.0,,,HRV,HRV_0248,2022-11-30 19:48:33
,wl-rdm,32,240040,0.0-6.24-0.24,0.0,33.0,,,,,,,[],,,,,,56.4,1.0,i,1.0,True,519.2999999523163,32.0,60.0,40.0,False,,258.5000954392087,[],"[768, 432]",ColorTask,11.0,25.0,,,HRV,HRV_0248,2022-11-30 19:48:33
,wl-rdm,33,241805,0.0-6.25-0.25,0.0,34.0,,,,,,,[],,,,,,62.5,0.0,i,1.0,False,389.60000002384186,24.0,60.0,40.0,False,,284.8895500347479,[],"[768, 432]",ColorTask,10.0,26.0,,,HRV,HRV_0248,2022-11-30 19:48:33
,wl-rdm,34,243903,0.0-6.26-0.26,0.0,35.0,,,,,,,[],,,,,,62.5,1.0,u,0.0,False,717.6000000238419,44.0,60.0,40.0,False,,285.1847177057655,[],"[768, 432]",ColorTask,9.0,27.0,,,HRV,HRV_0248,2022-11-30 19:48:33
,wl-rdm,35,245735,0.0-6.27-0.27,0.0,36.0,,,,,,,[],,,,,,53.2,1.0,i,1.0,True,449.10000002384186,27.0,60.0,40.0,False,,315.44634699367606,[],"[768, 432]",ColorTask,10.0,28.0,,,HRV,HRV_0248,2022-11-30 19:48:33
,wl-rdm,36,247634,0.0-6.28-0.28,0.0,37.0,,,,,,,[],,,,,,50.0,1.0,i,1.0,True,567.6000000238419,35.0,60.0,40.0,False,,248.32798247240333,[],"[768, 432]",ColorTask,11.0,29.0,,,HRV,HRV_0248,2022-11-30 19:48:33
,wl-rdm,37,249432,0.0-6.29-0.29,0.0,38.0,,,,,,,[],,,,,,50.0,1.0,i,1.0,True,504.0,31.0,60.0,40.0,False,,212.50386906850048,[],"[768, 432]",ColorTask,12.0,30.0,,,HRV,HRV_0248,2022-11-30 19:48:33
,wl-rdm,38,251764,0.0-6.30-0.30,0.0,39.0,,,,,,,[],,,,,,73.6,0.0,i,1.0,False,918.4000000953674,56.0,60.0,40.0,False,,331.4358433000176,[],"[768, 432]",ColorTask,11.0,31.0,,,HRV,HRV_0248,2022-11-30 19:48:33
,wl-rdm,39,253729,0.0-6.31-0.31,0.0,40.0,,,,,,,[],,,,,,87.9,1.0,i,1.0,True,573.1999999284744,35.0,60.0,40.0,False,,304.988595497859,[],"[768, 432]",ColorTask,12.0,32.0,,,HRV,HRV_0248,2022-11-30 19:48:33
,wl-rdm,40,255411,0.0-6.32-0.32,0.0,41.0,,,,,,,[],,,,,,87.9,1.0,i,1.0,True,385.10000002384186,24.0,60.0,40.0,False,,209.72476112943718,[],"[768, 432]",ColorTask,13.0,33.0,,,HRV,HRV_0248,2022-11-30 19:48:33
,wl-rdm,41,257176,0.0-6.33-0.33,0.0,42.0,,,,,,,[],,,,,,50.0,1.0,i,1.0,True,467.7999999523163,29.0,60.0,40.0,False,,207.2682928762095,[],"[768, 432]",ColorTask,14.0,34.0,,,HRV,HRV_0248,2022-11-30 19:48:33
,wl-rdm,42,258825,0.0-6.34-0.34,0.0,43.0,,,,,,,[],,,,,,56.4,1.0,i,1.0,True,277.2999999523163,17.0,60.0,40.0,False,,294.40993279259965,[],"[768, 432]",ColorTask,15.0,35.0,,,HRV,HRV_0248,2022-11-30 19:48:33
,wl-rdm,43,260440,0.0-6.35-0.35,0.0,44.0,,,,,,,[],,,,,,73.6,1.0,i,1.0,True,302.2999999523163,19.0,60.0,40.0,False,,226.01606196564097,[],"[768, 432]",ColorTask,16.0,36.0,,,HRV,HRV_0248,2022-11-30 19:48:33
,wl-rdm,44,262039,0.0-6.36-0.36,0.0,45.0,,,,,,,[],,,,,,50.0,0.0,i,1.0,False,277.2000000476837,17.0,60.0,40.0,False,,239.79933356429024,[],"[768, 432]",ColorTask,15.0,37.0,,,HRV,HRV_0248,2022-11-30 19:48:33
,wl-rdm,45,263721,0.0-6.37-0.37,0.0,46.0,,,,,,,[],,,,,,56.4,1.0,i,1.0,True,277.3000000715256,17.0,60.0,40.0,False,,327.1768086342171,[],"[768, 432]",ColorTask,16.0,38.0,,,HRV,HRV_0248,2022-11-30 19:48:33
,wl-rdm,46,265336,0.0-6.38-0.38,0.0,47.0,,,,,,,[],,,,,,73.6,0.0,i,1.0,False,269.7999999523163,17.0,60.0,40.0,False,,252.38578511714005,[],"[768, 432]",ColorTask,15.0,39.0,,,HRV,HRV_0248,2022-11-30 19:48:33
,wl-rdm,47,267002,0.0-6.39-0.39,0.0,48.0,,,,,,,[],,,,,,50.0,0.0,i,1.0,False,302.39999997615814,19.0,60.0,40.0,False,,274.1035676937639,[],"[768, 432]",ColorTask,14.0,40.0,,,HRV,HRV_0248,2022-11-30 19:48:33
,wl-rdm,48,268667,0.0-6.40-0.40,0.0,49.0,,,,,,,[],,,,,,56.4,0.0,i,1.0,False,275.89999997615814,17.0,60.0,40.0,False,,314.7615830142283,[],"[768, 432]",ColorTask,13.0,41.0,,,HRV,HRV_0248,2022-11-30 19:48:33
,wl-rdm,49,270416,0.0-6.41-0.41,0.0,50.0,,,,,,,[],,,,,,56.4,1.0,i,1.0,True,284.60000002384186,18.0,60.0,40.0,False,,374.1093400503705,[],"[768, 432]",ColorTask,14.0,42.0,,,HRV,HRV_0248,2022-11-30 19:48:33
,wl-rdm,50,272015,0.0-6.42-0.42,0.0,51.0,,,,,,,[],,,,,,87.9,0.0,i,1.0,False,252.20000004768372,16.0,60.0,40.0,False,,258.5125586777019,[],"[768, 432]",ColorTask,13.0,43.0,,,HRV,HRV_0248,2022-11-30 19:48:33
,wl-rdm,51,273630,0.0-6.43-0.43,0.0,52.0,,,,,,,[],,,,,,62.5,0.0,u,0.0,True,313.60000002384186,19.0,60.0,40.0,False,,228.34848803936433,[],"[768, 432]",ColorTask,14.0,44.0,,,HRV,HRV_0248,2022-11-30 19:48:33
,wl-rdm,52,275262,0.0-6.44-0.44,0.0,53.0,,,,,,,[],,,,,,73.6,1.0,u,0.0,False,293.0,18.0,60.0,40.0,False,,257.48454430263894,[],"[768, 432]",ColorTask,13.0,45.0,,,HRV,HRV_0248,2022-11-30 19:48:33
,wl-rdm,53,276877,0.0-6.45-0.45,0.0,54.0,,,,,,,[],,,,,,62.5,1.0,i,1.0,True,285.39999997615814,18.0,60.0,40.0,False,,233.56063458395664,[],"[768, 432]",ColorTask,14.0,46.0,,,HRV,HRV_0248,2022-11-30 19:48:33
,wl-rdm,54,278560,0.0-6.46-0.46,0.0,55.0,,,,,,,[],,,,,,62.5,1.0,i,1.0,True,251.30000007152557,16.0,60.0,40.0,False,,332.91468963035254,[],"[768, 432]",ColorTask,15.0,47.0,,,HRV,HRV_0248,2022-11-30 19:48:33
,wl-rdm,55,280242,0.0-6.47-0.47,0.0,56.0,,,,,,,[],,,,,,50.0,0.0,i,1.0,False,267.2999999523163,17.0,60.0,40.0,False,,324.67618768685026,[],"[768, 432]",ColorTask,14.0,48.0,,,HRV,HRV_0248,2022-11-30 19:48:33
,wl-rdm,56,281874,0.0-6.48-0.48,0.0,57.0,,,,,,,[],,,,,,50.0,1.0,i,1.0,True,305.10000002384186,19.0,60.0,40.0,False,,233.81073064679504,[],"[768, 432]",ColorTask,15.0,49.0,,,HRV,HRV_0248,2022-11-30 19:48:33
,wl-rdm,57,283572,0.0-6.49-0.49,0.0,58.0,,,,,,,[],,,,,,53.2,0.0,i,1.0,False,260.89999997615814,16.0,60.0,40.0,False,,357.6557008703376,[],"[768, 432]",ColorTask,14.0,50.0,,,HRV,HRV_0248,2022-11-30 19:48:33
,wl-rdm,58,285604,0.0-6.50-0.50,0.0,59.0,,,,,,,[],,,,,,73.6,1.0,i,1.0,True,674.0,41.0,60.0,40.0,False,,268.6013727390158,[],"[768, 432]",ColorTask,15.0,51.0,,,HRV,HRV_0248,2022-11-30 19:48:33
,wl-rdm,59,287336,0.0-6.51-0.51,0.0,60.0,,,,,,,[],,,,,,56.4,1.0,i,1.0,True,325.89999997615814,20.0,60.0,40.0,False,,323.54744415698156,[],"[768, 432]",ColorTask,16.0,52.0,,,HRV,HRV_0248,2022-11-30 19:48:33
,wl-rdm,60,289052,0.0-6.52-0.52,0.0,61.0,,,,,,,[],,,,,,87.9,1.0,i,1.0,True,382.40000009536743,23.0,60.0,40.0,False,,258.74452959746304,[],"[768, 432]",ColorTask,17.0,53.0,,,HRV,HRV_0248,2022-11-30 19:48:33
,wl-rdm,61,290733,0.0-6.53-0.53,0.0,62.0,,,,,,,[],,,,,,50.0,0.0,i,1.0,False,306.1999999284744,19.0,60.0,40.0,False,,299.0983864363577,[],"[768, 432]",ColorTask,16.0,54.0,,,HRV,HRV_0248,2022-11-30 19:48:33
,wl-rdm,62,292449,0.0-6.54-0.54,0.0,63.0,,,,,,,[],,,,,,56.4,0.0,i,1.0,False,426.0,26.0,60.0,40.0,False,,203.97320345890518,[],"[768, 432]",ColorTask,15.0,55.0,,,HRV,HRV_0248,2022-11-30 19:48:33
,wl-rdm,63,294530,0.0-6.55-0.55,0.0,64.0,,,,,,,[],,,,,,73.6,1.0,i,1.0,True,773.8000000715256,47.0,60.0,40.0,False,,218.90453813875504,[],"[768, 432]",ColorTask,16.0,56.0,,,HRV,HRV_0248,2022-11-30 19:48:33
,wl-rdm,64,296129,0.0-6.56-0.56,0.0,65.0,,,,,,,[],,,,,,53.2,0.0,i,1.0,False,269.39999997615814,17.0,60.0,40.0,False,,241.80100364492202,[],"[768, 432]",ColorTask,15.0,57.0,,,HRV,HRV_0248,2022-11-30 19:48:33
,wl-rdm,65,297728,0.0-6.57-0.57,0.0,66.0,,,,,,,[],,,,,,50.0,1.0,i,1.0,True,251.29999995231628,16.0,60.0,40.0,False,,256.77485837110976,[],"[768, 432]",ColorTask,16.0,58.0,,,HRV,HRV_0248,2022-11-30 19:48:33
,wl-rdm,66,299477,0.0-6.58-0.58,0.0,67.0,,,,,,,[],,,,,,62.5,1.0,i,1.0,True,309.0,19.0,60.0,40.0,False,,359.8237078400016,[],"[768, 432]",ColorTask,17.0,59.0,,,HRV,HRV_0248,2022-11-30 19:48:33
,wl-rdm,67,301059,0.0-6.59-0.59,0.0,68.0,,,,,,,[],,,,,,73.6,0.0,i,1.0,False,218.60000002384186,14.0,60.0,40.0,False,,282.01386904578106,[],"[768, 432]",ColorTask,16.0,60.0,,,HRV,HRV_0248,2022-11-30 19:48:33
,wl-rdm,68,302624,0.0-6.60-0.60,0.0,69.0,,,,,,,[],,,,,,62.5,1.0,i,1.0,True,256.09999990463257,16.0,60.0,40.0,False,,224.54931094220973,[],"[768, 432]",ColorTask,17.0,61.0,,,HRV,HRV_0248,2022-11-30 19:48:33
,wl-rdm,69,304356,0.0-6.61-0.61,0.0,70.0,,,,,,,[],,,,,,62.5,0.0,i,1.0,False,269.39999997615814,17.0,60.0,40.0,False,,381.92966782745214,[],"[768, 432]",ColorTask,16.0,62.0,,,HRV,HRV_0248,2022-11-30 19:48:33
,wl-rdm,70,306038,0.0-6.62-0.62,0.0,71.0,,,,,,,[],,,,,,53.2,1.0,i,1.0,True,268.10000002384186,17.0,60.0,40.0,False,,328.1968851342502,[],"[768, 432]",ColorTask,17.0,63.0,,,HRV,HRV_0248,2022-11-30 19:48:33
,wl-rdm,71,307770,0.0-6.63-0.63,0.0,72.0,,,,,,,[],,,,,,73.6,1.0,i,1.0,True,315.39999997615814,19.0,60.0,40.0,False,,337.42469737809967,[],"[768, 432]",ColorTask,18.0,64.0,,,HRV,HRV_0248,2022-11-30 19:48:33
,wl-rdm,72,309186,0.0-6.64-0.64,0.0,72.0,,,,,,,[],,,,,,87.9,0.0,i,,,865.3000000715256,0.0,60.0,40.0,True,too_early ,353.2275689985812,[],"[768, 432]",ColorTask,17.0,65.0,,,HRV,HRV_0248,2022-11-30 19:48:33
,wl-rdm,73,310851,0.0-6.65-0.65,0.0,73.0,,,,,,,[],,,,,,87.9,1.0,i,1.0,True,336.7999999523163,21.0,60.0,40.0,False,,244.78324902898643,[],"[768, 432]",ColorTask,18.0,66.0,,,HRV,HRV_0248,2022-11-30 19:48:33
,wl-rdm,74,312533,0.0-6.66-0.66,0.0,74.0,,,,,,,[],,,,,,50.0,0.0,i,1.0,False,303.6999999284744,19.0,60.0,40.0,False,,288.76956597363994,[],"[768, 432]",ColorTask,17.0,67.0,,,HRV,HRV_0248,2022-11-30 19:48:33
,wl-rdm,75,314265,0.0-6.67-0.67,0.0,75.0,,,,,,,[],,,,,,53.2,0.0,u,0.0,True,280.89999997615814,17.0,60.0,40.0,False,,369.2920531778835,[],"[768, 432]",ColorTask,18.0,68.0,,,HRV,HRV_0248,2022-11-30 19:48:33
,wl-rdm,76,315897,0.0-6.68-0.68,0.0,76.0,,,,,,,[],,,,,,56.4,0.0,u,0.0,True,317.0,19.0,60.0,40.0,False,,243.95107416466763,[],"[768, 432]",ColorTask,19.0,69.0,,,HRV,HRV_0248,2022-11-30 19:48:33
,wl-rdm,77,317512,0.0-6.69-0.69,0.0,77.0,,,,,,,[],,,,,,53.2,0.0,u,0.0,True,308.89999997615814,19.0,60.0,40.0,False,,216.63956656476225,[],"[768, 432]",ColorTask,20.0,70.0,,,HRV,HRV_0248,2022-11-30 19:48:33
,wl-rdm,78,319061,0.0-6.70-0.70,0.0,78.0,,,,,,,[],,,,,,87.9,0.0,i,1.0,False,259.0,16.0,60.0,40.0,False,,200.55153854122833,[],"[768, 432]",ColorTask,19.0,71.0,,,HRV,HRV_0248,2022-11-30 19:48:33
,wl-rdm,79,320776,0.0-6.71-0.71,0.0,79.0,,,,,,,[],,,,,,87.9,0.0,i,1.0,False,331.39999997615814,20.0,60.0,40.0,False,,311.43958230643005,[],"[768, 432]",ColorTask,18.0,72.0,,,HRV,HRV_0248,2022-11-30 19:48:33
,wl-rdm,80,322359,0.0-6.72-0.72,0.0,80.0,,,,,,,[],,,,,,56.4,0.0,i,1.0,False,291.89999997615814,18.0,60.0,40.0,False,,200.0553045976832,[],"[768, 432]",ColorTask,17.0,73.0,,,HRV,HRV_0248,2022-11-30 19:48:33
,wl-rdm,81,323891,0.0-6.73-0.73,0.0,81.0,,,,,,,[],,,,,,50.0,1.0,i,1.0,True,152.60000002384186,10.0,60.0,40.0,False,,294.36903602841613,[],"[768, 432]",ColorTask,18.0,74.0,,,HRV,HRV_0248,2022-11-30 19:48:33
,wl-rdm,82,325540,0.0-6.74-0.74,0.0,82.0,,,,,,,[],,,,,,56.4,0.0,i,1.0,False,299.7000000476837,18.0,60.0,40.0,False,,279.7371433928915,[],"[768, 432]",ColorTask,17.0,75.0,,,HRV,HRV_0248,2022-11-30 19:48:33
,wl-rdm,83,327704,0.0-6.75-0.75,0.0,83.0,,,,,,,[],,,,,,53.2,0.0,i,1.0,False,719.5,44.0,60.0,40.0,False,,352.005667433484,[],"[768, 432]",ColorTask,16.0,76.0,,,HRV,HRV_0248,2022-11-30 19:48:33
,wl-rdm,84,329586,0.0-6.76-0.76,0.0,84.0,,,,,,,[],,,,,,50.0,0.0,i,1.0,False,575.8999999761581,35.0,60.0,40.0,False,,227.05509305075716,[],"[768, 432]",ColorTask,15.0,77.0,,,HRV,HRV_0248,2022-11-30 19:48:33
,wl-rdm,85,331451,0.0-6.77-0.77,0.0,85.0,,,,,,,[],,,,,,56.4,0.0,i,1.0,False,441.0,27.0,60.0,40.0,False,,347.27963153127087,[],"[768, 432]",ColorTask,14.0,78.0,,,HRV,HRV_0248,2022-11-30 19:48:33
,wl-rdm,86,333200,0.0-6.78-0.78,0.0,86.0,,,,,,,[],,,,,,62.5,0.0,u,0.0,True,418.7999999523163,26.0,60.0,40.0,False,,233.56454422700034,[],"[768, 432]",ColorTask,15.0,79.0,,,HRV,HRV_0248,2022-11-30 19:48:33
,wl-rdm,87,334899,0.0-6.79-0.79,0.0,87.0,,,,,,,[],,,,,,73.6,0.0,u,0.0,True,330.2000000476837,20.0,60.0,40.0,False,,283.49940105637063,[],"[768, 432]",ColorTask,16.0,80.0,,,HRV,HRV_0248,2022-11-30 19:48:33
,wl-rdm,88,336630,0.0-6.80-0.80,0.0,88.0,,,,,,,[],,,,,,50.0,1.0,u,0.0,False,330.8000000715256,20.0,60.0,40.0,False,,324.07398918616644,[],"[768, 432]",ColorTask,15.0,81.0,,,HRV,HRV_0248,2022-11-30 19:48:33
,wl-rdm,89,338396,0.0-6.81-0.81,0.0,89.0,,,,,,,[],,,,,,87.9,1.0,i,1.0,True,423.0,26.0,60.0,40.0,False,,259.04762191445576,[],"[768, 432]",ColorTask,16.0,82.0,,,HRV,HRV_0248,2022-11-30 19:48:33
,wl-rdm,90,340028,0.0-6.82-0.82,0.0,90.0,,,,,,,[],,,,,,53.2,0.0,i,1.0,False,345.6999999284744,21.0,60.0,40.0,False,,200.33038701975073,[],"[768, 432]",ColorTask,15.0,83.0,,,HRV,HRV_0248,2022-11-30 19:48:33
,wl-rdm,91,341876,0.0-6.83-0.83,0.0,91.0,,,,,,,[],,,,,,73.6,0.0,i,1.0,False,451.0,28.0,60.0,40.0,False,,308.02811986121964,[],"[768, 432]",ColorTask,14.0,84.0,,,HRV,HRV_0248,2022-11-30 19:48:33
,wl-rdm,92,343608,0.0-6.84-0.84,0.0,92.0,,,,,,,[],,,,,,56.4,1.0,i,1.0,True,382.3000000715256,23.0,60.0,40.0,False,,269.7087828618302,[],"[768, 432]",ColorTask,15.0,85.0,,,HRV,HRV_0248,2022-11-30 19:48:33
,wl-rdm,93,345340,0.0-6.85-0.85,0.0,93.0,,,,,,,[],,,,,,62.5,0.0,i,1.0,False,305.2000000476837,19.0,60.0,40.0,False,,340.9535035737265,[],"[768, 432]",ColorTask,14.0,86.0,,,HRV,HRV_0248,2022-11-30 19:48:33
,wl-rdm,94,347189,0.0-6.86-0.86,0.0,94.0,,,,,,,[],,,,,,62.5,1.0,i,1.0,True,530.6000000238419,32.0,60.0,40.0,False,,245.3049865286205,[],"[768, 432]",ColorTask,15.0,87.0,,,HRV,HRV_0248,2022-11-30 19:48:33
,wl-rdm,95,348888,0.0-6.87-0.87,0.0,95.0,,,,,,,[],,,,,,62.5,0.0,i,1.0,False,396.10000002384186,24.0,60.0,40.0,False,,219.8901114838929,[],"[768, 432]",ColorTask,14.0,88.0,,,HRV,HRV_0248,2022-11-30 19:48:33
,wl-rdm,96,350769,0.0-6.88-0.88,0.0,96.0,,,,,,,[],,,,,,53.2,0.0,i,1.0,False,481.4999998807907,29.0,60.0,40.0,False,,318.3771161764859,[],"[768, 432]",ColorTask,13.0,89.0,,,HRV,HRV_0248,2022-11-30 19:48:33
,wl-rdm,97,352551,0.0-6.89-0.89,0.0,97.0,,,,,,,[],,,,,,62.5,1.0,u,0.0,False,446.89999997615814,27.0,60.0,40.0,False,,262.22753562379177,[],"[768, 432]",ColorTask,12.0,90.0,,,HRV,HRV_0248,2022-11-30 19:48:33
,wl-rdm,98,354200,0.0-6.90-0.90,0.0,98.0,,,,,,,[],,,,,,73.6,0.0,i,1.0,False,331.0,20.0,60.0,40.0,False,,249.38301927373766,[],"[768, 432]",ColorTask,11.0,91.0,,,HRV,HRV_0248,2022-11-30 19:48:33
,wl-rdm,99,356015,0.0-6.91-0.91,0.0,99.0,,,,,,,[],,,,,,53.2,0.0,u,0.0,True,479.10000002384186,29.0,60.0,40.0,False,,265.41680401172005,[],"[768, 432]",ColorTask,12.0,92.0,,,HRV,HRV_0248,2022-11-30 19:48:33
,wl-rdm,100,357681,0.0-6.92-0.92,0.0,100.0,,,,,,,[],,,,,,73.6,1.0,u,0.0,False,296.8000000715256,18.0,60.0,40.0,False,,292.43874325847224,[],"[768, 432]",ColorTask,11.0,93.0,,,HRV,HRV_0248,2022-11-30 19:48:33
,wl-rdm,101,359346,0.0-6.93-0.93,0.0,101.0,,,,,,,[],,,,,,62.5,0.0,i,1.0,False,365.9999998807907,22.0,60.0,40.0,False,,227.64211445372555,[],"[768, 432]",ColorTask,10.0,94.0,,,HRV,HRV_0248,2022-11-30 19:48:33
,wl-rdm,102,360745,0.0-6.94-0.94,0.0,101.0,,,,,,,[],,,,,,50.0,1.0,u,0.0,False,58.200000047683716,4.0,60.0,40.0,True,too_early ,257.92713448428543,[],"[768, 432]",ColorTask,9.0,95.0,,,HRV,HRV_0248,2022-11-30 19:48:33
,wl-rdm,103,362394,0.0-6.95-0.95,0.0,102.0,,,,,,,[],,,,,,56.4,1.0,u,0.0,False,352.60000002384186,22.0,60.0,40.0,False,,207.00128112142323,[],"[768, 432]",ColorTask,8.0,96.0,,,HRV,HRV_0248,2022-11-30 19:48:33
,wl-rdm,104,364175,0.0-6.96-0.96,0.0,103.0,,,,,,,[],,,,,,50.0,1.0,u,0.0,False,337.2999999523163,21.0,60.0,40.0,False,,354.77779355337634,[],"[768, 432]",ColorTask,7.0,97.0,,,HRV,HRV_0248,2022-11-30 19:48:33
,wl-rdm,105,365857,0.0-6.97-0.97,0.0,104.0,,,,,,,[],,,,,,53.2,1.0,i,1.0,True,376.5,23.0,60.0,40.0,False,,222.39658002782664,[],"[768, 432]",ColorTask,8.0,98.0,,,HRV,HRV_0248,2022-11-30 19:48:33
,wl-rdm,106,367440,0.0-6.98-0.98,0.0,105.0,,,,,,,[],,,,,,62.5,0.0,i,1.0,False,296.7000000476837,18.0,60.0,40.0,False,,212.90174470422676,[],"[768, 432]",ColorTask,7.0,99.0,,,HRV,HRV_0248,2022-11-30 19:48:33
,wl-rdm,107,369205,0.0-6.99-0.99,0.0,106.0,,,,,,,[],,,,,,56.4,0.0,i,1.0,False,418.89999997615814,26.0,60.0,40.0,False,,253.3376642997967,[],"[768, 432]",ColorTask,6.0,100.0,,,HRV,HRV_0248,2022-11-30 19:48:33
,wl-rdm,108,371037,0.0-6.100-0.100,0.0,107.0,,,,,,,[],,,,,,50.0,0.0,i,1.0,False,392.7999999523163,24.0,60.0,40.0,False,,371.82675964356537,[],"[768, 432]",ColorTask,5.0,101.0,,,HRV,HRV_0248,2022-11-30 19:48:33
,wl-rdm,109,372536,0.0-6.101-0.101,0.0,108.0,,,,,,,[],,,,,,62.5,1.0,u,0.0,False,158.5,10.0,60.0,40.0,False,,263.7600244838796,[],"[768, 432]",ColorTask,4.0,102.0,,,HRV,HRV_0248,2022-11-30 19:48:33
,wl-rdm,110,374251,0.0-6.102-0.102,0.0,109.0,,,,,,,[],,,,,,62.5,0.0,u,0.0,True,398.7999999523163,24.0,60.0,40.0,False,,243.15402550423974,[],"[768, 432]",ColorTask,5.0,103.0,,,HRV,HRV_0248,2022-11-30 19:48:33
,wl-rdm,111,375650,0.0-6.103-0.103,0.0,109.0,,,,,,,[],,,,,,73.6,1.0,u,0.0,False,74.79999995231628,5.0,60.0,40.0,True,too_early ,244.1477227662856,[],"[768, 432]",ColorTask,4.0,104.0,,,HRV,HRV_0248,2022-11-30 19:48:33
,wl-rdm,112,377315,0.0-6.104-0.104,0.0,110.0,,,,,,,[],,,,,,87.9,0.0,u,0.0,True,354.8000000715256,22.0,60.0,40.0,False,,229.53717435713477,[],"[768, 432]",ColorTask,5.0,105.0,,,HRV,HRV_0248,2022-11-30 19:48:33
,wl-rdm,113,379247,0.0-6.105-0.105,0.0,111.0,,,,,,,[],,,,,,73.6,1.0,u,0.0,False,543.2000000476837,33.0,60.0,40.0,False,,314.4424535510207,[],"[768, 432]",ColorTask,4.0,106.0,,,HRV,HRV_0248,2022-11-30 19:48:33
,wl-rdm,114,381046,0.0-6.106-0.106,0.0,112.0,,,,,,,[],,,,,,73.6,0.0,i,1.0,False,410.1999999284744,25.0,60.0,40.0,False,,300.94210640289515,[],"[768, 432]",ColorTask,3.0,107.0,,,HRV,HRV_0248,2022-11-30 19:48:33
,wl-rdm,115,383227,0.0-6.107-0.107,0.0,113.0,,,,,,,[],,,,,,87.9,0.0,i,1.0,False,837.8999999761581,51.0,60.0,40.0,False,,255.87266293791953,[],"[768, 432]",ColorTask,2.0,108.0,,,HRV,HRV_0248,2022-11-30 19:48:33
,wl-rdm,116,385426,0.0-6.108-0.108,0.0,114.0,,,,,,,[],,,,,,87.9,1.0,i,1.0,True,809.1000000238419,49.0,60.0,40.0,False,,310.47480253824733,[],"[768, 432]",ColorTask,3.0,109.0,,,HRV,HRV_0248,2022-11-30 19:48:33
,wl-rdm,117,387174,0.0-6.109-0.109,0.0,115.0,,,,,,,[],,,,,,50.0,0.0,i,1.0,False,456.1999999284744,28.0,60.0,40.0,False,,213.88656398693783,[],"[768, 432]",ColorTask,2.0,110.0,,,HRV,HRV_0248,2022-11-30 19:48:33
,wl-rdm,118,389089,0.0-6.110-0.110,0.0,116.0,,,,,,,[],,,,,,56.4,0.0,i,1.0,False,582.0,35.0,60.0,40.0,False,,250.27220924572987,[],"[768, 432]",ColorTask,1.0,111.0,,,HRV,HRV_0248,2022-11-30 19:48:33
,wl-html-keyboard-response,119,428738,0.0-7.0-0.0,1.0,117.0,,,,,,,,37644.60000002384,1.0,0,,,,,,,,,,,,,,,,,,,,,,HRV,HRV_0248,2022-11-30 19:48:33
,wl-rdm,120,431223,0.0-8.0-0.0,1.0,118.0,,,,,,,[],,,,,,56.4,1.0,u,0.0,False,1076.6000000238419,65.0,60.0,40.0,False,,328.5979347383669,[],"[768, 432]",ColorTask,0.0,1.0,,,HRV,HRV_0248,2022-11-30 19:48:33
,wl-rdm,121,433021,0.0-8.1-0.1,1.0,119.0,,,,,,,[],,,,,,53.2,1.0,i,1.0,True,486.0,30.0,60.0,40.0,False,,221.2373576701244,[],"[768, 432]",ColorTask,1.0,2.0,,,HRV,HRV_0248,2022-11-30 19:48:33
,wl-rdm,122,435187,0.0-8.2-0.2,1.0,120.0,,,,,,,[],,,,,,87.9,0.0,i,1.0,False,729.2000000476837,44.0,60.0,40.0,False,,353.6970736895219,[],"[768, 432]",ColorTask,0.0,3.0,,,HRV,HRV_0248,2022-11-30 19:48:33
,wl-rdm,123,437135,0.0-8.3-0.3,1.0,121.0,,,,,,,[],,,,,,50.0,1.0,i,1.0,True,503.60000002384186,31.0,60.0,40.0,False,,353.57932250242004,[],"[768, 432]",ColorTask,1.0,4.0,,,HRV,HRV_0248,2022-11-30 19:48:33
,wl-rdm,124,439000,0.0-8.4-0.4,1.0,122.0,,,,,,,[],,,,,,87.9,0.0,i,1.0,False,470.2000000476837,29.0,60.0,40.0,False,,308.08725101762343,[],"[768, 432]",ColorTask,0.0,5.0,,,HRV,HRV_0248,2022-11-30 19:48:33
,wl-rdm,125,440916,0.0-8.5-0.5,1.0,123.0,,,,,,,[],,,,,,73.6,0.0,i,1.0,False,617.7000000476837,38.0,60.0,40.0,False,,204.63598192454165,[],"[768, 432]",ColorTask,-1.0,6.0,,,HRV,HRV_0248,2022-11-30 19:48:33
,wl-rdm,126,442947,0.0-8.6-0.6,1.0,124.0,,,,,,,[],,,,,,56.4,1.0,u,0.0,False,729.8999999761581,44.0,60.0,40.0,False,,226.40814904206502,[],"[768, 432]",ColorTask,-2.0,7.0,,,HRV,HRV_0248,2022-11-30 19:48:33
,wl-rdm,127,444796,0.0-8.7-0.7,1.0,125.0,,,,,,,[],,,,,,53.2,1.0,i,1.0,True,505.60000002384186,31.0,60.0,40.0,False,,254.20323062448787,[],"[768, 432]",ColorTask,-1.0,8.0,,,HRV,HRV_0248,2022-11-30 19:48:33
,wl-rdm,128,446578,0.0-8.8-0.8,1.0,126.0,,,,,,,[],,,,,,87.9,0.0,i,1.0,False,387.2999999523163,24.0,60.0,40.0,False,,312.1345825734415,[],"[768, 432]",ColorTask,-2.0,9.0,,,HRV,HRV_0248,2022-11-30 19:48:33
,wl-rdm,129,448243,0.0-8.9-0.9,1.0,127.0,,,,,,,[],,,,,,87.9,1.0,i,1.0,True,363.7000000476837,22.0,60.0,40.0,False,,228.23418525806807,[],"[768, 432]",ColorTask,-1.0,10.0,,,HRV,HRV_0248,2022-11-30 19:48:33
,wl-rdm,130,450059,0.0-8.10-0.10,1.0,128.0,,,,,,,[],,,,,,50.0,0.0,i,1.0,False,386.89999997615814,24.0,60.0,40.0,False,,339.1734026723312,[],"[768, 432]",ColorTask,-2.0,11.0,,,HRV,HRV_0248,2022-11-30 19:48:33
,wl-rdm,131,451740,0.0-8.11-0.11,1.0,129.0,,,,,,,[],,,,,,53.2,0.0,u,0.0,True,369.60000014305115,23.0,60.0,40.0,False,,232.34610685114046,[],"[768, 432]",ColorTask,-1.0,12.0,,,HRV,HRV_0248,2022-11-30 19:48:33
,wl-rdm,132,453706,0.0-8.12-0.12,1.0,130.0,,,,,,,[],,,,,,73.6,0.0,u,0.0,True,559.5,34.0,60.0,40.0,False,,327.5684966008338,[],"[768, 432]",ColorTask,0.0,13.0,,,HRV,HRV_0248,2022-11-30 19:48:33
,wl-rdm,133,455887,0.0-8.13-0.13,1.0,131.0,,,,,,,[],,,,,,50.0,1.0,u,0.0,False,873.7000000476837,53.0,60.0,40.0,False,,229.33348223653812,[],"[768, 432]",ColorTask,-1.0,14.0,,,HRV,HRV_0248,2022-11-30 19:48:33
,wl-rdm,134,460587,0.0-8.14-0.14,1.0,131.0,,,,,,,[4698.200000047684],,,,,,53.2,0.0,,,,,23.0,60.0,40.0,True,exitFullScreen exitFullScreen blurEvent ,298.3808064848623,[],"[768, 432]",ColorTask,-2.0,15.0,,,HRV,HRV_0248,2022-11-30 19:48:33
,wl-rdm,135,463475,0.0-8.15-0.15,1.0,131.0,,,,,,,[],,,,,,87.9,0.0,,,,,0.0,60.0,40.0,True,enterFullScreen ,398.1521211711985,[],"[None, None]",ColorTask,-3.0,16.0,,,HRV,HRV_0248,2022-11-30 19:48:33
,wl-rdm,136,465646,0.0-8.16-0.16,1.0,132.0,,,,,,,[],,,,,,73.6,1.0,u,0.0,False,846.8999998569489,51.0,60.0,40.0,False,,257.6385917037802,[],"[768, 432]",ColorTask,-4.0,17.0,,,HRV,HRV_0248,2022-11-30 19:48:33
,wl-rdm,137,467761,0.0-8.17-0.17,1.0,133.0,,,,,,,[],,,,,,62.5,1.0,i,1.0,True,709.9000000953674,43.0,60.0,40.0,False,,332.3137328130729,[],"[768, 432]",ColorTask,-3.0,18.0,,,HRV,HRV_0248,2022-11-30 19:48:33
,wl-rdm,138,469926,0.0-8.18-0.18,1.0,134.0,,,,,,,[],,,,,,87.9,1.0,i,1.0,True,717.8999998569489,44.0,60.0,40.0,False,,366.3399394973735,[],"[768, 432]",ColorTask,-2.0,19.0,,,HRV,HRV_0248,2022-11-30 19:48:33
,wl-rdm,139,471708,0.0-8.19-0.19,1.0,135.0,,,,,,,[],,,,,,87.9,0.0,i,1.0,False,441.1999999284744,27.0,60.0,40.0,False,,254.30757370248452,[],"[768, 432]",ColorTask,-3.0,20.0,,,HRV,HRV_0248,2022-11-30 19:48:33
,wl-rdm,140,473857,0.0-8.20-0.20,1.0,136.0,,,,,,,[],,,,,,73.6,0.0,i,1.0,False,682.1000000238419,41.0,60.0,40.0,False,,390.64483478960733,[],"[768, 432]",ColorTask,-4.0,21.0,,,HRV,HRV_0248,2022-11-30 19:48:33
,wl-rdm,141,475605,0.0-8.21-0.21,1.0,137.0,,,,,,,[],,,,,,53.2,1.0,u,0.0,False,442.7000000476837,27.0,60.0,40.0,False,,220.5468493095222,[],"[768, 432]",ColorTask,-5.0,22.0,,,HRV,HRV_0248,2022-11-30 19:48:33
,wl-rdm,142,477653,0.0-8.22-0.22,1.0,138.0,,,,,,,[],,,,,,50.0,1.0,i,1.0,True,703.6999999284744,43.0,60.0,40.0,False,,258.4567324885391,[],"[768, 432]",ColorTask,-4.0,23.0,,,HRV,HRV_0248,2022-11-30 19:48:33
,wl-rdm,143,479652,0.0-8.23-0.23,1.0,139.0,,,,,,,[],,,,,,50.0,1.0,i,1.0,True,639.7000000476837,39.0,60.0,40.0,False,,271.9233469875633,[],"[768, 432]",ColorTask,-3.0,24.0,,,HRV,HRV_0248,2022-11-30 19:48:33
,wl-rdm,144,481584,0.0-8.24-0.24,1.0,140.0,,,,,,,[],,,,,,62.5,0.0,i,1.0,False,621.8999999761581,38.0,60.0,40.0,False,,225.92153801553303,[],"[768, 432]",ColorTask,-4.0,25.0,,,HRV,HRV_0248,2022-11-30 19:48:33
,wl-rdm,145,483632,0.0-8.25-0.25,1.0,141.0,,,,,,,[],,,,,,53.2,0.0,i,1.0,False,602.2999999523163,37.0,60.0,40.0,False,,353.9100258637026,[],"[768, 432]",ColorTask,-5.0,26.0,,,HRV,HRV_0248,2022-11-30 19:48:33
,wl-rdm,146,485530,0.0-8.26-0.26,1.0,142.0,,,,,,,[],,,,,,62.5,1.0,u,0.0,False,508.9999998807907,31.0,60.0,40.0,False,,310.9613427390451,[],"[768, 432]",ColorTask,-6.0,27.0,,,HRV,HRV_0248,2022-11-30 19:48:33
,wl-rdm,147,487629,0.0-8.27-0.27,1.0,143.0,,,,,,,[],,,,,,56.4,0.0,u,0.0,True,791.0,48.0,60.0,40.0,False,,224.89729497881606,[],"[768, 432]",ColorTask,-5.0,28.0,,,HRV,HRV_0248,2022-11-30 19:48:33
,wl-rdm,148,489661,0.0-8.28-0.28,1.0,144.0,,,,,,,[],,,,,,62.5,1.0,i,1.0,True,661.8999999761581,40.0,60.0,40.0,False,,289.16731515575054,[],"[768, 432]",ColorTask,-4.0,29.0,,,HRV,HRV_0248,2022-11-30 19:48:33
,wl-rdm,149,491559,0.0-8.29-0.29,1.0,145.0,,,,,,,[],,,,,,73.6,1.0,i,1.0,True,506.6999999284744,31.0,60.0,40.0,False,,304.3394097215376,[],"[768, 432]",ColorTask,-3.0,30.0,,,HRV,HRV_0248,2022-11-30 19:48:33
,wl-rdm,150,494057,0.0-8.30-0.30,1.0,146.0,,,,,,,[],,,,,,87.9,0.0,u,0.0,True,1161.8000000715256,70.0,60.0,40.0,False,,255.56770162077737,[],"[768, 432]",ColorTask,-2.0,31.0,,,HRV,HRV_0248,2022-11-30 19:48:33
,wl-rdm,151,496189,0.0-8.31-0.31,1.0,147.0,,,,,,,[],,,,,,87.9,0.0,u,0.0,True,731.6999999284744,44.0,60.0,40.0,False,,317.50890372222904,[],"[768, 432]",ColorTask,-1.0,32.0,,,HRV,HRV_0248,2022-11-30 19:48:33
,wl-rdm,152,498221,0.0-8.32-0.32,1.0,148.0,,,,,,,[],,,,,,53.2,1.0,u,0.0,False,715.1000000238419,43.0,60.0,40.0,False,,235.38693667460592,[],"[768, 432]",ColorTask,-2.0,33.0,,,HRV,HRV_0248,2022-11-30 19:48:33
,wl-rdm,153,500586,0.0-8.33-0.33,1.0,149.0,,,,,,,[],,,,,,73.6,0.0,u,0.0,True,909.0000001192093,55.0,60.0,40.0,False,,369.1768908460963,[],"[768, 432]",ColorTask,-1.0,34.0,,,HRV,HRV_0248,2022-11-30 19:48:33
,wl-rdm,154,502501,0.0-8.34-0.34,1.0,150.0,,,,,,,[],,,,,,73.6,1.0,u,0.0,False,606.1999998092651,37.0,60.0,40.0,False,,221.89239536663862,[],"[768, 432]",ColorTask,-2.0,35.0,,,HRV,HRV_0248,2022-11-30 19:48:33
,wl-rdm,155,504237,0.0-8.35-0.35,1.0,151.0,,,,,,,[],,,,,,56.4,0.0,i,1.0,False,406.89999997615814,25.0,60.0,40.0,False,,236.70455887013793,[],"[768, 432]",ColorTask,-3.0,36.0,,,HRV,HRV_0248,2022-11-30 19:48:33
,wl-rdm,156,506114,0.0-8.36-0.36,1.0,152.0,,,,,,,[],,,,,,62.5,1.0,i,1.0,True,584.3000000715256,36.0,60.0,40.0,False,,204.47529068964508,[],"[768, 432]",ColorTask,-2.0,37.0,,,HRV,HRV_0248,2022-11-30 19:48:33
,wl-rdm,157,507879,0.0-8.37-0.37,1.0,153.0,,,,,,,[],,,,,,56.4,1.0,i,1.0,True,468.6999999284744,29.0,60.0,40.0,False,,212.81804159304144,[],"[768, 432]",ColorTask,-1.0,38.0,,,HRV,HRV_0248,2022-11-30 19:48:33
,wl-rdm,158,509928,0.0-8.38-0.38,1.0,154.0,,,,,,,[],,,,,,73.6,0.0,u,0.0,True,690.6000000238419,42.0,60.0,40.0,False,,270.04271446993727,[],"[768, 432]",ColorTask,0.0,39.0,,,HRV,HRV_0248,2022-11-30 19:48:33
,wl-rdm,159,512043,0.0-8.39-0.39,1.0,155.0,,,,,,,[],,,,,,50.0,1.0,i,1.0,True,791.5,48.0,60.0,40.0,False,,235.0281662866695,[],"[768, 432]",ColorTask,1.0,40.0,,,HRV,HRV_0248,2022-11-30 19:48:33
,wl-rdm,160,514041,0.0-8.40-0.40,1.0,156.0,,,,,,,[],,,,,,73.6,1.0,i,1.0,True,715.0,43.0,60.0,40.0,False,,211.3814835303212,[],"[768, 432]",ColorTask,2.0,41.0,,,HRV,HRV_0248,2022-11-30 19:48:33
,wl-rdm,161,516090,0.0-8.41-0.41,1.0,157.0,,,,,,,[],,,,,,56.4,0.0,i,1.0,False,738.2000000476837,45.0,60.0,40.0,False,,227.6062128287708,[],"[768, 432]",ColorTask,1.0,42.0,,,HRV,HRV_0248,2022-11-30 19:48:33
,wl-rdm,162,518088,0.0-8.42-0.42,1.0,158.0,,,,,,,[],,,,,,62.5,1.0,i,1.0,True,657.6000000238419,40.0,60.0,40.0,False,,255.35688169433212,[],"[768, 432]",ColorTask,2.0,43.0,,,HRV,HRV_0248,2022-11-30 19:48:33
,wl-rdm,163,520469,0.0-8.43-0.43,1.0,159.0,,,,,,,[],,,,,,50.0,0.0,i,1.0,False,920.7000000476837,56.0,60.0,40.0,False,,374.89557644160607,[],"[768, 432]",ColorTask,1.0,44.0,,,HRV,HRV_0248,2022-11-30 19:48:33
,wl-rdm,164,522401,0.0-8.44-0.44,1.0,160.0,,,,,,,[],,,,,,56.4,1.0,i,1.0,True,587.5,36.0,60.0,40.0,False,,252.92143032221568,[],"[768, 432]",ColorTask,2.0,45.0,,,HRV,HRV_0248,2022-11-30 19:48:33
,wl-rdm,165,524749,0.0-8.45-0.45,1.0,161.0,,,,,,,[],,,,,,53.2,1.0,i,1.0,True,1024.1000000238419,62.0,60.0,40.0,False,,249.64903871956957,[],"[768, 432]",ColorTask,3.0,46.0,,,HRV,HRV_0248,2022-11-30 19:48:33
,wl-rdm,166,526631,0.0-8.46-0.46,1.0,162.0,,,,,,,[],,,,,,62.5,1.0,i,1.0,True,599.5,36.0,60.0,40.0,False,,201.94498965961628,[],"[768, 432]",ColorTask,4.0,47.0,,,HRV,HRV_0248,2022-11-30 19:48:33
,wl-rdm,167,528463,0.0-8.47-0.47,1.0,163.0,,,,,,,[],,,,,,53.2,0.0,i,1.0,False,496.2999999523163,30.0,60.0,40.0,False,,265.3621251290153,[],"[768, 432]",ColorTask,3.0,48.0,,,HRV,HRV_0248,2022-11-30 19:48:33
,wl-rdm,168,530445,0.0-8.48-0.48,1.0,164.0,,,,,,,[],,,,,,62.5,1.0,i,1.0,True,528.3999999761581,32.0,60.0,40.0,False,,366.8737493844736,[],"[768, 432]",ColorTask,4.0,49.0,,,HRV,HRV_0248,2022-11-30 19:48:33
,wl-rdm,169,531744,0.0-8.49-0.49,1.0,164.0,,,,,,,[],,,,,,56.4,1.0,u,,,763.7999999523163,0.0,60.0,40.0,True,too_early ,368.26921020126076,[],"[768, 432]",ColorTask,3.0,50.0,,,HRV,HRV_0248,2022-11-30 19:48:33
,wl-rdm,170,532827,0.0-8.50-0.50,1.0,164.0,,,,,,,[],,,,,,73.6,1.0,u,,,229.29999995231628,0.0,60.0,40.0,True,too_early ,307.1074260963629,[],"[768, 432]",ColorTask,2.0,51.0,,,HRV,HRV_0248,2022-11-30 19:48:33
,wl-rdm,171,534692,0.0-8.51-0.51,1.0,165.0,,,,,,,[],,,,,,53.2,0.0,i,1.0,False,539.5999999046326,33.0,60.0,40.0,False,,239.08094936710935,[],"[768, 432]",ColorTask,1.0,52.0,,,HRV,HRV_0248,2022-11-30 19:48:33
,wl-rdm,172,536607,0.0-8.52-0.52,1.0,166.0,,,,,,,[],,,,,,62.5,0.0,i,1.0,False,560.6000000238419,34.0,60.0,40.0,False,,281.54677010616604,[],"[768, 432]",ColorTask,0.0,53.0,,,HRV,HRV_0248,2022-11-30 19:48:33
,wl-rdm,173,538888,0.0-8.53-0.53,1.0,167.0,,,,,,,[],,,,,,53.2,1.0,u,0.0,False,837.9000000953674,51.0,60.0,40.0,False,,353.5981866429195,[],"[768, 432]",ColorTask,-1.0,54.0,,,HRV,HRV_0248,2022-11-30 19:48:33
,wl-rdm,174,540820,0.0-8.54-0.54,1.0,168.0,,,,,,,[],,,,,,62.5,0.0,i,1.0,False,634.3999999761581,39.0,60.0,40.0,False,,206.58655127243608,[],"[768, 432]",ColorTask,-2.0,55.0,,,HRV,HRV_0248,2022-11-30 19:48:33
,wl-rdm,175,542968,0.0-8.55-0.55,1.0,169.0,,,,,,,[],,,,,,56.4,1.0,i,1.0,True,820.7000000476837,50.0,60.0,40.0,False,,247.47814822327575,[],"[768, 432]",ColorTask,-1.0,56.0,,,HRV,HRV_0248,2022-11-30 19:48:33
,wl-rdm,176,544917,0.0-8.56-0.56,1.0,170.0,,,,,,,[],,,,,,87.9,1.0,i,1.0,True,594.5,36.0,60.0,40.0,False,,278.11295350206194,[],"[768, 432]",ColorTask,0.0,57.0,,,HRV,HRV_0248,2022-11-30 19:48:33
,wl-rdm,177,547215,0.0-8.57-0.57,1.0,171.0,,,,,,,[],,,,,,87.9,0.0,u,0.0,True,845.3999999761581,51.0,60.0,40.0,False,,382.97209113142287,[],"[768, 432]",ColorTask,1.0,58.0,,,HRV,HRV_0248,2022-11-30 19:48:33
,wl-rdm,178,549447,0.0-8.58-0.58,1.0,172.0,,,,,,,[],,,,,,87.9,1.0,i,1.0,True,764.8000000715256,46.0,60.0,40.0,False,,396.7818807763932,[],"[768, 432]",ColorTask,2.0,59.0,,,HRV,HRV_0248,2022-11-30 19:48:33
,wl-rdm,179,551445,0.0-8.59-0.59,1.0,173.0,,,,,,,[],,,,,,50.0,0.0,i,1.0,False,712.4000000953674,43.0,60.0,40.0,False,,213.99210614955985,[],"[768, 432]",ColorTask,1.0,60.0,,,HRV,HRV_0248,2022-11-30 19:48:33
,wl-rdm,180,553294,0.0-8.60-0.60,1.0,174.0,,,,,,,[],,,,,,73.6,0.0,i,1.0,False,532.1999999284744,32.0,60.0,40.0,False,,243.21920847335596,[],"[768, 432]",ColorTask,0.0,61.0,,,HRV,HRV_0248,2022-11-30 19:48:33
,wl-rdm,181,555309,0.0-8.61-0.61,1.0,175.0,,,,,,,[],,,,,,50.0,1.0,i,1.0,True,694.0,42.0,60.0,40.0,False,,246.74298317321222,[],"[768, 432]",ColorTask,1.0,62.0,,,HRV,HRV_0248,2022-11-30 19:48:33
,wl-rdm,182,557340,0.0-8.62-0.62,1.0,176.0,,,,,,,[],,,,,,53.2,0.0,i,1.0,False,559.1999998092651,34.0,60.0,40.0,False,,396.45046133054825,[],"[768, 432]",ColorTask,0.0,63.0,,,HRV,HRV_0248,2022-11-30 19:48:33
,wl-rdm,183,559239,0.0-8.63-0.63,1.0,177.0,,,,,,,[],,,,,,50.0,1.0,i,1.0,True,535.9000000953674,33.0,60.0,40.0,False,,271.750202788661,[],"[768, 432]",ColorTask,1.0,64.0,,,HRV,HRV_0248,2022-11-30 19:48:33
,wl-rdm,184,561204,0.0-8.64-0.64,1.0,178.0,,,,,,,[],,,,,,73.6,1.0,i,1.0,True,588.6000000238419,36.0,60.0,40.0,False,,287.6675159178948,[],"[768, 432]",ColorTask,2.0,65.0,,,HRV,HRV_0248,2022-11-30 19:48:33
,wl-rdm,185,563835,0.0-8.65-0.65,1.0,179.0,,,,,,,[],,,,,,56.4,0.0,i,1.0,False,1303.2999999523163,79.0,60.0,40.0,False,,245.90346801488178,[],"[768, 432]",ColorTask,1.0,66.0,,,HRV,HRV_0248,2022-11-30 19:48:33
,wl-rdm,186,565767,0.0-8.66-0.66,1.0,180.0,,,,,,,[],,,,,,73.6,0.0,i,1.0,False,528.7999999523163,32.0,60.0,40.0,False,,331.30255257922056,[],"[768, 432]",ColorTask,0.0,67.0,,,HRV,HRV_0248,2022-11-30 19:48:33
,wl-rdm,187,567750,0.0-8.67-0.67,1.0,181.0,,,,,,,[],,,,,,62.5,0.0,i,1.0,False,622.3999999761581,38.0,60.0,40.0,False,,278.1717786940075,[],"[768, 432]",ColorTask,-1.0,68.0,,,HRV,HRV_0248,2022-11-30 19:48:33
,wl-rdm,188,569815,0.0-8.68-0.68,1.0,182.0,,,,,,,[],,,,,,87.9,0.0,u,0.0,True,609.5,37.0,60.0,40.0,False,,366.87420756749424,[],"[768, 432]",ColorTask,0.0,69.0,,,HRV,HRV_0248,2022-11-30 19:48:33
,wl-rdm,189,571697,0.0-8.69-0.69,1.0,183.0,,,,,,,[],,,,,,53.2,1.0,i,1.0,True,577.0000001192093,35.0,60.0,40.0,False,,226.3638856360066,[],"[768, 432]",ColorTask,1.0,70.0,,,HRV,HRV_0248,2022-11-30 19:48:33
,wl-rdm,190,573845,0.0-8.70-0.70,1.0,184.0,,,,,,,[],,,,,,53.2,1.0,i,1.0,True,722.9000000953674,44.0,60.0,40.0,False,,348.68124177096496,[],"[768, 432]",ColorTask,2.0,71.0,,,HRV,HRV_0248,2022-11-30 19:48:33
,wl-rdm,191,575777,0.0-8.71-0.71,1.0,185.0,,,,,,,[],,,,,,73.6,1.0,i,1.0,True,545.0,33.0,60.0,40.0,False,,302.6385484254297,[],"[768, 432]",ColorTask,3.0,72.0,,,HRV,HRV_0248,2022-11-30 19:48:33
,wl-rdm,192,577725,0.0-8.72-0.72,1.0,186.0,,,,,,,[],,,,,,50.0,0.0,i,1.0,False,523.6000000238419,32.0,60.0,40.0,False,,342.84707741250156,[],"[768, 432]",ColorTask,2.0,73.0,,,HRV,HRV_0248,2022-11-30 19:48:33
,wl-rdm,193,579590,0.0-8.73-0.73,1.0,187.0,,,,,,,[],,,,,,87.9,1.0,i,1.0,True,405.60000002384186,25.0,60.0,40.0,False,,383.0040457183038,[],"[768, 432]",ColorTask,3.0,74.0,,,HRV,HRV_0248,2022-11-30 19:48:33
,wl-rdm,194,581972,0.0-8.74-0.74,1.0,188.0,,,,,,,[],,,,,,62.5,0.0,u,0.0,True,974.7999999523163,59.0,60.0,40.0,False,,326.7771215106734,[],"[768, 432]",ColorTask,4.0,75.0,,,HRV,HRV_0248,2022-11-30 19:48:33
,wl-rdm,195,584070,0.0-8.75-0.75,1.0,189.0,,,,,,,[],,,,,,56.4,1.0,u,0.0,False,788.2999999523163,48.0,60.0,40.0,False,,233.03325942963,[],"[768, 432]",ColorTask,3.0,76.0,,,HRV,HRV_0248,2022-11-30 19:48:33
,wl-rdm,196,585952,0.0-8.76-0.76,1.0,190.0,,,,,,,[],,,,,,73.6,1.0,i,1.0,True,587.3999999761581,36.0,60.0,40.0,False,,204.6523873420519,[],"[768, 432]",ColorTask,4.0,77.0,,,HRV,HRV_0248,2022-11-30 19:48:33
,wl-rdm,197,588022,0.0-8.77-0.77,1.0,191.0,,,,,,,[],,,,,,50.0,0.0,i,1.0,False,639.5,39.0,60.0,40.0,False,,343.48205485372284,[],"[768, 432]",ColorTask,3.0,78.0,,,HRV,HRV_0248,2022-11-30 19:48:33
,wl-rdm,198,590032,0.0-8.78-0.78,1.0,192.0,,,,,,,[],,,,,,62.5,0.0,i,1.0,False,605.8000000715256,37.0,60.0,40.0,False,,319.69030674277593,[],"[768, 432]",ColorTask,2.0,79.0,,,HRV,HRV_0248,2022-11-30 19:48:33
,wl-rdm,199,591781,0.0-8.79-0.79,1.0,193.0,,,,,,,[],,,,,,87.9,1.0,i,1.0,True,451.90000009536743,28.0,60.0,40.0,False,,202.3549505555269,[],"[768, 432]",ColorTask,3.0,80.0,,,HRV,HRV_0248,2022-11-30 19:48:33
,wl-rdm,200,593646,0.0-8.80-0.80,1.0,194.0,,,,,,,[],,,,,,53.2,0.0,i,1.0,False,475.89999997615814,29.0,60.0,40.0,False,,307.1820683471461,[],"[768, 432]",ColorTask,2.0,81.0,,,HRV,HRV_0248,2022-11-30 19:48:33
,wl-rdm,201,595628,0.0-8.81-0.81,1.0,195.0,,,,,,,[],,,,,,87.9,1.0,i,1.0,True,574.3999999761581,35.0,60.0,40.0,False,,320.9468738861235,[],"[768, 432]",ColorTask,3.0,82.0,,,HRV,HRV_0248,2022-11-30 19:48:33
,wl-rdm,202,597476,0.0-8.82-0.82,1.0,196.0,,,,,,,[],,,,,,73.6,1.0,i,1.0,True,551.8000000715256,34.0,60.0,40.0,False,,210.78192373500508,[],"[768, 432]",ColorTask,4.0,83.0,,,HRV,HRV_0248,2022-11-30 19:48:33
,wl-rdm,203,599242,0.0-8.83-0.83,1.0,197.0,,,,,,,[],,,,,,50.0,1.0,i,1.0,True,457.7999999523163,28.0,60.0,40.0,False,,220.96757523393097,[],"[768, 432]",ColorTask,5.0,84.0,,,HRV,HRV_0248,2022-11-30 19:48:33
,wl-rdm,204,600990,0.0-8.84-0.84,1.0,198.0,,,,,,,[],,,,,,62.5,0.0,i,1.0,False,424.7000000476837,26.0,60.0,40.0,False,,246.68707513095129,[],"[768, 432]",ColorTask,4.0,85.0,,,HRV,HRV_0248,2022-11-30 19:48:33
,wl-rdm,205,602972,0.0-8.85-0.85,1.0,199.0,,,,,,,[],,,,,,56.4,1.0,i,1.0,True,508.10000002384186,31.0,60.0,40.0,False,,395.20786294994116,[],"[768, 432]",ColorTask,5.0,86.0,,,HRV,HRV_0248,2022-11-30 19:48:33
,wl-rdm,206,604704,0.0-8.86-0.86,1.0,200.0,,,,,,,[],,,,,,53.2,0.0,i,1.0,False,436.7000000476837,27.0,60.0,40.0,False,,216.03839344870184,[],"[768, 432]",ColorTask,4.0,87.0,,,HRV,HRV_0248,2022-11-30 19:48:33
,wl-rdm,207,606919,0.0-8.87-0.87,1.0,201.0,,,,,,,[],,,,,,87.9,0.0,u,0.0,True,771.1000000238419,47.0,60.0,40.0,False,,362.32605325093425,[],"[768, 432]",ColorTask,5.0,88.0,,,HRV,HRV_0248,2022-11-30 19:48:33
,wl-rdm,208,609051,0.0-8.88-0.88,1.0,202.0,,,,,,,[],,,,,,62.5,1.0,i,1.0,True,773.2999999523163,47.0,60.0,40.0,False,,282.02159125986634,[],"[768, 432]",ColorTask,6.0,89.0,,,HRV,HRV_0248,2022-11-30 19:48:33
,wl-rdm,209,611016,0.0-8.89-0.89,1.0,203.0,,,,,,,[],,,,,,56.4,0.0,i,1.0,False,658.3000000715256,40.0,60.0,40.0,False,,226.10261851170816,[],"[768, 432]",ColorTask,5.0,90.0,,,HRV,HRV_0248,2022-11-30 19:48:33
,wl-rdm,210,613048,0.0-8.90-0.90,1.0,204.0,,,,,,,[],,,,,,73.6,0.0,i,1.0,False,662.1999999284744,40.0,60.0,40.0,False,,290.97827154056415,[],"[768, 432]",ColorTask,4.0,91.0,,,HRV,HRV_0248,2022-11-30 19:48:33
,wl-rdm,211,615263,0.0-8.91-0.91,1.0,205.0,,,,,,,[],,,,,,73.6,0.0,i,1.0,False,739.5,45.0,60.0,40.0,False,,391.7701394101898,[],"[768, 432]",ColorTask,3.0,92.0,,,HRV,HRV_0248,2022-11-30 19:48:33
,wl-rdm,212,617477,0.0-8.92-0.92,1.0,206.0,,,,,,,[],,,,,,50.0,0.0,i,1.0,False,908.9000000953674,55.0,60.0,40.0,False,,223.96847915607492,[],"[768, 432]",ColorTask,2.0,93.0,,,HRV,HRV_0248,2022-11-30 19:48:33
,wl-rdm,213,619276,0.0-8.93-0.93,1.0,207.0,,,,,,,[],,,,,,53.2,1.0,u,0.0,False,418.39999997615814,26.0,60.0,40.0,False,,287.26649442581197,[],"[768, 432]",ColorTask,1.0,94.0,,,HRV,HRV_0248,2022-11-30 19:48:33
,wl-rdm,214,621008,0.0-8.94-0.94,1.0,208.0,,,,,,,[],,,,,,56.4,0.0,i,1.0,False,448.7999999523163,27.0,60.0,40.0,False,,215.12285016107936,[],"[768, 432]",ColorTask,0.0,95.0,,,HRV,HRV_0248,2022-11-30 19:48:33
,wl-rdm,215,623006,0.0-8.95-0.95,1.0,209.0,,,,,,,[],,,,,,53.2,0.0,u,0.0,True,706.1000000238419,43.0,60.0,40.0,False,,210.7967201228236,[],"[768, 432]",ColorTask,1.0,96.0,,,HRV,HRV_0248,2022-11-30 19:48:33
,wl-rdm,216,624921,0.0-8.96-0.96,1.0,210.0,,,,,,,[],,,,,,87.9,1.0,i,1.0,True,567.2000000476837,35.0,60.0,40.0,False,,258.7544441355084,[],"[768, 432]",ColorTask,2.0,97.0,,,HRV,HRV_0248,2022-11-30 19:48:33
,wl-rdm,217,627253,0.0-8.97-0.97,1.0,211.0,,,,,,,[],,,,,,56.4,0.0,i,1.0,False,984.5,60.0,60.0,40.0,False,,265.58659770547155,[],"[768, 432]",ColorTask,1.0,98.0,,,HRV,HRV_0248,2022-11-30 19:48:33
,wl-rdm,218,629468,0.0-8.98-0.98,1.0,212.0,,,,,,,[],,,,,,56.4,1.0,u,0.0,False,757.0,46.0,60.0,40.0,False,,378.85647465588914,[],"[768, 432]",ColorTask,0.0,99.0,,,HRV,HRV_0248,2022-11-30 19:48:33
,wl-rdm,219,631200,0.0-8.99-0.99,1.0,213.0,,,,,,,[],,,,,,73.6,1.0,i,1.0,True,426.2000000476837,26.0,60.0,40.0,False,,226.70672553850724,[],"[768, 432]",ColorTask,1.0,100.0,,,HRV,HRV_0248,2022-11-30 19:48:33
,wl-rdm,220,633032,0.0-8.100-0.100,1.0,214.0,,,,,,,[],,,,,,62.5,1.0,i,1.0,True,524.9999998807907,32.0,60.0,40.0,False,,223.65213578225584,[],"[768, 432]",ColorTask,2.0,101.0,,,HRV,HRV_0248,2022-11-30 19:48:33
,wl-rdm,221,634980,0.0-8.101-0.101,1.0,215.0,,,,,,,[],,,,,,62.5,0.0,i,1.0,False,467.59999990463257,29.0,60.0,40.0,False,,391.97820042493584,[],"[768, 432]",ColorTask,1.0,102.0,,,HRV,HRV_0248,2022-11-30 19:48:33
,wl-rdm,222,636812,0.0-8.102-0.102,1.0,216.0,,,,,,,[],,,,,,87.9,1.0,i,1.0,True,464.1999999284744,28.0,60.0,40.0,False,,291.2069792099277,[],"[768, 432]",ColorTask,2.0,103.0,,,HRV,HRV_0248,2022-11-30 19:48:33
,wl-rdm,223,638561,0.0-8.103-0.103,1.0,217.0,,,,,,,[],,,,,,50.0,1.0,i,1.0,True,410.89999997615814,25.0,60.0,40.0,False,,252.02746326638308,[],"[768, 432]",ColorTask,3.0,104.0,,,HRV,HRV_0248,2022-11-30 19:48:33
,wl-rdm,224,640276,0.0-8.104-0.104,1.0,218.0,,,,,,,[],,,,,,62.5,0.0,i,1.0,False,391.8000000715256,24.0,60.0,40.0,False,,236.57822005149043,[],"[768, 432]",ColorTask,2.0,105.0,,,HRV,HRV_0248,2022-11-30 19:48:33
,wl-rdm,225,642158,0.0-8.105-0.105,1.0,219.0,,,,,,,[],,,,,,56.4,0.0,i,1.0,False,555.0,34.0,60.0,40.0,False,,247.12845397867534,[],"[768, 432]",ColorTask,1.0,106.0,,,HRV,HRV_0248,2022-11-30 19:48:33
,wl-rdm,226,644123,0.0-8.106-0.106,1.0,220.0,,,,,,,[],,,,,,50.0,0.0,u,0.0,True,657.6000000238419,40.0,60.0,40.0,False,,221.31346271062984,[],"[768, 432]",ColorTask,2.0,107.0,,,HRV,HRV_0248,2022-11-30 19:48:33
,wl-rdm,227,646055,0.0-8.107-0.107,1.0,221.0,,,,,,,[],,,,,,50.0,0.0,u,0.0,True,609.2999999523163,37.0,60.0,40.0,False,,248.99115767272437,[],"[768, 432]",ColorTask,3.0,108.0,,,HRV,HRV_0248,2022-11-30 19:48:33
,wl-rdm,228,648103,0.0-8.108-0.108,1.0,222.0,,,,,,,[],,,,,,53.2,0.0,u,0.0,True,631.8000000715256,38.0,60.0,40.0,False,,340.6736616817911,[],"[768, 432]",ColorTask,4.0,109.0,,,HRV,HRV_0248,2022-11-30 19:48:33
,wl-rdm,229,650268,0.0-8.109-0.109,1.0,223.0,,,,,,,[],,,,,,56.4,0.0,i,1.0,False,732.7000000476837,44.0,60.0,40.0,False,,356.6945929394253,[],"[768, 432]",ColorTask,3.0,110.0,,,HRV,HRV_0248,2022-11-30 19:48:33
,wl-rdm,230,652550,0.0-8.110-0.110,1.0,224.0,,,,,,,[],,,,,,56.4,1.0,u,0.0,False,970.1999999284744,59.0,60.0,40.0,False,,220.36485644648255,[],"[768, 432]",ColorTask,2.0,111.0,,,HRV,HRV_0248,2022-11-30 19:48:33
,wl-rdm,231,654565,0.0-8.111-0.111,1.0,225.0,,,,,,,[],,,,,,50.0,0.0,i,1.0,False,708.8999999761581,43.0,60.0,40.0,False,,229.8663124525079,[],"[768, 432]",ColorTask,1.0,112.0,,,HRV,HRV_0248,2022-11-30 19:48:33
,wl-html-button-response,232,657164,0.0-9.0-0.0,,,,,,,,,,2594.3000000715256,,0,,,,,,,,,,,,,,,,,,,,<h3>End of this session. Thank you!</h3><br>,['Close window'],HRV,HRV_0248,2022-11-30 19:48:33
