trialN,stimuli,trialStartTime,trialStartTime_UNIX,stimulus1,stimulus2,stimulus1Bid,stimulus2Bid,delta,selected,rt,rt_UNIX,rt_perfnow,receivedResponse,rsp,trialEndTime,trialDuration,trialEndTime_UNIX,trialDuration_UNIX,exp,subjectId,date
0,"[{'imgObject': {}, 'id': 'cherry tomato', 'src': '/static/foodstim60/cherry tomato.jpg', 'key': 'u', 'origWidth': 410, 'origHeight': 410, 'width': 410, 'height': 410, 'widthPercent': 0.45, 'rescaleHeight': False, 'trialN': 0, 'loaded': True, 'loadedTime': 3667, 'positionName': 'LEFT', 'positionCoords': [245.68, 179], 'bid': 5.32}, {'imgObject': {}, 'id': 'kiwi', 'src': '/static/foodstim60/kiwi.jpg', 'key': 'i', 'origWidth': 410, 'origHeight': 410, 'width': 410, 'height': 410, 'widthPercent': 0.45, 'rescaleHeight': False, 'trialN': 0, 'loaded': True, 'loadedTime': 3864.2999999523163, 'positionName': 'RIGHT', 'positionCoords': [710.32, 179], 'bid': 7.24}]",8069.399999976158,1669829169005,cherry tomato,kiwi,5.32,7.24,1.92,kiwi,602.0,630,630.3999999761581,True,i,9202.099999964237,1132.699999988079,1669829170137,1132,HRV,HRV_0022,2022-11-30 17:28:13
1,"[{'imgObject': {}, 'id': 'popsicles', 'src': '/static/foodstim60/popsicles.jpg', 'key': 'u', 'origWidth': 410, 'origHeight': 410, 'width': 410, 'height': 410, 'widthPercent': 0.45, 'rescaleHeight': False, 'trialN': 1, 'loaded': True, 'loadedTime': 3986.399999976158, 'positionName': 'LEFT', 'positionCoords': [245.68, 179], 'bid': 6.3}, {'imgObject': {}, 'id': 'yogurt no spoon', 'src': '/static/foodstim60/yogurt no spoon.jpg', 'key': 'i', 'origWidth': 411, 'origHeight': 410, 'width': 411, 'height': 410, 'widthPercent': 0.45, 'rescaleHeight': False, 'trialN': 1, 'loaded': True, 'loadedTime': 4058.699999988079, 'positionName': 'RIGHT', 'positionCoords': [710.32, 179], 'bid': 7.59}]",9202.799999952316,1669829170138,popsicles,yogurt no spoon,6.3,7.59,1.29,yogurt no spoon,95.90000003576279,97,96.5,True,i,9799.899999976158,597.1000000238419,1669829170735,597,HRV,HRV_0022,2022-11-30 17:28:13
2,"[{'imgObject': {}, 'id': 'baked potato', 'src': '/static/foodstim60/baked potato.jpg', 'key': 'u', 'origWidth': 409, 'origHeight': 410, 'width': 409, 'height': 410, 'widthPercent': 0.45, 'rescaleHeight': False, 'trialN': 2, 'loaded': True, 'loadedTime': 4180.899999976158, 'positionName': 'LEFT', 'positionCoords': [246.68, 179], 'bid': 7.57}, {'imgObject': {}, 'id': 'olives', 'src': '/static/foodstim60/olives.jpg', 'key': 'i', 'origWidth': 410, 'origHeight': 410, 'width': 410, 'height': 410, 'widthPercent': 0.45, 'rescaleHeight': False, 'trialN': 2, 'loaded': True, 'loadedTime': 4264.799999952316, 'positionName': 'RIGHT', 'positionCoords': [710.32, 179], 'bid': 7.75}]",9800.299999952316,1669829170736,baked potato,olives,7.57,7.75,0.17999999999999972,olives,25.5,26,26.0,True,i,10329.699999988079,529.4000000357628,1669829171265,529,HRV,HRV_0022,2022-11-30 17:28:13
3,"[{'imgObject': {}, 'id': 'hashbrowns', 'src': '/static/foodstim60/hashbrowns.jpg', 'key': 'u', 'origWidth': 411, 'origHeight': 410, 'width': 411, 'height': 410, 'widthPercent': 0.45, 'rescaleHeight': False, 'trialN': 3, 'loaded': True, 'loadedTime': 4357.699999988079, 'positionName': 'LEFT', 'positionCoords': [244.68, 179], 'bid': 8.74}, {'imgObject': {}, 'id': 'eggs', 'src': '/static/foodstim60/eggs.jpg', 'key': 'i', 'origWidth': 409, 'origHeight': 409, 'width': 409, 'height': 409, 'widthPercent': 0.45, 'rescaleHeight': False, 'trialN': 3, 'loaded': True, 'loadedTime': 4437.899999976158, 'positionName': 'RIGHT', 'positionCoords': [710.32, 179.5], 'bid': 8.68}]",10329.899999976158,1669829171265,hashbrowns,eggs,8.74,8.68,-0.0600000000000005,eggs,69.69999998807907,72,71.39999997615814,True,i,10903.799999952316,573.8999999761581,1669829171839,574,HRV,HRV_0022,2022-11-30 17:28:13
4,"[{'imgObject': {}, 'id': 'chicken nuggets2', 'src': '/static/foodstim60/chicken nuggets2.jpg', 'key': 'u', 'origWidth': 410, 'origHeight': 409, 'width': 410, 'height': 409, 'widthPercent': 0.45, 'rescaleHeight': False, 'trialN': 4, 'loaded': True, 'loadedTime': 4446.599999964237, 'positionName': 'LEFT', 'positionCoords': [245.68, 179.5], 'bid': 6.11}, {'imgObject': {}, 'id': 'bagel and cc', 'src': '/static/foodstim60/bagel and cc.jpg', 'key': 'i', 'origWidth': 410, 'origHeight': 410, 'width': 410, 'height': 410, 'widthPercent': 0.45, 'rescaleHeight': False, 'trialN': 4, 'loaded': True, 'loadedTime': 4509.799999952316, 'positionName': 'RIGHT', 'positionCoords': [710.32, 179], 'bid': 6.15}]",10904.099999964237,1669829171839,chicken nuggets2,bagel and cc,6.11,6.15,0.040000000000000036,chicken nuggets2,195.80000001192093,197,196.4000000357628,True,u,11605.399999976158,701.3000000119209,1669829172541,702,HRV,HRV_0022,2022-11-30 17:28:13
5,"[{'imgObject': {}, 'id': 'Tribe humus pita', 'src': '/static/foodstim60/Tribe humus pita.jpg', 'key': 'u', 'origWidth': 411, 'origHeight': 411, 'width': 411, 'height': 411, 'widthPercent': 0.45, 'rescaleHeight': False, 'trialN': 5, 'loaded': True, 'loadedTime': 4594.199999988079, 'positionName': 'LEFT', 'positionCoords': [244.68, 178.5], 'bid': 7.04}, {'imgObject': {}, 'id': 'apple slices', 'src': '/static/foodstim60/apple slices.jpg', 'key': 'i', 'origWidth': 409, 'origHeight': 410, 'width': 409, 'height': 410, 'widthPercent': 0.45, 'rescaleHeight': False, 'trialN': 5, 'loaded': True, 'loadedTime': 4672.899999976158, 'positionName': 'RIGHT', 'positionCoords': [710.32, 179], 'bid': 7.34}]",11605.599999964237,1669829172541,Tribe humus pita,apple slices,7.04,7.34,0.2999999999999998,Tribe humus pita,50.30000001192093,51,50.80000001192093,True,u,12170.299999952316,564.6999999880791,1669829173106,565,HRV,HRV_0022,2022-11-30 17:28:13
6,"[{'imgObject': {}, 'id': 'eggs', 'src': '/static/foodstim60/eggs.jpg', 'key': 'u', 'origWidth': 409, 'origHeight': 409, 'width': 409, 'height': 409, 'widthPercent': 0.45, 'rescaleHeight': False, 'trialN': 6, 'loaded': True, 'loadedTime': 4363.299999952316, 'positionName': 'LEFT', 'positionCoords': [246.68, 179.5], 'bid': 8.68}, {'imgObject': {}, 'id': 'blueberries', 'src': '/static/foodstim60/blueberries.jpg', 'key': 'i', 'origWidth': 411, 'origHeight': 411, 'width': 411, 'height': 411, 'widthPercent': 0.45, 'rescaleHeight': False, 'trialN': 6, 'loaded': True, 'loadedTime': 4760.699999988079, 'positionName': 'RIGHT', 'positionCoords': [710.32, 178.5], 'bid': 7.97}]",12170.799999952316,1669829173106,eggs,blueberries,8.68,7.97,-0.71,blueberries,60.40000003576279,61,60.90000003576279,True,i,12745.699999988079,574.9000000357628,1669829173681,575,HRV,HRV_0022,2022-11-30 17:28:13
7,"[{'imgObject': {}, 'id': 'salad w chicken', 'src': '/static/foodstim60/salad w chicken.jpg', 'key': 'u', 'origWidth': 411, 'origHeight': 411, 'width': 411, 'height': 411, 'widthPercent': 0.45, 'rescaleHeight': False, 'trialN': 7, 'loaded': True, 'loadedTime': 4824.099999964237, 'positionName': 'LEFT', 'positionCoords': [244.68, 178.5], 'bid': 7.75}, {'imgObject': {}, 'id': 'rigatoni', 'src': '/static/foodstim60/rigatoni.jpg', 'key': 'i', 'origWidth': 411, 'origHeight': 411, 'width': 411, 'height': 411, 'widthPercent': 0.45, 'rescaleHeight': False, 'trialN': 7, 'loaded': True, 'loadedTime': 4824.899999976158, 'positionName': 'RIGHT', 'positionCoords': [710.32, 178.5], 'bid': 7.84}]",12746.0,1669829173681,salad w chicken,rigatoni,7.75,7.84,0.08999999999999986,rigatoni,64.5,65,64.89999997615814,True,i,13320.099999964237,574.0999999642372,1669829174255,574,HRV,HRV_0022,2022-11-30 17:28:13
8,"[{'imgObject': {}, 'id': 'lox', 'src': '/static/foodstim60/lox.jpg', 'key': 'u', 'origWidth': 410, 'origHeight': 411, 'width': 410, 'height': 411, 'widthPercent': 0.45, 'rescaleHeight': False, 'trialN': 8, 'loaded': True, 'loadedTime': 4898.599999964237, 'positionName': 'LEFT', 'positionCoords': [245.68, 178.5], 'bid': 6.59}, {'imgObject': {}, 'id': 'omelette', 'src': '/static/foodstim60/omelette.jpg', 'key': 'i', 'origWidth': 410, 'origHeight': 409, 'width': 410, 'height': 409, 'widthPercent': 0.45, 'rescaleHeight': False, 'trialN': 8, 'loaded': True, 'loadedTime': 4962.099999964237, 'positionName': 'RIGHT', 'positionCoords': [710.32, 179.5], 'bid': 6.74}]",13320.399999976158,1669829174256,lox,omelette,6.59,6.74,0.15000000000000036,lox,164.69999998807907,165,165.19999998807907,True,u,13993.599999964237,673.1999999880791,1669829174929,673,HRV,HRV_0022,2022-11-30 17:28:13
9,"[{'imgObject': {}, 'id': 'mango', 'src': '/static/foodstim60/mango.jpg', 'key': 'u', 'origWidth': 411, 'origHeight': 411, 'width': 411, 'height': 411, 'widthPercent': 0.45, 'rescaleHeight': False, 'trialN': 9, 'loaded': True, 'loadedTime': 5021.899999976158, 'positionName': 'LEFT', 'positionCoords': [244.68, 178.5], 'bid': 6.12}, {'imgObject': {}, 'id': 'chicken nuggets2', 'src': '/static/foodstim60/chicken nuggets2.jpg', 'key': 'i', 'origWidth': 410, 'origHeight': 409, 'width': 410, 'height': 409, 'widthPercent': 0.45, 'rescaleHeight': False, 'trialN': 9, 'loaded': True, 'loadedTime': 4442, 'positionName': 'RIGHT', 'positionCoords': [710.32, 179.5], 'bid': 6.11}]",13994.0,1669829174929,mango,chicken nuggets2,6.12,6.11,-0.009999999999999787,mango,12.0,13,12.399999976158142,True,u,14523.299999952316,529.2999999523163,1669829175459,530,HRV,HRV_0022,2022-11-30 17:28:13
10,"[{'imgObject': {}, 'id': 'salad w chicken', 'src': '/static/foodstim60/salad w chicken.jpg', 'key': 'u', 'origWidth': 411, 'origHeight': 411, 'width': 411, 'height': 411, 'widthPercent': 0.45, 'rescaleHeight': False, 'trialN': 10, 'loaded': True, 'loadedTime': 4770, 'positionName': 'LEFT', 'positionCoords': [244.68, 178.5], 'bid': 7.75}, {'imgObject': {}, 'id': 'pear', 'src': '/static/foodstim60/pear.jpg', 'key': 'i', 'origWidth': 411, 'origHeight': 410, 'width': 411, 'height': 410, 'widthPercent': 0.45, 'rescaleHeight': False, 'trialN': 10, 'loaded': True, 'loadedTime': 5028.5, 'positionName': 'RIGHT', 'positionCoords': [710.32, 179], 'bid': 6.61}]",14523.799999952316,1669829175459,salad w chicken,pear,7.75,6.61,-1.1399999999999997,salad w chicken,158.0,158,158.30000001192093,True,u,15216.899999976158,693.1000000238419,1669829176152,693,HRV,HRV_0022,2022-11-30 17:28:13
11,"[{'imgObject': {}, 'id': 'seaweed', 'src': '/static/foodstim60/seaweed.jpg', 'key': 'u', 'origWidth': 410, 'origHeight': 410, 'width': 410, 'height': 410, 'widthPercent': 0.45, 'rescaleHeight': False, 'trialN': 11, 'loaded': True, 'loadedTime': 5091.199999988079, 'positionName': 'LEFT', 'positionCoords': [245.68, 179], 'bid': 7.22}, {'imgObject': {}, 'id': 'turkey sandwich', 'src': '/static/foodstim60/turkey sandwich.jpg', 'key': 'i', 'origWidth': 409, 'origHeight': 409, 'width': 409, 'height': 409, 'widthPercent': 0.45, 'rescaleHeight': False, 'trialN': 11, 'loaded': True, 'loadedTime': 5248.199999988079, 'positionName': 'RIGHT', 'positionCoords': [710.32, 179.5], 'bid': 7.59}]",15217.299999952316,1669829176153,seaweed,turkey sandwich,7.22,7.59,0.3700000000000001,turkey sandwich,260.5,261,261.30000001192093,True,i,16000.299999952316,783.0,1669829176936,783,HRV,HRV_0022,2022-11-30 17:28:13
12,"[{'imgObject': {}, 'id': 'cantaloupe', 'src': '/static/foodstim60/cantaloupe.jpg', 'key': 'u', 'origWidth': 409, 'origHeight': 409, 'width': 409, 'height': 409, 'widthPercent': 0.45, 'rescaleHeight': False, 'trialN': 12, 'loaded': True, 'loadedTime': 5265.699999988079, 'positionName': 'LEFT', 'positionCoords': [246.68, 179.5], 'bid': 7.26}, {'imgObject': {}, 'id': 'ice cream sundae 002', 'src': '/static/foodstim60/ice cream sundae 002.jpg', 'key': 'i', 'origWidth': 409, 'origHeight': 409, 'width': 409, 'height': 409, 'widthPercent': 0.45, 'rescaleHeight': False, 'trialN': 12, 'loaded': True, 'loadedTime': 5397.199999988079, 'positionName': 'RIGHT', 'positionCoords': [710.32, 179.5], 'bid': 7.16}]",16000.799999952316,1669829176936,cantaloupe,ice cream sundae 002,7.26,7.16,-0.09999999999999964,ice cream sundae 002,185.5,187,186.80000001192093,True,i,16690.799999952316,690.0,1669829177626,690,HRV,HRV_0022,2022-11-30 17:28:13
13,"[{'imgObject': {}, 'id': 'blackbeanswithrice', 'src': '/static/foodstim60/blackbeanswithrice.jpg', 'key': 'u', 'origWidth': 410, 'origHeight': 410, 'width': 410, 'height': 410, 'widthPercent': 0.45, 'rescaleHeight': False, 'trialN': 13, 'loaded': True, 'loadedTime': 5553.199999988079, 'positionName': 'LEFT', 'positionCoords': [245.68, 179], 'bid': 7.94}, {'imgObject': {}, 'id': 'hashbrowns', 'src': '/static/foodstim60/hashbrowns.jpg', 'key': 'i', 'origWidth': 411, 'origHeight': 410, 'width': 411, 'height': 410, 'widthPercent': 0.45, 'rescaleHeight': False, 'trialN': 13, 'loaded': True, 'loadedTime': 4362.199999988079, 'positionName': 'RIGHT', 'positionCoords': [710.32, 179], 'bid': 8.74}]",16691.19999998808,1669829177627,blackbeanswithrice,hashbrowns,7.94,8.74,0.7999999999999998,hashbrowns,82.39999997615814,82,82.80000001192093,True,i,17284.399999976158,593.1999999880791,1669829178220,593,HRV,HRV_0022,2022-11-30 17:28:13
14,"[{'imgObject': {}, 'id': 'omelette', 'src': '/static/foodstim60/omelette.jpg', 'key': 'u', 'origWidth': 410, 'origHeight': 409, 'width': 410, 'height': 409, 'widthPercent': 0.45, 'rescaleHeight': False, 'trialN': 14, 'loaded': True, 'loadedTime': 4964.399999976158, 'positionName': 'LEFT', 'positionCoords': [245.68, 179.5], 'bid': 6.74}, {'imgObject': {}, 'id': 'hotdog w must', 'src': '/static/foodstim60/hotdog w must.jpg', 'key': 'i', 'origWidth': 409, 'origHeight': 409, 'width': 409, 'height': 409, 'widthPercent': 0.45, 'rescaleHeight': False, 'trialN': 14, 'loaded': True, 'loadedTime': 5558, 'positionName': 'RIGHT', 'positionCoords': [710.32, 179.5], 'bid': 6.71}]",17284.899999976158,1669829178220,omelette,hotdog w must,6.74,6.71,-0.03000000000000025,omelette,91.60000002384186,92,91.89999997615814,True,u,17879.0,594.1000000238419,1669829178814,594,HRV,HRV_0022,2022-11-30 17:28:13
15,"[{'imgObject': {}, 'id': 'froot loops w milk', 'src': '/static/foodstim60/froot loops w milk.jpg', 'key': 'u', 'origWidth': 410, 'origHeight': 410, 'width': 410, 'height': 410, 'widthPercent': 0.45, 'rescaleHeight': False, 'trialN': 15, 'loaded': True, 'loadedTime': 5714.399999976158, 'positionName': 'LEFT', 'positionCoords': [245.68, 179], 'bid': 5.67}, {'imgObject': {}, 'id': 'eggsalad', 'src': '/static/foodstim60/eggsalad.jpg', 'key': 'i', 'origWidth': 410, 'origHeight': 409, 'width': 410, 'height': 409, 'widthPercent': 0.45, 'rescaleHeight': False, 'trialN': 15, 'loaded': True, 'loadedTime': 5827.899999976158, 'positionName': 'RIGHT', 'positionCoords': [710.32, 179.5], 'bid': 6.18}]",17879.399999976158,1669829178815,froot loops w milk,eggsalad,5.67,6.18,0.5099999999999998,eggsalad,140.30000001192093,141,140.89999997615814,True,i,18530.399999976158,651.0,1669829179466,651,HRV,HRV_0022,2022-11-30 17:28:13
16,"[{'imgObject': {}, 'id': 'apple slices', 'src': '/static/foodstim60/apple slices.jpg', 'key': 'u', 'origWidth': 409, 'origHeight': 410, 'width': 409, 'height': 410, 'widthPercent': 0.45, 'rescaleHeight': False, 'trialN': 16, 'loaded': True, 'loadedTime': 4682.699999988079, 'positionName': 'LEFT', 'positionCoords': [246.68, 179], 'bid': 7.34}, {'imgObject': {}, 'id': 'avocado', 'src': '/static/foodstim60/avocado.jpg', 'key': 'i', 'origWidth': 409, 'origHeight': 409, 'width': 409, 'height': 409, 'widthPercent': 0.45, 'rescaleHeight': False, 'trialN': 16, 'loaded': True, 'loadedTime': 5835.699999988079, 'positionName': 'RIGHT', 'positionCoords': [710.32, 179.5], 'bid': 7.41}]",18531.099999964237,1669829179466,apple slices,avocado,7.34,7.41,0.07000000000000028,avocado,118.60000002384186,120,119.40000003576279,True,i,19154.399999976158,623.3000000119209,1669829180090,624,HRV,HRV_0022,2022-11-30 17:28:13
17,"[{'imgObject': {}, 'id': 'cocktailshrimp', 'src': '/static/foodstim60/cocktailshrimp.jpg', 'key': 'u', 'origWidth': 410, 'origHeight': 410, 'width': 410, 'height': 410, 'widthPercent': 0.45, 'rescaleHeight': False, 'trialN': 17, 'loaded': True, 'loadedTime': 5841.599999964237, 'positionName': 'LEFT', 'positionCoords': [245.68, 179], 'bid': 6.53}, {'imgObject': {}, 'id': 'grilled chicken strips', 'src': '/static/foodstim60/grilled chicken strips.jpg', 'key': 'i', 'origWidth': 410, 'origHeight': 411, 'width': 410, 'height': 411, 'widthPercent': 0.45, 'rescaleHeight': False, 'trialN': 17, 'loaded': True, 'loadedTime': 5898.399999976158, 'positionName': 'RIGHT', 'positionCoords': [710.32, 178.5], 'bid': 6.37}]",19154.899999976158,1669829180090,cocktailshrimp,grilled chicken strips,6.53,6.37,-0.16000000000000014,grilled chicken strips,41.80000001192093,42,42.19999998807907,True,i,19713.099999964237,558.1999999880791,1669829180649,559,HRV,HRV_0022,2022-11-30 17:28:13
18,"[{'imgObject': {}, 'id': 'hotdog w must', 'src': '/static/foodstim60/hotdog w must.jpg', 'key': 'u', 'origWidth': 409, 'origHeight': 409, 'width': 409, 'height': 409, 'widthPercent': 0.45, 'rescaleHeight': False, 'trialN': 18, 'loaded': True, 'loadedTime': 5558.399999976158, 'positionName': 'LEFT', 'positionCoords': [246.68, 179.5], 'bid': 6.71}, {'imgObject': {}, 'id': 'cherries', 'src': '/static/foodstim60/cherries.jpg', 'key': 'i', 'origWidth': 410, 'origHeight': 411, 'width': 410, 'height': 411, 'widthPercent': 0.45, 'rescaleHeight': False, 'trialN': 18, 'loaded': True, 'loadedTime': 5901.099999964237, 'positionName': 'RIGHT', 'positionCoords': [710.32, 178.5], 'bid': 6.11}]",19713.5,1669829180649,hotdog w must,cherries,6.71,6.11,-0.5999999999999996,cherries,101.89999997615814,103,102.79999995231628,True,i,20336.0,622.5,1669829181271,622,HRV,HRV_0022,2022-11-30 17:28:13
19,"[{'imgObject': {}, 'id': 'baked potato', 'src': '/static/foodstim60/baked potato.jpg', 'key': 'u', 'origWidth': 409, 'origHeight': 410, 'width': 409, 'height': 410, 'widthPercent': 0.45, 'rescaleHeight': False, 'trialN': 19, 'loaded': True, 'loadedTime': 4180.199999988079, 'positionName': 'LEFT', 'positionCoords': [246.68, 179], 'bid': 7.57}, {'imgObject': {}, 'id': 'turkey sandwich', 'src': '/static/foodstim60/turkey sandwich.jpg', 'key': 'i', 'origWidth': 409, 'origHeight': 409, 'width': 409, 'height': 409, 'widthPercent': 0.45, 'rescaleHeight': False, 'trialN': 19, 'loaded': True, 'loadedTime': 5249.5, 'positionName': 'RIGHT', 'positionCoords': [710.32, 179.5], 'bid': 7.59}]",20336.399999976158,1669829181272,baked potato,turkey sandwich,7.57,7.59,0.019999999999999574,baked potato,187.0,189,189.0,True,u,21038.099999964237,701.6999999880791,1669829181973,701,HRV,HRV_0022,2022-11-30 17:28:13
20,"[{'imgObject': {}, 'id': 'Grapes', 'src': '/static/foodstim60/Grapes.jpg', 'key': 'u', 'origWidth': 411, 'origHeight': 411, 'width': 411, 'height': 411, 'widthPercent': 0.45, 'rescaleHeight': False, 'trialN': 20, 'loaded': True, 'loadedTime': 5999.899999976158, 'positionName': 'LEFT', 'positionCoords': [244.68, 178.5], 'bid': 6.99}, {'imgObject': {}, 'id': 'Tribe humus pita', 'src': '/static/foodstim60/Tribe humus pita.jpg', 'key': 'i', 'origWidth': 411, 'origHeight': 411, 'width': 411, 'height': 411, 'widthPercent': 0.45, 'rescaleHeight': False, 'trialN': 20, 'loaded': True, 'loadedTime': 4606.5, 'positionName': 'RIGHT', 'positionCoords': [710.32, 178.5], 'bid': 7.04}]",21038.299999952316,1669829181974,Grapes,Tribe humus pita,6.99,7.04,0.04999999999999982,Grapes,38.5,38,38.90000003576279,True,u,21596.5,558.2000000476837,1669829182532,558,HRV,HRV_0022,2022-11-30 17:28:13
21,"[{'imgObject': {}, 'id': 'seaweed', 'src': '/static/foodstim60/seaweed.jpg', 'key': 'u', 'origWidth': 410, 'origHeight': 410, 'width': 410, 'height': 410, 'widthPercent': 0.45, 'rescaleHeight': False, 'trialN': 21, 'loaded': True, 'loadedTime': 5086.799999952316, 'positionName': 'LEFT', 'positionCoords': [245.68, 179], 'bid': 7.22}, {'imgObject': {}, 'id': 'avocado', 'src': '/static/foodstim60/avocado.jpg', 'key': 'i', 'origWidth': 409, 'origHeight': 409, 'width': 409, 'height': 409, 'widthPercent': 0.45, 'rescaleHeight': False, 'trialN': 21, 'loaded': True, 'loadedTime': 5836, 'positionName': 'RIGHT', 'positionCoords': [710.32, 179.5], 'bid': 7.41}]",21597.099999964237,1669829182532,seaweed,avocado,7.22,7.41,0.1900000000000004,seaweed,62.40000003576279,63,62.80000001192093,True,u,22166.0,568.9000000357628,1669829183101,569,HRV,HRV_0022,2022-11-30 17:28:13
22,"[{'imgObject': {}, 'id': 'Grapes', 'src': '/static/foodstim60/Grapes.jpg', 'key': 'u', 'origWidth': 411, 'origHeight': 411, 'width': 411, 'height': 411, 'widthPercent': 0.45, 'rescaleHeight': False, 'trialN': 22, 'loaded': True, 'loadedTime': 5904.199999988079, 'positionName': 'LEFT', 'positionCoords': [244.68, 178.5], 'bid': 6.99}, {'imgObject': {}, 'id': 'burrito', 'src': '/static/foodstim60/burrito.jpg', 'key': 'i', 'origWidth': 410, 'origHeight': 410, 'width': 410, 'height': 410, 'widthPercent': 0.45, 'rescaleHeight': False, 'trialN': 22, 'loaded': True, 'loadedTime': 6003.099999964237, 'positionName': 'RIGHT', 'positionCoords': [710.32, 179], 'bid': 6.9}]",22166.69999998808,1669829183102,Grapes,burrito,6.99,6.9,-0.08999999999999986,Grapes,17.69999998807907,18,18.099999964237213,True,u,22693.099999964237,526.3999999761581,1669829183628,526,HRV,HRV_0022,2022-11-30 17:28:13
23,"[{'imgObject': {}, 'id': 'steak', 'src': '/static/foodstim60/steak.jpg', 'key': 'u', 'origWidth': 410, 'origHeight': 410, 'width': 410, 'height': 410, 'widthPercent': 0.45, 'rescaleHeight': False, 'trialN': 23, 'loaded': True, 'loadedTime': 6043, 'positionName': 'LEFT', 'positionCoords': [245.68, 179], 'bid': 7.73}, {'imgObject': {}, 'id': 'olives', 'src': '/static/foodstim60/olives.jpg', 'key': 'i', 'origWidth': 410, 'origHeight': 410, 'width': 410, 'height': 410, 'widthPercent': 0.45, 'rescaleHeight': False, 'trialN': 23, 'loaded': True, 'loadedTime': 4264.199999988079, 'positionName': 'RIGHT', 'positionCoords': [710.32, 179], 'bid': 7.75}]",22693.299999952316,1669829183629,steak,olives,7.73,7.75,0.019999999999999574,olives,142.9000000357628,143,143.70000004768372,True,i,23356.399999976158,663.1000000238419,1669829184292,663,HRV,HRV_0022,2022-11-30 17:28:13
24,"[{'imgObject': {}, 'id': 'cantaloupe', 'src': '/static/foodstim60/cantaloupe.jpg', 'key': 'u', 'origWidth': 409, 'origHeight': 409, 'width': 409, 'height': 409, 'widthPercent': 0.45, 'rescaleHeight': False, 'trialN': 24, 'loaded': True, 'loadedTime': 5256.099999964237, 'positionName': 'LEFT', 'positionCoords': [246.68, 179.5], 'bid': 7.26}, {'imgObject': {}, 'id': 'rigatoni', 'src': '/static/foodstim60/rigatoni.jpg', 'key': 'i', 'origWidth': 411, 'origHeight': 411, 'width': 411, 'height': 411, 'widthPercent': 0.45, 'rescaleHeight': False, 'trialN': 24, 'loaded': True, 'loadedTime': 4827.699999988079, 'positionName': 'RIGHT', 'positionCoords': [710.32, 178.5], 'bid': 7.84}]",23357.299999952316,1669829184293,cantaloupe,rigatoni,7.26,7.84,0.5800000000000001,rigatoni,16.100000023841858,17,17.0,True,i,23889.399999976158,532.1000000238419,1669829184825,532,HRV,HRV_0022,2022-11-30 17:28:13
25,"[{'imgObject': {}, 'id': 'rigatoni', 'src': '/static/foodstim60/rigatoni.jpg', 'key': 'u', 'origWidth': 411, 'origHeight': 411, 'width': 411, 'height': 411, 'widthPercent': 0.45, 'rescaleHeight': False, 'trialN': 25, 'loaded': True, 'loadedTime': 4831.599999964237, 'positionName': 'LEFT', 'positionCoords': [244.68, 178.5], 'bid': 7.84}, {'imgObject': {}, 'id': 'edamame', 'src': '/static/foodstim60/edamame.jpg', 'key': 'i', 'origWidth': 409, 'origHeight': 410, 'width': 409, 'height': 410, 'widthPercent': 0.45, 'rescaleHeight': False, 'trialN': 25, 'loaded': True, 'loadedTime': 6047.299999952316, 'positionName': 'RIGHT', 'positionCoords': [710.32, 179], 'bid': 7.85}]",23889.69999998808,1669829184825,rigatoni,edamame,7.84,7.85,0.009999999999999787,edamame,16.80000001192093,18,17.5,True,i,24422.399999976158,532.6999999880791,1669829185358,533,HRV,HRV_0022,2022-11-30 17:28:13
26,"[{'imgObject': {}, 'id': 'burrito', 'src': '/static/foodstim60/burrito.jpg', 'key': 'u', 'origWidth': 410, 'origHeight': 410, 'width': 410, 'height': 410, 'widthPercent': 0.45, 'rescaleHeight': False, 'trialN': 26, 'loaded': True, 'loadedTime': 6003.5, 'positionName': 'LEFT', 'positionCoords': [245.68, 179], 'bid': 6.9}, {'imgObject': {}, 'id': 'mango', 'src': '/static/foodstim60/mango.jpg', 'key': 'i', 'origWidth': 411, 'origHeight': 411, 'width': 411, 'height': 411, 'widthPercent': 0.45, 'rescaleHeight': False, 'trialN': 26, 'loaded': True, 'loadedTime': 5017.599999964237, 'positionName': 'RIGHT', 'positionCoords': [710.32, 178.5], 'bid': 6.12}]",24422.69999998808,1669829185358,burrito,mango,6.9,6.12,-0.7800000000000002,mango,80.19999998807907,81,80.69999998807907,True,i,25023.299999952316,600.5999999642372,1669829185959,601,HRV,HRV_0022,2022-11-30 17:28:13
27,"[{'imgObject': {}, 'id': 'sweetpotato', 'src': '/static/foodstim60/sweetpotato.jpg', 'key': 'u', 'origWidth': 410, 'origHeight': 410, 'width': 410, 'height': 410, 'widthPercent': 0.45, 'rescaleHeight': False, 'trialN': 27, 'loaded': True, 'loadedTime': 6246.5, 'positionName': 'LEFT', 'positionCoords': [245.68, 179], 'bid': 7.18}, {'imgObject': {}, 'id': 'seaweed', 'src': '/static/foodstim60/seaweed.jpg', 'key': 'i', 'origWidth': 410, 'origHeight': 410, 'width': 410, 'height': 410, 'widthPercent': 0.45, 'rescaleHeight': False, 'trialN': 27, 'loaded': True, 'loadedTime': 5093.299999952316, 'positionName': 'RIGHT', 'positionCoords': [710.32, 179], 'bid': 7.22}]",25023.799999952316,1669829185959,sweetpotato,seaweed,7.18,7.22,0.040000000000000036,seaweed,70.30000001192093,71,70.70000004768372,True,i,25608.099999964237,584.3000000119209,1669829186543,584,HRV,HRV_0022,2022-11-30 17:28:13
28,"[{'imgObject': {}, 'id': 'veggieswithdip', 'src': '/static/foodstim60/veggieswithdip.jpg', 'key': 'u', 'origWidth': 409, 'origHeight': 409, 'width': 409, 'height': 409, 'widthPercent': 0.45, 'rescaleHeight': False, 'trialN': 28, 'loaded': True, 'loadedTime': 6251.5, 'positionName': 'LEFT', 'positionCoords': [246.68, 179.5], 'bid': 7.66}, {'imgObject': {}, 'id': 'rigatoni', 'src': '/static/foodstim60/rigatoni.jpg', 'key': 'i', 'origWidth': 411, 'origHeight': 411, 'width': 411, 'height': 411, 'widthPercent': 0.45, 'rescaleHeight': False, 'trialN': 28, 'loaded': True, 'loadedTime': 4830.899999976158, 'positionName': 'RIGHT', 'positionCoords': [710.32, 178.5], 'bid': 7.84}]",25608.5,1669829186544,veggieswithdip,rigatoni,7.66,7.84,0.17999999999999972,rigatoni,66.69999998807907,67,67.19999998807907,True,i,26188.5,580.0,1669829187124,580,HRV,HRV_0022,2022-11-30 17:28:13
29,"[{'imgObject': {}, 'id': 'mango', 'src': '/static/foodstim60/mango.jpg', 'key': 'u', 'origWidth': 411, 'origHeight': 411, 'width': 411, 'height': 411, 'widthPercent': 0.45, 'rescaleHeight': False, 'trialN': 29, 'loaded': True, 'loadedTime': 4967.799999952316, 'positionName': 'LEFT', 'positionCoords': [244.68, 178.5], 'bid': 6.12}, {'imgObject': {}, 'id': 'mac & cheese', 'src': '/static/foodstim60/mac & cheese.jpg', 'key': 'i', 'origWidth': 410, 'origHeight': 410, 'width': 410, 'height': 410, 'widthPercent': 0.45, 'rescaleHeight': False, 'trialN': 29, 'loaded': True, 'loadedTime': 6389.199999988079, 'positionName': 'RIGHT', 'positionCoords': [710.32, 179], 'bid': 6.62}]",26188.899999976158,1669829187124,mango,mac & cheese,6.12,6.62,0.5,mac & cheese,95.30000001192093,97,96.5,True,i,26806.5,617.6000000238419,1669829187742,618,HRV,HRV_0022,2022-11-30 17:28:13
30,"[{'imgObject': {}, 'id': 'blackbeanswithrice', 'src': '/static/foodstim60/blackbeanswithrice.jpg', 'key': 'u', 'origWidth': 410, 'origHeight': 410, 'width': 410, 'height': 410, 'widthPercent': 0.45, 'rescaleHeight': False, 'trialN': 30, 'loaded': True, 'loadedTime': 5547.199999988079, 'positionName': 'LEFT', 'positionCoords': [245.68, 179], 'bid': 7.94}, {'imgObject': {}, 'id': 'omelette', 'src': '/static/foodstim60/omelette.jpg', 'key': 'i', 'origWidth': 410, 'origHeight': 409, 'width': 410, 'height': 409, 'widthPercent': 0.45, 'rescaleHeight': False, 'trialN': 30, 'loaded': True, 'loadedTime': 4962.599999964237, 'positionName': 'RIGHT', 'positionCoords': [710.32, 179.5], 'bid': 6.74}]",26807.19999998808,1669829187742,blackbeanswithrice,omelette,7.94,6.74,-1.2000000000000002,omelette,53.09999996423721,54,53.59999996423721,True,i,27361.899999976158,554.6999999880791,1669829188297,555,HRV,HRV_0022,2022-11-30 17:28:13
31,"[{'imgObject': {}, 'id': 'avocado', 'src': '/static/foodstim60/avocado.jpg', 'key': 'u', 'origWidth': 409, 'origHeight': 409, 'width': 409, 'height': 409, 'widthPercent': 0.45, 'rescaleHeight': False, 'trialN': 31, 'loaded': True, 'loadedTime': 5835.299999952316, 'positionName': 'LEFT', 'positionCoords': [246.68, 179.5], 'bid': 7.41}, {'imgObject': {}, 'id': 'mango', 'src': '/static/foodstim60/mango.jpg', 'key': 'i', 'origWidth': 411, 'origHeight': 411, 'width': 411, 'height': 411, 'widthPercent': 0.45, 'rescaleHeight': False, 'trialN': 31, 'loaded': True, 'loadedTime': 4968.799999952316, 'positionName': 'RIGHT', 'positionCoords': [710.32, 178.5], 'bid': 6.12}]",27362.69999998808,1669829188298,avocado,mango,7.41,6.12,-1.29,avocado,4.399999976158142,5,4.899999976158142,True,u,27884.69999998808,522.0,1669829188820,522,HRV,HRV_0022,2022-11-30 17:28:13
32,"[{'imgObject': {}, 'id': 'salad w chicken', 'src': '/static/foodstim60/salad w chicken.jpg', 'key': 'u', 'origWidth': 411, 'origHeight': 411, 'width': 411, 'height': 411, 'widthPercent': 0.45, 'rescaleHeight': False, 'trialN': 32, 'loaded': True, 'loadedTime': 4768.899999976158, 'positionName': 'LEFT', 'positionCoords': [244.68, 178.5], 'bid': 7.75}, {'imgObject': {}, 'id': 'yogurt no spoon', 'src': '/static/foodstim60/yogurt no spoon.jpg', 'key': 'i', 'origWidth': 411, 'origHeight': 410, 'width': 411, 'height': 410, 'widthPercent': 0.45, 'rescaleHeight': False, 'trialN': 32, 'loaded': True, 'loadedTime': 4062.5, 'positionName': 'RIGHT', 'positionCoords': [710.32, 179], 'bid': 7.59}]",27885.099999964237,1669829188820,salad w chicken,yogurt no spoon,7.75,7.59,-0.16000000000000014,yogurt no spoon,330.60000002384186,332,331.19999998807907,True,i,28734.69999998808,849.6000000238419,1669829189670,850,HRV,HRV_0022,2022-11-30 17:28:13
33,"[{'imgObject': {}, 'id': 'edamame', 'src': '/static/foodstim60/edamame.jpg', 'key': 'u', 'origWidth': 409, 'origHeight': 410, 'width': 409, 'height': 410, 'widthPercent': 0.45, 'rescaleHeight': False, 'trialN': 33, 'loaded': True, 'loadedTime': 6046.5, 'positionName': 'LEFT', 'positionCoords': [246.68, 179], 'bid': 7.85}, {'imgObject': {}, 'id': 'luckycharms', 'src': '/static/foodstim60/luckycharms.jpg', 'key': 'i', 'origWidth': 410, 'origHeight': 409, 'width': 410, 'height': 409, 'widthPercent': 0.45, 'rescaleHeight': False, 'trialN': 33, 'loaded': True, 'loadedTime': 6395.599999964237, 'positionName': 'RIGHT', 'positionCoords': [710.32, 179.5], 'bid': 8.64}]",28735.0,1669829189670,edamame,luckycharms,7.85,8.64,0.7900000000000009,luckycharms,97.89999997615814,99,98.29999995231628,True,i,29351.799999952316,616.7999999523163,1669829190287,617,HRV,HRV_0022,2022-11-30 17:28:13
34,"[{'imgObject': {}, 'id': 'banana', 'src': '/static/foodstim60/banana.jpg', 'key': 'u', 'origWidth': 410, 'origHeight': 410, 'width': 410, 'height': 410, 'widthPercent': 0.45, 'rescaleHeight': False, 'trialN': 34, 'loaded': True, 'loadedTime': 6607.399999976158, 'positionName': 'LEFT', 'positionCoords': [245.68, 179], 'bid': 6.03}, {'imgObject': {}, 'id': 'cherry tomato', 'src': '/static/foodstim60/cherry tomato.jpg', 'key': 'i', 'origWidth': 410, 'origHeight': 410, 'width': 410, 'height': 410, 'widthPercent': 0.45, 'rescaleHeight': False, 'trialN': 34, 'loaded': True, 'loadedTime': 3747.899999976158, 'positionName': 'RIGHT', 'positionCoords': [710.32, 179], 'bid': 5.32}]",29352.19999998808,1669829190287,banana,cherry tomato,6.03,5.32,-0.71,banana,87.59999996423721,89,88.30000001192093,True,u,29963.299999952316,611.0999999642372,1669829190899,612,HRV,HRV_0022,2022-11-30 17:28:13
35,"[{'imgObject': {}, 'id': 'fruitsalad', 'src': '/static/foodstim60/fruitsalad.jpg', 'key': 'u', 'origWidth': 410, 'origHeight': 410, 'width': 410, 'height': 410, 'widthPercent': 0.45, 'rescaleHeight': False, 'trialN': 35, 'loaded': True, 'loadedTime': 6618, 'positionName': 'LEFT', 'positionCoords': [245.68, 179], 'bid': 8.08}, {'imgObject': {}, 'id': 'ice cream sundae 002', 'src': '/static/foodstim60/ice cream sundae 002.jpg', 'key': 'i', 'origWidth': 409, 'origHeight': 409, 'width': 409, 'height': 409, 'widthPercent': 0.45, 'rescaleHeight': False, 'trialN': 35, 'loaded': True, 'loadedTime': 5397.699999988079, 'positionName': 'RIGHT', 'positionCoords': [710.32, 179.5], 'bid': 7.16}]",29964.19999998808,1669829190899,fruitsalad,ice cream sundae 002,8.08,7.16,-0.9199999999999999,fruitsalad,18.0,22,21.099999964237213,True,u,30491.69999998808,527.5,1669829191427,528,HRV,HRV_0022,2022-11-30 17:28:13
36,"[{'imgObject': {}, 'id': 'shreddedwheatwithmilk', 'src': '/static/foodstim60/shreddedwheatwithmilk.jpg', 'key': 'u', 'origWidth': 410, 'origHeight': 410, 'width': 410, 'height': 410, 'widthPercent': 0.45, 'rescaleHeight': False, 'trialN': 36, 'loaded': True, 'loadedTime': 6650, 'positionName': 'LEFT', 'positionCoords': [245.68, 179], 'bid': 6.71}, {'imgObject': {}, 'id': 'eggsalad', 'src': '/static/foodstim60/eggsalad.jpg', 'key': 'i', 'origWidth': 410, 'origHeight': 409, 'width': 410, 'height': 409, 'widthPercent': 0.45, 'rescaleHeight': False, 'trialN': 36, 'loaded': True, 'loadedTime': 5724.199999988079, 'positionName': 'RIGHT', 'positionCoords': [710.32, 179.5], 'bid': 6.18}]",30491.899999976158,1669829191427,shreddedwheatwithmilk,eggsalad,6.71,6.18,-0.5300000000000002,eggsalad,1.699999988079071,3,3.0,True,i,31002.599999964237,510.69999998807907,1669829191938,511,HRV,HRV_0022,2022-11-30 17:28:13
37,"[{'imgObject': {}, 'id': 'turkey sandwich', 'src': '/static/foodstim60/turkey sandwich.jpg', 'key': 'u', 'origWidth': 409, 'origHeight': 409, 'width': 409, 'height': 409, 'widthPercent': 0.45, 'rescaleHeight': False, 'trialN': 37, 'loaded': True, 'loadedTime': 5245.099999964237, 'positionName': 'LEFT', 'positionCoords': [246.68, 179.5], 'bid': 7.59}, {'imgObject': {}, 'id': 'tacos', 'src': '/static/foodstim60/tacos.jpg', 'key': 'i', 'origWidth': 411, 'origHeight': 411, 'width': 411, 'height': 411, 'widthPercent': 0.45, 'rescaleHeight': False, 'trialN': 37, 'loaded': True, 'loadedTime': 6681.599999964237, 'positionName': 'RIGHT', 'positionCoords': [710.32, 178.5], 'bid': 7.81}]",31004.399999976158,1669829191940,turkey sandwich,tacos,7.59,7.81,0.21999999999999975,tacos,158.60000002384186,159,159.30000001192093,True,i,31680.599999964237,676.1999999880791,1669829192616,676,HRV,HRV_0022,2022-11-30 17:28:13
38,"[{'imgObject': {}, 'id': 'bagel plain', 'src': '/static/foodstim60/bagel plain.jpg', 'key': 'u', 'origWidth': 410, 'origHeight': 410, 'width': 410, 'height': 410, 'widthPercent': 0.45, 'rescaleHeight': False, 'trialN': 38, 'loaded': True, 'loadedTime': 6983.699999988079, 'positionName': 'LEFT', 'positionCoords': [245.68, 179], 'bid': 7.95}, {'imgObject': {}, 'id': 'avocado', 'src': '/static/foodstim60/avocado.jpg', 'key': 'i', 'origWidth': 409, 'origHeight': 409, 'width': 409, 'height': 409, 'widthPercent': 0.45, 'rescaleHeight': False, 'trialN': 38, 'loaded': True, 'loadedTime': 5837.099999964237, 'positionName': 'RIGHT', 'positionCoords': [710.32, 179.5], 'bid': 7.41}]",31681.19999998808,1669829192616,bagel plain,avocado,7.95,7.41,-0.54,avocado,68.59999996423721,69,69.0,True,i,32260.5,579.3000000119209,1669829193196,580,HRV,HRV_0022,2022-11-30 17:28:13
39,"[{'imgObject': {}, 'id': 'veggieswithdip', 'src': '/static/foodstim60/veggieswithdip.jpg', 'key': 'u', 'origWidth': 409, 'origHeight': 409, 'width': 409, 'height': 409, 'widthPercent': 0.45, 'rescaleHeight': False, 'trialN': 39, 'loaded': True, 'loadedTime': 6253.199999988079, 'positionName': 'LEFT', 'positionCoords': [246.68, 179.5], 'bid': 7.66}, {'imgObject': {}, 'id': 'chickenfingers', 'src': '/static/foodstim60/chickenfingers.jpg', 'key': 'i', 'origWidth': 410, 'origHeight': 410, 'width': 410, 'height': 410, 'widthPercent': 0.45, 'rescaleHeight': False, 'trialN': 39, 'loaded': True, 'loadedTime': 7038.399999976158, 'positionName': 'RIGHT', 'positionCoords': [710.32, 179], 'bid': 6.42}]",32261.5,1669829193197,veggieswithdip,chickenfingers,7.66,6.42,-1.2400000000000002,veggieswithdip,6.099999964237213,7,6.799999952316284,True,u,32772.89999997616,511.39999997615814,1669829193708,511,HRV,HRV_0022,2022-11-30 17:28:13
40,"[{'imgObject': {}, 'id': 'mac & cheese', 'src': '/static/foodstim60/mac & cheese.jpg', 'key': 'u', 'origWidth': 410, 'origHeight': 410, 'width': 410, 'height': 410, 'widthPercent': 0.45, 'rescaleHeight': False, 'trialN': 40, 'loaded': True, 'loadedTime': 6254.099999964237, 'positionName': 'LEFT', 'positionCoords': [245.68, 179], 'bid': 6.62}, {'imgObject': {}, 'id': 'pear', 'src': '/static/foodstim60/pear.jpg', 'key': 'i', 'origWidth': 411, 'origHeight': 410, 'width': 411, 'height': 410, 'widthPercent': 0.45, 'rescaleHeight': False, 'trialN': 40, 'loaded': True, 'loadedTime': 5024.799999952316, 'positionName': 'RIGHT', 'positionCoords': [710.32, 179], 'bid': 6.61}]",32773.299999952316,1669829193709,mac & cheese,pear,6.62,6.61,-0.009999999999999787,pear,128.20000004768372,128,128.9000000357628,True,i,33415.69999998808,642.4000000357628,1669829194351,642,HRV,HRV_0022,2022-11-30 17:28:13
41,"[{'imgObject': {}, 'id': 'strawberries', 'src': '/static/foodstim60/strawberries.jpg', 'key': 'u', 'origWidth': 410, 'origHeight': 410, 'width': 410, 'height': 410, 'widthPercent': 0.45, 'rescaleHeight': False, 'trialN': 41, 'loaded': True, 'loadedTime': 7056.299999952316, 'positionName': 'LEFT', 'positionCoords': [245.68, 179], 'bid': 7.37}, {'imgObject': {}, 'id': 'sushi w_condiments', 'src': '/static/foodstim60/sushi w_condiments.jpg', 'key': 'i', 'origWidth': 410, 'origHeight': 410, 'width': 410, 'height': 410, 'widthPercent': 0.45, 'rescaleHeight': False, 'trialN': 41, 'loaded': True, 'loadedTime': 7061.799999952316, 'positionName': 'RIGHT', 'positionCoords': [710.32, 179], 'bid': 7.29}]",33416.19999998808,1669829194351,strawberries,sushi w_condiments,7.37,7.29,-0.08000000000000007,strawberries,14.699999988079071,42,41.09999996423721,True,u,33967.89999997616,551.6999999880791,1669829194903,552,HRV,HRV_0022,2022-11-30 17:28:13
42,"[{'imgObject': {}, 'id': 'mashed potato', 'src': '/static/foodstim60/mashed potato.jpg', 'key': 'u', 'origWidth': 409, 'origHeight': 409, 'width': 409, 'height': 409, 'widthPercent': 0.45, 'rescaleHeight': False, 'trialN': 42, 'loaded': True, 'loadedTime': 7064.299999952316, 'positionName': 'LEFT', 'positionCoords': [246.68, 179.5], 'bid': 6.68}, {'imgObject': {}, 'id': 'hotdog w must', 'src': '/static/foodstim60/hotdog w must.jpg', 'key': 'i', 'origWidth': 409, 'origHeight': 409, 'width': 409, 'height': 409, 'widthPercent': 0.45, 'rescaleHeight': False, 'trialN': 42, 'loaded': True, 'loadedTime': 5556, 'positionName': 'RIGHT', 'positionCoords': [710.32, 179.5], 'bid': 6.71}]",33968.299999952316,1669829194904,mashed potato,hotdog w must,6.68,6.71,0.03000000000000025,hotdog w must,27.700000047683716,28,28.400000035762787,True,i,34499.0,530.7000000476837,1669829195434,530,HRV,HRV_0022,2022-11-30 17:28:13
43,"[{'imgObject': {}, 'id': 'edamame', 'src': '/static/foodstim60/edamame.jpg', 'key': 'u', 'origWidth': 409, 'origHeight': 410, 'width': 409, 'height': 410, 'widthPercent': 0.45, 'rescaleHeight': False, 'trialN': 43, 'loaded': True, 'loadedTime': 6046.899999976158, 'positionName': 'LEFT', 'positionCoords': [246.68, 179], 'bid': 7.85}, {'imgObject': {}, 'id': 'raspberries', 'src': '/static/foodstim60/raspberries.jpg', 'key': 'i', 'origWidth': 411, 'origHeight': 411, 'width': 411, 'height': 411, 'widthPercent': 0.45, 'rescaleHeight': False, 'trialN': 43, 'loaded': True, 'loadedTime': 7388, 'positionName': 'RIGHT', 'positionCoords': [710.32, 178.5], 'bid': 7.72}]",34499.299999952316,1669829195435,edamame,raspberries,7.85,7.72,-0.1299999999999999,edamame,23.30000001192093,24,23.900000035762787,True,u,35037.59999996424,538.3000000119209,1669829195973,538,HRV,HRV_0022,2022-11-30 17:28:13
44,"[{'imgObject': {}, 'id': 'eggs', 'src': '/static/foodstim60/eggs.jpg', 'key': 'u', 'origWidth': 409, 'origHeight': 409, 'width': 409, 'height': 409, 'widthPercent': 0.45, 'rescaleHeight': False, 'trialN': 44, 'loaded': True, 'loadedTime': 4439.799999952316, 'positionName': 'LEFT', 'positionCoords': [246.68, 179.5], 'bid': 8.68}, {'imgObject': {}, 'id': 'olives', 'src': '/static/foodstim60/olives.jpg', 'key': 'i', 'origWidth': 410, 'origHeight': 410, 'width': 410, 'height': 410, 'widthPercent': 0.45, 'rescaleHeight': False, 'trialN': 44, 'loaded': True, 'loadedTime': 4260.699999988079, 'positionName': 'RIGHT', 'positionCoords': [710.32, 179], 'bid': 7.75}]",35038.5,1669829195974,eggs,olives,8.68,7.75,-0.9299999999999997,eggs,178.19999998807907,185,185.19999998807907,True,u,35731.799999952316,693.2999999523163,1669829196667,693,HRV,HRV_0022,2022-11-30 17:28:13
45,"[{'imgObject': {}, 'id': 'blueberries', 'src': '/static/foodstim60/blueberries.jpg', 'key': 'u', 'origWidth': 411, 'origHeight': 411, 'width': 411, 'height': 411, 'widthPercent': 0.45, 'rescaleHeight': False, 'trialN': 45, 'loaded': True, 'loadedTime': 4762.199999988079, 'positionName': 'LEFT', 'positionCoords': [244.68, 178.5], 'bid': 7.97}, {'imgObject': {}, 'id': 'Grapes', 'src': '/static/foodstim60/Grapes.jpg', 'key': 'i', 'origWidth': 411, 'origHeight': 411, 'width': 411, 'height': 411, 'widthPercent': 0.45, 'rescaleHeight': False, 'trialN': 45, 'loaded': True, 'loadedTime': 6001, 'positionName': 'RIGHT', 'positionCoords': [710.32, 178.5], 'bid': 6.99}]",35732.09999996424,1669829196667,blueberries,Grapes,7.97,6.99,-0.9799999999999995,blueberries,41.30000001192093,43,42.40000003576279,True,u,36289.0,556.9000000357628,1669829197224,557,HRV,HRV_0022,2022-11-30 17:28:13
46,"[{'imgObject': {}, 'id': 'cocktailshrimp', 'src': '/static/foodstim60/cocktailshrimp.jpg', 'key': 'u', 'origWidth': 410, 'origHeight': 410, 'width': 410, 'height': 410, 'widthPercent': 0.45, 'rescaleHeight': False, 'trialN': 46, 'loaded': True, 'loadedTime': 5894.099999964237, 'positionName': 'LEFT', 'positionCoords': [245.68, 179], 'bid': 6.53}, {'imgObject': {}, 'id': 'raspberries', 'src': '/static/foodstim60/raspberries.jpg', 'key': 'i', 'origWidth': 411, 'origHeight': 411, 'width': 411, 'height': 411, 'widthPercent': 0.45, 'rescaleHeight': False, 'trialN': 46, 'loaded': True, 'loadedTime': 7384.899999976158, 'positionName': 'RIGHT', 'positionCoords': [710.32, 178.5], 'bid': 7.72}]",36289.799999952316,1669829197225,cocktailshrimp,raspberries,6.53,7.72,1.1899999999999995,raspberries,207.80000001192093,208,208.20000004768372,True,i,37005.09999996424,715.3000000119209,1669829197940,715,HRV,HRV_0022,2022-11-30 17:28:13
47,"[{'imgObject': {}, 'id': 'hotdog w must', 'src': '/static/foodstim60/hotdog w must.jpg', 'key': 'u', 'origWidth': 409, 'origHeight': 409, 'width': 409, 'height': 409, 'widthPercent': 0.45, 'rescaleHeight': False, 'trialN': 47, 'loaded': True, 'loadedTime': 5701.599999964237, 'positionName': 'LEFT', 'positionCoords': [246.68, 179.5], 'bid': 6.71}, {'imgObject': {}, 'id': 'popsicles', 'src': '/static/foodstim60/popsicles.jpg', 'key': 'i', 'origWidth': 410, 'origHeight': 410, 'width': 410, 'height': 410, 'widthPercent': 0.45, 'rescaleHeight': False, 'trialN': 47, 'loaded': True, 'loadedTime': 4057.699999988079, 'positionName': 'RIGHT', 'positionCoords': [710.32, 179], 'bid': 6.3}]",37005.39999997616,1669829197941,hotdog w must,popsicles,6.71,6.3,-0.41000000000000014,hotdog w must,170.69999998807907,172,172.19999998807907,True,u,37689.0,683.6000000238419,1669829198624,683,HRV,HRV_0022,2022-11-30 17:28:13
48,"[{'imgObject': {}, 'id': 'turkey sandwich', 'src': '/static/foodstim60/turkey sandwich.jpg', 'key': 'u', 'origWidth': 409, 'origHeight': 409, 'width': 409, 'height': 409, 'widthPercent': 0.45, 'rescaleHeight': False, 'trialN': 48, 'loaded': True, 'loadedTime': 5249.799999952316, 'positionName': 'LEFT', 'positionCoords': [246.68, 179.5], 'bid': 7.59}, {'imgObject': {}, 'id': 'grilled chicken strips', 'src': '/static/foodstim60/grilled chicken strips.jpg', 'key': 'i', 'origWidth': 410, 'origHeight': 411, 'width': 410, 'height': 411, 'widthPercent': 0.45, 'rescaleHeight': False, 'trialN': 48, 'loaded': True, 'loadedTime': 5898.099999964237, 'positionName': 'RIGHT', 'positionCoords': [710.32, 178.5], 'bid': 6.37}]",37689.19999998808,1669829198625,turkey sandwich,grilled chicken strips,7.59,6.37,-1.2199999999999998,grilled chicken strips,72.19999998807907,72,72.59999996423721,True,i,38277.0,587.8000000119209,1669829199212,587,HRV,HRV_0022,2022-11-30 17:28:13
49,"[{'imgObject': {}, 'id': 'cantaloupe', 'src': '/static/foodstim60/cantaloupe.jpg', 'key': 'u', 'origWidth': 409, 'origHeight': 409, 'width': 409, 'height': 409, 'widthPercent': 0.45, 'rescaleHeight': False, 'trialN': 49, 'loaded': True, 'loadedTime': 5259.699999988079, 'positionName': 'LEFT', 'positionCoords': [246.68, 179.5], 'bid': 7.26}, {'imgObject': {}, 'id': 'froot loops w milk', 'src': '/static/foodstim60/froot loops w milk.jpg', 'key': 'i', 'origWidth': 410, 'origHeight': 410, 'width': 410, 'height': 410, 'widthPercent': 0.45, 'rescaleHeight': False, 'trialN': 49, 'loaded': True, 'loadedTime': 5721.099999964237, 'positionName': 'RIGHT', 'positionCoords': [710.32, 179], 'bid': 5.67}]",38277.299999952316,1669829199213,cantaloupe,froot loops w milk,7.26,5.67,-1.5899999999999999,cantaloupe,15.900000035762787,16,16.400000035762787,True,u,38803.799999952316,526.5,1669829199739,526,HRV,HRV_0022,2022-11-30 17:28:13
50,"[{'imgObject': {}, 'id': 'eggsalad', 'src': '/static/foodstim60/eggsalad.jpg', 'key': 'u', 'origWidth': 410, 'origHeight': 409, 'width': 410, 'height': 409, 'widthPercent': 0.45, 'rescaleHeight': False, 'trialN': 50, 'loaded': True, 'loadedTime': 5831.699999988079, 'positionName': 'LEFT', 'positionCoords': [245.68, 179.5], 'bid': 6.18}, {'imgObject': {}, 'id': 'Grapes', 'src': '/static/foodstim60/Grapes.jpg', 'key': 'i', 'origWidth': 411, 'origHeight': 411, 'width': 411, 'height': 411, 'widthPercent': 0.45, 'rescaleHeight': False, 'trialN': 50, 'loaded': True, 'loadedTime': 6001.199999988079, 'positionName': 'RIGHT', 'positionCoords': [710.32, 178.5], 'bid': 6.99}]",38805.299999952316,1669829199741,eggsalad,Grapes,6.18,6.99,0.8100000000000005,Grapes,84.30000001192093,84,84.80000001192093,True,i,39393.299999952316,588.0,1669829200329,588,HRV,HRV_0022,2022-11-30 17:28:13
51,"[{'imgObject': {}, 'id': 'steak', 'src': '/static/foodstim60/steak.jpg', 'key': 'u', 'origWidth': 410, 'origHeight': 410, 'width': 410, 'height': 410, 'widthPercent': 0.45, 'rescaleHeight': False, 'trialN': 51, 'loaded': True, 'loadedTime': 6006.099999964237, 'positionName': 'LEFT', 'positionCoords': [245.68, 179], 'bid': 7.73}, {'imgObject': {}, 'id': 'veggieswithdip', 'src': '/static/foodstim60/veggieswithdip.jpg', 'key': 'i', 'origWidth': 409, 'origHeight': 409, 'width': 409, 'height': 409, 'widthPercent': 0.45, 'rescaleHeight': False, 'trialN': 51, 'loaded': True, 'loadedTime': 6253.599999964237, 'positionName': 'RIGHT', 'positionCoords': [710.32, 179.5], 'bid': 7.66}]",39393.69999998808,1669829200329,steak,veggieswithdip,7.73,7.66,-0.07000000000000028,steak,42.89999997615814,45,44.5,True,u,39955.89999997616,562.1999999880791,1669829200891,562,HRV,HRV_0022,2022-11-30 17:28:13
52,"[{'imgObject': {}, 'id': 'burger', 'src': '/static/foodstim60/burger.jpg', 'key': 'u', 'origWidth': 409, 'origHeight': 409, 'width': 409, 'height': 409, 'widthPercent': 0.45, 'rescaleHeight': False, 'trialN': 52, 'loaded': True, 'loadedTime': 7399.199999988079, 'positionName': 'LEFT', 'positionCoords': [246.68, 179.5], 'bid': 8.040000000000001}, {'imgObject': {}, 'id': 'fruitsalad', 'src': '/static/foodstim60/fruitsalad.jpg', 'key': 'i', 'origWidth': 410, 'origHeight': 410, 'width': 410, 'height': 410, 'widthPercent': 0.45, 'rescaleHeight': False, 'trialN': 52, 'loaded': True, 'loadedTime': 6617.5, 'positionName': 'RIGHT', 'positionCoords': [710.32, 179], 'bid': 8.08}]",39956.39999997616,1669829200892,burger,fruitsalad,8.040000000000001,8.08,0.03999999999999915,fruitsalad,543.1999999880791,552,552.6000000238419,True,i,41019.799999952316,1063.3999999761581,1669829201955,1063,HRV,HRV_0022,2022-11-30 17:28:13
53,"[{'imgObject': {}, 'id': 'Tribe humus pita', 'src': '/static/foodstim60/Tribe humus pita.jpg', 'key': 'u', 'origWidth': 411, 'origHeight': 411, 'width': 411, 'height': 411, 'widthPercent': 0.45, 'rescaleHeight': False, 'trialN': 53, 'loaded': True, 'loadedTime': 4605.5, 'positionName': 'LEFT', 'positionCoords': [244.68, 178.5], 'bid': 7.04}, {'imgObject': {}, 'id': 'popsicles', 'src': '/static/foodstim60/popsicles.jpg', 'key': 'i', 'origWidth': 410, 'origHeight': 410, 'width': 410, 'height': 410, 'widthPercent': 0.45, 'rescaleHeight': False, 'trialN': 53, 'loaded': True, 'loadedTime': 3985, 'positionName': 'RIGHT', 'positionCoords': [710.32, 179], 'bid': 6.3}]",41020.39999997616,1669829201956,Tribe humus pita,popsicles,7.04,6.3,-0.7400000000000002,Tribe humus pita,188.19999998807907,188,188.69999998807907,True,u,41721.5,701.1000000238419,1669829202657,701,HRV,HRV_0022,2022-11-30 17:28:13
54,"[{'imgObject': {}, 'id': 'apple slices', 'src': '/static/foodstim60/apple slices.jpg', 'key': 'u', 'origWidth': 409, 'origHeight': 410, 'width': 409, 'height': 410, 'widthPercent': 0.45, 'rescaleHeight': False, 'trialN': 54, 'loaded': True, 'loadedTime': 4683.399999976158, 'positionName': 'LEFT', 'positionCoords': [246.68, 179], 'bid': 7.34}, {'imgObject': {}, 'id': 'cheerios', 'src': '/static/foodstim60/cheerios.jpg', 'key': 'i', 'origWidth': 409, 'origHeight': 410, 'width': 409, 'height': 410, 'widthPercent': 0.45, 'rescaleHeight': False, 'trialN': 54, 'loaded': True, 'loadedTime': 7401.199999988079, 'positionName': 'RIGHT', 'positionCoords': [710.32, 179], 'bid': 7.88}]",41722.299999952316,1669829202658,apple slices,cheerios,7.34,7.88,0.54,cheerios,221.60000002384186,222,222.20000004768372,True,i,42458.59999996424,736.3000000119209,1669829203394,736,HRV,HRV_0022,2022-11-30 17:28:13
55,"[{'imgObject': {}, 'id': 'orange slices', 'src': '/static/foodstim60/orange slices.jpg', 'key': 'u', 'origWidth': 409, 'origHeight': 410, 'width': 409, 'height': 410, 'widthPercent': 0.45, 'rescaleHeight': False, 'trialN': 55, 'loaded': True, 'loadedTime': 7411.599999964237, 'positionName': 'LEFT', 'positionCoords': [246.68, 179], 'bid': 7.51}, {'imgObject': {}, 'id': 'salmon', 'src': '/static/foodstim60/salmon.jpg', 'key': 'i', 'origWidth': 410, 'origHeight': 409, 'width': 410, 'height': 409, 'widthPercent': 0.45, 'rescaleHeight': False, 'trialN': 55, 'loaded': True, 'loadedTime': 7417.899999976158, 'positionName': 'RIGHT', 'positionCoords': [710.32, 179.5], 'bid': 7.95}]",42458.799999952316,1669829203394,orange slices,salmon,7.51,7.95,0.4400000000000004,orange slices,194.0,195,194.5,True,u,43155.89999997616,697.1000000238419,1669829204091,697,HRV,HRV_0022,2022-11-30 17:28:13
56,"[{'imgObject': {}, 'id': 'avocado', 'src': '/static/foodstim60/avocado.jpg', 'key': 'u', 'origWidth': 409, 'origHeight': 409, 'width': 409, 'height': 409, 'widthPercent': 0.45, 'rescaleHeight': False, 'trialN': 56, 'loaded': True, 'loadedTime': 5836.399999976158, 'positionName': 'LEFT', 'positionCoords': [246.68, 179.5], 'bid': 7.41}, {'imgObject': {}, 'id': 'strawberries', 'src': '/static/foodstim60/strawberries.jpg', 'key': 'i', 'origWidth': 410, 'origHeight': 410, 'width': 410, 'height': 410, 'widthPercent': 0.45, 'rescaleHeight': False, 'trialN': 56, 'loaded': True, 'loadedTime': 7055.5, 'positionName': 'RIGHT', 'positionCoords': [710.32, 179], 'bid': 7.37}]",43156.09999996424,1669829204091,avocado,strawberries,7.41,7.37,-0.040000000000000036,strawberries,256.30000001192093,257,256.9000000357628,True,i,43913.799999952316,757.6999999880791,1669829204849,758,HRV,HRV_0022,2022-11-30 17:28:13
57,"[{'imgObject': {}, 'id': 'granola w milk', 'src': '/static/foodstim60/granola w milk.jpg', 'key': 'u', 'origWidth': 410, 'origHeight': 410, 'width': 410, 'height': 410, 'widthPercent': 0.45, 'rescaleHeight': False, 'trialN': 57, 'loaded': True, 'loadedTime': 7720.199999988079, 'positionName': 'LEFT', 'positionCoords': [245.68, 179], 'bid': 8.03}, {'imgObject': {}, 'id': 'hashbrowns', 'src': '/static/foodstim60/hashbrowns.jpg', 'key': 'i', 'origWidth': 411, 'origHeight': 410, 'width': 411, 'height': 410, 'widthPercent': 0.45, 'rescaleHeight': False, 'trialN': 57, 'loaded': True, 'loadedTime': 4360.5, 'positionName': 'RIGHT', 'positionCoords': [710.32, 179], 'bid': 8.74}]",43914.39999997616,1669829204850,granola w milk,hashbrowns,8.03,8.74,0.7100000000000009,granola w milk,181.0,195,195.10000002384186,True,u,44619.799999952316,705.3999999761581,1669829205555,705,HRV,HRV_0022,2022-11-30 17:28:13
58,"[{'imgObject': {}, 'id': 'bagel plain', 'src': '/static/foodstim60/bagel plain.jpg', 'key': 'u', 'origWidth': 410, 'origHeight': 410, 'width': 410, 'height': 410, 'widthPercent': 0.45, 'rescaleHeight': False, 'trialN': 58, 'loaded': True, 'loadedTime': 6994.599999964237, 'positionName': 'LEFT', 'positionCoords': [245.68, 179], 'bid': 7.95}, {'imgObject': {}, 'id': 'cheerios', 'src': '/static/foodstim60/cheerios.jpg', 'key': 'i', 'origWidth': 409, 'origHeight': 410, 'width': 409, 'height': 410, 'widthPercent': 0.45, 'rescaleHeight': False, 'trialN': 58, 'loaded': True, 'loadedTime': 7405.699999988079, 'positionName': 'RIGHT', 'positionCoords': [710.32, 179], 'bid': 7.88}]",44620.0,1669829205555,bagel plain,cheerios,7.95,7.88,-0.07000000000000028,bagel plain,240.19999998807907,241,240.89999997615814,True,u,45372.09999996424,752.0999999642372,1669829206307,752,HRV,HRV_0022,2022-11-30 17:28:13
59,"[{'imgObject': {}, 'id': 'corn cob', 'src': '/static/foodstim60/corn cob.jpg', 'key': 'u', 'origWidth': 411, 'origHeight': 411, 'width': 411, 'height': 411, 'widthPercent': 0.45, 'rescaleHeight': False, 'trialN': 59, 'loaded': True, 'loadedTime': 7730.399999976158, 'positionName': 'LEFT', 'positionCoords': [244.68, 178.5], 'bid': 6.58}, {'imgObject': {}, 'id': 'hotdog w must', 'src': '/static/foodstim60/hotdog w must.jpg', 'key': 'i', 'origWidth': 409, 'origHeight': 409, 'width': 409, 'height': 409, 'widthPercent': 0.45, 'rescaleHeight': False, 'trialN': 59, 'loaded': True, 'loadedTime': 5558.899999976158, 'positionName': 'RIGHT', 'positionCoords': [710.32, 179.5], 'bid': 6.71}]",45372.39999997616,1669829206308,corn cob,hotdog w must,6.58,6.71,0.1299999999999999,corn cob,167.10000002384186,168,167.89999997615814,True,u,46042.0,669.6000000238419,1669829206977,669,HRV,HRV_0022,2022-11-30 17:28:13
60,"[{'imgObject': {}, 'id': 'burger', 'src': '/static/foodstim60/burger.jpg', 'key': 'u', 'origWidth': 409, 'origHeight': 409, 'width': 409, 'height': 409, 'widthPercent': 0.45, 'rescaleHeight': False, 'trialN': 60, 'loaded': True, 'loadedTime': 7400.5, 'positionName': 'LEFT', 'positionCoords': [246.68, 179.5], 'bid': 8.040000000000001}, {'imgObject': {}, 'id': 'salad w chicken', 'src': '/static/foodstim60/salad w chicken.jpg', 'key': 'i', 'origWidth': 411, 'origHeight': 411, 'width': 411, 'height': 411, 'widthPercent': 0.45, 'rescaleHeight': False, 'trialN': 60, 'loaded': True, 'loadedTime': 4769.299999952316, 'positionName': 'RIGHT', 'positionCoords': [710.32, 178.5], 'bid': 7.75}]",46042.19999998808,1669829206978,burger,salad w chicken,8.040000000000001,7.75,-0.2900000000000009,burger,171.39999997615814,172,172.5,True,u,46720.39999997616,678.1999999880791,1669829207656,678,HRV,HRV_0022,2022-11-30 17:28:13
61,"[{'imgObject': {}, 'id': 'tacos', 'src': '/static/foodstim60/tacos.jpg', 'key': 'u', 'origWidth': 411, 'origHeight': 411, 'width': 411, 'height': 411, 'widthPercent': 0.45, 'rescaleHeight': False, 'trialN': 61, 'loaded': True, 'loadedTime': 6684.299999952316, 'positionName': 'LEFT', 'positionCoords': [244.68, 178.5], 'bid': 7.81}, {'imgObject': {}, 'id': 'salad w chicken', 'src': '/static/foodstim60/salad w chicken.jpg', 'key': 'i', 'origWidth': 411, 'origHeight': 411, 'width': 411, 'height': 411, 'widthPercent': 0.45, 'rescaleHeight': False, 'trialN': 61, 'loaded': True, 'loadedTime': 4765, 'positionName': 'RIGHT', 'positionCoords': [710.32, 178.5], 'bid': 7.75}]",46721.0,1669829207656,tacos,salad w chicken,7.81,7.75,-0.05999999999999961,salad w chicken,119.5,120,119.79999995231628,True,i,47347.59999996424,626.5999999642372,1669829208283,627,HRV,HRV_0022,2022-11-30 17:28:13
62,"[{'imgObject': {}, 'id': 'mango', 'src': '/static/foodstim60/mango.jpg', 'key': 'u', 'origWidth': 411, 'origHeight': 411, 'width': 411, 'height': 411, 'widthPercent': 0.45, 'rescaleHeight': False, 'trialN': 62, 'loaded': True, 'loadedTime': 4965.199999988079, 'positionName': 'LEFT', 'positionCoords': [244.68, 178.5], 'bid': 6.12}, {'imgObject': {}, 'id': 'cocktailshrimp', 'src': '/static/foodstim60/cocktailshrimp.jpg', 'key': 'i', 'origWidth': 410, 'origHeight': 410, 'width': 410, 'height': 410, 'widthPercent': 0.45, 'rescaleHeight': False, 'trialN': 62, 'loaded': True, 'loadedTime': 5838, 'positionName': 'RIGHT', 'positionCoords': [710.32, 179], 'bid': 6.53}]",47348.89999997616,1669829208284,mango,cocktailshrimp,6.12,6.53,0.41000000000000014,cocktailshrimp,255.60000002384186,257,256.80000001192093,True,i,48123.799999952316,774.8999999761581,1669829209059,775,HRV,HRV_0022,2022-11-30 17:28:13
63,"[{'imgObject': {}, 'id': 'salmon', 'src': '/static/foodstim60/salmon.jpg', 'key': 'u', 'origWidth': 410, 'origHeight': 409, 'width': 410, 'height': 409, 'widthPercent': 0.45, 'rescaleHeight': False, 'trialN': 63, 'loaded': True, 'loadedTime': 7418, 'positionName': 'LEFT', 'positionCoords': [245.68, 179.5], 'bid': 7.95}, {'imgObject': {}, 'id': 'turkeysandwich', 'src': '/static/foodstim60/turkeysandwich.jpg', 'key': 'i', 'origWidth': 409, 'origHeight': 409, 'width': 409, 'height': 409, 'widthPercent': 0.45, 'rescaleHeight': False, 'trialN': 63, 'loaded': True, 'loadedTime': 7764, 'positionName': 'RIGHT', 'positionCoords': [710.32, 179.5], 'bid': 6.97}]",48124.19999998808,1669829209060,salmon,turkeysandwich,7.95,6.97,-0.9800000000000004,salmon,118.80000001192093,121,121.19999998807907,True,u,48769.0,644.8000000119209,1669829209704,644,HRV,HRV_0022,2022-11-30 17:28:13
64,"[{'imgObject': {}, 'id': 'banana', 'src': '/static/foodstim60/banana.jpg', 'key': 'u', 'origWidth': 410, 'origHeight': 410, 'width': 410, 'height': 410, 'widthPercent': 0.45, 'rescaleHeight': False, 'trialN': 64, 'loaded': True, 'loadedTime': 6397.799999952316, 'positionName': 'LEFT', 'positionCoords': [245.68, 179], 'bid': 6.03}, {'imgObject': {}, 'id': 'sushi w_condiments', 'src': '/static/foodstim60/sushi w_condiments.jpg', 'key': 'i', 'origWidth': 410, 'origHeight': 410, 'width': 410, 'height': 410, 'widthPercent': 0.45, 'rescaleHeight': False, 'trialN': 64, 'loaded': True, 'loadedTime': 7061.5, 'positionName': 'RIGHT', 'positionCoords': [710.32, 179], 'bid': 7.29}]",48769.59999996424,1669829209705,banana,sushi w_condiments,6.03,7.29,1.2599999999999998,sushi w_condiments,162.10000002384186,163,162.60000002384186,True,i,49446.89999997616,677.3000000119209,1669829210382,677,HRV,HRV_0022,2022-11-30 17:28:13
65,"[{'imgObject': {}, 'id': 'fried eggs', 'src': '/static/foodstim60/fried eggs.jpg', 'key': 'u', 'origWidth': 410, 'origHeight': 410, 'width': 410, 'height': 410, 'widthPercent': 0.45, 'rescaleHeight': False, 'trialN': 65, 'loaded': True, 'loadedTime': 7786.299999952316, 'positionName': 'LEFT', 'positionCoords': [245.68, 179], 'bid': 8.27}, {'imgObject': {}, 'id': 'eggs', 'src': '/static/foodstim60/eggs.jpg', 'key': 'i', 'origWidth': 409, 'origHeight': 409, 'width': 409, 'height': 409, 'widthPercent': 0.45, 'rescaleHeight': False, 'trialN': 65, 'loaded': True, 'loadedTime': 4441.299999952316, 'positionName': 'RIGHT', 'positionCoords': [710.32, 179.5], 'bid': 8.68}]",49447.39999997616,1669829210383,fried eggs,eggs,8.27,8.68,0.41000000000000014,fried eggs,140.39999997615814,141,141.5,True,u,50094.299999952316,646.8999999761581,1669829211030,647,HRV,HRV_0022,2022-11-30 17:28:13
66,"[{'imgObject': {}, 'id': 'sweetpotato', 'src': '/static/foodstim60/sweetpotato.jpg', 'key': 'u', 'origWidth': 410, 'origHeight': 410, 'width': 410, 'height': 410, 'widthPercent': 0.45, 'rescaleHeight': False, 'trialN': 66, 'loaded': True, 'loadedTime': 6246.899999976158, 'positionName': 'LEFT', 'positionCoords': [245.68, 179], 'bid': 7.18}, {'imgObject': {}, 'id': 'eggs', 'src': '/static/foodstim60/eggs.jpg', 'key': 'i', 'origWidth': 409, 'origHeight': 409, 'width': 409, 'height': 409, 'widthPercent': 0.45, 'rescaleHeight': False, 'trialN': 66, 'loaded': True, 'loadedTime': 4440.599999964237, 'positionName': 'RIGHT', 'positionCoords': [710.32, 179.5], 'bid': 8.68}]",50095.0,1669829211030,sweetpotato,eggs,7.18,8.68,1.5,eggs,191.39999997615814,192,191.89999997615814,True,i,50820.59999996424,725.5999999642372,1669829211756,726,HRV,HRV_0022,2022-11-30 17:28:13
67,"[{'imgObject': {}, 'id': 'cheerios', 'src': '/static/foodstim60/cheerios.jpg', 'key': 'u', 'origWidth': 409, 'origHeight': 410, 'width': 409, 'height': 410, 'widthPercent': 0.45, 'rescaleHeight': False, 'trialN': 67, 'loaded': True, 'loadedTime': 7405.299999952316, 'positionName': 'LEFT', 'positionCoords': [246.68, 179], 'bid': 7.88}, {'imgObject': {}, 'id': 'blackbeanswithrice', 'src': '/static/foodstim60/blackbeanswithrice.jpg', 'key': 'i', 'origWidth': 410, 'origHeight': 410, 'width': 410, 'height': 410, 'widthPercent': 0.45, 'rescaleHeight': False, 'trialN': 67, 'loaded': True, 'loadedTime': 5547.799999952316, 'positionName': 'RIGHT', 'positionCoords': [710.32, 179], 'bid': 7.94}]",50821.39999997616,1669829211757,cheerios,blackbeanswithrice,7.88,7.94,0.0600000000000005,cheerios,131.30000001192093,132,132.30000001192093,True,u,51460.69999998808,639.3000000119209,1669829212396,639,HRV,HRV_0022,2022-11-30 17:28:13
68,"[{'imgObject': {}, 'id': 'burrito', 'src': '/static/foodstim60/burrito.jpg', 'key': 'u', 'origWidth': 410, 'origHeight': 410, 'width': 410, 'height': 410, 'widthPercent': 0.45, 'rescaleHeight': False, 'trialN': 68, 'loaded': True, 'loadedTime': 6001.399999976158, 'positionName': 'LEFT', 'positionCoords': [245.68, 179], 'bid': 6.9}, {'imgObject': {}, 'id': 'pear', 'src': '/static/foodstim60/pear.jpg', 'key': 'i', 'origWidth': 411, 'origHeight': 410, 'width': 411, 'height': 410, 'widthPercent': 0.45, 'rescaleHeight': False, 'trialN': 68, 'loaded': True, 'loadedTime': 5028, 'positionName': 'RIGHT', 'positionCoords': [710.32, 179], 'bid': 6.61}]",51461.5,1669829212397,burrito,pear,6.9,6.61,-0.29000000000000004,pear,224.0999999642372,225,225.5999999642372,True,i,52197.89999997616,736.3999999761581,1669829213133,736,HRV,HRV_0022,2022-11-30 17:28:13
69,"[{'imgObject': {}, 'id': 'tacos', 'src': '/static/foodstim60/tacos.jpg', 'key': 'u', 'origWidth': 411, 'origHeight': 411, 'width': 411, 'height': 411, 'widthPercent': 0.45, 'rescaleHeight': False, 'trialN': 69, 'loaded': True, 'loadedTime': 6674.699999988079, 'positionName': 'LEFT', 'positionCoords': [244.68, 178.5], 'bid': 7.81}, {'imgObject': {}, 'id': 'kiwi', 'src': '/static/foodstim60/kiwi.jpg', 'key': 'i', 'origWidth': 410, 'origHeight': 410, 'width': 410, 'height': 410, 'widthPercent': 0.45, 'rescaleHeight': False, 'trialN': 69, 'loaded': True, 'loadedTime': 3862, 'positionName': 'RIGHT', 'positionCoords': [710.32, 179], 'bid': 7.24}]",52198.39999997616,1669829213134,tacos,kiwi,7.81,7.24,-0.5699999999999994,tacos,128.60000002384186,129,129.10000002384186,True,u,52829.69999998808,631.3000000119209,1669829213765,631,HRV,HRV_0022,2022-11-30 17:28:13
70,"[{'imgObject': {}, 'id': 'cherry tomato', 'src': '/static/foodstim60/cherry tomato.jpg', 'key': 'u', 'origWidth': 410, 'origHeight': 410, 'width': 410, 'height': 410, 'widthPercent': 0.45, 'rescaleHeight': False, 'trialN': 70, 'loaded': True, 'loadedTime': 3745.399999976158, 'positionName': 'LEFT', 'positionCoords': [245.68, 179], 'bid': 5.32}, {'imgObject': {}, 'id': 'chickenfingers', 'src': '/static/foodstim60/chickenfingers.jpg', 'key': 'i', 'origWidth': 410, 'origHeight': 410, 'width': 410, 'height': 410, 'widthPercent': 0.45, 'rescaleHeight': False, 'trialN': 70, 'loaded': True, 'loadedTime': 7039.299999952316, 'positionName': 'RIGHT', 'positionCoords': [710.32, 179], 'bid': 6.42}]",52830.69999998808,1669829213766,cherry tomato,chickenfingers,5.32,6.42,1.0999999999999996,chickenfingers,111.39999997615814,113,112.59999996423721,True,i,53472.69999998808,642.0,1669829214408,642,HRV,HRV_0022,2022-11-30 17:28:13
71,"[{'imgObject': {}, 'id': 'salmon', 'src': '/static/foodstim60/salmon.jpg', 'key': 'u', 'origWidth': 410, 'origHeight': 409, 'width': 410, 'height': 409, 'widthPercent': 0.45, 'rescaleHeight': False, 'trialN': 71, 'loaded': True, 'loadedTime': 7417.399999976158, 'positionName': 'LEFT', 'positionCoords': [245.68, 179.5], 'bid': 7.95}, {'imgObject': {}, 'id': 'luckycharms', 'src': '/static/foodstim60/luckycharms.jpg', 'key': 'i', 'origWidth': 410, 'origHeight': 409, 'width': 410, 'height': 409, 'widthPercent': 0.45, 'rescaleHeight': False, 'trialN': 71, 'loaded': True, 'loadedTime': 6396.699999988079, 'positionName': 'RIGHT', 'positionCoords': [710.32, 179.5], 'bid': 8.64}]",53474.89999997616,1669829214410,salmon,luckycharms,7.95,8.64,0.6900000000000004,salmon,94.69999998807907,96,96.0,True,u,54074.299999952316,599.3999999761581,1669829215010,600,HRV,HRV_0022,2022-11-30 17:28:13
72,"[{'imgObject': {}, 'id': 'grilled chicken strips', 'src': '/static/foodstim60/grilled chicken strips.jpg', 'key': 'u', 'origWidth': 410, 'origHeight': 411, 'width': 410, 'height': 411, 'widthPercent': 0.45, 'rescaleHeight': False, 'trialN': 72, 'loaded': True, 'loadedTime': 5897.799999952316, 'positionName': 'LEFT', 'positionCoords': [245.68, 178.5], 'bid': 6.37}, {'imgObject': {}, 'id': 'roastedpotatoes', 'src': '/static/foodstim60/roastedpotatoes.jpg', 'key': 'i', 'origWidth': 409, 'origHeight': 410, 'width': 409, 'height': 410, 'widthPercent': 0.45, 'rescaleHeight': False, 'trialN': 72, 'loaded': True, 'loadedTime': 7805.599999964237, 'positionName': 'RIGHT', 'positionCoords': [710.32, 179], 'bid': 7.13}]",54074.799999952316,1669829215010,grilled chicken strips,roastedpotatoes,6.37,7.13,0.7599999999999998,roastedpotatoes,152.4000000357628,153,152.80000001192093,True,i,54730.799999952316,656.0,1669829215666,656,HRV,HRV_0022,2022-11-30 17:28:13
73,"[{'imgObject': {}, 'id': 'grilled chicken strips', 'src': '/static/foodstim60/grilled chicken strips.jpg', 'key': 'u', 'origWidth': 410, 'origHeight': 411, 'width': 410, 'height': 411, 'widthPercent': 0.45, 'rescaleHeight': False, 'trialN': 73, 'loaded': True, 'loadedTime': 5897.5, 'positionName': 'LEFT', 'positionCoords': [245.68, 178.5], 'bid': 6.37}, {'imgObject': {}, 'id': 'popsicles', 'src': '/static/foodstim60/popsicles.jpg', 'key': 'i', 'origWidth': 410, 'origHeight': 410, 'width': 410, 'height': 410, 'widthPercent': 0.45, 'rescaleHeight': False, 'trialN': 73, 'loaded': True, 'loadedTime': 3985.699999988079, 'positionName': 'RIGHT', 'positionCoords': [710.32, 179], 'bid': 6.3}]",54731.299999952316,1669829215667,grilled chicken strips,popsicles,6.37,6.3,-0.07000000000000028,popsicles,576.7000000476837,577,577.2000000476837,True,i,55811.5,1080.2000000476837,1669829216747,1080,HRV,HRV_0022,2022-11-30 17:28:13
74,"[{'imgObject': {}, 'id': 'popsicles', 'src': '/static/foodstim60/popsicles.jpg', 'key': 'u', 'origWidth': 410, 'origHeight': 410, 'width': 410, 'height': 410, 'widthPercent': 0.45, 'rescaleHeight': False, 'trialN': 74, 'loaded': True, 'loadedTime': 3984.199999988079, 'positionName': 'LEFT', 'positionCoords': [245.68, 179], 'bid': 6.3}, {'imgObject': {}, 'id': 'banana', 'src': '/static/foodstim60/banana.jpg', 'key': 'i', 'origWidth': 410, 'origHeight': 410, 'width': 410, 'height': 410, 'widthPercent': 0.45, 'rescaleHeight': False, 'trialN': 74, 'loaded': True, 'loadedTime': 6606.099999964237, 'positionName': 'RIGHT', 'positionCoords': [710.32, 179], 'bid': 6.03}]",55812.69999998808,1669829216748,popsicles,banana,6.3,6.03,-0.2699999999999996,popsicles,151.30000001192093,152,151.80000001192093,True,u,56476.799999952316,664.0999999642372,1669829217412,664,HRV,HRV_0022,2022-11-30 17:28:13
75,"[{'imgObject': {}, 'id': 'hashbrowns', 'src': '/static/foodstim60/hashbrowns.jpg', 'key': 'u', 'origWidth': 411, 'origHeight': 410, 'width': 411, 'height': 410, 'widthPercent': 0.45, 'rescaleHeight': False, 'trialN': 75, 'loaded': True, 'loadedTime': 4354.699999988079, 'positionName': 'LEFT', 'positionCoords': [244.68, 179], 'bid': 8.74}, {'imgObject': {}, 'id': 'luckycharms', 'src': '/static/foodstim60/luckycharms.jpg', 'key': 'i', 'origWidth': 410, 'origHeight': 409, 'width': 410, 'height': 409, 'widthPercent': 0.45, 'rescaleHeight': False, 'trialN': 75, 'loaded': True, 'loadedTime': 6397, 'positionName': 'RIGHT', 'positionCoords': [710.32, 179.5], 'bid': 8.64}]",56477.09999996424,1669829217412,hashbrowns,luckycharms,8.74,8.64,-0.09999999999999964,luckycharms,168.80000001192093,170,169.30000001192093,True,i,57160.299999952316,683.1999999880791,1669829218096,684,HRV,HRV_0022,2022-11-30 17:28:13
76,"[{'imgObject': {}, 'id': 'raisin bran w milk', 'src': '/static/foodstim60/raisin bran w milk.jpg', 'key': 'u', 'origWidth': 411, 'origHeight': 411, 'width': 411, 'height': 411, 'widthPercent': 0.45, 'rescaleHeight': False, 'trialN': 76, 'loaded': True, 'loadedTime': 7823.599999964237, 'positionName': 'LEFT', 'positionCoords': [244.68, 178.5], 'bid': 7.18}, {'imgObject': {}, 'id': 'orange slices', 'src': '/static/foodstim60/orange slices.jpg', 'key': 'i', 'origWidth': 409, 'origHeight': 410, 'width': 409, 'height': 410, 'widthPercent': 0.45, 'rescaleHeight': False, 'trialN': 76, 'loaded': True, 'loadedTime': 7413.599999964237, 'positionName': 'RIGHT', 'positionCoords': [710.32, 179], 'bid': 7.51}]",57160.59999996424,1669829218096,raisin bran w milk,orange slices,7.18,7.51,0.33000000000000007,raisin bran w milk,154.19999998807907,155,155.60000002384186,True,u,57826.09999996424,665.5,1669829218761,665,HRV,HRV_0022,2022-11-30 17:28:13
77,"[{'imgObject': {}, 'id': 'raspberries', 'src': '/static/foodstim60/raspberries.jpg', 'key': 'u', 'origWidth': 411, 'origHeight': 411, 'width': 411, 'height': 411, 'widthPercent': 0.45, 'rescaleHeight': False, 'trialN': 77, 'loaded': True, 'loadedTime': 7388.399999976158, 'positionName': 'LEFT', 'positionCoords': [244.68, 178.5], 'bid': 7.72}, {'imgObject': {}, 'id': 'fried eggs', 'src': '/static/foodstim60/fried eggs.jpg', 'key': 'i', 'origWidth': 410, 'origHeight': 410, 'width': 410, 'height': 410, 'widthPercent': 0.45, 'rescaleHeight': False, 'trialN': 77, 'loaded': True, 'loadedTime': 7788.699999988079, 'positionName': 'RIGHT', 'positionCoords': [710.32, 179], 'bid': 8.27}]",57826.69999998808,1669829218762,raspberries,fried eggs,7.72,8.27,0.5499999999999998,fried eggs,196.19999998807907,197,197.5999999642372,True,i,58541.39999997616,714.6999999880791,1669829219477,715,HRV,HRV_0022,2022-11-30 17:28:13
78,"[{'imgObject': {}, 'id': 'corn cob', 'src': '/static/foodstim60/corn cob.jpg', 'key': 'u', 'origWidth': 411, 'origHeight': 411, 'width': 411, 'height': 411, 'widthPercent': 0.45, 'rescaleHeight': False, 'trialN': 78, 'loaded': True, 'loadedTime': 7721.399999976158, 'positionName': 'LEFT', 'positionCoords': [244.68, 178.5], 'bid': 6.58}, {'imgObject': {}, 'id': 'banana', 'src': '/static/foodstim60/banana.jpg', 'key': 'i', 'origWidth': 410, 'origHeight': 410, 'width': 410, 'height': 410, 'widthPercent': 0.45, 'rescaleHeight': False, 'trialN': 78, 'loaded': True, 'loadedTime': 6401.799999952316, 'positionName': 'RIGHT', 'positionCoords': [710.32, 179], 'bid': 6.03}]",58541.799999952316,1669829219477,corn cob,banana,6.58,6.03,-0.5499999999999998,corn cob,143.5,144,144.10000002384186,True,u,59206.89999997616,665.1000000238419,1669829220142,665,HRV,HRV_0022,2022-11-30 17:28:13
79,"[{'imgObject': {}, 'id': 'olives', 'src': '/static/foodstim60/olives.jpg', 'key': 'u', 'origWidth': 410, 'origHeight': 410, 'width': 410, 'height': 410, 'widthPercent': 0.45, 'rescaleHeight': False, 'trialN': 79, 'loaded': True, 'loadedTime': 4254.099999964237, 'positionName': 'LEFT', 'positionCoords': [245.68, 179], 'bid': 7.75}, {'imgObject': {}, 'id': 'granola w milk', 'src': '/static/foodstim60/granola w milk.jpg', 'key': 'i', 'origWidth': 410, 'origHeight': 410, 'width': 410, 'height': 410, 'widthPercent': 0.45, 'rescaleHeight': False, 'trialN': 79, 'loaded': True, 'loadedTime': 7711.899999976158, 'positionName': 'RIGHT', 'positionCoords': [710.32, 179], 'bid': 8.03}]",59207.299999952316,1669829220143,olives,granola w milk,7.75,8.03,0.27999999999999936,granola w milk,172.30000001192093,173,173.4000000357628,True,i,59889.5,682.2000000476837,1669829220825,682,HRV,HRV_0022,2022-11-30 17:28:13
80,"[{'imgObject': {}, 'id': 'rigatoni and sauce', 'src': '/static/foodstim60/rigatoni and sauce.jpg', 'key': 'u', 'origWidth': 410, 'origHeight': 411, 'width': 410, 'height': 411, 'widthPercent': 0.45, 'rescaleHeight': False, 'trialN': 80, 'loaded': True, 'loadedTime': 7838.299999952316, 'positionName': 'LEFT', 'positionCoords': [245.68, 178.5], 'bid': 7.18}, {'imgObject': {}, 'id': 'raisin bran w milk', 'src': '/static/foodstim60/raisin bran w milk.jpg', 'key': 'i', 'origWidth': 411, 'origHeight': 411, 'width': 411, 'height': 411, 'widthPercent': 0.45, 'rescaleHeight': False, 'trialN': 80, 'loaded': True, 'loadedTime': 7825.799999952316, 'positionName': 'RIGHT', 'positionCoords': [710.32, 178.5], 'bid': 7.18}]",59890.0,1669829220825,rigatoni and sauce,raisin bran w milk,7.18,7.18,0.0,rigatoni and sauce,162.29999995231628,163,162.69999998807907,True,u,60564.0,674.0,1669829221499,674,HRV,HRV_0022,2022-11-30 17:28:13
81,"[{'imgObject': {}, 'id': 'steak', 'src': '/static/foodstim60/steak.jpg', 'key': 'u', 'origWidth': 410, 'origHeight': 410, 'width': 410, 'height': 410, 'widthPercent': 0.45, 'rescaleHeight': False, 'trialN': 81, 'loaded': True, 'loadedTime': 6005.799999952316, 'positionName': 'LEFT', 'positionCoords': [245.68, 179], 'bid': 7.73}, {'imgObject': {}, 'id': 'orange slices', 'src': '/static/foodstim60/orange slices.jpg', 'key': 'i', 'origWidth': 409, 'origHeight': 410, 'width': 409, 'height': 410, 'widthPercent': 0.45, 'rescaleHeight': False, 'trialN': 81, 'loaded': True, 'loadedTime': 7413, 'positionName': 'RIGHT', 'positionCoords': [710.32, 179], 'bid': 7.51}]",60571.19999998808,1669829221506,steak,orange slices,7.73,7.51,-0.22000000000000064,orange slices,118.59999996423721,121,120.09999996423721,True,i,61205.299999952316,634.0999999642372,1669829222141,635,HRV,HRV_0022,2022-11-30 17:28:13
82,"[{'imgObject': {}, 'id': 'apple slices', 'src': '/static/foodstim60/apple slices.jpg', 'key': 'u', 'origWidth': 409, 'origHeight': 410, 'width': 409, 'height': 410, 'widthPercent': 0.45, 'rescaleHeight': False, 'trialN': 82, 'loaded': True, 'loadedTime': 4681.699999988079, 'positionName': 'LEFT', 'positionCoords': [246.68, 179], 'bid': 7.34}, {'imgObject': {}, 'id': 'sushi w_condiments', 'src': '/static/foodstim60/sushi w_condiments.jpg', 'key': 'i', 'origWidth': 410, 'origHeight': 410, 'width': 410, 'height': 410, 'widthPercent': 0.45, 'rescaleHeight': False, 'trialN': 82, 'loaded': True, 'loadedTime': 7061.899999976158, 'positionName': 'RIGHT', 'positionCoords': [710.32, 179], 'bid': 7.29}]",61205.799999952316,1669829222141,apple slices,sushi w_condiments,7.34,7.29,-0.04999999999999982,apple slices,125.90000003576279,127,126.80000001192093,True,u,61842.09999996424,636.3000000119209,1669829222777,636,HRV,HRV_0022,2022-11-30 17:28:13
83,"[{'imgObject': {}, 'id': 'granola w milk', 'src': '/static/foodstim60/granola w milk.jpg', 'key': 'u', 'origWidth': 410, 'origHeight': 410, 'width': 410, 'height': 410, 'widthPercent': 0.45, 'rescaleHeight': False, 'trialN': 83, 'loaded': True, 'loadedTime': 7714.5, 'positionName': 'LEFT', 'positionCoords': [245.68, 179], 'bid': 8.03}, {'imgObject': {}, 'id': 'blueberries', 'src': '/static/foodstim60/blueberries.jpg', 'key': 'i', 'origWidth': 411, 'origHeight': 411, 'width': 411, 'height': 411, 'widthPercent': 0.45, 'rescaleHeight': False, 'trialN': 83, 'loaded': True, 'loadedTime': 4764.199999988079, 'positionName': 'RIGHT', 'positionCoords': [710.32, 178.5], 'bid': 7.97}]",61843.299999952316,1669829222778,granola w milk,blueberries,8.03,7.97,-0.05999999999999961,blueberries,144.5,146,145.5,True,i,62516.299999952316,673.0,1669829223451,673,HRV,HRV_0022,2022-11-30 17:28:13
84,"[{'imgObject': {}, 'id': 'mac & cheese', 'src': '/static/foodstim60/mac & cheese.jpg', 'key': 'u', 'origWidth': 410, 'origHeight': 410, 'width': 410, 'height': 410, 'widthPercent': 0.45, 'rescaleHeight': False, 'trialN': 84, 'loaded': True, 'loadedTime': 6389.399999976158, 'positionName': 'LEFT', 'positionCoords': [245.68, 179], 'bid': 6.62}, {'imgObject': {}, 'id': 'turkeysandwich', 'src': '/static/foodstim60/turkeysandwich.jpg', 'key': 'i', 'origWidth': 409, 'origHeight': 409, 'width': 409, 'height': 409, 'widthPercent': 0.45, 'rescaleHeight': False, 'trialN': 84, 'loaded': True, 'loadedTime': 7772.199999988079, 'positionName': 'RIGHT', 'positionCoords': [710.32, 179.5], 'bid': 6.97}]",62516.5,1669829223452,mac & cheese,turkeysandwich,6.62,6.97,0.34999999999999964,mac & cheese,117.5,118,118.29999995231628,True,u,63145.59999996424,629.0999999642372,1669829224081,629,HRV,HRV_0022,2022-11-30 17:28:13
85,"[{'imgObject': {}, 'id': 'burrito', 'src': '/static/foodstim60/burrito.jpg', 'key': 'u', 'origWidth': 410, 'origHeight': 410, 'width': 410, 'height': 410, 'widthPercent': 0.45, 'rescaleHeight': False, 'trialN': 85, 'loaded': True, 'loadedTime': 6003.699999988079, 'positionName': 'LEFT', 'positionCoords': [245.68, 179], 'bid': 6.9}, {'imgObject': {}, 'id': 'kiwi', 'src': '/static/foodstim60/kiwi.jpg', 'key': 'i', 'origWidth': 410, 'origHeight': 410, 'width': 410, 'height': 410, 'widthPercent': 0.45, 'rescaleHeight': False, 'trialN': 85, 'loaded': True, 'loadedTime': 3863.699999988079, 'positionName': 'RIGHT', 'positionCoords': [710.32, 179], 'bid': 7.24}]",63146.19999998808,1669829224081,burrito,kiwi,6.9,7.24,0.33999999999999986,kiwi,171.80000001192093,173,172.80000001192093,True,i,63828.799999952316,682.5999999642372,1669829224764,683,HRV,HRV_0022,2022-11-30 17:28:13
86,"[{'imgObject': {}, 'id': 'bagel plain', 'src': '/static/foodstim60/bagel plain.jpg', 'key': 'u', 'origWidth': 410, 'origHeight': 410, 'width': 410, 'height': 410, 'widthPercent': 0.45, 'rescaleHeight': False, 'trialN': 86, 'loaded': True, 'loadedTime': 6983.299999952316, 'positionName': 'LEFT', 'positionCoords': [245.68, 179], 'bid': 7.95}, {'imgObject': {}, 'id': 'veggieswithdip', 'src': '/static/foodstim60/veggieswithdip.jpg', 'key': 'i', 'origWidth': 409, 'origHeight': 409, 'width': 409, 'height': 409, 'widthPercent': 0.45, 'rescaleHeight': False, 'trialN': 86, 'loaded': True, 'loadedTime': 6252.099999964237, 'positionName': 'RIGHT', 'positionCoords': [710.32, 179.5], 'bid': 7.66}]",63829.19999998808,1669829224764,bagel plain,veggieswithdip,7.95,7.66,-0.29000000000000004,bagel plain,155.5,156,155.89999997615814,True,u,64504.0,674.8000000119209,1669829225439,675,HRV,HRV_0022,2022-11-30 17:28:13
87,"[{'imgObject': {}, 'id': 'edamame', 'src': '/static/foodstim60/edamame.jpg', 'key': 'u', 'origWidth': 409, 'origHeight': 410, 'width': 409, 'height': 410, 'widthPercent': 0.45, 'rescaleHeight': False, 'trialN': 87, 'loaded': True, 'loadedTime': 6047.099999964237, 'positionName': 'LEFT', 'positionCoords': [246.68, 179], 'bid': 7.85}, {'imgObject': {}, 'id': 'sushi w_condiments', 'src': '/static/foodstim60/sushi w_condiments.jpg', 'key': 'i', 'origWidth': 410, 'origHeight': 410, 'width': 410, 'height': 410, 'widthPercent': 0.45, 'rescaleHeight': False, 'trialN': 87, 'loaded': True, 'loadedTime': 7057.299999952316, 'positionName': 'RIGHT', 'positionCoords': [710.32, 179], 'bid': 7.29}]",64504.39999997616,1669829225440,edamame,sushi w_condiments,7.85,7.29,-0.5599999999999996,sushi w_condiments,152.0,152,152.60000002384186,True,i,65171.39999997616,667.0,1669829226107,667,HRV,HRV_0022,2022-11-30 17:28:13
88,"[{'imgObject': {}, 'id': 'tacos', 'src': '/static/foodstim60/tacos.jpg', 'key': 'u', 'origWidth': 411, 'origHeight': 411, 'width': 411, 'height': 411, 'widthPercent': 0.45, 'rescaleHeight': False, 'trialN': 88, 'loaded': True, 'loadedTime': 6683.799999952316, 'positionName': 'LEFT', 'positionCoords': [244.68, 178.5], 'bid': 7.81}, {'imgObject': {}, 'id': 'mac & cheese', 'src': '/static/foodstim60/mac & cheese.jpg', 'key': 'i', 'origWidth': 410, 'origHeight': 410, 'width': 410, 'height': 410, 'widthPercent': 0.45, 'rescaleHeight': False, 'trialN': 88, 'loaded': True, 'loadedTime': 6257, 'positionName': 'RIGHT', 'positionCoords': [710.32, 179], 'bid': 6.62}]",65172.0,1669829226107,tacos,mac & cheese,7.81,6.62,-1.1899999999999995,tacos,217.79999995231628,218,218.29999995231628,True,u,65909.79999995232,737.7999999523163,1669829226845,738,HRV,HRV_0022,2022-11-30 17:28:13
89,"[{'imgObject': {}, 'id': 'lox', 'src': '/static/foodstim60/lox.jpg', 'key': 'u', 'origWidth': 410, 'origHeight': 411, 'width': 410, 'height': 411, 'widthPercent': 0.45, 'rescaleHeight': False, 'trialN': 89, 'loaded': True, 'loadedTime': 4889.399999976158, 'positionName': 'LEFT', 'positionCoords': [245.68, 178.5], 'bid': 6.59}, {'imgObject': {}, 'id': 'sweetpotato', 'src': '/static/foodstim60/sweetpotato.jpg', 'key': 'i', 'origWidth': 410, 'origHeight': 410, 'width': 410, 'height': 410, 'widthPercent': 0.45, 'rescaleHeight': False, 'trialN': 89, 'loaded': True, 'loadedTime': 6229.399999976158, 'positionName': 'RIGHT', 'positionCoords': [710.32, 179], 'bid': 7.18}]",65910.09999996424,1669829226845,lox,sweetpotato,6.59,7.18,0.5899999999999999,sweetpotato,165.10000002384186,166,165.80000001192093,True,i,66582.69999998808,672.6000000238419,1669829227518,673,HRV,HRV_0022,2022-11-30 17:28:13
90,"[{'imgObject': {}, 'id': 'roastedpotatoes', 'src': '/static/foodstim60/roastedpotatoes.jpg', 'key': 'u', 'origWidth': 409, 'origHeight': 410, 'width': 409, 'height': 410, 'widthPercent': 0.45, 'rescaleHeight': False, 'trialN': 90, 'loaded': True, 'loadedTime': 7791, 'positionName': 'LEFT', 'positionCoords': [246.68, 179], 'bid': 7.13}, {'imgObject': {}, 'id': 'kiwi', 'src': '/static/foodstim60/kiwi.jpg', 'key': 'i', 'origWidth': 410, 'origHeight': 410, 'width': 410, 'height': 410, 'widthPercent': 0.45, 'rescaleHeight': False, 'trialN': 90, 'loaded': True, 'loadedTime': 3862.599999964237, 'positionName': 'RIGHT', 'positionCoords': [710.32, 179], 'bid': 7.24}]",70454.39999997616,1669829231390,roastedpotatoes,kiwi,7.13,7.24,0.11000000000000032,roastedpotatoes,1445.800000011921,1447,1446.800000011921,True,u,72410.0,1955.6000000238419,1669829233345,1955,HRV,HRV_0022,2022-11-30 17:28:13
91,"[{'imgObject': {}, 'id': 'veggieswithdip', 'src': '/static/foodstim60/veggieswithdip.jpg', 'key': 'u', 'origWidth': 409, 'origHeight': 409, 'width': 409, 'height': 409, 'widthPercent': 0.45, 'rescaleHeight': False, 'trialN': 91, 'loaded': True, 'loadedTime': 6248.599999964237, 'positionName': 'LEFT', 'positionCoords': [246.68, 179.5], 'bid': 7.66}, {'imgObject': {}, 'id': 'raspberries', 'src': '/static/foodstim60/raspberries.jpg', 'key': 'i', 'origWidth': 411, 'origHeight': 411, 'width': 411, 'height': 411, 'widthPercent': 0.45, 'rescaleHeight': False, 'trialN': 91, 'loaded': True, 'loadedTime': 7383.399999976158, 'positionName': 'RIGHT', 'positionCoords': [710.32, 178.5], 'bid': 7.72}]",72410.89999997616,1669829233346,veggieswithdip,raspberries,7.66,7.72,0.05999999999999961,raspberries,97.19999998807907,98,97.69999998807907,True,i,73011.69999998808,600.8000000119209,1669829233947,601,HRV,HRV_0022,2022-11-30 17:28:13
92,"[{'imgObject': {}, 'id': 'froot loops w milk', 'src': '/static/foodstim60/froot loops w milk.jpg', 'key': 'u', 'origWidth': 410, 'origHeight': 410, 'width': 410, 'height': 410, 'widthPercent': 0.45, 'rescaleHeight': False, 'trialN': 92, 'loaded': True, 'loadedTime': 5702.799999952316, 'positionName': 'LEFT', 'positionCoords': [245.68, 179], 'bid': 5.67}, {'imgObject': {}, 'id': 'cherries', 'src': '/static/foodstim60/cherries.jpg', 'key': 'i', 'origWidth': 410, 'origHeight': 411, 'width': 410, 'height': 411, 'widthPercent': 0.45, 'rescaleHeight': False, 'trialN': 92, 'loaded': True, 'loadedTime': 5898.5, 'positionName': 'RIGHT', 'positionCoords': [710.32, 178.5], 'bid': 6.11}]",73012.19999998808,1669829233947,froot loops w milk,cherries,5.67,6.11,0.4400000000000004,froot loops w milk,76.89999997615814,78,77.30000001192093,True,u,73594.79999995232,582.5999999642372,1669829234530,583,HRV,HRV_0022,2022-11-30 17:28:13
93,"[{'imgObject': {}, 'id': 'chickenfingers', 'src': '/static/foodstim60/chickenfingers.jpg', 'key': 'u', 'origWidth': 410, 'origHeight': 410, 'width': 410, 'height': 410, 'widthPercent': 0.45, 'rescaleHeight': False, 'trialN': 93, 'loaded': True, 'loadedTime': 7035, 'positionName': 'LEFT', 'positionCoords': [245.68, 179], 'bid': 6.42}, {'imgObject': {}, 'id': 'chicken nuggets2', 'src': '/static/foodstim60/chicken nuggets2.jpg', 'key': 'i', 'origWidth': 410, 'origHeight': 409, 'width': 410, 'height': 409, 'widthPercent': 0.45, 'rescaleHeight': False, 'trialN': 93, 'loaded': True, 'loadedTime': 4501.5, 'positionName': 'RIGHT', 'positionCoords': [710.32, 179.5], 'bid': 6.11}]",73595.39999997616,1669829234531,chickenfingers,chicken nuggets2,6.42,6.11,-0.3099999999999996,chickenfingers,134.10000002384186,134,134.80000001192093,True,u,74246.09999996424,650.6999999880791,1669829235181,650,HRV,HRV_0022,2022-11-30 17:28:13
94,"[{'imgObject': {}, 'id': 'bagel and cc', 'src': '/static/foodstim60/bagel and cc.jpg', 'key': 'u', 'origWidth': 410, 'origHeight': 410, 'width': 410, 'height': 410, 'widthPercent': 0.45, 'rescaleHeight': False, 'trialN': 94, 'loaded': True, 'loadedTime': 4503.799999952316, 'positionName': 'LEFT', 'positionCoords': [245.68, 179], 'bid': 6.15}, {'imgObject': {}, 'id': 'turkeysandwich', 'src': '/static/foodstim60/turkeysandwich.jpg', 'key': 'i', 'origWidth': 409, 'origHeight': 409, 'width': 409, 'height': 409, 'widthPercent': 0.45, 'rescaleHeight': False, 'trialN': 94, 'loaded': True, 'loadedTime': 7769.299999952316, 'positionName': 'RIGHT', 'positionCoords': [710.32, 179.5], 'bid': 6.97}]",74246.79999995232,1669829235182,bagel and cc,turkeysandwich,6.15,6.97,0.8199999999999994,bagel and cc,111.5,308,308.2000000476837,True,u,75060.89999997616,814.1000000238419,1669829235996,814,HRV,HRV_0022,2022-11-30 17:28:13
95,"[{'imgObject': {}, 'id': 'cocktailshrimp', 'src': '/static/foodstim60/cocktailshrimp.jpg', 'key': 'u', 'origWidth': 410, 'origHeight': 410, 'width': 410, 'height': 410, 'widthPercent': 0.45, 'rescaleHeight': False, 'trialN': 95, 'loaded': True, 'loadedTime': 5841.099999964237, 'positionName': 'LEFT', 'positionCoords': [245.68, 179], 'bid': 6.53}, {'imgObject': {}, 'id': 'raisin bran w milk', 'src': '/static/foodstim60/raisin bran w milk.jpg', 'key': 'i', 'origWidth': 411, 'origHeight': 411, 'width': 411, 'height': 411, 'widthPercent': 0.45, 'rescaleHeight': False, 'trialN': 95, 'loaded': True, 'loadedTime': 7826.899999976158, 'positionName': 'RIGHT', 'positionCoords': [710.32, 178.5], 'bid': 7.18}]",75061.5,1669829235997,cocktailshrimp,raisin bran w milk,6.53,7.18,0.6499999999999995,cocktailshrimp,111.0,112,112.69999998807907,True,u,75690.29999995232,628.7999999523163,1669829236626,629,HRV,HRV_0022,2022-11-30 17:28:13
96,"[{'imgObject': {}, 'id': 'cantaloupe', 'src': '/static/foodstim60/cantaloupe.jpg', 'key': 'u', 'origWidth': 409, 'origHeight': 409, 'width': 409, 'height': 409, 'widthPercent': 0.45, 'rescaleHeight': False, 'trialN': 96, 'loaded': True, 'loadedTime': 5263.5, 'positionName': 'LEFT', 'positionCoords': [246.68, 179.5], 'bid': 7.26}, {'imgObject': {}, 'id': 'seaweed', 'src': '/static/foodstim60/seaweed.jpg', 'key': 'i', 'origWidth': 410, 'origHeight': 410, 'width': 410, 'height': 410, 'widthPercent': 0.45, 'rescaleHeight': False, 'trialN': 96, 'loaded': True, 'loadedTime': 5091.899999976158, 'positionName': 'RIGHT', 'positionCoords': [710.32, 179], 'bid': 7.22}]",75690.69999998808,1669829236626,cantaloupe,seaweed,7.26,7.22,-0.040000000000000036,seaweed,101.5,102,102.09999996423721,True,i,76301.89999997616,611.1999999880791,1669829237237,611,HRV,HRV_0022,2022-11-30 17:28:13
97,"[{'imgObject': {}, 'id': 'Grapes', 'src': '/static/foodstim60/Grapes.jpg', 'key': 'u', 'origWidth': 411, 'origHeight': 411, 'width': 411, 'height': 411, 'widthPercent': 0.45, 'rescaleHeight': False, 'trialN': 97, 'loaded': True, 'loadedTime': 6000.399999976158, 'positionName': 'LEFT', 'positionCoords': [244.68, 178.5], 'bid': 6.99}, {'imgObject': {}, 'id': 'sushi w_condiments', 'src': '/static/foodstim60/sushi w_condiments.jpg', 'key': 'i', 'origWidth': 410, 'origHeight': 410, 'width': 410, 'height': 410, 'widthPercent': 0.45, 'rescaleHeight': False, 'trialN': 97, 'loaded': True, 'loadedTime': 7062.199999988079, 'positionName': 'RIGHT', 'positionCoords': [710.32, 179], 'bid': 7.29}]",76302.29999995232,1669829237238,Grapes,sushi w_condiments,6.99,7.29,0.2999999999999998,Grapes,80.10000002384186,80,80.5,True,u,76884.69999998808,582.4000000357628,1669829237820,582,HRV,HRV_0022,2022-11-30 17:28:13
98,"[{'imgObject': {}, 'id': 'baked potato', 'src': '/static/foodstim60/baked potato.jpg', 'key': 'u', 'origWidth': 409, 'origHeight': 410, 'width': 409, 'height': 410, 'widthPercent': 0.45, 'rescaleHeight': False, 'trialN': 98, 'loaded': True, 'loadedTime': 4186.399999976158, 'positionName': 'LEFT', 'positionCoords': [246.68, 179], 'bid': 7.57}, {'imgObject': {}, 'id': 'orange slices', 'src': '/static/foodstim60/orange slices.jpg', 'key': 'i', 'origWidth': 409, 'origHeight': 410, 'width': 409, 'height': 410, 'widthPercent': 0.45, 'rescaleHeight': False, 'trialN': 98, 'loaded': True, 'loadedTime': 7407.599999964237, 'positionName': 'RIGHT', 'positionCoords': [710.32, 179], 'bid': 7.51}]",76884.89999997616,1669829237820,baked potato,orange slices,7.57,7.51,-0.0600000000000005,orange slices,147.60000002384186,148,148.19999998807907,True,i,77543.79999995232,658.8999999761581,1669829238479,659,HRV,HRV_0022,2022-11-30 17:28:13
99,"[{'imgObject': {}, 'id': 'strawberries', 'src': '/static/foodstim60/strawberries.jpg', 'key': 'u', 'origWidth': 410, 'origHeight': 410, 'width': 410, 'height': 410, 'widthPercent': 0.45, 'rescaleHeight': False, 'trialN': 99, 'loaded': True, 'loadedTime': 7055.799999952316, 'positionName': 'LEFT', 'positionCoords': [245.68, 179], 'bid': 7.37}, {'imgObject': {}, 'id': 'roastedpotatoes', 'src': '/static/foodstim60/roastedpotatoes.jpg', 'key': 'i', 'origWidth': 409, 'origHeight': 410, 'width': 409, 'height': 410, 'widthPercent': 0.45, 'rescaleHeight': False, 'trialN': 99, 'loaded': True, 'loadedTime': 7804.199999988079, 'positionName': 'RIGHT', 'positionCoords': [710.32, 179], 'bid': 7.13}]",77544.39999997616,1669829238480,strawberries,roastedpotatoes,7.37,7.13,-0.2400000000000002,strawberries,64.80000001192093,65,65.39999997615814,True,u,78124.29999995232,579.8999999761581,1669829239060,580,HRV,HRV_0022,2022-11-30 17:28:13
100,"[{'imgObject': {}, 'id': 'mango', 'src': '/static/foodstim60/mango.jpg', 'key': 'u', 'origWidth': 411, 'origHeight': 411, 'width': 411, 'height': 411, 'widthPercent': 0.45, 'rescaleHeight': False, 'trialN': 100, 'loaded': True, 'loadedTime': 5016.299999952316, 'positionName': 'LEFT', 'positionCoords': [244.68, 178.5], 'bid': 6.12}, {'imgObject': {}, 'id': 'eggsalad', 'src': '/static/foodstim60/eggsalad.jpg', 'key': 'i', 'origWidth': 410, 'origHeight': 409, 'width': 410, 'height': 409, 'widthPercent': 0.45, 'rescaleHeight': False, 'trialN': 100, 'loaded': True, 'loadedTime': 5828.399999976158, 'positionName': 'RIGHT', 'positionCoords': [710.32, 179.5], 'bid': 6.18}]",78125.29999995232,1669829239061,mango,eggsalad,6.12,6.18,0.05999999999999961,eggsalad,108.30000001192093,109,109.0,True,i,78738.89999997616,613.6000000238419,1669829239674,613,HRV,HRV_0022,2022-11-30 17:28:13
101,"[{'imgObject': {}, 'id': 'shreddedwheatwithmilk', 'src': '/static/foodstim60/shreddedwheatwithmilk.jpg', 'key': 'u', 'origWidth': 410, 'origHeight': 410, 'width': 410, 'height': 410, 'widthPercent': 0.45, 'rescaleHeight': False, 'trialN': 101, 'loaded': True, 'loadedTime': 6644.599999964237, 'positionName': 'LEFT', 'positionCoords': [245.68, 179], 'bid': 6.71}, {'imgObject': {}, 'id': 'Tribe humus pita', 'src': '/static/foodstim60/Tribe humus pita.jpg', 'key': 'i', 'origWidth': 411, 'origHeight': 411, 'width': 411, 'height': 411, 'widthPercent': 0.45, 'rescaleHeight': False, 'trialN': 101, 'loaded': True, 'loadedTime': 4606.199999988079, 'positionName': 'RIGHT', 'positionCoords': [710.32, 178.5], 'bid': 7.04}]",78740.79999995232,1669829239676,shreddedwheatwithmilk,Tribe humus pita,6.71,7.04,0.33000000000000007,shreddedwheatwithmilk,56.200000047683716,57,56.90000003576279,True,u,79300.39999997616,559.6000000238419,1669829240236,560,HRV,HRV_0022,2022-11-30 17:28:13
102,"[{'imgObject': {}, 'id': 'cocktailshrimp', 'src': '/static/foodstim60/cocktailshrimp.jpg', 'key': 'u', 'origWidth': 410, 'origHeight': 410, 'width': 410, 'height': 410, 'widthPercent': 0.45, 'rescaleHeight': False, 'trialN': 102, 'loaded': True, 'loadedTime': 5840.799999952316, 'positionName': 'LEFT', 'positionCoords': [245.68, 179], 'bid': 6.53}, {'imgObject': {}, 'id': 'froot loops w milk', 'src': '/static/foodstim60/froot loops w milk.jpg', 'key': 'i', 'origWidth': 410, 'origHeight': 410, 'width': 410, 'height': 410, 'widthPercent': 0.45, 'rescaleHeight': False, 'trialN': 102, 'loaded': True, 'loadedTime': 5722.099999964237, 'positionName': 'RIGHT', 'positionCoords': [710.32, 179], 'bid': 5.67}]",79300.79999995232,1669829240236,cocktailshrimp,froot loops w milk,6.53,5.67,-0.8600000000000003,froot loops w milk,66.10000002384186,68,67.90000003576279,True,i,79881.59999996424,580.8000000119209,1669829240817,581,HRV,HRV_0022,2022-11-30 17:28:13
103,"[{'imgObject': {}, 'id': 'corn cob', 'src': '/static/foodstim60/corn cob.jpg', 'key': 'u', 'origWidth': 411, 'origHeight': 411, 'width': 411, 'height': 411, 'widthPercent': 0.45, 'rescaleHeight': False, 'trialN': 103, 'loaded': True, 'loadedTime': 7728.5, 'positionName': 'LEFT', 'positionCoords': [244.68, 178.5], 'bid': 6.58}, {'imgObject': {}, 'id': 'pear', 'src': '/static/foodstim60/pear.jpg', 'key': 'i', 'origWidth': 411, 'origHeight': 410, 'width': 411, 'height': 410, 'widthPercent': 0.45, 'rescaleHeight': False, 'trialN': 103, 'loaded': True, 'loadedTime': 5028.799999952316, 'positionName': 'RIGHT', 'positionCoords': [710.32, 179], 'bid': 6.61}]",79881.89999997616,1669829240817,corn cob,pear,6.58,6.61,0.03000000000000025,corn cob,14.5,15,15.100000023841858,True,u,80408.0,526.1000000238419,1669829241343,526,HRV,HRV_0022,2022-11-30 17:28:13
104,"[{'imgObject': {}, 'id': 'bagel plain', 'src': '/static/foodstim60/bagel plain.jpg', 'key': 'u', 'origWidth': 410, 'origHeight': 410, 'width': 410, 'height': 410, 'widthPercent': 0.45, 'rescaleHeight': False, 'trialN': 104, 'loaded': True, 'loadedTime': 6984.899999976158, 'positionName': 'LEFT', 'positionCoords': [245.68, 179], 'bid': 7.95}, {'imgObject': {}, 'id': 'fried eggs', 'src': '/static/foodstim60/fried eggs.jpg', 'key': 'i', 'origWidth': 410, 'origHeight': 410, 'width': 410, 'height': 410, 'widthPercent': 0.45, 'rescaleHeight': False, 'trialN': 104, 'loaded': True, 'loadedTime': 7782.799999952316, 'positionName': 'RIGHT', 'positionCoords': [710.32, 179], 'bid': 8.27}]",80436.59999996424,1669829241372,bagel plain,fried eggs,7.95,8.27,0.3199999999999994,fried eggs,202.0,227,227.30000001192093,True,i,81176.5,739.9000000357628,1669829242112,740,HRV,HRV_0022,2022-11-30 17:28:13
105,"[{'imgObject': {}, 'id': 'turkey sandwich', 'src': '/static/foodstim60/turkey sandwich.jpg', 'key': 'u', 'origWidth': 409, 'origHeight': 409, 'width': 409, 'height': 409, 'widthPercent': 0.45, 'rescaleHeight': False, 'trialN': 105, 'loaded': True, 'loadedTime': 5247.399999976158, 'positionName': 'LEFT', 'positionCoords': [246.68, 179.5], 'bid': 7.59}, {'imgObject': {}, 'id': 'burger', 'src': '/static/foodstim60/burger.jpg', 'key': 'i', 'origWidth': 409, 'origHeight': 409, 'width': 409, 'height': 409, 'widthPercent': 0.45, 'rescaleHeight': False, 'trialN': 105, 'loaded': True, 'loadedTime': 7400.099999964237, 'positionName': 'RIGHT', 'positionCoords': [710.32, 179.5], 'bid': 8.040000000000001}]",81177.39999997616,1669829242113,turkey sandwich,burger,7.59,8.040000000000001,0.45000000000000107,burger,112.5,113,113.10000002384186,True,i,81808.29999995232,630.8999999761581,1669829242744,631,HRV,HRV_0022,2022-11-30 17:28:13
106,"[{'imgObject': {}, 'id': 'burrito', 'src': '/static/foodstim60/burrito.jpg', 'key': 'u', 'origWidth': 410, 'origHeight': 410, 'width': 410, 'height': 410, 'widthPercent': 0.45, 'rescaleHeight': False, 'trialN': 106, 'loaded': True, 'loadedTime': 6003.799999952316, 'positionName': 'LEFT', 'positionCoords': [245.68, 179], 'bid': 6.9}, {'imgObject': {}, 'id': 'turkeysandwich', 'src': '/static/foodstim60/turkeysandwich.jpg', 'key': 'i', 'origWidth': 409, 'origHeight': 409, 'width': 409, 'height': 409, 'widthPercent': 0.45, 'rescaleHeight': False, 'trialN': 106, 'loaded': True, 'loadedTime': 7765.599999964237, 'positionName': 'RIGHT', 'positionCoords': [710.32, 179.5], 'bid': 6.97}]",81808.69999998808,1669829242744,burrito,turkeysandwich,6.9,6.97,0.0699999999999994,burrito,75.89999997615814,77,76.59999996423721,True,u,82389.39999997616,580.6999999880791,1669829243325,581,HRV,HRV_0022,2022-11-30 17:28:13
107,"[{'imgObject': {}, 'id': 'shreddedwheatwithmilk', 'src': '/static/foodstim60/shreddedwheatwithmilk.jpg', 'key': 'u', 'origWidth': 410, 'origHeight': 410, 'width': 410, 'height': 410, 'widthPercent': 0.45, 'rescaleHeight': False, 'trialN': 107, 'loaded': True, 'loadedTime': 6650.799999952316, 'positionName': 'LEFT', 'positionCoords': [245.68, 179], 'bid': 6.71}, {'imgObject': {}, 'id': 'omelette', 'src': '/static/foodstim60/omelette.jpg', 'key': 'i', 'origWidth': 410, 'origHeight': 409, 'width': 410, 'height': 409, 'widthPercent': 0.45, 'rescaleHeight': False, 'trialN': 107, 'loaded': True, 'loadedTime': 4901.5, 'positionName': 'RIGHT', 'positionCoords': [710.32, 179.5], 'bid': 6.74}]",82389.89999997616,1669829243325,shreddedwheatwithmilk,omelette,6.71,6.74,0.03000000000000025,omelette,95.5,96,96.19999998807907,True,i,82987.79999995232,597.8999999761581,1669829243923,598,HRV,HRV_0022,2022-11-30 17:28:13
108,"[{'imgObject': {}, 'id': 'granola w milk', 'src': '/static/foodstim60/granola w milk.jpg', 'key': 'u', 'origWidth': 410, 'origHeight': 410, 'width': 410, 'height': 410, 'widthPercent': 0.45, 'rescaleHeight': False, 'trialN': 108, 'loaded': True, 'loadedTime': 7716.899999976158, 'positionName': 'LEFT', 'positionCoords': [245.68, 179], 'bid': 8.03}, {'imgObject': {}, 'id': 'yogurt no spoon', 'src': '/static/foodstim60/yogurt no spoon.jpg', 'key': 'i', 'origWidth': 411, 'origHeight': 410, 'width': 411, 'height': 410, 'widthPercent': 0.45, 'rescaleHeight': False, 'trialN': 108, 'loaded': True, 'loadedTime': 4061.699999988079, 'positionName': 'RIGHT', 'positionCoords': [710.32, 179], 'bid': 7.59}]",82988.09999996424,1669829243923,granola w milk,yogurt no spoon,8.03,7.59,-0.4399999999999995,granola w milk,98.60000002384186,100,99.30000001192093,True,u,83594.09999996424,606.0,1669829244529,606,HRV,HRV_0022,2022-11-30 17:28:13
