success,trial_type,trial_index,time_elapsed,internal_node_id,missTrial,missTrialMsg,Block,TrialNumber,TrialTime,trialTimeDiff,FPS_avg,FPS_med,FPS_mode,TrialDur,winResizeTime,rt,block,button_pressed,MotCoh,MotDir,ColCoh,Color,ChoiceKey,Choice,Accuracy,RT,nFrames,FPS,PPD,onsetDelay,fullScreenExitTime,canvCenter,TrialType,Score,BlockTrial,stimulus,button_labels,exp,subjectId,date
True,fullscreen,0,6530,0.0-0.0,True,undefinedblurEvent ,0.0,0.0,,,,,,,,,,,,,,,,,,,,,,,,,,,,,,HRV,HRV_0022,2022-11-30 17:51:23
,wl-check-fps,1,11605,0.0-1.0,,,0.0,1.0,"[8488.8, 8503.5, 8510.7, 8528.6, 8543.2, 8558.5, 8574, 8594.2, 8631.1, 8678.5, 8695.3, 8711, 8725.6, 8743.6, 8758.7, 8775.3, 8793.6, 8808.9, 8827.3, 8842.7, 8859.3, 8877.6, 8892.7, 8909.1, 8926.1, 8943.7, 8959.5, 8976.1, 8992.6, 9008.6, 9024.6, 9041.8, 9058.1, 9074.8, 9090.3, 9108.2, 9125.4, 9141.5, 9158.2, 9174.8, 9191.9, 9208.8, 9225, 9243.9, 9258.3, 9274.3, 9290.7, 9309.9, 9325.3, 9341.1, 9356.7, 9374.9, 9391.8, 9408.8, 9424.5, 9441.3, 9461, 9475.8, 9493.1, 9508.1, 9525.8, 9541.5, 9558.4, 9574.9, 9591.9, 9608.6, 9625.7, 9642.7, 9658.9, 9676.1, 9694.7, 9710, 9726.5, 9743.4, 9758.6, 9776.4, 9792.7, 9809.2, 9825.6, 9842, 9858.4, 9877.1, 9893, 9908.7, 9925.8, 9942, 9958.5, 9984.2, 9990.5, 10006.1, 10023.8, 10039.3, 10056, 10073.7, 10089.7, 10106.2, 10123.9, 10141.8, 10158.7, 10174.6, 10190.6, 10207.2, 10224.9, 10241.3, 10257.4, 10274.4, 10292, 10307.2, 10324.4, 10341.1, 10358.2, 10373.9, 10390.3, 10407.3, 10424.5, 10440.7, 10458.5, 10474.8, 10490.6, 10505.7, 10523.6, 10539.2, 10555.6, 10573.9, 10588.9, 10606.6, 10624.5, 10641, 10658, 10674.8, 10689.6, 10706.6, 10723.5, 10741, 10758.1, 10774.8, 10790.4, 10806.5, 10823.8, 10840.3, 10857.4, 10874.4, 10890, 10905.4, 10923.1, 10938.9, 10955.2, 10974.6, 10989.6, 11006.5, 11024.1, 11039.6, 11055.4, 11073.4, 11089.5, 11107.3, 11124.5, 11140.7, 11162.6, 11177.7, 11191.1, 11207.5, 11223.9, 11240.8, 11259.3, 11275.7, 11291.1, 11306.3, 11326.2, 11339.1, 11357.5, 11374.8, 11389.4, 11407.7, 11424.2, 11441.1, 11481.5, 11483.2, 11490.2, 11508.4, 11525.2, 11540.8, 11556.4, 11571.8, 11589.5, 11608.6, 11625, 11641.2, 11657.1, 11676.4, 11692.5, 11706.5, 11724, 11739.4, 11757.2, 11773.7, 11789.7, 11807, 11823.9, 11839.5, 11855.4, 11879.6, 11890.6, 11908, 11924.8, 11940.7, 11956.7, 11972, 11988.7, 12007.1, 12021.1, 12040.6, 12056.5, 12072.8, 12090.5, 12106.9, 12123.2, 12140.4, 12155.8, 12174.4, 12190.7, 12206.8, 12225.1, 12241, 12258.2, 12274.2, 12290.4, 12305.8, 12324.1, 12340.5, 12355.9, 12373.6, 12389.2, 12407.2, 12423.9, 12440.6, 12457.2, 12479, 12491.9, 12506.8, 12522.7, 12540.8, 12556.7, 12574.3, 12588.4, 12606.7, 12623.4, 12640.6, 12657.1, 12674.3, 12690.4, 12705.8, 12722.7, 12739.8, 12755.7, 12771.2, 12788, 12806.2, 12822.9, 12838.8, 12855.3, 12874.3, 12889.7, 12905.9, 12921.2, 12939.3, 12954.2, 12972.3, 12989.7, 13005.5, 13021, 13038.2, 13054.7, 13072.5, 13089.5, 13105.3, 13122.2, 13138.1, 13156.6, 13176, 13189.3, 13204.9, 13223, 13238.4, 13272.9, 13273.8, 13288.4, 13305.8, 13321.4, 13338.3, 13354.8, 13373.2, 13389.6, 13405.4, 13421.6, 13439.3, 13455, 13470.8, 13488.4, 13505.5]","[20.3, 14.7, 7.2, 17.9, 14.6, 15.3, 15.5, 20.2, 36.9, 47.4, 16.8, 15.7, 14.6, 18, 15.1, 16.6, 18.3, 15.3, 18.4, 15.4, 16.6, 18.3, 15.1, 16.4, 17, 17.6, 15.8, 16.6, 16.5, 16, 16, 17.2, 16.3, 16.7, 15.5, 17.9, 17.2, 16.1, 16.7, 16.6, 17.1, 16.9, 16.2, 18.9, 14.4, 16, 16.4, 19.2, 15.4, 15.8, 15.6, 18.2, 16.9, 17, 15.7, 16.8, 19.7, 14.8, 17.3, 15, 17.7, 15.7, 16.9, 16.5, 17, 16.7, 17.1, 17, 16.2, 17.2, 18.6, 15.3, 16.5, 16.9, 15.2, 17.8, 16.3, 16.5, 16.4, 16.4, 16.4, 18.7, 15.9, 15.7, 17.1, 16.2, 16.5, 25.7, 6.3, 15.6, 17.7, 15.5, 16.7, 17.7, 16, 16.5, 17.7, 17.9, 16.9, 15.9, 16, 16.6, 17.7, 16.4, 16.1, 17, 17.6, 15.2, 17.2, 16.7, 17.1, 15.7, 16.4, 17, 17.2, 16.2, 17.8, 16.3, 15.8, 15.1, 17.9, 15.6, 16.4, 18.3, 15, 17.7, 17.9, 16.5, 17, 16.8, 14.8, 17, 16.9, 17.5, 17.1, 16.7, 15.6, 16.1, 17.3, 16.5, 17.1, 17, 15.6, 15.4, 17.7, 15.8, 16.3, 19.4, 15, 16.9, 17.6, 15.5, 15.8, 18, 16.1, 17.8, 17.2, 16.2, 21.9, 15.1, 13.4, 16.4, 16.4, 16.9, 18.5, 16.4, 15.4, 15.2, 19.9, 12.9, 18.4, 17.3, 14.6, 18.3, 16.5, 16.9, 40.4, 1.7, 7, 18.2, 16.8, 15.6, 15.6, 15.4, 17.7, 19.1, 16.4, 16.2, 15.9, 19.3, 16.1, 14, 17.5, 15.4, 17.8, 16.5, 16, 17.3, 16.9, 15.6, 15.9, 24.2, 11, 17.4, 16.8, 15.9, 16, 15.3, 16.7, 18.4, 14, 19.5, 15.9, 16.3, 17.7, 16.4, 16.3, 17.2, 15.4, 18.6, 16.3, 16.1, 18.3, 15.9, 17.2, 16, 16.2, 15.4, 18.3, 16.4, 15.4, 17.7, 15.6, 18, 16.7, 16.7, 16.6, 21.8, 12.9, 14.9, 15.9, 18.1, 15.9, 17.6, 14.1, 18.3, 16.7, 17.2, 16.5, 17.2, 16.1, 15.4, 16.9, 17.1, 15.9, 15.5, 16.8, 18.2, 16.7, 15.9, 16.5, 19, 15.4, 16.2, 15.3, 18.1, 14.9, 18.1, 17.4, 15.8, 15.5, 17.2, 16.5, 17.8, 17, 15.8, 16.9, 15.9, 18.5, 19.4, 13.3, 15.6, 18.1, 15.4, 34.5, 0.9, 14.6, 17.4, 15.6, 16.9, 16.5, 18.4, 16.4, 15.8, 16.2, 17.7, 15.7, 15.8, 17.6, 17.1]",60.0,58.0,61.0,5053.2,[],,,,,,,,,,,,,,,,,,,,,,,HRV,HRV_0022,2022-11-30 17:51:23
,wl-html-keyboard-response,2,26759,0.0-2.0-0.0,,,0.0,2.0,,,,,,,,13131.400000035763,0.0,0,,,,,,,,,,,,,,,,,,,,HRV,HRV_0022,2022-11-30 17:51:23
,wl-rdm,3,34147,0.0-3.0-0.0,False,,0.0,3.0,,,,,,,[],,,,0.0,0.0,87.9,0.0,u,0.0,True,1670.6000000238419,101.0,61.0,40.0,3000.0,[],"[683, 384]",ColorTask_Demo,,,,,HRV,HRV_0022,2022-11-30 17:51:23
,wl-rdm,4,38907,0.0-3.0-1.0,False,,0.0,4.0,,,,,,,[],,,,0.0,0.0,87.9,1.0,i,1.0,True,1787.699999988079,40.0,61.0,40.0,2000.0,[],"[683, 384]",ColorTask_Demo,,,,,HRV,HRV_0022,2022-11-30 17:51:23
,wl-html-keyboard-response,5,41299,0.0-3.0-2.0,,,0.0,5.0,,,,,,,,384.89999997615814,0.0,1,,,,,,,,,,,,,,,,,,,,HRV,HRV_0022,2022-11-30 17:51:23
,wl-html-keyboard-response,6,48980,0.0-4.0-0.0,,,0.0,6.0,,,,,,,,5672.399999976158,0.0,0,,,,,,,,,,,,,,,,,,,,HRV,HRV_0022,2022-11-30 17:51:23
,wl-html-keyboard-response,7,57055,0.0-5.0-0.0,,,0.0,7.0,,,,,,,,6070.800000011921,0.0,0,,,,,,,,,,,,,,,,,,,,HRV,HRV_0022,2022-11-30 17:51:23
,wl-rdm,8,58938,0.0-6.0-0.0,False,,0.0,8.0,,,,,,,[],,,,,,53.2,0.0,i,1.0,False,452.19999998807907,28.0,61.0,40.0,343.8390899284292,[],"[683, 384]",ColorTask,-1.0,1.0,,,HRV,HRV_0022,2022-11-30 17:51:23
,wl-rdm,9,60005,0.0-6.1-0.1,True,too_early ,0.0,8.0,,,,,,,[],,,,,,87.9,0.0,i,,,94.59999996423721,0.0,61.0,40.0,326.97537547859724,[],"[683, 384]",ColorTask,-2.0,2.0,,,HRV,HRV_0022,2022-11-30 17:51:23
,wl-rdm,10,61086,0.0-6.2-0.2,True,too_early ,0.0,8.0,,,,,,,[],,,,,,73.6,0.0,i,,,17.100000023841858,0.0,61.0,40.0,395.28755062857465,[],"[683, 384]",ColorTask,-3.0,3.0,,,HRV,HRV_0022,2022-11-30 17:51:23
,wl-rdm,11,62817,0.0-6.3-0.3,False,,0.0,9.0,,,,,,,[],,,,,,50.0,0.0,i,1.0,False,354.0999999642372,22.0,61.0,40.0,301.2525796088091,[],"[683, 384]",ColorTask,-4.0,4.0,,,HRV,HRV_0022,2022-11-30 17:51:23
,wl-rdm,12,63966,0.0-6.4-0.4,True,too_early ,0.0,9.0,,,,,,,[],,,,,,87.9,1.0,u,,,597.7999999523163,0.0,61.0,40.0,343.75828474412947,[],"[683, 384]",ColorTask,-5.0,5.0,,,HRV,HRV_0022,2022-11-30 17:51:23
,wl-rdm,13,65680,0.0-6.5-0.5,False,,0.0,10.0,,,,,,,[],,,,,,73.6,0.0,u,0.0,True,405.19999998807907,22.0,61.0,40.0,244.05105847698923,[],"[683, 384]",ColorTask,-4.0,6.0,,,HRV,HRV_0022,2022-11-30 17:51:23
,wl-rdm,14,67530,0.0-6.6-0.6,False,,0.0,11.0,,,,,,,[],,,,,,87.9,0.0,i,1.0,False,491.0999999642372,30.0,61.0,40.0,283.71058702963126,[],"[683, 384]",ColorTask,-5.0,7.0,,,HRV,HRV_0022,2022-11-30 17:51:23
,wl-rdm,15,69229,0.0-6.7-0.7,False,,0.0,12.0,,,,,,,[],,,,,,50.0,1.0,u,0.0,False,237.0,15.0,61.0,40.0,371.2776494334404,[],"[683, 384]",ColorTask,-6.0,8.0,,,HRV,HRV_0022,2022-11-30 17:51:23
,wl-rdm,16,70526,0.0-6.8-0.8,True,too_early ,0.0,12.0,,,,,,,[],,,,,,73.6,0.0,i,,,750.8000000119209,0.0,61.0,40.0,313.0336603242462,[],"[683, 384]",ColorTask,-7.0,9.0,,,HRV,HRV_0022,2022-11-30 17:51:23
,wl-rdm,17,72174,0.0-6.9-0.9,False,,0.0,13.0,,,,,,,[],,,,,,87.9,0.0,i,1.0,False,362.2000000476837,22.0,61.0,40.0,204.434333547191,[],"[683, 384]",ColorTask,-8.0,10.0,,,HRV,HRV_0022,2022-11-30 17:51:23
,wl-rdm,18,74072,0.0-6.10-0.10,False,,0.0,14.0,,,,,,,[],,,,,,87.9,1.0,u,0.0,False,428.10000002384186,26.0,61.0,40.0,383.90875643652777,[],"[683, 384]",ColorTask,-9.0,11.0,,,HRV,HRV_0022,2022-11-30 17:51:23
,wl-rdm,19,75920,0.0-6.11-0.11,False,,0.0,15.0,,,,,,,[],,,,,,53.2,1.0,u,0.0,False,397.80000001192093,24.0,61.0,40.0,381.421967601039,[],"[683, 384]",ColorTask,-10.0,12.0,,,HRV,HRV_0022,2022-11-30 17:51:23
,wl-rdm,20,77653,0.0-6.12-0.12,False,,0.0,16.0,,,,,,,[],,,,,,62.5,0.0,i,1.0,False,407.10000002384186,25.0,61.0,40.0,267.671937316722,[],"[683, 384]",ColorTask,-11.0,13.0,,,HRV,HRV_0022,2022-11-30 17:51:23
,wl-rdm,21,79185,0.0-6.13-0.13,False,,0.0,17.0,,,,,,,[],,,,,,56.4,0.0,u,0.0,True,112.69999998807907,7.0,61.0,40.0,340.1623009951004,[],"[683, 384]",ColorTask,-10.0,14.0,,,HRV,HRV_0022,2022-11-30 17:51:23
,wl-rdm,22,80616,0.0-6.14-0.14,False,,0.0,18.0,,,,,,,[],,,,,,53.2,0.0,i,1.0,False,139.49999994039536,9.0,61.0,40.0,200.23631380242762,[],"[683, 384]",ColorTask,-11.0,15.0,,,HRV,HRV_0022,2022-11-30 17:51:23
,wl-rdm,23,81997,0.0-6.15-0.15,True,too_early ,0.0,18.0,,,,,,,[],,,,,,56.4,0.0,i,1.0,False,45.799999952316284,3.0,61.0,40.0,258.39863045037777,[],"[683, 384]",ColorTask,-12.0,16.0,,,HRV,HRV_0022,2022-11-30 17:51:23
,wl-rdm,24,83696,0.0-6.16-0.16,False,,0.0,19.0,,,,,,,[],,,,,,87.9,1.0,i,1.0,True,288.80000001192093,18.0,61.0,40.0,329.63595916832446,[],"[683, 384]",ColorTask,-11.0,17.0,,,HRV,HRV_0022,2022-11-30 17:51:23
,wl-rdm,25,85299,0.0-6.17-0.17,False,,0.0,20.0,,,,,,,[],,,,,,87.9,1.0,i,1.0,True,325.30000001192093,20.0,61.0,40.0,215.55493346216682,[],"[683, 384]",ColorTask,-10.0,18.0,,,HRV,HRV_0022,2022-11-30 17:51:23
,wl-rdm,26,87045,0.0-6.18-0.18,False,,0.0,21.0,,,,,,,[],,,,,,50.0,1.0,u,0.0,False,272.0,17.0,61.0,40.0,383.52435186385117,[],"[683, 384]",ColorTask,-11.0,19.0,,,HRV,HRV_0022,2022-11-30 17:51:23
,wl-rdm,27,88674,0.0-6.19-0.19,False,,0.0,22.0,,,,,,,[],,,,,,62.5,1.0,i,1.0,True,277.49999994039536,17.0,61.0,40.0,299.8050861896442,[],"[683, 384]",ColorTask,-10.0,20.0,,,HRV,HRV_0022,2022-11-30 17:51:23
,wl-rdm,28,90389,0.0-6.20-0.20,False,,0.0,23.0,,,,,,,[],,,,,,73.6,0.0,i,1.0,False,288.2999999523163,18.0,61.0,40.0,333.02563991003683,[],"[683, 384]",ColorTask,-11.0,21.0,,,HRV,HRV_0022,2022-11-30 17:51:23
,wl-rdm,29,92054,0.0-6.21-0.21,False,,0.0,24.0,,,,,,,[],,,,,,50.0,0.0,u,0.0,True,321.5,20.0,61.0,40.0,261.5293183860219,[],"[683, 384]",ColorTask,-10.0,22.0,,,HRV,HRV_0022,2022-11-30 17:51:23
,wl-rdm,30,93719,0.0-6.22-0.22,False,,0.0,25.0,,,,,,,[],,,,,,50.0,0.0,i,1.0,False,328.39999997615814,20.0,61.0,40.0,266.1339101675922,[],"[683, 384]",ColorTask,-11.0,23.0,,,HRV,HRV_0022,2022-11-30 17:51:23
,wl-rdm,31,95401,0.0-6.23-0.23,False,,0.0,26.0,,,,,,,[],,,,,,62.5,0.0,u,0.0,True,246.0999999642372,15.0,61.0,40.0,362.50947822453685,[],"[683, 384]",ColorTask,-10.0,24.0,,,HRV,HRV_0022,2022-11-30 17:51:23
,wl-rdm,32,96850,0.0-6.24-0.24,False,,0.0,27.0,,,,,,,[],,,,,,56.4,0.0,i,1.0,False,120.89999997615814,8.0,61.0,40.0,232.11398654695643,[],"[683, 384]",ColorTask,-11.0,25.0,,,HRV,HRV_0022,2022-11-30 17:51:23
,wl-rdm,33,98248,0.0-6.25-0.25,True,too_early ,0.0,27.0,,,,,,,[],,,,,,53.2,0.0,u,0.0,True,32.69999998807907,2.0,61.0,40.0,290.36520177982925,[],"[683, 384]",ColorTask,-10.0,26.0,,,HRV,HRV_0022,2022-11-30 17:51:23
,wl-rdm,34,99730,0.0-6.26-0.26,False,,0.0,28.0,,,,,,,[],,,,,,50.0,1.0,i,1.0,True,185.19999998807907,11.0,61.0,40.0,227.13347054954696,[],"[683, 384]",ColorTask,-9.0,27.0,,,HRV,HRV_0022,2022-11-30 17:51:23
,wl-rdm,35,101362,0.0-6.27-0.27,False,,0.0,29.0,,,,,,,[],,,,,,53.2,1.0,u,0.0,False,350.69999998807907,21.0,61.0,40.0,212.44521673795418,[],"[683, 384]",ColorTask,-10.0,28.0,,,HRV,HRV_0022,2022-11-30 17:51:23
,wl-rdm,36,102729,0.0-6.28-0.28,True,too_early ,0.0,29.0,,,,,,,[],,,,,,53.2,1.0,i,,,830.0,0.0,61.0,40.0,382.68486701657724,[],"[683, 384]",ColorTask,-11.0,29.0,,,HRV,HRV_0022,2022-11-30 17:51:23
,wl-rdm,37,104109,0.0-6.29-0.29,True,too_early ,0.0,29.0,,,,,,,[],,,,,,50.0,0.0,i,,,846.5,0.0,61.0,40.0,342.69383023659964,[],"[683, 384]",ColorTask,-12.0,30.0,,,HRV,HRV_0022,2022-11-30 17:51:23
,wl-rdm,38,105910,0.0-6.30-0.30,False,,0.0,30.0,,,,,,,[],,,,,,73.6,1.0,u,0.0,False,519.1000000238419,30.0,61.0,40.0,203.9956476276917,[],"[683, 384]",ColorTask,-13.0,31.0,,,HRV,HRV_0022,2022-11-30 17:51:23
,wl-rdm,39,107556,0.0-6.31-0.31,False,,0.0,31.0,,,,,,,[],,,,,,50.0,0.0,u,0.0,True,345.4000000357628,21.0,61.0,40.0,247.48843057027216,[],"[683, 384]",ColorTask,-12.0,32.0,,,HRV,HRV_0022,2022-11-30 17:51:23
,wl-rdm,40,108906,0.0-6.32-0.32,True,too_early ,0.0,31.0,,,,,,,[],,,,,,56.4,1.0,i,,,814.1000000238419,0.0,61.0,40.0,379.6257313693361,[],"[683, 384]",ColorTask,-13.0,33.0,,,HRV,HRV_0022,2022-11-30 17:51:23
,wl-rdm,41,110454,0.0-6.33-0.33,False,,0.0,32.0,,,,,,,[],,,,,,87.9,0.0,i,1.0,False,247.60000002384186,15.0,61.0,40.0,224.32727571815397,[],"[683, 384]",ColorTask,-14.0,34.0,,,HRV,HRV_0022,2022-11-30 17:51:23
,wl-rdm,42,111986,0.0-6.34-0.34,False,,0.0,33.0,,,,,,,[],,,,,,56.4,0.0,i,1.0,False,230.0,14.0,61.0,40.0,232.30006025493,[],"[683, 384]",ColorTask,-15.0,35.0,,,HRV,HRV_0022,2022-11-30 17:51:23
,wl-rdm,43,113451,0.0-6.35-0.35,False,,0.0,34.0,,,,,,,[],,,,,,53.2,1.0,i,1.0,True,102.5,7.0,61.0,40.0,268.0311724031929,[],"[683, 384]",ColorTask,-14.0,36.0,,,HRV,HRV_0022,2022-11-30 17:51:23
,wl-rdm,44,115082,0.0-6.36-0.36,False,,0.0,35.0,,,,,,,[],,,,,,50.0,0.0,i,1.0,False,291.69999998807907,18.0,61.0,40.0,272.97697732243705,[],"[683, 384]",ColorTask,-15.0,37.0,,,HRV,HRV_0022,2022-11-30 17:51:23
,wl-rdm,45,116148,0.0-6.37-0.37,True,too_early ,0.0,35.0,,,,,,,[],,,,,,53.2,1.0,i,,,515.6999999880791,0.0,61.0,40.0,354.49410443506076,[],"[683, 384]",ColorTask,-16.0,38.0,,,HRV,HRV_0022,2022-11-30 17:51:23
,wl-rdm,46,117597,0.0-6.38-0.38,True,too_early ,0.0,35.0,,,,,,,[],,,,,,62.5,0.0,i,1.0,False,22.30000001192093,2.0,61.0,40.0,338.3478343632348,[],"[683, 384]",ColorTask,-17.0,39.0,,,HRV,HRV_0022,2022-11-30 17:51:23
,wl-rdm,47,119362,0.0-6.39-0.39,False,,0.0,36.0,,,,,,,[],,,,,,56.4,1.0,i,1.0,True,429.80000001192093,26.0,61.0,40.0,252.41976736684958,[],"[683, 384]",ColorTask,-16.0,40.0,,,HRV,HRV_0022,2022-11-30 17:51:23
,wl-rdm,48,121028,0.0-6.40-0.40,False,,0.0,37.0,,,,,,,[],,,,,,73.6,1.0,i,1.0,True,345.0,21.0,61.0,40.0,240.02756766858698,[],"[683, 384]",ColorTask,-15.0,41.0,,,HRV,HRV_0022,2022-11-30 17:51:23
,wl-rdm,49,122892,0.0-6.41-0.41,False,,0.0,38.0,,,,,,,[],,,,,,56.4,1.0,u,0.0,False,400.5999999642372,25.0,61.0,40.0,387.22731537990296,[],"[683, 384]",ColorTask,-16.0,42.0,,,HRV,HRV_0022,2022-11-30 17:51:23
,wl-rdm,50,124840,0.0-6.42-0.42,False,,0.0,39.0,,,,,,,[],,,,,,87.9,1.0,u,0.0,False,471.69999998807907,29.0,61.0,40.0,390.01853598708766,[],"[683, 384]",ColorTask,-17.0,43.0,,,HRV,HRV_0022,2022-11-30 17:51:23
,wl-rdm,51,126405,0.0-6.43-0.43,False,,0.0,40.0,,,,,,,[],,,,,,62.5,1.0,i,1.0,True,188.69999998807907,11.0,61.0,40.0,313.6336524320402,[],"[683, 384]",ColorTask,-16.0,44.0,,,HRV,HRV_0022,2022-11-30 17:51:23
,wl-rdm,52,128952,0.0-6.44-0.44,False,,0.0,41.0,,,,,,,[],,,,,,87.9,1.0,i,1.0,True,1180.199999988079,71.0,61.0,40.0,279.60689401597193,[],"[683, 384]",ColorTask,-15.0,45.0,,,HRV,HRV_0022,2022-11-30 17:51:23
,wl-rdm,53,130383,0.0-6.45-0.45,True,too_early ,0.0,41.0,,,,,,,[],,,,,,53.2,0.0,i,1.0,False,89.40000003576279,6.0,61.0,40.0,279.80375302044547,[],"[683, 384]",ColorTask,-16.0,46.0,,,HRV,HRV_0022,2022-11-30 17:51:23
,wl-rdm,54,132481,0.0-6.46-0.46,False,,0.0,42.0,,,,,,,[],,,,,,62.5,1.0,u,0.0,False,639.5999999642372,39.0,61.0,40.0,379.5910581184095,[],"[683, 384]",ColorTask,-17.0,47.0,,,HRV,HRV_0022,2022-11-30 17:51:23
,wl-rdm,55,133996,0.0-6.47-0.47,True,too_early ,0.0,42.0,,,,,,,[],,,,,,73.6,1.0,i,1.0,True,34.60000002384186,2.0,61.0,40.0,205.91673653810852,[],"[683, 384]",ColorTask,-16.0,48.0,,,HRV,HRV_0022,2022-11-30 17:51:23
,wl-rdm,56,135711,0.0-6.48-0.48,False,,0.0,43.0,,,,,,,[],,,,,,73.6,0.0,i,1.0,False,271.39999997615814,17.0,61.0,40.0,355.211358486912,[],"[683, 384]",ColorTask,-17.0,49.0,,,HRV,HRV_0022,2022-11-30 17:51:23
,wl-rdm,57,137448,0.0-6.49-0.49,False,,0.0,44.0,,,,,,,[],,,,,,73.6,1.0,u,0.0,False,310.0,19.0,61.0,40.0,341.3242161375082,[],"[683, 384]",ColorTask,-18.0,50.0,,,HRV,HRV_0022,2022-11-30 17:51:23
,wl-rdm,58,139359,0.0-6.50-0.50,False,,0.0,45.0,,,,,,,[],,,,,,62.5,1.0,u,0.0,False,474.9000000357628,29.0,61.0,40.0,355.71872160705414,[],"[683, 384]",ColorTask,-19.0,51.0,,,HRV,HRV_0022,2022-11-30 17:51:23
,wl-rdm,59,141089,0.0-6.51-0.51,False,,0.0,46.0,,,,,,,[],,,,,,53.2,1.0,i,1.0,True,301.69999998807907,18.0,61.0,40.0,334.67083924845747,[],"[683, 384]",ColorTask,-18.0,52.0,,,HRV,HRV_0022,2022-11-30 17:51:23
,wl-rdm,60,142743,0.0-6.52-0.52,False,,0.0,47.0,,,,,,,[],,,,,,50.0,1.0,i,1.0,True,359.19999998807907,22.0,61.0,40.0,209.08294378418458,[],"[683, 384]",ColorTask,-17.0,53.0,,,HRV,HRV_0022,2022-11-30 17:51:23
,wl-rdm,61,144537,0.0-6.53-0.53,False,,0.0,48.0,,,,,,,[],,,,,,56.4,1.0,i,1.0,True,413.69999998807907,25.0,61.0,40.0,309.9391937356379,[],"[683, 384]",ColorTask,-16.0,54.0,,,HRV,HRV_0022,2022-11-30 17:51:23
,wl-rdm,62,146318,0.0-6.54-0.54,False,,0.0,49.0,,,,,,,[],,,,,,56.4,1.0,u,0.0,False,320.30000001192093,20.0,61.0,40.0,377.9546350626074,[],"[683, 384]",ColorTask,-17.0,55.0,,,HRV,HRV_0022,2022-11-30 17:51:23
,wl-rdm,63,148185,0.0-6.55-0.55,False,,0.0,50.0,,,,,,,[],,,,,,56.4,1.0,i,1.0,True,429.3000000715256,26.0,61.0,40.0,373.444683989365,[],"[683, 384]",ColorTask,-16.0,56.0,,,HRV,HRV_0022,2022-11-30 17:51:23
,wl-rdm,64,150214,0.0-6.56-0.56,False,,0.0,51.0,,,,,,,[],,,,,,53.2,1.0,i,1.0,True,696.1999999880791,42.0,61.0,40.0,264.1532621956316,[],"[683, 384]",ColorTask,-15.0,57.0,,,HRV,HRV_0022,2022-11-30 17:51:23
,wl-rdm,65,152012,0.0-6.57-0.57,False,,0.0,52.0,,,,,,,[],,,,,,53.2,0.0,u,0.0,True,477.2000000476837,29.0,61.0,40.0,234.19733085191984,[],"[683, 384]",ColorTask,-14.0,58.0,,,HRV,HRV_0022,2022-11-30 17:51:23
,wl-rdm,66,154193,0.0-6.58-0.58,False,,0.0,53.0,,,,,,,[],,,,,,62.5,1.0,u,0.0,False,709.0999999642372,43.0,61.0,40.0,386.7007815347766,[],"[683, 384]",ColorTask,-15.0,59.0,,,HRV,HRV_0022,2022-11-30 17:51:23
,wl-rdm,67,156277,0.0-6.59-0.59,False,,0.0,54.0,,,,,,,[],,,,,,73.6,0.0,i,1.0,False,637.2000000476837,39.0,61.0,40.0,357.43485323029756,[],"[683, 384]",ColorTask,-16.0,60.0,,,HRV,HRV_0022,2022-11-30 17:51:23
,wl-rdm,68,158256,0.0-6.60-0.60,False,,0.0,55.0,,,,,,,[],,,,,,50.0,1.0,u,0.0,False,691.6999999284744,42.0,61.0,40.0,202.6056536548471,[],"[683, 384]",ColorTask,-17.0,61.0,,,HRV,HRV_0022,2022-11-30 17:51:23
,wl-rdm,69,160237,0.0-6.61-0.61,False,,0.0,56.0,,,,,,,[],,,,,,53.2,0.0,i,1.0,False,587.6000000238419,35.0,61.0,40.0,321.8533568529193,[],"[683, 384]",ColorTask,-18.0,62.0,,,HRV,HRV_0022,2022-11-30 17:51:23
,wl-rdm,70,162252,0.0-6.62-0.62,False,,0.0,57.0,,,,,,,[],,,,,,50.0,1.0,i,1.0,True,622.8999999761581,38.0,61.0,40.0,301.97279509426335,[],"[683, 384]",ColorTask,-17.0,63.0,,,HRV,HRV_0022,2022-11-30 17:51:23
,wl-rdm,71,164234,0.0-6.63-0.63,False,,0.0,58.0,,,,,,,[],,,,,,87.9,0.0,u,0.0,True,641.3999999761581,38.0,61.0,40.0,267.2691426597659,[],"[683, 384]",ColorTask,-16.0,64.0,,,HRV,HRV_0022,2022-11-30 17:51:23
,wl-rdm,72,166151,0.0-6.64-0.64,False,,0.0,59.0,,,,,,,[],,,,,,73.6,1.0,i,1.0,True,603.6000000238419,37.0,61.0,40.0,221.78113513619277,[],"[683, 384]",ColorTask,-15.0,65.0,,,HRV,HRV_0022,2022-11-30 17:51:23
,wl-rdm,73,167932,0.0-6.65-0.65,False,,0.0,60.0,,,,,,,[],,,,,,87.9,1.0,u,0.0,False,404.89999997615814,25.0,61.0,40.0,299.47745052371783,[],"[683, 384]",ColorTask,-16.0,66.0,,,HRV,HRV_0022,2022-11-30 17:51:23
,wl-rdm,74,169895,0.0-6.66-0.66,False,,0.0,61.0,,,,,,,[],,,,,,87.9,0.0,i,1.0,False,587.6000000238419,36.0,61.0,40.0,314.63732022328026,[],"[683, 384]",ColorTask,-17.0,67.0,,,HRV,HRV_0022,2022-11-30 17:51:23
,wl-rdm,75,171893,0.0-6.67-0.67,False,,0.0,62.0,,,,,,,[],,,,,,53.2,1.0,u,0.0,False,587.6000000238419,36.0,61.0,40.0,304.1855991437925,[],"[683, 384]",ColorTask,-18.0,68.0,,,HRV,HRV_0022,2022-11-30 17:51:23
,wl-rdm,76,173809,0.0-6.68-0.68,False,,0.0,63.0,,,,,,,[],,,,,,50.0,1.0,i,1.0,True,514.0999999642372,31.0,61.0,40.0,330.20288351719535,[],"[683, 384]",ColorTask,-17.0,69.0,,,HRV,HRV_0022,2022-11-30 17:51:23
,wl-rdm,77,175823,0.0-6.69-0.69,False,,0.0,64.0,,,,,,,[],,,,,,56.4,0.0,u,0.0,True,691.0999999642372,42.0,61.0,40.0,258.1849071686163,[],"[683, 384]",ColorTask,-16.0,70.0,,,HRV,HRV_0022,2022-11-30 17:51:23
,wl-rdm,78,177720,0.0-6.70-0.70,False,,0.0,65.0,,,,,,,[],,,,,,53.2,1.0,i,1.0,True,594.6000000238419,36.0,61.0,40.0,220.2915046133564,[],"[683, 384]",ColorTask,-15.0,71.0,,,HRV,HRV_0022,2022-11-30 17:51:23
,wl-rdm,79,179902,0.0-6.71-0.71,False,,0.0,66.0,,,,,,,[],,,,,,73.6,1.0,u,0.0,False,846.9000000357628,51.0,61.0,40.0,266.59344659244744,[],"[683, 384]",ColorTask,-16.0,72.0,,,HRV,HRV_0022,2022-11-30 17:51:23
,wl-rdm,80,181617,0.0-6.72-0.72,False,,0.0,67.0,,,,,,,[],,,,,,73.6,1.0,i,1.0,True,339.80000001192093,21.0,61.0,40.0,287.27747543787166,[],"[683, 384]",ColorTask,-15.0,73.0,,,HRV,HRV_0022,2022-11-30 17:51:23
,wl-rdm,81,183731,0.0-6.73-0.73,False,,0.0,68.0,,,,,,,[],,,,,,62.5,0.0,i,1.0,False,830.5999999642372,50.0,61.0,40.0,211.59569847518355,[],"[683, 384]",ColorTask,-16.0,74.0,,,HRV,HRV_0022,2022-11-30 17:51:23
,wl-rdm,82,185696,0.0-6.74-0.74,False,,0.0,69.0,,,,,,,[],,,,,,87.9,0.0,u,0.0,True,565.1999999880791,34.0,61.0,40.0,331.44324334113026,[],"[683, 384]",ColorTask,-15.0,75.0,,,HRV,HRV_0022,2022-11-30 17:51:23
,wl-rdm,83,187597,0.0-6.75-0.75,False,,0.0,70.0,,,,,,,[],,,,,,87.9,1.0,i,1.0,True,609.0,37.0,61.0,40.0,206.5533801778135,[],"[683, 384]",ColorTask,-14.0,76.0,,,HRV,HRV_0022,2022-11-30 17:51:23
,wl-rdm,84,189709,0.0-6.76-0.76,False,,0.0,71.0,,,,,,,[],,,,,,53.2,0.0,u,0.0,True,359.7999999523163,22.0,61.0,40.0,306.2668015595192,[],"[683, 384]",ColorTask,-13.0,77.0,,,HRV,HRV_0022,2022-11-30 17:51:23
,wl-rdm,85,191710,0.0-6.77-0.77,False,,0.0,72.0,,,,,,,[],,,,,,73.6,1.0,i,1.0,True,561.6999999880791,34.0,61.0,40.0,373.13492723376635,[],"[683, 384]",ColorTask,-12.0,78.0,,,HRV,HRV_0022,2022-11-30 17:51:23
,wl-rdm,86,193808,0.0-6.78-0.78,False,,0.0,73.0,,,,,,,[],,,,,,62.5,1.0,u,0.0,False,721.9000000357628,44.0,61.0,40.0,264.51709702158746,[],"[683, 384]",ColorTask,-13.0,79.0,,,HRV,HRV_0022,2022-11-30 17:51:23
,wl-rdm,87,195819,0.0-6.79-0.79,False,,0.0,74.0,,,,,,,[],,,,,,62.5,1.0,i,1.0,True,576.1000000834465,34.0,61.0,40.0,382.11386542365324,[],"[683, 384]",ColorTask,-12.0,80.0,,,HRV,HRV_0022,2022-11-30 17:51:23
,wl-rdm,88,197734,0.0-6.80-0.80,False,,0.0,75.0,,,,,,,[],,,,,,56.4,0.0,i,1.0,False,479.60000002384186,29.0,61.0,40.0,357.2504445734779,[],"[683, 384]",ColorTask,-13.0,81.0,,,HRV,HRV_0022,2022-11-30 17:51:23
,wl-rdm,89,199749,0.0-6.81-0.81,False,,0.0,76.0,,,,,,,[],,,,,,56.4,0.0,u,0.0,True,725.8000000119209,44.0,61.0,40.0,200.3670234195503,[],"[683, 384]",ColorTask,-12.0,82.0,,,HRV,HRV_0022,2022-11-30 17:51:23
,wl-rdm,90,201701,0.0-6.82-0.82,False,,0.0,77.0,,,,,,,[],,,,,,62.5,0.0,u,0.0,True,604.0,37.0,61.0,40.0,256.1290960612589,[],"[683, 384]",ColorTask,-11.0,83.0,,,HRV,HRV_0022,2022-11-30 17:51:23
,wl-rdm,91,203678,0.0-6.83-0.83,False,,0.0,78.0,,,,,,,[],,,,,,56.4,1.0,u,0.0,False,693.6000000238419,42.0,61.0,40.0,202.91481791424326,[],"[683, 384]",ColorTask,-12.0,84.0,,,HRV,HRV_0022,2022-11-30 17:51:23
,wl-rdm,92,205610,0.0-6.84-0.84,False,,0.0,79.0,,,,,,,[],,,,,,62.5,0.0,i,1.0,False,641.7000000476837,39.0,61.0,40.0,212.4683225614585,[],"[683, 384]",ColorTask,-13.0,85.0,,,HRV,HRV_0022,2022-11-30 17:51:23
,wl-rdm,93,207757,0.0-6.85-0.85,False,,0.0,80.0,,,,,,,[],,,,,,73.6,1.0,i,1.0,True,842.8000000119209,51.0,61.0,40.0,223.64129374638918,[],"[683, 384]",ColorTask,-12.0,86.0,,,HRV,HRV_0022,2022-11-30 17:51:23
,wl-rdm,94,209672,0.0-6.86-0.86,False,,0.0,81.0,,,,,,,[],,,,,,87.9,1.0,u,0.0,False,621.6999999880791,38.0,61.0,40.0,214.237304233494,[],"[683, 384]",ColorTask,-13.0,87.0,,,HRV,HRV_0022,2022-11-30 17:51:23
,wl-rdm,95,211804,0.0-6.87-0.87,False,,0.0,82.0,,,,,,,[],,,,,,53.2,1.0,i,1.0,True,787.0,48.0,61.0,40.0,252.84095669077894,[],"[683, 384]",ColorTask,-12.0,88.0,,,HRV,HRV_0022,2022-11-30 17:51:23
,wl-rdm,96,214085,0.0-6.88-0.88,False,,0.0,83.0,,,,,,,[],,,,,,62.5,0.0,i,1.0,False,819.5999999642372,50.0,61.0,40.0,380.33074638913763,[],"[683, 384]",ColorTask,-13.0,89.0,,,HRV,HRV_0022,2022-11-30 17:51:23
,wl-rdm,97,215950,0.0-6.89-0.89,False,,0.0,84.0,,,,,,,[],,,,,,62.5,0.0,u,0.0,True,498.2000000476837,30.0,61.0,40.0,302.3723384698217,[],"[683, 384]",ColorTask,-12.0,90.0,,,HRV,HRV_0022,2022-11-30 17:51:23
,wl-rdm,98,218314,0.0-6.90-0.90,False,,0.0,85.0,,,,,,,[],,,,,,73.6,0.0,i,1.0,False,1019.1000000238419,62.0,61.0,40.0,254.91222914967443,[],"[683, 384]",ColorTask,-13.0,91.0,,,HRV,HRV_0022,2022-11-30 17:51:23
,wl-rdm,99,220278,0.0-6.91-0.91,False,,0.0,86.0,,,,,,,[],,,,,,53.2,1.0,u,0.0,False,513.3000000715256,31.0,61.0,40.0,374.96670351756313,[],"[683, 384]",ColorTask,-14.0,92.0,,,HRV,HRV_0022,2022-11-30 17:51:23
,wl-rdm,100,222276,0.0-6.92-0.92,False,,0.0,87.0,,,,,,,[],,,,,,62.5,1.0,i,1.0,True,700.0999999642372,42.0,61.0,40.0,220.96200309164448,[],"[683, 384]",ColorTask,-13.0,93.0,,,HRV,HRV_0022,2022-11-30 17:51:23
,wl-rdm,101,224425,0.0-6.93-0.93,False,,0.0,88.0,,,,,,,[],,,,,,73.6,0.0,u,0.0,True,793.0000000596046,44.0,61.0,40.0,287.0651059206193,[],"[683, 384]",ColorTask,-12.0,94.0,,,HRV,HRV_0022,2022-11-30 17:51:23
,wl-rdm,102,226340,0.0-6.94-0.94,False,,0.0,89.0,,,,,,,[],,,,,,56.4,0.0,i,1.0,False,585.1999999880791,36.0,61.0,40.0,251.56253019903605,[],"[683, 384]",ColorTask,-13.0,95.0,,,HRV,HRV_0022,2022-11-30 17:51:23
,wl-rdm,103,227807,0.0-6.95-0.95,False,,0.0,90.0,,,,,,,[],,,,,,87.9,1.0,u,0.0,False,178.99999994039536,9.0,61.0,40.0,204.9235587355845,[],"[683, 384]",ColorTask,-14.0,96.0,,,HRV,HRV_0022,2022-11-30 17:51:23
,wl-rdm,104,229388,0.0-6.96-0.96,False,,0.0,91.0,,,,,,,[],,,,,,73.6,0.0,i,1.0,False,174.80000001192093,11.0,61.0,40.0,325.41662658201034,[],"[683, 384]",ColorTask,-15.0,97.0,,,HRV,HRV_0022,2022-11-30 17:51:23
,wl-rdm,105,230652,0.0-6.97-0.97,True,too_early ,0.0,91.0,,,,,,,[],,,,,,56.4,1.0,i,,,722.1999999880791,0.0,61.0,40.0,234.2119448587544,[],"[683, 384]",ColorTask,-16.0,98.0,,,HRV,HRV_0022,2022-11-30 17:51:23
,wl-rdm,106,232401,0.0-6.98-0.98,False,,0.0,92.0,,,,,,,[],,,,,,87.9,0.0,u,0.0,True,464.0,28.0,61.0,40.0,202.18375208637357,[],"[683, 384]",ColorTask,-15.0,99.0,,,HRV,HRV_0022,2022-11-30 17:51:23
,wl-rdm,107,234581,0.0-6.99-0.99,False,,0.0,93.0,,,,,,,[],,,,,,53.2,0.0,u,0.0,True,853.6999999880791,52.0,61.0,40.0,244.02992802435972,[],"[683, 384]",ColorTask,-14.0,100.0,,,HRV,HRV_0022,2022-11-30 17:51:23
,wl-rdm,108,236197,0.0-6.100-0.100,False,,0.0,94.0,,,,,,,[],,,,,,50.0,0.0,u,0.0,True,180.5999999642372,11.0,61.0,40.0,333.7558582359189,[],"[683, 384]",ColorTask,-13.0,101.0,,,HRV,HRV_0022,2022-11-30 17:51:23
,wl-rdm,109,237845,0.0-6.101-0.101,False,,0.0,95.0,,,,,,,[],,,,,,73.6,1.0,i,1.0,True,227.80000001192093,14.0,61.0,40.0,344.06499136451157,[],"[683, 384]",ColorTask,-12.0,102.0,,,HRV,HRV_0022,2022-11-30 17:51:23
,wl-rdm,110,239911,0.0-6.102-0.102,False,,0.0,96.0,,,,,,,[],,,,,,62.5,0.0,i,1.0,False,747.6999999880791,45.0,61.0,40.0,235.364442611996,[],"[683, 384]",ColorTask,-13.0,103.0,,,HRV,HRV_0022,2022-11-30 17:51:23
,wl-rdm,111,241808,0.0-6.103-0.103,False,,0.0,97.0,,,,,,,[],,,,,,56.4,0.0,u,0.0,True,478.39999997615814,29.0,61.0,40.0,346.23571011749493,[],"[683, 384]",ColorTask,-12.0,104.0,,,HRV,HRV_0022,2022-11-30 17:51:23
,wl-rdm,112,244139,0.0-6.104-0.104,False,,0.0,98.0,,,,,,,[],,,,,,53.2,0.0,i,1.0,False,983.3999999761581,59.0,61.0,40.0,275.6323589150542,[],"[683, 384]",ColorTask,-13.0,105.0,,,HRV,HRV_0022,2022-11-30 17:51:23
,wl-rdm,113,246072,0.0-6.105-0.105,False,,0.0,99.0,,,,,,,[],,,,,,73.6,0.0,u,0.0,True,603.6999999880791,37.0,61.0,40.0,246.19843300439027,[],"[683, 384]",ColorTask,-12.0,106.0,,,HRV,HRV_0022,2022-11-30 17:51:23
,wl-rdm,114,248401,0.0-6.106-0.106,False,,0.0,100.0,,,,,,,[],,,,,,53.2,0.0,u,0.0,True,970.1999999880791,59.0,61.0,40.0,281.6170176083078,[],"[683, 384]",ColorTask,-11.0,107.0,,,HRV,HRV_0022,2022-11-30 17:51:23
,wl-rdm,115,250133,0.0-6.107-0.107,False,,0.0,101.0,,,,,,,[],,,,,,50.0,1.0,i,1.0,True,300.30000001192093,18.0,61.0,40.0,359.8909061643699,[],"[683, 384]",ColorTask,-10.0,108.0,,,HRV,HRV_0022,2022-11-30 17:51:23
,wl-rdm,116,251781,0.0-6.108-0.108,False,,0.0,102.0,,,,,,,[],,,,,,62.5,0.0,i,1.0,False,310.5,19.0,61.0,40.0,252.82823722661547,[],"[683, 384]",ColorTask,-11.0,109.0,,,HRV,HRV_0022,2022-11-30 17:51:23
,wl-rdm,117,253846,0.0-6.109-0.109,False,,0.0,103.0,,,,,,,[],,,,,,50.0,0.0,u,0.0,True,611.0000000596046,37.0,61.0,40.0,377.7486042340869,[],"[683, 384]",ColorTask,-10.0,110.0,,,HRV,HRV_0022,2022-11-30 17:51:23
,wl-rdm,118,256061,0.0-6.110-0.110,False,,0.0,104.0,,,,,,,[],,,,,,73.6,0.0,u,0.0,True,753.7999999523163,46.0,61.0,40.0,385.914204730808,[],"[683, 384]",ColorTask,-9.0,111.0,,,HRV,HRV_0022,2022-11-30 17:51:23
,wl-rdm,119,257443,0.0-6.111-0.111,True,too_early ,0.0,104.0,,,,,,,[],,,,,,56.4,1.0,i,,,834.4000000357628,0.0,61.0,40.0,337.4319405628738,[],"[683, 384]",ColorTask,-10.0,112.0,,,HRV,HRV_0022,2022-11-30 17:51:23
,wl-rdm,120,258792,0.0-6.112-0.112,True,too_early ,0.0,104.0,,,,,,,[],,,,,,87.9,0.0,i,1.0,False,24.0,2.0,61.0,40.0,243.95622770163445,[],"[683, 384]",ColorTask,-11.0,113.0,,,HRV,HRV_0022,2022-11-30 17:51:23
,wl-rdm,121,260357,0.0-6.113-0.113,False,,0.0,105.0,,,,,,,[],,,,,,50.0,0.0,i,1.0,False,213.60000002384186,13.0,61.0,40.0,269.9615140021638,[],"[683, 384]",ColorTask,-12.0,114.0,,,HRV,HRV_0022,2022-11-30 17:51:23
,wl-rdm,122,261822,0.0-6.114-0.114,False,,0.0,106.0,,,,,,,[],,,,,,56.4,1.0,u,0.0,False,147.39999997615814,9.0,61.0,40.0,248.57064563945556,[],"[683, 384]",ColorTask,-13.0,115.0,,,HRV,HRV_0022,2022-11-30 17:51:23
,wl-rdm,123,263453,0.0-6.115-0.115,False,,0.0,107.0,,,,,,,[],,,,,,62.5,1.0,i,1.0,True,332.5,20.0,61.0,40.0,228.33911009028355,[],"[683, 384]",ColorTask,-12.0,116.0,,,HRV,HRV_0022,2022-11-30 17:51:23
,wl-rdm,124,265569,0.0-6.116-0.116,False,,0.0,108.0,,,,,,,[],,,,,,56.4,1.0,i,1.0,True,647.0,39.0,61.0,40.0,397.4210554779752,[],"[683, 384]",ColorTask,-11.0,117.0,,,HRV,HRV_0022,2022-11-30 17:51:23
,wl-rdm,125,267366,0.0-6.117-0.117,False,,0.0,109.0,,,,,,,[],,,,,,53.2,0.0,u,0.0,True,337.1999999284744,21.0,61.0,40.0,372.1776345198516,[],"[683, 384]",ColorTask,-10.0,118.0,,,HRV,HRV_0022,2022-11-30 17:51:23
,wl-rdm,126,269115,0.0-6.118-0.118,False,,0.0,110.0,,,,,,,[],,,,,,56.4,1.0,i,1.0,True,281.69999998807907,17.0,61.0,40.0,386.41075413100214,[],"[683, 384]",ColorTask,-9.0,119.0,,,HRV,HRV_0022,2022-11-30 17:51:23
,wl-rdm,127,270664,0.0-6.119-0.119,False,,0.0,111.0,,,,,,,[],,,,,,50.0,1.0,u,0.0,False,109.5,7.0,61.0,40.0,360.4382276154074,[],"[683, 384]",ColorTask,-10.0,120.0,,,HRV,HRV_0022,2022-11-30 17:51:23
,wl-rdm,128,271815,0.0-6.120-0.120,True,too_early ,0.0,111.0,,,,,,,[],,,,,,56.4,0.0,i,,,601.3000000119209,0.0,61.0,40.0,392.38261813518056,[],"[683, 384]",ColorTask,-11.0,121.0,,,HRV,HRV_0022,2022-11-30 17:51:23
,wl-rdm,129,273177,0.0-6.121-0.121,True,too_early ,0.0,111.0,,,,,,,[],,,,,,87.9,0.0,i,,,807.0,0.0,61.0,40.0,362.59000043435515,[],"[683, 384]",ColorTask,-12.0,122.0,,,HRV,HRV_0022,2022-11-30 17:51:23
,wl-rdm,130,274826,0.0-6.122-0.122,False,,0.0,112.0,,,,,,,[],,,,,,56.4,0.0,i,1.0,False,320.89999997615814,20.0,61.0,40.0,238.9575457789785,[],"[683, 384]",ColorTask,-13.0,123.0,,,HRV,HRV_0022,2022-11-30 17:51:23
,wl-rdm,131,276307,0.0-6.123-0.123,False,,0.0,113.0,,,,,,,[],,,,,,87.9,0.0,u,0.0,True,157.30000001192093,10.0,61.0,40.0,266.32274454062485,[],"[683, 384]",ColorTask,-12.0,124.0,,,HRV,HRV_0022,2022-11-30 17:51:23
,wl-rdm,132,278140,0.0-6.124-0.124,False,,0.0,114.0,,,,,,,[],,,,,,50.0,0.0,u,0.0,True,454.10000002384186,28.0,61.0,40.0,291.58181162595594,[],"[683, 384]",ColorTask,-11.0,125.0,,,HRV,HRV_0022,2022-11-30 17:51:23
,wl-rdm,133,280053,0.0-6.125-0.125,False,,0.0,115.0,,,,,,,[],,,,,,87.9,0.0,i,1.0,False,486.89999997615814,30.0,61.0,40.0,347.4586281287775,[],"[683, 384]",ColorTask,-12.0,126.0,,,HRV,HRV_0022,2022-11-30 17:51:23
,wl-html-keyboard-response,134,288897,0.0-7.0-0.0,,,1.0,116.0,,,,,,,,6821.600000023842,1.0,0,,,,,,,,,,,,,,,,,,,,HRV,HRV_0022,2022-11-30 17:51:23
,wl-rdm,135,290660,0.0-8.0-0.0,False,,1.0,117.0,,,,,,,[],,,,,,53.2,0.0,i,1.0,False,430.60000002384186,26.0,61.0,40.0,259.7750309566996,[],"[683, 384]",ColorTask,-13.0,1.0,,,HRV,HRV_0022,2022-11-30 17:51:23
,wl-rdm,136,292608,0.0-8.1-0.1,False,,1.0,118.0,,,,,,,[],,,,,,56.4,0.0,u,0.0,True,539.2999999523163,33.0,61.0,40.0,328.4864686786798,[],"[683, 384]",ColorTask,-12.0,2.0,,,HRV,HRV_0022,2022-11-30 17:51:23
,wl-rdm,137,294406,0.0-8.2-0.2,False,,1.0,119.0,,,,,,,[],,,,,,50.0,0.0,i,1.0,False,439.00000005960464,27.0,61.0,40.0,277.43211999701293,[],"[683, 384]",ColorTask,-13.0,3.0,,,HRV,HRV_0022,2022-11-30 17:51:23
,wl-rdm,138,296123,0.0-8.3-0.3,False,,1.0,120.0,,,,,,,[],,,,,,87.9,0.0,u,0.0,True,428.69999998807907,26.0,61.0,40.0,207.2987745552772,[],"[683, 384]",ColorTask,-12.0,4.0,,,HRV,HRV_0022,2022-11-30 17:51:23
,wl-rdm,139,297652,0.0-8.4-0.4,False,,1.0,121.0,,,,,,,[],,,,,,87.9,1.0,u,0.0,False,136.89999997615814,9.0,61.0,40.0,321.64213945316544,[],"[683, 384]",ColorTask,-13.0,5.0,,,HRV,HRV_0022,2022-11-30 17:51:23
,wl-rdm,140,299201,0.0-8.5-0.5,False,,1.0,122.0,,,,,,,[],,,,,,50.0,1.0,u,0.0,False,112.70000004768372,7.0,61.0,40.0,364.2149533522561,[],"[683, 384]",ColorTask,-14.0,6.0,,,HRV,HRV_0022,2022-11-30 17:51:23
,wl-rdm,141,300901,0.0-8.6-0.6,False,,1.0,123.0,,,,,,,[],,,,,,62.5,0.0,u,0.0,True,337.60000002384186,21.0,61.0,40.0,281.34478590284436,[],"[683, 384]",ColorTask,-13.0,7.0,,,HRV,HRV_0022,2022-11-30 17:51:23
,wl-rdm,142,302664,0.0-8.7-0.7,False,,1.0,124.0,,,,,,,[],,,,,,87.9,0.0,i,1.0,False,461.80000001192093,28.0,61.0,40.0,219.39260447661312,[],"[683, 384]",ColorTask,-14.0,8.0,,,HRV,HRV_0022,2022-11-30 17:51:23
,wl-rdm,143,304297,0.0-8.8-0.8,False,,1.0,125.0,,,,,,,[],,,,,,62.5,1.0,u,0.0,False,290.0999999642372,18.0,61.0,40.0,266.7481928304442,[],"[683, 384]",ColorTask,-15.0,9.0,,,HRV,HRV_0022,2022-11-30 17:51:23
,wl-rdm,144,306062,0.0-8.9-0.9,False,,1.0,126.0,,,,,,,[],,,,,,53.2,1.0,u,0.0,False,337.69999998807907,21.0,61.0,40.0,343.8951028756136,[],"[683, 384]",ColorTask,-16.0,10.0,,,HRV,HRV_0022,2022-11-30 17:51:23
,wl-rdm,145,307760,0.0-8.10-0.10,False,,1.0,127.0,,,,,,,[],,,,,,50.0,0.0,i,1.0,False,370.50000005960464,23.0,61.0,40.0,240.03326476034988,[],"[683, 384]",ColorTask,-17.0,11.0,,,HRV,HRV_0022,2022-11-30 17:51:23
,wl-rdm,146,309541,0.0-8.11-0.11,False,,1.0,128.0,,,,,,,[],,,,,,53.2,0.0,u,0.0,True,371.9000000357628,23.0,61.0,40.0,340.82708255901207,[],"[683, 384]",ColorTask,-16.0,12.0,,,HRV,HRV_0022,2022-11-30 17:51:23
,wl-rdm,147,311225,0.0-8.12-0.12,False,,1.0,129.0,,,,,,,[],,,,,,53.2,0.0,u,0.0,True,327.80000001192093,20.0,61.0,40.0,290.6657252176506,[],"[683, 384]",ColorTask,-15.0,13.0,,,HRV,HRV_0022,2022-11-30 17:51:23
,wl-rdm,148,312854,0.0-8.13-0.13,False,,1.0,130.0,,,,,,,[],,,,,,53.2,0.0,i,1.0,False,211.30000001192093,13.0,61.0,40.0,342.0995454994296,[],"[683, 384]",ColorTask,-16.0,14.0,,,HRV,HRV_0022,2022-11-30 17:51:23
,wl-rdm,149,314188,0.0-8.14-0.14,True,too_early ,1.0,130.0,,,,,,,[],,,,,,53.2,0.0,u,0.0,True,46.60000002384186,3.0,61.0,40.0,211.6674645011614,[],"[683, 384]",ColorTask,-15.0,15.0,,,HRV,HRV_0022,2022-11-30 17:51:23
,wl-rdm,150,315985,0.0-8.15-0.15,False,,1.0,131.0,,,,,,,[],,,,,,73.6,1.0,u,0.0,False,501.19999998807907,30.0,61.0,40.0,201.26873430918718,[],"[683, 384]",ColorTask,-16.0,16.0,,,HRV,HRV_0022,2022-11-30 17:51:23
,wl-rdm,151,317733,0.0-8.16-0.16,False,,1.0,132.0,,,,,,,[],,,,,,73.6,1.0,i,1.0,True,410.49999994039536,25.0,61.0,40.0,263.06625940295953,[],"[683, 384]",ColorTask,-15.0,17.0,,,HRV,HRV_0022,2022-11-30 17:51:23
,wl-rdm,152,319464,0.0-8.17-0.17,False,,1.0,133.0,,,,,,,[],,,,,,73.6,1.0,i,1.0,True,437.2999999523163,27.0,61.0,40.0,201.34515234747826,[],"[683, 384]",ColorTask,-14.0,18.0,,,HRV,HRV_0022,2022-11-30 17:51:23
,wl-rdm,153,320680,0.0-8.18-0.18,True,too_early ,1.0,133.0,,,,,,,[],,,,,,87.9,1.0,i,,,676.7000000476837,0.0,61.0,40.0,205.79383946586395,[],"[683, 384]",ColorTask,-15.0,19.0,,,HRV,HRV_0022,2022-11-30 17:51:23
,wl-rdm,154,321745,0.0-8.19-0.19,True,too_early ,1.0,133.0,,,,,,,[],,,,,,56.4,1.0,i,,,184.5,0.0,61.0,40.0,268.80541146769104,[],"[683, 384]",ColorTask,-16.0,20.0,,,HRV,HRV_0022,2022-11-30 17:51:23
,wl-rdm,155,322828,0.0-8.20-0.20,True,too_early ,1.0,133.0,,,,,,,[],,,,,,62.5,0.0,u,,,421.5999999642372,0.0,61.0,40.0,227.23579311378157,[],"[683, 384]",ColorTask,-17.0,21.0,,,HRV,HRV_0022,2022-11-30 17:51:23
,wl-rdm,156,323894,0.0-8.21-0.21,True,too_early ,1.0,133.0,,,,,,,[],,,,,,87.9,1.0,u,,,10.600000023841858,0.0,61.0,40.0,234.03624737267475,[],"[683, 384]",ColorTask,-18.0,22.0,,,HRV,HRV_0022,2022-11-30 17:51:23
,wl-rdm,157,325276,0.0-8.22-0.22,True,too_early ,1.0,133.0,,,,,,,[],,,,,,50.0,0.0,i,1.0,False,32.299999952316284,2.0,61.0,40.0,281.9530303600859,[],"[683, 384]",ColorTask,-19.0,23.0,,,HRV,HRV_0022,2022-11-30 17:51:23
,wl-rdm,158,326923,0.0-8.23-0.23,False,,1.0,134.0,,,,,,,[],,,,,,53.2,1.0,u,0.0,False,366.7000000476837,22.0,61.0,40.0,209.4871464920101,[],"[683, 384]",ColorTask,-20.0,24.0,,,HRV,HRV_0022,2022-11-30 17:51:23
,wl-rdm,159,328190,0.0-8.24-0.24,True,too_early ,1.0,134.0,,,,,,,[],,,,,,73.6,0.0,i,,,720.8000000119209,0.0,61.0,40.0,397.5253796797934,[],"[683, 384]",ColorTask,-21.0,25.0,,,HRV,HRV_0022,2022-11-30 17:51:23
,wl-rdm,160,329521,0.0-8.25-0.25,True,too_early ,1.0,134.0,,,,,,,[],,,,,,50.0,1.0,i,1.0,True,20.80000001192093,2.0,61.0,40.0,232.71808558453634,[],"[683, 384]",ColorTask,-20.0,26.0,,,HRV,HRV_0022,2022-11-30 17:51:23
,wl-rdm,161,331203,0.0-8.26-0.26,False,,1.0,135.0,,,,,,,[],,,,,,50.0,0.0,u,0.0,True,386.19999998807907,24.0,61.0,40.0,221.35536689214055,[],"[683, 384]",ColorTask,-19.0,27.0,,,HRV,HRV_0022,2022-11-30 17:51:23
,wl-rdm,162,332852,0.0-8.27-0.27,False,,1.0,136.0,,,,,,,[],,,,,,62.5,0.0,u,0.0,True,338.19999998807907,21.0,61.0,40.0,224.54916170235566,[],"[683, 384]",ColorTask,-18.0,28.0,,,HRV,HRV_0022,2022-11-30 17:51:23
,wl-rdm,163,334733,0.0-8.28-0.28,False,,1.0,137.0,,,,,,,[],,,,,,53.2,1.0,u,0.0,False,511.89999997615814,31.0,61.0,40.0,296.92714238131776,[],"[683, 384]",ColorTask,-19.0,29.0,,,HRV,HRV_0022,2022-11-30 17:51:23
,wl-rdm,164,336764,0.0-8.29-0.29,False,,1.0,138.0,,,,,,,[],,,,,,56.4,0.0,u,0.0,True,750.3999999761581,45.0,61.0,40.0,209.04499248346062,[],"[683, 384]",ColorTask,-18.0,30.0,,,HRV,HRV_0022,2022-11-30 17:51:23
,wl-rdm,165,338995,0.0-8.30-0.30,False,,1.0,139.0,,,,,,,[],,,,,,50.0,1.0,i,1.0,True,853.3000000119209,52.0,61.0,40.0,284.9610215720077,[],"[683, 384]",ColorTask,-17.0,31.0,,,HRV,HRV_0022,2022-11-30 17:51:23
,wl-rdm,166,341110,0.0-8.31-0.31,False,,1.0,140.0,,,,,,,[],,,,,,53.2,0.0,i,1.0,False,820.2999999523163,50.0,61.0,40.0,224.6811758827486,[],"[683, 384]",ColorTask,-18.0,32.0,,,HRV,HRV_0022,2022-11-30 17:51:23
,wl-rdm,167,343058,0.0-8.32-0.32,False,,1.0,141.0,,,,,,,[],,,,,,73.6,0.0,u,0.0,True,542.4999999403954,33.0,61.0,40.0,321.6373486346623,[],"[683, 384]",ColorTask,-17.0,33.0,,,HRV,HRV_0022,2022-11-30 17:51:23
,wl-rdm,168,345306,0.0-8.33-0.33,False,,1.0,142.0,,,,,,,[],,,,,,87.9,1.0,i,1.0,True,830.6999999880791,50.0,61.0,40.0,361.50612057002,[],"[683, 384]",ColorTask,-16.0,34.0,,,HRV,HRV_0022,2022-11-30 17:51:23
,wl-rdm,169,347387,0.0-8.34-0.34,False,,1.0,143.0,,,,,,,[],,,,,,62.5,1.0,u,0.0,False,706.5000000596046,43.0,61.0,40.0,298.9419600764007,[],"[683, 384]",ColorTask,-17.0,35.0,,,HRV,HRV_0022,2022-11-30 17:51:23
,wl-rdm,170,349302,0.0-8.35-0.35,False,,1.0,144.0,,,,,,,[],,,,,,73.6,0.0,u,0.0,True,531.8000000119209,32.0,61.0,40.0,302.23514610585886,[],"[683, 384]",ColorTask,-16.0,36.0,,,HRV,HRV_0022,2022-11-30 17:51:23
,wl-rdm,171,351284,0.0-8.36-0.36,False,,1.0,145.0,,,,,,,[],,,,,,73.6,0.0,u,0.0,True,544.5,33.0,61.0,40.0,352.30095870002543,[],"[683, 384]",ColorTask,-15.0,37.0,,,HRV,HRV_0022,2022-11-30 17:51:23
,wl-rdm,172,353265,0.0-8.37-0.37,False,,1.0,146.0,,,,,,,[],,,,,,50.0,0.0,i,1.0,False,692.6000000238419,42.0,61.0,40.0,201.24970679166256,[],"[683, 384]",ColorTask,-16.0,38.0,,,HRV,HRV_0022,2022-11-30 17:51:23
,wl-rdm,173,355163,0.0-8.38-0.38,False,,1.0,147.0,,,,,,,[],,,,,,87.9,0.0,u,0.0,True,554.7000000476837,34.0,61.0,40.0,257.3418895319901,[],"[683, 384]",ColorTask,-15.0,39.0,,,HRV,HRV_0022,2022-11-30 17:51:23
,wl-rdm,174,357194,0.0-8.39-0.39,False,,1.0,148.0,,,,,,,[],,,,,,87.9,0.0,i,1.0,False,670.4999999403954,41.0,61.0,40.0,302.1664953515635,[],"[683, 384]",ColorTask,-16.0,40.0,,,HRV,HRV_0022,2022-11-30 17:51:23
,wl-rdm,175,361641,0.0-8.40-0.40,True,RT_timeout ,1.0,148.0,,,,,,,[],,,,,,62.5,0.0,,,,,181.0,61.0,40.0,344.17482123880706,[],"[683, 384]",ColorTask,-17.0,41.0,,,HRV,HRV_0022,2022-11-30 17:51:23
,wl-rdm,176,364021,0.0-8.41-0.41,False,,1.0,149.0,,,,,,,[],,,,,,87.9,0.0,i,1.0,False,1044.4000000357628,63.0,61.0,40.0,281.3417220464357,[],"[683, 384]",ColorTask,-18.0,42.0,,,HRV,HRV_0022,2022-11-30 17:51:23
,wl-rdm,177,365636,0.0-8.42-0.42,False,,1.0,150.0,,,,,,,[],,,,,,50.0,1.0,u,0.0,False,281.10000002384186,17.0,61.0,40.0,252.52686059288908,[],"[683, 384]",ColorTask,-19.0,43.0,,,HRV,HRV_0022,2022-11-30 17:51:23
,wl-rdm,178,367268,0.0-8.43-0.43,False,,1.0,151.0,,,,,,,[],,,,,,53.2,1.0,u,0.0,False,261.4000000357628,16.0,61.0,40.0,297.8475366991686,[],"[683, 384]",ColorTask,-20.0,44.0,,,HRV,HRV_0022,2022-11-30 17:51:23
,wl-rdm,179,368649,0.0-8.44-0.44,True,too_early ,1.0,151.0,,,,,,,[],,,,,,62.5,0.0,u,0.0,True,77.59999996423721,5.0,61.0,40.0,217.91436618233914,[],"[683, 384]",ColorTask,-19.0,45.0,,,HRV,HRV_0022,2022-11-30 17:51:23
,wl-rdm,180,369982,0.0-8.45-0.45,True,too_early ,1.0,151.0,,,,,,,[],,,,,,62.5,0.0,i,1.0,False,44.19999998807907,3.0,61.0,40.0,205.22241931081828,[],"[683, 384]",ColorTask,-20.0,46.0,,,HRV,HRV_0022,2022-11-30 17:51:23
,wl-rdm,181,371780,0.0-8.46-0.46,False,,1.0,152.0,,,,,,,[],,,,,,56.4,1.0,i,1.0,True,491.5999999642372,30.0,61.0,40.0,221.29129116554762,[],"[683, 384]",ColorTask,-19.0,47.0,,,HRV,HRV_0022,2022-11-30 17:51:23
,wl-rdm,182,373595,0.0-8.47-0.47,False,,1.0,153.0,,,,,,,[],,,,,,73.6,0.0,u,0.0,True,470.69999998807907,29.0,61.0,40.0,243.80286065679425,[],"[683, 384]",ColorTask,-18.0,48.0,,,HRV,HRV_0022,2022-11-30 17:51:23
,wl-rdm,183,375543,0.0-8.48-0.48,False,,1.0,154.0,,,,,,,[],,,,,,50.0,0.0,i,1.0,False,613.1000000238419,37.0,61.0,40.0,250.51417504969692,[],"[683, 384]",ColorTask,-19.0,49.0,,,HRV,HRV_0022,2022-11-30 17:51:23
,wl-rdm,184,377741,0.0-8.49-0.49,False,,1.0,155.0,,,,,,,[],,,,,,53.2,1.0,u,0.0,False,806.9000000357628,49.0,61.0,40.0,313.84690670896543,[],"[683, 384]",ColorTask,-20.0,50.0,,,HRV,HRV_0022,2022-11-30 17:51:23
,wl-rdm,185,379722,0.0-8.50-0.50,False,,1.0,156.0,,,,,,,[],,,,,,73.6,1.0,i,1.0,True,512.8000000119209,31.0,61.0,40.0,384.1305620981873,[],"[683, 384]",ColorTask,-19.0,51.0,,,HRV,HRV_0022,2022-11-30 17:51:23
,wl-rdm,186,381470,0.0-8.51-0.51,False,,1.0,157.0,,,,,,,[],,,,,,53.2,1.0,u,0.0,False,396.7999999523163,24.0,61.0,40.0,268.3668499658296,[],"[683, 384]",ColorTask,-20.0,52.0,,,HRV,HRV_0022,2022-11-30 17:51:23
,wl-rdm,187,382986,0.0-8.52-0.52,False,,1.0,158.0,,,,,,,[],,,,,,50.0,0.0,i,1.0,False,160.29999995231628,10.0,61.0,40.0,279.4845649827835,[],"[683, 384]",ColorTask,-21.0,53.0,,,HRV,HRV_0022,2022-11-30 17:51:23
,wl-rdm,188,384369,0.0-8.53-0.53,True,too_early ,1.0,158.0,,,,,,,[],,,,,,87.9,1.0,u,0.0,False,33.19999998807907,2.0,61.0,40.0,290.30853301905074,[],"[683, 384]",ColorTask,-22.0,54.0,,,HRV,HRV_0022,2022-11-30 17:51:23
,wl-rdm,189,386055,0.0-8.54-0.54,False,,1.0,159.0,,,,,,,[],,,,,,73.6,1.0,i,1.0,True,304.30000001192093,19.0,61.0,40.0,281.9146556361348,[],"[683, 384]",ColorTask,-21.0,55.0,,,HRV,HRV_0022,2022-11-30 17:51:23
,wl-rdm,190,387531,0.0-8.55-0.55,True,too_early ,1.0,159.0,,,,,,,[],,,,,,87.9,1.0,u,0.0,False,80.5,5.0,61.0,40.0,334.83609256825235,[],"[683, 384]",ColorTask,-22.0,56.0,,,HRV,HRV_0022,2022-11-30 17:51:23
,wl-rdm,191,389246,0.0-8.56-0.56,False,,1.0,160.0,,,,,,,[],,,,,,53.2,0.0,i,1.0,False,432.0,26.0,61.0,40.0,203.3434868434301,[],"[683, 384]",ColorTask,-23.0,57.0,,,HRV,HRV_0022,2022-11-30 17:51:23
,wl-rdm,192,390962,0.0-8.57-0.57,False,,1.0,161.0,,,,,,,[],,,,,,73.6,0.0,u,0.0,True,302.0,19.0,61.0,40.0,327.8101333406172,[],"[683, 384]",ColorTask,-22.0,58.0,,,HRV,HRV_0022,2022-11-30 17:51:23
,wl-rdm,193,392511,0.0-8.58-0.58,False,,1.0,162.0,,,,,,,[],,,,,,62.5,1.0,i,1.0,True,213.60000002384186,13.0,61.0,40.0,263.1051755637625,[],"[683, 384]",ColorTask,-21.0,59.0,,,HRV,HRV_0022,2022-11-30 17:51:23
,wl-rdm,194,393843,0.0-8.59-0.59,True,too_early ,1.0,162.0,,,,,,,[],,,,,,53.2,1.0,i,,,790.6999999880791,0.0,61.0,40.0,303.0608323278321,[],"[683, 384]",ColorTask,-22.0,60.0,,,HRV,HRV_0022,2022-11-30 17:51:23
,wl-rdm,195,395457,0.0-8.60-0.60,False,,1.0,163.0,,,,,,,[],,,,,,62.5,0.0,i,1.0,False,324.39999997615814,20.0,61.0,40.0,205.9176575312462,[],"[683, 384]",ColorTask,-23.0,61.0,,,HRV,HRV_0022,2022-11-30 17:51:23
,wl-rdm,196,396905,0.0-8.61-0.61,False,,1.0,164.0,,,,,,,[],,,,,,56.4,1.0,u,0.0,False,138.69999998807907,9.0,61.0,40.0,231.16799920137467,[],"[683, 384]",ColorTask,-24.0,62.0,,,HRV,HRV_0022,2022-11-30 17:51:23
,wl-rdm,197,398654,0.0-8.62-0.62,False,,1.0,165.0,,,,,,,[],,,,,,50.0,1.0,i,1.0,True,389.5,23.0,61.0,40.0,298.0175875811392,[],"[683, 384]",ColorTask,-23.0,63.0,,,HRV,HRV_0022,2022-11-30 17:51:23
,wl-rdm,198,400302,0.0-8.63-0.63,False,,1.0,166.0,,,,,,,[],,,,,,62.5,1.0,i,1.0,True,309.89999997615814,19.0,61.0,40.0,280.6940504530543,[],"[683, 384]",ColorTask,-22.0,64.0,,,HRV,HRV_0022,2022-11-30 17:51:23
,wl-rdm,199,402034,0.0-8.64-0.64,False,,1.0,167.0,,,,,,,[],,,,,,53.2,0.0,i,1.0,False,281.7999999523163,18.0,61.0,40.0,370.19761273347183,[],"[683, 384]",ColorTask,-23.0,65.0,,,HRV,HRV_0022,2022-11-30 17:51:23
,wl-rdm,200,404032,0.0-8.65-0.65,False,,1.0,168.0,,,,,,,[],,,,,,62.5,0.0,i,1.0,False,649.6999999880791,39.0,61.0,40.0,277.64670823910404,[],"[683, 384]",ColorTask,-24.0,66.0,,,HRV,HRV_0022,2022-11-30 17:51:23
,wl-rdm,201,405847,0.0-8.66-0.66,False,,1.0,169.0,,,,,,,[],,,,,,56.4,1.0,u,0.0,False,521.2000000476837,32.0,61.0,40.0,207.84023074723208,[],"[683, 384]",ColorTask,-25.0,67.0,,,HRV,HRV_0022,2022-11-30 17:51:23
,wl-rdm,202,407645,0.0-8.67-0.67,False,,1.0,170.0,,,,,,,[],,,,,,50.0,1.0,i,1.0,True,442.5,27.0,61.0,40.0,276.45495890186515,[],"[683, 384]",ColorTask,-24.0,68.0,,,HRV,HRV_0022,2022-11-30 17:51:23
,wl-rdm,203,409943,0.0-8.68-0.68,False,,1.0,171.0,,,,,,,[],,,,,,56.4,0.0,i,1.0,False,1011.9000000357628,61.0,61.0,40.0,214.1611643248303,[],"[683, 384]",ColorTask,-25.0,69.0,,,HRV,HRV_0022,2022-11-30 17:51:23
,wl-rdm,204,411808,0.0-8.69-0.69,False,,1.0,172.0,,,,,,,[],,,,,,62.5,0.0,u,0.0,True,578.8999999761581,35.0,61.0,40.0,229.45749205234728,[],"[683, 384]",ColorTask,-24.0,70.0,,,HRV,HRV_0022,2022-11-30 17:51:23
,wl-rdm,205,413705,0.0-8.70-0.70,False,,1.0,173.0,,,,,,,[],,,,,,73.6,0.0,i,1.0,False,620.6999999284744,38.0,61.0,40.0,203.9796723809696,[],"[683, 384]",ColorTask,-25.0,71.0,,,HRV,HRV_0022,2022-11-30 17:51:23
,wl-rdm,206,415721,0.0-8.71-0.71,False,,1.0,174.0,,,,,,,[],,,,,,56.4,0.0,i,1.0,False,686.3000000119209,41.0,61.0,40.0,259.10790146002034,[],"[683, 384]",ColorTask,-26.0,72.0,,,HRV,HRV_0022,2022-11-30 17:51:23
,wl-rdm,207,417402,0.0-8.72-0.72,False,,1.0,175.0,,,,,,,[],,,,,,87.9,1.0,i,1.0,True,319.89999997615814,20.0,61.0,40.0,274.7454233639341,[],"[683, 384]",ColorTask,-25.0,73.0,,,HRV,HRV_0022,2022-11-30 17:51:23
,wl-rdm,208,419316,0.0-8.73-0.73,False,,1.0,176.0,,,,,,,[],,,,,,87.9,0.0,u,0.0,True,596.0000000596046,36.0,61.0,40.0,241.9209303944436,[],"[683, 384]",ColorTask,-24.0,74.0,,,HRV,HRV_0022,2022-11-30 17:51:23
,wl-rdm,209,421797,0.0-8.74-0.74,False,,1.0,177.0,,,,,,,[],,,,,,73.6,0.0,i,1.0,False,1203.6000000238419,73.0,61.0,40.0,205.9013161431632,[],"[683, 384]",ColorTask,-25.0,75.0,,,HRV,HRV_0022,2022-11-30 17:51:23
,wl-rdm,210,423929,0.0-8.75-0.75,False,,1.0,178.0,,,,,,,[],,,,,,73.6,0.0,u,0.0,True,836.8000000119209,51.0,61.0,40.0,201.5395020642388,[],"[683, 384]",ColorTask,-24.0,76.0,,,HRV,HRV_0022,2022-11-30 17:51:23
,wl-rdm,211,425927,0.0-8.76-0.76,False,,1.0,179.0,,,,,,,[],,,,,,87.9,0.0,i,1.0,False,613.5,37.0,61.0,40.0,309.75559050565784,[],"[683, 384]",ColorTask,-25.0,77.0,,,HRV,HRV_0022,2022-11-30 17:51:23
,wl-rdm,212,427658,0.0-8.77-0.77,False,,1.0,180.0,,,,,,,[],,,,,,62.5,1.0,u,0.0,False,398.0,24.0,61.0,40.0,271.7622773404241,[],"[683, 384]",ColorTask,-26.0,78.0,,,HRV,HRV_0022,2022-11-30 17:51:23
,wl-rdm,213,429256,0.0-8.78-0.78,False,,1.0,181.0,,,,,,,[],,,,,,62.5,0.0,i,1.0,False,119.69999998807907,8.0,61.0,40.0,387.1793377946324,[],"[683, 384]",ColorTask,-27.0,79.0,,,HRV,HRV_0022,2022-11-30 17:51:23
,wl-rdm,214,431138,0.0-8.79-0.79,False,,1.0,182.0,,,,,,,[],,,,,,62.5,1.0,u,0.0,False,401.30000001192093,25.0,61.0,40.0,386.0537877804966,[],"[683, 384]",ColorTask,-28.0,80.0,,,HRV,HRV_0022,2022-11-30 17:51:23
,wl-rdm,215,432554,0.0-8.80-0.80,True,too_early ,1.0,182.0,,,,,,,[],,,,,,56.4,1.0,i,1.0,True,17.200000047683716,2.0,61.0,40.0,313.6099281893052,[],"[683, 384]",ColorTask,-27.0,81.0,,,HRV,HRV_0022,2022-11-30 17:51:23
,wl-rdm,216,434236,0.0-8.81-0.81,False,,1.0,183.0,,,,,,,[],,,,,,53.2,1.0,u,0.0,False,353.89999997615814,22.0,61.0,40.0,242.40318397181258,[],"[683, 384]",ColorTask,-28.0,82.0,,,HRV,HRV_0022,2022-11-30 17:51:23
,wl-rdm,217,436216,0.0-8.82-0.82,False,,1.0,184.0,,,,,,,[],,,,,,73.6,1.0,i,1.0,True,647.9000000357628,39.0,61.0,40.0,255.38600442232354,[],"[683, 384]",ColorTask,-27.0,83.0,,,HRV,HRV_0022,2022-11-30 17:51:23
,wl-rdm,218,437683,0.0-8.83-0.83,False,,1.0,185.0,,,,,,,[],,,,,,87.9,1.0,i,1.0,True,139.79999995231628,9.0,61.0,40.0,258.11354199117886,[],"[683, 384]",ColorTask,-26.0,84.0,,,HRV,HRV_0022,2022-11-30 17:51:23
,wl-rdm,219,439613,0.0-8.84-0.84,False,,1.0,186.0,,,,,,,[],,,,,,56.4,0.0,u,0.0,True,583.8000000119209,36.0,61.0,40.0,250.71265361394632,[],"[683, 384]",ColorTask,-25.0,85.0,,,HRV,HRV_0022,2022-11-30 17:51:23
,wl-rdm,220,441328,0.0-8.85-0.85,False,,1.0,187.0,,,,,,,[],,,,,,56.4,0.0,i,1.0,False,328.99999994039536,20.0,61.0,40.0,299.8882637804758,[],"[683, 384]",ColorTask,-26.0,86.0,,,HRV,HRV_0022,2022-11-30 17:51:23
,wl-rdm,221,443193,0.0-8.86-0.86,False,,1.0,188.0,,,,,,,[],,,,,,56.4,1.0,u,0.0,False,564.0,34.0,61.0,40.0,245.11501501870634,[],"[683, 384]",ColorTask,-27.0,87.0,,,HRV,HRV_0022,2022-11-30 17:51:23
,wl-rdm,222,445241,0.0-8.87-0.87,False,,1.0,189.0,,,,,,,[],,,,,,53.2,0.0,i,1.0,False,707.1999999880791,43.0,61.0,40.0,256.50748212492846,[],"[683, 384]",ColorTask,-28.0,88.0,,,HRV,HRV_0022,2022-11-30 17:51:23
,wl-rdm,223,446823,0.0-8.88-0.88,False,,1.0,190.0,,,,,,,[],,,,,,73.6,1.0,u,0.0,False,296.5,18.0,61.0,40.0,214.37030286770445,[],"[683, 384]",ColorTask,-29.0,89.0,,,HRV,HRV_0022,2022-11-30 17:51:23
,wl-rdm,224,448787,0.0-8.89-0.89,False,,1.0,191.0,,,,,,,[],,,,,,87.9,1.0,u,0.0,False,577.3999999761581,35.0,61.0,40.0,301.74255330728874,[],"[683, 384]",ColorTask,-30.0,90.0,,,HRV,HRV_0022,2022-11-30 17:51:23
,wl-rdm,225,451503,0.0-8.90-0.90,False,,1.0,192.0,,,,,,,[],,,,,,87.9,1.0,u,0.0,False,1376.199999988079,83.0,61.0,40.0,267.1748396715679,[],"[683, 384]",ColorTask,-31.0,91.0,,,HRV,HRV_0022,2022-11-30 17:51:23
,wl-rdm,226,453000,0.0-8.91-0.91,True,too_early ,1.0,192.0,,,,,,,[],,,,,,87.9,0.0,i,1.0,False,56.700000047683716,4.0,61.0,40.0,361.06094165641827,[],"[683, 384]",ColorTask,-32.0,92.0,,,HRV,HRV_0022,2022-11-30 17:51:23
,wl-rdm,227,454765,0.0-8.92-0.92,False,,1.0,193.0,,,,,,,[],,,,,,56.4,1.0,i,1.0,True,336.10000002384186,20.0,61.0,40.0,357.0064613429828,[],"[683, 384]",ColorTask,-31.0,93.0,,,HRV,HRV_0022,2022-11-30 17:51:23
,wl-rdm,228,456459,0.0-8.93-0.93,False,,1.0,194.0,,,,,,,[],,,,,,87.9,0.0,i,1.0,False,405.99999994039536,25.0,61.0,40.0,202.91326780674257,[],"[683, 384]",ColorTask,-32.0,94.0,,,HRV,HRV_0022,2022-11-30 17:51:23
,wl-rdm,229,458494,0.0-8.94-0.94,False,,1.0,195.0,,,,,,,[],,,,,,50.0,1.0,u,0.0,False,739.6000000238419,45.0,61.0,40.0,203.96917622383552,[],"[683, 384]",ColorTask,-33.0,95.0,,,HRV,HRV_0022,2022-11-30 17:51:23
,wl-rdm,230,459976,0.0-8.95-0.95,False,,1.0,196.0,,,,,,,[],,,,,,50.0,1.0,u,0.0,False,154.19999998807907,10.0,61.0,40.0,243.56371828576908,[],"[683, 384]",ColorTask,-34.0,96.0,,,HRV,HRV_0022,2022-11-30 17:51:23
,wl-rdm,231,462140,0.0-8.96-0.96,False,,1.0,197.0,,,,,,,[],,,,,,62.5,1.0,i,1.0,True,885.9999999403954,54.0,61.0,40.0,207.8845646074058,[],"[683, 384]",ColorTask,-33.0,97.0,,,HRV,HRV_0022,2022-11-30 17:51:23
,wl-rdm,232,464205,0.0-8.97-0.97,False,,1.0,198.0,,,,,,,[],,,,,,62.5,0.0,i,1.0,False,710.7999999523163,43.0,61.0,40.0,279.181080628662,[],"[683, 384]",ColorTask,-34.0,98.0,,,HRV,HRV_0022,2022-11-30 17:51:23
,wl-rdm,233,466104,0.0-8.98-0.98,False,,1.0,199.0,,,,,,,[],,,,,,50.0,0.0,u,0.0,True,440.8999999165535,27.0,61.0,40.0,381.38303618908606,[],"[683, 384]",ColorTask,-33.0,99.0,,,HRV,HRV_0022,2022-11-30 17:51:23
,wl-rdm,234,467519,0.0-8.99-0.99,False,,1.0,200.0,,,,,,,[],,,,,,56.4,1.0,i,1.0,True,124.20000004768372,8.0,61.0,40.0,211.68315186531674,[],"[683, 384]",ColorTask,-32.0,100.0,,,HRV,HRV_0022,2022-11-30 17:51:23
,wl-rdm,235,469084,0.0-8.100-0.100,False,,1.0,201.0,,,,,,,[],,,,,,56.4,1.0,i,1.0,True,258.5999999642372,16.0,61.0,40.0,223.77747523748855,[],"[683, 384]",ColorTask,-31.0,101.0,,,HRV,HRV_0022,2022-11-30 17:51:23
,wl-rdm,236,471032,0.0-8.101-0.101,False,,1.0,202.0,,,,,,,[],,,,,,73.6,1.0,i,1.0,True,577.5,35.0,61.0,40.0,286.3280825471351,[],"[683, 384]",ColorTask,-30.0,102.0,,,HRV,HRV_0022,2022-11-30 17:51:23
,wl-rdm,237,472747,0.0-8.102-0.102,False,,1.0,203.0,,,,,,,[],,,,,,50.0,1.0,u,0.0,False,348.80000001192093,21.0,61.0,40.0,291.6780285397478,[],"[683, 384]",ColorTask,-31.0,103.0,,,HRV,HRV_0022,2022-11-30 17:51:23
,wl-rdm,238,474529,0.0-8.103-0.103,False,,1.0,204.0,,,,,,,[],,,,,,56.4,1.0,u,0.0,False,338.69999998807907,21.0,61.0,40.0,352.95100038494803,[],"[683, 384]",ColorTask,-32.0,104.0,,,HRV,HRV_0022,2022-11-30 17:51:23
,wl-rdm,239,476260,0.0-8.104-0.104,False,,1.0,205.0,,,,,,,[],,,,,,73.6,1.0,u,0.0,False,336.7000000476837,21.0,61.0,40.0,322.0146533911919,[],"[683, 384]",ColorTask,-33.0,105.0,,,HRV,HRV_0022,2022-11-30 17:51:23
,wl-rdm,240,477943,0.0-8.105-0.105,False,,1.0,206.0,,,,,,,[],,,,,,73.6,0.0,u,0.0,True,295.49999994039536,18.0,61.0,40.0,306.0633208859995,[],"[683, 384]",ColorTask,-32.0,106.0,,,HRV,HRV_0022,2022-11-30 17:51:23
,wl-rdm,241,479741,0.0-8.106-0.106,False,,1.0,207.0,,,,,,,[],,,,,,56.4,1.0,i,1.0,True,510.89999997615814,31.0,61.0,40.0,208.63878320260972,[],"[683, 384]",ColorTask,-31.0,107.0,,,HRV,HRV_0022,2022-11-30 17:51:23
,wl-rdm,242,481190,0.0-8.107-0.107,False,,1.0,208.0,,,,,,,[],,,,,,50.0,0.0,i,1.0,False,140.80000007152557,9.0,61.0,40.0,223.4140129144285,[],"[683, 384]",ColorTask,-32.0,108.0,,,HRV,HRV_0022,2022-11-30 17:51:23
,wl-rdm,243,483454,0.0-8.108-0.108,False,,1.0,209.0,,,,,,,[],,,,,,87.9,1.0,u,0.0,False,797.5,48.0,61.0,40.0,397.47300992057933,[],"[683, 384]",ColorTask,-33.0,109.0,,,HRV,HRV_0022,2022-11-30 17:51:23
,wl-rdm,244,484869,0.0-8.109-0.109,False,,1.0,210.0,,,,,,,[],,,,,,87.9,0.0,i,1.0,False,128.10000002384186,8.0,61.0,40.0,204.0904164003221,[],"[683, 384]",ColorTask,-34.0,110.0,,,HRV,HRV_0022,2022-11-30 17:51:23
,wl-rdm,245,486585,0.0-8.110-0.110,False,,1.0,211.0,,,,,,,[],,,,,,50.0,0.0,i,1.0,False,320.50000005960464,20.0,61.0,40.0,309.7135637893465,[],"[683, 384]",ColorTask,-35.0,111.0,,,HRV,HRV_0022,2022-11-30 17:51:23
,wl-rdm,246,488266,0.0-8.111-0.111,False,,1.0,212.0,,,,,,,[],,,,,,62.5,1.0,i,1.0,True,364.2999999523163,22.0,61.0,40.0,241.05195926702964,[],"[683, 384]",ColorTask,-34.0,112.0,,,HRV,HRV_0022,2022-11-30 17:51:23
,wl-rdm,247,489980,0.0-8.112-0.112,False,,1.0,213.0,,,,,,,[],,,,,,62.5,1.0,i,1.0,True,324.49999994039536,20.0,61.0,40.0,306.45801286418606,[],"[683, 384]",ColorTask,-33.0,113.0,,,HRV,HRV_0022,2022-11-30 17:51:23
,wl-rdm,248,491612,0.0-8.113-0.113,False,,1.0,214.0,,,,,,,[],,,,,,87.9,1.0,u,0.0,False,341.3000000715256,21.0,61.0,40.0,201.4778073621998,[],"[683, 384]",ColorTask,-34.0,114.0,,,HRV,HRV_0022,2022-11-30 17:51:23
,wl-rdm,249,493144,0.0-8.114-0.114,True,too_early ,1.0,214.0,,,,,,,[],,,,,,56.4,0.0,i,1.0,False,97.69999998807907,6.0,61.0,40.0,363.4986159536238,[],"[683, 384]",ColorTask,-35.0,115.0,,,HRV,HRV_0022,2022-11-30 17:51:23
,wl-rdm,250,494792,0.0-8.115-0.115,False,,1.0,215.0,,,,,,,[],,,,,,87.9,1.0,i,1.0,True,344.2000000476837,20.0,61.0,40.0,223.80289453930095,[],"[683, 384]",ColorTask,-34.0,116.0,,,HRV,HRV_0022,2022-11-30 17:51:23
,wl-rdm,251,496524,0.0-8.116-0.116,False,,1.0,216.0,,,,,,,[],,,,,,62.5,0.0,u,0.0,True,382.10000002384186,23.0,61.0,40.0,273.09952336039834,[],"[683, 384]",ColorTask,-33.0,117.0,,,HRV,HRV_0022,2022-11-30 17:51:23
,wl-rdm,252,498226,0.0-8.117-0.117,False,,1.0,217.0,,,,,,,[],,,,,,56.4,0.0,u,0.0,True,391.89999997615814,24.0,61.0,40.0,225.69514418199452,[],"[683, 384]",ColorTask,-32.0,118.0,,,HRV,HRV_0022,2022-11-30 17:51:23
,wl-rdm,253,500137,0.0-8.118-0.118,False,,1.0,218.0,,,,,,,[],,,,,,56.4,0.0,i,1.0,False,632.5999999642372,38.0,61.0,40.0,203.7795317457907,[],"[683, 384]",ColorTask,-33.0,119.0,,,HRV,HRV_0022,2022-11-30 17:51:23
,wl-rdm,254,501736,0.0-8.119-0.119,False,,1.0,219.0,,,,,,,[],,,,,,53.2,0.0,u,0.0,True,241.9000000357628,15.0,61.0,40.0,273.8491595524647,[],"[683, 384]",ColorTask,-32.0,120.0,,,HRV,HRV_0022,2022-11-30 17:51:23
,wl-rdm,255,503983,0.0-8.120-0.120,False,,1.0,220.0,,,,,,,[],,,,,,62.5,0.0,i,1.0,False,879.8999999761581,53.0,61.0,40.0,274.6438635834817,[],"[683, 384]",ColorTask,-33.0,121.0,,,HRV,HRV_0022,2022-11-30 17:51:23
,wl-rdm,256,505634,0.0-8.121-0.121,False,,1.0,221.0,,,,,,,[],,,,,,56.4,0.0,u,0.0,True,350.19999998807907,21.0,61.0,40.0,225.4332849856533,[],"[683, 384]",ColorTask,-32.0,122.0,,,HRV,HRV_0022,2022-11-30 17:51:23
,wl-rdm,257,507431,0.0-8.122-0.122,False,,1.0,222.0,,,,,,,[],,,,,,53.2,1.0,i,1.0,True,509.5,22.0,61.0,40.0,207.79275879130938,[],"[683, 384]",ColorTask,-31.0,123.0,,,HRV,HRV_0022,2022-11-30 17:51:23
,wl-rdm,258,509332,0.0-8.123-0.123,False,,1.0,223.0,,,,,,,[],,,,,,53.2,1.0,u,0.0,False,510.9000000357628,31.0,61.0,40.0,250.0927149651082,[],"[683, 384]",ColorTask,-32.0,124.0,,,HRV,HRV_0022,2022-11-30 17:51:23
,wl-rdm,259,511085,0.0-8.124-0.124,False,,1.0,224.0,,,,,,,[],,,,,,50.0,1.0,i,1.0,True,397.2999999523163,24.0,61.0,40.0,250.1970969107856,[],"[683, 384]",ColorTask,-31.0,125.0,,,HRV,HRV_0022,2022-11-30 17:51:23
,wl-html-button-response,260,521751,0.0-9.0-0.0,,,,,,,,,,,,10619.0,,0,,,,,,,,,,,,,,,,,,<h3>End of this session. Thank you!</h3><br>,['Close window'],HRV,HRV_0022,2022-11-30 17:51:23
