success,trial_type,trial_index,time_elapsed,internal_node_id,Block,TrialNumber,TrialTime,trialTimeDiff,FPS_avg,FPS_med,FPS_mode,TrialDur,winResizeTime,missTrial,missTrialMsg,rt,block,button_pressed,MotCoh,MotDir,ColCoh,Color,ChoiceKey,Choice,Accuracy,RT,nFrames,FPS,PPD,onsetDelay,fullScreenExitTime,canvCenter,TrialType,Score,BlockTrial,stimulus,button_labels,exp,subjectId,date
True,fullscreen,0,1316,0.0-0.0,0.0,1.0,,,,,,,,,,,,,,,,,,,,,,,,,,,,,,,,HRV,HRV_0259,2022-11-30 20:03:15
,wl-check-fps,1,6310,0.0-1.0,0.0,1.0,"[1786.3, 1792.8, 1808.6, 1826, 1843.7, 1859.2, 1875.6, 1892.6, 1909.2, 1926.6, 1942.7, 1959.9, 1976.5, 1991.8, 2010.1, 2026.4, 2043.6, 2059.9, 2076.5, 2093.2, 2109.8, 2126.6, 2143, 2159.6, 2176.1, 2192.1, 2209.2, 2225.8, 2243.2, 2259.1, 2277, 2292.2, 2309.1, 2325.7, 2342.3, 2359.8, 2376.6, 2393.2, 2409.8, 2425.8, 2442.4, 2459.8, 2475.9, 2493.2, 2509.3, 2526.8, 2543.2, 2560.2, 2575.6, 2592.8, 2610.1, 2625.5, 2642.7, 2660.3, 2676.5, 2692.8, 2709.9, 2725.8, 2742.4, 2760.1, 2776.5, 2793, 2810.2, 2826.7, 2842.3, 2859, 2876, 2893.4, 2910, 2926.3, 2943.4, 2959.9, 2975.3, 2993.3, 3010.5, 3025.4, 3042.5, 3059.5, 3076.9, 3092.6, 3109.8, 3126, 3142.7, 3159.7, 3175.8, 3192.7, 3210.5, 3226.1, 3243.3, 3260, 3276, 3292.7, 3310.5, 3325.7, 3342.6, 3359.4, 3376, 3392.7, 3409.4, 3426, 3442.5, 3458.9, 3476, 3492.8, 3510, 3526.1, 3543.6, 3559.6, 3576.3, 3593.5, 3610, 3626, 3642.7, 3660.4, 3675.8, 3692.2, 3709.7, 3726.1, 3742.7, 3760.2, 3776, 3792.7, 3809.8, 3826.6, 3843.3, 3860, 3875.6, 3893.3, 3910, 3926.7, 3943.3, 3960.1, 3976.6, 3993.3, 4009.6, 4026, 4043.3, 4060.2, 4076, 4092.8, 4110.2, 4125.9, 4142.7, 4159.3, 4176, 4192.7, 4208.9, 4226.2, 4243.6, 4259.4, 4276.6, 4292.7, 4309, 4326.1, 4342.6, 4359.9, 4376.1, 4392.7, 4410, 4425.9, 4442.7, 4459.1, 4476.1, 4492.7, 4510.2, 4526.1, 4542.7, 4559, 4576.2, 4592.4, 4608.4, 4626.1, 4642.6, 4659.6, 4676.8, 4692.6, 4710, 4725.8, 4742.9, 4760.3, 4776.6, 4792.7, 4810.2, 4825.9, 4842.8, 4859.9, 4876.6, 4892.2, 4909.4, 4926.6, 4942.7, 4959.3, 4975.9, 4992.9, 5009.3, 5026.6, 5042.7, 5060.2, 5075.4, 5092.7, 5109.9, 5126.1, 5143.4, 5159.3, 5176, 5192.7, 5210.4, 5225.3, 5242.3, 5259.3, 5276.9, 5293.3, 5309.3, 5326, 5342.9, 5360.2, 5376.6, 5393.2, 5409.3, 5426.7, 5442.6, 5460.4, 5475.6, 5492.3, 5509.5, 5526.5, 5543.8, 5559.3, 5576, 5592.9, 5608.7, 5626, 5642.8, 5659.5, 5676.6, 5692.6, 5710.1, 5726, 5742.6, 5759.1, 5775.5, 5792.7, 5810.4, 5826.7, 5842.3, 5859.3, 5876, 5892.6, 5909.4, 5926.1, 5943.4, 5959.2, 5975.7, 5992.6, 6010.2, 6026.3, 6042.7, 6060, 6075.4, 6092.6, 6110, 6126, 6143.3, 6160, 6176, 6192.7, 6209.4, 6226.7, 6242.1, 6260.4, 6276.6, 6293.2, 6310.2, 6326, 6343.3, 6359.2, 6376, 6392.8, 6409.9, 6425.4, 6442.9, 6459.9, 6475.7, 6492.6, 6509.3, 6526.6, 6542, 6559.2, 6576, 6592.6, 6609.9, 6626, 6642.7, 6659.8, 6676.1, 6693.5, 6709.5, 6725.9, 6743.3, 6759.8]","[1.1, 6.5, 15.8, 17.4, 17.7, 15.5, 16.4, 17, 16.6, 17.4, 16.1, 17.2, 16.6, 15.3, 18.3, 16.3, 17.2, 16.3, 16.6, 16.7, 16.6, 16.8, 16.4, 16.6, 16.5, 16, 17.1, 16.6, 17.4, 15.9, 17.9, 15.2, 16.9, 16.6, 16.6, 17.5, 16.8, 16.6, 16.6, 16, 16.6, 17.4, 16.1, 17.3, 16.1, 17.5, 16.4, 17, 15.4, 17.2, 17.3, 15.4, 17.2, 17.6, 16.2, 16.3, 17.1, 15.9, 16.6, 17.7, 16.4, 16.5, 17.2, 16.5, 15.6, 16.7, 17, 17.4, 16.6, 16.3, 17.1, 16.5, 15.4, 18, 17.2, 14.9, 17.1, 17, 17.4, 15.7, 17.2, 16.2, 16.7, 17, 16.1, 16.9, 17.8, 15.6, 17.2, 16.7, 16, 16.7, 17.8, 15.2, 16.9, 16.8, 16.6, 16.7, 16.7, 16.6, 16.5, 16.4, 17.1, 16.8, 17.2, 16.1, 17.5, 16, 16.7, 17.2, 16.5, 16, 16.7, 17.7, 15.4, 16.4, 17.5, 16.4, 16.6, 17.5, 15.8, 16.7, 17.1, 16.8, 16.7, 16.7, 15.6, 17.7, 16.7, 16.7, 16.6, 16.8, 16.5, 16.7, 16.3, 16.4, 17.3, 16.9, 15.8, 16.8, 17.4, 15.7, 16.8, 16.6, 16.7, 16.7, 16.2, 17.3, 17.4, 15.8, 17.2, 16.1, 16.3, 17.1, 16.5, 17.3, 16.2, 16.6, 17.3, 15.9, 16.8, 16.4, 17, 16.6, 17.5, 15.9, 16.6, 16.3, 17.2, 16.2, 16, 17.7, 16.5, 17, 17.2, 15.8, 17.4, 15.8, 17.1, 17.4, 16.3, 16.1, 17.5, 15.7, 16.9, 17.1, 16.7, 15.6, 17.2, 17.2, 16.1, 16.6, 16.6, 17, 16.4, 17.3, 16.1, 17.5, 15.2, 17.3, 17.2, 16.2, 17.3, 15.9, 16.7, 16.7, 17.7, 14.9, 17, 17, 17.6, 16.4, 16, 16.7, 16.9, 17.3, 16.4, 16.6, 16.1, 17.4, 15.9, 17.8, 15.2, 16.7, 17.2, 17, 17.3, 15.5, 16.7, 16.9, 15.8, 17.3, 16.8, 16.7, 17.1, 16, 17.5, 15.9, 16.6, 16.5, 16.4, 17.2, 17.7, 16.3, 15.6, 17, 16.7, 16.6, 16.8, 16.7, 17.3, 15.8, 16.5, 16.9, 17.6, 16.1, 16.4, 17.3, 15.4, 17.2, 17.4, 16, 17.3, 16.7, 16, 16.7, 16.7, 17.3, 15.4, 18.3, 16.2, 16.6, 17, 15.8, 17.3, 15.9, 16.8, 16.8, 17.1, 15.5, 17.5, 17, 15.8, 16.9, 16.7, 17.3, 15.4, 17.2, 16.8, 16.6, 17.3, 16.1, 16.7, 17.1, 16.3, 17.4, 16, 16.4, 17.4, 16.5]",60.0,61.0,60.0,4990.7,[],True,undefinedblurEvent ,,,,,,,,,,,,,,,,,,,,,,,HRV,HRV_0259,2022-11-30 20:03:15
,wl-html-keyboard-response,2,19298,0.0-2.0-0.0,0.0,2.0,,,,,,,,,,10979.399999976158,0.0,0,,,,,,,,,,,,,,,,,,,,HRV,HRV_0259,2022-11-30 20:03:15
,wl-rdm,3,27926,0.0-3.0-0.0,0.0,3.0,,,,,,,[],False,,,,,0.0,0.0,87.9,0.0,u,0.0,True,3036.3000000715256,183.0,60.0,40.0,3000.0,[],"[960, 600]",ColorTask_Demo,,,,,HRV,HRV_0259,2022-11-30 20:03:15
,wl-rdm,4,33258,0.0-3.0-1.0,0.0,4.0,,,,,,,[],False,,,,,0.0,0.0,87.9,1.0,i,1.0,True,1259.0999999046326,76.0,60.0,40.0,2000.0,[],"[960, 600]",ColorTask_Demo,,,,,HRV,HRV_0259,2022-11-30 20:03:15
,wl-html-keyboard-response,5,38952,0.0-3.0-2.0,0.0,5.0,,,,,,,,,,3684.7000000476837,0.0,1,,,,,,,,,,,,,,,,,,,,HRV,HRV_0259,2022-11-30 20:03:15
,wl-html-keyboard-response,6,46907,0.0-4.0-0.0,0.0,6.0,,,,,,,,,,6084.600000023842,0.0,0,,,,,,,,,,,,,,,,,,,,HRV,HRV_0259,2022-11-30 20:03:15
,wl-html-keyboard-response,7,55959,0.0-5.0-0.0,0.0,7.0,,,,,,,,,,7046.899999976158,0.0,0,,,,,,,,,,,,,,,,,,,,HRV,HRV_0259,2022-11-30 20:03:15
,wl-rdm,8,58276,0.0-6.0-0.0,0.0,8.0,,,,,,,[],False,,,,,,,56.4,1.0,i,1.0,True,963.1000000238419,58.0,60.0,40.0,285.42177033190524,[],"[960, 600]",ColorTask,1.0,1.0,,,HRV,HRV_0259,2022-11-30 20:03:15
,wl-rdm,9,60609,0.0-6.1-0.1,0.0,9.0,,,,,,,[],False,,,,,,,73.6,1.0,i,1.0,True,1047.0,63.0,60.0,40.0,227.20767629610106,[],"[960, 600]",ColorTask,2.0,2.0,,,HRV,HRV_0259,2022-11-30 20:03:15
,wl-rdm,10,62677,0.0-6.2-0.2,0.0,10.0,,,,,,,[],False,,,,,,,56.4,1.0,i,1.0,True,745.6000000238419,45.0,60.0,40.0,252.4915050303315,[],"[960, 600]",ColorTask,3.0,3.0,,,HRV,HRV_0259,2022-11-30 20:03:15
,wl-rdm,11,64993,0.0-6.3-0.3,0.0,11.0,,,,,,,[],False,,,,,,,53.2,0.0,i,1.0,False,1043.8999999761581,63.0,60.0,40.0,210.38820800512576,[],"[960, 600]",ColorTask,2.0,4.0,,,HRV,HRV_0259,2022-11-30 20:03:15
,wl-rdm,12,67209,0.0-6.4-0.4,0.0,12.0,,,,,,,[],False,,,,,,,62.5,1.0,i,1.0,True,803.6000000238419,49.0,60.0,40.0,329.0771418994691,[],"[960, 600]",ColorTask,3.0,5.0,,,HRV,HRV_0259,2022-11-30 20:03:15
,wl-rdm,13,69559,0.0-6.5-0.5,0.0,13.0,,,,,,,[],False,,,,,,,56.4,0.0,i,1.0,False,1048.8999999761581,63.0,60.0,40.0,237.26220624030668,[],"[960, 600]",ColorTask,2.0,6.0,,,HRV,HRV_0259,2022-11-30 20:03:15
,wl-rdm,14,71709,0.0-6.6-0.6,0.0,14.0,,,,,,,[],False,,,,,,,73.6,0.0,u,0.0,True,815.5,49.0,60.0,40.0,265.52913242226765,[],"[960, 600]",ColorTask,3.0,7.0,,,HRV,HRV_0259,2022-11-30 20:03:15
,wl-rdm,15,73944,0.0-6.7-0.7,0.0,15.0,,,,,,,[],False,,,,,,,56.4,0.0,i,1.0,False,942.9000000953674,57.0,60.0,40.0,202.58367100519027,[],"[960, 600]",ColorTask,2.0,8.0,,,HRV,HRV_0259,2022-11-30 20:03:15
,wl-rdm,16,75993,0.0-6.8-0.8,0.0,16.0,,,,,,,[],False,,,,,,,87.9,0.0,u,0.0,True,780.3999999761581,47.0,60.0,40.0,217.0160281708504,[],"[960, 600]",ColorTask,3.0,9.0,,,HRV,HRV_0259,2022-11-30 20:03:15
,wl-rdm,17,78532,0.0-6.9-0.9,0.0,17.0,,,,,,,[],False,,,,,,,53.2,0.0,i,1.0,False,1168.0,71.0,60.0,40.0,277.376904892283,[],"[960, 600]",ColorTask,2.0,10.0,,,HRV,HRV_0259,2022-11-30 20:03:15
,wl-rdm,18,80793,0.0-6.10-0.10,0.0,18.0,,,,,,,[],False,,,,,,,62.5,1.0,i,1.0,True,904.0,55.0,60.0,40.0,271.7789424498567,[],"[960, 600]",ColorTask,3.0,11.0,,,HRV,HRV_0259,2022-11-30 20:03:15
,wl-rdm,19,83193,0.0-6.11-0.11,0.0,19.0,,,,,,,[],False,,,,,,,53.2,0.0,i,1.0,False,1125.5,68.0,60.0,40.0,213.00667903376254,[],"[960, 600]",ColorTask,2.0,12.0,,,HRV,HRV_0259,2022-11-30 20:03:15
,wl-rdm,20,85426,0.0-6.12-0.12,0.0,20.0,,,,,,,[],False,,,,,,,87.9,0.0,u,0.0,True,831.8999999761581,50.0,60.0,40.0,348.93598566112564,[],"[960, 600]",ColorTask,3.0,13.0,,,HRV,HRV_0259,2022-11-30 20:03:15
,wl-rdm,21,87510,0.0-6.13-0.13,0.0,21.0,,,,,,,[],False,,,,,,,87.9,1.0,i,1.0,True,719.3999999761581,44.0,60.0,40.0,292.33173667612596,[],"[960, 600]",ColorTask,4.0,14.0,,,HRV,HRV_0259,2022-11-30 20:03:15
,wl-rdm,22,89476,0.0-6.14-0.14,0.0,22.0,,,,,,,[],False,,,,,,,73.6,1.0,i,1.0,True,696.1999999284744,42.0,60.0,40.0,202.14075061977437,[],"[960, 600]",ColorTask,5.0,15.0,,,HRV,HRV_0259,2022-11-30 20:03:15
,wl-rdm,23,91776,0.0-6.15-0.15,0.0,23.0,,,,,,,[],False,,,,,,,53.2,1.0,i,1.0,True,1029.1999999284744,62.0,60.0,40.0,206.93448640229983,[],"[960, 600]",ColorTask,6.0,16.0,,,HRV,HRV_0259,2022-11-30 20:03:15
,wl-rdm,24,94376,0.0-6.16-0.16,0.0,24.0,,,,,,,[],False,,,,,,,53.2,1.0,i,1.0,True,1190.2000000476837,72.0,60.0,40.0,338.95252991621,[],"[960, 600]",ColorTask,7.0,17.0,,,HRV,HRV_0259,2022-11-30 20:03:15
,wl-rdm,25,96710,0.0-6.17-0.17,0.0,25.0,,,,,,,[],False,,,,,,,62.5,1.0,i,1.0,True,942.0,57.0,60.0,40.0,332.09251240455603,[],"[960, 600]",ColorTask,8.0,18.0,,,HRV,HRV_0259,2022-11-30 20:03:15
,wl-rdm,26,99093,0.0-6.18-0.18,0.0,26.0,,,,,,,[],False,,,,,,,53.2,0.0,u,0.0,True,1047.3000000715256,63.0,60.0,40.0,270.58055779297683,[],"[960, 600]",ColorTask,9.0,19.0,,,HRV,HRV_0259,2022-11-30 20:03:15
,wl-rdm,27,101327,0.0-6.19-0.19,0.0,27.0,,,,,,,[],False,,,,,,,53.2,1.0,i,1.0,True,752.3000000715256,46.0,60.0,40.0,392.48592443498336,[],"[960, 600]",ColorTask,10.0,20.0,,,HRV,HRV_0259,2022-11-30 20:03:15
,wl-rdm,28,103510,0.0-6.20-0.20,0.0,28.0,,,,,,,[],False,,,,,,,50.0,0.0,i,1.0,False,820.7999999523163,50.0,60.0,40.0,272.35009874590173,[],"[960, 600]",ColorTask,9.0,21.0,,,HRV,HRV_0259,2022-11-30 20:03:15
,wl-rdm,29,105827,0.0-6.21-0.21,0.0,29.0,,,,,,,[],False,,,,,,,50.0,1.0,i,1.0,True,861.6000000238419,52.0,60.0,40.0,385.90872315543606,[],"[960, 600]",ColorTask,10.0,22.0,,,HRV,HRV_0259,2022-11-30 20:03:15
,wl-rdm,30,107976,0.0-6.22-0.22,0.0,30.0,,,,,,,[],False,,,,,,,53.2,1.0,i,1.0,True,809.1000000238419,50.0,60.0,40.0,275.00142947723583,[],"[960, 600]",ColorTask,11.0,23.0,,,HRV,HRV_0259,2022-11-30 20:03:15
,wl-rdm,31,110110,0.0-6.23-0.23,0.0,31.0,,,,,,,[],False,,,,,,,87.9,1.0,i,1.0,True,846.1000000238419,51.0,60.0,40.0,221.8907821028387,[],"[960, 600]",ColorTask,12.0,24.0,,,HRV,HRV_0259,2022-11-30 20:03:15
,wl-rdm,32,112259,0.0-6.24-0.24,0.0,32.0,,,,,,,[],False,,,,,,,73.6,0.0,u,0.0,True,747.9000000953674,45.0,60.0,40.0,335.41452380751775,[],"[960, 600]",ColorTask,13.0,25.0,,,HRV,HRV_0259,2022-11-30 20:03:15
,wl-rdm,33,114327,0.0-6.25-0.25,0.0,33.0,,,,,,,[],False,,,,,,,53.2,0.0,i,1.0,False,771.0,47.0,60.0,40.0,200.0448178213821,[],"[960, 600]",ColorTask,12.0,26.0,,,HRV,HRV_0259,2022-11-30 20:03:15
,wl-rdm,34,116560,0.0-6.26-0.26,0.0,34.0,,,,,,,[],False,,,,,,,73.6,1.0,i,1.0,True,862.3999999761581,52.0,60.0,40.0,289.9226046049972,[],"[960, 600]",ColorTask,13.0,27.0,,,HRV,HRV_0259,2022-11-30 20:03:15
,wl-rdm,35,119044,0.0-6.27-0.27,0.0,35.0,,,,,,,[],False,,,,,,,73.6,0.0,u,0.0,True,1193.6000000238419,72.0,60.0,40.0,228.0725792823688,[],"[960, 600]",ColorTask,14.0,28.0,,,HRV,HRV_0259,2022-11-30 20:03:15
,wl-rdm,36,121794,0.0-6.28-0.28,0.0,36.0,,,,,,,[],False,,,,,,,53.2,0.0,i,1.0,False,1482.3999999761581,89.0,60.0,40.0,211.9078526637867,[],"[960, 600]",ColorTask,13.0,29.0,,,HRV,HRV_0259,2022-11-30 20:03:15
,wl-rdm,37,123894,0.0-6.29-0.29,0.0,37.0,,,,,,,[],False,,,,,,,87.9,1.0,i,1.0,True,731.6000000238419,44.0,60.0,40.0,309.3896526729217,[],"[960, 600]",ColorTask,14.0,30.0,,,HRV,HRV_0259,2022-11-30 20:03:15
,wl-rdm,38,126427,0.0-6.30-0.30,0.0,38.0,,,,,,,[],False,,,,,,,53.2,0.0,i,1.0,False,1213.8999999761581,73.0,60.0,40.0,264.1954839854859,[],"[960, 600]",ColorTask,13.0,31.0,,,HRV,HRV_0259,2022-11-30 20:03:15
,wl-rdm,39,128794,0.0-6.31-0.31,0.0,39.0,,,,,,,[],False,,,,,,,62.5,0.0,u,0.0,True,933.1999999284744,57.0,60.0,40.0,344.46220160810844,[],"[960, 600]",ColorTask,14.0,32.0,,,HRV,HRV_0259,2022-11-30 20:03:15
,wl-rdm,40,130944,0.0-6.32-0.32,0.0,40.0,,,,,,,[],False,,,,,,,87.9,0.0,u,0.0,True,687.8999999761581,42.0,60.0,40.0,368.1320407706293,[],"[960, 600]",ColorTask,15.0,33.0,,,HRV,HRV_0259,2022-11-30 20:03:15
,wl-rdm,41,133344,0.0-6.33-0.33,0.0,41.0,,,,,,,[],False,,,,,,,56.4,0.0,i,1.0,False,980.0,59.0,60.0,40.0,357.66573191805224,[],"[960, 600]",ColorTask,14.0,34.0,,,HRV,HRV_0259,2022-11-30 20:03:15
,wl-rdm,42,135361,0.0-6.34-0.34,0.0,42.0,,,,,,,[],False,,,,,,,87.9,0.0,u,0.0,True,670.8000000715256,41.0,60.0,40.0,254.7949790450349,[],"[960, 600]",ColorTask,15.0,35.0,,,HRV,HRV_0259,2022-11-30 20:03:15
,wl-rdm,43,137561,0.0-6.35-0.35,0.0,43.0,,,,,,,[],False,,,,,,,87.9,1.0,i,1.0,True,894.8000000715256,54.0,60.0,40.0,222.68825437813928,[],"[960, 600]",ColorTask,16.0,36.0,,,HRV,HRV_0259,2022-11-30 20:03:15
,wl-rdm,44,139894,0.0-6.36-0.36,0.0,44.0,,,,,,,[],False,,,,,,,50.0,1.0,i,1.0,True,913.5,55.0,60.0,40.0,344.3180093429488,[],"[960, 600]",ColorTask,17.0,37.0,,,HRV,HRV_0259,2022-11-30 20:03:15
,wl-rdm,45,142427,0.0-6.37-0.37,0.0,45.0,,,,,,,[],False,,,,,,,50.0,1.0,i,1.0,True,1173.9000000953674,71.0,60.0,40.0,278.78455658250834,[],"[960, 600]",ColorTask,18.0,38.0,,,HRV,HRV_0259,2022-11-30 20:03:15
,wl-rdm,46,144660,0.0-6.38-0.38,0.0,46.0,,,,,,,[],False,,,,,,,62.5,1.0,i,1.0,True,809.9000000953674,49.0,60.0,40.0,359.4879159174976,[],"[960, 600]",ColorTask,19.0,39.0,,,HRV,HRV_0259,2022-11-30 20:03:15
,wl-rdm,47,146861,0.0-6.39-0.39,0.0,47.0,,,,,,,[],False,,,,,,,73.6,0.0,u,0.0,True,835.1000000238419,51.0,60.0,40.0,270.7047285990899,[],"[960, 600]",ColorTask,20.0,40.0,,,HRV,HRV_0259,2022-11-30 20:03:15
,wl-rdm,48,149961,0.0-6.40-0.40,0.0,48.0,,,,,,,[],False,,,,,,,56.4,0.0,u,0.0,True,1703.6000000238419,103.0,60.0,40.0,325.4757552646558,[],"[960, 600]",ColorTask,21.0,41.0,,,HRV,HRV_0259,2022-11-30 20:03:15
,wl-rdm,49,152811,0.0-6.41-0.41,0.0,49.0,,,,,,,[],False,,,,,,,56.4,0.0,i,1.0,False,1371.2000000476837,83.0,60.0,40.0,392.63304676628206,[],"[960, 600]",ColorTask,20.0,42.0,,,HRV,HRV_0259,2022-11-30 20:03:15
,wl-rdm,50,155227,0.0-6.42-0.42,0.0,50.0,,,,,,,[],False,,,,,,,73.6,0.0,u,0.0,True,1115.0,67.0,60.0,40.0,247.09568376025447,[],"[960, 600]",ColorTask,21.0,43.0,,,HRV,HRV_0259,2022-11-30 20:03:15
,wl-rdm,51,157344,0.0-6.43-0.43,0.0,51.0,,,,,,,[],False,,,,,,,73.6,1.0,i,1.0,True,748.0,45.0,60.0,40.0,293.2260690973229,[],"[960, 600]",ColorTask,22.0,44.0,,,HRV,HRV_0259,2022-11-30 20:03:15
,wl-rdm,52,159394,0.0-6.44-0.44,0.0,52.0,,,,,,,[],False,,,,,,,56.4,1.0,i,1.0,True,716.5,43.0,60.0,40.0,262.0172315110428,[],"[960, 600]",ColorTask,23.0,45.0,,,HRV,HRV_0259,2022-11-30 20:03:15
,wl-rdm,53,161911,0.0-6.45-0.45,0.0,53.0,,,,,,,[],False,,,,,,,73.6,0.0,u,0.0,True,1036.2999999523163,63.0,60.0,40.0,386.8185930949013,[],"[960, 600]",ColorTask,24.0,46.0,,,HRV,HRV_0259,2022-11-30 20:03:15
,wl-rdm,54,164010,0.0-6.46-0.46,0.0,54.0,,,,,,,[],False,,,,,,,50.0,1.0,i,1.0,True,792.9000000953674,48.0,60.0,40.0,243.69425411339597,[],"[960, 600]",ColorTask,25.0,47.0,,,HRV,HRV_0259,2022-11-30 20:03:15
,wl-rdm,55,166444,0.0-6.47-0.47,0.0,55.0,,,,,,,[],False,,,,,,,62.5,0.0,u,0.0,True,1134.2000000476837,69.0,60.0,40.0,226.52110866471978,[],"[960, 600]",ColorTask,26.0,48.0,,,HRV,HRV_0259,2022-11-30 20:03:15
,wl-rdm,56,168411,0.0-6.48-0.48,0.0,56.0,,,,,,,[],False,,,,,,,53.2,0.0,i,1.0,False,659.6999999284744,40.0,60.0,40.0,242.23863373503417,[],"[960, 600]",ColorTask,25.0,49.0,,,HRV,HRV_0259,2022-11-30 20:03:15
,wl-rdm,57,171028,0.0-6.49-0.49,0.0,57.0,,,,,,,[],False,,,,,,,50.0,0.0,i,1.0,False,1255.6000000238419,76.0,60.0,40.0,273.5130298297096,[],"[960, 600]",ColorTask,24.0,50.0,,,HRV,HRV_0259,2022-11-30 20:03:15
,wl-rdm,58,173094,0.0-6.50-0.50,0.0,58.0,,,,,,,[],False,,,,,,,87.9,0.0,u,0.0,True,719.0,44.0,60.0,40.0,256.40232477096856,[],"[960, 600]",ColorTask,25.0,51.0,,,HRV,HRV_0259,2022-11-30 20:03:15
,wl-rdm,59,175511,0.0-6.51-0.51,0.0,59.0,,,,,,,[],False,,,,,,,53.2,0.0,i,1.0,False,1065.1000000238419,64.0,60.0,40.0,268.75167432523824,[],"[960, 600]",ColorTask,24.0,52.0,,,HRV,HRV_0259,2022-11-30 20:03:15
,wl-rdm,60,177711,0.0-6.52-0.52,0.0,60.0,,,,,,,[],False,,,,,,,56.4,1.0,i,1.0,True,819.3999999761581,50.0,60.0,40.0,283.45262054652767,[],"[960, 600]",ColorTask,25.0,53.0,,,HRV,HRV_0259,2022-11-30 20:03:15
,wl-rdm,61,180361,0.0-6.53-0.53,0.0,61.0,,,,,,,[],False,,,,,,,50.0,0.0,u,0.0,True,1246.6000000238419,75.0,60.0,40.0,328.3441542047798,[],"[960, 600]",ColorTask,26.0,54.0,,,HRV,HRV_0259,2022-11-30 20:03:15
,wl-rdm,62,182528,0.0-6.54-0.54,0.0,62.0,,,,,,,[],False,,,,,,,73.6,1.0,i,1.0,True,876.7000000476837,53.0,60.0,40.0,228.00457669207898,[],"[960, 600]",ColorTask,27.0,55.0,,,HRV,HRV_0259,2022-11-30 20:03:15
,wl-rdm,63,185427,0.0-6.55-0.55,0.0,63.0,,,,,,,[],False,,,,,,,62.5,0.0,u,0.0,True,1589.3999999761581,96.0,60.0,40.0,220.49890759031794,[],"[960, 600]",ColorTask,28.0,56.0,,,HRV,HRV_0259,2022-11-30 20:03:15
,wl-rdm,64,188195,0.0-6.56-0.56,0.0,64.0,,,,,,,[],False,,,,,,,56.4,1.0,i,1.0,True,1421.8000000715256,86.0,60.0,40.0,266.1604184093594,[],"[960, 600]",ColorTask,29.0,57.0,,,HRV,HRV_0259,2022-11-30 20:03:15
,wl-rdm,65,190378,0.0-6.57-0.57,0.0,65.0,,,,,,,[],False,,,,,,,87.9,0.0,u,0.0,True,864.9000000953674,52.0,60.0,40.0,258.62404173047526,[],"[960, 600]",ColorTask,30.0,58.0,,,HRV,HRV_0259,2022-11-30 20:03:15
,wl-rdm,66,193595,0.0-6.58-0.58,0.0,66.0,,,,,,,[],False,,,,,,,56.4,0.0,u,0.0,True,1886.7000000476837,114.0,60.0,40.0,256.7750279698372,[],"[960, 600]",ColorTask,31.0,59.0,,,HRV,HRV_0259,2022-11-30 20:03:15
,wl-rdm,67,195795,0.0-6.59-0.59,0.0,67.0,,,,,,,[],False,,,,,,,87.9,0.0,u,0.0,True,809.8999999761581,49.0,60.0,40.0,320.51963690030004,[],"[960, 600]",ColorTask,32.0,60.0,,,HRV,HRV_0259,2022-11-30 20:03:15
,wl-rdm,68,197811,0.0-6.60-0.60,0.0,68.0,,,,,,,[],False,,,,,,,50.0,1.0,i,1.0,True,714.0999999046326,43.0,60.0,40.0,238.5798853497559,[],"[960, 600]",ColorTask,33.0,61.0,,,HRV,HRV_0259,2022-11-30 20:03:15
,wl-rdm,69,200962,0.0-6.61-0.61,0.0,69.0,,,,,,,[],False,,,,,,,56.4,0.0,u,0.0,True,1815.7999999523163,109.0,60.0,40.0,278.2046669226119,[],"[960, 600]",ColorTask,34.0,62.0,,,HRV,HRV_0259,2022-11-30 20:03:15
,wl-rdm,70,203462,0.0-6.62-0.62,0.0,70.0,,,,,,,[],False,,,,,,,56.4,0.0,i,1.0,False,1173.1000000238419,71.0,60.0,40.0,252.84666987145079,[],"[960, 600]",ColorTask,33.0,63.0,,,HRV,HRV_0259,2022-11-30 20:03:15
,wl-rdm,71,205361,0.0-6.63-0.63,0.0,71.0,,,,,,,[],False,,,,,,,87.9,1.0,i,1.0,True,597.2000000476837,36.0,60.0,40.0,217.43212997033862,[],"[960, 600]",ColorTask,34.0,64.0,,,HRV,HRV_0259,2022-11-30 20:03:15
,wl-rdm,72,207561,0.0-6.64-0.64,0.0,72.0,,,,,,,[],False,,,,,,,73.6,1.0,i,1.0,True,853.0,52.0,60.0,40.0,253.1629004768003,[],"[960, 600]",ColorTask,35.0,65.0,,,HRV,HRV_0259,2022-11-30 20:03:15
,wl-rdm,73,210094,0.0-6.65-0.65,0.0,73.0,,,,,,,[],False,,,,,,,62.5,1.0,i,1.0,True,1229.8000000715256,74.0,60.0,40.0,240.18326061404136,[],"[960, 600]",ColorTask,36.0,66.0,,,HRV,HRV_0259,2022-11-30 20:03:15
,wl-rdm,74,212328,0.0-6.66-0.66,0.0,74.0,,,,,,,[],False,,,,,,,62.5,0.0,u,0.0,True,914.8000000715256,55.0,60.0,40.0,258.86903458770655,[],"[960, 600]",ColorTask,37.0,67.0,,,HRV,HRV_0259,2022-11-30 20:03:15
,wl-rdm,75,214545,0.0-6.67-0.67,0.0,75.0,,,,,,,[],False,,,,,,,50.0,0.0,i,1.0,False,755.2999999523163,46.0,60.0,40.0,367.03034124596377,[],"[960, 600]",ColorTask,36.0,68.0,,,HRV,HRV_0259,2022-11-30 20:03:15
,wl-rdm,76,217228,0.0-6.68-0.68,0.0,76.0,,,,,,,[],False,,,,,,,53.2,1.0,u,0.0,False,1254.8000000715256,76.0,60.0,40.0,361.1304060836395,[],"[960, 600]",ColorTask,35.0,69.0,,,HRV,HRV_0259,2022-11-30 20:03:15
,wl-rdm,77,219595,0.0-6.69-0.69,0.0,77.0,,,,,,,[],False,,,,,,,50.0,0.0,u,0.0,True,1076.6000000238419,65.0,60.0,40.0,213.18485597171087,[],"[960, 600]",ColorTask,36.0,70.0,,,HRV,HRV_0259,2022-11-30 20:03:15
,wl-rdm,78,222311,0.0-6.70-0.70,0.0,78.0,,,,,,,[],False,,,,,,,56.4,0.0,u,0.0,True,1404.3000000715256,85.0,60.0,40.0,238.77568462411003,[],"[960, 600]",ColorTask,37.0,71.0,,,HRV,HRV_0259,2022-11-30 20:03:15
,wl-rdm,79,224279,0.0-6.71-0.71,0.0,79.0,,,,,,,[],False,,,,,,,73.6,1.0,i,1.0,True,670.8999999761581,41.0,60.0,40.0,206.43356211386214,[],"[960, 600]",ColorTask,38.0,72.0,,,HRV,HRV_0259,2022-11-30 20:03:15
,wl-rdm,80,226812,0.0-6.72-0.72,0.0,80.0,,,,,,,[],False,,,,,,,62.5,0.0,u,0.0,True,1237.3000000715256,75.0,60.0,40.0,222.7794334709903,[],"[960, 600]",ColorTask,39.0,73.0,,,HRV,HRV_0259,2022-11-30 20:03:15
,wl-rdm,81,229261,0.0-6.73-0.73,0.0,81.0,,,,,,,[],False,,,,,,,62.5,0.0,u,0.0,True,1048.6000000238419,63.0,60.0,40.0,344.9643426686706,[],"[960, 600]",ColorTask,40.0,74.0,,,HRV,HRV_0259,2022-11-30 20:03:15
,wl-rdm,82,231345,0.0-6.74-0.74,0.0,82.0,,,,,,,[],False,,,,,,,62.5,1.0,i,1.0,True,798.2999999523163,48.0,60.0,40.0,215.08649533777051,[],"[960, 600]",ColorTask,41.0,75.0,,,HRV,HRV_0259,2022-11-30 20:03:15
,wl-rdm,83,233412,0.0-6.75-0.75,0.0,83.0,,,,,,,[],False,,,,,,,87.9,1.0,u,0.0,False,769.3999999761581,47.0,60.0,40.0,204.52658444947213,[],"[960, 600]",ColorTask,40.0,76.0,,,HRV,HRV_0259,2022-11-30 20:03:15
,wl-rdm,84,235778,0.0-6.76-0.76,0.0,84.0,,,,,,,[],False,,,,,,,73.6,0.0,u,0.0,True,1002.2999999523163,61.0,60.0,40.0,279.1595139821571,[],"[960, 600]",ColorTask,41.0,77.0,,,HRV,HRV_0259,2022-11-30 20:03:15
,wl-rdm,85,238362,0.0-6.77-0.77,0.0,85.0,,,,,,,[],False,,,,,,,50.0,0.0,i,1.0,False,1159.3999999761581,70.0,60.0,40.0,358.9497766268125,[],"[960, 600]",ColorTask,40.0,78.0,,,HRV,HRV_0259,2022-11-30 20:03:15
,wl-rdm,86,241262,0.0-6.78-0.78,0.0,86.0,,,,,,,[],False,,,,,,,50.0,1.0,u,0.0,False,1489.6000000238419,90.0,60.0,40.0,337.7666556962607,[],"[960, 600]",ColorTask,39.0,79.0,,,HRV,HRV_0259,2022-11-30 20:03:15
,wl-rdm,87,243812,0.0-6.79-0.79,0.0,87.0,,,,,,,[],False,,,,,,,53.2,1.0,i,1.0,True,1251.6000000238419,76.0,60.0,40.0,233.5582238370772,[],"[960, 600]",ColorTask,40.0,80.0,,,HRV,HRV_0259,2022-11-30 20:03:15
,wl-rdm,88,245895,0.0-6.80-0.80,0.0,88.0,,,,,,,[],False,,,,,,,87.9,1.0,i,1.0,True,623.5,38.0,60.0,40.0,392.7234146950608,[],"[960, 600]",ColorTask,41.0,81.0,,,HRV,HRV_0259,2022-11-30 20:03:15
,wl-rdm,89,248145,0.0-6.81-0.81,0.0,89.0,,,,,,,[],False,,,,,,,87.9,1.0,u,0.0,False,810.0,49.0,60.0,40.0,355.7376015026548,[],"[960, 600]",ColorTask,40.0,82.0,,,HRV,HRV_0259,2022-11-30 20:03:15
,wl-rdm,90,251628,0.0-6.82-0.82,0.0,90.0,,,,,,,[],False,,,,,,,62.5,0.0,u,0.0,True,2064.0,124.0,60.0,40.0,339.3995193238297,[],"[960, 600]",ColorTask,41.0,83.0,,,HRV,HRV_0259,2022-11-30 20:03:15
,wl-rdm,91,254596,0.0-6.83-0.83,0.0,91.0,,,,,,,[],False,,,,,,,56.4,1.0,i,1.0,True,1595.0,96.0,60.0,40.0,311.4310924388681,[],"[960, 600]",ColorTask,42.0,84.0,,,HRV,HRV_0259,2022-11-30 20:03:15
,wl-rdm,92,257413,0.0-6.84-0.84,0.0,92.0,,,,,,,[],False,,,,,,,56.4,1.0,i,1.0,True,1540.6000000238419,93.0,60.0,40.0,204.30012964430577,[],"[960, 600]",ColorTask,43.0,85.0,,,HRV,HRV_0259,2022-11-30 20:03:15
,wl-rdm,93,259895,0.0-6.85-0.85,0.0,93.0,,,,,,,[],False,,,,,,,50.0,0.0,u,0.0,True,1113.5,67.0,60.0,40.0,308.2995158333305,[],"[960, 600]",ColorTask,44.0,86.0,,,HRV,HRV_0259,2022-11-30 20:03:15
,wl-rdm,94,262512,0.0-6.86-0.86,0.0,94.0,,,,,,,[],False,,,,,,,73.6,0.0,u,0.0,True,1297.5999999046326,78.0,60.0,40.0,250.74168163045346,[],"[960, 600]",ColorTask,45.0,87.0,,,HRV,HRV_0259,2022-11-30 20:03:15
,wl-rdm,95,264878,0.0-6.87-0.87,0.0,95.0,,,,,,,[],False,,,,,,,50.0,1.0,i,1.0,True,998.2000000476837,60.0,60.0,40.0,314.2977091452372,[],"[960, 600]",ColorTask,46.0,88.0,,,HRV,HRV_0259,2022-11-30 20:03:15
,wl-rdm,96,267979,0.0-6.88-0.88,0.0,96.0,,,,,,,[],False,,,,,,,50.0,0.0,i,1.0,False,1738.8999999761581,105.0,60.0,40.0,284.6158324005575,[],"[960, 600]",ColorTask,45.0,89.0,,,HRV,HRV_0259,2022-11-30 20:03:15
,wl-rdm,97,269962,0.0-6.89-0.89,0.0,97.0,,,,,,,[],False,,,,,,,87.9,0.0,u,0.0,True,671.5,41.0,60.0,40.0,227.8055087238988,[],"[960, 600]",ColorTask,46.0,90.0,,,HRV,HRV_0259,2022-11-30 20:03:15
,wl-rdm,98,272313,0.0-6.90-0.90,0.0,98.0,,,,,,,[],False,,,,,,,62.5,0.0,u,0.0,True,1046.2000000476837,63.0,60.0,40.0,245.91879695431663,[],"[960, 600]",ColorTask,47.0,91.0,,,HRV,HRV_0259,2022-11-30 20:03:15
,wl-rdm,99,274313,0.0-6.91-0.91,0.0,99.0,,,,,,,[],False,,,,,,,53.2,1.0,i,1.0,True,684.6000000238419,42.0,60.0,40.0,222.74526363019302,[],"[960, 600]",ColorTask,48.0,92.0,,,HRV,HRV_0259,2022-11-30 20:03:15
,wl-rdm,100,276545,0.0-6.92-0.92,0.0,100.0,,,,,,,[],False,,,,,,,53.2,1.0,i,1.0,True,822.0,50.0,60.0,40.0,328.4124261604753,[],"[960, 600]",ColorTask,49.0,93.0,,,HRV,HRV_0259,2022-11-30 20:03:15
,wl-rdm,101,279196,0.0-6.93-0.93,0.0,101.0,,,,,,,[],False,,,,,,,56.4,1.0,u,0.0,False,1344.8999999761581,81.0,60.0,40.0,243.05094882213825,[],"[960, 600]",ColorTask,48.0,94.0,,,HRV,HRV_0259,2022-11-30 20:03:15
,wl-rdm,102,281396,0.0-6.94-0.94,0.0,102.0,,,,,,,[],False,,,,,,,73.6,0.0,i,1.0,False,797.8000000715256,48.0,60.0,40.0,338.80748110176717,[],"[960, 600]",ColorTask,47.0,95.0,,,HRV,HRV_0259,2022-11-30 20:03:15
,wl-rdm,103,283445,0.0-6.95-0.95,0.0,103.0,,,,,,,[],False,,,,,,,87.9,0.0,u,0.0,True,749.0999999046326,45.0,60.0,40.0,249.24134166064073,[],"[960, 600]",ColorTask,48.0,96.0,,,HRV,HRV_0259,2022-11-30 20:03:15
,wl-rdm,104,286163,0.0-6.96-0.96,0.0,104.0,,,,,,,[],False,,,,,,,50.0,1.0,u,0.0,False,1388.6000000238419,84.0,60.0,40.0,249.82711712104037,[],"[960, 600]",ColorTask,47.0,97.0,,,HRV,HRV_0259,2022-11-30 20:03:15
,wl-rdm,105,288397,0.0-6.97-0.97,0.0,105.0,,,,,,,[],False,,,,,,,62.5,1.0,i,1.0,True,793.5,48.0,60.0,40.0,363.18800719464997,[],"[960, 600]",ColorTask,48.0,98.0,,,HRV,HRV_0259,2022-11-30 20:03:15
,wl-rdm,106,290879,0.0-6.98-0.98,0.0,106.0,,,,,,,[],False,,,,,,,50.0,1.0,i,1.0,True,1065.5,64.0,60.0,40.0,355.14738538134964,[],"[960, 600]",ColorTask,49.0,99.0,,,HRV,HRV_0259,2022-11-30 20:03:15
,wl-rdm,107,293096,0.0-6.99-0.99,0.0,107.0,,,,,,,[],False,,,,,,,56.4,1.0,i,1.0,True,789.2999999523163,48.0,60.0,40.0,353.93990668975675,[],"[960, 600]",ColorTask,50.0,100.0,,,HRV,HRV_0259,2022-11-30 20:03:15
,wl-rdm,108,295079,0.0-6.100-0.100,0.0,108.0,,,,,,,[],False,,,,,,,73.6,1.0,i,1.0,True,693.5,42.0,60.0,40.0,228.13614155961488,[],"[960, 600]",ColorTask,51.0,101.0,,,HRV,HRV_0259,2022-11-30 20:03:15
,wl-rdm,109,297113,0.0-6.101-0.101,0.0,109.0,,,,,,,[],False,,,,,,,62.5,1.0,i,1.0,True,727.799999833107,44.0,60.0,40.0,246.1651749132073,[],"[960, 600]",ColorTask,52.0,102.0,,,HRV,HRV_0259,2022-11-30 20:03:15
,wl-rdm,110,299330,0.0-6.102-0.102,0.0,110.0,,,,,,,[],False,,,,,,,53.2,1.0,i,1.0,True,769.1999999284744,47.0,60.0,40.0,381.7859974728841,[],"[960, 600]",ColorTask,53.0,103.0,,,HRV,HRV_0259,2022-11-30 20:03:15
,wl-rdm,111,301380,0.0-6.103-0.103,0.0,111.0,,,,,,,[],False,,,,,,,62.5,1.0,i,1.0,True,681.7999999523163,41.0,60.0,40.0,313.75094759290306,[],"[960, 600]",ColorTask,54.0,104.0,,,HRV,HRV_0259,2022-11-30 20:03:15
,wl-rdm,112,303402,0.0-6.104-0.104,0.0,112.0,,,,,,,[],False,,,,,,,62.5,0.0,u,0.0,True,637.5,39.0,60.0,40.0,284.99222991655876,[],"[960, 600]",ColorTask,55.0,105.0,,,HRV,HRV_0259,2022-11-30 20:03:15
,wl-rdm,113,305546,0.0-6.105-0.105,0.0,113.0,,,,,,,[],False,,,,,,,73.6,1.0,i,1.0,True,753.5,46.0,60.0,40.0,328.59383148440315,[],"[960, 600]",ColorTask,56.0,106.0,,,HRV,HRV_0259,2022-11-30 20:03:15
,wl-rdm,114,308246,0.0-6.106-0.106,0.0,114.0,,,,,,,[],False,,,,,,,50.0,0.0,i,1.0,False,1354.2000000476837,82.0,60.0,40.0,258.1000896289928,[],"[960, 600]",ColorTask,55.0,107.0,,,HRV,HRV_0259,2022-11-30 20:03:15
,wl-rdm,115,310396,0.0-6.107-0.107,0.0,115.0,,,,,,,[],False,,,,,,,87.9,1.0,i,1.0,True,755.0,46.0,60.0,40.0,307.7227016228984,[],"[960, 600]",ColorTask,56.0,108.0,,,HRV,HRV_0259,2022-11-30 20:03:15
,wl-html-keyboard-response,116,318000,0.0-7.0-0.0,1.0,116.0,,,,,,,,,,5593.0,1.0,0,,,,,,,,,,,,,,,,,,,,HRV,HRV_0259,2022-11-30 20:03:15
,wl-rdm,117,320829,0.0-8.0-0.0,1.0,117.0,,,,,,,[],False,,,,,,,62.5,0.0,u,0.0,True,1471.1000000238419,89.0,60.0,40.0,297.9622747398929,[],"[960, 600]",ColorTask,57.0,1.0,,,HRV,HRV_0259,2022-11-30 20:03:15
,wl-rdm,118,322862,0.0-8.1-0.1,1.0,118.0,,,,,,,[],False,,,,,,,56.4,1.0,i,1.0,True,747.3999999761581,45.0,60.0,40.0,224.8812824092586,[],"[960, 600]",ColorTask,58.0,2.0,,,HRV,HRV_0259,2022-11-30 20:03:15
,wl-rdm,119,325747,0.0-8.2-0.2,1.0,119.0,,,,,,,[],False,,,,,,,56.4,0.0,u,0.0,True,1564.8000000715256,94.0,60.0,40.0,244.01878441068536,[],"[960, 600]",ColorTask,59.0,3.0,,,HRV,HRV_0259,2022-11-30 20:03:15
,wl-rdm,120,328296,0.0-8.3-0.3,1.0,120.0,,,,,,,[],False,,,,,,,50.0,0.0,u,0.0,True,1114.5,67.0,60.0,40.0,351.5665469822184,[],"[960, 600]",ColorTask,60.0,4.0,,,HRV,HRV_0259,2022-11-30 20:03:15
,wl-rdm,121,330897,0.0-8.4-0.4,1.0,121.0,,,,,,,[],False,,,,,,,62.5,0.0,u,0.0,True,1219.7999999523163,74.0,60.0,40.0,304.8345101248665,[],"[960, 600]",ColorTask,61.0,5.0,,,HRV,HRV_0259,2022-11-30 20:03:15
,wl-rdm,122,333563,0.0-8.5-0.5,1.0,122.0,,,,,,,[],False,,,,,,,53.2,0.0,i,1.0,False,1252.3000000715256,76.0,60.0,40.0,325.1682838729903,[],"[960, 600]",ColorTask,60.0,6.0,,,HRV,HRV_0259,2022-11-30 20:03:15
,wl-rdm,123,335764,0.0-8.6-0.6,1.0,123.0,,,,,,,[],False,,,,,,,73.6,0.0,u,0.0,True,768.8999999761581,47.0,60.0,40.0,346.2126618958694,[],"[960, 600]",ColorTask,61.0,7.0,,,HRV,HRV_0259,2022-11-30 20:03:15
,wl-rdm,124,337747,0.0-8.7-0.7,1.0,124.0,,,,,,,[],False,,,,,,,73.6,0.0,u,0.0,True,657.9000000953674,40.0,60.0,40.0,242.34194454469815,[],"[960, 600]",ColorTask,62.0,8.0,,,HRV,HRV_0259,2022-11-30 20:03:15
,wl-rdm,125,339647,0.0-8.8-0.8,1.0,125.0,,,,,,,[],False,,,,,,,62.5,1.0,i,1.0,True,571.2999999523163,35.0,60.0,40.0,243.34654625643515,[],"[960, 600]",ColorTask,63.0,9.0,,,HRV,HRV_0259,2022-11-30 20:03:15
,wl-rdm,126,341730,0.0-8.9-0.9,1.0,126.0,,,,,,,[],False,,,,,,,87.9,1.0,i,1.0,True,794.1000000238419,48.0,60.0,40.0,203.08626643557352,[],"[960, 600]",ColorTask,64.0,10.0,,,HRV,HRV_0259,2022-11-30 20:03:15
,wl-rdm,127,344096,0.0-8.10-0.10,1.0,127.0,,,,,,,[],False,,,,,,,50.0,1.0,i,1.0,True,1048.7000000476837,63.0,60.0,40.0,236.1224865500273,[],"[960, 600]",ColorTask,65.0,11.0,,,HRV,HRV_0259,2022-11-30 20:03:15
,wl-rdm,128,346147,0.0-8.11-0.11,1.0,128.0,,,,,,,[],False,,,,,,,62.5,1.0,i,1.0,True,719.2000000476837,44.0,60.0,40.0,249.12849611736647,[],"[960, 600]",ColorTask,66.0,12.0,,,HRV,HRV_0259,2022-11-30 20:03:15
,wl-rdm,129,348030,0.0-8.12-0.12,1.0,129.0,,,,,,,[],False,,,,,,,50.0,0.0,i,1.0,False,588.8000000715256,36.0,60.0,40.0,204.21388990971604,[],"[960, 600]",ColorTask,65.0,13.0,,,HRV,HRV_0259,2022-11-30 20:03:15
,wl-rdm,130,350197,0.0-8.13-0.13,1.0,130.0,,,,,,,[],False,,,,,,,87.9,0.0,u,0.0,True,802.8000000715256,49.0,60.0,40.0,298.0415086810122,[],"[960, 600]",ColorTask,66.0,14.0,,,HRV,HRV_0259,2022-11-30 20:03:15
,wl-rdm,131,352163,0.0-8.14-0.14,1.0,131.0,,,,,,,[],False,,,,,,,87.9,1.0,i,1.0,True,499.2999999523163,30.0,60.0,40.0,383.54405902115934,[],"[960, 600]",ColorTask,67.0,15.0,,,HRV,HRV_0259,2022-11-30 20:03:15
,wl-rdm,132,354180,0.0-8.15-0.15,1.0,132.0,,,,,,,[],False,,,,,,,53.2,0.0,u,0.0,True,737.8999999761581,45.0,60.0,40.0,206.89505211409465,[],"[960, 600]",ColorTask,68.0,16.0,,,HRV,HRV_0259,2022-11-30 20:03:15
,wl-rdm,133,356063,0.0-8.16-0.16,1.0,133.0,,,,,,,[],False,,,,,,,50.0,1.0,i,1.0,True,537.7999999523163,33.0,60.0,40.0,256.28053682744496,[],"[960, 600]",ColorTask,69.0,17.0,,,HRV,HRV_0259,2022-11-30 20:03:15
,wl-rdm,134,358114,0.0-8.17-0.17,1.0,134.0,,,,,,,[],False,,,,,,,87.9,0.0,i,1.0,False,633.1000000238419,39.0,60.0,40.0,325.36712394323797,[],"[960, 600]",ColorTask,68.0,18.0,,,HRV,HRV_0259,2022-11-30 20:03:15
,wl-rdm,135,360313,0.0-8.18-0.18,1.0,135.0,,,,,,,[],False,,,,,,,56.4,1.0,i,1.0,True,923.299999833107,56.0,60.0,40.0,211.81576905771917,[],"[960, 600]",ColorTask,69.0,19.0,,,HRV,HRV_0259,2022-11-30 20:03:15
,wl-rdm,136,362431,0.0-8.19-0.19,1.0,136.0,,,,,,,[],False,,,,,,,87.9,1.0,i,1.0,True,706.0,43.0,60.0,40.0,318.7949664333741,[],"[960, 600]",ColorTask,70.0,20.0,,,HRV,HRV_0259,2022-11-30 20:03:15
,wl-rdm,137,365647,0.0-8.20-0.20,1.0,137.0,,,,,,,[],False,,,,,,,50.0,1.0,i,1.0,True,1751.9000000953674,106.0,60.0,40.0,383.58118265106225,[],"[960, 600]",ColorTask,71.0,21.0,,,HRV,HRV_0259,2022-11-30 20:03:15
,wl-rdm,138,367664,0.0-8.21-0.21,1.0,138.0,,,,,,,[],False,,,,,,,53.2,1.0,i,1.0,True,623.5,38.0,60.0,40.0,327.6060388606639,[],"[960, 600]",ColorTask,72.0,22.0,,,HRV,HRV_0259,2022-11-30 20:03:15
,wl-rdm,139,369748,0.0-8.22-0.22,1.0,139.0,,,,,,,[],False,,,,,,,87.9,0.0,u,0.0,True,628.8999999761581,38.0,60.0,40.0,394.8102888264259,[],"[960, 600]",ColorTask,73.0,23.0,,,HRV,HRV_0259,2022-11-30 20:03:15
,wl-rdm,140,372464,0.0-8.23-0.23,1.0,140.0,,,,,,,[],False,,,,,,,62.5,1.0,i,1.0,True,1262.8999999761581,76.0,60.0,40.0,391.0895018946957,[],"[960, 600]",ColorTask,74.0,24.0,,,HRV,HRV_0259,2022-11-30 20:03:15
,wl-rdm,141,374381,0.0-8.24-0.24,1.0,141.0,,,,,,,[],False,,,,,,,73.6,1.0,i,1.0,True,613.5999999046326,37.0,60.0,40.0,220.16717234804645,[],"[960, 600]",ColorTask,75.0,25.0,,,HRV,HRV_0259,2022-11-30 20:03:15
,wl-rdm,142,376464,0.0-8.25-0.25,1.0,142.0,,,,,,,[],False,,,,,,,73.6,1.0,i,1.0,True,665.0,40.0,60.0,40.0,361.31646665586095,[],"[960, 600]",ColorTask,76.0,26.0,,,HRV,HRV_0259,2022-11-30 20:03:15
,wl-rdm,143,378297,0.0-8.26-0.26,1.0,143.0,,,,,,,[],False,,,,,,,62.5,0.0,u,0.0,True,550.6000000238419,34.0,60.0,40.0,206.67979765400887,[],"[960, 600]",ColorTask,77.0,27.0,,,HRV,HRV_0259,2022-11-30 20:03:15
,wl-rdm,144,380563,0.0-8.27-0.27,1.0,144.0,,,,,,,[],False,,,,,,,73.6,0.0,u,0.0,True,832.2000000476837,50.0,60.0,40.0,374.82379957343016,[],"[960, 600]",ColorTask,78.0,28.0,,,HRV,HRV_0259,2022-11-30 20:03:15
,wl-rdm,145,383064,0.0-8.28-0.28,1.0,145.0,,,,,,,[],False,,,,,,,53.2,0.0,i,1.0,False,1198.0999999046326,72.0,60.0,40.0,242.2380589095545,[],"[960, 600]",ColorTask,77.0,29.0,,,HRV,HRV_0259,2022-11-30 20:03:15
,wl-rdm,146,385781,0.0-8.29-0.29,1.0,146.0,,,,,,,[],False,,,,,,,53.2,1.0,i,1.0,True,1413.8999999761581,85.0,60.0,40.0,235.60210232400948,[],"[960, 600]",ColorTask,78.0,30.0,,,HRV,HRV_0259,2022-11-30 20:03:15
,wl-rdm,147,387881,0.0-8.30-0.30,1.0,147.0,,,,,,,[],False,,,,,,,53.2,1.0,i,1.0,True,791.1000000238419,48.0,60.0,40.0,233.07200016132242,[],"[960, 600]",ColorTask,79.0,31.0,,,HRV,HRV_0259,2022-11-30 20:03:15
,wl-rdm,148,389947,0.0-8.31-0.31,1.0,148.0,,,,,,,[],False,,,,,,,53.2,1.0,i,1.0,True,739.5,45.0,60.0,40.0,247.47440000028766,[],"[960, 600]",ColorTask,80.0,32.0,,,HRV,HRV_0259,2022-11-30 20:03:15
,wl-rdm,149,392664,0.0-8.32-0.32,1.0,149.0,,,,,,,[],False,,,,,,,53.2,0.0,i,1.0,False,1404.7999999523163,85.0,60.0,40.0,229.14994905861943,[],"[960, 600]",ColorTask,79.0,33.0,,,HRV,HRV_0259,2022-11-30 20:03:15
,wl-rdm,150,394682,0.0-8.33-0.33,1.0,150.0,,,,,,,[],False,,,,,,,73.6,1.0,i,1.0,True,703.7999999523163,43.0,60.0,40.0,233.7792355924137,[],"[960, 600]",ColorTask,80.0,34.0,,,HRV,HRV_0259,2022-11-30 20:03:15
,wl-rdm,151,397781,0.0-8.34-0.34,1.0,151.0,,,,,,,[],False,,,,,,,53.2,0.0,u,0.0,True,1621.1000000238419,98.0,60.0,40.0,396.20151095226,[],"[960, 600]",ColorTask,81.0,35.0,,,HRV,HRV_0259,2022-11-30 20:03:15
,wl-rdm,152,400298,0.0-8.35-0.35,1.0,152.0,,,,,,,[],False,,,,,,,56.4,0.0,i,1.0,False,1074.2000000476837,65.0,60.0,40.0,352.5175325429158,[],"[960, 600]",ColorTask,80.0,36.0,,,HRV,HRV_0259,2022-11-30 20:03:15
,wl-rdm,153,402415,0.0-8.36-0.36,1.0,153.0,,,,,,,[],False,,,,,,,73.6,0.0,u,0.0,True,816.0,49.0,60.0,40.0,243.55732257526364,[],"[960, 600]",ColorTask,81.0,37.0,,,HRV,HRV_0259,2022-11-30 20:03:15
,wl-rdm,154,404648,0.0-8.37-0.37,1.0,154.0,,,,,,,[],False,,,,,,,56.4,1.0,i,1.0,True,918.3000000715256,56.0,60.0,40.0,233.4304043021791,[],"[960, 600]",ColorTask,82.0,38.0,,,HRV,HRV_0259,2022-11-30 20:03:15
,wl-rdm,155,406614,0.0-8.38-0.38,1.0,155.0,,,,,,,[],False,,,,,,,87.9,1.0,i,1.0,True,518.3999999761581,32.0,60.0,40.0,355.3107115306864,[],"[960, 600]",ColorTask,83.0,39.0,,,HRV,HRV_0259,2022-11-30 20:03:15
,wl-rdm,156,408498,0.0-8.39-0.39,1.0,156.0,,,,,,,[],False,,,,,,,73.6,1.0,i,1.0,True,611.0999999046326,37.0,60.0,40.0,200.64414545295116,[],"[960, 600]",ColorTask,84.0,40.0,,,HRV,HRV_0259,2022-11-30 20:03:15
,wl-rdm,157,410497,0.0-8.40-0.40,1.0,157.0,,,,,,,[],False,,,,,,,62.5,1.0,i,1.0,True,713.7000000476837,43.0,60.0,40.0,203.82832186857834,[],"[960, 600]",ColorTask,85.0,41.0,,,HRV,HRV_0259,2022-11-30 20:03:15
,wl-rdm,158,412565,0.0-8.41-0.41,1.0,158.0,,,,,,,[],False,,,,,,,53.2,1.0,i,1.0,True,695.7999999523163,42.0,60.0,40.0,290.48715366685593,[],"[960, 600]",ColorTask,86.0,42.0,,,HRV,HRV_0259,2022-11-30 20:03:15
,wl-rdm,159,414847,0.0-8.42-0.42,1.0,159.0,,,,,,,[],False,,,,,,,62.5,0.0,i,1.0,False,979.4999998807907,59.0,60.0,40.0,228.36573934120418,[],"[960, 600]",ColorTask,85.0,43.0,,,HRV,HRV_0259,2022-11-30 20:03:15
,wl-rdm,160,416981,0.0-8.43-0.43,1.0,160.0,,,,,,,[],False,,,,,,,50.0,1.0,i,1.0,True,804.2999999523163,49.0,60.0,40.0,262.58816388149353,[],"[960, 600]",ColorTask,86.0,44.0,,,HRV,HRV_0259,2022-11-30 20:03:15
,wl-rdm,161,418831,0.0-8.44-0.44,1.0,161.0,,,,,,,[],False,,,,,,,87.9,0.0,u,0.0,True,570.5,35.0,60.0,40.0,202.6791235305763,[],"[960, 600]",ColorTask,87.0,45.0,,,HRV,HRV_0259,2022-11-30 20:03:15
,wl-rdm,162,420764,0.0-8.45-0.45,1.0,162.0,,,,,,,[],False,,,,,,,56.4,1.0,i,1.0,True,622.4000000953674,38.0,60.0,40.0,246.08026667585753,[],"[960, 600]",ColorTask,88.0,46.0,,,HRV,HRV_0259,2022-11-30 20:03:15
,wl-rdm,163,423299,0.0-8.46-0.46,1.0,163.0,,,,,,,[],False,,,,,,,50.0,0.0,u,0.0,True,1212.3000000715256,73.0,60.0,40.0,250.42120080484932,[],"[960, 600]",ColorTask,89.0,47.0,,,HRV,HRV_0259,2022-11-30 20:03:15
,wl-rdm,164,425365,0.0-8.47-0.47,1.0,164.0,,,,,,,[],False,,,,,,,53.2,1.0,u,0.0,False,771.6000000238419,47.0,60.0,40.0,215.62975129431018,[],"[960, 600]",ColorTask,88.0,48.0,,,HRV,HRV_0259,2022-11-30 20:03:15
,wl-rdm,165,427864,0.0-8.48-0.48,1.0,165.0,,,,,,,[],False,,,,,,,53.2,1.0,u,0.0,False,1098.5,66.0,60.0,40.0,346.38842741988077,[],"[960, 600]",ColorTask,87.0,49.0,,,HRV,HRV_0259,2022-11-30 20:03:15
,wl-rdm,166,429998,0.0-8.49-0.49,1.0,166.0,,,,,,,[],False,,,,,,,87.9,1.0,i,1.0,True,787.2999999523163,48.0,60.0,40.0,263.9410871274097,[],"[960, 600]",ColorTask,88.0,50.0,,,HRV,HRV_0259,2022-11-30 20:03:15
,wl-rdm,167,432147,0.0-8.50-0.50,1.0,167.0,,,,,,,[],False,,,,,,,73.6,0.0,u,0.0,True,803.7000000476837,49.0,60.0,40.0,266.47788559393206,[],"[960, 600]",ColorTask,89.0,51.0,,,HRV,HRV_0259,2022-11-30 20:03:15
,wl-rdm,168,434482,0.0-8.51-0.51,1.0,168.0,,,,,,,[],False,,,,,,,50.0,1.0,i,1.0,True,939.6999999284744,57.0,60.0,40.0,327.1288132207074,[],"[960, 600]",ColorTask,90.0,52.0,,,HRV,HRV_0259,2022-11-30 20:03:15
,wl-rdm,169,437131,0.0-8.52-0.52,1.0,169.0,,,,,,,[],False,,,,,,,50.0,0.0,u,0.0,True,1281.0,77.0,60.0,40.0,298.1064168543955,[],"[960, 600]",ColorTask,91.0,53.0,,,HRV,HRV_0259,2022-11-30 20:03:15
,wl-rdm,170,439115,0.0-8.53-0.53,1.0,170.0,,,,,,,[],False,,,,,,,62.5,1.0,i,1.0,True,695.5999999046326,42.0,60.0,40.0,215.50337105369135,[],"[960, 600]",ColorTask,92.0,54.0,,,HRV,HRV_0259,2022-11-30 20:03:15
,wl-rdm,171,441081,0.0-8.54-0.54,1.0,171.0,,,,,,,[],False,,,,,,,87.9,1.0,i,1.0,True,565.0999999046326,34.0,60.0,40.0,345.06345662600097,[],"[960, 600]",ColorTask,93.0,55.0,,,HRV,HRV_0259,2022-11-30 20:03:15
,wl-rdm,172,443899,0.0-8.55-0.55,1.0,172.0,,,,,,,[],False,,,,,,,62.5,0.0,i,1.0,False,1545.2999999523163,93.0,60.0,40.0,208.38605066151135,[],"[960, 600]",ColorTask,92.0,56.0,,,HRV,HRV_0259,2022-11-30 20:03:15
,wl-rdm,173,446715,0.0-8.56-0.56,1.0,173.0,,,,,,,[],False,,,,,,,62.5,1.0,u,0.0,False,1354.2000000476837,82.0,60.0,40.0,386.6810271384155,[],"[960, 600]",ColorTask,91.0,57.0,,,HRV,HRV_0259,2022-11-30 20:03:15
,wl-rdm,174,448882,0.0-8.57-0.57,1.0,174.0,,,,,,,[],False,,,,,,,73.6,1.0,i,1.0,True,720.7000000476837,44.0,60.0,40.0,353.036997420474,[],"[960, 600]",ColorTask,92.0,58.0,,,HRV,HRV_0259,2022-11-30 20:03:15
,wl-rdm,175,450865,0.0-8.58-0.58,1.0,175.0,,,,,,,[],False,,,,,,,87.9,1.0,i,1.0,True,604.6000000238419,37.0,60.0,40.0,286.75692598251777,[],"[960, 600]",ColorTask,93.0,59.0,,,HRV,HRV_0259,2022-11-30 20:03:15
,wl-rdm,176,453365,0.0-8.59-0.59,1.0,176.0,,,,,,,[],False,,,,,,,56.4,0.0,u,0.0,True,1059.2000000476837,64.0,60.0,40.0,365.54440768436234,[],"[960, 600]",ColorTask,94.0,60.0,,,HRV,HRV_0259,2022-11-30 20:03:15
,wl-rdm,177,455632,0.0-8.60-0.60,1.0,177.0,,,,,,,[],False,,,,,,,73.6,1.0,i,1.0,True,880.2999999523163,53.0,60.0,40.0,329.5931859981926,[],"[960, 600]",ColorTask,95.0,61.0,,,HRV,HRV_0259,2022-11-30 20:03:15
,wl-rdm,178,457715,0.0-8.61-0.61,1.0,178.0,,,,,,,[],False,,,,,,,56.4,1.0,i,1.0,True,804.2999999523163,49.0,60.0,40.0,205.35996189082013,[],"[960, 600]",ColorTask,96.0,62.0,,,HRV,HRV_0259,2022-11-30 20:03:15
,wl-rdm,179,460598,0.0-8.62-0.62,1.0,179.0,,,,,,,[],False,,,,,,,56.4,1.0,i,1.0,True,1480.3999999761581,89.0,60.0,40.0,339.5795853576235,[],"[960, 600]",ColorTask,97.0,63.0,,,HRV,HRV_0259,2022-11-30 20:03:15
,wl-rdm,180,463182,0.0-8.63-0.63,1.0,180.0,,,,,,,[],False,,,,,,,62.5,1.0,i,1.0,True,1175.8000000715256,71.0,60.0,40.0,330.55558918135483,[],"[960, 600]",ColorTask,98.0,64.0,,,HRV,HRV_0259,2022-11-30 20:03:15
,wl-rdm,181,465098,0.0-8.64-0.64,1.0,181.0,,,,,,,[],False,,,,,,,87.9,0.0,u,0.0,True,595.6000000238419,36.0,60.0,40.0,262.92220449690075,[],"[960, 600]",ColorTask,99.0,65.0,,,HRV,HRV_0259,2022-11-30 20:03:15
,wl-rdm,182,467449,0.0-8.65-0.65,1.0,182.0,,,,,,,[],False,,,,,,,50.0,0.0,i,1.0,False,921.0999999046326,56.0,60.0,40.0,354.72264011390394,[],"[960, 600]",ColorTask,98.0,66.0,,,HRV,HRV_0259,2022-11-30 20:03:15
,wl-rdm,183,469966,0.0-8.66-0.66,1.0,183.0,,,,,,,[],False,,,,,,,50.0,1.0,u,0.0,False,1226.8999999761581,74.0,60.0,40.0,226.0113650011021,[],"[960, 600]",ColorTask,97.0,67.0,,,HRV,HRV_0259,2022-11-30 20:03:15
,wl-rdm,184,472465,0.0-8.67-0.67,1.0,184.0,,,,,,,[],False,,,,,,,50.0,0.0,u,0.0,True,1139.5999999046326,69.0,60.0,40.0,274.8586120443472,[],"[960, 600]",ColorTask,98.0,68.0,,,HRV,HRV_0259,2022-11-30 20:03:15
,wl-rdm,185,475033,0.0-8.68-0.68,1.0,185.0,,,,,,,[],False,,,,,,,53.2,0.0,i,1.0,False,1100.5,67.0,60.0,40.0,378.3546503990582,[],"[960, 600]",ColorTask,97.0,69.0,,,HRV,HRV_0259,2022-11-30 20:03:15
,wl-rdm,186,477149,0.0-8.69-0.69,1.0,186.0,,,,,,,[],False,,,,,,,87.9,0.0,i,1.0,False,807.8999999761581,49.0,60.0,40.0,219.77368578649197,[],"[960, 600]",ColorTask,96.0,70.0,,,HRV,HRV_0259,2022-11-30 20:03:15
,wl-rdm,187,479515,0.0-8.70-0.70,1.0,187.0,,,,,,,[],False,,,,,,,73.6,0.0,u,0.0,True,1009.7000000476837,61.0,60.0,40.0,275.7597330642535,[],"[960, 600]",ColorTask,97.0,71.0,,,HRV,HRV_0259,2022-11-30 20:03:15
,wl-rdm,188,482532,0.0-8.71-0.71,1.0,188.0,,,,,,,[],False,,,,,,,53.2,0.0,u,0.0,True,1746.0,105.0,60.0,40.0,204.18325742354315,[],"[960, 600]",ColorTask,98.0,72.0,,,HRV,HRV_0259,2022-11-30 20:03:15
,wl-rdm,189,485033,0.0-8.72-0.72,1.0,189.0,,,,,,,[],False,,,,,,,50.0,0.0,u,0.0,True,1060.2000000476837,64.0,60.0,40.0,353.8061231876565,[],"[960, 600]",ColorTask,99.0,73.0,,,HRV,HRV_0259,2022-11-30 20:03:15
,wl-rdm,190,487865,0.0-8.73-0.73,1.0,190.0,,,,,,,[],False,,,,,,,62.5,0.0,u,0.0,True,1398.7000000476837,84.0,60.0,40.0,368.2871517195201,[],"[960, 600]",ColorTask,100.0,74.0,,,HRV,HRV_0259,2022-11-30 20:03:15
,wl-rdm,191,489981,0.0-8.74-0.74,1.0,191.0,,,,,,,[],False,,,,,,,56.4,0.0,u,0.0,True,837.7000000476837,51.0,60.0,40.0,212.41378635948936,[],"[960, 600]",ColorTask,101.0,75.0,,,HRV,HRV_0259,2022-11-30 20:03:15
,wl-rdm,192,492499,0.0-8.75-0.75,1.0,192.0,,,,,,,[],False,,,,,,,56.4,1.0,i,1.0,True,1061.8999999761581,64.0,60.0,40.0,388.0533459860177,[],"[960, 600]",ColorTask,102.0,76.0,,,HRV,HRV_0259,2022-11-30 20:03:15
,wl-rdm,193,494566,0.0-8.76-0.76,1.0,193.0,,,,,,,[],False,,,,,,,50.0,1.0,i,1.0,True,727.6999999284744,44.0,60.0,40.0,250.75484040428182,[],"[960, 600]",ColorTask,103.0,77.0,,,HRV,HRV_0259,2022-11-30 20:03:15
,wl-rdm,194,496499,0.0-8.77-0.77,1.0,194.0,,,,,,,[],False,,,,,,,73.6,0.0,u,0.0,True,592.0999999046326,36.0,60.0,40.0,261.13578917841613,[],"[960, 600]",ColorTask,104.0,78.0,,,HRV,HRV_0259,2022-11-30 20:03:15
,wl-rdm,195,498815,0.0-8.78-0.78,1.0,195.0,,,,,,,[],False,,,,,,,56.4,0.0,u,0.0,True,919.6999999284744,56.0,60.0,40.0,324.5526823708533,[],"[960, 600]",ColorTask,105.0,79.0,,,HRV,HRV_0259,2022-11-30 20:03:15
,wl-rdm,196,501065,0.0-8.79-0.79,1.0,196.0,,,,,,,[],False,,,,,,,73.6,0.0,u,0.0,True,969.7999999523163,59.0,60.0,40.0,214.80108437291145,[],"[960, 600]",ColorTask,106.0,80.0,,,HRV,HRV_0259,2022-11-30 20:03:15
,wl-rdm,197,503400,0.0-8.80-0.80,1.0,197.0,,,,,,,[],False,,,,,,,53.2,0.0,u,0.0,True,1011.7999999523163,61.0,60.0,40.0,261.29034788433114,[],"[960, 600]",ColorTask,107.0,81.0,,,HRV,HRV_0259,2022-11-30 20:03:15
,wl-rdm,198,505399,0.0-8.81-0.81,1.0,198.0,,,,,,,[],False,,,,,,,87.9,0.0,u,0.0,True,637.9000000953674,39.0,60.0,40.0,299.4890975084628,[],"[960, 600]",ColorTask,108.0,82.0,,,HRV,HRV_0259,2022-11-30 20:03:15
,wl-rdm,199,507349,0.0-8.82-0.82,1.0,199.0,,,,,,,[],False,,,,,,,87.9,1.0,i,1.0,True,603.1000000238419,37.0,60.0,40.0,278.2212347804079,[],"[960, 600]",ColorTask,109.0,83.0,,,HRV,HRV_0259,2022-11-30 20:03:15
,wl-rdm,200,509549,0.0-8.83-0.83,1.0,200.0,,,,,,,[],False,,,,,,,62.5,1.0,i,1.0,True,830.3000000715256,50.0,60.0,40.0,304.1113370034683,[],"[960, 600]",ColorTask,110.0,84.0,,,HRV,HRV_0259,2022-11-30 20:03:15
,wl-rdm,201,511549,0.0-8.84-0.84,1.0,201.0,,,,,,,[],False,,,,,,,87.9,0.0,u,0.0,True,586.5,36.0,60.0,40.0,326.9445590514298,[],"[960, 600]",ColorTask,111.0,85.0,,,HRV,HRV_0259,2022-11-30 20:03:15
,wl-rdm,202,513882,0.0-8.85-0.85,1.0,202.0,,,,,,,[],False,,,,,,,56.4,0.0,u,0.0,True,1041.6000000238419,63.0,60.0,40.0,226.8904815554021,[],"[960, 600]",ColorTask,112.0,86.0,,,HRV,HRV_0259,2022-11-30 20:03:15
,wl-rdm,203,515866,0.0-8.86-0.86,1.0,203.0,,,,,,,[],False,,,,,,,87.9,0.0,u,0.0,True,565.0,34.0,60.0,40.0,340.46125675420603,[],"[960, 600]",ColorTask,113.0,87.0,,,HRV,HRV_0259,2022-11-30 20:03:15
,wl-rdm,204,517799,0.0-8.87-0.87,1.0,204.0,,,,,,,[],False,,,,,,,87.9,1.0,i,1.0,True,594.1000000238419,36.0,60.0,40.0,255.59718644189192,[],"[960, 600]",ColorTask,114.0,88.0,,,HRV,HRV_0259,2022-11-30 20:03:15
,wl-rdm,205,520015,0.0-8.88-0.88,1.0,205.0,,,,,,,[],False,,,,,,,73.6,1.0,i,1.0,True,803.9000000953674,49.0,60.0,40.0,339.23995692015785,[],"[960, 600]",ColorTask,115.0,89.0,,,HRV,HRV_0259,2022-11-30 20:03:15
,wl-rdm,206,521933,0.0-8.89-0.89,1.0,206.0,,,,,,,[],False,,,,,,,62.5,0.0,u,0.0,True,608.8999999761581,37.0,60.0,40.0,245.83797826324536,[],"[960, 600]",ColorTask,116.0,90.0,,,HRV,HRV_0259,2022-11-30 20:03:15
,wl-rdm,207,524216,0.0-8.90-0.90,1.0,207.0,,,,,,,[],False,,,,,,,73.6,0.0,u,0.0,True,953.3999999761581,58.0,60.0,40.0,255.27656385201254,[],"[960, 600]",ColorTask,117.0,91.0,,,HRV,HRV_0259,2022-11-30 20:03:15
,wl-rdm,208,526549,0.0-8.91-0.91,1.0,208.0,,,,,,,[],False,,,,,,,56.4,0.0,u,0.0,True,1021.3000000715256,62.0,60.0,40.0,233.0536862559839,[],"[960, 600]",ColorTask,118.0,92.0,,,HRV,HRV_0259,2022-11-30 20:03:15
,wl-rdm,209,528983,0.0-8.92-0.92,1.0,209.0,,,,,,,[],False,,,,,,,56.4,1.0,i,1.0,True,1003.7000000476837,61.0,60.0,40.0,343.00528840226724,[],"[960, 600]",ColorTask,119.0,93.0,,,HRV,HRV_0259,2022-11-30 20:03:15
,wl-rdm,210,531316,0.0-8.93-0.93,1.0,210.0,,,,,,,[],False,,,,,,,50.0,0.0,i,1.0,False,964.7000000476837,58.0,60.0,40.0,313.12316550813074,[],"[960, 600]",ColorTask,118.0,94.0,,,HRV,HRV_0259,2022-11-30 20:03:15
,wl-rdm,211,533266,0.0-8.94-0.94,1.0,211.0,,,,,,,[],False,,,,,,,73.6,1.0,i,1.0,True,569.1999999284744,35.0,60.0,40.0,290.8858166805672,[],"[960, 600]",ColorTask,119.0,95.0,,,HRV,HRV_0259,2022-11-30 20:03:15
,wl-rdm,212,535583,0.0-8.95-0.95,1.0,212.0,,,,,,,[],False,,,,,,,53.2,0.0,i,1.0,False,921.3999999761581,56.0,60.0,40.0,326.7081886767858,[],"[960, 600]",ColorTask,118.0,96.0,,,HRV,HRV_0259,2022-11-30 20:03:15
,wl-rdm,213,537617,0.0-8.96-0.96,1.0,213.0,,,,,,,[],False,,,,,,,53.2,1.0,i,1.0,True,755.1999999284744,46.0,60.0,40.0,206.04026640932392,[],"[960, 600]",ColorTask,119.0,97.0,,,HRV,HRV_0259,2022-11-30 20:03:15
,wl-rdm,214,539766,0.0-8.97-0.97,1.0,214.0,,,,,,,[],False,,,,,,,62.5,0.0,u,0.0,True,815.1000000238419,49.0,60.0,40.0,257.69360191992484,[],"[960, 600]",ColorTask,120.0,98.0,,,HRV,HRV_0259,2022-11-30 20:03:15
,wl-rdm,215,542116,0.0-8.98-0.98,1.0,215.0,,,,,,,[],False,,,,,,,62.5,0.0,u,0.0,True,1013.5,61.0,60.0,40.0,271.1899571530886,[],"[960, 600]",ColorTask,121.0,99.0,,,HRV,HRV_0259,2022-11-30 20:03:15
,wl-rdm,216,544433,0.0-8.99-0.99,1.0,216.0,,,,,,,[],False,,,,,,,56.4,0.0,u,0.0,True,948.1000000238419,57.0,60.0,40.0,299.6000918498373,[],"[960, 600]",ColorTask,122.0,100.0,,,HRV,HRV_0259,2022-11-30 20:03:15
,wl-rdm,217,546900,0.0-8.100-0.100,1.0,217.0,,,,,,,[],False,,,,,,,53.2,1.0,i,1.0,True,1121.1000000238419,68.0,60.0,40.0,250.56190114803877,[],"[960, 600]",ColorTask,123.0,101.0,,,HRV,HRV_0259,2022-11-30 20:03:15
,wl-rdm,218,549633,0.0-8.101-0.101,1.0,218.0,,,,,,,[],False,,,,,,,50.0,1.0,i,1.0,True,1308.1000000238419,79.0,60.0,40.0,343.49341218054474,[],"[960, 600]",ColorTask,124.0,102.0,,,HRV,HRV_0259,2022-11-30 20:03:15
,wl-rdm,219,552116,0.0-8.102-0.102,1.0,219.0,,,,,,,[],False,,,,,,,56.4,1.0,i,1.0,True,1213.3999998569489,73.0,60.0,40.0,201.24787370532917,[],"[960, 600]",ColorTask,125.0,103.0,,,HRV,HRV_0259,2022-11-30 20:03:15
,wl-rdm,220,554600,0.0-8.103-0.103,1.0,220.0,,,,,,,[],False,,,,,,,56.4,0.0,u,0.0,True,1164.2999999523163,70.0,60.0,40.0,254.95474414849198,[],"[960, 600]",ColorTask,126.0,104.0,,,HRV,HRV_0259,2022-11-30 20:03:15
,wl-rdm,221,556900,0.0-8.104-0.104,1.0,221.0,,,,,,,[],False,,,,,,,50.0,0.0,u,0.0,True,956.4000000953674,58.0,60.0,40.0,257.08273013616724,[],"[960, 600]",ColorTask,127.0,105.0,,,HRV,HRV_0259,2022-11-30 20:03:15
,wl-rdm,222,558866,0.0-8.105-0.105,1.0,222.0,,,,,,,[],False,,,,,,,50.0,1.0,i,1.0,True,677.7000000476837,41.0,60.0,40.0,219.57181467113577,[],"[960, 600]",ColorTask,128.0,106.0,,,HRV,HRV_0259,2022-11-30 20:03:15
,wl-rdm,223,560816,0.0-8.106-0.106,1.0,223.0,,,,,,,[],False,,,,,,,73.6,1.0,i,1.0,True,603.8999999761581,37.0,60.0,40.0,280.17126350412127,[],"[960, 600]",ColorTask,129.0,107.0,,,HRV,HRV_0259,2022-11-30 20:03:15
,wl-rdm,224,562917,0.0-8.107-0.107,1.0,224.0,,,,,,,[],False,,,,,,,62.5,1.0,i,1.0,True,821.6000000238419,50.0,60.0,40.0,202.57455326092563,[],"[960, 600]",ColorTask,130.0,108.0,,,HRV,HRV_0259,2022-11-30 20:03:15
,wl-html-button-response,225,565197,0.0-9.0-0.0,,,,,,,,,,,,2277.100000023842,,0,,,,,,,,,,,,,,,,,,<h3>End of this session. Thank you!</h3><br>,['Close window'],HRV,HRV_0259,2022-11-30 20:03:15
