trialN,stimuli,question,trialStartTime,trialStartTime_UNIX,stimulus1,trialEvents,rt,receivedResponse,rating,trialEndTime,trialDuration,stimulus1Loaded,exp,subjectId,date
0,"[{'imgObject': {}, 'id': 'cantaloupe', 'src': '/static/foodstim60/cantaloupe.jpg', 'key': 'NaN', 'origWidth': 409, 'origHeight': 409, 'width': 409, 'height': 409, 'widthPercent': 0.8, 'rescaleHeight': True, 'trialN': 0, 'loaded': True, 'loadedTime': 3129.399999976158, 'positionName': 'CENTER', 'positionCoords': [755.5, 395.5]}]",Rate how much you want to eat this food from 0 (least) to 10 (most).,3026.0,1669837610304,cantaloupe,"[{'event': 'onfocus', 'details': 'in focus', 'performance time': 7265.700000047684, 'date time': 1669837614544}]",5824.299999952316,True,4.16,8850.299999952316,5824.299999952316,True,HRV,HRV_0259,2022-11-30 19:48:28
1,"[{'imgObject': {}, 'id': 'olives', 'src': '/static/foodstim60/olives.jpg', 'key': 'NaN', 'origWidth': 410, 'origHeight': 410, 'width': 410, 'height': 410, 'widthPercent': 0.8, 'rescaleHeight': True, 'trialN': 1, 'loaded': True, 'loadedTime': 8859.100000023842, 'positionName': 'CENTER', 'positionCoords': [755, 395]}]",Rate how much you want to eat this food from 0 (least) to 10 (most).,8855.0,1669837616133,olives,,1298.2999999523163,True,5.15,10153.299999952316,1298.2999999523163,True,HRV,HRV_0259,2022-11-30 19:48:28
2,"[{'imgObject': {}, 'id': 'granola w milk', 'src': '/static/foodstim60/granola w milk.jpg', 'key': 'NaN', 'origWidth': 410, 'origHeight': 410, 'width': 410, 'height': 410, 'widthPercent': 0.8, 'rescaleHeight': True, 'trialN': 2, 'loaded': True, 'loadedTime': 10159.200000047684, 'positionName': 'CENTER', 'positionCoords': [755, 395]}]",Rate how much you want to eat this food from 0 (least) to 10 (most).,10156.0,1669837617435,granola w milk,,1498.2000000476837,True,0.17,11654.200000047684,1498.2000000476837,True,HRV,HRV_0259,2022-11-30 19:48:28
3,"[{'imgObject': {}, 'id': 'cherry tomato', 'src': '/static/foodstim60/cherry tomato.jpg', 'key': 'NaN', 'origWidth': 410, 'origHeight': 410, 'width': 410, 'height': 410, 'widthPercent': 0.8, 'rescaleHeight': True, 'trialN': 3, 'loaded': True, 'loadedTime': 11658.200000047684, 'positionName': 'CENTER', 'positionCoords': [755, 395]}]",Rate how much you want to eat this food from 0 (least) to 10 (most).,11655.700000047684,1669837618934,cherry tomato,,1964.8999999761581,True,5.16,13620.600000023842,1964.8999999761581,True,HRV,HRV_0259,2022-11-30 19:48:28
4,"[{'imgObject': {}, 'id': 'chicken nuggets2', 'src': '/static/foodstim60/chicken nuggets2.jpg', 'key': 'NaN', 'origWidth': 410, 'origHeight': 409, 'width': 410, 'height': 409, 'widthPercent': 0.8, 'rescaleHeight': True, 'trialN': 4, 'loaded': True, 'loadedTime': 13624.899999976158, 'positionName': 'CENTER', 'positionCoords': [755, 395.5]}]",Rate how much you want to eat this food from 0 (least) to 10 (most).,13622.299999952316,1669837620901,chicken nuggets2,,1507.4000000953674,True,0.25,15129.700000047684,1507.4000000953674,True,HRV,HRV_0259,2022-11-30 19:48:28
5,"[{'imgObject': {}, 'id': 'raisin bran w milk', 'src': '/static/foodstim60/raisin bran w milk.jpg', 'key': 'NaN', 'origWidth': 411, 'origHeight': 411, 'width': 411, 'height': 411, 'widthPercent': 0.8, 'rescaleHeight': True, 'trialN': 5, 'loaded': True, 'loadedTime': 15135.600000023842, 'positionName': 'CENTER', 'positionCoords': [754.5, 394.5]}]",Rate how much you want to eat this food from 0 (least) to 10 (most).,15132.299999952316,1669837622411,raisin bran w milk,,1513.8000000715256,True,0.16,16646.100000023842,1513.8000000715256,True,HRV,HRV_0259,2022-11-30 19:48:28
6,"[{'imgObject': {}, 'id': 'sweetpotato', 'src': '/static/foodstim60/sweetpotato.jpg', 'key': 'NaN', 'origWidth': 410, 'origHeight': 410, 'width': 410, 'height': 410, 'widthPercent': 0.8, 'rescaleHeight': True, 'trialN': 6, 'loaded': True, 'loadedTime': 16651.100000023842, 'positionName': 'CENTER', 'positionCoords': [755, 395]}]",Rate how much you want to eat this food from 0 (least) to 10 (most).,16648.0,1669837623927,sweetpotato,,1899.2999999523163,True,5.87,18547.299999952316,1899.2999999523163,True,HRV,HRV_0259,2022-11-30 19:48:28
7,"[{'imgObject': {}, 'id': 'sushi w_condiments', 'src': '/static/foodstim60/sushi w_condiments.jpg', 'key': 'NaN', 'origWidth': 410, 'origHeight': 410, 'width': 410, 'height': 410, 'widthPercent': 0.8, 'rescaleHeight': True, 'trialN': 7, 'loaded': True, 'loadedTime': 18552.700000047684, 'positionName': 'CENTER', 'positionCoords': [755, 395]}]",Rate how much you want to eat this food from 0 (least) to 10 (most).,18549.600000023842,1669837625828,sushi w_condiments,,1325.6000000238419,True,8.09,19875.200000047684,1325.6000000238419,True,HRV,HRV_0259,2022-11-30 19:48:28
8,"[{'imgObject': {}, 'id': 'raspberries', 'src': '/static/foodstim60/raspberries.jpg', 'key': 'NaN', 'origWidth': 411, 'origHeight': 411, 'width': 411, 'height': 411, 'widthPercent': 0.8, 'rescaleHeight': True, 'trialN': 8, 'loaded': True, 'loadedTime': 19881, 'positionName': 'CENTER', 'positionCoords': [754.5, 394.5]}]",Rate how much you want to eat this food from 0 (least) to 10 (most).,19877.700000047684,1669837627157,raspberries,,1636.5999999046326,True,5.44,21514.299999952316,1636.5999999046326,True,HRV,HRV_0259,2022-11-30 19:48:28
9,"[{'imgObject': {}, 'id': 'fried eggs', 'src': '/static/foodstim60/fried eggs.jpg', 'key': 'NaN', 'origWidth': 410, 'origHeight': 410, 'width': 410, 'height': 410, 'widthPercent': 0.8, 'rescaleHeight': True, 'trialN': 9, 'loaded': True, 'loadedTime': 21520.100000023842, 'positionName': 'CENTER', 'positionCoords': [755, 395]}]",Rate how much you want to eat this food from 0 (least) to 10 (most).,21516.799999952316,1669837628796,fried eggs,,1293.1000000238419,True,5.44,22809.899999976158,1293.1000000238419,True,HRV,HRV_0259,2022-11-30 19:48:28
10,"[{'imgObject': {}, 'id': 'baked potato', 'src': '/static/foodstim60/baked potato.jpg', 'key': 'NaN', 'origWidth': 409, 'origHeight': 410, 'width': 409, 'height': 410, 'widthPercent': 0.8, 'rescaleHeight': True, 'trialN': 10, 'loaded': True, 'loadedTime': 22815.799999952316, 'positionName': 'CENTER', 'positionCoords': [755.5, 395]}]",Rate how much you want to eat this food from 0 (least) to 10 (most).,22812.700000047684,1669837630092,baked potato,,1308.0,True,3.8000000000000003,24120.700000047684,1308.0,True,HRV,HRV_0259,2022-11-30 19:48:28
11,"[{'imgObject': {}, 'id': 'ice cream sundae 002', 'src': '/static/foodstim60/ice cream sundae 002.jpg', 'key': 'NaN', 'origWidth': 409, 'origHeight': 409, 'width': 409, 'height': 409, 'widthPercent': 0.8, 'rescaleHeight': True, 'trialN': 11, 'loaded': True, 'loadedTime': 24125.399999976158, 'positionName': 'CENTER', 'positionCoords': [755.5, 395.5]}]",Rate how much you want to eat this food from 0 (least) to 10 (most).,24122.700000047684,1669837631402,ice cream sundae 002,,1589.0,True,0.22,25711.700000047684,1589.0,True,HRV,HRV_0259,2022-11-30 19:48:28
12,"[{'imgObject': {}, 'id': 'burger', 'src': '/static/foodstim60/burger.jpg', 'key': 'NaN', 'origWidth': 409, 'origHeight': 409, 'width': 409, 'height': 409, 'widthPercent': 0.8, 'rescaleHeight': True, 'trialN': 12, 'loaded': True, 'loadedTime': 25716.700000047684, 'positionName': 'CENTER', 'positionCoords': [755.5, 395.5]}]",Rate how much you want to eat this food from 0 (least) to 10 (most).,25713.799999952316,1669837632993,burger,,1341.5,True,7.92,27055.299999952316,1341.5,True,HRV,HRV_0259,2022-11-30 19:48:28
13,"[{'imgObject': {}, 'id': 'veggieswithdip', 'src': '/static/foodstim60/veggieswithdip.jpg', 'key': 'NaN', 'origWidth': 409, 'origHeight': 409, 'width': 409, 'height': 409, 'widthPercent': 0.8, 'rescaleHeight': True, 'trialN': 13, 'loaded': True, 'loadedTime': 27061.299999952316, 'positionName': 'CENTER', 'positionCoords': [755.5, 395.5]}]",Rate how much you want to eat this food from 0 (least) to 10 (most).,27058.100000023842,1669837634337,veggieswithdip,,1480.7999999523163,True,5.08,28538.899999976158,1480.7999999523163,True,HRV,HRV_0259,2022-11-30 19:48:28
14,"[{'imgObject': {}, 'id': 'omelette', 'src': '/static/foodstim60/omelette.jpg', 'key': 'NaN', 'origWidth': 410, 'origHeight': 409, 'width': 410, 'height': 409, 'widthPercent': 0.8, 'rescaleHeight': True, 'trialN': 14, 'loaded': True, 'loadedTime': 28554.100000023842, 'positionName': 'CENTER', 'positionCoords': [755, 395.5]}]",Rate how much you want to eat this food from 0 (least) to 10 (most).,28550.899999976158,1669837635830,omelette,,1644.1000000238419,True,5.55,30195.0,1644.1000000238419,True,HRV,HRV_0259,2022-11-30 19:48:28
15,"[{'imgObject': {}, 'id': 'pear', 'src': '/static/foodstim60/pear.jpg', 'key': 'NaN', 'origWidth': 411, 'origHeight': 410, 'width': 411, 'height': 410, 'widthPercent': 0.8, 'rescaleHeight': True, 'trialN': 15, 'loaded': True, 'loadedTime': 30200.899999976158, 'positionName': 'CENTER', 'positionCoords': [754.5, 395]}]",Rate how much you want to eat this food from 0 (least) to 10 (most).,30197.600000023842,1669837637477,pear,,1210.3999999761581,True,4.01,31408.0,1210.3999999761581,True,HRV,HRV_0259,2022-11-30 19:48:28
16,"[{'imgObject': {}, 'id': 'blackbeanswithrice', 'src': '/static/foodstim60/blackbeanswithrice.jpg', 'key': 'NaN', 'origWidth': 410, 'origHeight': 410, 'width': 410, 'height': 410, 'widthPercent': 0.8, 'rescaleHeight': True, 'trialN': 16, 'loaded': True, 'loadedTime': 31414.100000023842, 'positionName': 'CENTER', 'positionCoords': [755, 395]}]",Rate how much you want to eat this food from 0 (least) to 10 (most).,31410.600000023842,1669837638690,blackbeanswithrice,,1268.0,True,5.94,32678.600000023842,1268.0,True,HRV,HRV_0259,2022-11-30 19:48:28
17,"[{'imgObject': {}, 'id': 'chickenfingers', 'src': '/static/foodstim60/chickenfingers.jpg', 'key': 'NaN', 'origWidth': 410, 'origHeight': 410, 'width': 410, 'height': 410, 'widthPercent': 0.8, 'rescaleHeight': True, 'trialN': 17, 'loaded': True, 'loadedTime': 32684.700000047684, 'positionName': 'CENTER', 'positionCoords': [755, 395]}]",Rate how much you want to eat this food from 0 (least) to 10 (most).,32681.299999952316,1669837639961,chickenfingers,,1465.1000000238419,True,0.23,34146.39999997616,1465.1000000238419,True,HRV,HRV_0259,2022-11-30 19:48:28
18,"[{'imgObject': {}, 'id': 'bagel plain', 'src': '/static/foodstim60/bagel plain.jpg', 'key': 'NaN', 'origWidth': 410, 'origHeight': 410, 'width': 410, 'height': 410, 'widthPercent': 0.8, 'rescaleHeight': True, 'trialN': 18, 'loaded': True, 'loadedTime': 34152.60000002384, 'positionName': 'CENTER', 'positionCoords': [755, 395]}]",Rate how much you want to eat this food from 0 (least) to 10 (most).,34149.0,1669837641428,bagel plain,,1931.2000000476837,True,5.05,36080.200000047684,1931.2000000476837,True,HRV,HRV_0259,2022-11-30 19:48:28
19,"[{'imgObject': {}, 'id': 'popsicles', 'src': '/static/foodstim60/popsicles.jpg', 'key': 'NaN', 'origWidth': 410, 'origHeight': 410, 'width': 410, 'height': 410, 'widthPercent': 0.8, 'rescaleHeight': True, 'trialN': 19, 'loaded': True, 'loadedTime': 36086.39999997616, 'positionName': 'CENTER', 'positionCoords': [755, 395]}]",Rate how much you want to eat this food from 0 (least) to 10 (most).,36083.0,1669837643362,popsicles,,1407.6000000238419,True,0.17,37490.60000002384,1407.6000000238419,True,HRV,HRV_0259,2022-11-30 19:48:28
20,"[{'imgObject': {}, 'id': 'salmon', 'src': '/static/foodstim60/salmon.jpg', 'key': 'NaN', 'origWidth': 410, 'origHeight': 409, 'width': 410, 'height': 409, 'widthPercent': 0.8, 'rescaleHeight': True, 'trialN': 20, 'loaded': True, 'loadedTime': 37497.700000047684, 'positionName': 'CENTER', 'positionCoords': [755, 395.5]}]",Rate how much you want to eat this food from 0 (least) to 10 (most).,37493.700000047684,1669837644773,salmon,,1185.6999999284744,True,0.25,38679.39999997616,1185.6999999284744,True,HRV,HRV_0259,2022-11-30 19:48:28
21,"[{'imgObject': {}, 'id': 'lox', 'src': '/static/foodstim60/lox.jpg', 'key': 'NaN', 'origWidth': 410, 'origHeight': 411, 'width': 410, 'height': 411, 'widthPercent': 0.8, 'rescaleHeight': True, 'trialN': 21, 'loaded': True, 'loadedTime': 38685.89999997616, 'positionName': 'CENTER', 'positionCoords': [755, 394.5]}]",Rate how much you want to eat this food from 0 (least) to 10 (most).,38682.299999952316,1669837645962,lox,,1218.2000000476837,True,0.22,39900.5,1218.2000000476837,True,HRV,HRV_0259,2022-11-30 19:48:28
22,"[{'imgObject': {}, 'id': 'salad w chicken', 'src': '/static/foodstim60/salad w chicken.jpg', 'key': 'NaN', 'origWidth': 411, 'origHeight': 411, 'width': 411, 'height': 411, 'widthPercent': 0.8, 'rescaleHeight': True, 'trialN': 22, 'loaded': True, 'loadedTime': 39906.799999952316, 'positionName': 'CENTER', 'positionCoords': [754.5, 394.5]}]",Rate how much you want to eat this food from 0 (least) to 10 (most).,39903.39999997616,1669837647183,salad w chicken,,2037.6000000238419,True,6.390000000000001,41941.0,2037.6000000238419,True,HRV,HRV_0259,2022-11-30 19:48:28
23,"[{'imgObject': {}, 'id': 'banana', 'src': '/static/foodstim60/banana.jpg', 'key': 'NaN', 'origWidth': 410, 'origHeight': 410, 'width': 410, 'height': 410, 'widthPercent': 0.8, 'rescaleHeight': True, 'trialN': 23, 'loaded': True, 'loadedTime': 41947.39999997616, 'positionName': 'CENTER', 'positionCoords': [755, 395]}]",Rate how much you want to eat this food from 0 (least) to 10 (most).,41943.89999997616,1669837649223,banana,,1570.8999999761581,True,3.9,43514.799999952316,1570.8999999761581,True,HRV,HRV_0259,2022-11-30 19:48:28
24,"[{'imgObject': {}, 'id': 'mashed potato', 'src': '/static/foodstim60/mashed potato.jpg', 'key': 'NaN', 'origWidth': 409, 'origHeight': 409, 'width': 409, 'height': 409, 'widthPercent': 0.8, 'rescaleHeight': True, 'trialN': 24, 'loaded': True, 'loadedTime': 43521.700000047684, 'positionName': 'CENTER', 'positionCoords': [755.5, 395.5]}]",Rate how much you want to eat this food from 0 (least) to 10 (most).,43517.799999952316,1669837650797,mashed potato,,1538.0,True,5.3100000000000005,45055.799999952316,1538.0,True,HRV,HRV_0259,2022-11-30 19:48:28
25,"[{'imgObject': {}, 'id': 'Tribe humus pita', 'src': '/static/foodstim60/Tribe humus pita.jpg', 'key': 'NaN', 'origWidth': 411, 'origHeight': 411, 'width': 411, 'height': 411, 'widthPercent': 0.8, 'rescaleHeight': True, 'trialN': 25, 'loaded': True, 'loadedTime': 45061.39999997616, 'positionName': 'CENTER', 'positionCoords': [754.5, 394.5]}]",Rate how much you want to eat this food from 0 (least) to 10 (most).,45058.39999997616,1669837652338,Tribe humus pita,,1817.3000000715256,True,5.07,46875.700000047684,1817.3000000715256,True,HRV,HRV_0259,2022-11-30 19:48:28
26,"[{'imgObject': {}, 'id': 'roastedpotatoes', 'src': '/static/foodstim60/roastedpotatoes.jpg', 'key': 'NaN', 'origWidth': 409, 'origHeight': 410, 'width': 409, 'height': 410, 'widthPercent': 0.8, 'rescaleHeight': True, 'trialN': 26, 'loaded': True, 'loadedTime': 46881.10000002384, 'positionName': 'CENTER', 'positionCoords': [755.5, 395]}]",Rate how much you want to eat this food from 0 (least) to 10 (most).,46878.0,1669837654158,roastedpotatoes,,1809.0,True,6.0,48687.0,1809.0,True,HRV,HRV_0259,2022-11-30 19:48:28
27,"[{'imgObject': {}, 'id': 'corn cob', 'src': '/static/foodstim60/corn cob.jpg', 'key': 'NaN', 'origWidth': 411, 'origHeight': 411, 'width': 411, 'height': 411, 'widthPercent': 0.8, 'rescaleHeight': True, 'trialN': 27, 'loaded': True, 'loadedTime': 48691.299999952316, 'positionName': 'CENTER', 'positionCoords': [754.5, 394.5]}]",Rate how much you want to eat this food from 0 (least) to 10 (most).,48688.700000047684,1669837655968,corn cob,,1343.3999999761581,True,0.33,50032.10000002384,1343.3999999761581,True,HRV,HRV_0259,2022-11-30 19:48:28
28,"[{'imgObject': {}, 'id': 'cherries', 'src': '/static/foodstim60/cherries.jpg', 'key': 'NaN', 'origWidth': 410, 'origHeight': 411, 'width': 410, 'height': 411, 'widthPercent': 0.8, 'rescaleHeight': True, 'trialN': 28, 'loaded': True, 'loadedTime': 50037.60000002384, 'positionName': 'CENTER', 'positionCoords': [755, 394.5]}]",Rate how much you want to eat this food from 0 (least) to 10 (most).,50034.60000002384,1669837657314,cherries,,1496.6000000238419,True,4.25,51531.200000047684,1496.6000000238419,True,HRV,HRV_0259,2022-11-30 19:48:28
29,"[{'imgObject': {}, 'id': 'seaweed', 'src': '/static/foodstim60/seaweed.jpg', 'key': 'NaN', 'origWidth': 410, 'origHeight': 410, 'width': 410, 'height': 410, 'widthPercent': 0.8, 'rescaleHeight': True, 'trialN': 29, 'loaded': True, 'loadedTime': 51536.700000047684, 'positionName': 'CENTER', 'positionCoords': [755, 395]}]",Rate how much you want to eat this food from 0 (least) to 10 (most).,51533.60000002384,1669837658813,seaweed,,1449.1999999284744,True,3.6,52982.799999952316,1449.1999999284744,True,HRV,HRV_0259,2022-11-30 19:48:28
30,"[{'imgObject': {}, 'id': 'steak', 'src': '/static/foodstim60/steak.jpg', 'key': 'NaN', 'origWidth': 410, 'origHeight': 410, 'width': 410, 'height': 410, 'widthPercent': 0.8, 'rescaleHeight': True, 'trialN': 30, 'loaded': True, 'loadedTime': 52988.5, 'positionName': 'CENTER', 'positionCoords': [755, 395]}]",Rate how much you want to eat this food from 0 (least) to 10 (most).,52985.299999952316,1669837660265,steak,,1579.8000000715256,True,0.19,54565.10000002384,1579.8000000715256,True,HRV,HRV_0259,2022-11-30 19:48:28
31,"[{'imgObject': {}, 'id': 'rigatoni', 'src': '/static/foodstim60/rigatoni.jpg', 'key': 'NaN', 'origWidth': 411, 'origHeight': 411, 'width': 411, 'height': 411, 'widthPercent': 0.8, 'rescaleHeight': True, 'trialN': 31, 'loaded': True, 'loadedTime': 54570.799999952316, 'positionName': 'CENTER', 'positionCoords': [754.5, 394.5]}]",Rate how much you want to eat this food from 0 (least) to 10 (most).,54567.5,1669837661847,rigatoni,,1669.1000000238419,True,6.34,56236.60000002384,1669.1000000238419,True,HRV,HRV_0259,2022-11-30 19:48:28
32,"[{'imgObject': {}, 'id': 'froot loops w milk', 'src': '/static/foodstim60/froot loops w milk.jpg', 'key': 'NaN', 'origWidth': 410, 'origHeight': 410, 'width': 410, 'height': 410, 'widthPercent': 0.8, 'rescaleHeight': True, 'trialN': 32, 'loaded': True, 'loadedTime': 56242.39999997616, 'positionName': 'CENTER', 'positionCoords': [755, 395]}]",Rate how much you want to eat this food from 0 (least) to 10 (most).,56239.200000047684,1669837663519,froot loops w milk,,1490.1999999284744,True,0.2,57729.39999997616,1490.1999999284744,True,HRV,HRV_0259,2022-11-30 19:48:28
33,"[{'imgObject': {}, 'id': 'grilled chicken strips', 'src': '/static/foodstim60/grilled chicken strips.jpg', 'key': 'NaN', 'origWidth': 410, 'origHeight': 411, 'width': 410, 'height': 411, 'widthPercent': 0.8, 'rescaleHeight': True, 'trialN': 33, 'loaded': True, 'loadedTime': 57735.299999952316, 'positionName': 'CENTER', 'positionCoords': [755, 394.5]}]",Rate how much you want to eat this food from 0 (least) to 10 (most).,57732.10000002384,1669837665012,grilled chicken strips,,1210.5,True,0.21,58942.60000002384,1210.5,True,HRV,HRV_0259,2022-11-30 19:48:28
34,"[{'imgObject': {}, 'id': 'blueberries', 'src': '/static/foodstim60/blueberries.jpg', 'key': 'NaN', 'origWidth': 411, 'origHeight': 411, 'width': 411, 'height': 411, 'widthPercent': 0.8, 'rescaleHeight': True, 'trialN': 34, 'loaded': True, 'loadedTime': 58948.39999997616, 'positionName': 'CENTER', 'positionCoords': [754.5, 394.5]}]",Rate how much you want to eat this food from 0 (least) to 10 (most).,58945.200000047684,1669837666225,blueberries,,1545.7999999523163,True,3.36,60491.0,1545.7999999523163,True,HRV,HRV_0259,2022-11-30 19:48:28
35,"[{'imgObject': {}, 'id': 'cheerios', 'src': '/static/foodstim60/cheerios.jpg', 'key': 'NaN', 'origWidth': 409, 'origHeight': 410, 'width': 409, 'height': 410, 'widthPercent': 0.8, 'rescaleHeight': True, 'trialN': 35, 'loaded': True, 'loadedTime': 60496.89999997616, 'positionName': 'CENTER', 'positionCoords': [755.5, 395]}]",Rate how much you want to eat this food from 0 (least) to 10 (most).,60493.60000002384,1669837667774,cheerios,,1841.6999999284744,True,0.16,62335.299999952316,1841.6999999284744,True,HRV,HRV_0259,2022-11-30 19:48:28
36,"[{'imgObject': {}, 'id': 'burrito', 'src': '/static/foodstim60/burrito.jpg', 'key': 'NaN', 'origWidth': 410, 'origHeight': 410, 'width': 410, 'height': 410, 'widthPercent': 0.8, 'rescaleHeight': True, 'trialN': 36, 'loaded': True, 'loadedTime': 62341.299999952316, 'positionName': 'CENTER', 'positionCoords': [755, 395]}]",Rate how much you want to eat this food from 0 (least) to 10 (most).,62338.0,1669837669618,burrito,,1800.7000000476837,True,9.23,64138.700000047684,1800.7000000476837,True,HRV,HRV_0259,2022-11-30 19:48:28
37,"[{'imgObject': {}, 'id': 'fruitsalad', 'src': '/static/foodstim60/fruitsalad.jpg', 'key': 'NaN', 'origWidth': 410, 'origHeight': 410, 'width': 410, 'height': 410, 'widthPercent': 0.8, 'rescaleHeight': True, 'trialN': 37, 'loaded': True, 'loadedTime': 64144.89999997616, 'positionName': 'CENTER', 'positionCoords': [755, 395]}]",Rate how much you want to eat this food from 0 (least) to 10 (most).,64141.5,1669837671422,fruitsalad,,1686.2999999523163,True,7.92,65827.79999995232,1686.2999999523163,True,HRV,HRV_0259,2022-11-30 19:48:28
38,"[{'imgObject': {}, 'id': 'hashbrowns', 'src': '/static/foodstim60/hashbrowns.jpg', 'key': 'NaN', 'origWidth': 411, 'origHeight': 410, 'width': 411, 'height': 410, 'widthPercent': 0.8, 'rescaleHeight': True, 'trialN': 38, 'loaded': True, 'loadedTime': 65834.20000004768, 'positionName': 'CENTER', 'positionCoords': [754.5, 395]}]",Rate how much you want to eat this food from 0 (least) to 10 (most).,65830.70000004768,1669837673111,hashbrowns,,1627.5,True,0.14,67458.20000004768,1627.5,True,HRV,HRV_0259,2022-11-30 19:48:28
39,"[{'imgObject': {}, 'id': 'cocktailshrimp', 'src': '/static/foodstim60/cocktailshrimp.jpg', 'key': 'NaN', 'origWidth': 410, 'origHeight': 410, 'width': 410, 'height': 410, 'widthPercent': 0.8, 'rescaleHeight': True, 'trialN': 39, 'loaded': True, 'loadedTime': 67463.29999995232, 'positionName': 'CENTER', 'positionCoords': [755, 395]}]",Rate how much you want to eat this food from 0 (least) to 10 (most).,67460.10000002384,1669837674740,cocktailshrimp,,2122.100000023842,True,0.22,69582.20000004768,2122.100000023842,True,HRV,HRV_0259,2022-11-30 19:48:28
40,"[{'imgObject': {}, 'id': 'hotdog w must', 'src': '/static/foodstim60/hotdog w must.jpg', 'key': 'NaN', 'origWidth': 409, 'origHeight': 409, 'width': 409, 'height': 409, 'widthPercent': 0.8, 'rescaleHeight': True, 'trialN': 40, 'loaded': True, 'loadedTime': 69588.60000002384, 'positionName': 'CENTER', 'positionCoords': [755.5, 395.5]}]",Rate how much you want to eat this food from 0 (least) to 10 (most).,69585.10000002384,1669837676865,hotdog w must,,1611.3999999761581,True,5.29,71196.5,1611.3999999761581,True,HRV,HRV_0259,2022-11-30 19:48:28
41,"[{'imgObject': {}, 'id': 'mango', 'src': '/static/foodstim60/mango.jpg', 'key': 'NaN', 'origWidth': 411, 'origHeight': 411, 'width': 411, 'height': 411, 'widthPercent': 0.8, 'rescaleHeight': True, 'trialN': 41, 'loaded': True, 'loadedTime': 71202.5, 'positionName': 'CENTER', 'positionCoords': [754.5, 394.5]}]",Rate how much you want to eat this food from 0 (least) to 10 (most).,71199.0,1669837678479,mango,,1276.1000000238419,True,5.48,72475.10000002384,1276.1000000238419,True,HRV,HRV_0259,2022-11-30 19:48:28
42,"[{'imgObject': {}, 'id': 'mac & cheese', 'src': '/static/foodstim60/mac & cheese.jpg', 'key': 'NaN', 'origWidth': 410, 'origHeight': 410, 'width': 410, 'height': 410, 'widthPercent': 0.8, 'rescaleHeight': True, 'trialN': 42, 'loaded': True, 'loadedTime': 72482, 'positionName': 'CENTER', 'positionCoords': [755, 395]}]",Rate how much you want to eat this food from 0 (least) to 10 (most).,72478.29999995232,1669837679759,mac & cheese,,1972.3000000715256,True,9.620000000000001,74450.60000002384,1972.3000000715256,True,HRV,HRV_0259,2022-11-30 19:48:28
43,"[{'imgObject': {}, 'id': 'turkeysandwich', 'src': '/static/foodstim60/turkeysandwich.jpg', 'key': 'NaN', 'origWidth': 409, 'origHeight': 409, 'width': 409, 'height': 409, 'widthPercent': 0.8, 'rescaleHeight': True, 'trialN': 43, 'loaded': True, 'loadedTime': 74457.60000002384, 'positionName': 'CENTER', 'positionCoords': [755.5, 395.5]}]",Rate how much you want to eat this food from 0 (least) to 10 (most).,74453.89999997616,1669837681734,turkeysandwich,,1152.3000000715256,True,8.45,75606.20000004768,1152.3000000715256,True,HRV,HRV_0259,2022-11-30 19:48:28
44,"[{'imgObject': {}, 'id': 'yogurt no spoon', 'src': '/static/foodstim60/yogurt no spoon.jpg', 'key': 'NaN', 'origWidth': 411, 'origHeight': 410, 'width': 411, 'height': 410, 'widthPercent': 0.8, 'rescaleHeight': True, 'trialN': 44, 'loaded': True, 'loadedTime': 75611.20000004768, 'positionName': 'CENTER', 'positionCoords': [754.5, 395]}]",Rate how much you want to eat this food from 0 (least) to 10 (most).,75608.29999995232,1669837682889,yogurt no spoon,,1842.8000000715256,True,5.36,77451.10000002384,1842.8000000715256,True,HRV,HRV_0259,2022-11-30 19:48:28
45,"[{'imgObject': {}, 'id': 'kiwi', 'src': '/static/foodstim60/kiwi.jpg', 'key': 'NaN', 'origWidth': 410, 'origHeight': 410, 'width': 410, 'height': 410, 'widthPercent': 0.8, 'rescaleHeight': True, 'trialN': 45, 'loaded': True, 'loadedTime': 77456.60000002384, 'positionName': 'CENTER', 'positionCoords': [755, 395]}]",Rate how much you want to eat this food from 0 (least) to 10 (most).,77453.39999997616,1669837684734,kiwi,,1144.8999999761581,True,4.09,78598.29999995232,1144.8999999761581,True,HRV,HRV_0259,2022-11-30 19:48:28
46,"[{'imgObject': {}, 'id': 'eggs', 'src': '/static/foodstim60/eggs.jpg', 'key': 'NaN', 'origWidth': 409, 'origHeight': 409, 'width': 409, 'height': 409, 'widthPercent': 0.8, 'rescaleHeight': True, 'trialN': 46, 'loaded': True, 'loadedTime': 78603.89999997616, 'positionName': 'CENTER', 'positionCoords': [755.5, 395.5]}]",Rate how much you want to eat this food from 0 (least) to 10 (most).,78600.70000004768,1669837685881,eggs,,1423.8999999761581,True,5.47,80024.60000002384,1423.8999999761581,True,HRV,HRV_0259,2022-11-30 19:48:28
47,"[{'imgObject': {}, 'id': 'avocado', 'src': '/static/foodstim60/avocado.jpg', 'key': 'NaN', 'origWidth': 409, 'origHeight': 409, 'width': 409, 'height': 409, 'widthPercent': 0.8, 'rescaleHeight': True, 'trialN': 47, 'loaded': True, 'loadedTime': 80030.10000002384, 'positionName': 'CENTER', 'positionCoords': [755.5, 395.5]}]",Rate how much you want to eat this food from 0 (least) to 10 (most).,80027.0,1669837687308,avocado,,1514.1000000238419,True,8.82,81541.10000002384,1514.1000000238419,True,HRV,HRV_0259,2022-11-30 19:48:28
48,"[{'imgObject': {}, 'id': 'eggsalad', 'src': '/static/foodstim60/eggsalad.jpg', 'key': 'NaN', 'origWidth': 410, 'origHeight': 409, 'width': 410, 'height': 409, 'widthPercent': 0.8, 'rescaleHeight': True, 'trialN': 48, 'loaded': True, 'loadedTime': 81546.70000004768, 'positionName': 'CENTER', 'positionCoords': [755, 395.5]}]",Rate how much you want to eat this food from 0 (least) to 10 (most).,81543.5,1669837688824,eggsalad,,2046.5,True,4.2700000000000005,83590.0,2046.5,True,HRV,HRV_0259,2022-11-30 19:48:28
49,"[{'imgObject': {}, 'id': 'orange slices', 'src': '/static/foodstim60/orange slices.jpg', 'key': 'NaN', 'origWidth': 409, 'origHeight': 410, 'width': 409, 'height': 410, 'widthPercent': 0.8, 'rescaleHeight': True, 'trialN': 49, 'loaded': True, 'loadedTime': 83596, 'positionName': 'CENTER', 'positionCoords': [755.5, 395]}]",Rate how much you want to eat this food from 0 (least) to 10 (most).,83592.70000004768,1669837690873,orange slices,,2350.1999999284744,True,3.67,85942.89999997616,2350.1999999284744,True,HRV,HRV_0259,2022-11-30 19:48:28
50,"[{'imgObject': {}, 'id': 'tacos', 'src': '/static/foodstim60/tacos.jpg', 'key': 'NaN', 'origWidth': 411, 'origHeight': 411, 'width': 411, 'height': 411, 'widthPercent': 0.8, 'rescaleHeight': True, 'trialN': 50, 'loaded': True, 'loadedTime': 85948.5, 'positionName': 'CENTER', 'positionCoords': [754.5, 394.5]}]",Rate how much you want to eat this food from 0 (least) to 10 (most).,85945.39999997616,1669837693226,tacos,,1407.2000000476837,True,8.97,87352.60000002384,1407.2000000476837,True,HRV,HRV_0259,2022-11-30 19:48:28
51,"[{'imgObject': {}, 'id': 'strawberries', 'src': '/static/foodstim60/strawberries.jpg', 'key': 'NaN', 'origWidth': 410, 'origHeight': 410, 'width': 410, 'height': 410, 'widthPercent': 0.8, 'rescaleHeight': True, 'trialN': 51, 'loaded': True, 'loadedTime': 87358.39999997616, 'positionName': 'CENTER', 'positionCoords': [755, 395]}]",Rate how much you want to eat this food from 0 (least) to 10 (most).,87355.20000004768,1669837694636,strawberries,,1177.8999999761581,True,8.83,88533.10000002384,1177.8999999761581,True,HRV,HRV_0259,2022-11-30 19:48:28
52,"[{'imgObject': {}, 'id': 'luckycharms', 'src': '/static/foodstim60/luckycharms.jpg', 'key': 'NaN', 'origWidth': 410, 'origHeight': 409, 'width': 410, 'height': 409, 'widthPercent': 0.8, 'rescaleHeight': True, 'trialN': 52, 'loaded': True, 'loadedTime': 88538.89999997616, 'positionName': 'CENTER', 'positionCoords': [755, 395.5]}]",Rate how much you want to eat this food from 0 (least) to 10 (most).,88535.60000002384,1669837695817,luckycharms,,1473.7999999523163,True,0.21,90009.39999997616,1473.7999999523163,True,HRV,HRV_0259,2022-11-30 19:48:28
53,"[{'imgObject': {}, 'id': 'rigatoni and sauce', 'src': '/static/foodstim60/rigatoni and sauce.jpg', 'key': 'NaN', 'origWidth': 410, 'origHeight': 411, 'width': 410, 'height': 411, 'widthPercent': 0.8, 'rescaleHeight': True, 'trialN': 53, 'loaded': True, 'loadedTime': 90015, 'positionName': 'CENTER', 'positionCoords': [755, 394.5]}]",Rate how much you want to eat this food from 0 (least) to 10 (most).,90011.89999997616,1669837697293,rigatoni and sauce,,2013.1000000238419,True,5.67,92025.0,2013.1000000238419,True,HRV,HRV_0259,2022-11-30 19:48:28
54,"[{'imgObject': {}, 'id': 'edamame', 'src': '/static/foodstim60/edamame.jpg', 'key': 'NaN', 'origWidth': 409, 'origHeight': 410, 'width': 409, 'height': 410, 'widthPercent': 0.8, 'rescaleHeight': True, 'trialN': 54, 'loaded': True, 'loadedTime': 92031, 'positionName': 'CENTER', 'positionCoords': [755.5, 395]}]",Rate how much you want to eat this food from 0 (least) to 10 (most).,92027.70000004768,1669837699309,edamame,,1572.0999999046326,True,0.4,93599.79999995232,1572.0999999046326,True,HRV,HRV_0259,2022-11-30 19:48:28
55,"[{'imgObject': {}, 'id': 'turkey sandwich', 'src': '/static/foodstim60/turkey sandwich.jpg', 'key': 'NaN', 'origWidth': 409, 'origHeight': 409, 'width': 409, 'height': 409, 'widthPercent': 0.8, 'rescaleHeight': True, 'trialN': 55, 'loaded': True, 'loadedTime': 93606.29999995232, 'positionName': 'CENTER', 'positionCoords': [755.5, 395.5]}]",Rate how much you want to eat this food from 0 (least) to 10 (most).,93602.70000004768,1669837700884,turkey sandwich,,1340.5,True,7.79,94943.20000004768,1340.5,True,HRV,HRV_0259,2022-11-30 19:48:28
56,"[{'imgObject': {}, 'id': 'apple slices', 'src': '/static/foodstim60/apple slices.jpg', 'key': 'NaN', 'origWidth': 409, 'origHeight': 410, 'width': 409, 'height': 410, 'widthPercent': 0.8, 'rescaleHeight': True, 'trialN': 56, 'loaded': True, 'loadedTime': 94949.39999997616, 'positionName': 'CENTER', 'positionCoords': [755.5, 395]}]",Rate how much you want to eat this food from 0 (least) to 10 (most).,94946.0,1669837702227,apple slices,,1366.1000000238419,True,3.14,96312.10000002384,1366.1000000238419,True,HRV,HRV_0259,2022-11-30 19:48:28
57,"[{'imgObject': {}, 'id': 'shreddedwheatwithmilk', 'src': '/static/foodstim60/shreddedwheatwithmilk.jpg', 'key': 'NaN', 'origWidth': 410, 'origHeight': 410, 'width': 410, 'height': 410, 'widthPercent': 0.8, 'rescaleHeight': True, 'trialN': 57, 'loaded': True, 'loadedTime': 96318.20000004768, 'positionName': 'CENTER', 'positionCoords': [755, 395]}]",Rate how much you want to eat this food from 0 (least) to 10 (most).,96314.79999995232,1669837703596,shreddedwheatwithmilk,,1317.9000000953674,True,0.23,97632.70000004768,1317.9000000953674,True,HRV,HRV_0259,2022-11-30 19:48:28
58,"[{'imgObject': {}, 'id': 'Grapes', 'src': '/static/foodstim60/Grapes.jpg', 'key': 'NaN', 'origWidth': 411, 'origHeight': 411, 'width': 411, 'height': 411, 'widthPercent': 0.8, 'rescaleHeight': True, 'trialN': 58, 'loaded': True, 'loadedTime': 97639.20000004768, 'positionName': 'CENTER', 'positionCoords': [754.5, 394.5]}]",Rate how much you want to eat this food from 0 (least) to 10 (most).,97635.60000002384,1669837704917,Grapes,,1496.1000000238419,True,5.33,99131.70000004768,1496.1000000238419,True,HRV,HRV_0259,2022-11-30 19:48:28
59,"[{'imgObject': {}, 'id': 'bagel and cc', 'src': '/static/foodstim60/bagel and cc.jpg', 'key': 'NaN', 'origWidth': 410, 'origHeight': 410, 'width': 410, 'height': 410, 'widthPercent': 0.8, 'rescaleHeight': True, 'trialN': 59, 'loaded': True, 'loadedTime': 99138, 'positionName': 'CENTER', 'positionCoords': [755, 395]}]",Rate how much you want to eat this food from 0 (least) to 10 (most).,99134.60000002384,1669837706416,bagel and cc,,1275.6999999284744,True,4.95,100410.29999995232,1275.6999999284744,True,HRV,HRV_0259,2022-11-30 19:48:28
