trialN,stimuli,trialStartTime,trialStartTime_UNIX,stimulus1,stimulus2,stimulus1Bid,stimulus2Bid,delta,trialEvents,selected,rt,rt_UNIX,rt_perfnow,receivedResponse,rsp,trialEndTime,trialDuration,trialEndTime_UNIX,trialDuration_UNIX,exp,subjectId,date
0,"[{'imgObject': {}, 'id': 'turkey sandwich', 'src': '/static/foodstim60/turkey sandwich.jpg', 'key': 'u', 'origWidth': 409, 'origHeight': 409, 'width': 409, 'height': 409, 'widthPercent': 0.45, 'rescaleHeight': False, 'trialN': 0, 'loaded': True, 'loadedTime': 2534.899999976158, 'positionName': 'LEFT', 'positionCoords': [512.6, 395.5], 'bid': 7.79}, {'imgObject': {}, 'id': 'seaweed', 'src': '/static/foodstim60/seaweed.jpg', 'key': 'i', 'origWidth': 410, 'origHeight': 410, 'width': 410, 'height': 410, 'widthPercent': 0.45, 'rescaleHeight': False, 'trialN': 0, 'loaded': True, 'loadedTime': 2535.3000000715256, 'positionName': 'RIGHT', 'positionCoords': [998.4, 395], 'bid': 3.6}]",2132.2000000476837,1669837748702,turkey sandwich,seaweed,7.79,3.6,-4.1899999999999995,"[{'event': 'onfocus', 'details': 'in focus', 'performance time': 4051.8000000715256, 'date time': 1669837750622}]",turkey sandwich,2377.100000023842,2381,2381.100000023842,True,u,5020.399999976158,2888.1999999284744,1669837751590,2888,HRV,HRV_0259,2022-11-30 19:53:46
1,"[{'imgObject': {}, 'id': 'omelette', 'src': '/static/foodstim60/omelette.jpg', 'key': 'u', 'origWidth': 410, 'origHeight': 409, 'width': 410, 'height': 409, 'widthPercent': 0.45, 'rescaleHeight': False, 'trialN': 1, 'loaded': True, 'loadedTime': 5022.700000047684, 'positionName': 'LEFT', 'positionCoords': [511.6, 395.5], 'bid': 5.55}, {'imgObject': {}, 'id': 'mango', 'src': '/static/foodstim60/mango.jpg', 'key': 'i', 'origWidth': 411, 'origHeight': 411, 'width': 411, 'height': 411, 'widthPercent': 0.45, 'rescaleHeight': False, 'trialN': 1, 'loaded': True, 'loadedTime': 5023.100000023842, 'positionName': 'RIGHT', 'positionCoords': [998.4, 394.5], 'bid': 5.48}]",5021.200000047684,1669837751591,omelette,mango,5.55,5.48,-0.0699999999999994,,mango,1984.1000000238419,1988,1988.1999999284744,True,i,7517.5,2496.2999999523163,1669837754088,2497,HRV,HRV_0259,2022-11-30 19:53:46
2,"[{'imgObject': {}, 'id': 'blackbeanswithrice', 'src': '/static/foodstim60/blackbeanswithrice.jpg', 'key': 'u', 'origWidth': 410, 'origHeight': 410, 'width': 410, 'height': 410, 'widthPercent': 0.45, 'rescaleHeight': False, 'trialN': 2, 'loaded': True, 'loadedTime': 7519.899999976158, 'positionName': 'LEFT', 'positionCoords': [511.6, 395], 'bid': 5.94}, {'imgObject': {}, 'id': 'rigatoni and sauce', 'src': '/static/foodstim60/rigatoni and sauce.jpg', 'key': 'i', 'origWidth': 410, 'origHeight': 411, 'width': 410, 'height': 411, 'widthPercent': 0.45, 'rescaleHeight': False, 'trialN': 2, 'loaded': True, 'loadedTime': 7520.300000071526, 'positionName': 'RIGHT', 'positionCoords': [998.4, 394.5], 'bid': 5.67}]",7518.200000047684,1669837754088,blackbeanswithrice,rigatoni and sauce,5.94,5.67,-0.27000000000000046,,blackbeanswithrice,1065.0,1069,1069.1000000238419,True,u,9088.399999976158,1570.1999999284744,1669837755659,1571,HRV,HRV_0259,2022-11-30 19:53:46
3,"[{'imgObject': {}, 'id': 'cantaloupe', 'src': '/static/foodstim60/cantaloupe.jpg', 'key': 'u', 'origWidth': 409, 'origHeight': 409, 'width': 409, 'height': 409, 'widthPercent': 0.45, 'rescaleHeight': False, 'trialN': 3, 'loaded': True, 'loadedTime': 9090.600000023842, 'positionName': 'LEFT', 'positionCoords': [512.6, 395.5], 'bid': 4.16}, {'imgObject': {}, 'id': 'ice cream sundae 002', 'src': '/static/foodstim60/ice cream sundae 002.jpg', 'key': 'i', 'origWidth': 409, 'origHeight': 409, 'width': 409, 'height': 409, 'widthPercent': 0.45, 'rescaleHeight': False, 'trialN': 3, 'loaded': True, 'loadedTime': 9090.899999976158, 'positionName': 'RIGHT', 'positionCoords': [998.4, 395.5], 'bid': 0.22}]",9089.100000023842,1669837755659,cantaloupe,ice cream sundae 002,4.16,0.22,-3.94,,cantaloupe,936.1000000238419,940,940.2000000476837,True,u,10537.5,1448.3999999761581,1669837757108,1449,HRV,HRV_0259,2022-11-30 19:53:46
4,"[{'imgObject': {}, 'id': 'pear', 'src': '/static/foodstim60/pear.jpg', 'key': 'u', 'origWidth': 411, 'origHeight': 410, 'width': 411, 'height': 410, 'widthPercent': 0.45, 'rescaleHeight': False, 'trialN': 4, 'loaded': True, 'loadedTime': 10539.600000023842, 'positionName': 'LEFT', 'positionCoords': [510.6, 395], 'bid': 4.01}, {'imgObject': {}, 'id': 'cherry tomato', 'src': '/static/foodstim60/cherry tomato.jpg', 'key': 'i', 'origWidth': 410, 'origHeight': 410, 'width': 410, 'height': 410, 'widthPercent': 0.45, 'rescaleHeight': False, 'trialN': 4, 'loaded': True, 'loadedTime': 10539.899999976158, 'positionName': 'RIGHT', 'positionCoords': [998.4, 395], 'bid': 5.16}]",10538.200000047684,1669837757108,pear,cherry tomato,4.01,5.16,1.1500000000000004,,cherry tomato,939.8999999761581,944,944.0,True,i,11985.0,1446.7999999523163,1669837758555,1447,HRV,HRV_0259,2022-11-30 19:53:46
5,"[{'imgObject': {}, 'id': 'roastedpotatoes', 'src': '/static/foodstim60/roastedpotatoes.jpg', 'key': 'u', 'origWidth': 409, 'origHeight': 410, 'width': 409, 'height': 410, 'widthPercent': 0.45, 'rescaleHeight': False, 'trialN': 5, 'loaded': True, 'loadedTime': 11987.100000023842, 'positionName': 'LEFT', 'positionCoords': [512.6, 395], 'bid': 6}, {'imgObject': {}, 'id': 'sweetpotato', 'src': '/static/foodstim60/sweetpotato.jpg', 'key': 'i', 'origWidth': 410, 'origHeight': 410, 'width': 410, 'height': 410, 'widthPercent': 0.45, 'rescaleHeight': False, 'trialN': 5, 'loaded': True, 'loadedTime': 11987.399999976158, 'positionName': 'RIGHT', 'positionCoords': [998.4, 395], 'bid': 5.87}]",11985.600000023842,1669837758556,roastedpotatoes,sweetpotato,6.0,5.87,-0.1299999999999999,,roastedpotatoes,1019.6000000238419,1024,1023.7000000476837,True,u,13513.200000047684,1527.6000000238419,1669837760083,1527,HRV,HRV_0259,2022-11-30 19:53:46
6,"[{'imgObject': {}, 'id': 'Tribe humus pita', 'src': '/static/foodstim60/Tribe humus pita.jpg', 'key': 'u', 'origWidth': 411, 'origHeight': 411, 'width': 411, 'height': 411, 'widthPercent': 0.45, 'rescaleHeight': False, 'trialN': 6, 'loaded': True, 'loadedTime': 13515.5, 'positionName': 'LEFT', 'positionCoords': [510.6, 394.5], 'bid': 5.07}, {'imgObject': {}, 'id': 'raisin bran w milk', 'src': '/static/foodstim60/raisin bran w milk.jpg', 'key': 'i', 'origWidth': 411, 'origHeight': 411, 'width': 411, 'height': 411, 'widthPercent': 0.45, 'rescaleHeight': False, 'trialN': 6, 'loaded': True, 'loadedTime': 13515.700000047684, 'positionName': 'RIGHT', 'positionCoords': [998.4, 394.5], 'bid': 0.16}]",13513.899999976158,1669837760084,Tribe humus pita,raisin bran w milk,5.07,0.16,-4.91,,Tribe humus pita,1251.3000000715256,1255,1255.0,True,u,15276.300000071526,1762.4000000953674,1669837761846,1762,HRV,HRV_0259,2022-11-30 19:53:46
7,"[{'imgObject': {}, 'id': 'raspberries', 'src': '/static/foodstim60/raspberries.jpg', 'key': 'u', 'origWidth': 411, 'origHeight': 411, 'width': 411, 'height': 411, 'widthPercent': 0.45, 'rescaleHeight': False, 'trialN': 7, 'loaded': True, 'loadedTime': 15278.300000071526, 'positionName': 'LEFT', 'positionCoords': [510.6, 394.5], 'bid': 5.44}, {'imgObject': {}, 'id': 'yogurt no spoon', 'src': '/static/foodstim60/yogurt no spoon.jpg', 'key': 'i', 'origWidth': 411, 'origHeight': 410, 'width': 411, 'height': 410, 'widthPercent': 0.45, 'rescaleHeight': False, 'trialN': 7, 'loaded': True, 'loadedTime': 15278.5, 'positionName': 'RIGHT', 'positionCoords': [998.4, 395], 'bid': 5.36}]",15276.800000071526,1669837761847,raspberries,yogurt no spoon,5.44,5.36,-0.08000000000000007,,raspberries,738.1999999284744,742,742.0999999046326,True,u,16524.100000023842,1247.2999999523163,1669837763094,1247,HRV,HRV_0259,2022-11-30 19:53:46
8,"[{'imgObject': {}, 'id': 'chicken nuggets2', 'src': '/static/foodstim60/chicken nuggets2.jpg', 'key': 'u', 'origWidth': 410, 'origHeight': 409, 'width': 410, 'height': 409, 'widthPercent': 0.45, 'rescaleHeight': False, 'trialN': 8, 'loaded': True, 'loadedTime': 16526.5, 'positionName': 'LEFT', 'positionCoords': [511.6, 395.5], 'bid': 0.25}, {'imgObject': {}, 'id': 'bagel and cc', 'src': '/static/foodstim60/bagel and cc.jpg', 'key': 'i', 'origWidth': 410, 'origHeight': 410, 'width': 410, 'height': 410, 'widthPercent': 0.45, 'rescaleHeight': False, 'trialN': 8, 'loaded': True, 'loadedTime': 16526.899999976158, 'positionName': 'RIGHT', 'positionCoords': [998.4, 395], 'bid': 4.95}]",16524.800000071526,1669837763095,chicken nuggets2,bagel and cc,0.25,4.95,4.7,,bagel and cc,908.0999999046326,912,911.6999999284744,True,i,17944.600000023842,1419.7999999523163,1669837764515,1420,HRV,HRV_0259,2022-11-30 19:53:46
9,"[{'imgObject': {}, 'id': 'bagel and cc', 'src': '/static/foodstim60/bagel and cc.jpg', 'key': 'u', 'origWidth': 410, 'origHeight': 410, 'width': 410, 'height': 410, 'widthPercent': 0.45, 'rescaleHeight': False, 'trialN': 9, 'loaded': True, 'loadedTime': 17946.800000071526, 'positionName': 'LEFT', 'positionCoords': [511.6, 395], 'bid': 4.95}, {'imgObject': {}, 'id': 'hotdog w must', 'src': '/static/foodstim60/hotdog w must.jpg', 'key': 'i', 'origWidth': 409, 'origHeight': 409, 'width': 409, 'height': 409, 'widthPercent': 0.45, 'rescaleHeight': False, 'trialN': 9, 'loaded': True, 'loadedTime': 17947.300000071526, 'positionName': 'RIGHT', 'positionCoords': [998.4, 395.5], 'bid': 5.29}]",17945.200000047684,1669837764516,bagel and cc,hotdog w must,4.95,5.29,0.33999999999999986,,bagel and cc,1010.6999999284744,1014,1014.5,True,u,19464.700000047684,1519.5,1669837766035,1519,HRV,HRV_0259,2022-11-30 19:53:46
10,"[{'imgObject': {}, 'id': 'fried eggs', 'src': '/static/foodstim60/fried eggs.jpg', 'key': 'u', 'origWidth': 410, 'origHeight': 410, 'width': 410, 'height': 410, 'widthPercent': 0.45, 'rescaleHeight': False, 'trialN': 10, 'loaded': True, 'loadedTime': 19466.800000071526, 'positionName': 'LEFT', 'positionCoords': [511.6, 395], 'bid': 5.44}, {'imgObject': {}, 'id': 'lox', 'src': '/static/foodstim60/lox.jpg', 'key': 'i', 'origWidth': 410, 'origHeight': 411, 'width': 410, 'height': 411, 'widthPercent': 0.45, 'rescaleHeight': False, 'trialN': 10, 'loaded': True, 'loadedTime': 19467.200000047684, 'positionName': 'RIGHT', 'positionCoords': [998.4, 394.5], 'bid': 0.22}]",19465.300000071526,1669837766036,fried eggs,lox,5.44,0.22,-5.220000000000001,,fried eggs,698.5999999046326,702,702.5,True,u,20676.300000071526,1211.0,1669837767247,1211,HRV,HRV_0259,2022-11-30 19:53:46
11,"[{'imgObject': {}, 'id': 'omelette', 'src': '/static/foodstim60/omelette.jpg', 'key': 'u', 'origWidth': 410, 'origHeight': 409, 'width': 410, 'height': 409, 'widthPercent': 0.45, 'rescaleHeight': False, 'trialN': 11, 'loaded': True, 'loadedTime': 20678.399999976158, 'positionName': 'LEFT', 'positionCoords': [511.6, 395.5], 'bid': 5.55}, {'imgObject': {}, 'id': 'eggs', 'src': '/static/foodstim60/eggs.jpg', 'key': 'i', 'origWidth': 409, 'origHeight': 409, 'width': 409, 'height': 409, 'widthPercent': 0.45, 'rescaleHeight': False, 'trialN': 11, 'loaded': True, 'loadedTime': 20678.700000047684, 'positionName': 'RIGHT', 'positionCoords': [998.4, 395.5], 'bid': 5.47}]",20676.899999976158,1669837767247,omelette,eggs,5.55,5.47,-0.08000000000000007,,eggs,1028.9000000953674,1033,1032.9000000953674,True,i,22217.899999976158,1541.0,1669837768788,1541,HRV,HRV_0259,2022-11-30 19:53:46
12,"[{'imgObject': {}, 'id': 'rigatoni', 'src': '/static/foodstim60/rigatoni.jpg', 'key': 'u', 'origWidth': 411, 'origHeight': 411, 'width': 411, 'height': 411, 'widthPercent': 0.45, 'rescaleHeight': False, 'trialN': 12, 'loaded': True, 'loadedTime': 22219.899999976158, 'positionName': 'LEFT', 'positionCoords': [510.6, 394.5], 'bid': 6.34}, {'imgObject': {}, 'id': 'turkeysandwich', 'src': '/static/foodstim60/turkeysandwich.jpg', 'key': 'i', 'origWidth': 409, 'origHeight': 409, 'width': 409, 'height': 409, 'widthPercent': 0.45, 'rescaleHeight': False, 'trialN': 12, 'loaded': True, 'loadedTime': 22220.200000047684, 'positionName': 'RIGHT', 'positionCoords': [998.4, 395.5], 'bid': 8.45}]",22218.5,1669837768789,rigatoni,turkeysandwich,6.34,8.45,2.1099999999999994,,rigatoni,778.2000000476837,781,781.0,True,u,23504.899999976158,1286.3999999761581,1669837770075,1286,HRV,HRV_0259,2022-11-30 19:53:46
13,"[{'imgObject': {}, 'id': 'chickenfingers', 'src': '/static/foodstim60/chickenfingers.jpg', 'key': 'u', 'origWidth': 410, 'origHeight': 410, 'width': 410, 'height': 410, 'widthPercent': 0.45, 'rescaleHeight': False, 'trialN': 13, 'loaded': True, 'loadedTime': 23507.100000023842, 'positionName': 'LEFT', 'positionCoords': [511.6, 395], 'bid': 0.23}, {'imgObject': {}, 'id': 'granola w milk', 'src': '/static/foodstim60/granola w milk.jpg', 'key': 'i', 'origWidth': 410, 'origHeight': 410, 'width': 410, 'height': 410, 'widthPercent': 0.45, 'rescaleHeight': False, 'trialN': 13, 'loaded': True, 'loadedTime': 23507.399999976158, 'positionName': 'RIGHT', 'positionCoords': [998.4, 395], 'bid': 0.17}]",23505.600000023842,1669837770076,chickenfingers,granola w milk,0.23,0.17,-0.06,,granola w milk,953.2000000476837,957,957.0,True,i,24969.5,1463.8999999761581,1669837771540,1464,HRV,HRV_0259,2022-11-30 19:53:46
14,"[{'imgObject': {}, 'id': 'Grapes', 'src': '/static/foodstim60/Grapes.jpg', 'key': 'u', 'origWidth': 411, 'origHeight': 411, 'width': 411, 'height': 411, 'widthPercent': 0.45, 'rescaleHeight': False, 'trialN': 14, 'loaded': True, 'loadedTime': 24971.5, 'positionName': 'LEFT', 'positionCoords': [510.6, 394.5], 'bid': 5.33}, {'imgObject': {}, 'id': 'fruitsalad', 'src': '/static/foodstim60/fruitsalad.jpg', 'key': 'i', 'origWidth': 410, 'origHeight': 410, 'width': 410, 'height': 410, 'widthPercent': 0.45, 'rescaleHeight': False, 'trialN': 14, 'loaded': True, 'loadedTime': 24971.700000047684, 'positionName': 'RIGHT', 'positionCoords': [998.4, 395], 'bid': 7.92}]",24970.0,1669837771541,Grapes,fruitsalad,5.33,7.92,2.59,,fruitsalad,1074.8000000715256,1078,1078.8000000715256,True,i,26554.899999976158,1584.8999999761581,1669837773125,1584,HRV,HRV_0259,2022-11-30 19:53:46
15,"[{'imgObject': {}, 'id': 'burrito', 'src': '/static/foodstim60/burrito.jpg', 'key': 'u', 'origWidth': 410, 'origHeight': 410, 'width': 410, 'height': 410, 'widthPercent': 0.45, 'rescaleHeight': False, 'trialN': 15, 'loaded': True, 'loadedTime': 26557, 'positionName': 'LEFT', 'positionCoords': [511.6, 395], 'bid': 9.23}, {'imgObject': {}, 'id': 'fruitsalad', 'src': '/static/foodstim60/fruitsalad.jpg', 'key': 'i', 'origWidth': 410, 'origHeight': 410, 'width': 410, 'height': 410, 'widthPercent': 0.45, 'rescaleHeight': False, 'trialN': 15, 'loaded': True, 'loadedTime': 26557.200000047684, 'positionName': 'RIGHT', 'positionCoords': [998.4, 395], 'bid': 7.92}]",26555.5,1669837773126,burrito,fruitsalad,9.23,7.92,-1.3100000000000005,,burrito,930.3000000715256,935,934.6000000238419,True,u,27997.399999976158,1441.8999999761581,1669837774568,1442,HRV,HRV_0259,2022-11-30 19:53:46
16,"[{'imgObject': {}, 'id': 'yogurt no spoon', 'src': '/static/foodstim60/yogurt no spoon.jpg', 'key': 'u', 'origWidth': 411, 'origHeight': 410, 'width': 411, 'height': 410, 'widthPercent': 0.45, 'rescaleHeight': False, 'trialN': 16, 'loaded': True, 'loadedTime': 27999.5, 'positionName': 'LEFT', 'positionCoords': [510.6, 395], 'bid': 5.36}, {'imgObject': {}, 'id': 'eggsalad', 'src': '/static/foodstim60/eggsalad.jpg', 'key': 'i', 'origWidth': 410, 'origHeight': 409, 'width': 410, 'height': 409, 'widthPercent': 0.45, 'rescaleHeight': False, 'trialN': 16, 'loaded': True, 'loadedTime': 27999.700000047684, 'positionName': 'RIGHT', 'positionCoords': [998.4, 395.5], 'bid': 4.2700000000000005}]",27998.0,1669837774569,yogurt no spoon,eggsalad,5.36,4.2700000000000005,-1.0899999999999999,,yogurt no spoon,1251.6000000238419,1255,1255.6000000238419,True,u,29765.600000023842,1767.6000000238419,1669837776336,1767,HRV,HRV_0259,2022-11-30 19:53:46
17,"[{'imgObject': {}, 'id': 'mac & cheese', 'src': '/static/foodstim60/mac & cheese.jpg', 'key': 'u', 'origWidth': 410, 'origHeight': 410, 'width': 410, 'height': 410, 'widthPercent': 0.45, 'rescaleHeight': False, 'trialN': 17, 'loaded': True, 'loadedTime': 29767.600000023842, 'positionName': 'LEFT', 'positionCoords': [511.6, 395], 'bid': 9.62}, {'imgObject': {}, 'id': 'bagel and cc', 'src': '/static/foodstim60/bagel and cc.jpg', 'key': 'i', 'origWidth': 410, 'origHeight': 410, 'width': 410, 'height': 410, 'widthPercent': 0.45, 'rescaleHeight': False, 'trialN': 17, 'loaded': True, 'loadedTime': 29768, 'positionName': 'RIGHT', 'positionCoords': [998.4, 395], 'bid': 4.95}]",29766.200000047684,1669837776337,mac & cheese,bagel and cc,9.62,4.95,-4.669999999999999,,mac & cheese,726.2999999523163,730,730.1999999284744,True,u,31001.5,1235.2999999523163,1669837777572,1235,HRV,HRV_0259,2022-11-30 19:53:46
18,"[{'imgObject': {}, 'id': 'apple slices', 'src': '/static/foodstim60/apple slices.jpg', 'key': 'u', 'origWidth': 409, 'origHeight': 410, 'width': 409, 'height': 410, 'widthPercent': 0.45, 'rescaleHeight': False, 'trialN': 18, 'loaded': True, 'loadedTime': 31003.5, 'positionName': 'LEFT', 'positionCoords': [512.6, 395], 'bid': 3.14}, {'imgObject': {}, 'id': 'shreddedwheatwithmilk', 'src': '/static/foodstim60/shreddedwheatwithmilk.jpg', 'key': 'i', 'origWidth': 410, 'origHeight': 410, 'width': 410, 'height': 410, 'widthPercent': 0.45, 'rescaleHeight': False, 'trialN': 18, 'loaded': True, 'loadedTime': 31004, 'positionName': 'RIGHT', 'positionCoords': [998.4, 395], 'bid': 0.23}]",31002.200000047684,1669837777573,apple slices,shreddedwheatwithmilk,3.14,0.23,-2.91,,apple slices,884.3999999761581,888,887.8999999761581,True,u,32397.5,1395.2999999523163,1669837778968,1395,HRV,HRV_0259,2022-11-30 19:53:46
19,"[{'imgObject': {}, 'id': 'granola w milk', 'src': '/static/foodstim60/granola w milk.jpg', 'key': 'u', 'origWidth': 410, 'origHeight': 410, 'width': 410, 'height': 410, 'widthPercent': 0.45, 'rescaleHeight': False, 'trialN': 19, 'loaded': True, 'loadedTime': 32399.5, 'positionName': 'LEFT', 'positionCoords': [511.6, 395], 'bid': 0.17}, {'imgObject': {}, 'id': 'olives', 'src': '/static/foodstim60/olives.jpg', 'key': 'i', 'origWidth': 410, 'origHeight': 410, 'width': 410, 'height': 410, 'widthPercent': 0.45, 'rescaleHeight': False, 'trialN': 19, 'loaded': True, 'loadedTime': 32400, 'positionName': 'RIGHT', 'positionCoords': [998.4, 395], 'bid': 5.15}]",32398.0,1669837778969,granola w milk,olives,0.17,5.15,4.98,,olives,954.3000000715256,957,956.8999999761581,True,i,33861.39999997616,1463.3999999761581,1669837780432,1463,HRV,HRV_0259,2022-11-30 19:53:46
20,"[{'imgObject': {}, 'id': 'banana', 'src': '/static/foodstim60/banana.jpg', 'key': 'u', 'origWidth': 410, 'origHeight': 410, 'width': 410, 'height': 410, 'widthPercent': 0.45, 'rescaleHeight': False, 'trialN': 20, 'loaded': True, 'loadedTime': 33863.5, 'positionName': 'LEFT', 'positionCoords': [511.6, 395], 'bid': 3.9}, {'imgObject': {}, 'id': 'olives', 'src': '/static/foodstim60/olives.jpg', 'key': 'i', 'origWidth': 410, 'origHeight': 410, 'width': 410, 'height': 410, 'widthPercent': 0.45, 'rescaleHeight': False, 'trialN': 20, 'loaded': True, 'loadedTime': 33864, 'positionName': 'RIGHT', 'positionCoords': [998.4, 395], 'bid': 5.15}]",33862.0,1669837780433,banana,olives,3.9,5.15,1.2500000000000004,,banana,845.6000000238419,849,849.3000000715256,True,u,35217.700000047684,1355.7000000476837,1669837781789,1356,HRV,HRV_0259,2022-11-30 19:53:46
21,"[{'imgObject': {}, 'id': 'kiwi', 'src': '/static/foodstim60/kiwi.jpg', 'key': 'u', 'origWidth': 410, 'origHeight': 410, 'width': 410, 'height': 410, 'widthPercent': 0.45, 'rescaleHeight': False, 'trialN': 21, 'loaded': True, 'loadedTime': 35219.5, 'positionName': 'LEFT', 'positionCoords': [511.6, 395], 'bid': 4.09}, {'imgObject': {}, 'id': 'pear', 'src': '/static/foodstim60/pear.jpg', 'key': 'i', 'origWidth': 411, 'origHeight': 410, 'width': 411, 'height': 410, 'widthPercent': 0.45, 'rescaleHeight': False, 'trialN': 21, 'loaded': True, 'loadedTime': 35219.89999997616, 'positionName': 'RIGHT', 'positionCoords': [998.4, 395], 'bid': 4.01}]",35218.10000002384,1669837781789,kiwi,pear,4.09,4.01,-0.08000000000000007,,kiwi,1416.3999999761581,1420,1420.3999999761581,True,u,37145.700000047684,1927.6000000238419,1669837783717,1928,HRV,HRV_0259,2022-11-30 19:53:46
22,"[{'imgObject': {}, 'id': 'ice cream sundae 002', 'src': '/static/foodstim60/ice cream sundae 002.jpg', 'key': 'u', 'origWidth': 409, 'origHeight': 409, 'width': 409, 'height': 409, 'widthPercent': 0.45, 'rescaleHeight': False, 'trialN': 22, 'loaded': True, 'loadedTime': 37147.700000047684, 'positionName': 'LEFT', 'positionCoords': [512.6, 395.5], 'bid': 0.22}, {'imgObject': {}, 'id': 'steak', 'src': '/static/foodstim60/steak.jpg', 'key': 'i', 'origWidth': 410, 'origHeight': 410, 'width': 410, 'height': 410, 'widthPercent': 0.45, 'rescaleHeight': False, 'trialN': 22, 'loaded': True, 'loadedTime': 37148, 'positionName': 'RIGHT', 'positionCoords': [998.4, 395], 'bid': 0.19}]",37146.300000071526,1669837783717,ice cream sundae 002,steak,0.22,0.19,-0.03,,steak,708.2999999523163,712,712.0999999046326,True,i,38360.5,1214.1999999284744,1669837784931,1214,HRV,HRV_0259,2022-11-30 19:53:46
23,"[{'imgObject': {}, 'id': 'rigatoni and sauce', 'src': '/static/foodstim60/rigatoni and sauce.jpg', 'key': 'u', 'origWidth': 410, 'origHeight': 411, 'width': 410, 'height': 411, 'widthPercent': 0.45, 'rescaleHeight': False, 'trialN': 23, 'loaded': True, 'loadedTime': 38362.10000002384, 'positionName': 'LEFT', 'positionCoords': [511.6, 394.5], 'bid': 5.67}, {'imgObject': {}, 'id': 'turkeysandwich', 'src': '/static/foodstim60/turkeysandwich.jpg', 'key': 'i', 'origWidth': 409, 'origHeight': 409, 'width': 409, 'height': 409, 'widthPercent': 0.45, 'rescaleHeight': False, 'trialN': 23, 'loaded': True, 'loadedTime': 38362.39999997616, 'positionName': 'RIGHT', 'positionCoords': [998.4, 395.5], 'bid': 8.45}]",38360.89999997616,1669837784932,rigatoni and sauce,turkeysandwich,5.67,8.45,2.7799999999999994,,turkeysandwich,2309.5,2313,2313.5,True,i,41176.5,2815.600000023842,1669837787748,2816,HRV,HRV_0259,2022-11-30 19:53:46
24,"[{'imgObject': {}, 'id': 'burger', 'src': '/static/foodstim60/burger.jpg', 'key': 'u', 'origWidth': 409, 'origHeight': 409, 'width': 409, 'height': 409, 'widthPercent': 0.45, 'rescaleHeight': False, 'trialN': 24, 'loaded': True, 'loadedTime': 41178.39999997616, 'positionName': 'LEFT', 'positionCoords': [512.6, 395.5], 'bid': 7.92}, {'imgObject': {}, 'id': 'tacos', 'src': '/static/foodstim60/tacos.jpg', 'key': 'i', 'origWidth': 411, 'origHeight': 411, 'width': 411, 'height': 411, 'widthPercent': 0.45, 'rescaleHeight': False, 'trialN': 24, 'loaded': True, 'loadedTime': 41178.700000047684, 'positionName': 'RIGHT', 'positionCoords': [998.4, 394.5], 'bid': 8.97}]",41177.0,1669837787748,burger,tacos,7.92,8.97,1.0500000000000007,,tacos,1055.3999999761581,1059,1059.3000000715256,True,i,42745.5,1568.5,1669837789317,1569,HRV,HRV_0259,2022-11-30 19:53:46
25,"[{'imgObject': {}, 'id': 'chicken nuggets2', 'src': '/static/foodstim60/chicken nuggets2.jpg', 'key': 'u', 'origWidth': 410, 'origHeight': 409, 'width': 410, 'height': 409, 'widthPercent': 0.45, 'rescaleHeight': False, 'trialN': 25, 'loaded': True, 'loadedTime': 42747.5, 'positionName': 'LEFT', 'positionCoords': [511.6, 395.5], 'bid': 0.25}, {'imgObject': {}, 'id': 'shreddedwheatwithmilk', 'src': '/static/foodstim60/shreddedwheatwithmilk.jpg', 'key': 'i', 'origWidth': 410, 'origHeight': 410, 'width': 410, 'height': 410, 'widthPercent': 0.45, 'rescaleHeight': False, 'trialN': 25, 'loaded': True, 'loadedTime': 42747.800000071526, 'positionName': 'RIGHT', 'positionCoords': [998.4, 395], 'bid': 0.23}]",42746.10000002384,1669837789317,chicken nuggets2,shreddedwheatwithmilk,0.25,0.23,-0.01999999999999999,,shreddedwheatwithmilk,1122.2000000476837,1126,1125.7000000476837,True,i,44381.39999997616,1635.2999999523163,1669837790953,1636,HRV,HRV_0259,2022-11-30 19:53:46
26,"[{'imgObject': {}, 'id': 'blueberries', 'src': '/static/foodstim60/blueberries.jpg', 'key': 'u', 'origWidth': 411, 'origHeight': 411, 'width': 411, 'height': 411, 'widthPercent': 0.45, 'rescaleHeight': False, 'trialN': 26, 'loaded': True, 'loadedTime': 44383.39999997616, 'positionName': 'LEFT', 'positionCoords': [510.6, 394.5], 'bid': 3.36}, {'imgObject': {}, 'id': 'chickenfingers', 'src': '/static/foodstim60/chickenfingers.jpg', 'key': 'i', 'origWidth': 410, 'origHeight': 410, 'width': 410, 'height': 410, 'widthPercent': 0.45, 'rescaleHeight': False, 'trialN': 26, 'loaded': True, 'loadedTime': 44383.700000047684, 'positionName': 'RIGHT', 'positionCoords': [998.4, 395], 'bid': 0.23}]",44382.0,1669837790953,blueberries,chickenfingers,3.36,0.23,-3.13,,blueberries,751.3000000715256,755,754.8999999761581,True,u,45642.89999997616,1260.8999999761581,1669837792214,1261,HRV,HRV_0259,2022-11-30 19:53:46
27,"[{'imgObject': {}, 'id': 'cheerios', 'src': '/static/foodstim60/cheerios.jpg', 'key': 'u', 'origWidth': 409, 'origHeight': 410, 'width': 409, 'height': 410, 'widthPercent': 0.45, 'rescaleHeight': False, 'trialN': 27, 'loaded': True, 'loadedTime': 45645, 'positionName': 'LEFT', 'positionCoords': [512.6, 395], 'bid': 0.16}, {'imgObject': {}, 'id': 'veggieswithdip', 'src': '/static/foodstim60/veggieswithdip.jpg', 'key': 'i', 'origWidth': 409, 'origHeight': 409, 'width': 409, 'height': 409, 'widthPercent': 0.45, 'rescaleHeight': False, 'trialN': 27, 'loaded': True, 'loadedTime': 45645.300000071526, 'positionName': 'RIGHT', 'positionCoords': [998.4, 395.5], 'bid': 5.08}]",45643.5,1669837792215,cheerios,veggieswithdip,0.16,5.08,4.92,,veggieswithdip,1247.7000000476837,1251,1251.6000000238419,True,i,47403.700000047684,1760.2000000476837,1669837793975,1760,HRV,HRV_0259,2022-11-30 19:53:46
28,"[{'imgObject': {}, 'id': 'baked potato', 'src': '/static/foodstim60/baked potato.jpg', 'key': 'u', 'origWidth': 409, 'origHeight': 410, 'width': 409, 'height': 410, 'widthPercent': 0.45, 'rescaleHeight': False, 'trialN': 28, 'loaded': True, 'loadedTime': 47405.800000071526, 'positionName': 'LEFT', 'positionCoords': [512.6, 395], 'bid': 3.8}, {'imgObject': {}, 'id': 'fruitsalad', 'src': '/static/foodstim60/fruitsalad.jpg', 'key': 'i', 'origWidth': 410, 'origHeight': 410, 'width': 410, 'height': 410, 'widthPercent': 0.45, 'rescaleHeight': False, 'trialN': 28, 'loaded': True, 'loadedTime': 47406.200000047684, 'positionName': 'RIGHT', 'positionCoords': [998.4, 395], 'bid': 7.92}]",47404.300000071526,1669837793976,baked potato,fruitsalad,3.8,7.92,4.12,,fruitsalad,1299.8999999761581,1303,1303.3999999761581,True,i,49209.300000071526,1805.0,1669837795781,1805,HRV,HRV_0259,2022-11-30 19:53:46
29,"[{'imgObject': {}, 'id': 'grilled chicken strips', 'src': '/static/foodstim60/grilled chicken strips.jpg', 'key': 'u', 'origWidth': 410, 'origHeight': 411, 'width': 410, 'height': 411, 'widthPercent': 0.45, 'rescaleHeight': False, 'trialN': 29, 'loaded': True, 'loadedTime': 49211.300000071526, 'positionName': 'LEFT', 'positionCoords': [511.6, 394.5], 'bid': 0.21}, {'imgObject': {}, 'id': 'lox', 'src': '/static/foodstim60/lox.jpg', 'key': 'i', 'origWidth': 410, 'origHeight': 411, 'width': 410, 'height': 411, 'widthPercent': 0.45, 'rescaleHeight': False, 'trialN': 29, 'loaded': True, 'loadedTime': 49211.700000047684, 'positionName': 'RIGHT', 'positionCoords': [998.4, 394.5], 'bid': 0.22}]",49209.89999997616,1669837795781,grilled chicken strips,lox,0.21,0.22,0.010000000000000009,,grilled chicken strips,1889.3000000715256,1893,1893.3000000715256,True,u,51610.700000047684,2400.8000000715256,1669837798182,2401,HRV,HRV_0259,2022-11-30 19:53:46
30,"[{'imgObject': {}, 'id': 'veggieswithdip', 'src': '/static/foodstim60/veggieswithdip.jpg', 'key': 'u', 'origWidth': 409, 'origHeight': 409, 'width': 409, 'height': 409, 'widthPercent': 0.45, 'rescaleHeight': False, 'trialN': 30, 'loaded': True, 'loadedTime': 51612, 'positionName': 'LEFT', 'positionCoords': [512.6, 395.5], 'bid': 5.08}, {'imgObject': {}, 'id': 'baked potato', 'src': '/static/foodstim60/baked potato.jpg', 'key': 'i', 'origWidth': 409, 'origHeight': 410, 'width': 409, 'height': 410, 'widthPercent': 0.45, 'rescaleHeight': False, 'trialN': 30, 'loaded': True, 'loadedTime': 51612.300000071526, 'positionName': 'RIGHT', 'positionCoords': [998.4, 395], 'bid': 3.8}]",51611.0,1669837798182,veggieswithdip,baked potato,5.08,3.8,-1.2800000000000002,,veggieswithdip,1339.2000000476837,1344,1343.3000000715256,True,u,53456.39999997616,1845.3999999761581,1669837800028,1846,HRV,HRV_0259,2022-11-30 19:53:46
31,"[{'imgObject': {}, 'id': 'sweetpotato', 'src': '/static/foodstim60/sweetpotato.jpg', 'key': 'u', 'origWidth': 410, 'origHeight': 410, 'width': 410, 'height': 410, 'widthPercent': 0.45, 'rescaleHeight': False, 'trialN': 31, 'loaded': True, 'loadedTime': 53458.39999997616, 'positionName': 'LEFT', 'positionCoords': [511.6, 395], 'bid': 5.87}, {'imgObject': {}, 'id': 'bagel plain', 'src': '/static/foodstim60/bagel plain.jpg', 'key': 'i', 'origWidth': 410, 'origHeight': 410, 'width': 410, 'height': 410, 'widthPercent': 0.45, 'rescaleHeight': False, 'trialN': 31, 'loaded': True, 'loadedTime': 53458.700000047684, 'positionName': 'RIGHT', 'positionCoords': [998.4, 395], 'bid': 5.05}]",53456.89999997616,1669837800028,sweetpotato,bagel plain,5.87,5.05,-0.8200000000000003,,sweetpotato,822.2000000476837,827,826.4000000953674,True,u,54786.39999997616,1329.5,1669837801358,1330,HRV,HRV_0259,2022-11-30 19:53:46
32,"[{'imgObject': {}, 'id': 'mac & cheese', 'src': '/static/foodstim60/mac & cheese.jpg', 'key': 'u', 'origWidth': 410, 'origHeight': 410, 'width': 410, 'height': 410, 'widthPercent': 0.45, 'rescaleHeight': False, 'trialN': 32, 'loaded': True, 'loadedTime': 54788, 'positionName': 'LEFT', 'positionCoords': [511.6, 395], 'bid': 9.62}, {'imgObject': {}, 'id': 'rigatoni and sauce', 'src': '/static/foodstim60/rigatoni and sauce.jpg', 'key': 'i', 'origWidth': 410, 'origHeight': 411, 'width': 410, 'height': 411, 'widthPercent': 0.45, 'rescaleHeight': False, 'trialN': 32, 'loaded': True, 'loadedTime': 54788.300000071526, 'positionName': 'RIGHT', 'positionCoords': [998.4, 394.5], 'bid': 5.67}]",54786.800000071526,1669837801358,mac & cheese,rigatoni and sauce,9.62,5.67,-3.9499999999999993,,mac & cheese,887.0999999046326,890,889.8999999761581,True,u,56186.5,1399.6999999284744,1669837802758,1400,HRV,HRV_0259,2022-11-30 19:53:46
33,"[{'imgObject': {}, 'id': 'ice cream sundae 002', 'src': '/static/foodstim60/ice cream sundae 002.jpg', 'key': 'u', 'origWidth': 409, 'origHeight': 409, 'width': 409, 'height': 409, 'widthPercent': 0.45, 'rescaleHeight': False, 'trialN': 33, 'loaded': True, 'loadedTime': 56188.5, 'positionName': 'LEFT', 'positionCoords': [512.6, 395.5], 'bid': 0.22}, {'imgObject': {}, 'id': 'cocktailshrimp', 'src': '/static/foodstim60/cocktailshrimp.jpg', 'key': 'i', 'origWidth': 410, 'origHeight': 410, 'width': 410, 'height': 410, 'widthPercent': 0.45, 'rescaleHeight': False, 'trialN': 33, 'loaded': True, 'loadedTime': 56188.700000047684, 'positionName': 'RIGHT', 'positionCoords': [998.4, 395], 'bid': 0.22}]",56187.0,1669837802759,ice cream sundae 002,cocktailshrimp,0.22,0.22,0.0,,cocktailshrimp,834.1000000238419,837,837.8999999761581,True,i,57529.0,1342.0,1669837804101,1342,HRV,HRV_0259,2022-11-30 19:53:46
34,"[{'imgObject': {}, 'id': 'salad w chicken', 'src': '/static/foodstim60/salad w chicken.jpg', 'key': 'u', 'origWidth': 411, 'origHeight': 411, 'width': 411, 'height': 411, 'widthPercent': 0.45, 'rescaleHeight': False, 'trialN': 34, 'loaded': True, 'loadedTime': 57531, 'positionName': 'LEFT', 'positionCoords': [510.6, 394.5], 'bid': 6.390000000000001}, {'imgObject': {}, 'id': 'cherry tomato', 'src': '/static/foodstim60/cherry tomato.jpg', 'key': 'i', 'origWidth': 410, 'origHeight': 410, 'width': 410, 'height': 410, 'widthPercent': 0.45, 'rescaleHeight': False, 'trialN': 34, 'loaded': True, 'loadedTime': 57531.39999997616, 'positionName': 'RIGHT', 'positionCoords': [998.4, 395], 'bid': 5.16}]",57529.60000002384,1669837804101,salad w chicken,cherry tomato,6.390000000000001,5.16,-1.2300000000000004,,salad w chicken,969.2999999523163,973,972.7000000476837,True,u,59011.89999997616,1482.2999999523163,1669837805583,1482,HRV,HRV_0259,2022-11-30 19:53:46
35,"[{'imgObject': {}, 'id': 'chickenfingers', 'src': '/static/foodstim60/chickenfingers.jpg', 'key': 'u', 'origWidth': 410, 'origHeight': 410, 'width': 410, 'height': 410, 'widthPercent': 0.45, 'rescaleHeight': False, 'trialN': 35, 'loaded': True, 'loadedTime': 59014, 'positionName': 'LEFT', 'positionCoords': [511.6, 395], 'bid': 0.23}, {'imgObject': {}, 'id': 'salmon', 'src': '/static/foodstim60/salmon.jpg', 'key': 'i', 'origWidth': 410, 'origHeight': 409, 'width': 410, 'height': 409, 'widthPercent': 0.45, 'rescaleHeight': False, 'trialN': 35, 'loaded': True, 'loadedTime': 59014.300000071526, 'positionName': 'RIGHT', 'positionCoords': [998.4, 395.5], 'bid': 0.25}]",59012.5,1669837805584,chickenfingers,salmon,0.23,0.25,0.01999999999999999,,salmon,1050.3999999761581,1054,1054.3000000715256,True,i,60571.0,1558.5,1669837807143,1559,HRV,HRV_0259,2022-11-30 19:53:46
36,"[{'imgObject': {}, 'id': 'sushi w_condiments', 'src': '/static/foodstim60/sushi w_condiments.jpg', 'key': 'u', 'origWidth': 410, 'origHeight': 410, 'width': 410, 'height': 410, 'widthPercent': 0.45, 'rescaleHeight': False, 'trialN': 36, 'loaded': True, 'loadedTime': 60573, 'positionName': 'LEFT', 'positionCoords': [511.6, 395], 'bid': 8.09}, {'imgObject': {}, 'id': 'avocado', 'src': '/static/foodstim60/avocado.jpg', 'key': 'i', 'origWidth': 409, 'origHeight': 409, 'width': 409, 'height': 409, 'widthPercent': 0.45, 'rescaleHeight': False, 'trialN': 36, 'loaded': True, 'loadedTime': 60573.39999997616, 'positionName': 'RIGHT', 'positionCoords': [998.4, 395.5], 'bid': 8.82}]",60571.60000002384,1669837807143,sushi w_condiments,avocado,8.09,8.82,0.7300000000000004,,sushi w_condiments,791.2999999523163,795,795.2999999523163,True,u,61876.39999997616,1304.7999999523163,1669837808448,1305,HRV,HRV_0259,2022-11-30 19:53:46
37,"[{'imgObject': {}, 'id': 'popsicles', 'src': '/static/foodstim60/popsicles.jpg', 'key': 'u', 'origWidth': 410, 'origHeight': 410, 'width': 410, 'height': 410, 'widthPercent': 0.45, 'rescaleHeight': False, 'trialN': 37, 'loaded': True, 'loadedTime': 61878.5, 'positionName': 'LEFT', 'positionCoords': [511.6, 395], 'bid': 0.17}, {'imgObject': {}, 'id': 'chicken nuggets2', 'src': '/static/foodstim60/chicken nuggets2.jpg', 'key': 'i', 'origWidth': 410, 'origHeight': 409, 'width': 410, 'height': 409, 'widthPercent': 0.45, 'rescaleHeight': False, 'trialN': 37, 'loaded': True, 'loadedTime': 61878.800000071526, 'positionName': 'RIGHT', 'positionCoords': [998.4, 395.5], 'bid': 0.25}]",61877.0,1669837808449,popsicles,chicken nuggets2,0.17,0.25,0.07999999999999999,,chicken nuggets2,759.8000000715256,763,763.6000000238419,True,i,63146.0,1269.0,1669837809718,1269,HRV,HRV_0259,2022-11-30 19:53:46
38,"[{'imgObject': {}, 'id': 'lox', 'src': '/static/foodstim60/lox.jpg', 'key': 'u', 'origWidth': 410, 'origHeight': 411, 'width': 410, 'height': 411, 'widthPercent': 0.45, 'rescaleHeight': False, 'trialN': 38, 'loaded': True, 'loadedTime': 63147.39999997616, 'positionName': 'LEFT', 'positionCoords': [511.6, 394.5], 'bid': 0.22}, {'imgObject': {}, 'id': 'kiwi', 'src': '/static/foodstim60/kiwi.jpg', 'key': 'i', 'origWidth': 410, 'origHeight': 410, 'width': 410, 'height': 410, 'widthPercent': 0.45, 'rescaleHeight': False, 'trialN': 38, 'loaded': True, 'loadedTime': 63147.60000002384, 'positionName': 'RIGHT', 'positionCoords': [998.4, 395], 'bid': 4.09}]",63146.200000047684,1669837809718,lox,kiwi,0.22,4.09,3.8699999999999997,,kiwi,801.3999999761581,814,813.6999999284744,True,i,64467.89999997616,1321.6999999284744,1669837811040,1322,HRV,HRV_0259,2022-11-30 19:53:46
39,"[{'imgObject': {}, 'id': 'Grapes', 'src': '/static/foodstim60/Grapes.jpg', 'key': 'u', 'origWidth': 411, 'origHeight': 411, 'width': 411, 'height': 411, 'widthPercent': 0.45, 'rescaleHeight': False, 'trialN': 39, 'loaded': True, 'loadedTime': 64469.89999997616, 'positionName': 'LEFT', 'positionCoords': [510.6, 394.5], 'bid': 5.33}, {'imgObject': {}, 'id': 'mashed potato', 'src': '/static/foodstim60/mashed potato.jpg', 'key': 'i', 'origWidth': 409, 'origHeight': 409, 'width': 409, 'height': 409, 'widthPercent': 0.45, 'rescaleHeight': False, 'trialN': 39, 'loaded': True, 'loadedTime': 64470.39999997616, 'positionName': 'RIGHT', 'positionCoords': [998.4, 395.5], 'bid': 5.3100000000000005}]",64468.5,1669837811040,Grapes,mashed potato,5.33,5.3100000000000005,-0.019999999999999574,,Grapes,1192.3000000715256,1197,1196.2000000476837,True,u,66171.0,1702.5,1669837812743,1703,HRV,HRV_0259,2022-11-30 19:53:46
40,"[{'imgObject': {}, 'id': 'shreddedwheatwithmilk', 'src': '/static/foodstim60/shreddedwheatwithmilk.jpg', 'key': 'u', 'origWidth': 410, 'origHeight': 410, 'width': 410, 'height': 410, 'widthPercent': 0.45, 'rescaleHeight': False, 'trialN': 40, 'loaded': True, 'loadedTime': 66173.10000002384, 'positionName': 'LEFT', 'positionCoords': [511.6, 395], 'bid': 0.23}, {'imgObject': {}, 'id': 'cherries', 'src': '/static/foodstim60/cherries.jpg', 'key': 'i', 'origWidth': 410, 'origHeight': 411, 'width': 410, 'height': 411, 'widthPercent': 0.45, 'rescaleHeight': False, 'trialN': 40, 'loaded': True, 'loadedTime': 66173.60000002384, 'positionName': 'RIGHT', 'positionCoords': [998.4, 394.5], 'bid': 4.25}]",66171.60000002384,1669837812743,shreddedwheatwithmilk,cherries,0.23,4.25,4.02,,cherries,888.0,892,891.2000000476837,True,i,67570.89999997616,1399.2999999523163,1669837814143,1400,HRV,HRV_0259,2022-11-30 19:53:46
41,"[{'imgObject': {}, 'id': 'seaweed', 'src': '/static/foodstim60/seaweed.jpg', 'key': 'u', 'origWidth': 410, 'origHeight': 410, 'width': 410, 'height': 410, 'widthPercent': 0.45, 'rescaleHeight': False, 'trialN': 41, 'loaded': True, 'loadedTime': 67573, 'positionName': 'LEFT', 'positionCoords': [511.6, 395], 'bid': 3.6}, {'imgObject': {}, 'id': 'steak', 'src': '/static/foodstim60/steak.jpg', 'key': 'i', 'origWidth': 410, 'origHeight': 410, 'width': 410, 'height': 410, 'widthPercent': 0.45, 'rescaleHeight': False, 'trialN': 41, 'loaded': True, 'loadedTime': 67573.30000007153, 'positionName': 'RIGHT', 'positionCoords': [998.4, 395], 'bid': 0.19}]",67571.5,1669837814143,seaweed,steak,3.6,0.19,-3.41,,seaweed,1280.2000000476837,1284,1284.2000000476837,True,u,69362.80000007153,1791.3000000715256,1669837815935,1792,HRV,HRV_0259,2022-11-30 19:53:46
42,"[{'imgObject': {}, 'id': 'sweetpotato', 'src': '/static/foodstim60/sweetpotato.jpg', 'key': 'u', 'origWidth': 410, 'origHeight': 410, 'width': 410, 'height': 410, 'widthPercent': 0.45, 'rescaleHeight': False, 'trialN': 42, 'loaded': True, 'loadedTime': 69364.89999997616, 'positionName': 'LEFT', 'positionCoords': [511.6, 395], 'bid': 5.87}, {'imgObject': {}, 'id': 'salmon', 'src': '/static/foodstim60/salmon.jpg', 'key': 'i', 'origWidth': 410, 'origHeight': 409, 'width': 410, 'height': 409, 'widthPercent': 0.45, 'rescaleHeight': False, 'trialN': 42, 'loaded': True, 'loadedTime': 69365.20000004768, 'positionName': 'RIGHT', 'positionCoords': [998.4, 395.5], 'bid': 0.25}]",69363.5,1669837815935,sweetpotato,salmon,5.87,0.25,-5.62,,sweetpotato,1107.3000000715256,1112,1111.1000000238419,True,u,70977.5,1614.0,1669837817549,1614,HRV,HRV_0259,2022-11-30 19:53:46
43,"[{'imgObject': {}, 'id': 'chickenfingers', 'src': '/static/foodstim60/chickenfingers.jpg', 'key': 'u', 'origWidth': 410, 'origHeight': 410, 'width': 410, 'height': 410, 'widthPercent': 0.45, 'rescaleHeight': False, 'trialN': 43, 'loaded': True, 'loadedTime': 70979.5, 'positionName': 'LEFT', 'positionCoords': [511.6, 395], 'bid': 0.23}, {'imgObject': {}, 'id': 'omelette', 'src': '/static/foodstim60/omelette.jpg', 'key': 'i', 'origWidth': 410, 'origHeight': 409, 'width': 410, 'height': 409, 'widthPercent': 0.45, 'rescaleHeight': False, 'trialN': 43, 'loaded': True, 'loadedTime': 70979.80000007153, 'positionName': 'RIGHT', 'positionCoords': [998.4, 395.5], 'bid': 5.55}]",70978.10000002384,1669837817550,chickenfingers,omelette,0.23,5.55,5.319999999999999,,omelette,758.6000000238419,762,762.3999999761581,True,i,72253.5,1275.3999999761581,1669837818825,1275,HRV,HRV_0259,2022-11-30 19:53:46
44,"[{'imgObject': {}, 'id': 'Tribe humus pita', 'src': '/static/foodstim60/Tribe humus pita.jpg', 'key': 'u', 'origWidth': 411, 'origHeight': 411, 'width': 411, 'height': 411, 'widthPercent': 0.45, 'rescaleHeight': False, 'trialN': 44, 'loaded': True, 'loadedTime': 72255.5, 'positionName': 'LEFT', 'positionCoords': [510.6, 394.5], 'bid': 5.07}, {'imgObject': {}, 'id': 'orange slices', 'src': '/static/foodstim60/orange slices.jpg', 'key': 'i', 'origWidth': 409, 'origHeight': 410, 'width': 409, 'height': 410, 'widthPercent': 0.45, 'rescaleHeight': False, 'trialN': 44, 'loaded': True, 'loadedTime': 72255.80000007153, 'positionName': 'RIGHT', 'positionCoords': [998.4, 395], 'bid': 3.67}]",72254.0,1669837818826,Tribe humus pita,orange slices,5.07,3.67,-1.4000000000000004,,Tribe humus pita,817.6000000238419,821,821.3999999761581,True,u,73581.5,1327.5,1669837820153,1327,HRV,HRV_0259,2022-11-30 19:53:46
45,"[{'imgObject': {}, 'id': 'orange slices', 'src': '/static/foodstim60/orange slices.jpg', 'key': 'u', 'origWidth': 409, 'origHeight': 410, 'width': 409, 'height': 410, 'widthPercent': 0.45, 'rescaleHeight': False, 'trialN': 45, 'loaded': True, 'loadedTime': 73583.5, 'positionName': 'LEFT', 'positionCoords': [512.6, 395], 'bid': 3.67}, {'imgObject': {}, 'id': 'burger', 'src': '/static/foodstim60/burger.jpg', 'key': 'i', 'origWidth': 409, 'origHeight': 409, 'width': 409, 'height': 409, 'widthPercent': 0.45, 'rescaleHeight': False, 'trialN': 45, 'loaded': True, 'loadedTime': 73583.80000007153, 'positionName': 'RIGHT', 'positionCoords': [998.4, 395.5], 'bid': 7.92}]",73582.10000002384,1669837820154,orange slices,burger,3.67,7.92,4.25,,burger,1172.5,1177,1176.3999999761581,True,i,75265.5,1683.3999999761581,1669837821838,1684,HRV,HRV_0259,2022-11-30 19:53:46
46,"[{'imgObject': {}, 'id': 'fried eggs', 'src': '/static/foodstim60/fried eggs.jpg', 'key': 'u', 'origWidth': 410, 'origHeight': 410, 'width': 410, 'height': 410, 'widthPercent': 0.45, 'rescaleHeight': False, 'trialN': 46, 'loaded': True, 'loadedTime': 75267.5, 'positionName': 'LEFT', 'positionCoords': [511.6, 395], 'bid': 5.44}, {'imgObject': {}, 'id': 'blackbeanswithrice', 'src': '/static/foodstim60/blackbeanswithrice.jpg', 'key': 'i', 'origWidth': 410, 'origHeight': 410, 'width': 410, 'height': 410, 'widthPercent': 0.45, 'rescaleHeight': False, 'trialN': 46, 'loaded': True, 'loadedTime': 75267.80000007153, 'positionName': 'RIGHT', 'positionCoords': [998.4, 395], 'bid': 5.94}]",75266.10000002384,1669837821838,fried eggs,blackbeanswithrice,5.44,5.94,0.5,,blackbeanswithrice,1256.3999999761581,1261,1260.3999999761581,True,i,77035.0,1768.8999999761581,1669837823607,1769,HRV,HRV_0259,2022-11-30 19:53:46
47,"[{'imgObject': {}, 'id': 'mac & cheese', 'src': '/static/foodstim60/mac & cheese.jpg', 'key': 'u', 'origWidth': 410, 'origHeight': 410, 'width': 410, 'height': 410, 'widthPercent': 0.45, 'rescaleHeight': False, 'trialN': 47, 'loaded': True, 'loadedTime': 77037.10000002384, 'positionName': 'LEFT', 'positionCoords': [511.6, 395], 'bid': 9.62}, {'imgObject': {}, 'id': 'burrito', 'src': '/static/foodstim60/burrito.jpg', 'key': 'i', 'origWidth': 410, 'origHeight': 410, 'width': 410, 'height': 410, 'widthPercent': 0.45, 'rescaleHeight': False, 'trialN': 47, 'loaded': True, 'loadedTime': 77037.5, 'positionName': 'RIGHT', 'positionCoords': [998.4, 395], 'bid': 9.23}]",77035.60000002384,1669837823608,mac & cheese,burrito,9.62,9.23,-0.3899999999999988,,burrito,727.8999999761581,731,731.7999999523163,True,i,78272.5,1236.8999999761581,1669837824845,1237,HRV,HRV_0259,2022-11-30 19:53:46
48,"[{'imgObject': {}, 'id': 'edamame', 'src': '/static/foodstim60/edamame.jpg', 'key': 'u', 'origWidth': 409, 'origHeight': 410, 'width': 409, 'height': 410, 'widthPercent': 0.45, 'rescaleHeight': False, 'trialN': 48, 'loaded': True, 'loadedTime': 78274.5, 'positionName': 'LEFT', 'positionCoords': [512.6, 395], 'bid': 0.4}, {'imgObject': {}, 'id': 'luckycharms', 'src': '/static/foodstim60/luckycharms.jpg', 'key': 'i', 'origWidth': 410, 'origHeight': 409, 'width': 410, 'height': 409, 'widthPercent': 0.45, 'rescaleHeight': False, 'trialN': 48, 'loaded': True, 'loadedTime': 78275, 'positionName': 'RIGHT', 'positionCoords': [998.4, 395.5], 'bid': 0.21}]",78273.10000002384,1669837824845,edamame,luckycharms,0.4,0.21,-0.19000000000000003,,edamame,1229.5,1234,1233.3999999761581,True,u,80011.70000004768,1738.6000000238419,1669837826584,1739,HRV,HRV_0259,2022-11-30 19:53:46
49,"[{'imgObject': {}, 'id': 'roastedpotatoes', 'src': '/static/foodstim60/roastedpotatoes.jpg', 'key': 'u', 'origWidth': 409, 'origHeight': 410, 'width': 409, 'height': 410, 'widthPercent': 0.45, 'rescaleHeight': False, 'trialN': 49, 'loaded': True, 'loadedTime': 80013.80000007153, 'positionName': 'LEFT', 'positionCoords': [512.6, 395], 'bid': 6}, {'imgObject': {}, 'id': 'eggs', 'src': '/static/foodstim60/eggs.jpg', 'key': 'i', 'origWidth': 409, 'origHeight': 409, 'width': 409, 'height': 409, 'widthPercent': 0.45, 'rescaleHeight': False, 'trialN': 49, 'loaded': True, 'loadedTime': 80014.20000004768, 'positionName': 'RIGHT', 'positionCoords': [998.4, 395.5], 'bid': 5.47}]",80012.30000007153,1669837826584,roastedpotatoes,eggs,6.0,5.47,-0.5300000000000002,,roastedpotatoes,1139.0999999046326,1144,1143.0,True,u,81660.0,1647.6999999284744,1669837828232,1648,HRV,HRV_0259,2022-11-30 19:53:46
50,"[{'imgObject': {}, 'id': 'cheerios', 'src': '/static/foodstim60/cheerios.jpg', 'key': 'u', 'origWidth': 409, 'origHeight': 410, 'width': 409, 'height': 410, 'widthPercent': 0.45, 'rescaleHeight': False, 'trialN': 50, 'loaded': True, 'loadedTime': 81661.5, 'positionName': 'LEFT', 'positionCoords': [512.6, 395], 'bid': 0.16}, {'imgObject': {}, 'id': 'edamame', 'src': '/static/foodstim60/edamame.jpg', 'key': 'i', 'origWidth': 409, 'origHeight': 410, 'width': 409, 'height': 410, 'widthPercent': 0.45, 'rescaleHeight': False, 'trialN': 50, 'loaded': True, 'loadedTime': 81661.80000007153, 'positionName': 'RIGHT', 'positionCoords': [998.4, 395], 'bid': 0.4}]",81660.30000007153,1669837828233,cheerios,edamame,0.16,0.4,0.24000000000000002,,edamame,767.8999999761581,779,779.8999999761581,True,i,82944.5,1284.1999999284744,1669837829517,1284,HRV,HRV_0259,2022-11-30 19:53:46
51,"[{'imgObject': {}, 'id': 'banana', 'src': '/static/foodstim60/banana.jpg', 'key': 'u', 'origWidth': 410, 'origHeight': 410, 'width': 410, 'height': 410, 'widthPercent': 0.45, 'rescaleHeight': False, 'trialN': 51, 'loaded': True, 'loadedTime': 82946.60000002384, 'positionName': 'LEFT', 'positionCoords': [511.6, 395], 'bid': 3.9}, {'imgObject': {}, 'id': 'sushi w_condiments', 'src': '/static/foodstim60/sushi w_condiments.jpg', 'key': 'i', 'origWidth': 410, 'origHeight': 410, 'width': 410, 'height': 410, 'widthPercent': 0.45, 'rescaleHeight': False, 'trialN': 51, 'loaded': True, 'loadedTime': 82947, 'positionName': 'RIGHT', 'positionCoords': [998.4, 395], 'bid': 8.09}]",82945.20000004768,1669837829517,banana,sushi w_condiments,3.9,8.09,4.1899999999999995,,sushi w_condiments,807.1000000238419,811,810.7999999523163,True,i,84261.0,1315.7999999523163,1669837830833,1316,HRV,HRV_0259,2022-11-30 19:53:46
52,"[{'imgObject': {}, 'id': 'orange slices', 'src': '/static/foodstim60/orange slices.jpg', 'key': 'u', 'origWidth': 409, 'origHeight': 410, 'width': 409, 'height': 410, 'widthPercent': 0.45, 'rescaleHeight': False, 'trialN': 52, 'loaded': True, 'loadedTime': 84263.10000002384, 'positionName': 'LEFT', 'positionCoords': [512.6, 395], 'bid': 3.67}, {'imgObject': {}, 'id': 'salmon', 'src': '/static/foodstim60/salmon.jpg', 'key': 'i', 'origWidth': 410, 'origHeight': 409, 'width': 410, 'height': 409, 'widthPercent': 0.45, 'rescaleHeight': False, 'trialN': 52, 'loaded': True, 'loadedTime': 84263.39999997616, 'positionName': 'RIGHT', 'positionCoords': [998.4, 395.5], 'bid': 0.25}]",84261.60000002384,1669837830834,orange slices,salmon,3.67,0.25,-3.42,,orange slices,1626.7000000476837,1631,1630.7000000476837,True,u,86401.5,2139.899999976158,1669837832974,2140,HRV,HRV_0259,2022-11-30 19:53:46
53,"[{'imgObject': {}, 'id': 'cherries', 'src': '/static/foodstim60/cherries.jpg', 'key': 'u', 'origWidth': 410, 'origHeight': 411, 'width': 410, 'height': 411, 'widthPercent': 0.45, 'rescaleHeight': False, 'trialN': 53, 'loaded': True, 'loadedTime': 86403.5, 'positionName': 'LEFT', 'positionCoords': [511.6, 394.5], 'bid': 4.25}, {'imgObject': {}, 'id': 'kiwi', 'src': '/static/foodstim60/kiwi.jpg', 'key': 'i', 'origWidth': 410, 'origHeight': 410, 'width': 410, 'height': 410, 'widthPercent': 0.45, 'rescaleHeight': False, 'trialN': 53, 'loaded': True, 'loadedTime': 86403.80000007153, 'positionName': 'RIGHT', 'positionCoords': [998.4, 395], 'bid': 4.09}]",86402.10000002384,1669837832974,cherries,kiwi,4.25,4.09,-0.16000000000000014,,kiwi,931.2000000476837,935,935.0,True,i,87841.30000007153,1439.2000000476837,1669837834414,1440,HRV,HRV_0259,2022-11-30 19:53:46
54,"[{'imgObject': {}, 'id': 'turkey sandwich', 'src': '/static/foodstim60/turkey sandwich.jpg', 'key': 'u', 'origWidth': 409, 'origHeight': 409, 'width': 409, 'height': 409, 'widthPercent': 0.45, 'rescaleHeight': False, 'trialN': 54, 'loaded': True, 'loadedTime': 87843.30000007153, 'positionName': 'LEFT', 'positionCoords': [512.6, 395.5], 'bid': 7.79}, {'imgObject': {}, 'id': 'fried eggs', 'src': '/static/foodstim60/fried eggs.jpg', 'key': 'i', 'origWidth': 410, 'origHeight': 410, 'width': 410, 'height': 410, 'widthPercent': 0.45, 'rescaleHeight': False, 'trialN': 54, 'loaded': True, 'loadedTime': 87843.60000002384, 'positionName': 'RIGHT', 'positionCoords': [998.4, 395], 'bid': 5.44}]",87841.80000007153,1669837834414,turkey sandwich,fried eggs,7.79,5.44,-2.3499999999999996,,turkey sandwich,1169.3999999761581,1173,1172.7999999523163,True,u,89524.70000004768,1682.8999999761581,1669837836097,1683,HRV,HRV_0259,2022-11-30 19:53:46
55,"[{'imgObject': {}, 'id': 'salmon', 'src': '/static/foodstim60/salmon.jpg', 'key': 'u', 'origWidth': 410, 'origHeight': 409, 'width': 410, 'height': 409, 'widthPercent': 0.45, 'rescaleHeight': False, 'trialN': 55, 'loaded': True, 'loadedTime': 89526.80000007153, 'positionName': 'LEFT', 'positionCoords': [511.6, 395.5], 'bid': 0.25}, {'imgObject': {}, 'id': 'chicken nuggets2', 'src': '/static/foodstim60/chicken nuggets2.jpg', 'key': 'i', 'origWidth': 410, 'origHeight': 409, 'width': 410, 'height': 409, 'widthPercent': 0.45, 'rescaleHeight': False, 'trialN': 55, 'loaded': True, 'loadedTime': 89527.10000002384, 'positionName': 'RIGHT', 'positionCoords': [998.4, 395.5], 'bid': 0.25}]",89525.30000007153,1669837836098,salmon,chicken nuggets2,0.25,0.25,0.0,,salmon,1338.8999999761581,1343,1342.7999999523163,True,u,91369.5,1844.1999999284744,1669837837942,1844,HRV,HRV_0259,2022-11-30 19:53:46
56,"[{'imgObject': {}, 'id': 'strawberries', 'src': '/static/foodstim60/strawberries.jpg', 'key': 'u', 'origWidth': 410, 'origHeight': 410, 'width': 410, 'height': 410, 'widthPercent': 0.45, 'rescaleHeight': False, 'trialN': 56, 'loaded': True, 'loadedTime': 91371.60000002384, 'positionName': 'LEFT', 'positionCoords': [511.6, 395], 'bid': 8.83}, {'imgObject': {}, 'id': 'cantaloupe', 'src': '/static/foodstim60/cantaloupe.jpg', 'key': 'i', 'origWidth': 409, 'origHeight': 409, 'width': 409, 'height': 409, 'widthPercent': 0.45, 'rescaleHeight': False, 'trialN': 56, 'loaded': True, 'loadedTime': 91371.89999997616, 'positionName': 'RIGHT', 'positionCoords': [998.4, 395.5], 'bid': 4.16}]",91370.10000002384,1669837837943,strawberries,cantaloupe,8.83,4.16,-4.67,,strawberries,752.0,756,755.8999999761581,True,u,92633.70000004768,1263.6000000238419,1669837839206,1263,HRV,HRV_0259,2022-11-30 19:53:46
57,"[{'imgObject': {}, 'id': 'bagel and cc', 'src': '/static/foodstim60/bagel and cc.jpg', 'key': 'u', 'origWidth': 410, 'origHeight': 410, 'width': 410, 'height': 410, 'widthPercent': 0.45, 'rescaleHeight': False, 'trialN': 57, 'loaded': True, 'loadedTime': 92635.70000004768, 'positionName': 'LEFT', 'positionCoords': [511.6, 395], 'bid': 4.95}, {'imgObject': {}, 'id': 'raspberries', 'src': '/static/foodstim60/raspberries.jpg', 'key': 'i', 'origWidth': 411, 'origHeight': 411, 'width': 411, 'height': 411, 'widthPercent': 0.45, 'rescaleHeight': False, 'trialN': 57, 'loaded': True, 'loadedTime': 92636.10000002384, 'positionName': 'RIGHT', 'positionCoords': [998.4, 394.5], 'bid': 5.44}]",92634.30000007153,1669837839207,bagel and cc,raspberries,4.95,5.44,0.4900000000000002,,raspberries,1187.5999999046326,1191,1191.2999999523163,True,i,94333.5,1699.1999999284744,1669837840906,1699,HRV,HRV_0259,2022-11-30 19:53:46
58,"[{'imgObject': {}, 'id': 'mango', 'src': '/static/foodstim60/mango.jpg', 'key': 'u', 'origWidth': 411, 'origHeight': 411, 'width': 411, 'height': 411, 'widthPercent': 0.45, 'rescaleHeight': False, 'trialN': 58, 'loaded': True, 'loadedTime': 94335.5, 'positionName': 'LEFT', 'positionCoords': [510.6, 394.5], 'bid': 5.48}, {'imgObject': {}, 'id': 'shreddedwheatwithmilk', 'src': '/static/foodstim60/shreddedwheatwithmilk.jpg', 'key': 'i', 'origWidth': 410, 'origHeight': 410, 'width': 410, 'height': 410, 'widthPercent': 0.45, 'rescaleHeight': False, 'trialN': 58, 'loaded': True, 'loadedTime': 94336, 'positionName': 'RIGHT', 'positionCoords': [998.4, 395], 'bid': 0.23}]",94334.10000002384,1669837840907,mango,shreddedwheatwithmilk,5.48,0.23,-5.25,,mango,811.0,815,815.3999999761581,True,u,95657.5,1323.3999999761581,1669837842230,1323,HRV,HRV_0259,2022-11-30 19:53:46
59,"[{'imgObject': {}, 'id': 'mango', 'src': '/static/foodstim60/mango.jpg', 'key': 'u', 'origWidth': 411, 'origHeight': 411, 'width': 411, 'height': 411, 'widthPercent': 0.45, 'rescaleHeight': False, 'trialN': 59, 'loaded': True, 'loadedTime': 95659.60000002384, 'positionName': 'LEFT', 'positionCoords': [510.6, 394.5], 'bid': 5.48}, {'imgObject': {}, 'id': 'fruitsalad', 'src': '/static/foodstim60/fruitsalad.jpg', 'key': 'i', 'origWidth': 410, 'origHeight': 410, 'width': 410, 'height': 410, 'widthPercent': 0.45, 'rescaleHeight': False, 'trialN': 59, 'loaded': True, 'loadedTime': 95660.10000002384, 'positionName': 'RIGHT', 'positionCoords': [998.4, 395], 'bid': 7.92}]",95658.10000002384,1669837842231,mango,fruitsalad,5.48,7.92,2.4399999999999995,,fruitsalad,854.8999999761581,859,859.1000000238419,True,i,97029.5,1371.3999999761581,1669837843602,1371,HRV,HRV_0259,2022-11-30 19:53:46
60,"[{'imgObject': {}, 'id': 'burger', 'src': '/static/foodstim60/burger.jpg', 'key': 'u', 'origWidth': 409, 'origHeight': 409, 'width': 409, 'height': 409, 'widthPercent': 0.45, 'rescaleHeight': False, 'trialN': 60, 'loaded': True, 'loadedTime': 97031.5, 'positionName': 'LEFT', 'positionCoords': [512.6, 395.5], 'bid': 7.92}, {'imgObject': {}, 'id': 'salad w chicken', 'src': '/static/foodstim60/salad w chicken.jpg', 'key': 'i', 'origWidth': 411, 'origHeight': 411, 'width': 411, 'height': 411, 'widthPercent': 0.45, 'rescaleHeight': False, 'trialN': 60, 'loaded': True, 'loadedTime': 97032, 'positionName': 'RIGHT', 'positionCoords': [998.4, 394.5], 'bid': 6.390000000000001}]",97030.0,1669837843603,burger,salad w chicken,7.92,6.390000000000001,-1.5299999999999994,,burger,1265.0,1269,1268.7000000476837,True,u,98803.70000004768,1773.7000000476837,1669837845376,1773,HRV,HRV_0259,2022-11-30 19:53:46
61,"[{'imgObject': {}, 'id': 'turkeysandwich', 'src': '/static/foodstim60/turkeysandwich.jpg', 'key': 'u', 'origWidth': 409, 'origHeight': 409, 'width': 409, 'height': 409, 'widthPercent': 0.45, 'rescaleHeight': False, 'trialN': 61, 'loaded': True, 'loadedTime': 98805.80000007153, 'positionName': 'LEFT', 'positionCoords': [512.6, 395.5], 'bid': 8.45}, {'imgObject': {}, 'id': 'fruitsalad', 'src': '/static/foodstim60/fruitsalad.jpg', 'key': 'i', 'origWidth': 410, 'origHeight': 410, 'width': 410, 'height': 410, 'widthPercent': 0.45, 'rescaleHeight': False, 'trialN': 61, 'loaded': True, 'loadedTime': 98806, 'positionName': 'RIGHT', 'positionCoords': [998.4, 395], 'bid': 7.92}]",98804.30000007153,1669837845377,turkeysandwich,fruitsalad,8.45,7.92,-0.5299999999999994,,fruitsalad,1417.6999999284744,1422,1421.5999999046326,True,i,100729.5,1925.1999999284744,1669837847302,1925,HRV,HRV_0259,2022-11-30 19:53:46
62,"[{'imgObject': {}, 'id': 'roastedpotatoes', 'src': '/static/foodstim60/roastedpotatoes.jpg', 'key': 'u', 'origWidth': 409, 'origHeight': 410, 'width': 409, 'height': 410, 'widthPercent': 0.45, 'rescaleHeight': False, 'trialN': 62, 'loaded': True, 'loadedTime': 100731.60000002384, 'positionName': 'LEFT', 'positionCoords': [512.6, 395], 'bid': 6}, {'imgObject': {}, 'id': 'edamame', 'src': '/static/foodstim60/edamame.jpg', 'key': 'i', 'origWidth': 409, 'origHeight': 410, 'width': 409, 'height': 410, 'widthPercent': 0.45, 'rescaleHeight': False, 'trialN': 62, 'loaded': True, 'loadedTime': 100731.89999997616, 'positionName': 'RIGHT', 'positionCoords': [998.4, 395], 'bid': 0.4}]",100730.0,1669837847303,roastedpotatoes,edamame,6.0,0.4,-5.6,,roastedpotatoes,806.0,809,809.6000000238419,True,u,102040.80000007153,1310.8000000715256,1669837848614,1311,HRV,HRV_0259,2022-11-30 19:53:46
63,"[{'imgObject': {}, 'id': 'kiwi', 'src': '/static/foodstim60/kiwi.jpg', 'key': 'u', 'origWidth': 410, 'origHeight': 410, 'width': 410, 'height': 410, 'widthPercent': 0.45, 'rescaleHeight': False, 'trialN': 63, 'loaded': True, 'loadedTime': 102042.10000002384, 'positionName': 'LEFT', 'positionCoords': [511.6, 395], 'bid': 4.09}, {'imgObject': {}, 'id': 'hotdog w must', 'src': '/static/foodstim60/hotdog w must.jpg', 'key': 'i', 'origWidth': 409, 'origHeight': 409, 'width': 409, 'height': 409, 'widthPercent': 0.45, 'rescaleHeight': False, 'trialN': 63, 'loaded': True, 'loadedTime': 102042.39999997616, 'positionName': 'RIGHT', 'positionCoords': [998.4, 395.5], 'bid': 5.29}]",102041.10000002384,1669837848614,kiwi,hotdog w must,4.09,5.29,1.2000000000000002,,kiwi,1095.7999999523163,1099,1099.1000000238419,True,u,103652.39999997616,1611.2999999523163,1669837850225,1611,HRV,HRV_0259,2022-11-30 19:53:46
64,"[{'imgObject': {}, 'id': 'avocado', 'src': '/static/foodstim60/avocado.jpg', 'key': 'u', 'origWidth': 409, 'origHeight': 409, 'width': 409, 'height': 409, 'widthPercent': 0.45, 'rescaleHeight': False, 'trialN': 64, 'loaded': True, 'loadedTime': 103654.39999997616, 'positionName': 'LEFT', 'positionCoords': [512.6, 395.5], 'bid': 8.82}, {'imgObject': {}, 'id': 'turkeysandwich', 'src': '/static/foodstim60/turkeysandwich.jpg', 'key': 'i', 'origWidth': 409, 'origHeight': 409, 'width': 409, 'height': 409, 'widthPercent': 0.45, 'rescaleHeight': False, 'trialN': 64, 'loaded': True, 'loadedTime': 103654.70000004768, 'positionName': 'RIGHT', 'positionCoords': [998.4, 395.5], 'bid': 8.45}]",103653.0,1669837850226,avocado,turkeysandwich,8.82,8.45,-0.370000000000001,,avocado,1260.8999999761581,1265,1264.7000000476837,True,u,105429.39999997616,1776.3999999761581,1669837852002,1776,HRV,HRV_0259,2022-11-30 19:53:46
65,"[{'imgObject': {}, 'id': 'salmon', 'src': '/static/foodstim60/salmon.jpg', 'key': 'u', 'origWidth': 410, 'origHeight': 409, 'width': 410, 'height': 409, 'widthPercent': 0.45, 'rescaleHeight': False, 'trialN': 65, 'loaded': True, 'loadedTime': 105431.60000002384, 'positionName': 'LEFT', 'positionCoords': [511.6, 395.5], 'bid': 0.25}, {'imgObject': {}, 'id': 'steak', 'src': '/static/foodstim60/steak.jpg', 'key': 'i', 'origWidth': 410, 'origHeight': 410, 'width': 410, 'height': 410, 'widthPercent': 0.45, 'rescaleHeight': False, 'trialN': 65, 'loaded': True, 'loadedTime': 105431.70000004768, 'positionName': 'RIGHT', 'positionCoords': [998.4, 395], 'bid': 0.19}]",105430.0,1669837852003,salmon,steak,0.25,0.19,-0.06,,salmon,1063.8000000715256,1068,1067.6000000238419,True,u,107001.60000002384,1571.6000000238419,1669837853575,1572,HRV,HRV_0259,2022-11-30 19:53:46
66,"[{'imgObject': {}, 'id': 'rigatoni', 'src': '/static/foodstim60/rigatoni.jpg', 'key': 'u', 'origWidth': 411, 'origHeight': 411, 'width': 411, 'height': 411, 'widthPercent': 0.45, 'rescaleHeight': False, 'trialN': 66, 'loaded': True, 'loadedTime': 107003.70000004768, 'positionName': 'LEFT', 'positionCoords': [510.6, 394.5], 'bid': 6.34}, {'imgObject': {}, 'id': 'turkey sandwich', 'src': '/static/foodstim60/turkey sandwich.jpg', 'key': 'i', 'origWidth': 409, 'origHeight': 409, 'width': 409, 'height': 409, 'widthPercent': 0.45, 'rescaleHeight': False, 'trialN': 66, 'loaded': True, 'loadedTime': 107004.10000002384, 'positionName': 'RIGHT', 'positionCoords': [998.4, 395.5], 'bid': 7.79}]",107002.30000007153,1669837853575,rigatoni,turkey sandwich,6.34,7.79,1.4500000000000002,,turkey sandwich,1166.3999999761581,1171,1170.7999999523163,True,i,108685.5,1683.1999999284744,1669837855258,1683,HRV,HRV_0259,2022-11-30 19:53:46
67,"[{'imgObject': {}, 'id': 'cheerios', 'src': '/static/foodstim60/cheerios.jpg', 'key': 'u', 'origWidth': 409, 'origHeight': 410, 'width': 409, 'height': 410, 'widthPercent': 0.45, 'rescaleHeight': False, 'trialN': 67, 'loaded': True, 'loadedTime': 108687.39999997616, 'positionName': 'LEFT', 'positionCoords': [512.6, 395], 'bid': 0.16}, {'imgObject': {}, 'id': 'granola w milk', 'src': '/static/foodstim60/granola w milk.jpg', 'key': 'i', 'origWidth': 410, 'origHeight': 410, 'width': 410, 'height': 410, 'widthPercent': 0.45, 'rescaleHeight': False, 'trialN': 67, 'loaded': True, 'loadedTime': 108688, 'positionName': 'RIGHT', 'positionCoords': [998.4, 395], 'bid': 0.17}]",108686.10000002384,1669837855259,cheerios,granola w milk,0.16,0.17,0.010000000000000009,,cheerios,1285.3999999761581,1289,1288.8999999761581,True,u,110485.39999997616,1799.2999999523163,1669837857059,1800,HRV,HRV_0259,2022-11-30 19:53:46
68,"[{'imgObject': {}, 'id': 'sushi w_condiments', 'src': '/static/foodstim60/sushi w_condiments.jpg', 'key': 'u', 'origWidth': 410, 'origHeight': 410, 'width': 410, 'height': 410, 'widthPercent': 0.45, 'rescaleHeight': False, 'trialN': 68, 'loaded': True, 'loadedTime': 110487.60000002384, 'positionName': 'LEFT', 'positionCoords': [511.6, 395], 'bid': 8.09}, {'imgObject': {}, 'id': 'mac & cheese', 'src': '/static/foodstim60/mac & cheese.jpg', 'key': 'i', 'origWidth': 410, 'origHeight': 410, 'width': 410, 'height': 410, 'widthPercent': 0.45, 'rescaleHeight': False, 'trialN': 68, 'loaded': True, 'loadedTime': 110488, 'positionName': 'RIGHT', 'positionCoords': [998.4, 395], 'bid': 9.62}]",110486.10000002384,1669837857059,sushi w_condiments,mac & cheese,8.09,9.62,1.5299999999999994,,mac & cheese,733.6000000238419,738,737.3999999761581,True,i,111732.10000002384,1246.0,1669837858305,1246,HRV,HRV_0259,2022-11-30 19:53:46
69,"[{'imgObject': {}, 'id': 'strawberries', 'src': '/static/foodstim60/strawberries.jpg', 'key': 'u', 'origWidth': 410, 'origHeight': 410, 'width': 410, 'height': 410, 'widthPercent': 0.45, 'rescaleHeight': False, 'trialN': 69, 'loaded': True, 'loadedTime': 111733.30000007153, 'positionName': 'LEFT', 'positionCoords': [511.6, 395], 'bid': 8.83}, {'imgObject': {}, 'id': 'eggs', 'src': '/static/foodstim60/eggs.jpg', 'key': 'i', 'origWidth': 409, 'origHeight': 409, 'width': 409, 'height': 409, 'widthPercent': 0.45, 'rescaleHeight': False, 'trialN': 69, 'loaded': True, 'loadedTime': 111733.5, 'positionName': 'RIGHT', 'positionCoords': [998.4, 395.5], 'bid': 5.47}]",111732.39999997616,1669837858306,strawberries,eggs,8.83,5.47,-3.3600000000000003,,strawberries,970.2000000476837,974,974.2000000476837,True,u,113211.20000004768,1478.8000000715256,1669837859784,1478,HRV,HRV_0259,2022-11-30 19:53:46
70,"[{'imgObject': {}, 'id': 'salmon', 'src': '/static/foodstim60/salmon.jpg', 'key': 'u', 'origWidth': 410, 'origHeight': 409, 'width': 410, 'height': 409, 'widthPercent': 0.45, 'rescaleHeight': False, 'trialN': 70, 'loaded': True, 'loadedTime': 113213.20000004768, 'positionName': 'LEFT', 'positionCoords': [511.6, 395.5], 'bid': 0.25}, {'imgObject': {}, 'id': 'hashbrowns', 'src': '/static/foodstim60/hashbrowns.jpg', 'key': 'i', 'origWidth': 411, 'origHeight': 410, 'width': 411, 'height': 410, 'widthPercent': 0.45, 'rescaleHeight': False, 'trialN': 70, 'loaded': True, 'loadedTime': 113213.70000004768, 'positionName': 'RIGHT', 'positionCoords': [998.4, 395], 'bid': 0.14}]",113211.80000007153,1669837859785,salmon,hashbrowns,0.25,0.14,-0.10999999999999999,,salmon,878.8999999761581,883,882.7999999523163,True,u,114603.5,1391.6999999284744,1669837861177,1392,HRV,HRV_0259,2022-11-30 19:53:46
71,"[{'imgObject': {}, 'id': 'cheerios', 'src': '/static/foodstim60/cheerios.jpg', 'key': 'u', 'origWidth': 409, 'origHeight': 410, 'width': 409, 'height': 410, 'widthPercent': 0.45, 'rescaleHeight': False, 'trialN': 71, 'loaded': True, 'loadedTime': 114605.60000002384, 'positionName': 'LEFT', 'positionCoords': [512.6, 395], 'bid': 0.16}, {'imgObject': {}, 'id': 'hashbrowns', 'src': '/static/foodstim60/hashbrowns.jpg', 'key': 'i', 'origWidth': 411, 'origHeight': 410, 'width': 411, 'height': 410, 'widthPercent': 0.45, 'rescaleHeight': False, 'trialN': 71, 'loaded': True, 'loadedTime': 114605.89999997616, 'positionName': 'RIGHT', 'positionCoords': [998.4, 395], 'bid': 0.14}]",114604.10000002384,1669837861177,cheerios,hashbrowns,0.16,0.14,-0.01999999999999999,,cheerios,1580.6000000238419,1585,1584.3999999761581,True,u,116701.5,2097.399999976158,1669837863275,2098,HRV,HRV_0259,2022-11-30 19:53:46
72,"[{'imgObject': {}, 'id': 'bagel plain', 'src': '/static/foodstim60/bagel plain.jpg', 'key': 'u', 'origWidth': 410, 'origHeight': 410, 'width': 410, 'height': 410, 'widthPercent': 0.45, 'rescaleHeight': False, 'trialN': 72, 'loaded': True, 'loadedTime': 116703.5, 'positionName': 'LEFT', 'positionCoords': [511.6, 395], 'bid': 5.05}, {'imgObject': {}, 'id': 'pear', 'src': '/static/foodstim60/pear.jpg', 'key': 'i', 'origWidth': 411, 'origHeight': 410, 'width': 411, 'height': 410, 'widthPercent': 0.45, 'rescaleHeight': False, 'trialN': 72, 'loaded': True, 'loadedTime': 116703.89999997616, 'positionName': 'RIGHT', 'positionCoords': [998.4, 395], 'bid': 4.01}]",116702.10000002384,1669837863275,bagel plain,pear,5.05,4.01,-1.04,,bagel plain,951.5,956,955.3999999761581,True,u,118165.39999997616,1463.2999999523163,1669837864739,1464,HRV,HRV_0259,2022-11-30 19:53:46
73,"[{'imgObject': {}, 'id': 'hashbrowns', 'src': '/static/foodstim60/hashbrowns.jpg', 'key': 'u', 'origWidth': 411, 'origHeight': 410, 'width': 411, 'height': 410, 'widthPercent': 0.45, 'rescaleHeight': False, 'trialN': 73, 'loaded': True, 'loadedTime': 118167.5, 'positionName': 'LEFT', 'positionCoords': [510.6, 395], 'bid': 0.14}, {'imgObject': {}, 'id': 'bagel plain', 'src': '/static/foodstim60/bagel plain.jpg', 'key': 'i', 'origWidth': 410, 'origHeight': 410, 'width': 410, 'height': 410, 'widthPercent': 0.45, 'rescaleHeight': False, 'trialN': 73, 'loaded': True, 'loadedTime': 118167.80000007153, 'positionName': 'RIGHT', 'positionCoords': [998.4, 395], 'bid': 5.05}]",118166.10000002384,1669837864739,hashbrowns,bagel plain,0.14,5.05,4.91,,bagel plain,1378.3999999761581,1383,1382.5,True,i,120060.5,1894.3999999761581,1669837866634,1895,HRV,HRV_0259,2022-11-30 19:53:46
74,"[{'imgObject': {}, 'id': 'tacos', 'src': '/static/foodstim60/tacos.jpg', 'key': 'u', 'origWidth': 411, 'origHeight': 411, 'width': 411, 'height': 411, 'widthPercent': 0.45, 'rescaleHeight': False, 'trialN': 74, 'loaded': True, 'loadedTime': 120062.60000002384, 'positionName': 'LEFT', 'positionCoords': [510.6, 394.5], 'bid': 8.97}, {'imgObject': {}, 'id': 'strawberries', 'src': '/static/foodstim60/strawberries.jpg', 'key': 'i', 'origWidth': 410, 'origHeight': 410, 'width': 410, 'height': 410, 'widthPercent': 0.45, 'rescaleHeight': False, 'trialN': 74, 'loaded': True, 'loadedTime': 120062.80000007153, 'positionName': 'RIGHT', 'positionCoords': [998.4, 395], 'bid': 8.83}]",120061.10000002384,1669837866635,tacos,strawberries,8.97,8.83,-0.14000000000000057,,tacos,759.2999999523163,763,763.1000000238419,True,u,121329.80000007153,1268.7000000476837,1669837867903,1268,HRV,HRV_0259,2022-11-30 19:53:46
75,"[{'imgObject': {}, 'id': 'grilled chicken strips', 'src': '/static/foodstim60/grilled chicken strips.jpg', 'key': 'u', 'origWidth': 410, 'origHeight': 411, 'width': 410, 'height': 411, 'widthPercent': 0.45, 'rescaleHeight': False, 'trialN': 75, 'loaded': True, 'loadedTime': 121331.89999997616, 'positionName': 'LEFT', 'positionCoords': [511.6, 394.5], 'bid': 0.21}, {'imgObject': {}, 'id': 'yogurt no spoon', 'src': '/static/foodstim60/yogurt no spoon.jpg', 'key': 'i', 'origWidth': 411, 'origHeight': 410, 'width': 411, 'height': 410, 'widthPercent': 0.45, 'rescaleHeight': False, 'trialN': 75, 'loaded': True, 'loadedTime': 121332.20000004768, 'positionName': 'RIGHT', 'positionCoords': [998.4, 395], 'bid': 5.36}]",121330.39999997616,1669837867904,grilled chicken strips,yogurt no spoon,0.21,5.36,5.15,,yogurt no spoon,1186.1000000238419,1190,1189.8000000715256,True,i,123025.5,1695.1000000238419,1669837869599,1695,HRV,HRV_0259,2022-11-30 19:53:46
76,"[{'imgObject': {}, 'id': 'eggs', 'src': '/static/foodstim60/eggs.jpg', 'key': 'u', 'origWidth': 409, 'origHeight': 409, 'width': 409, 'height': 409, 'widthPercent': 0.45, 'rescaleHeight': False, 'trialN': 76, 'loaded': True, 'loadedTime': 123027.39999997616, 'positionName': 'LEFT', 'positionCoords': [512.6, 395.5], 'bid': 5.47}, {'imgObject': {}, 'id': 'fried eggs', 'src': '/static/foodstim60/fried eggs.jpg', 'key': 'i', 'origWidth': 410, 'origHeight': 410, 'width': 410, 'height': 410, 'widthPercent': 0.45, 'rescaleHeight': False, 'trialN': 76, 'loaded': True, 'loadedTime': 123027.80000007153, 'positionName': 'RIGHT', 'positionCoords': [998.4, 395], 'bid': 5.44}]",123026.10000002384,1669837869599,eggs,fried eggs,5.47,5.44,-0.02999999999999936,,eggs,1188.2000000476837,1192,1191.7000000476837,True,u,124720.5,1694.3999999761581,1669837871294,1695,HRV,HRV_0259,2022-11-30 19:53:46
77,"[{'imgObject': {}, 'id': 'raisin bran w milk', 'src': '/static/foodstim60/raisin bran w milk.jpg', 'key': 'u', 'origWidth': 411, 'origHeight': 411, 'width': 411, 'height': 411, 'widthPercent': 0.45, 'rescaleHeight': False, 'trialN': 77, 'loaded': True, 'loadedTime': 124722.5, 'positionName': 'LEFT', 'positionCoords': [510.6, 394.5], 'bid': 0.16}, {'imgObject': {}, 'id': 'corn cob', 'src': '/static/foodstim60/corn cob.jpg', 'key': 'i', 'origWidth': 411, 'origHeight': 411, 'width': 411, 'height': 411, 'widthPercent': 0.45, 'rescaleHeight': False, 'trialN': 77, 'loaded': True, 'loadedTime': 124723, 'positionName': 'RIGHT', 'positionCoords': [998.4, 394.5], 'bid': 0.33}]",124721.10000002384,1669837871295,raisin bran w milk,corn cob,0.16,0.33,0.17,,corn cob,1158.2000000476837,1162,1162.0,True,i,126388.30000007153,1667.2000000476837,1669837872962,1667,HRV,HRV_0259,2022-11-30 19:53:46
78,"[{'imgObject': {}, 'id': 'salad w chicken', 'src': '/static/foodstim60/salad w chicken.jpg', 'key': 'u', 'origWidth': 411, 'origHeight': 411, 'width': 411, 'height': 411, 'widthPercent': 0.45, 'rescaleHeight': False, 'trialN': 78, 'loaded': True, 'loadedTime': 126389.80000007153, 'positionName': 'LEFT', 'positionCoords': [510.6, 394.5], 'bid': 6.390000000000001}, {'imgObject': {}, 'id': 'avocado', 'src': '/static/foodstim60/avocado.jpg', 'key': 'i', 'origWidth': 409, 'origHeight': 409, 'width': 409, 'height': 409, 'widthPercent': 0.45, 'rescaleHeight': False, 'trialN': 78, 'loaded': True, 'loadedTime': 126390, 'positionName': 'RIGHT', 'positionCoords': [998.4, 395.5], 'bid': 8.82}]",126388.70000004768,1669837872962,salad w chicken,avocado,6.390000000000001,8.82,2.4299999999999997,,avocado,931.3999999761581,935,935.0,True,i,127828.10000002384,1439.3999999761581,1669837874402,1440,HRV,HRV_0259,2022-11-30 19:53:46
79,"[{'imgObject': {}, 'id': 'burger', 'src': '/static/foodstim60/burger.jpg', 'key': 'u', 'origWidth': 409, 'origHeight': 409, 'width': 409, 'height': 409, 'widthPercent': 0.45, 'rescaleHeight': False, 'trialN': 79, 'loaded': True, 'loadedTime': 127830.20000004768, 'positionName': 'LEFT', 'positionCoords': [512.6, 395.5], 'bid': 7.92}, {'imgObject': {}, 'id': 'mashed potato', 'src': '/static/foodstim60/mashed potato.jpg', 'key': 'i', 'origWidth': 409, 'origHeight': 409, 'width': 409, 'height': 409, 'widthPercent': 0.45, 'rescaleHeight': False, 'trialN': 79, 'loaded': True, 'loadedTime': 127830.60000002384, 'positionName': 'RIGHT', 'positionCoords': [998.4, 395.5], 'bid': 5.3100000000000005}]",127828.70000004768,1669837874402,burger,mashed potato,7.92,5.3100000000000005,-2.6099999999999994,,burger,918.3999999761581,922,921.6999999284744,True,u,129259.10000002384,1430.3999999761581,1669837875833,1431,HRV,HRV_0259,2022-11-30 19:53:46
80,"[{'imgObject': {}, 'id': 'baked potato', 'src': '/static/foodstim60/baked potato.jpg', 'key': 'u', 'origWidth': 409, 'origHeight': 410, 'width': 409, 'height': 410, 'widthPercent': 0.45, 'rescaleHeight': False, 'trialN': 80, 'loaded': True, 'loadedTime': 129261.10000002384, 'positionName': 'LEFT', 'positionCoords': [512.6, 395], 'bid': 3.8}, {'imgObject': {}, 'id': 'luckycharms', 'src': '/static/foodstim60/luckycharms.jpg', 'key': 'i', 'origWidth': 410, 'origHeight': 409, 'width': 410, 'height': 409, 'widthPercent': 0.45, 'rescaleHeight': False, 'trialN': 80, 'loaded': True, 'loadedTime': 129261.60000002384, 'positionName': 'RIGHT', 'positionCoords': [998.4, 395.5], 'bid': 0.21}]",129259.70000004768,1669837875833,baked potato,luckycharms,3.8,0.21,-3.59,,baked potato,790.5,795,794.6999999284744,True,u,130565.5,1305.7999999523163,1669837877139,1306,HRV,HRV_0259,2022-11-30 19:53:46
81,"[{'imgObject': {}, 'id': 'olives', 'src': '/static/foodstim60/olives.jpg', 'key': 'u', 'origWidth': 410, 'origHeight': 410, 'width': 410, 'height': 410, 'widthPercent': 0.45, 'rescaleHeight': False, 'trialN': 81, 'loaded': True, 'loadedTime': 130567.5, 'positionName': 'LEFT', 'positionCoords': [511.6, 395], 'bid': 5.15}, {'imgObject': {}, 'id': 'cherries', 'src': '/static/foodstim60/cherries.jpg', 'key': 'i', 'origWidth': 410, 'origHeight': 411, 'width': 410, 'height': 411, 'widthPercent': 0.45, 'rescaleHeight': False, 'trialN': 81, 'loaded': True, 'loadedTime': 130567.80000007153, 'positionName': 'RIGHT', 'positionCoords': [998.4, 394.5], 'bid': 4.25}]",130566.0,1669837877140,olives,cherries,5.15,4.25,-0.9000000000000004,,cherries,1313.0,1316,1316.7000000476837,True,i,132389.5,1823.5,1669837878963,1823,HRV,HRV_0259,2022-11-30 19:53:46
82,"[{'imgObject': {}, 'id': 'baked potato', 'src': '/static/foodstim60/baked potato.jpg', 'key': 'u', 'origWidth': 409, 'origHeight': 410, 'width': 409, 'height': 410, 'widthPercent': 0.45, 'rescaleHeight': False, 'trialN': 82, 'loaded': True, 'loadedTime': 132391.60000002384, 'positionName': 'LEFT', 'positionCoords': [512.6, 395], 'bid': 3.8}, {'imgObject': {}, 'id': 'banana', 'src': '/static/foodstim60/banana.jpg', 'key': 'i', 'origWidth': 410, 'origHeight': 410, 'width': 410, 'height': 410, 'widthPercent': 0.45, 'rescaleHeight': False, 'trialN': 82, 'loaded': True, 'loadedTime': 132391.89999997616, 'positionName': 'RIGHT', 'positionCoords': [998.4, 395], 'bid': 3.9}]",132390.0,1669837878964,baked potato,banana,3.8,3.9,0.10000000000000009,,banana,1026.1000000238419,1030,1030.0,True,i,133921.5,1531.5,1669837880495,1531,HRV,HRV_0259,2022-11-30 19:53:46
83,"[{'imgObject': {}, 'id': 'Grapes', 'src': '/static/foodstim60/Grapes.jpg', 'key': 'u', 'origWidth': 411, 'origHeight': 411, 'width': 411, 'height': 411, 'widthPercent': 0.45, 'rescaleHeight': False, 'trialN': 83, 'loaded': True, 'loadedTime': 133923.60000002384, 'positionName': 'LEFT', 'positionCoords': [510.6, 394.5], 'bid': 5.33}, {'imgObject': {}, 'id': 'cherries', 'src': '/static/foodstim60/cherries.jpg', 'key': 'i', 'origWidth': 410, 'origHeight': 411, 'width': 410, 'height': 411, 'widthPercent': 0.45, 'rescaleHeight': False, 'trialN': 83, 'loaded': True, 'loadedTime': 133923.89999997616, 'positionName': 'RIGHT', 'positionCoords': [998.4, 394.5], 'bid': 4.25}]",133922.10000002384,1669837880496,Grapes,cherries,5.33,4.25,-1.08,,Grapes,866.8999999761581,870,870.6000000238419,True,u,135296.70000004768,1374.6000000238419,1669837881871,1375,HRV,HRV_0259,2022-11-30 19:53:46
84,"[{'imgObject': {}, 'id': 'eggsalad', 'src': '/static/foodstim60/eggsalad.jpg', 'key': 'u', 'origWidth': 410, 'origHeight': 409, 'width': 410, 'height': 409, 'widthPercent': 0.45, 'rescaleHeight': False, 'trialN': 84, 'loaded': True, 'loadedTime': 135298.70000004768, 'positionName': 'LEFT', 'positionCoords': [511.6, 395.5], 'bid': 4.2700000000000005}, {'imgObject': {}, 'id': 'cherry tomato', 'src': '/static/foodstim60/cherry tomato.jpg', 'key': 'i', 'origWidth': 410, 'origHeight': 410, 'width': 410, 'height': 410, 'widthPercent': 0.45, 'rescaleHeight': False, 'trialN': 84, 'loaded': True, 'loadedTime': 135299, 'positionName': 'RIGHT', 'positionCoords': [998.4, 395], 'bid': 5.16}]",135297.20000004768,1669837881871,eggsalad,cherry tomato,4.2700000000000005,5.16,0.8899999999999997,,cherry tomato,1059.8999999761581,1063,1063.1000000238419,True,i,136867.89999997616,1570.6999999284744,1669837883442,1571,HRV,HRV_0259,2022-11-30 19:53:46
85,"[{'imgObject': {}, 'id': 'corn cob', 'src': '/static/foodstim60/corn cob.jpg', 'key': 'u', 'origWidth': 411, 'origHeight': 411, 'width': 411, 'height': 411, 'widthPercent': 0.45, 'rescaleHeight': False, 'trialN': 85, 'loaded': True, 'loadedTime': 136870, 'positionName': 'LEFT', 'positionCoords': [510.6, 394.5], 'bid': 0.33}, {'imgObject': {}, 'id': 'apple slices', 'src': '/static/foodstim60/apple slices.jpg', 'key': 'i', 'origWidth': 409, 'origHeight': 410, 'width': 409, 'height': 410, 'widthPercent': 0.45, 'rescaleHeight': False, 'trialN': 85, 'loaded': True, 'loadedTime': 136870.20000004768, 'positionName': 'RIGHT', 'positionCoords': [998.4, 395], 'bid': 3.14}]",136868.5,1669837883442,corn cob,apple slices,0.33,3.14,2.81,,apple slices,1186.3000000715256,1191,1190.1000000238419,True,i,138565.60000002384,1697.1000000238419,1669837885139,1697,HRV,HRV_0259,2022-11-30 19:53:46
86,"[{'imgObject': {}, 'id': 'rigatoni', 'src': '/static/foodstim60/rigatoni.jpg', 'key': 'u', 'origWidth': 411, 'origHeight': 411, 'width': 411, 'height': 411, 'widthPercent': 0.45, 'rescaleHeight': False, 'trialN': 86, 'loaded': True, 'loadedTime': 138567.60000002384, 'positionName': 'LEFT', 'positionCoords': [510.6, 394.5], 'bid': 6.34}, {'imgObject': {}, 'id': 'olives', 'src': '/static/foodstim60/olives.jpg', 'key': 'i', 'origWidth': 410, 'origHeight': 410, 'width': 410, 'height': 410, 'widthPercent': 0.45, 'rescaleHeight': False, 'trialN': 86, 'loaded': True, 'loadedTime': 138567.89999997616, 'positionName': 'RIGHT', 'positionCoords': [998.4, 395], 'bid': 5.15}]",138566.10000002384,1669837885140,rigatoni,olives,6.34,5.15,-1.1899999999999995,,rigatoni,1176.7999999523163,1181,1180.6000000238419,True,u,140252.60000002384,1686.5,1669837886827,1687,HRV,HRV_0259,2022-11-30 19:53:46
87,"[{'imgObject': {}, 'id': 'luckycharms', 'src': '/static/foodstim60/luckycharms.jpg', 'key': 'u', 'origWidth': 410, 'origHeight': 409, 'width': 410, 'height': 409, 'widthPercent': 0.45, 'rescaleHeight': False, 'trialN': 87, 'loaded': True, 'loadedTime': 140254.60000002384, 'positionName': 'LEFT', 'positionCoords': [511.6, 395.5], 'bid': 0.21}, {'imgObject': {}, 'id': 'froot loops w milk', 'src': '/static/foodstim60/froot loops w milk.jpg', 'key': 'i', 'origWidth': 410, 'origHeight': 410, 'width': 410, 'height': 410, 'widthPercent': 0.45, 'rescaleHeight': False, 'trialN': 87, 'loaded': True, 'loadedTime': 140255, 'positionName': 'RIGHT', 'positionCoords': [998.4, 395], 'bid': 0.2}]",140253.0,1669837886827,luckycharms,froot loops w milk,0.21,0.2,-0.009999999999999981,,luckycharms,1383.0,1387,1386.8000000715256,True,u,142144.60000002384,1891.6000000238419,1669837888719,1892,HRV,HRV_0259,2022-11-30 19:53:46
88,"[{'imgObject': {}, 'id': 'ice cream sundae 002', 'src': '/static/foodstim60/ice cream sundae 002.jpg', 'key': 'u', 'origWidth': 409, 'origHeight': 409, 'width': 409, 'height': 409, 'widthPercent': 0.45, 'rescaleHeight': False, 'trialN': 88, 'loaded': True, 'loadedTime': 142146.30000007153, 'positionName': 'LEFT', 'positionCoords': [512.6, 395.5], 'bid': 0.22}, {'imgObject': {}, 'id': 'raisin bran w milk', 'src': '/static/foodstim60/raisin bran w milk.jpg', 'key': 'i', 'origWidth': 411, 'origHeight': 411, 'width': 411, 'height': 411, 'widthPercent': 0.45, 'rescaleHeight': False, 'trialN': 88, 'loaded': True, 'loadedTime': 142146.89999997616, 'positionName': 'RIGHT', 'positionCoords': [998.4, 394.5], 'bid': 0.16}]",142145.0,1669837888719,ice cream sundae 002,raisin bran w milk,0.22,0.16,-0.06,,raisin bran w milk,723.8999999761581,728,727.8999999761581,True,i,143377.20000004768,1232.2000000476837,1669837889951,1232,HRV,HRV_0259,2022-11-30 19:53:46
89,"[{'imgObject': {}, 'id': 'baked potato', 'src': '/static/foodstim60/baked potato.jpg', 'key': 'u', 'origWidth': 409, 'origHeight': 410, 'width': 409, 'height': 410, 'widthPercent': 0.45, 'rescaleHeight': False, 'trialN': 89, 'loaded': True, 'loadedTime': 143379, 'positionName': 'LEFT', 'positionCoords': [512.6, 395], 'bid': 3.8}, {'imgObject': {}, 'id': 'corn cob', 'src': '/static/foodstim60/corn cob.jpg', 'key': 'i', 'origWidth': 411, 'origHeight': 411, 'width': 411, 'height': 411, 'widthPercent': 0.45, 'rescaleHeight': False, 'trialN': 89, 'loaded': True, 'loadedTime': 143379.39999997616, 'positionName': 'RIGHT', 'positionCoords': [998.4, 394.5], 'bid': 0.33}]",143377.60000002384,1669837889952,baked potato,corn cob,3.8,0.33,-3.4699999999999998,,baked potato,794.2000000476837,798,798.1000000238419,True,u,144684.5,1306.8999999761581,1669837891259,1307,HRV,HRV_0259,2022-11-30 19:53:46
90,"[{'imgObject': {}, 'id': 'orange slices', 'src': '/static/foodstim60/orange slices.jpg', 'key': 'u', 'origWidth': 409, 'origHeight': 410, 'width': 409, 'height': 410, 'widthPercent': 0.45, 'rescaleHeight': False, 'trialN': 90, 'loaded': True, 'loadedTime': 147263.39999997616, 'positionName': 'LEFT', 'positionCoords': [512.6, 395], 'bid': 3.67}, {'imgObject': {}, 'id': 'froot loops w milk', 'src': '/static/foodstim60/froot loops w milk.jpg', 'key': 'i', 'origWidth': 410, 'origHeight': 410, 'width': 410, 'height': 410, 'widthPercent': 0.45, 'rescaleHeight': False, 'trialN': 90, 'loaded': True, 'loadedTime': 147263.89999997616, 'positionName': 'RIGHT', 'positionCoords': [998.4, 395], 'bid': 0.2}]",147261.80000007153,1669837893836,orange slices,froot loops w milk,3.67,0.2,-3.4699999999999998,,orange slices,1309.8999999761581,1314,1313.8999999761581,True,u,149081.30000007153,1819.5,1669837895656,1820,HRV,HRV_0259,2022-11-30 19:53:46
91,"[{'imgObject': {}, 'id': 'hashbrowns', 'src': '/static/foodstim60/hashbrowns.jpg', 'key': 'u', 'origWidth': 411, 'origHeight': 410, 'width': 411, 'height': 410, 'widthPercent': 0.45, 'rescaleHeight': False, 'trialN': 91, 'loaded': True, 'loadedTime': 149082.89999997616, 'positionName': 'LEFT', 'positionCoords': [510.6, 395], 'bid': 0.14}, {'imgObject': {}, 'id': 'lox', 'src': '/static/foodstim60/lox.jpg', 'key': 'i', 'origWidth': 410, 'origHeight': 411, 'width': 410, 'height': 411, 'widthPercent': 0.45, 'rescaleHeight': False, 'trialN': 91, 'loaded': True, 'loadedTime': 149083.10000002384, 'positionName': 'RIGHT', 'positionCoords': [998.4, 394.5], 'bid': 0.22}]",149081.60000002384,1669837895656,hashbrowns,lox,0.14,0.22,0.07999999999999999,,hashbrowns,862.1000000238419,866,866.0,True,u,150449.5,1367.8999999761581,1669837897024,1368,HRV,HRV_0259,2022-11-30 19:53:46
92,"[{'imgObject': {}, 'id': 'froot loops w milk', 'src': '/static/foodstim60/froot loops w milk.jpg', 'key': 'u', 'origWidth': 410, 'origHeight': 410, 'width': 410, 'height': 410, 'widthPercent': 0.45, 'rescaleHeight': False, 'trialN': 92, 'loaded': True, 'loadedTime': 150451.5, 'positionName': 'LEFT', 'positionCoords': [511.6, 395], 'bid': 0.2}, {'imgObject': {}, 'id': 'popsicles', 'src': '/static/foodstim60/popsicles.jpg', 'key': 'i', 'origWidth': 410, 'origHeight': 410, 'width': 410, 'height': 410, 'widthPercent': 0.45, 'rescaleHeight': False, 'trialN': 92, 'loaded': True, 'loadedTime': 150451.80000007153, 'positionName': 'RIGHT', 'positionCoords': [998.4, 395], 'bid': 0.17}]",150450.20000004768,1669837897024,froot loops w milk,popsicles,0.2,0.17,-0.03,,froot loops w milk,1088.3999999761581,1093,1092.2999999523163,True,u,152052.89999997616,1602.6999999284744,1669837898627,1603,HRV,HRV_0259,2022-11-30 19:53:46
93,"[{'imgObject': {}, 'id': 'apple slices', 'src': '/static/foodstim60/apple slices.jpg', 'key': 'u', 'origWidth': 409, 'origHeight': 410, 'width': 409, 'height': 410, 'widthPercent': 0.45, 'rescaleHeight': False, 'trialN': 93, 'loaded': True, 'loadedTime': 152055, 'positionName': 'LEFT', 'positionCoords': [512.6, 395], 'bid': 3.14}, {'imgObject': {}, 'id': 'rigatoni', 'src': '/static/foodstim60/rigatoni.jpg', 'key': 'i', 'origWidth': 411, 'origHeight': 411, 'width': 411, 'height': 411, 'widthPercent': 0.45, 'rescaleHeight': False, 'trialN': 93, 'loaded': True, 'loadedTime': 152055.39999997616, 'positionName': 'RIGHT', 'positionCoords': [998.4, 394.5], 'bid': 6.34}]",152053.5,1669837898628,apple slices,rigatoni,3.14,6.34,3.1999999999999997,,rigatoni,692.0,696,696.1000000238419,True,i,153257.80000007153,1204.3000000715256,1669837899832,1204,HRV,HRV_0259,2022-11-30 19:53:46
94,"[{'imgObject': {}, 'id': 'Tribe humus pita', 'src': '/static/foodstim60/Tribe humus pita.jpg', 'key': 'u', 'origWidth': 411, 'origHeight': 411, 'width': 411, 'height': 411, 'widthPercent': 0.45, 'rescaleHeight': False, 'trialN': 94, 'loaded': True, 'loadedTime': 153259.89999997616, 'positionName': 'LEFT', 'positionCoords': [510.6, 394.5], 'bid': 5.07}, {'imgObject': {}, 'id': 'bagel and cc', 'src': '/static/foodstim60/bagel and cc.jpg', 'key': 'i', 'origWidth': 410, 'origHeight': 410, 'width': 410, 'height': 410, 'widthPercent': 0.45, 'rescaleHeight': False, 'trialN': 94, 'loaded': True, 'loadedTime': 153260.20000004768, 'positionName': 'RIGHT', 'positionCoords': [998.4, 395], 'bid': 4.95}]",153258.30000007153,1669837899833,Tribe humus pita,bagel and cc,5.07,4.95,-0.1200000000000001,,bagel and cc,723.2999999523163,727,727.1999999284744,True,i,154488.89999997616,1230.5999999046326,1669837901063,1230,HRV,HRV_0259,2022-11-30 19:53:46
95,"[{'imgObject': {}, 'id': 'mango', 'src': '/static/foodstim60/mango.jpg', 'key': 'u', 'origWidth': 411, 'origHeight': 411, 'width': 411, 'height': 411, 'widthPercent': 0.45, 'rescaleHeight': False, 'trialN': 95, 'loaded': True, 'loadedTime': 154490.60000002384, 'positionName': 'LEFT', 'positionCoords': [510.6, 394.5], 'bid': 5.48}, {'imgObject': {}, 'id': 'mashed potato', 'src': '/static/foodstim60/mashed potato.jpg', 'key': 'i', 'origWidth': 409, 'origHeight': 409, 'width': 409, 'height': 409, 'widthPercent': 0.45, 'rescaleHeight': False, 'trialN': 95, 'loaded': True, 'loadedTime': 154490.89999997616, 'positionName': 'RIGHT', 'positionCoords': [998.4, 395.5], 'bid': 5.3100000000000005}]",154489.30000007153,1669837901064,mango,mashed potato,5.48,5.3100000000000005,-0.16999999999999993,,mango,1049.2999999523163,1053,1053.0999999046326,True,u,156048.80000007153,1559.5,1669837902623,1559,HRV,HRV_0259,2022-11-30 19:53:46
96,"[{'imgObject': {}, 'id': 'rigatoni and sauce', 'src': '/static/foodstim60/rigatoni and sauce.jpg', 'key': 'u', 'origWidth': 410, 'origHeight': 411, 'width': 410, 'height': 411, 'widthPercent': 0.45, 'rescaleHeight': False, 'trialN': 96, 'loaded': True, 'loadedTime': 156050.80000007153, 'positionName': 'LEFT', 'positionCoords': [511.6, 394.5], 'bid': 5.67}, {'imgObject': {}, 'id': 'chicken nuggets2', 'src': '/static/foodstim60/chicken nuggets2.jpg', 'key': 'i', 'origWidth': 410, 'origHeight': 409, 'width': 410, 'height': 409, 'widthPercent': 0.45, 'rescaleHeight': False, 'trialN': 96, 'loaded': True, 'loadedTime': 156051.10000002384, 'positionName': 'RIGHT', 'positionCoords': [998.4, 395.5], 'bid': 0.25}]",156049.39999997616,1669837902624,rigatoni and sauce,chicken nuggets2,5.67,0.25,-5.42,,rigatoni and sauce,953.1000000238419,957,956.9000000953674,True,u,157517.5,1468.1000000238419,1669837904092,1468,HRV,HRV_0259,2022-11-30 19:53:46
97,"[{'imgObject': {}, 'id': 'Grapes', 'src': '/static/foodstim60/Grapes.jpg', 'key': 'u', 'origWidth': 411, 'origHeight': 411, 'width': 411, 'height': 411, 'widthPercent': 0.45, 'rescaleHeight': False, 'trialN': 97, 'loaded': True, 'loadedTime': 157519.60000002384, 'positionName': 'LEFT', 'positionCoords': [510.6, 394.5], 'bid': 5.33}, {'imgObject': {}, 'id': 'omelette', 'src': '/static/foodstim60/omelette.jpg', 'key': 'i', 'origWidth': 410, 'origHeight': 409, 'width': 410, 'height': 409, 'widthPercent': 0.45, 'rescaleHeight': False, 'trialN': 97, 'loaded': True, 'loadedTime': 157519.89999997616, 'positionName': 'RIGHT', 'positionCoords': [998.4, 395.5], 'bid': 5.55}]",157518.10000002384,1669837904093,Grapes,omelette,5.33,5.55,0.21999999999999975,,omelette,1122.2999999523163,1126,1126.1000000238419,True,i,159147.5,1629.3999999761581,1669837905722,1629,HRV,HRV_0259,2022-11-30 19:53:46
98,"[{'imgObject': {}, 'id': 'raisin bran w milk', 'src': '/static/foodstim60/raisin bran w milk.jpg', 'key': 'u', 'origWidth': 411, 'origHeight': 411, 'width': 411, 'height': 411, 'widthPercent': 0.45, 'rescaleHeight': False, 'trialN': 98, 'loaded': True, 'loadedTime': 159149.39999997616, 'positionName': 'LEFT', 'positionCoords': [510.6, 394.5], 'bid': 0.16}, {'imgObject': {}, 'id': 'hashbrowns', 'src': '/static/foodstim60/hashbrowns.jpg', 'key': 'i', 'origWidth': 411, 'origHeight': 410, 'width': 411, 'height': 410, 'widthPercent': 0.45, 'rescaleHeight': False, 'trialN': 98, 'loaded': True, 'loadedTime': 159149.89999997616, 'positionName': 'RIGHT', 'positionCoords': [998.4, 395], 'bid': 0.14}]",159147.89999997616,1669837905722,raisin bran w milk,hashbrowns,0.16,0.14,-0.01999999999999999,,raisin bran w milk,861.7000000476837,866,865.5,True,u,160521.30000007153,1373.4000000953674,1669837907096,1374,HRV,HRV_0259,2022-11-30 19:53:46
99,"[{'imgObject': {}, 'id': 'burrito', 'src': '/static/foodstim60/burrito.jpg', 'key': 'u', 'origWidth': 410, 'origHeight': 410, 'width': 410, 'height': 410, 'widthPercent': 0.45, 'rescaleHeight': False, 'trialN': 99, 'loaded': True, 'loadedTime': 160523.30000007153, 'positionName': 'LEFT', 'positionCoords': [511.6, 395], 'bid': 9.23}, {'imgObject': {}, 'id': 'strawberries', 'src': '/static/foodstim60/strawberries.jpg', 'key': 'i', 'origWidth': 410, 'origHeight': 410, 'width': 410, 'height': 410, 'widthPercent': 0.45, 'rescaleHeight': False, 'trialN': 99, 'loaded': True, 'loadedTime': 160523.80000007153, 'positionName': 'RIGHT', 'positionCoords': [998.4, 395], 'bid': 8.83}]",160521.80000007153,1669837907096,burrito,strawberries,9.23,8.83,-0.40000000000000036,,strawberries,610.5,614,613.5,True,i,161643.60000002384,1121.7999999523163,1669837908218,1122,HRV,HRV_0259,2022-11-30 19:53:46
100,"[{'imgObject': {}, 'id': 'yogurt no spoon', 'src': '/static/foodstim60/yogurt no spoon.jpg', 'key': 'u', 'origWidth': 411, 'origHeight': 410, 'width': 411, 'height': 410, 'widthPercent': 0.45, 'rescaleHeight': False, 'trialN': 100, 'loaded': True, 'loadedTime': 161645.30000007153, 'positionName': 'LEFT', 'positionCoords': [510.6, 395], 'bid': 5.36}, {'imgObject': {}, 'id': 'sushi w_condiments', 'src': '/static/foodstim60/sushi w_condiments.jpg', 'key': 'i', 'origWidth': 410, 'origHeight': 410, 'width': 410, 'height': 410, 'widthPercent': 0.45, 'rescaleHeight': False, 'trialN': 100, 'loaded': True, 'loadedTime': 161645.60000002384, 'positionName': 'RIGHT', 'positionCoords': [998.4, 395], 'bid': 8.09}]",161644.10000002384,1669837908219,yogurt no spoon,sushi w_condiments,5.36,8.09,2.7299999999999995,,sushi w_condiments,996.2999999523163,1000,1000.2000000476837,True,i,163145.0,1500.8999999761581,1669837909720,1501,HRV,HRV_0259,2022-11-30 19:53:46
101,"[{'imgObject': {}, 'id': 'blueberries', 'src': '/static/foodstim60/blueberries.jpg', 'key': 'u', 'origWidth': 411, 'origHeight': 411, 'width': 411, 'height': 411, 'widthPercent': 0.45, 'rescaleHeight': False, 'trialN': 101, 'loaded': True, 'loadedTime': 163146.89999997616, 'positionName': 'LEFT', 'positionCoords': [510.6, 394.5], 'bid': 3.36}, {'imgObject': {}, 'id': 'salad w chicken', 'src': '/static/foodstim60/salad w chicken.jpg', 'key': 'i', 'origWidth': 411, 'origHeight': 411, 'width': 411, 'height': 411, 'widthPercent': 0.45, 'rescaleHeight': False, 'trialN': 101, 'loaded': True, 'loadedTime': 163147.20000004768, 'positionName': 'RIGHT', 'positionCoords': [998.4, 394.5], 'bid': 6.390000000000001}]",163145.39999997616,1669837909720,blueberries,salad w chicken,3.36,6.390000000000001,3.0300000000000007,,salad w chicken,1027.0,1031,1031.0,True,i,164683.80000007153,1538.4000000953674,1669837911259,1539,HRV,HRV_0259,2022-11-30 19:53:46
102,"[{'imgObject': {}, 'id': 'raspberries', 'src': '/static/foodstim60/raspberries.jpg', 'key': 'u', 'origWidth': 411, 'origHeight': 411, 'width': 411, 'height': 411, 'widthPercent': 0.45, 'rescaleHeight': False, 'trialN': 102, 'loaded': True, 'loadedTime': 164685.89999997616, 'positionName': 'LEFT', 'positionCoords': [510.6, 394.5], 'bid': 5.44}, {'imgObject': {}, 'id': 'cocktailshrimp', 'src': '/static/foodstim60/cocktailshrimp.jpg', 'key': 'i', 'origWidth': 410, 'origHeight': 410, 'width': 410, 'height': 410, 'widthPercent': 0.45, 'rescaleHeight': False, 'trialN': 102, 'loaded': True, 'loadedTime': 164686.30000007153, 'positionName': 'RIGHT', 'positionCoords': [998.4, 395], 'bid': 0.22}]",164684.5,1669837911259,raspberries,cocktailshrimp,5.44,0.22,-5.220000000000001,,raspberries,796.8999999761581,801,800.6000000238419,True,u,165993.20000004768,1308.7000000476837,1669837912568,1309,HRV,HRV_0259,2022-11-30 19:53:46
103,"[{'imgObject': {}, 'id': 'cherries', 'src': '/static/foodstim60/cherries.jpg', 'key': 'u', 'origWidth': 410, 'origHeight': 411, 'width': 410, 'height': 411, 'widthPercent': 0.45, 'rescaleHeight': False, 'trialN': 103, 'loaded': True, 'loadedTime': 165995.10000002384, 'positionName': 'LEFT', 'positionCoords': [511.6, 394.5], 'bid': 4.25}, {'imgObject': {}, 'id': 'cantaloupe', 'src': '/static/foodstim60/cantaloupe.jpg', 'key': 'i', 'origWidth': 409, 'origHeight': 409, 'width': 409, 'height': 409, 'widthPercent': 0.45, 'rescaleHeight': False, 'trialN': 103, 'loaded': True, 'loadedTime': 165995.39999997616, 'positionName': 'RIGHT', 'positionCoords': [998.4, 395.5], 'bid': 4.16}]",165993.70000004768,1669837912568,cherries,cantaloupe,4.25,4.16,-0.08999999999999986,,cantaloupe,998.6000000238419,1003,1002.5,True,i,167497.5,1503.7999999523163,1669837914072,1504,HRV,HRV_0259,2022-11-30 19:53:46
104,"[{'imgObject': {}, 'id': 'avocado', 'src': '/static/foodstim60/avocado.jpg', 'key': 'u', 'origWidth': 409, 'origHeight': 409, 'width': 409, 'height': 409, 'widthPercent': 0.45, 'rescaleHeight': False, 'trialN': 104, 'loaded': True, 'loadedTime': 167499.5, 'positionName': 'LEFT', 'positionCoords': [512.6, 395.5], 'bid': 8.82}, {'imgObject': {}, 'id': 'sweetpotato', 'src': '/static/foodstim60/sweetpotato.jpg', 'key': 'i', 'origWidth': 410, 'origHeight': 410, 'width': 410, 'height': 410, 'widthPercent': 0.45, 'rescaleHeight': False, 'trialN': 104, 'loaded': True, 'loadedTime': 167499.80000007153, 'positionName': 'RIGHT', 'positionCoords': [998.4, 395], 'bid': 5.87}]",167498.10000002384,1669837914073,avocado,sweetpotato,8.82,5.87,-2.95,,avocado,935.2000000476837,939,939.2999999523163,True,u,168945.5,1447.3999999761581,1669837915520,1447,HRV,HRV_0259,2022-11-30 19:53:46
105,"[{'imgObject': {}, 'id': 'salad w chicken', 'src': '/static/foodstim60/salad w chicken.jpg', 'key': 'u', 'origWidth': 411, 'origHeight': 411, 'width': 411, 'height': 411, 'widthPercent': 0.45, 'rescaleHeight': False, 'trialN': 105, 'loaded': True, 'loadedTime': 168947.5, 'positionName': 'LEFT', 'positionCoords': [510.6, 394.5], 'bid': 6.390000000000001}, {'imgObject': {}, 'id': 'rigatoni', 'src': '/static/foodstim60/rigatoni.jpg', 'key': 'i', 'origWidth': 411, 'origHeight': 411, 'width': 411, 'height': 411, 'widthPercent': 0.45, 'rescaleHeight': False, 'trialN': 105, 'loaded': True, 'loadedTime': 168947.80000007153, 'positionName': 'RIGHT', 'positionCoords': [998.4, 394.5], 'bid': 6.34}]",168946.10000002384,1669837915521,salad w chicken,rigatoni,6.390000000000001,6.34,-0.05000000000000071,,rigatoni,948.8999999761581,952,951.7999999523163,True,i,170402.20000004768,1456.1000000238419,1669837916977,1456,HRV,HRV_0259,2022-11-30 19:53:46
106,"[{'imgObject': {}, 'id': 'banana', 'src': '/static/foodstim60/banana.jpg', 'key': 'u', 'origWidth': 410, 'origHeight': 410, 'width': 410, 'height': 410, 'widthPercent': 0.45, 'rescaleHeight': False, 'trialN': 106, 'loaded': True, 'loadedTime': 170404.20000004768, 'positionName': 'LEFT', 'positionCoords': [511.6, 395], 'bid': 3.9}, {'imgObject': {}, 'id': 'grilled chicken strips', 'src': '/static/foodstim60/grilled chicken strips.jpg', 'key': 'i', 'origWidth': 410, 'origHeight': 411, 'width': 410, 'height': 411, 'widthPercent': 0.45, 'rescaleHeight': False, 'trialN': 106, 'loaded': True, 'loadedTime': 170404.5, 'positionName': 'RIGHT', 'positionCoords': [998.4, 394.5], 'bid': 0.21}]",170402.80000007153,1669837916978,banana,grilled chicken strips,3.9,0.21,-3.69,,banana,767.1999999284744,770,770.2999999523163,True,u,171681.30000007153,1278.5,1669837918256,1278,HRV,HRV_0259,2022-11-30 19:53:46
107,"[{'imgObject': {}, 'id': 'omelette', 'src': '/static/foodstim60/omelette.jpg', 'key': 'u', 'origWidth': 410, 'origHeight': 409, 'width': 410, 'height': 409, 'widthPercent': 0.45, 'rescaleHeight': False, 'trialN': 107, 'loaded': True, 'loadedTime': 171682.5, 'positionName': 'LEFT', 'positionCoords': [511.6, 395.5], 'bid': 5.55}, {'imgObject': {}, 'id': 'burrito', 'src': '/static/foodstim60/burrito.jpg', 'key': 'i', 'origWidth': 410, 'origHeight': 410, 'width': 410, 'height': 410, 'widthPercent': 0.45, 'rescaleHeight': False, 'trialN': 107, 'loaded': True, 'loadedTime': 171682.80000007153, 'positionName': 'RIGHT', 'positionCoords': [998.4, 395], 'bid': 9.23}]",171681.60000002384,1669837918257,omelette,burrito,5.55,9.23,3.6800000000000006,,burrito,1022.6000000238419,1026,1026.3999999761581,True,i,173210.80000007153,1529.2000000476837,1669837919786,1529,HRV,HRV_0259,2022-11-30 19:53:46
108,"[{'imgObject': {}, 'id': 'yogurt no spoon', 'src': '/static/foodstim60/yogurt no spoon.jpg', 'key': 'u', 'origWidth': 411, 'origHeight': 410, 'width': 411, 'height': 410, 'widthPercent': 0.45, 'rescaleHeight': False, 'trialN': 108, 'loaded': True, 'loadedTime': 173212.89999997616, 'positionName': 'LEFT', 'positionCoords': [510.6, 395], 'bid': 5.36}, {'imgObject': {}, 'id': 'mashed potato', 'src': '/static/foodstim60/mashed potato.jpg', 'key': 'i', 'origWidth': 409, 'origHeight': 409, 'width': 409, 'height': 409, 'widthPercent': 0.45, 'rescaleHeight': False, 'trialN': 108, 'loaded': True, 'loadedTime': 173213.30000007153, 'positionName': 'RIGHT', 'positionCoords': [998.4, 395.5], 'bid': 5.3100000000000005}]",173211.39999997616,1669837919786,yogurt no spoon,mashed potato,5.36,5.3100000000000005,-0.04999999999999982,,yogurt no spoon,853.7000000476837,859,858.3000000715256,True,u,174579.70000004768,1368.3000000715256,1669837921155,1369,HRV,HRV_0259,2022-11-30 19:53:46
