trialN,stimuli,trialStartTime,trialStartTime_UNIX,stimulus1,stimulus2,stimulus1Bid,stimulus2Bid,delta,selected,rt,rt_UNIX,rt_perfnow,receivedResponse,rsp,trialEndTime,trialDuration,trialEndTime_UNIX,trialDuration_UNIX,exp,subjectId,date
0,"[{'imgObject': {}, 'id': 'chickenfingers', 'src': '/static/foodstim60/chickenfingers.jpg', 'key': 'u', 'origWidth': 410, 'origHeight': 410, 'width': 410, 'height': 410, 'widthPercent': 0.45, 'rescaleHeight': False, 'trialN': 0, 'loaded': True, 'loadedTime': 13979.099999999627, 'positionName': 'LEFT', 'positionCoords': [239.44, 175.5], 'bid': 7.9}, {'imgObject': {}, 'id': 'salad w chicken', 'src': '/static/foodstim60/salad w chicken.jpg', 'key': 'i', 'origWidth': 411, 'origHeight': 411, 'width': 411, 'height': 411, 'widthPercent': 0.45, 'rescaleHeight': False, 'trialN': 0, 'loaded': True, 'loadedTime': 14266.5, 'positionName': 'RIGHT', 'positionCoords': [703.56, 175], 'bid': 7.91}]",16553.699999999255,1669830000116,chickenfingers,salad w chicken,7.9,7.91,0.009999999999999787,chickenfingers,1404.2000000011176,1431,1431.300000000745,True,u,18499.199999999255,1945.5,1669830002062,1946,HRV,HRV_0072,2022-11-30 17:47:45
1,"[{'imgObject': {}, 'id': 'cherries', 'src': '/static/foodstim60/cherries.jpg', 'key': 'u', 'origWidth': 410, 'origHeight': 411, 'width': 410, 'height': 411, 'widthPercent': 0.45, 'rescaleHeight': False, 'trialN': 1, 'loaded': True, 'loadedTime': 14351.199999999255, 'positionName': 'LEFT', 'positionCoords': [239.44, 175], 'bid': 7.1000000000000005}, {'imgObject': {}, 'id': 'hashbrowns', 'src': '/static/foodstim60/hashbrowns.jpg', 'key': 'i', 'origWidth': 411, 'origHeight': 410, 'width': 411, 'height': 410, 'widthPercent': 0.45, 'rescaleHeight': False, 'trialN': 1, 'loaded': True, 'loadedTime': 14398, 'positionName': 'RIGHT', 'positionCoords': [703.56, 175.5], 'bid': 4.19}]",18500.5,1669830002063,cherries,hashbrowns,7.1000000000000005,4.19,-2.91,cherries,1076,1078,1078.5,True,u,20089.800000000745,1589.300000000745,1669830003652,1589,HRV,HRV_0072,2022-11-30 17:47:45
2,"[{'imgObject': {}, 'id': 'granola w milk', 'src': '/static/foodstim60/granola w milk.jpg', 'key': 'u', 'origWidth': 410, 'origHeight': 410, 'width': 410, 'height': 410, 'widthPercent': 0.45, 'rescaleHeight': False, 'trialN': 2, 'loaded': True, 'loadedTime': 14410.599999999627, 'positionName': 'LEFT', 'positionCoords': [239.44, 175.5], 'bid': 1.34}, {'imgObject': {}, 'id': 'chicken nuggets2', 'src': '/static/foodstim60/chicken nuggets2.jpg', 'key': 'i', 'origWidth': 410, 'origHeight': 409, 'width': 410, 'height': 409, 'widthPercent': 0.45, 'rescaleHeight': False, 'trialN': 2, 'loaded': True, 'loadedTime': 14459.300000000745, 'positionName': 'RIGHT', 'positionCoords': [703.56, 176], 'bid': 5.39}]",20090.300000000745,1669830003653,granola w milk,chicken nuggets2,1.34,5.39,4.05,chicken nuggets2,1279.3999999985099,1281,1280.8999999985099,True,i,21882.5,1792.199999999255,1669830005445,1792,HRV,HRV_0072,2022-11-30 17:47:45
3,"[{'imgObject': {}, 'id': 'strawberries', 'src': '/static/foodstim60/strawberries.jpg', 'key': 'u', 'origWidth': 410, 'origHeight': 410, 'width': 410, 'height': 410, 'widthPercent': 0.45, 'rescaleHeight': False, 'trialN': 3, 'loaded': True, 'loadedTime': 14573.300000000745, 'positionName': 'LEFT', 'positionCoords': [239.44, 175.5], 'bid': 7.69}, {'imgObject': {}, 'id': 'baked potato', 'src': '/static/foodstim60/baked potato.jpg', 'key': 'i', 'origWidth': 409, 'origHeight': 410, 'width': 409, 'height': 410, 'widthPercent': 0.45, 'rescaleHeight': False, 'trialN': 3, 'loaded': True, 'loadedTime': 14574.400000000373, 'positionName': 'RIGHT', 'positionCoords': [703.56, 175.5], 'bid': 7.28}]",21882.900000000373,1669830005445,strawberries,baked potato,7.69,7.28,-0.41000000000000014,strawberries,1317.7999999988824,1319,1319.199999999255,True,u,23712.099999999627,1829.199999999255,1669830007274,1829,HRV,HRV_0072,2022-11-30 17:47:45
4,"[{'imgObject': {}, 'id': 'Tribe humus pita', 'src': '/static/foodstim60/Tribe humus pita.jpg', 'key': 'u', 'origWidth': 411, 'origHeight': 411, 'width': 411, 'height': 411, 'widthPercent': 0.45, 'rescaleHeight': False, 'trialN': 4, 'loaded': True, 'loadedTime': 14678.400000000373, 'positionName': 'LEFT', 'positionCoords': [238.44, 175], 'bid': 5.48}, {'imgObject': {}, 'id': 'grilled chicken strips', 'src': '/static/foodstim60/grilled chicken strips.jpg', 'key': 'i', 'origWidth': 410, 'origHeight': 411, 'width': 410, 'height': 411, 'widthPercent': 0.45, 'rescaleHeight': False, 'trialN': 4, 'loaded': True, 'loadedTime': 14737.400000000373, 'positionName': 'RIGHT', 'positionCoords': [703.56, 175], 'bid': 6.69}]",23713.099999999627,1669830007275,Tribe humus pita,grilled chicken strips,5.48,6.69,1.21,grilled chicken strips,1359.5,1362,1361.9000000003725,True,i,25590.800000000745,1877.7000000011176,1669830009153,1878,HRV,HRV_0072,2022-11-30 17:47:45
5,"[{'imgObject': {}, 'id': 'pear', 'src': '/static/foodstim60/pear.jpg', 'key': 'u', 'origWidth': 411, 'origHeight': 410, 'width': 411, 'height': 410, 'widthPercent': 0.45, 'rescaleHeight': False, 'trialN': 5, 'loaded': True, 'loadedTime': 14769.5, 'positionName': 'LEFT', 'positionCoords': [238.44, 175.5], 'bid': 6.41}, {'imgObject': {}, 'id': 'chicken nuggets2', 'src': '/static/foodstim60/chicken nuggets2.jpg', 'key': 'i', 'origWidth': 410, 'origHeight': 409, 'width': 410, 'height': 409, 'widthPercent': 0.45, 'rescaleHeight': False, 'trialN': 5, 'loaded': True, 'loadedTime': 14454.599999999627, 'positionName': 'RIGHT', 'positionCoords': [703.56, 176], 'bid': 5.39}]",25591.5,1669830009154,pear,chicken nuggets2,6.41,5.39,-1.0200000000000005,pear,2475.4000000003725,2476,2476.5999999996275,True,u,28585.300000000745,2993.800000000745,1669830012148,2994,HRV,HRV_0072,2022-11-30 17:47:45
6,"[{'imgObject': {}, 'id': 'fried eggs', 'src': '/static/foodstim60/fried eggs.jpg', 'key': 'u', 'origWidth': 410, 'origHeight': 410, 'width': 410, 'height': 410, 'widthPercent': 0.45, 'rescaleHeight': False, 'trialN': 6, 'loaded': True, 'loadedTime': 14828.699999999255, 'positionName': 'LEFT', 'positionCoords': [239.44, 175.5], 'bid': 5.09}, {'imgObject': {}, 'id': 'eggsalad', 'src': '/static/foodstim60/eggsalad.jpg', 'key': 'i', 'origWidth': 410, 'origHeight': 409, 'width': 410, 'height': 409, 'widthPercent': 0.45, 'rescaleHeight': False, 'trialN': 6, 'loaded': True, 'loadedTime': 14908.699999999255, 'positionName': 'RIGHT', 'positionCoords': [703.56, 176], 'bid': 4.3500000000000005}]",28586.099999999627,1669830012148,fried eggs,eggsalad,5.09,4.3500000000000005,-0.7399999999999993,fried eggs,1128.5999999996275,1133,1132.0,True,u,30228.400000000373,1642.300000000745,1669830013791,1643,HRV,HRV_0072,2022-11-30 17:47:45
7,"[{'imgObject': {}, 'id': 'corn cob', 'src': '/static/foodstim60/corn cob.jpg', 'key': 'u', 'origWidth': 411, 'origHeight': 411, 'width': 411, 'height': 411, 'widthPercent': 0.45, 'rescaleHeight': False, 'trialN': 7, 'loaded': True, 'loadedTime': 14952.300000000745, 'positionName': 'LEFT', 'positionCoords': [238.44, 175], 'bid': 0.07}, {'imgObject': {}, 'id': 'olives', 'src': '/static/foodstim60/olives.jpg', 'key': 'i', 'origWidth': 410, 'origHeight': 410, 'width': 410, 'height': 410, 'widthPercent': 0.45, 'rescaleHeight': False, 'trialN': 7, 'loaded': True, 'loadedTime': 15013, 'positionName': 'RIGHT', 'positionCoords': [703.56, 175.5], 'bid': 1.29}]",30228.800000000745,1669830013791,corn cob,olives,0.07,1.29,1.22,olives,844.8999999985099,848,847.0999999996275,True,i,31586.900000000373,1358.0999999996275,1669830015149,1358,HRV,HRV_0072,2022-11-30 17:47:45
8,"[{'imgObject': {}, 'id': 'mashed potato', 'src': '/static/foodstim60/mashed potato.jpg', 'key': 'u', 'origWidth': 409, 'origHeight': 409, 'width': 409, 'height': 409, 'widthPercent': 0.45, 'rescaleHeight': False, 'trialN': 8, 'loaded': True, 'loadedTime': 15020.099999999627, 'positionName': 'LEFT', 'positionCoords': [240.44, 176], 'bid': 4.3100000000000005}, {'imgObject': {}, 'id': 'eggsalad', 'src': '/static/foodstim60/eggsalad.jpg', 'key': 'i', 'origWidth': 410, 'origHeight': 409, 'width': 410, 'height': 409, 'widthPercent': 0.45, 'rescaleHeight': False, 'trialN': 8, 'loaded': True, 'loadedTime': 14901.900000000373, 'positionName': 'RIGHT', 'positionCoords': [703.56, 176], 'bid': 4.3500000000000005}]",31587.599999999627,1669830015150,mashed potato,eggsalad,4.3100000000000005,4.3500000000000005,0.040000000000000036,eggsalad,2407.0999999996275,2410,2409.9000000003725,True,i,34509.699999999255,2922.0999999996275,1669830018072,2922,HRV,HRV_0072,2022-11-30 17:47:45
9,"[{'imgObject': {}, 'id': 'sweetpotato', 'src': '/static/foodstim60/sweetpotato.jpg', 'key': 'u', 'origWidth': 410, 'origHeight': 410, 'width': 410, 'height': 410, 'widthPercent': 0.45, 'rescaleHeight': False, 'trialN': 9, 'loaded': True, 'loadedTime': 15089.300000000745, 'positionName': 'LEFT', 'positionCoords': [239.44, 175.5], 'bid': 4.19}, {'imgObject': {}, 'id': 'hashbrowns', 'src': '/static/foodstim60/hashbrowns.jpg', 'key': 'i', 'origWidth': 411, 'origHeight': 410, 'width': 411, 'height': 410, 'widthPercent': 0.45, 'rescaleHeight': False, 'trialN': 9, 'loaded': True, 'loadedTime': 14359.199999999255, 'positionName': 'RIGHT', 'positionCoords': [703.56, 175.5], 'bid': 4.19}]",34510.09999999963,1669830018072,sweetpotato,hashbrowns,4.19,4.19,0.0,sweetpotato,1714.4000000003725,1718,1717.4000000003725,True,u,36748.199999999255,2238.0999999996275,1669830020311,2239,HRV,HRV_0072,2022-11-30 17:47:45
10,"[{'imgObject': {}, 'id': 'roastedpotatoes', 'src': '/static/foodstim60/roastedpotatoes.jpg', 'key': 'u', 'origWidth': 409, 'origHeight': 410, 'width': 409, 'height': 410, 'widthPercent': 0.45, 'rescaleHeight': False, 'trialN': 10, 'loaded': True, 'loadedTime': 15102.400000000373, 'positionName': 'LEFT', 'positionCoords': [240.44, 175.5], 'bid': 4.12}, {'imgObject': {}, 'id': 'blueberries', 'src': '/static/foodstim60/blueberries.jpg', 'key': 'i', 'origWidth': 411, 'origHeight': 411, 'width': 411, 'height': 411, 'widthPercent': 0.45, 'rescaleHeight': False, 'trialN': 10, 'loaded': True, 'loadedTime': 15148.5, 'positionName': 'RIGHT', 'positionCoords': [703.56, 175], 'bid': 1.66}]",36749.300000000745,1669830020312,roastedpotatoes,blueberries,4.12,1.66,-2.46,roastedpotatoes,1403.5999999996275,1406,1406.7999999988824,True,u,38663.5,1914.199999999255,1669830022226,1914,HRV,HRV_0072,2022-11-30 17:47:45
11,"[{'imgObject': {}, 'id': 'omelette', 'src': '/static/foodstim60/omelette.jpg', 'key': 'u', 'origWidth': 410, 'origHeight': 409, 'width': 410, 'height': 409, 'widthPercent': 0.45, 'rescaleHeight': False, 'trialN': 11, 'loaded': True, 'loadedTime': 15187.400000000373, 'positionName': 'LEFT', 'positionCoords': [239.44, 176], 'bid': 5.09}, {'imgObject': {}, 'id': 'cherry tomato', 'src': '/static/foodstim60/cherry tomato.jpg', 'key': 'i', 'origWidth': 410, 'origHeight': 410, 'width': 410, 'height': 410, 'widthPercent': 0.45, 'rescaleHeight': False, 'trialN': 11, 'loaded': True, 'loadedTime': 15200.400000000373, 'positionName': 'RIGHT', 'positionCoords': [703.56, 175.5], 'bid': 0.46}]",38664.09999999963,1669830022226,omelette,cherry tomato,5.09,0.46,-4.63,omelette,1100.2000000011176,1105,1104.0,True,u,40280.59999999963,1616.5,1669830023843,1617,HRV,HRV_0072,2022-11-30 17:47:45
12,"[{'imgObject': {}, 'id': 'mango', 'src': '/static/foodstim60/mango.jpg', 'key': 'u', 'origWidth': 411, 'origHeight': 411, 'width': 411, 'height': 411, 'widthPercent': 0.45, 'rescaleHeight': False, 'trialN': 12, 'loaded': True, 'loadedTime': 15254.400000000373, 'positionName': 'LEFT', 'positionCoords': [238.44, 175], 'bid': 6.04}, {'imgObject': {}, 'id': 'banana', 'src': '/static/foodstim60/banana.jpg', 'key': 'i', 'origWidth': 410, 'origHeight': 410, 'width': 410, 'height': 410, 'widthPercent': 0.45, 'rescaleHeight': False, 'trialN': 12, 'loaded': True, 'loadedTime': 15340.5, 'positionName': 'RIGHT', 'positionCoords': [703.56, 175.5], 'bid': 1.54}]",40281.90000000037,1669830023844,mango,banana,6.04,1.54,-4.5,mango,1494.2999999988824,1496,1495.4000000003725,True,u,42292.699999999255,2010.7999999988824,1669830025855,2011,HRV,HRV_0072,2022-11-30 17:47:45
13,"[{'imgObject': {}, 'id': 'tacos', 'src': '/static/foodstim60/tacos.jpg', 'key': 'u', 'origWidth': 411, 'origHeight': 411, 'width': 411, 'height': 411, 'widthPercent': 0.45, 'rescaleHeight': False, 'trialN': 13, 'loaded': True, 'loadedTime': 14196.900000000373, 'positionName': 'LEFT', 'positionCoords': [238.44, 175], 'bid': 5}, {'imgObject': {}, 'id': 'salad w chicken', 'src': '/static/foodstim60/salad w chicken.jpg', 'key': 'i', 'origWidth': 411, 'origHeight': 411, 'width': 411, 'height': 411, 'widthPercent': 0.45, 'rescaleHeight': False, 'trialN': 13, 'loaded': True, 'loadedTime': 14258.699999999255, 'positionName': 'RIGHT', 'positionCoords': [703.56, 175], 'bid': 7.91}]",42293.699999999255,1669830025856,tacos,salad w chicken,5.0,7.91,2.91,salad w chicken,1685,1688,1688.0,True,i,44488.800000000745,2195.10000000149,1669830028051,2195,HRV,HRV_0072,2022-11-30 17:47:45
14,"[{'imgObject': {}, 'id': 'luckycharms', 'src': '/static/foodstim60/luckycharms.jpg', 'key': 'u', 'origWidth': 410, 'origHeight': 409, 'width': 410, 'height': 409, 'widthPercent': 0.45, 'rescaleHeight': False, 'trialN': 14, 'loaded': True, 'loadedTime': 15413.099999999627, 'positionName': 'LEFT', 'positionCoords': [239.44, 176], 'bid': 0.91}, {'imgObject': {}, 'id': 'popsicles', 'src': '/static/foodstim60/popsicles.jpg', 'key': 'i', 'origWidth': 410, 'origHeight': 410, 'width': 410, 'height': 410, 'widthPercent': 0.45, 'rescaleHeight': False, 'trialN': 14, 'loaded': True, 'loadedTime': 16546.699999999255, 'positionName': 'RIGHT', 'positionCoords': [703.56, 175.5], 'bid': 0.18}]",44489.800000000745,1669830028052,luckycharms,popsicles,0.91,0.18,-0.73,NaN,NaN,NaN,,False,NaN,48522.59999999963,4032.7999999988824,1669830032085,4033,HRV,HRV_0072,2022-11-30 17:47:45
15,"[{'imgObject': {}, 'id': 'turkeysandwich', 'src': '/static/foodstim60/turkeysandwich.jpg', 'key': 'u', 'origWidth': 409, 'origHeight': 409, 'width': 409, 'height': 409, 'widthPercent': 0.45, 'rescaleHeight': False, 'trialN': 15, 'loaded': True, 'loadedTime': 15415.599999999627, 'positionName': 'LEFT', 'positionCoords': [240.44, 176], 'bid': 7.26}, {'imgObject': {}, 'id': 'baked potato', 'src': '/static/foodstim60/baked potato.jpg', 'key': 'i', 'origWidth': 409, 'origHeight': 410, 'width': 409, 'height': 410, 'widthPercent': 0.45, 'rescaleHeight': False, 'trialN': 15, 'loaded': True, 'loadedTime': 14580.5, 'positionName': 'RIGHT', 'positionCoords': [703.56, 175.5], 'bid': 7.28}]",48523.59999999963,1669830032086,turkeysandwich,baked potato,7.26,7.28,0.020000000000000462,turkeysandwich,1509.300000000745,1512,1511.5999999996275,True,u,50638.199999999255,2114.5999999996275,1669830034201,2115,HRV,HRV_0072,2022-11-30 17:47:45
16,"[{'imgObject': {}, 'id': 'kiwi', 'src': '/static/foodstim60/kiwi.jpg', 'key': 'u', 'origWidth': 410, 'origHeight': 410, 'width': 410, 'height': 410, 'widthPercent': 0.45, 'rescaleHeight': False, 'trialN': 16, 'loaded': True, 'loadedTime': 15429.099999999627, 'positionName': 'LEFT', 'positionCoords': [239.44, 175.5], 'bid': 1.87}, {'imgObject': {}, 'id': 'edamame', 'src': '/static/foodstim60/edamame.jpg', 'key': 'i', 'origWidth': 409, 'origHeight': 410, 'width': 409, 'height': 410, 'widthPercent': 0.45, 'rescaleHeight': False, 'trialN': 16, 'loaded': True, 'loadedTime': 15498.400000000373, 'positionName': 'RIGHT', 'positionCoords': [703.56, 175.5], 'bid': 2.27}]",50638.90000000037,1669830034201,kiwi,edamame,1.87,2.27,0.3999999999999999,NaN,NaN,NaN,,False,NaN,54667.59999999963,4028.699999999255,1669830038230,4029,HRV,HRV_0072,2022-11-30 17:47:45
17,"[{'imgObject': {}, 'id': 'cheerios', 'src': '/static/foodstim60/cheerios.jpg', 'key': 'u', 'origWidth': 409, 'origHeight': 410, 'width': 409, 'height': 410, 'widthPercent': 0.45, 'rescaleHeight': False, 'trialN': 17, 'loaded': True, 'loadedTime': 15505.400000000373, 'positionName': 'LEFT', 'positionCoords': [240.44, 175.5], 'bid': 1.41}, {'imgObject': {}, 'id': 'rigatoni', 'src': '/static/foodstim60/rigatoni.jpg', 'key': 'i', 'origWidth': 411, 'origHeight': 411, 'width': 411, 'height': 411, 'widthPercent': 0.45, 'rescaleHeight': False, 'trialN': 17, 'loaded': True, 'loadedTime': 15594.400000000373, 'positionName': 'RIGHT', 'positionCoords': [703.56, 175], 'bid': 1.4}]",54668.5,1669830038231,cheerios,rigatoni,1.41,1.4,-0.010000000000000009,rigatoni,1572.300000000745,1573,1573.199999999255,True,i,56763.300000000745,2094.800000000745,1669830040326,2095,HRV,HRV_0072,2022-11-30 17:47:45
18,"[{'imgObject': {}, 'id': 'banana', 'src': '/static/foodstim60/banana.jpg', 'key': 'u', 'origWidth': 410, 'origHeight': 410, 'width': 410, 'height': 410, 'widthPercent': 0.45, 'rescaleHeight': False, 'trialN': 18, 'loaded': True, 'loadedTime': 15337.5, 'positionName': 'LEFT', 'positionCoords': [239.44, 175.5], 'bid': 1.54}, {'imgObject': {}, 'id': 'popsicles', 'src': '/static/foodstim60/popsicles.jpg', 'key': 'i', 'origWidth': 410, 'origHeight': 410, 'width': 410, 'height': 410, 'widthPercent': 0.45, 'rescaleHeight': False, 'trialN': 18, 'loaded': True, 'loadedTime': 16545.599999999627, 'positionName': 'RIGHT', 'positionCoords': [703.56, 175.5], 'bid': 0.18}]",56764.5,1669830040327,banana,popsicles,1.54,0.18,-1.36,banana,980.3000000007451,981,981.1999999992549,True,u,58268.40000000037,1503.9000000003725,1669830041831,1504,HRV,HRV_0072,2022-11-30 17:47:45
19,"[{'imgObject': {}, 'id': 'chicken nuggets2', 'src': '/static/foodstim60/chicken nuggets2.jpg', 'key': 'u', 'origWidth': 410, 'origHeight': 409, 'width': 410, 'height': 409, 'widthPercent': 0.45, 'rescaleHeight': False, 'trialN': 19, 'loaded': True, 'loadedTime': 14520, 'positionName': 'LEFT', 'positionCoords': [239.44, 176], 'bid': 5.39}, {'imgObject': {}, 'id': 'apple slices', 'src': '/static/foodstim60/apple slices.jpg', 'key': 'i', 'origWidth': 409, 'origHeight': 410, 'width': 409, 'height': 410, 'widthPercent': 0.45, 'rescaleHeight': False, 'trialN': 19, 'loaded': True, 'loadedTime': 15729.599999999627, 'positionName': 'RIGHT', 'positionCoords': [703.56, 175.5], 'bid': 4.97}]",58269.40000000037,1669830041832,chicken nuggets2,apple slices,5.39,4.97,-0.41999999999999993,chicken nuggets2,1069,1072,1072.0999999996275,True,u,59856.199999999255,1586.7999999988824,1669830043419,1587,HRV,HRV_0072,2022-11-30 17:47:45
20,"[{'imgObject': {}, 'id': 'sweetpotato', 'src': '/static/foodstim60/sweetpotato.jpg', 'key': 'u', 'origWidth': 410, 'origHeight': 410, 'width': 410, 'height': 410, 'widthPercent': 0.45, 'rescaleHeight': False, 'trialN': 20, 'loaded': True, 'loadedTime': 15022.800000000745, 'positionName': 'LEFT', 'positionCoords': [239.44, 175.5], 'bid': 4.19}, {'imgObject': {}, 'id': 'bagel and cc', 'src': '/static/foodstim60/bagel and cc.jpg', 'key': 'i', 'origWidth': 410, 'origHeight': 410, 'width': 410, 'height': 410, 'widthPercent': 0.45, 'rescaleHeight': False, 'trialN': 20, 'loaded': True, 'loadedTime': 15627.099999999627, 'positionName': 'RIGHT', 'positionCoords': [703.56, 175.5], 'bid': 5.05}]",59856.59999999963,1669830043419,sweetpotato,bagel and cc,4.19,5.05,0.8599999999999994,sweetpotato,864.4000000003725,865,865.3000000007451,True,u,61238.300000000745,1381.7000000011176,1669830044801,1382,HRV,HRV_0072,2022-11-30 17:47:45
21,"[{'imgObject': {}, 'id': 'fruitsalad', 'src': '/static/foodstim60/fruitsalad.jpg', 'key': 'u', 'origWidth': 410, 'origHeight': 410, 'width': 410, 'height': 410, 'widthPercent': 0.45, 'rescaleHeight': False, 'trialN': 21, 'loaded': True, 'loadedTime': 15751.599999999627, 'positionName': 'LEFT', 'positionCoords': [239.44, 175.5], 'bid': 6.01}, {'imgObject': {}, 'id': 'hotdog w must', 'src': '/static/foodstim60/hotdog w must.jpg', 'key': 'i', 'origWidth': 409, 'origHeight': 409, 'width': 409, 'height': 409, 'widthPercent': 0.45, 'rescaleHeight': False, 'trialN': 21, 'loaded': True, 'loadedTime': 15804.699999999255, 'positionName': 'RIGHT', 'positionCoords': [703.56, 176], 'bid': 6.79}]",61238.800000000745,1669830044801,fruitsalad,hotdog w must,6.01,6.79,0.7800000000000002,hotdog w must,1113.8999999985099,1115,1114.699999999255,True,i,62862.5,1623.699999999255,1669830046425,1624,HRV,HRV_0072,2022-11-30 17:47:45
22,"[{'imgObject': {}, 'id': 'hashbrowns', 'src': '/static/foodstim60/hashbrowns.jpg', 'key': 'u', 'origWidth': 411, 'origHeight': 410, 'width': 411, 'height': 410, 'widthPercent': 0.45, 'rescaleHeight': False, 'trialN': 22, 'loaded': True, 'loadedTime': 14353.300000000745, 'positionName': 'LEFT', 'positionCoords': [238.44, 175.5], 'bid': 4.19}, {'imgObject': {}, 'id': 'mac & cheese', 'src': '/static/foodstim60/mac & cheese.jpg', 'key': 'i', 'origWidth': 410, 'origHeight': 410, 'width': 410, 'height': 410, 'widthPercent': 0.45, 'rescaleHeight': False, 'trialN': 22, 'loaded': True, 'loadedTime': 15847.400000000373, 'positionName': 'RIGHT', 'positionCoords': [703.56, 175.5], 'bid': 1.93}]",62863.0,1669830046425,hashbrowns,mac & cheese,4.19,1.93,-2.2600000000000007,mac & cheese,1409,1410,1409.9000000003725,True,i,64787.0,1924.0,1669830048349,1924,HRV,HRV_0072,2022-11-30 17:47:45
23,"[{'imgObject': {}, 'id': 'seaweed', 'src': '/static/foodstim60/seaweed.jpg', 'key': 'u', 'origWidth': 410, 'origHeight': 410, 'width': 410, 'height': 410, 'widthPercent': 0.45, 'rescaleHeight': False, 'trialN': 23, 'loaded': True, 'loadedTime': 15859.199999999255, 'positionName': 'LEFT', 'positionCoords': [239.44, 175.5], 'bid': 5.12}, {'imgObject': {}, 'id': 'rigatoni and sauce', 'src': '/static/foodstim60/rigatoni and sauce.jpg', 'key': 'i', 'origWidth': 410, 'origHeight': 411, 'width': 410, 'height': 411, 'widthPercent': 0.45, 'rescaleHeight': False, 'trialN': 23, 'loaded': True, 'loadedTime': 15860.5, 'positionName': 'RIGHT', 'positionCoords': [703.56, 175], 'bid': 5.12}]",64788.699999999255,1669830048351,seaweed,rigatoni and sauce,5.12,5.12,0.0,rigatoni and sauce,1708.9000000003725,1711,1710.5,True,i,67018.0,2229.300000000745,1669830050580,2229,HRV,HRV_0072,2022-11-30 17:47:45
24,"[{'imgObject': {}, 'id': 'roastedpotatoes', 'src': '/static/foodstim60/roastedpotatoes.jpg', 'key': 'u', 'origWidth': 409, 'origHeight': 410, 'width': 409, 'height': 410, 'widthPercent': 0.45, 'rescaleHeight': False, 'trialN': 24, 'loaded': True, 'loadedTime': 15096.400000000373, 'positionName': 'LEFT', 'positionCoords': [240.44, 175.5], 'bid': 4.12}, {'imgObject': {}, 'id': 'steak', 'src': '/static/foodstim60/steak.jpg', 'key': 'i', 'origWidth': 410, 'origHeight': 410, 'width': 410, 'height': 410, 'widthPercent': 0.45, 'rescaleHeight': False, 'trialN': 24, 'loaded': True, 'loadedTime': 15962.900000000373, 'positionName': 'RIGHT', 'positionCoords': [703.56, 175.5], 'bid': 6.98}]",67019.59999999963,1669830050582,roastedpotatoes,steak,4.12,6.98,2.8600000000000003,steak,1086.800000000745,1091,1090.7000000011176,True,i,68628.0,1608.4000000003725,1669830052190,1608,HRV,HRV_0072,2022-11-30 17:47:45
25,"[{'imgObject': {}, 'id': 'kiwi', 'src': '/static/foodstim60/kiwi.jpg', 'key': 'u', 'origWidth': 410, 'origHeight': 410, 'width': 410, 'height': 410, 'widthPercent': 0.45, 'rescaleHeight': False, 'trialN': 25, 'loaded': True, 'loadedTime': 15426.199999999255, 'positionName': 'LEFT', 'positionCoords': [239.44, 175.5], 'bid': 1.87}, {'imgObject': {}, 'id': 'blackbeanswithrice', 'src': '/static/foodstim60/blackbeanswithrice.jpg', 'key': 'i', 'origWidth': 410, 'origHeight': 410, 'width': 410, 'height': 410, 'widthPercent': 0.45, 'rescaleHeight': False, 'trialN': 25, 'loaded': True, 'loadedTime': 15972.5, 'positionName': 'RIGHT', 'positionCoords': [703.56, 175.5], 'bid': 4.12}]",68628.59999999963,1669830052191,kiwi,blackbeanswithrice,1.87,4.12,2.25,NaN,NaN,NaN,,False,NaN,72651.40000000037,4022.800000000745,1669830056214,4023,HRV,HRV_0072,2022-11-30 17:47:45
26,"[{'imgObject': {}, 'id': 'cocktailshrimp', 'src': '/static/foodstim60/cocktailshrimp.jpg', 'key': 'u', 'origWidth': 410, 'origHeight': 410, 'width': 410, 'height': 410, 'widthPercent': 0.45, 'rescaleHeight': False, 'trialN': 26, 'loaded': True, 'loadedTime': 16025.5, 'positionName': 'LEFT', 'positionCoords': [239.44, 175.5], 'bid': 5.46}, {'imgObject': {}, 'id': 'Tribe humus pita', 'src': '/static/foodstim60/Tribe humus pita.jpg', 'key': 'i', 'origWidth': 411, 'origHeight': 411, 'width': 411, 'height': 411, 'widthPercent': 0.45, 'rescaleHeight': False, 'trialN': 26, 'loaded': True, 'loadedTime': 14681.5, 'positionName': 'RIGHT', 'positionCoords': [703.56, 175], 'bid': 5.48}]",72653.30000000075,1669830056216,cocktailshrimp,Tribe humus pita,5.46,5.48,0.020000000000000462,cocktailshrimp,1582.3999999985099,1585,1585.3999999985099,True,u,74751.69999999925,2098.39999999851,1669830058314,2098,HRV,HRV_0072,2022-11-30 17:47:45
27,"[{'imgObject': {}, 'id': 'ice cream sundae 002', 'src': '/static/foodstim60/ice cream sundae 002.jpg', 'key': 'u', 'origWidth': 409, 'origHeight': 409, 'width': 409, 'height': 409, 'widthPercent': 0.45, 'rescaleHeight': False, 'trialN': 27, 'loaded': True, 'loadedTime': 16034.400000000373, 'positionName': 'LEFT', 'positionCoords': [240.44, 176], 'bid': 7.07}, {'imgObject': {}, 'id': 'turkey sandwich', 'src': '/static/foodstim60/turkey sandwich.jpg', 'key': 'i', 'origWidth': 409, 'origHeight': 409, 'width': 409, 'height': 409, 'widthPercent': 0.45, 'rescaleHeight': False, 'trialN': 27, 'loaded': True, 'loadedTime': 16037.300000000745, 'positionName': 'RIGHT', 'positionCoords': [703.56, 176], 'bid': 8.59}]",74752.19999999925,1669830058315,ice cream sundae 002,turkey sandwich,7.07,8.59,1.5199999999999996,turkey sandwich,1768.9000000003725,1770,1770.4000000003725,True,i,77035.69999999925,2283.5,1669830060598,2283,HRV,HRV_0072,2022-11-30 17:47:45
28,"[{'imgObject': {}, 'id': 'grilled chicken strips', 'src': '/static/foodstim60/grilled chicken strips.jpg', 'key': 'u', 'origWidth': 410, 'origHeight': 411, 'width': 410, 'height': 411, 'widthPercent': 0.45, 'rescaleHeight': False, 'trialN': 28, 'loaded': True, 'loadedTime': 14739, 'positionName': 'LEFT', 'positionCoords': [239.44, 175], 'bid': 6.69}, {'imgObject': {}, 'id': 'strawberries', 'src': '/static/foodstim60/strawberries.jpg', 'key': 'i', 'origWidth': 410, 'origHeight': 410, 'width': 410, 'height': 410, 'widthPercent': 0.45, 'rescaleHeight': False, 'trialN': 28, 'loaded': True, 'loadedTime': 14531.900000000373, 'positionName': 'RIGHT', 'positionCoords': [703.56, 175.5], 'bid': 7.69}]",77036.0,1669830060598,grilled chicken strips,strawberries,6.69,7.69,1.0,grilled chicken strips,1766.300000000745,1769,1768.199999999255,True,u,79307.59999999963,2271.5999999996275,1669830062870,2272,HRV,HRV_0072,2022-11-30 17:47:45
29,"[{'imgObject': {}, 'id': 'cheerios', 'src': '/static/foodstim60/cheerios.jpg', 'key': 'u', 'origWidth': 409, 'origHeight': 410, 'width': 409, 'height': 410, 'widthPercent': 0.45, 'rescaleHeight': False, 'trialN': 29, 'loaded': True, 'loadedTime': 15515.5, 'positionName': 'LEFT', 'positionCoords': [240.44, 175.5], 'bid': 1.41}, {'imgObject': {}, 'id': 'banana', 'src': '/static/foodstim60/banana.jpg', 'key': 'i', 'origWidth': 410, 'origHeight': 410, 'width': 410, 'height': 410, 'widthPercent': 0.45, 'rescaleHeight': False, 'trialN': 29, 'loaded': True, 'loadedTime': 15299.900000000373, 'positionName': 'RIGHT', 'positionCoords': [703.56, 175.5], 'bid': 1.54}]",79309.40000000037,1669830062872,cheerios,banana,1.41,1.54,0.13000000000000012,banana,1085,1088,1088.0,True,i,80901.09999999963,1591.699999999255,1669830064463,1591,HRV,HRV_0072,2022-11-30 17:47:45
30,"[{'imgObject': {}, 'id': 'cherries', 'src': '/static/foodstim60/cherries.jpg', 'key': 'u', 'origWidth': 410, 'origHeight': 411, 'width': 410, 'height': 411, 'widthPercent': 0.45, 'rescaleHeight': False, 'trialN': 30, 'loaded': True, 'loadedTime': 14268.099999999627, 'positionName': 'LEFT', 'positionCoords': [239.44, 175], 'bid': 7.1000000000000005}, {'imgObject': {}, 'id': 'chickenfingers', 'src': '/static/foodstim60/chickenfingers.jpg', 'key': 'i', 'origWidth': 410, 'origHeight': 410, 'width': 410, 'height': 410, 'widthPercent': 0.45, 'rescaleHeight': False, 'trialN': 30, 'loaded': True, 'loadedTime': 13980.699999999255, 'positionName': 'RIGHT', 'positionCoords': [703.56, 175.5], 'bid': 7.9}]",80901.59999999963,1669830064464,cherries,chickenfingers,7.1000000000000005,7.9,0.7999999999999998,chickenfingers,1258.4000000003725,1260,1259.9000000003725,True,i,82675.09999999963,1773.5,1669830066237,1773,HRV,HRV_0072,2022-11-30 17:47:45
31,"[{'imgObject': {}, 'id': 'luckycharms', 'src': '/static/foodstim60/luckycharms.jpg', 'key': 'u', 'origWidth': 410, 'origHeight': 409, 'width': 410, 'height': 409, 'widthPercent': 0.45, 'rescaleHeight': False, 'trialN': 31, 'loaded': True, 'loadedTime': 15414.699999999255, 'positionName': 'LEFT', 'positionCoords': [239.44, 176], 'bid': 0.91}, {'imgObject': {}, 'id': 'cheerios', 'src': '/static/foodstim60/cheerios.jpg', 'key': 'i', 'origWidth': 409, 'origHeight': 410, 'width': 409, 'height': 410, 'widthPercent': 0.45, 'rescaleHeight': False, 'trialN': 31, 'loaded': True, 'loadedTime': 15507, 'positionName': 'RIGHT', 'positionCoords': [703.56, 175.5], 'bid': 1.41}]",82675.30000000075,1669830066238,luckycharms,cheerios,0.91,1.41,0.4999999999999999,cheerios,1621.5999999996275,1622,1622.5,True,i,84819.59999999963,2144.2999999988824,1669830068382,2144,HRV,HRV_0072,2022-11-30 17:47:45
32,"[{'imgObject': {}, 'id': 'salad w chicken', 'src': '/static/foodstim60/salad w chicken.jpg', 'key': 'u', 'origWidth': 411, 'origHeight': 411, 'width': 411, 'height': 411, 'widthPercent': 0.45, 'rescaleHeight': False, 'trialN': 32, 'loaded': True, 'loadedTime': 14267.099999999627, 'positionName': 'LEFT', 'positionCoords': [238.44, 175], 'bid': 7.91}, {'imgObject': {}, 'id': 'pear', 'src': '/static/foodstim60/pear.jpg', 'key': 'i', 'origWidth': 411, 'origHeight': 410, 'width': 411, 'height': 410, 'widthPercent': 0.45, 'rescaleHeight': False, 'trialN': 32, 'loaded': True, 'loadedTime': 14743, 'positionName': 'RIGHT', 'positionCoords': [703.56, 175.5], 'bid': 6.41}]",84820.80000000075,1669830068383,salad w chicken,pear,7.91,6.41,-1.5,salad w chicken,853.6999999992549,857,856.7999999988824,True,u,86189.09999999963,1368.2999999988824,1669830069751,1368,HRV,HRV_0072,2022-11-30 17:47:45
33,"[{'imgObject': {}, 'id': 'popsicles', 'src': '/static/foodstim60/popsicles.jpg', 'key': 'u', 'origWidth': 410, 'origHeight': 410, 'width': 410, 'height': 410, 'widthPercent': 0.45, 'rescaleHeight': False, 'trialN': 33, 'loaded': True, 'loadedTime': 16547.900000000373, 'positionName': 'LEFT', 'positionCoords': [239.44, 175.5], 'bid': 0.18}, {'imgObject': {}, 'id': 'corn cob', 'src': '/static/foodstim60/corn cob.jpg', 'key': 'i', 'origWidth': 411, 'origHeight': 411, 'width': 411, 'height': 411, 'widthPercent': 0.45, 'rescaleHeight': False, 'trialN': 33, 'loaded': True, 'loadedTime': 14909.400000000373, 'positionName': 'RIGHT', 'positionCoords': [703.56, 175], 'bid': 0.07}]",86189.40000000037,1669830069752,popsicles,corn cob,0.18,0.07,-0.10999999999999999,NaN,NaN,NaN,,False,NaN,90226.30000000075,4036.9000000003725,1669830073789,4037,HRV,HRV_0072,2022-11-30 17:47:45
34,"[{'imgObject': {}, 'id': 'cherries', 'src': '/static/foodstim60/cherries.jpg', 'key': 'u', 'origWidth': 410, 'origHeight': 411, 'width': 410, 'height': 411, 'widthPercent': 0.45, 'rescaleHeight': False, 'trialN': 34, 'loaded': True, 'loadedTime': 14352.099999999627, 'positionName': 'LEFT', 'positionCoords': [239.44, 175], 'bid': 7.1000000000000005}, {'imgObject': {}, 'id': 'fruitsalad', 'src': '/static/foodstim60/fruitsalad.jpg', 'key': 'i', 'origWidth': 410, 'origHeight': 410, 'width': 410, 'height': 410, 'widthPercent': 0.45, 'rescaleHeight': False, 'trialN': 34, 'loaded': True, 'loadedTime': 15745.599999999627, 'positionName': 'RIGHT', 'positionCoords': [703.56, 175.5], 'bid': 6.01}]",90227.0,1669830073789,cherries,fruitsalad,7.1000000000000005,6.01,-1.0900000000000007,cherries,1023.5,1027,1026.5,True,u,91762.69999999925,1535.699999999255,1669830075325,1536,HRV,HRV_0072,2022-11-30 17:47:45
35,"[{'imgObject': {}, 'id': 'eggsalad', 'src': '/static/foodstim60/eggsalad.jpg', 'key': 'u', 'origWidth': 410, 'origHeight': 409, 'width': 410, 'height': 409, 'widthPercent': 0.45, 'rescaleHeight': False, 'trialN': 35, 'loaded': True, 'loadedTime': 14906.199999999255, 'positionName': 'LEFT', 'positionCoords': [239.44, 176], 'bid': 4.3500000000000005}, {'imgObject': {}, 'id': 'rigatoni', 'src': '/static/foodstim60/rigatoni.jpg', 'key': 'i', 'origWidth': 411, 'origHeight': 411, 'width': 411, 'height': 411, 'widthPercent': 0.45, 'rescaleHeight': False, 'trialN': 35, 'loaded': True, 'loadedTime': 15596.599999999627, 'positionName': 'RIGHT', 'positionCoords': [703.56, 175], 'bid': 1.4}]",91763.90000000037,1669830075326,eggsalad,rigatoni,4.3500000000000005,1.4,-2.9500000000000006,eggsalad,1262.199999999255,1266,1265.2999999988824,True,u,93542.19999999925,1778.2999999988824,1669830077104,1778,HRV,HRV_0072,2022-11-30 17:47:45
36,"[{'imgObject': {}, 'id': 'shreddedwheatwithmilk', 'src': '/static/foodstim60/shreddedwheatwithmilk.jpg', 'key': 'u', 'origWidth': 410, 'origHeight': 410, 'width': 410, 'height': 410, 'widthPercent': 0.45, 'rescaleHeight': False, 'trialN': 36, 'loaded': True, 'loadedTime': 16144.300000000745, 'positionName': 'LEFT', 'positionCoords': [239.44, 175.5], 'bid': 4.9}, {'imgObject': {}, 'id': 'orange slices', 'src': '/static/foodstim60/orange slices.jpg', 'key': 'i', 'origWidth': 409, 'origHeight': 410, 'width': 409, 'height': 410, 'widthPercent': 0.45, 'rescaleHeight': False, 'trialN': 36, 'loaded': True, 'loadedTime': 16150.699999999255, 'positionName': 'RIGHT', 'positionCoords': [703.56, 175.5], 'bid': 4.47}]",93542.69999999925,1669830077105,shreddedwheatwithmilk,orange slices,4.9,4.47,-0.4300000000000006,orange slices,1505.6000000014901,1506,1506.4000000003725,True,i,95560.59999999963,2017.9000000003725,1669830079123,2018,HRV,HRV_0072,2022-11-30 17:47:45
37,"[{'imgObject': {}, 'id': 'fried eggs', 'src': '/static/foodstim60/fried eggs.jpg', 'key': 'u', 'origWidth': 410, 'origHeight': 410, 'width': 410, 'height': 410, 'widthPercent': 0.45, 'rescaleHeight': False, 'trialN': 37, 'loaded': True, 'loadedTime': 14826.699999999255, 'positionName': 'LEFT', 'positionCoords': [239.44, 175.5], 'bid': 5.09}, {'imgObject': {}, 'id': 'apple slices', 'src': '/static/foodstim60/apple slices.jpg', 'key': 'i', 'origWidth': 409, 'origHeight': 410, 'width': 409, 'height': 410, 'widthPercent': 0.45, 'rescaleHeight': False, 'trialN': 37, 'loaded': True, 'loadedTime': 15733.099999999627, 'positionName': 'RIGHT', 'positionCoords': [703.56, 175.5], 'bid': 4.97}]",95561.40000000037,1669830079124,fried eggs,apple slices,5.09,4.97,-0.1200000000000001,fried eggs,1137.5,1140,1140.5,True,u,97214.19999999925,1652.7999999988824,1669830080776,1652,HRV,HRV_0072,2022-11-30 17:47:45
38,"[{'imgObject': {}, 'id': 'granola w milk', 'src': '/static/foodstim60/granola w milk.jpg', 'key': 'u', 'origWidth': 410, 'origHeight': 410, 'width': 410, 'height': 410, 'widthPercent': 0.45, 'rescaleHeight': False, 'trialN': 38, 'loaded': True, 'loadedTime': 14445.599999999627, 'positionName': 'LEFT', 'positionCoords': [239.44, 175.5], 'bid': 1.34}, {'imgObject': {}, 'id': 'popsicles', 'src': '/static/foodstim60/popsicles.jpg', 'key': 'i', 'origWidth': 410, 'origHeight': 410, 'width': 410, 'height': 410, 'widthPercent': 0.45, 'rescaleHeight': False, 'trialN': 38, 'loaded': True, 'loadedTime': 16540.199999999255, 'positionName': 'RIGHT', 'positionCoords': [703.56, 175.5], 'bid': 0.18}]",97215.5,1669830080778,granola w milk,popsicles,1.34,0.18,-1.1600000000000001,granola w milk,1235.300000000745,1239,1239.199999999255,True,u,98971.19999999925,1755.699999999255,1669830082533,1755,HRV,HRV_0072,2022-11-30 17:47:45
39,"[{'imgObject': {}, 'id': 'blackbeanswithrice', 'src': '/static/foodstim60/blackbeanswithrice.jpg', 'key': 'u', 'origWidth': 410, 'origHeight': 410, 'width': 410, 'height': 410, 'widthPercent': 0.45, 'rescaleHeight': False, 'trialN': 39, 'loaded': True, 'loadedTime': 15973.400000000373, 'positionName': 'LEFT', 'positionCoords': [239.44, 175.5], 'bid': 4.12}, {'imgObject': {}, 'id': 'ice cream sundae 002', 'src': '/static/foodstim60/ice cream sundae 002.jpg', 'key': 'i', 'origWidth': 409, 'origHeight': 409, 'width': 409, 'height': 409, 'widthPercent': 0.45, 'rescaleHeight': False, 'trialN': 39, 'loaded': True, 'loadedTime': 16035.800000000745, 'positionName': 'RIGHT', 'positionCoords': [703.56, 176], 'bid': 7.07}]",98973.5,1669830082536,blackbeanswithrice,ice cream sundae 002,4.12,7.07,2.95,ice cream sundae 002,1107.0999999996275,1108,1108.0999999996275,True,i,100591.30000000075,1617.800000000745,1669830084154,1618,HRV,HRV_0072,2022-11-30 17:47:45
40,"[{'imgObject': {}, 'id': 'apple slices', 'src': '/static/foodstim60/apple slices.jpg', 'key': 'u', 'origWidth': 409, 'origHeight': 410, 'width': 409, 'height': 410, 'widthPercent': 0.45, 'rescaleHeight': False, 'trialN': 40, 'loaded': True, 'loadedTime': 15722, 'positionName': 'LEFT', 'positionCoords': [240.44, 175.5], 'bid': 4.97}, {'imgObject': {}, 'id': 'shreddedwheatwithmilk', 'src': '/static/foodstim60/shreddedwheatwithmilk.jpg', 'key': 'i', 'origWidth': 410, 'origHeight': 410, 'width': 410, 'height': 410, 'widthPercent': 0.45, 'rescaleHeight': False, 'trialN': 40, 'loaded': True, 'loadedTime': 16143.699999999255, 'positionName': 'RIGHT', 'positionCoords': [703.56, 175.5], 'bid': 4.9}]",100591.59999999963,1669830084154,apple slices,shreddedwheatwithmilk,4.97,4.9,-0.0699999999999994,apple slices,1049.7000000011176,1052,1051.5999999996275,True,u,102157.0,1565.4000000003725,1669830085719,1565,HRV,HRV_0072,2022-11-30 17:47:45
41,"[{'imgObject': {}, 'id': 'cherry tomato', 'src': '/static/foodstim60/cherry tomato.jpg', 'key': 'u', 'origWidth': 410, 'origHeight': 410, 'width': 410, 'height': 410, 'widthPercent': 0.45, 'rescaleHeight': False, 'trialN': 41, 'loaded': True, 'loadedTime': 15204.5, 'positionName': 'LEFT', 'positionCoords': [239.44, 175.5], 'bid': 0.46}, {'imgObject': {}, 'id': 'corn cob', 'src': '/static/foodstim60/corn cob.jpg', 'key': 'i', 'origWidth': 411, 'origHeight': 411, 'width': 411, 'height': 411, 'widthPercent': 0.45, 'rescaleHeight': False, 'trialN': 41, 'loaded': True, 'loadedTime': 14956.300000000745, 'positionName': 'RIGHT', 'positionCoords': [703.56, 175], 'bid': 0.07}]",102157.40000000037,1669830085720,cherry tomato,corn cob,0.46,0.07,-0.39,NaN,NaN,NaN,,False,NaN,106176.19999999925,4018.7999999988824,1669830089738,4018,HRV,HRV_0072,2022-11-30 17:47:45
42,"[{'imgObject': {}, 'id': 'raspberries', 'src': '/static/foodstim60/raspberries.jpg', 'key': 'u', 'origWidth': 411, 'origHeight': 411, 'width': 411, 'height': 411, 'widthPercent': 0.45, 'rescaleHeight': False, 'trialN': 42, 'loaded': True, 'loadedTime': 16192.300000000745, 'positionName': 'LEFT', 'positionCoords': [238.44, 175], 'bid': 6.5200000000000005}, {'imgObject': {}, 'id': 'mac & cheese', 'src': '/static/foodstim60/mac & cheese.jpg', 'key': 'i', 'origWidth': 410, 'origHeight': 410, 'width': 410, 'height': 410, 'widthPercent': 0.45, 'rescaleHeight': False, 'trialN': 42, 'loaded': True, 'loadedTime': 15813.699999999255, 'positionName': 'RIGHT', 'positionCoords': [703.56, 175.5], 'bid': 1.93}]",106176.80000000075,1669830089739,raspberries,mac & cheese,6.5200000000000005,1.93,-4.590000000000001,raspberries,1672.0999999996275,1673,1673.0,True,u,108366.59999999963,2189.7999999988824,1669830091929,2190,HRV,HRV_0072,2022-11-30 17:47:45
43,"[{'imgObject': {}, 'id': 'eggs', 'src': '/static/foodstim60/eggs.jpg', 'key': 'u', 'origWidth': 409, 'origHeight': 409, 'width': 409, 'height': 409, 'widthPercent': 0.45, 'rescaleHeight': False, 'trialN': 43, 'loaded': True, 'loadedTime': 16197.800000000745, 'positionName': 'LEFT', 'positionCoords': [240.44, 176], 'bid': 1.14}, {'imgObject': {}, 'id': 'granola w milk', 'src': '/static/foodstim60/granola w milk.jpg', 'key': 'i', 'origWidth': 410, 'origHeight': 410, 'width': 410, 'height': 410, 'widthPercent': 0.45, 'rescaleHeight': False, 'trialN': 43, 'loaded': True, 'loadedTime': 14408, 'positionName': 'RIGHT', 'positionCoords': [703.56, 175.5], 'bid': 1.34}]",108368.59999999963,1669830091931,eggs,granola w milk,1.14,1.34,0.20000000000000018,eggs,1291.800000000745,1296,1296.2000000011176,True,u,110177.90000000037,1809.300000000745,1669830093740,1809,HRV,HRV_0072,2022-11-30 17:47:45
44,"[{'imgObject': {}, 'id': 'luckycharms', 'src': '/static/foodstim60/luckycharms.jpg', 'key': 'u', 'origWidth': 410, 'origHeight': 409, 'width': 410, 'height': 409, 'widthPercent': 0.45, 'rescaleHeight': False, 'trialN': 44, 'loaded': True, 'loadedTime': 15414.199999999255, 'positionName': 'LEFT', 'positionCoords': [239.44, 176], 'bid': 0.91}, {'imgObject': {}, 'id': 'roastedpotatoes', 'src': '/static/foodstim60/roastedpotatoes.jpg', 'key': 'i', 'origWidth': 409, 'origHeight': 410, 'width': 409, 'height': 410, 'widthPercent': 0.45, 'rescaleHeight': False, 'trialN': 44, 'loaded': True, 'loadedTime': 15103.400000000373, 'positionName': 'RIGHT', 'positionCoords': [703.56, 175.5], 'bid': 4.12}]",110179.0,1669830093741,luckycharms,roastedpotatoes,0.91,4.12,3.21,roastedpotatoes,1156.9000000003725,1158,1157.800000000745,True,i,111849.30000000075,1670.300000000745,1669830095412,1671,HRV,HRV_0072,2022-11-30 17:47:45
45,"[{'imgObject': {}, 'id': 'sushi w_condiments', 'src': '/static/foodstim60/sushi w_condiments.jpg', 'key': 'u', 'origWidth': 410, 'origHeight': 410, 'width': 410, 'height': 410, 'widthPercent': 0.45, 'rescaleHeight': False, 'trialN': 45, 'loaded': True, 'loadedTime': 16210, 'positionName': 'LEFT', 'positionCoords': [239.44, 175.5], 'bid': 5.25}, {'imgObject': {}, 'id': 'olives', 'src': '/static/foodstim60/olives.jpg', 'key': 'i', 'origWidth': 410, 'origHeight': 410, 'width': 410, 'height': 410, 'widthPercent': 0.45, 'rescaleHeight': False, 'trialN': 45, 'loaded': True, 'loadedTime': 15011.199999999255, 'positionName': 'RIGHT', 'positionCoords': [703.56, 175.5], 'bid': 1.29}]",111849.90000000037,1669830095412,sushi w_condiments,olives,5.25,1.29,-3.96,sushi w_condiments,1270,1272,1271.7999999988824,True,u,113628.19999999925,1778.2999999988824,1669830097190,1778,HRV,HRV_0072,2022-11-30 17:47:45
46,"[{'imgObject': {}, 'id': 'veggieswithdip', 'src': '/static/foodstim60/veggieswithdip.jpg', 'key': 'u', 'origWidth': 409, 'origHeight': 409, 'width': 409, 'height': 409, 'widthPercent': 0.45, 'rescaleHeight': False, 'trialN': 46, 'loaded': True, 'loadedTime': 16215.599999999627, 'positionName': 'LEFT', 'positionCoords': [240.44, 176], 'bid': 3.98}, {'imgObject': {}, 'id': 'eggsalad', 'src': '/static/foodstim60/eggsalad.jpg', 'key': 'i', 'origWidth': 410, 'origHeight': 409, 'width': 410, 'height': 409, 'widthPercent': 0.45, 'rescaleHeight': False, 'trialN': 46, 'loaded': True, 'loadedTime': 14890.699999999255, 'positionName': 'RIGHT', 'positionCoords': [703.56, 176], 'bid': 4.3500000000000005}]",113629.19999999925,1669830097192,veggieswithdip,eggsalad,3.98,4.3500000000000005,0.37000000000000055,eggsalad,1451.9000000003725,1453,1453.6000000014901,True,i,115604.59999999963,1975.4000000003725,1669830099167,1975,HRV,HRV_0072,2022-11-30 17:47:45
47,"[{'imgObject': {}, 'id': 'granola w milk', 'src': '/static/foodstim60/granola w milk.jpg', 'key': 'u', 'origWidth': 410, 'origHeight': 410, 'width': 410, 'height': 410, 'widthPercent': 0.45, 'rescaleHeight': False, 'trialN': 47, 'loaded': True, 'loadedTime': 14411.800000000745, 'positionName': 'LEFT', 'positionCoords': [239.44, 175.5], 'bid': 1.34}, {'imgObject': {}, 'id': 'mashed potato', 'src': '/static/foodstim60/mashed potato.jpg', 'key': 'i', 'origWidth': 409, 'origHeight': 409, 'width': 409, 'height': 409, 'widthPercent': 0.45, 'rescaleHeight': False, 'trialN': 47, 'loaded': True, 'loadedTime': 15014.400000000373, 'positionName': 'RIGHT', 'positionCoords': [703.56, 176], 'bid': 4.3100000000000005}]",115605.80000000075,1669830099168,granola w milk,mashed potato,1.34,4.3100000000000005,2.9700000000000006,mashed potato,1170.5999999996275,1172,1171.7999999988824,True,i,117287.19999999925,1681.3999999985099,1669830100849,1681,HRV,HRV_0072,2022-11-30 17:47:45
48,"[{'imgObject': {}, 'id': 'burger', 'src': '/static/foodstim60/burger.jpg', 'key': 'u', 'origWidth': 409, 'origHeight': 409, 'width': 409, 'height': 409, 'widthPercent': 0.45, 'rescaleHeight': False, 'trialN': 48, 'loaded': True, 'loadedTime': 16284.300000000745, 'positionName': 'LEFT', 'positionCoords': [240.44, 176], 'bid': 7.9}, {'imgObject': {}, 'id': 'salmon', 'src': '/static/foodstim60/salmon.jpg', 'key': 'i', 'origWidth': 410, 'origHeight': 409, 'width': 410, 'height': 409, 'widthPercent': 0.45, 'rescaleHeight': False, 'trialN': 48, 'loaded': True, 'loadedTime': 16298.5, 'positionName': 'RIGHT', 'positionCoords': [703.56, 176], 'bid': 7.22}]",117287.5,1669830100850,burger,salmon,7.9,7.22,-0.6800000000000006,salmon,1652.300000000745,1656,1655.699999999255,True,i,119449.0,2161.5,1669830103011,2161,HRV,HRV_0072,2022-11-30 17:47:45
49,"[{'imgObject': {}, 'id': 'cheerios', 'src': '/static/foodstim60/cheerios.jpg', 'key': 'u', 'origWidth': 409, 'origHeight': 410, 'width': 409, 'height': 410, 'widthPercent': 0.45, 'rescaleHeight': False, 'trialN': 49, 'loaded': True, 'loadedTime': 15513.300000000745, 'positionName': 'LEFT', 'positionCoords': [240.44, 175.5], 'bid': 1.41}, {'imgObject': {}, 'id': 'Tribe humus pita', 'src': '/static/foodstim60/Tribe humus pita.jpg', 'key': 'i', 'origWidth': 411, 'origHeight': 411, 'width': 411, 'height': 411, 'widthPercent': 0.45, 'rescaleHeight': False, 'trialN': 49, 'loaded': True, 'loadedTime': 14659.400000000373, 'positionName': 'RIGHT', 'positionCoords': [703.56, 175], 'bid': 5.48}]",119449.19999999925,1669830103012,cheerios,Tribe humus pita,1.41,5.48,4.07,Tribe humus pita,1521.1000000014901,1524,1524.5,True,i,121484.69999999925,2035.5,1669830105047,2035,HRV,HRV_0072,2022-11-30 17:47:45
50,"[{'imgObject': {}, 'id': 'sweetpotato', 'src': '/static/foodstim60/sweetpotato.jpg', 'key': 'u', 'origWidth': 410, 'origHeight': 410, 'width': 410, 'height': 410, 'widthPercent': 0.45, 'rescaleHeight': False, 'trialN': 50, 'loaded': True, 'loadedTime': 15088.199999999255, 'positionName': 'LEFT', 'positionCoords': [239.44, 175.5], 'bid': 4.19}, {'imgObject': {}, 'id': 'edamame', 'src': '/static/foodstim60/edamame.jpg', 'key': 'i', 'origWidth': 409, 'origHeight': 410, 'width': 409, 'height': 410, 'widthPercent': 0.45, 'rescaleHeight': False, 'trialN': 50, 'loaded': True, 'loadedTime': 15496.900000000373, 'positionName': 'RIGHT', 'positionCoords': [703.56, 175.5], 'bid': 2.27}]",121485.40000000037,1669830105048,sweetpotato,edamame,4.19,2.27,-1.9200000000000004,sweetpotato,1299.0999999996275,1300,1300.0999999996275,True,u,123296.30000000075,1810.9000000003725,1669830106859,1811,HRV,HRV_0072,2022-11-30 17:47:45
51,"[{'imgObject': {}, 'id': 'blackbeanswithrice', 'src': '/static/foodstim60/blackbeanswithrice.jpg', 'key': 'u', 'origWidth': 410, 'origHeight': 410, 'width': 410, 'height': 410, 'widthPercent': 0.45, 'rescaleHeight': False, 'trialN': 51, 'loaded': True, 'loadedTime': 15974.699999999255, 'positionName': 'LEFT', 'positionCoords': [239.44, 175.5], 'bid': 4.12}, {'imgObject': {}, 'id': 'veggieswithdip', 'src': '/static/foodstim60/veggieswithdip.jpg', 'key': 'i', 'origWidth': 409, 'origHeight': 409, 'width': 409, 'height': 409, 'widthPercent': 0.45, 'rescaleHeight': False, 'trialN': 51, 'loaded': True, 'loadedTime': 16217.599999999627, 'positionName': 'RIGHT', 'positionCoords': [703.56, 176], 'bid': 3.98}]",123297.80000000075,1669830106860,blackbeanswithrice,veggieswithdip,4.12,3.98,-0.14000000000000012,veggieswithdip,2033.3999999985099,2036,2036.3999999985099,True,i,125845.0,2547.199999999255,1669830109407,2547,HRV,HRV_0072,2022-11-30 17:47:45
52,"[{'imgObject': {}, 'id': 'cantaloupe', 'src': '/static/foodstim60/cantaloupe.jpg', 'key': 'u', 'origWidth': 409, 'origHeight': 409, 'width': 409, 'height': 409, 'widthPercent': 0.45, 'rescaleHeight': False, 'trialN': 52, 'loaded': True, 'loadedTime': 16321.599999999627, 'positionName': 'LEFT', 'positionCoords': [240.44, 176], 'bid': 5.05}, {'imgObject': {}, 'id': 'tacos', 'src': '/static/foodstim60/tacos.jpg', 'key': 'i', 'origWidth': 411, 'origHeight': 411, 'width': 411, 'height': 411, 'widthPercent': 0.45, 'rescaleHeight': False, 'trialN': 52, 'loaded': True, 'loadedTime': 14188.400000000373, 'positionName': 'RIGHT', 'positionCoords': [703.56, 175], 'bid': 5}]",125845.30000000075,1669830109408,cantaloupe,tacos,5.05,5.0,-0.04999999999999982,cantaloupe,1893.5,1898,1897.8999999985099,True,u,128254.0,2408.699999999255,1669830111816,2408,HRV,HRV_0072,2022-11-30 17:47:45
53,"[{'imgObject': {}, 'id': 'salmon', 'src': '/static/foodstim60/salmon.jpg', 'key': 'u', 'origWidth': 410, 'origHeight': 409, 'width': 410, 'height': 409, 'widthPercent': 0.45, 'rescaleHeight': False, 'trialN': 53, 'loaded': True, 'loadedTime': 16295.699999999255, 'positionName': 'LEFT', 'positionCoords': [239.44, 176], 'bid': 7.22}, {'imgObject': {}, 'id': 'cherries', 'src': '/static/foodstim60/cherries.jpg', 'key': 'i', 'origWidth': 410, 'origHeight': 411, 'width': 410, 'height': 411, 'widthPercent': 0.45, 'rescaleHeight': False, 'trialN': 53, 'loaded': True, 'loadedTime': 14350.199999999255, 'positionName': 'RIGHT', 'positionCoords': [703.56, 175], 'bid': 7.1000000000000005}]",128254.19999999925,1669830111817,salmon,cherries,7.22,7.1000000000000005,-0.11999999999999922,salmon,853.1000000014901,856,856.1000000014901,True,u,129622.19999999925,1368.0,1669830113184,1367,HRV,HRV_0072,2022-11-30 17:47:45
54,"[{'imgObject': {}, 'id': 'roastedpotatoes', 'src': '/static/foodstim60/roastedpotatoes.jpg', 'key': 'u', 'origWidth': 409, 'origHeight': 410, 'width': 409, 'height': 410, 'widthPercent': 0.45, 'rescaleHeight': False, 'trialN': 54, 'loaded': True, 'loadedTime': 15140.800000000745, 'positionName': 'LEFT', 'positionCoords': [240.44, 175.5], 'bid': 4.12}, {'imgObject': {}, 'id': 'blackbeanswithrice', 'src': '/static/foodstim60/blackbeanswithrice.jpg', 'key': 'i', 'origWidth': 410, 'origHeight': 410, 'width': 410, 'height': 410, 'widthPercent': 0.45, 'rescaleHeight': False, 'trialN': 54, 'loaded': True, 'loadedTime': 16019.800000000745, 'positionName': 'RIGHT', 'positionCoords': [703.56, 175.5], 'bid': 4.12}]",129622.90000000037,1669830113185,roastedpotatoes,blackbeanswithrice,4.12,4.12,0.0,roastedpotatoes,793.5999999996275,795,794.4000000003725,True,u,130924.80000000075,1301.9000000003725,1669830114487,1302,HRV,HRV_0072,2022-11-30 17:47:45
55,"[{'imgObject': {}, 'id': 'lox', 'src': '/static/foodstim60/lox.jpg', 'key': 'u', 'origWidth': 410, 'origHeight': 411, 'width': 410, 'height': 411, 'widthPercent': 0.45, 'rescaleHeight': False, 'trialN': 55, 'loaded': True, 'loadedTime': 16334.400000000373, 'positionName': 'LEFT', 'positionCoords': [239.44, 175], 'bid': 4.87}, {'imgObject': {}, 'id': 'rigatoni and sauce', 'src': '/static/foodstim60/rigatoni and sauce.jpg', 'key': 'i', 'origWidth': 410, 'origHeight': 411, 'width': 410, 'height': 411, 'widthPercent': 0.45, 'rescaleHeight': False, 'trialN': 55, 'loaded': True, 'loadedTime': 15867.400000000373, 'positionName': 'RIGHT', 'positionCoords': [703.56, 175], 'bid': 5.12}]",130926.30000000075,1669830114489,lox,rigatoni and sauce,4.87,5.12,0.25,lox,2018.699999999255,2019,2019.699999999255,True,u,133453.90000000037,2527.5999999996275,1669830117016,2527,HRV,HRV_0072,2022-11-30 17:47:45
56,"[{'imgObject': {}, 'id': 'burrito', 'src': '/static/foodstim60/burrito.jpg', 'key': 'u', 'origWidth': 410, 'origHeight': 410, 'width': 410, 'height': 410, 'widthPercent': 0.45, 'rescaleHeight': False, 'trialN': 56, 'loaded': True, 'loadedTime': 16350.800000000745, 'positionName': 'LEFT', 'positionCoords': [239.44, 175.5], 'bid': 6.79}, {'imgObject': {}, 'id': 'veggieswithdip', 'src': '/static/foodstim60/veggieswithdip.jpg', 'key': 'i', 'origWidth': 409, 'origHeight': 409, 'width': 409, 'height': 409, 'widthPercent': 0.45, 'rescaleHeight': False, 'trialN': 56, 'loaded': True, 'loadedTime': 16218.400000000373, 'positionName': 'RIGHT', 'positionCoords': [703.56, 176], 'bid': 3.98}]",133454.5,1669830117017,burrito,veggieswithdip,6.79,3.98,-2.81,burrito,1604.300000000745,1609,1608.9000000003725,True,u,135565.09999999963,2110.5999999996275,1669830119127,2110,HRV,HRV_0072,2022-11-30 17:47:45
57,"[{'imgObject': {}, 'id': 'banana', 'src': '/static/foodstim60/banana.jpg', 'key': 'u', 'origWidth': 410, 'origHeight': 410, 'width': 410, 'height': 410, 'widthPercent': 0.45, 'rescaleHeight': False, 'trialN': 57, 'loaded': True, 'loadedTime': 15343.300000000745, 'positionName': 'LEFT', 'positionCoords': [239.44, 175.5], 'bid': 1.54}, {'imgObject': {}, 'id': 'shreddedwheatwithmilk', 'src': '/static/foodstim60/shreddedwheatwithmilk.jpg', 'key': 'i', 'origWidth': 410, 'origHeight': 410, 'width': 410, 'height': 410, 'widthPercent': 0.45, 'rescaleHeight': False, 'trialN': 57, 'loaded': True, 'loadedTime': 16136.199999999255, 'positionName': 'RIGHT', 'positionCoords': [703.56, 175.5], 'bid': 4.9}]",135565.40000000037,1669830119128,banana,shreddedwheatwithmilk,1.54,4.9,3.3600000000000003,NaN,NaN,NaN,,False,NaN,139588.40000000037,4023.0,1669830123151,4023,HRV,HRV_0072,2022-11-30 17:47:45
58,"[{'imgObject': {}, 'id': 'lox', 'src': '/static/foodstim60/lox.jpg', 'key': 'u', 'origWidth': 410, 'origHeight': 411, 'width': 410, 'height': 411, 'widthPercent': 0.45, 'rescaleHeight': False, 'trialN': 58, 'loaded': True, 'loadedTime': 16336.900000000373, 'positionName': 'LEFT', 'positionCoords': [239.44, 175], 'bid': 4.87}, {'imgObject': {}, 'id': 'orange slices', 'src': '/static/foodstim60/orange slices.jpg', 'key': 'i', 'origWidth': 409, 'origHeight': 410, 'width': 409, 'height': 410, 'widthPercent': 0.45, 'rescaleHeight': False, 'trialN': 58, 'loaded': True, 'loadedTime': 16145.300000000745, 'positionName': 'RIGHT', 'positionCoords': [703.56, 175.5], 'bid': 4.47}]",139589.40000000037,1669830123152,lox,orange slices,4.87,4.47,-0.40000000000000036,orange slices,939.7999999988824,941,940.9000000003725,True,i,141047.0,1457.5999999996275,1669830124609,1457,HRV,HRV_0072,2022-11-30 17:47:45
59,"[{'imgObject': {}, 'id': 'orange slices', 'src': '/static/foodstim60/orange slices.jpg', 'key': 'u', 'origWidth': 409, 'origHeight': 410, 'width': 409, 'height': 410, 'widthPercent': 0.45, 'rescaleHeight': False, 'trialN': 59, 'loaded': True, 'loadedTime': 16151.300000000745, 'positionName': 'LEFT', 'positionCoords': [240.44, 175.5], 'bid': 4.47}, {'imgObject': {}, 'id': 'seaweed', 'src': '/static/foodstim60/seaweed.jpg', 'key': 'i', 'origWidth': 410, 'origHeight': 410, 'width': 410, 'height': 410, 'widthPercent': 0.45, 'rescaleHeight': False, 'trialN': 59, 'loaded': True, 'loadedTime': 15857.699999999255, 'positionName': 'RIGHT', 'positionCoords': [703.56, 175.5], 'bid': 5.12}]",141047.59999999963,1669830124610,orange slices,seaweed,4.47,5.12,0.6500000000000004,orange slices,1315,1320,1319.7000000011176,True,u,142869.69999999925,1822.0999999996275,1669830126432,1822,HRV,HRV_0072,2022-11-30 17:47:45
60,"[{'imgObject': {}, 'id': 'sushi w_condiments', 'src': '/static/foodstim60/sushi w_condiments.jpg', 'key': 'u', 'origWidth': 410, 'origHeight': 410, 'width': 410, 'height': 410, 'widthPercent': 0.45, 'rescaleHeight': False, 'trialN': 60, 'loaded': True, 'loadedTime': 16206.699999999255, 'positionName': 'LEFT', 'positionCoords': [239.44, 175.5], 'bid': 5.25}, {'imgObject': {}, 'id': 'chicken nuggets2', 'src': '/static/foodstim60/chicken nuggets2.jpg', 'key': 'i', 'origWidth': 410, 'origHeight': 409, 'width': 410, 'height': 409, 'widthPercent': 0.45, 'rescaleHeight': False, 'trialN': 60, 'loaded': True, 'loadedTime': 14461.800000000745, 'positionName': 'RIGHT', 'positionCoords': [703.56, 176], 'bid': 5.39}]",142870.19999999925,1669830126433,sushi w_condiments,chicken nuggets2,5.25,5.39,0.13999999999999968,sushi w_condiments,804.3000000007451,809,809.8000000007451,True,u,144185.90000000037,1315.7000000011176,1669830127748,1315,HRV,HRV_0072,2022-11-30 17:47:45
61,"[{'imgObject': {}, 'id': 'froot loops w milk', 'src': '/static/foodstim60/froot loops w milk.jpg', 'key': 'u', 'origWidth': 410, 'origHeight': 410, 'width': 410, 'height': 410, 'widthPercent': 0.45, 'rescaleHeight': False, 'trialN': 61, 'loaded': True, 'loadedTime': 16352.900000000373, 'positionName': 'LEFT', 'positionCoords': [239.44, 175.5], 'bid': 1.06}, {'imgObject': {}, 'id': 'seaweed', 'src': '/static/foodstim60/seaweed.jpg', 'key': 'i', 'origWidth': 410, 'origHeight': 410, 'width': 410, 'height': 410, 'widthPercent': 0.45, 'rescaleHeight': False, 'trialN': 61, 'loaded': True, 'loadedTime': 15848.199999999255, 'positionName': 'RIGHT', 'positionCoords': [703.56, 175.5], 'bid': 5.12}]",144186.80000000075,1669830127749,froot loops w milk,seaweed,1.06,5.12,4.0600000000000005,seaweed,1022.5999999996275,1024,1023.7999999988824,True,i,145726.69999999925,1539.8999999985099,1669830129289,1540,HRV,HRV_0072,2022-11-30 17:47:45
62,"[{'imgObject': {}, 'id': 'raspberries', 'src': '/static/foodstim60/raspberries.jpg', 'key': 'u', 'origWidth': 411, 'origHeight': 411, 'width': 411, 'height': 411, 'widthPercent': 0.45, 'rescaleHeight': False, 'trialN': 62, 'loaded': True, 'loadedTime': 16190, 'positionName': 'LEFT', 'positionCoords': [238.44, 175], 'bid': 6.5200000000000005}, {'imgObject': {}, 'id': 'yogurt no spoon', 'src': '/static/foodstim60/yogurt no spoon.jpg', 'key': 'i', 'origWidth': 411, 'origHeight': 410, 'width': 411, 'height': 410, 'widthPercent': 0.45, 'rescaleHeight': False, 'trialN': 62, 'loaded': True, 'loadedTime': 16394.699999999255, 'positionName': 'RIGHT', 'positionCoords': [703.56, 175.5], 'bid': 7.43}]",145727.19999999925,1669830129290,raspberries,yogurt no spoon,6.5200000000000005,7.43,0.9099999999999993,yogurt no spoon,1336.800000000745,1337,1337.7000000011176,True,i,147578.19999999925,1851.0,1669830131140,1850,HRV,HRV_0072,2022-11-30 17:47:45
63,"[{'imgObject': {}, 'id': 'olives', 'src': '/static/foodstim60/olives.jpg', 'key': 'u', 'origWidth': 410, 'origHeight': 410, 'width': 410, 'height': 410, 'widthPercent': 0.45, 'rescaleHeight': False, 'trialN': 63, 'loaded': True, 'loadedTime': 15013.5, 'positionName': 'LEFT', 'positionCoords': [239.44, 175.5], 'bid': 1.29}, {'imgObject': {}, 'id': 'raisin bran w milk', 'src': '/static/foodstim60/raisin bran w milk.jpg', 'key': 'i', 'origWidth': 411, 'origHeight': 411, 'width': 411, 'height': 411, 'widthPercent': 0.45, 'rescaleHeight': False, 'trialN': 63, 'loaded': True, 'loadedTime': 16453.199999999255, 'positionName': 'RIGHT', 'positionCoords': [703.56, 175], 'bid': 3.98}]",147579.09999999963,1669830131141,olives,raisin bran w milk,1.29,3.98,2.69,raisin bran w milk,1495.5999999996275,1499,1498.5999999996275,True,i,149580.69999999925,2001.5999999996275,1669830133143,2002,HRV,HRV_0072,2022-11-30 17:47:45
64,"[{'imgObject': {}, 'id': 'sushi w_condiments', 'src': '/static/foodstim60/sushi w_condiments.jpg', 'key': 'u', 'origWidth': 410, 'origHeight': 410, 'width': 410, 'height': 410, 'widthPercent': 0.45, 'rescaleHeight': False, 'trialN': 64, 'loaded': True, 'loadedTime': 16202.5, 'positionName': 'LEFT', 'positionCoords': [239.44, 175.5], 'bid': 5.25}, {'imgObject': {}, 'id': 'salmon', 'src': '/static/foodstim60/salmon.jpg', 'key': 'i', 'origWidth': 410, 'origHeight': 409, 'width': 410, 'height': 409, 'widthPercent': 0.45, 'rescaleHeight': False, 'trialN': 64, 'loaded': True, 'loadedTime': 16296.400000000373, 'positionName': 'RIGHT', 'positionCoords': [703.56, 176], 'bid': 7.22}]",149581.30000000075,1669830133144,sushi w_condiments,salmon,5.25,7.22,1.9699999999999998,salmon,1395.699999999255,1396,1396.5999999996275,True,i,151486.19999999925,1904.8999999985099,1669830135048,1904,HRV,HRV_0072,2022-11-30 17:47:45
65,"[{'imgObject': {}, 'id': 'Grapes', 'src': '/static/foodstim60/Grapes.jpg', 'key': 'u', 'origWidth': 411, 'origHeight': 411, 'width': 411, 'height': 411, 'widthPercent': 0.45, 'rescaleHeight': False, 'trialN': 65, 'loaded': True, 'loadedTime': 16463.900000000373, 'positionName': 'LEFT', 'positionCoords': [238.44, 175], 'bid': 1.54}, {'imgObject': {}, 'id': 'froot loops w milk', 'src': '/static/foodstim60/froot loops w milk.jpg', 'key': 'i', 'origWidth': 410, 'origHeight': 410, 'width': 410, 'height': 410, 'widthPercent': 0.45, 'rescaleHeight': False, 'trialN': 65, 'loaded': True, 'loadedTime': 16369.5, 'positionName': 'RIGHT', 'positionCoords': [703.56, 175.5], 'bid': 1.06}]",151487.80000000075,1669830135050,Grapes,froot loops w milk,1.54,1.06,-0.48,NaN,NaN,NaN,,False,NaN,155517.40000000037,4029.5999999996275,1669830139080,4030,HRV,HRV_0072,2022-11-30 17:47:45
66,"[{'imgObject': {}, 'id': 'mango', 'src': '/static/foodstim60/mango.jpg', 'key': 'u', 'origWidth': 411, 'origHeight': 411, 'width': 411, 'height': 411, 'widthPercent': 0.45, 'rescaleHeight': False, 'trialN': 66, 'loaded': True, 'loadedTime': 15253.099999999627, 'positionName': 'LEFT', 'positionCoords': [238.44, 175], 'bid': 6.04}, {'imgObject': {}, 'id': 'salmon', 'src': '/static/foodstim60/salmon.jpg', 'key': 'i', 'origWidth': 410, 'origHeight': 409, 'width': 410, 'height': 409, 'widthPercent': 0.45, 'rescaleHeight': False, 'trialN': 66, 'loaded': True, 'loadedTime': 16298, 'positionName': 'RIGHT', 'positionCoords': [703.56, 176], 'bid': 7.22}]",155518.69999999925,1669830139081,mango,salmon,6.04,7.22,1.1799999999999997,salmon,921.4000000003725,922,922.2000000011176,True,i,156951.5,1432.800000000745,1669830140514,1433,HRV,HRV_0072,2022-11-30 17:47:45
67,"[{'imgObject': {}, 'id': 'corn cob', 'src': '/static/foodstim60/corn cob.jpg', 'key': 'u', 'origWidth': 411, 'origHeight': 411, 'width': 411, 'height': 411, 'widthPercent': 0.45, 'rescaleHeight': False, 'trialN': 67, 'loaded': True, 'loadedTime': 14951.099999999627, 'positionName': 'LEFT', 'positionCoords': [238.44, 175], 'bid': 0.07}, {'imgObject': {}, 'id': 'edamame', 'src': '/static/foodstim60/edamame.jpg', 'key': 'i', 'origWidth': 409, 'origHeight': 410, 'width': 409, 'height': 410, 'widthPercent': 0.45, 'rescaleHeight': False, 'trialN': 67, 'loaded': True, 'loadedTime': 15493.199999999255, 'positionName': 'RIGHT', 'positionCoords': [703.56, 175.5], 'bid': 2.27}]",156952.0,1669830140514,corn cob,edamame,0.07,2.27,2.2,edamame,1936.0999999996275,1937,1937.0,True,i,159404.90000000037,2452.9000000003725,1669830142967,2453,HRV,HRV_0072,2022-11-30 17:47:45
68,"[{'imgObject': {}, 'id': 'chickenfingers', 'src': '/static/foodstim60/chickenfingers.jpg', 'key': 'u', 'origWidth': 410, 'origHeight': 410, 'width': 410, 'height': 410, 'widthPercent': 0.45, 'rescaleHeight': False, 'trialN': 68, 'loaded': True, 'loadedTime': 13983.099999999627, 'positionName': 'LEFT', 'positionCoords': [239.44, 175.5], 'bid': 7.9}, {'imgObject': {}, 'id': 'shreddedwheatwithmilk', 'src': '/static/foodstim60/shreddedwheatwithmilk.jpg', 'key': 'i', 'origWidth': 410, 'origHeight': 410, 'width': 410, 'height': 410, 'widthPercent': 0.45, 'rescaleHeight': False, 'trialN': 68, 'loaded': True, 'loadedTime': 16141.199999999255, 'positionName': 'RIGHT', 'positionCoords': [703.56, 175.5], 'bid': 4.9}]",159405.5,1669830142968,chickenfingers,shreddedwheatwithmilk,7.9,4.9,-3.0,chickenfingers,1055.300000000745,1059,1059.199999999255,True,u,160973.59999999963,1568.0999999996275,1669830144536,1568,HRV,HRV_0072,2022-11-30 17:47:45
69,"[{'imgObject': {}, 'id': 'olives', 'src': '/static/foodstim60/olives.jpg', 'key': 'u', 'origWidth': 410, 'origHeight': 410, 'width': 410, 'height': 410, 'widthPercent': 0.45, 'rescaleHeight': False, 'trialN': 69, 'loaded': True, 'loadedTime': 15012.5, 'positionName': 'LEFT', 'positionCoords': [239.44, 175.5], 'bid': 1.29}, {'imgObject': {}, 'id': 'granola w milk', 'src': '/static/foodstim60/granola w milk.jpg', 'key': 'i', 'origWidth': 410, 'origHeight': 410, 'width': 410, 'height': 410, 'widthPercent': 0.45, 'rescaleHeight': False, 'trialN': 69, 'loaded': True, 'loadedTime': 14449.800000000745, 'positionName': 'RIGHT', 'positionCoords': [703.56, 175.5], 'bid': 1.34}]",160973.90000000037,1669830144536,olives,granola w milk,1.29,1.34,0.050000000000000044,granola w milk,1066.4000000003725,1067,1067.199999999255,True,i,162552.40000000037,1578.5,1669830146115,1579,HRV,HRV_0072,2022-11-30 17:47:45
70,"[{'imgObject': {}, 'id': 'blueberries', 'src': '/static/foodstim60/blueberries.jpg', 'key': 'u', 'origWidth': 411, 'origHeight': 411, 'width': 411, 'height': 411, 'widthPercent': 0.45, 'rescaleHeight': False, 'trialN': 70, 'loaded': True, 'loadedTime': 15141.900000000373, 'positionName': 'LEFT', 'positionCoords': [238.44, 175], 'bid': 1.66}, {'imgObject': {}, 'id': 'apple slices', 'src': '/static/foodstim60/apple slices.jpg', 'key': 'i', 'origWidth': 409, 'origHeight': 410, 'width': 409, 'height': 410, 'widthPercent': 0.45, 'rescaleHeight': False, 'trialN': 70, 'loaded': True, 'loadedTime': 15716.5, 'positionName': 'RIGHT', 'positionCoords': [703.56, 175.5], 'bid': 4.97}]",162553.09999999963,1669830146115,blueberries,apple slices,1.66,4.97,3.3099999999999996,apple slices,910.8000000007451,912,911.5999999996275,True,i,163972.59999999963,1419.5,1669830147535,1420,HRV,HRV_0072,2022-11-30 17:47:45
71,"[{'imgObject': {}, 'id': 'edamame', 'src': '/static/foodstim60/edamame.jpg', 'key': 'u', 'origWidth': 409, 'origHeight': 410, 'width': 409, 'height': 410, 'widthPercent': 0.45, 'rescaleHeight': False, 'trialN': 71, 'loaded': True, 'loadedTime': 15488.300000000745, 'positionName': 'LEFT', 'positionCoords': [240.44, 175.5], 'bid': 2.27}, {'imgObject': {}, 'id': 'eggs', 'src': '/static/foodstim60/eggs.jpg', 'key': 'i', 'origWidth': 409, 'origHeight': 409, 'width': 409, 'height': 409, 'widthPercent': 0.45, 'rescaleHeight': False, 'trialN': 71, 'loaded': True, 'loadedTime': 16197.199999999255, 'positionName': 'RIGHT', 'positionCoords': [703.56, 176], 'bid': 1.14}]",163973.09999999963,1669830147535,edamame,eggs,2.27,1.14,-1.1300000000000001,eggs,971.5,973,972.4000000003725,True,i,165467.19999999925,1494.0999999996275,1669830149030,1495,HRV,HRV_0072,2022-11-30 17:47:45
72,"[{'imgObject': {}, 'id': 'tacos', 'src': '/static/foodstim60/tacos.jpg', 'key': 'u', 'origWidth': 411, 'origHeight': 411, 'width': 411, 'height': 411, 'widthPercent': 0.45, 'rescaleHeight': False, 'trialN': 72, 'loaded': True, 'loadedTime': 14189.599999999627, 'positionName': 'LEFT', 'positionCoords': [238.44, 175], 'bid': 5}, {'imgObject': {}, 'id': 'cocktailshrimp', 'src': '/static/foodstim60/cocktailshrimp.jpg', 'key': 'i', 'origWidth': 410, 'origHeight': 410, 'width': 410, 'height': 410, 'widthPercent': 0.45, 'rescaleHeight': False, 'trialN': 72, 'loaded': True, 'loadedTime': 16020.300000000745, 'positionName': 'RIGHT', 'positionCoords': [703.56, 175.5], 'bid': 5.46}]",165468.0,1669830149030,tacos,cocktailshrimp,5.0,5.46,0.45999999999999996,cocktailshrimp,1382.699999999255,1386,1385.699999999255,True,i,167361.19999999925,1893.199999999255,1669830150923,1893,HRV,HRV_0072,2022-11-30 17:47:45
73,"[{'imgObject': {}, 'id': 'raspberries', 'src': '/static/foodstim60/raspberries.jpg', 'key': 'u', 'origWidth': 411, 'origHeight': 411, 'width': 411, 'height': 411, 'widthPercent': 0.45, 'rescaleHeight': False, 'trialN': 73, 'loaded': True, 'loadedTime': 16193.099999999627, 'positionName': 'LEFT', 'positionCoords': [238.44, 175], 'bid': 6.5200000000000005}, {'imgObject': {}, 'id': 'turkey sandwich', 'src': '/static/foodstim60/turkey sandwich.jpg', 'key': 'i', 'origWidth': 409, 'origHeight': 409, 'width': 409, 'height': 409, 'widthPercent': 0.45, 'rescaleHeight': False, 'trialN': 73, 'loaded': True, 'loadedTime': 16041, 'positionName': 'RIGHT', 'positionCoords': [703.56, 176], 'bid': 8.59}]",167361.80000000075,1669830150924,raspberries,turkey sandwich,6.5200000000000005,8.59,2.0699999999999994,turkey sandwich,1361.0999999996275,1364,1364.0999999996275,True,i,169236.0,1874.199999999255,1669830152798,1874,HRV,HRV_0072,2022-11-30 17:47:45
74,"[{'imgObject': {}, 'id': 'cherries', 'src': '/static/foodstim60/cherries.jpg', 'key': 'u', 'origWidth': 410, 'origHeight': 411, 'width': 410, 'height': 411, 'widthPercent': 0.45, 'rescaleHeight': False, 'trialN': 74, 'loaded': True, 'loadedTime': 14275.300000000745, 'positionName': 'LEFT', 'positionCoords': [239.44, 175], 'bid': 7.1000000000000005}, {'imgObject': {}, 'id': 'steak', 'src': '/static/foodstim60/steak.jpg', 'key': 'i', 'origWidth': 410, 'origHeight': 410, 'width': 410, 'height': 410, 'widthPercent': 0.45, 'rescaleHeight': False, 'trialN': 74, 'loaded': True, 'loadedTime': 15963.599999999627, 'positionName': 'RIGHT', 'positionCoords': [703.56, 175.5], 'bid': 6.98}]",169237.59999999963,1669830152800,cherries,steak,7.1000000000000005,6.98,-0.1200000000000001,steak,947.4000000003725,948,948.3000000007451,True,i,170704.90000000037,1467.300000000745,1669830154267,1467,HRV,HRV_0072,2022-11-30 17:47:45
75,"[{'imgObject': {}, 'id': 'orange slices', 'src': '/static/foodstim60/orange slices.jpg', 'key': 'u', 'origWidth': 409, 'origHeight': 410, 'width': 409, 'height': 410, 'widthPercent': 0.45, 'rescaleHeight': False, 'trialN': 75, 'loaded': True, 'loadedTime': 16150.099999999627, 'positionName': 'LEFT', 'positionCoords': [240.44, 175.5], 'bid': 4.47}, {'imgObject': {}, 'id': 'cheerios', 'src': '/static/foodstim60/cheerios.jpg', 'key': 'i', 'origWidth': 409, 'origHeight': 410, 'width': 409, 'height': 410, 'widthPercent': 0.45, 'rescaleHeight': False, 'trialN': 75, 'loaded': True, 'loadedTime': 15499, 'positionName': 'RIGHT', 'positionCoords': [703.56, 175.5], 'bid': 1.41}]",170706.09999999963,1669830154268,orange slices,cheerios,4.47,1.41,-3.0599999999999996,orange slices,968.8000000007451,974,973.5999999996275,True,u,172185.30000000075,1479.2000000011176,1669830155748,1480,HRV,HRV_0072,2022-11-30 17:47:45
76,"[{'imgObject': {}, 'id': 'Tribe humus pita', 'src': '/static/foodstim60/Tribe humus pita.jpg', 'key': 'u', 'origWidth': 411, 'origHeight': 411, 'width': 411, 'height': 411, 'widthPercent': 0.45, 'rescaleHeight': False, 'trialN': 76, 'loaded': True, 'loadedTime': 14683.300000000745, 'positionName': 'LEFT', 'positionCoords': [238.44, 175], 'bid': 5.48}, {'imgObject': {}, 'id': 'bagel plain', 'src': '/static/foodstim60/bagel plain.jpg', 'key': 'i', 'origWidth': 410, 'origHeight': 410, 'width': 410, 'height': 410, 'widthPercent': 0.45, 'rescaleHeight': False, 'trialN': 76, 'loaded': True, 'loadedTime': 16468.300000000745, 'positionName': 'RIGHT', 'positionCoords': [703.56, 175.5], 'bid': 5.03}]",172186.0,1669830155748,Tribe humus pita,bagel plain,5.48,5.03,-0.4500000000000002,Tribe humus pita,2054.300000000745,2055,2055.0999999996275,True,u,174752.59999999963,2566.5999999996275,1669830158315,2567,HRV,HRV_0072,2022-11-30 17:47:45
77,"[{'imgObject': {}, 'id': 'burrito', 'src': '/static/foodstim60/burrito.jpg', 'key': 'u', 'origWidth': 410, 'origHeight': 410, 'width': 410, 'height': 410, 'widthPercent': 0.45, 'rescaleHeight': False, 'trialN': 77, 'loaded': True, 'loadedTime': 16337.599999999627, 'positionName': 'LEFT', 'positionCoords': [239.44, 175.5], 'bid': 6.79}, {'imgObject': {}, 'id': 'grilled chicken strips', 'src': '/static/foodstim60/grilled chicken strips.jpg', 'key': 'i', 'origWidth': 410, 'origHeight': 411, 'width': 410, 'height': 411, 'widthPercent': 0.45, 'rescaleHeight': False, 'trialN': 77, 'loaded': True, 'loadedTime': 14739.5, 'positionName': 'RIGHT', 'positionCoords': [703.56, 175], 'bid': 6.69}]",174754.09999999963,1669830158316,burrito,grilled chicken strips,6.79,6.69,-0.09999999999999964,grilled chicken strips,1173.800000000745,1176,1175.4000000003725,True,i,176445.69999999925,1691.5999999996275,1669830160008,1692,HRV,HRV_0072,2022-11-30 17:47:45
78,"[{'imgObject': {}, 'id': 'Grapes', 'src': '/static/foodstim60/Grapes.jpg', 'key': 'u', 'origWidth': 411, 'origHeight': 411, 'width': 411, 'height': 411, 'widthPercent': 0.45, 'rescaleHeight': False, 'trialN': 78, 'loaded': True, 'loadedTime': 16463.400000000373, 'positionName': 'LEFT', 'positionCoords': [238.44, 175], 'bid': 1.54}, {'imgObject': {}, 'id': 'rigatoni', 'src': '/static/foodstim60/rigatoni.jpg', 'key': 'i', 'origWidth': 411, 'origHeight': 411, 'width': 411, 'height': 411, 'widthPercent': 0.45, 'rescaleHeight': False, 'trialN': 78, 'loaded': True, 'loadedTime': 15624.5, 'positionName': 'RIGHT', 'positionCoords': [703.56, 175], 'bid': 1.4}]",176446.59999999963,1669830160009,Grapes,rigatoni,1.54,1.4,-0.14000000000000012,rigatoni,1017.4000000003725,1018,1018.0999999996275,True,i,177973.19999999925,1526.5999999996275,1669830161536,1527,HRV,HRV_0072,2022-11-30 17:47:45
79,"[{'imgObject': {}, 'id': 'sushi w_condiments', 'src': '/static/foodstim60/sushi w_condiments.jpg', 'key': 'u', 'origWidth': 410, 'origHeight': 410, 'width': 410, 'height': 410, 'widthPercent': 0.45, 'rescaleHeight': False, 'trialN': 79, 'loaded': True, 'loadedTime': 16208, 'positionName': 'LEFT', 'positionCoords': [239.44, 175.5], 'bid': 5.25}, {'imgObject': {}, 'id': 'avocado', 'src': '/static/foodstim60/avocado.jpg', 'key': 'i', 'origWidth': 409, 'origHeight': 409, 'width': 409, 'height': 409, 'widthPercent': 0.45, 'rescaleHeight': False, 'trialN': 79, 'loaded': True, 'loadedTime': 16472.800000000745, 'positionName': 'RIGHT', 'positionCoords': [703.56, 176], 'bid': 6.24}]",177973.59999999963,1669830161536,sushi w_condiments,avocado,5.25,6.24,0.9900000000000002,sushi w_condiments,740.5,746,745.8000000007451,True,u,179227.69999999925,1254.0999999996275,1669830162790,1254,HRV,HRV_0072,2022-11-30 17:47:45
80,"[{'imgObject': {}, 'id': 'rigatoni', 'src': '/static/foodstim60/rigatoni.jpg', 'key': 'u', 'origWidth': 411, 'origHeight': 411, 'width': 411, 'height': 411, 'widthPercent': 0.45, 'rescaleHeight': False, 'trialN': 80, 'loaded': True, 'loadedTime': 15618.699999999255, 'positionName': 'LEFT', 'positionCoords': [238.44, 175], 'bid': 1.4}, {'imgObject': {}, 'id': 'roastedpotatoes', 'src': '/static/foodstim60/roastedpotatoes.jpg', 'key': 'i', 'origWidth': 409, 'origHeight': 410, 'width': 409, 'height': 410, 'widthPercent': 0.45, 'rescaleHeight': False, 'trialN': 80, 'loaded': True, 'loadedTime': 15104.900000000373, 'positionName': 'RIGHT', 'positionCoords': [703.56, 175.5], 'bid': 4.12}]",179229.19999999925,1669830162791,rigatoni,roastedpotatoes,1.4,4.12,2.72,roastedpotatoes,1426.7000000011176,1428,1427.7000000011176,True,i,181174.5,1945.300000000745,1669830164737,1946,HRV,HRV_0072,2022-11-30 17:47:45
81,"[{'imgObject': {}, 'id': 'hotdog w must', 'src': '/static/foodstim60/hotdog w must.jpg', 'key': 'u', 'origWidth': 409, 'origHeight': 409, 'width': 409, 'height': 409, 'widthPercent': 0.45, 'rescaleHeight': False, 'trialN': 81, 'loaded': True, 'loadedTime': 15805.400000000373, 'positionName': 'LEFT', 'positionCoords': [240.44, 176], 'bid': 6.79}, {'imgObject': {}, 'id': 'burrito', 'src': '/static/foodstim60/burrito.jpg', 'key': 'i', 'origWidth': 410, 'origHeight': 410, 'width': 410, 'height': 410, 'widthPercent': 0.45, 'rescaleHeight': False, 'trialN': 81, 'loaded': True, 'loadedTime': 16352, 'positionName': 'RIGHT', 'positionCoords': [703.56, 175.5], 'bid': 6.79}]",181174.69999999925,1669830164737,hotdog w must,burrito,6.79,6.79,0.0,burrito,1347.300000000745,1351,1350.7000000011176,True,i,183041.80000000075,1867.1000000014901,1669830166604,1867,HRV,HRV_0072,2022-11-30 17:47:45
82,"[{'imgObject': {}, 'id': 'bagel plain', 'src': '/static/foodstim60/bagel plain.jpg', 'key': 'u', 'origWidth': 410, 'origHeight': 410, 'width': 410, 'height': 410, 'widthPercent': 0.45, 'rescaleHeight': False, 'trialN': 82, 'loaded': True, 'loadedTime': 16469.900000000373, 'positionName': 'LEFT', 'positionCoords': [239.44, 175.5], 'bid': 5.03}, {'imgObject': {}, 'id': 'rigatoni and sauce', 'src': '/static/foodstim60/rigatoni and sauce.jpg', 'key': 'i', 'origWidth': 410, 'origHeight': 411, 'width': 410, 'height': 411, 'widthPercent': 0.45, 'rescaleHeight': False, 'trialN': 82, 'loaded': True, 'loadedTime': 15950.599999999627, 'positionName': 'RIGHT', 'positionCoords': [703.56, 175], 'bid': 5.12}]",183042.69999999925,1669830166605,bagel plain,rigatoni and sauce,5.03,5.12,0.08999999999999986,bagel plain,1088,1091,1091.5,True,u,184642.59999999963,1599.9000000003725,1669830168205,1600,HRV,HRV_0072,2022-11-30 17:47:45
83,"[{'imgObject': {}, 'id': 'roastedpotatoes', 'src': '/static/foodstim60/roastedpotatoes.jpg', 'key': 'u', 'origWidth': 409, 'origHeight': 410, 'width': 409, 'height': 410, 'widthPercent': 0.45, 'rescaleHeight': False, 'trialN': 83, 'loaded': True, 'loadedTime': 15132.300000000745, 'positionName': 'LEFT', 'positionCoords': [240.44, 175.5], 'bid': 4.12}, {'imgObject': {}, 'id': 'raisin bran w milk', 'src': '/static/foodstim60/raisin bran w milk.jpg', 'key': 'i', 'origWidth': 411, 'origHeight': 411, 'width': 411, 'height': 411, 'widthPercent': 0.45, 'rescaleHeight': False, 'trialN': 83, 'loaded': True, 'loadedTime': 16453.599999999627, 'positionName': 'RIGHT', 'positionCoords': [703.56, 175], 'bid': 3.98}]",184644.30000000075,1669830168206,roastedpotatoes,raisin bran w milk,4.12,3.98,-0.14000000000000012,roastedpotatoes,1085.7999999988824,1087,1086.8999999985099,True,u,186248.80000000075,1604.5,1669830169811,1605,HRV,HRV_0072,2022-11-30 17:47:45
84,"[{'imgObject': {}, 'id': 'yogurt no spoon', 'src': '/static/foodstim60/yogurt no spoon.jpg', 'key': 'u', 'origWidth': 411, 'origHeight': 410, 'width': 411, 'height': 410, 'widthPercent': 0.45, 'rescaleHeight': False, 'trialN': 84, 'loaded': True, 'loadedTime': 16395.800000000745, 'positionName': 'LEFT', 'positionCoords': [238.44, 175.5], 'bid': 7.43}, {'imgObject': {}, 'id': 'strawberries', 'src': '/static/foodstim60/strawberries.jpg', 'key': 'i', 'origWidth': 410, 'origHeight': 410, 'width': 410, 'height': 410, 'widthPercent': 0.45, 'rescaleHeight': False, 'trialN': 84, 'loaded': True, 'loadedTime': 14525, 'positionName': 'RIGHT', 'positionCoords': [703.56, 175.5], 'bid': 7.69}]",186249.5,1669830169812,yogurt no spoon,strawberries,7.43,7.69,0.2600000000000007,yogurt no spoon,1440.800000000745,1443,1443.800000000745,True,u,188197.5,1948.0,1669830171759,1947,HRV,HRV_0072,2022-11-30 17:47:45
85,"[{'imgObject': {}, 'id': 'fried eggs', 'src': '/static/foodstim60/fried eggs.jpg', 'key': 'u', 'origWidth': 410, 'origHeight': 410, 'width': 410, 'height': 410, 'widthPercent': 0.45, 'rescaleHeight': False, 'trialN': 85, 'loaded': True, 'loadedTime': 14831.599999999627, 'positionName': 'LEFT', 'positionCoords': [239.44, 175.5], 'bid': 5.09}, {'imgObject': {}, 'id': 'luckycharms', 'src': '/static/foodstim60/luckycharms.jpg', 'key': 'i', 'origWidth': 410, 'origHeight': 409, 'width': 410, 'height': 409, 'widthPercent': 0.45, 'rescaleHeight': False, 'trialN': 85, 'loaded': True, 'loadedTime': 15382.300000000745, 'positionName': 'RIGHT', 'positionCoords': [703.56, 176], 'bid': 0.91}]",188198.0,1669830171760,fried eggs,luckycharms,5.09,0.91,-4.18,fried eggs,971.9000000003725,975,974.9000000003725,True,u,189688.30000000075,1490.300000000745,1669830173250,1490,HRV,HRV_0072,2022-11-30 17:47:45
86,"[{'imgObject': {}, 'id': 'salmon', 'src': '/static/foodstim60/salmon.jpg', 'key': 'u', 'origWidth': 410, 'origHeight': 409, 'width': 410, 'height': 409, 'widthPercent': 0.45, 'rescaleHeight': False, 'trialN': 86, 'loaded': True, 'loadedTime': 16297, 'positionName': 'LEFT', 'positionCoords': [239.44, 176], 'bid': 7.22}, {'imgObject': {}, 'id': 'ice cream sundae 002', 'src': '/static/foodstim60/ice cream sundae 002.jpg', 'key': 'i', 'origWidth': 409, 'origHeight': 409, 'width': 409, 'height': 409, 'widthPercent': 0.45, 'rescaleHeight': False, 'trialN': 86, 'loaded': True, 'loadedTime': 16028, 'positionName': 'RIGHT', 'positionCoords': [703.56, 176], 'bid': 7.07}]",189689.0,1669830173251,salmon,ice cream sundae 002,7.22,7.07,-0.14999999999999947,salmon,1017.5,1020,1020.5,True,u,191220.0,1531.0,1669830174782,1531,HRV,HRV_0072,2022-11-30 17:47:45
87,"[{'imgObject': {}, 'id': 'blueberries', 'src': '/static/foodstim60/blueberries.jpg', 'key': 'u', 'origWidth': 411, 'origHeight': 411, 'width': 411, 'height': 411, 'widthPercent': 0.45, 'rescaleHeight': False, 'trialN': 87, 'loaded': True, 'loadedTime': 15145.800000000745, 'positionName': 'LEFT', 'positionCoords': [238.44, 175], 'bid': 1.66}, {'imgObject': {}, 'id': 'mac & cheese', 'src': '/static/foodstim60/mac & cheese.jpg', 'key': 'i', 'origWidth': 410, 'origHeight': 410, 'width': 410, 'height': 410, 'widthPercent': 0.45, 'rescaleHeight': False, 'trialN': 87, 'loaded': True, 'loadedTime': 15807.800000000745, 'positionName': 'RIGHT', 'positionCoords': [703.56, 175.5], 'bid': 1.93}]",191220.80000000075,1669830174783,blueberries,mac & cheese,1.66,1.93,0.27,NaN,NaN,NaN,,False,NaN,195242.59999999963,4021.7999999988824,1669830178805,4022,HRV,HRV_0072,2022-11-30 17:47:45
88,"[{'imgObject': {}, 'id': 'bagel plain', 'src': '/static/foodstim60/bagel plain.jpg', 'key': 'u', 'origWidth': 410, 'origHeight': 410, 'width': 410, 'height': 410, 'widthPercent': 0.45, 'rescaleHeight': False, 'trialN': 88, 'loaded': True, 'loadedTime': 16469.199999999255, 'positionName': 'LEFT', 'positionCoords': [239.44, 175.5], 'bid': 5.03}, {'imgObject': {}, 'id': 'tacos', 'src': '/static/foodstim60/tacos.jpg', 'key': 'i', 'origWidth': 411, 'origHeight': 411, 'width': 411, 'height': 411, 'widthPercent': 0.45, 'rescaleHeight': False, 'trialN': 88, 'loaded': True, 'loadedTime': 14182.800000000745, 'positionName': 'RIGHT', 'positionCoords': [703.56, 175], 'bid': 5}]",195243.19999999925,1669830178805,bagel plain,tacos,5.03,5.0,-0.03000000000000025,tacos,1622.5,1625,1624.4000000003725,True,i,197386.80000000075,2143.60000000149,1669830180949,2144,HRV,HRV_0072,2022-11-30 17:47:45
89,"[{'imgObject': {}, 'id': 'Grapes', 'src': '/static/foodstim60/Grapes.jpg', 'key': 'u', 'origWidth': 411, 'origHeight': 411, 'width': 411, 'height': 411, 'widthPercent': 0.45, 'rescaleHeight': False, 'trialN': 89, 'loaded': True, 'loadedTime': 16461.900000000373, 'positionName': 'LEFT', 'positionCoords': [238.44, 175], 'bid': 1.54}, {'imgObject': {}, 'id': 'fruitsalad', 'src': '/static/foodstim60/fruitsalad.jpg', 'key': 'i', 'origWidth': 410, 'origHeight': 410, 'width': 410, 'height': 410, 'widthPercent': 0.45, 'rescaleHeight': False, 'trialN': 89, 'loaded': True, 'loadedTime': 15750.699999999255, 'positionName': 'RIGHT', 'positionCoords': [703.56, 175.5], 'bid': 6.01}]",197387.5,1669830180950,Grapes,fruitsalad,1.54,6.01,4.47,fruitsalad,948.6999999992549,949,949.8000000007451,True,i,198849.30000000075,1461.800000000745,1669830182411,1461,HRV,HRV_0072,2022-11-30 17:47:45
90,"[{'imgObject': {}, 'id': 'cherries', 'src': '/static/foodstim60/cherries.jpg', 'key': 'u', 'origWidth': 410, 'origHeight': 411, 'width': 410, 'height': 411, 'widthPercent': 0.45, 'rescaleHeight': False, 'trialN': 90, 'loaded': True, 'loadedTime': 14276.300000000745, 'positionName': 'LEFT', 'positionCoords': [239.44, 175], 'bid': 7.1000000000000005}, {'imgObject': {}, 'id': 'rigatoni and sauce', 'src': '/static/foodstim60/rigatoni and sauce.jpg', 'key': 'i', 'origWidth': 410, 'origHeight': 411, 'width': 410, 'height': 411, 'widthPercent': 0.45, 'rescaleHeight': False, 'trialN': 90, 'loaded': True, 'loadedTime': 15866.800000000745, 'positionName': 'RIGHT', 'positionCoords': [703.56, 175], 'bid': 5.12}]",203400.5,1669830186963,cherries,rigatoni and sauce,7.1000000000000005,5.12,-1.9800000000000004,cherries,1959.4000000003725,1960,1960.5999999996275,True,u,205875.09999999963,2474.5999999996275,1669830189437,2474,HRV,HRV_0072,2022-11-30 17:47:45
91,"[{'imgObject': {}, 'id': 'hotdog w must', 'src': '/static/foodstim60/hotdog w must.jpg', 'key': 'u', 'origWidth': 409, 'origHeight': 409, 'width': 409, 'height': 409, 'widthPercent': 0.45, 'rescaleHeight': False, 'trialN': 91, 'loaded': True, 'loadedTime': 15802.5, 'positionName': 'LEFT', 'positionCoords': [240.44, 176], 'bid': 6.79}, {'imgObject': {}, 'id': 'chickenfingers', 'src': '/static/foodstim60/chickenfingers.jpg', 'key': 'i', 'origWidth': 410, 'origHeight': 410, 'width': 410, 'height': 410, 'widthPercent': 0.45, 'rescaleHeight': False, 'trialN': 91, 'loaded': True, 'loadedTime': 13982, 'positionName': 'RIGHT', 'positionCoords': [703.56, 175.5], 'bid': 7.9}]",205875.90000000037,1669830189438,hotdog w must,chickenfingers,6.79,7.9,1.1100000000000003,chickenfingers,1039.699999999255,1042,1042.5999999996275,True,i,207428.80000000075,1552.9000000003725,1669830190991,1553,HRV,HRV_0072,2022-11-30 17:47:45
92,"[{'imgObject': {}, 'id': 'baked potato', 'src': '/static/foodstim60/baked potato.jpg', 'key': 'u', 'origWidth': 409, 'origHeight': 410, 'width': 409, 'height': 410, 'widthPercent': 0.45, 'rescaleHeight': False, 'trialN': 92, 'loaded': True, 'loadedTime': 14589.300000000745, 'positionName': 'LEFT', 'positionCoords': [240.44, 175.5], 'bid': 7.28}, {'imgObject': {}, 'id': 'eggsalad', 'src': '/static/foodstim60/eggsalad.jpg', 'key': 'i', 'origWidth': 410, 'origHeight': 409, 'width': 410, 'height': 409, 'widthPercent': 0.45, 'rescaleHeight': False, 'trialN': 92, 'loaded': True, 'loadedTime': 14905.099999999627, 'positionName': 'RIGHT', 'positionCoords': [703.56, 176], 'bid': 4.3500000000000005}]",207429.40000000037,1669830190991,baked potato,eggsalad,7.28,4.3500000000000005,-2.9299999999999997,baked potato,1170.4000000003725,1172,1171.2999999988824,True,u,209107.90000000037,1678.5,1669830192670,1679,HRV,HRV_0072,2022-11-30 17:47:45
93,"[{'imgObject': {}, 'id': 'veggieswithdip', 'src': '/static/foodstim60/veggieswithdip.jpg', 'key': 'u', 'origWidth': 409, 'origHeight': 409, 'width': 409, 'height': 409, 'widthPercent': 0.45, 'rescaleHeight': False, 'trialN': 93, 'loaded': True, 'loadedTime': 16216.599999999627, 'positionName': 'LEFT', 'positionCoords': [240.44, 176], 'bid': 3.98}, {'imgObject': {}, 'id': 'raisin bran w milk', 'src': '/static/foodstim60/raisin bran w milk.jpg', 'key': 'i', 'origWidth': 411, 'origHeight': 411, 'width': 411, 'height': 411, 'widthPercent': 0.45, 'rescaleHeight': False, 'trialN': 93, 'loaded': True, 'loadedTime': 16405.599999999627, 'positionName': 'RIGHT', 'positionCoords': [703.56, 175], 'bid': 3.98}]",209109.5,1669830192671,veggieswithdip,raisin bran w milk,3.98,3.98,0.0,raisin bran w milk,2451.199999999255,2453,2452.5,True,i,212082.30000000075,2972.800000000745,1669830195644,2973,HRV,HRV_0072,2022-11-30 17:47:45
94,"[{'imgObject': {}, 'id': 'turkeysandwich', 'src': '/static/foodstim60/turkeysandwich.jpg', 'key': 'u', 'origWidth': 409, 'origHeight': 409, 'width': 409, 'height': 409, 'widthPercent': 0.45, 'rescaleHeight': False, 'trialN': 94, 'loaded': True, 'loadedTime': 15420.400000000373, 'positionName': 'LEFT', 'positionCoords': [240.44, 176], 'bid': 7.26}, {'imgObject': {}, 'id': 'chicken nuggets2', 'src': '/static/foodstim60/chicken nuggets2.jpg', 'key': 'i', 'origWidth': 410, 'origHeight': 409, 'width': 410, 'height': 409, 'widthPercent': 0.45, 'rescaleHeight': False, 'trialN': 94, 'loaded': True, 'loadedTime': 14460.900000000373, 'positionName': 'RIGHT', 'positionCoords': [703.56, 176], 'bid': 5.39}]",212082.80000000075,1669830195645,turkeysandwich,chicken nuggets2,7.26,5.39,-1.87,turkeysandwich,981.8999999985099,982,982.6999999992549,True,u,213574.09999999963,1491.2999999988824,1669830197136,1491,HRV,HRV_0072,2022-11-30 17:47:45
95,"[{'imgObject': {}, 'id': 'bagel and cc', 'src': '/static/foodstim60/bagel and cc.jpg', 'key': 'u', 'origWidth': 410, 'origHeight': 410, 'width': 410, 'height': 410, 'widthPercent': 0.45, 'rescaleHeight': False, 'trialN': 95, 'loaded': True, 'loadedTime': 15642, 'positionName': 'LEFT', 'positionCoords': [239.44, 175.5], 'bid': 5.05}, {'imgObject': {}, 'id': 'bagel plain', 'src': '/static/foodstim60/bagel plain.jpg', 'key': 'i', 'origWidth': 410, 'origHeight': 410, 'width': 410, 'height': 410, 'widthPercent': 0.45, 'rescaleHeight': False, 'trialN': 95, 'loaded': True, 'loadedTime': 16464.5, 'positionName': 'RIGHT', 'positionCoords': [703.56, 175.5], 'bid': 5.03}]",213575.30000000075,1669830197137,bagel and cc,bagel plain,5.05,5.03,-0.019999999999999574,bagel and cc,2147.5,2151,2150.699999999255,True,u,216240.59999999963,2665.2999999988824,1669830199802,2665,HRV,HRV_0072,2022-11-30 17:47:45
96,"[{'imgObject': {}, 'id': 'omelette', 'src': '/static/foodstim60/omelette.jpg', 'key': 'u', 'origWidth': 410, 'origHeight': 409, 'width': 410, 'height': 409, 'widthPercent': 0.45, 'rescaleHeight': False, 'trialN': 96, 'loaded': True, 'loadedTime': 15198.900000000373, 'positionName': 'LEFT', 'positionCoords': [239.44, 176], 'bid': 5.09}, {'imgObject': {}, 'id': 'seaweed', 'src': '/static/foodstim60/seaweed.jpg', 'key': 'i', 'origWidth': 410, 'origHeight': 410, 'width': 410, 'height': 410, 'widthPercent': 0.45, 'rescaleHeight': False, 'trialN': 96, 'loaded': True, 'loadedTime': 15857.099999999627, 'positionName': 'RIGHT', 'positionCoords': [703.56, 175.5], 'bid': 5.12}]",216241.5,1669830199803,omelette,seaweed,5.09,5.12,0.03000000000000025,omelette,1791.699999999255,1793,1792.9000000003725,True,u,218540.09999999963,2298.5999999996275,1669830202102,2299,HRV,HRV_0072,2022-11-30 17:47:45
97,"[{'imgObject': {}, 'id': 'raspberries', 'src': '/static/foodstim60/raspberries.jpg', 'key': 'u', 'origWidth': 411, 'origHeight': 411, 'width': 411, 'height': 411, 'widthPercent': 0.45, 'rescaleHeight': False, 'trialN': 97, 'loaded': True, 'loadedTime': 16191, 'positionName': 'LEFT', 'positionCoords': [238.44, 175], 'bid': 6.5200000000000005}, {'imgObject': {}, 'id': 'grilled chicken strips', 'src': '/static/foodstim60/grilled chicken strips.jpg', 'key': 'i', 'origWidth': 410, 'origHeight': 411, 'width': 410, 'height': 411, 'widthPercent': 0.45, 'rescaleHeight': False, 'trialN': 97, 'loaded': True, 'loadedTime': 14691.699999999255, 'positionName': 'RIGHT', 'positionCoords': [703.56, 175], 'bid': 6.69}]",218542.0,1669830202104,raspberries,grilled chicken strips,6.5200000000000005,6.69,0.16999999999999993,raspberries,801.8000000007451,803,802.6999999992549,True,u,219866.5,1324.5,1669830203428,1324,HRV,HRV_0072,2022-11-30 17:47:45
98,"[{'imgObject': {}, 'id': 'omelette', 'src': '/static/foodstim60/omelette.jpg', 'key': 'u', 'origWidth': 410, 'origHeight': 409, 'width': 410, 'height': 409, 'widthPercent': 0.45, 'rescaleHeight': False, 'trialN': 98, 'loaded': True, 'loadedTime': 15195.599999999627, 'positionName': 'LEFT', 'positionCoords': [239.44, 176], 'bid': 5.09}, {'imgObject': {}, 'id': 'mashed potato', 'src': '/static/foodstim60/mashed potato.jpg', 'key': 'i', 'origWidth': 409, 'origHeight': 409, 'width': 409, 'height': 409, 'widthPercent': 0.45, 'rescaleHeight': False, 'trialN': 98, 'loaded': True, 'loadedTime': 15020.5, 'positionName': 'RIGHT', 'positionCoords': [703.56, 176], 'bid': 4.3100000000000005}]",219867.19999999925,1669830203429,omelette,mashed potato,5.09,4.3100000000000005,-0.7799999999999994,omelette,1652.7000000011176,1654,1653.6000000014901,True,u,222041.40000000037,2174.2000000011176,1669830205603,2174,HRV,HRV_0072,2022-11-30 17:47:45
99,"[{'imgObject': {}, 'id': 'corn cob', 'src': '/static/foodstim60/corn cob.jpg', 'key': 'u', 'origWidth': 411, 'origHeight': 411, 'width': 411, 'height': 411, 'widthPercent': 0.45, 'rescaleHeight': False, 'trialN': 99, 'loaded': True, 'loadedTime': 14916.5, 'positionName': 'LEFT', 'positionCoords': [238.44, 175], 'bid': 0.07}, {'imgObject': {}, 'id': 'cantaloupe', 'src': '/static/foodstim60/cantaloupe.jpg', 'key': 'i', 'origWidth': 409, 'origHeight': 409, 'width': 409, 'height': 409, 'widthPercent': 0.45, 'rescaleHeight': False, 'trialN': 99, 'loaded': True, 'loadedTime': 16310.199999999255, 'positionName': 'RIGHT', 'positionCoords': [703.56, 176], 'bid': 5.05}]",222048.59999999963,1669830205610,corn cob,cantaloupe,0.07,5.05,4.9799999999999995,cantaloupe,1032,1033,1032.800000000745,True,i,223598.30000000075,1549.7000000011176,1669830207160,1550,HRV,HRV_0072,2022-11-30 17:47:45
100,"[{'imgObject': {}, 'id': 'bagel and cc', 'src': '/static/foodstim60/bagel and cc.jpg', 'key': 'u', 'origWidth': 410, 'origHeight': 410, 'width': 410, 'height': 410, 'widthPercent': 0.45, 'rescaleHeight': False, 'trialN': 100, 'loaded': True, 'loadedTime': 15659.300000000745, 'positionName': 'LEFT', 'positionCoords': [239.44, 175.5], 'bid': 5.05}, {'imgObject': {}, 'id': 'cantaloupe', 'src': '/static/foodstim60/cantaloupe.jpg', 'key': 'i', 'origWidth': 409, 'origHeight': 409, 'width': 409, 'height': 409, 'widthPercent': 0.45, 'rescaleHeight': False, 'trialN': 100, 'loaded': True, 'loadedTime': 16299.800000000745, 'positionName': 'RIGHT', 'positionCoords': [703.56, 176], 'bid': 5.05}]",223599.69999999925,1669830207162,bagel and cc,cantaloupe,5.05,5.05,0.0,cantaloupe,3011,3015,3015.60000000149,True,i,227129.90000000037,3530.2000000011176,1669830210692,3530,HRV,HRV_0072,2022-11-30 17:47:45
101,"[{'imgObject': {}, 'id': 'mashed potato', 'src': '/static/foodstim60/mashed potato.jpg', 'key': 'u', 'origWidth': 409, 'origHeight': 409, 'width': 409, 'height': 409, 'widthPercent': 0.45, 'rescaleHeight': False, 'trialN': 101, 'loaded': True, 'loadedTime': 15017.599999999627, 'positionName': 'LEFT', 'positionCoords': [240.44, 176], 'bid': 4.3100000000000005}, {'imgObject': {}, 'id': 'raisin bran w milk', 'src': '/static/foodstim60/raisin bran w milk.jpg', 'key': 'i', 'origWidth': 411, 'origHeight': 411, 'width': 411, 'height': 411, 'widthPercent': 0.45, 'rescaleHeight': False, 'trialN': 101, 'loaded': True, 'loadedTime': 16452.400000000373, 'positionName': 'RIGHT', 'positionCoords': [703.56, 175], 'bid': 3.98}]",227130.19999999925,1669830210692,mashed potato,raisin bran w milk,4.3100000000000005,3.98,-0.3300000000000005,mashed potato,1255.4000000003725,1258,1257.9000000003725,True,u,228899.19999999925,1769.0,1669830212461,1769,HRV,HRV_0072,2022-11-30 17:47:45
102,"[{'imgObject': {}, 'id': 'cantaloupe', 'src': '/static/foodstim60/cantaloupe.jpg', 'key': 'u', 'origWidth': 409, 'origHeight': 409, 'width': 409, 'height': 409, 'widthPercent': 0.45, 'rescaleHeight': False, 'trialN': 102, 'loaded': True, 'loadedTime': 16320.5, 'positionName': 'LEFT', 'positionCoords': [240.44, 176], 'bid': 5.05}, {'imgObject': {}, 'id': 'hashbrowns', 'src': '/static/foodstim60/hashbrowns.jpg', 'key': 'i', 'origWidth': 411, 'origHeight': 410, 'width': 411, 'height': 410, 'widthPercent': 0.45, 'rescaleHeight': False, 'trialN': 102, 'loaded': True, 'loadedTime': 14358.199999999255, 'positionName': 'RIGHT', 'positionCoords': [703.56, 175.5], 'bid': 4.19}]",228900.59999999963,1669830212463,cantaloupe,hashbrowns,5.05,4.19,-0.8599999999999994,cantaloupe,1029.800000000745,1034,1034.5,True,u,230444.90000000037,1544.300000000745,1669830214007,1544,HRV,HRV_0072,2022-11-30 17:47:45
103,"[{'imgObject': {}, 'id': 'blackbeanswithrice', 'src': '/static/foodstim60/blackbeanswithrice.jpg', 'key': 'u', 'origWidth': 410, 'origHeight': 410, 'width': 410, 'height': 410, 'widthPercent': 0.45, 'rescaleHeight': False, 'trialN': 103, 'loaded': True, 'loadedTime': 16017.199999999255, 'positionName': 'LEFT', 'positionCoords': [239.44, 175.5], 'bid': 4.12}, {'imgObject': {}, 'id': 'cheerios', 'src': '/static/foodstim60/cheerios.jpg', 'key': 'i', 'origWidth': 409, 'origHeight': 410, 'width': 409, 'height': 410, 'widthPercent': 0.45, 'rescaleHeight': False, 'trialN': 103, 'loaded': True, 'loadedTime': 15509.099999999627, 'positionName': 'RIGHT', 'positionCoords': [703.56, 175.5], 'bid': 1.41}]",230445.59999999963,1669830214008,blackbeanswithrice,cheerios,4.12,1.41,-2.71,NaN,NaN,NaN,,False,NaN,234456.69999999925,4011.0999999996275,1669830218019,4011,HRV,HRV_0072,2022-11-30 17:47:45
104,"[{'imgObject': {}, 'id': 'veggieswithdip', 'src': '/static/foodstim60/veggieswithdip.jpg', 'key': 'u', 'origWidth': 409, 'origHeight': 409, 'width': 409, 'height': 409, 'widthPercent': 0.45, 'rescaleHeight': False, 'trialN': 104, 'loaded': True, 'loadedTime': 16214.900000000373, 'positionName': 'LEFT', 'positionCoords': [240.44, 176], 'bid': 3.98}, {'imgObject': {}, 'id': 'granola w milk', 'src': '/static/foodstim60/granola w milk.jpg', 'key': 'i', 'origWidth': 410, 'origHeight': 410, 'width': 410, 'height': 410, 'widthPercent': 0.45, 'rescaleHeight': False, 'trialN': 104, 'loaded': True, 'loadedTime': 14401.800000000745, 'positionName': 'RIGHT', 'positionCoords': [703.56, 175.5], 'bid': 1.34}]",234457.09999999963,1669830218019,veggieswithdip,granola w milk,3.98,1.34,-2.6399999999999997,veggieswithdip,1047,1048,1047.800000000745,True,u,236018.30000000075,1561.2000000011176,1669830219580,1561,HRV,HRV_0072,2022-11-30 17:47:45
105,"[{'imgObject': {}, 'id': 'strawberries', 'src': '/static/foodstim60/strawberries.jpg', 'key': 'u', 'origWidth': 410, 'origHeight': 410, 'width': 410, 'height': 410, 'widthPercent': 0.45, 'rescaleHeight': False, 'trialN': 105, 'loaded': True, 'loadedTime': 14544.199999999255, 'positionName': 'LEFT', 'positionCoords': [239.44, 175.5], 'bid': 7.69}, {'imgObject': {}, 'id': 'lox', 'src': '/static/foodstim60/lox.jpg', 'key': 'i', 'origWidth': 410, 'origHeight': 411, 'width': 410, 'height': 411, 'widthPercent': 0.45, 'rescaleHeight': False, 'trialN': 105, 'loaded': True, 'loadedTime': 16322.400000000373, 'positionName': 'RIGHT', 'positionCoords': [703.56, 175], 'bid': 4.87}]",236018.90000000037,1669830219581,strawberries,lox,7.69,4.87,-2.8200000000000003,strawberries,2037.2999999988824,2039,2038.9000000003725,True,u,238565.09999999963,2546.199999999255,1669830222127,2546,HRV,HRV_0072,2022-11-30 17:47:45
106,"[{'imgObject': {}, 'id': 'burger', 'src': '/static/foodstim60/burger.jpg', 'key': 'u', 'origWidth': 409, 'origHeight': 409, 'width': 409, 'height': 409, 'widthPercent': 0.45, 'rescaleHeight': False, 'trialN': 106, 'loaded': True, 'loadedTime': 16274.400000000373, 'positionName': 'LEFT', 'positionCoords': [240.44, 176], 'bid': 7.9}, {'imgObject': {}, 'id': 'turkey sandwich', 'src': '/static/foodstim60/turkey sandwich.jpg', 'key': 'i', 'origWidth': 409, 'origHeight': 409, 'width': 409, 'height': 409, 'widthPercent': 0.45, 'rescaleHeight': False, 'trialN': 106, 'loaded': True, 'loadedTime': 16132.599999999627, 'positionName': 'RIGHT', 'positionCoords': [703.56, 176], 'bid': 8.59}]",238568.0,1669830222130,burger,turkey sandwich,7.9,8.59,0.6899999999999995,turkey sandwich,1627.4000000003725,1630,1630.4000000003725,True,i,240711.0,2143.0,1669830224273,2143,HRV,HRV_0072,2022-11-30 17:47:45
107,"[{'imgObject': {}, 'id': 'burger', 'src': '/static/foodstim60/burger.jpg', 'key': 'u', 'origWidth': 409, 'origHeight': 409, 'width': 409, 'height': 409, 'widthPercent': 0.45, 'rescaleHeight': False, 'trialN': 107, 'loaded': True, 'loadedTime': 16283.699999999255, 'positionName': 'LEFT', 'positionCoords': [240.44, 176], 'bid': 7.9}, {'imgObject': {}, 'id': 'chickenfingers', 'src': '/static/foodstim60/chickenfingers.jpg', 'key': 'i', 'origWidth': 410, 'origHeight': 410, 'width': 410, 'height': 410, 'widthPercent': 0.45, 'rescaleHeight': False, 'trialN': 107, 'loaded': True, 'loadedTime': 13971.900000000373, 'positionName': 'RIGHT', 'positionCoords': [703.56, 175.5], 'bid': 7.9}]",240712.19999999925,1669830224274,burger,chickenfingers,7.9,7.9,0.0,chickenfingers,1322,1323,1322.800000000745,True,i,242548.90000000037,1836.7000000011176,1669830226111,1837,HRV,HRV_0072,2022-11-30 17:47:45
