success,trial_type,trial_index,time_elapsed,internal_node_id,Block,TrialNumber,TrialTime,trialTimeDiff,FPS_avg,FPS_med,FPS_mode,TrialDur,winResizeTime,rt,block,button_pressed,MotCoh,MotDir,ColCoh,Color,ChoiceKey,Choice,Accuracy,RT,nFrames,FPS,PPD,missTrial,missTrialMsg,onsetDelay,fullScreenExitTime,canvCenter,TrialType,Score,BlockTrial,stimulus,button_labels,exp,subjectId,date
True,fullscreen,0,5892,0.0-0.0,0.0,1.0,,,,,,,,,,,,,,,,,,,,,,,,,,,,,,,,HRV,HRV_0072,2022-11-30 18:16:55
,wl-check-fps,1,10890,0.0-1.0,0.0,2.0,"[8045.1, 8056.4, 8059.1, 8075.6, 8093, 8109.1, 8122.9, 8138.5, 8156.3, 8173.5, 8192.6, 8208.9, 8223.6, 8239.3, 8255.5, 8272.8, 8288.6, 8305.9, 8322.5, 8338.6, 8355.9, 8372.8, 8388.5, 8406, 8422.8, 8440.1, 8458.1, 8474.9, 8491.5, 8508.3, 8524.8, 8541.2, 8557.5, 8573.5, 8589, 8608, 8624, 8639.2, 8658, 8673.1, 8691, 8705.5, 8725.6, 8743.8, 8756.5, 8771, 8788.2, 8805.3, 8821.8, 8838.3, 8855.1, 8871.3, 8887.8, 8904.6, 8922.1, 8938, 8954.7, 8971.4, 8987.8, 9007.1, 9022.5, 9036.8, 9055.7, 9071.6, 9087.6, 9104.8, 9122.5, 9137.8, 9154.5, 9171.1, 9187.6, 9204.7, 9220.8, 9243.2, 9271.4, 9294.1, 9295.7, 9305.7, 9320.4, 9337.4, 9354.5, 9372, 9387.6, 9406, 9422.4, 9438.2, 9454.5, 9470.2, 9487.2, 9504.2, 9520, 9536.9, 9554.8, 9570.6, 9587.1, 9604.1, 9620.7, 9637.4, 9655.7, 9672.6, 9687.8, 9704.5, 9720.4, 9736.9, 9755, 9770.3, 9786.9, 9803.7, 9820.2, 9836.8, 9854.1, 9870.3, 9891.4, 9910.2, 9921.1, 9937, 9954.6, 9971.2, 9986.7, 10005.1, 10020.2, 10035.4, 10054.5, 10069.9, 10086.8, 10103.8, 10120.3, 10136.6, 10154.7, 10169.8, 10187.7, 10204.6, 10220.5, 10237.7, 10256.5, 10274, 10286.3, 10303.2, 10319.6, 10335.9, 10353.3, 10369.5, 10386.3, 10403.4, 10419.4, 10436.7, 10454.1, 10469.7, 10486.8, 10504.5, 10519.3, 10537, 10553.6, 10569.3, 10586.1, 10602.9, 10619.3, 10636.6, 10653.5, 10668.5, 10685.6, 10704.2, 10719.5, 10736.9, 10754.4, 10768.8, 10786.6, 10803.5, 10818.9, 10836.2, 10852.9, 10868.6, 10886.6, 10903.3, 10918.9, 10936, 10952.8, 10969, 10986.7, 11002.8, 11018.5, 11035.2, 11049.6, 11069.5, 11086.7, 11103.1, 11119.5, 11136.2, 11154, 11169.3, 11187.2, 11203.7, 11219.7, 11237, 11253.9, 11269.3, 11286.9, 11303.2, 11319.1, 11336.6, 11353.1, 11369.2, 11386, 11402.7, 11419, 11436.5, 11453.1, 11468.8, 11486.3, 11503.4, 11519, 11536.9, 11552.7, 11569.2, 11586.9, 11602.5, 11618.7, 11636.1, 11652.9, 11669, 11690.1, 11705.1, 11721.7, 11736.3, 11752.6, 11776.2, 11793.4, 11800.9, 11819.8, 11837.1, 11854.7, 11869.8, 11887.9, 11904.4, 11919.9, 11938.1, 11954.6, 11967.7, 11984.9, 12003.3, 12018, 12038.9, 12049.6, 12068.3, 12086.1, 12104.5, 12121.2, 12138.5, 12153.1, 12167.8, 12187.6, 12200.7, 12217.3, 12235, 12252.3, 12272.4, 12287.4, 12304.2, 12320.3, 12337.9, 12352.7, 12366.8, 12384.3, 12401.3, 12416.7, 12433.8, 12449.1, 12465.8, 12483.8, 12499.1, 12515.4, 12533.8, 12549, 12565.9, 12583.8, 12599, 12616, 12633.8, 12648.7, 12667.6, 12683.7, 12699.5, 12715.8, 12733.7, 12749, 12765.8, 12782.7, 12799, 12815.6, 12833.6, 12849.1, 12865.7, 12884.6, 12902.3, 12916.5, 12933.3, 12949.7, 12965.3, 12983.3, 12998.7]","[18.9, 11.3, 2.7, 16.5, 17.4, 16.1, 13.8, 15.6, 17.8, 17.2, 19.1, 16.3, 14.7, 15.7, 16.2, 17.3, 15.8, 17.3, 16.6, 16.1, 17.3, 16.9, 15.7, 17.5, 16.8, 17.3, 18, 16.8, 16.6, 16.8, 16.5, 16.4, 16.3, 16, 15.5, 19, 16, 15.2, 18.8, 15.1, 17.9, 14.5, 20.1, 18.2, 12.7, 14.5, 17.2, 17.1, 16.5, 16.5, 16.8, 16.2, 16.5, 16.8, 17.5, 15.9, 16.7, 16.7, 16.4, 19.3, 15.4, 14.3, 18.9, 15.9, 16, 17.2, 17.7, 15.3, 16.7, 16.6, 16.5, 17.1, 16.1, 22.4, 28.2, 22.7, 1.6, 10, 14.7, 17, 17.1, 17.5, 15.6, 18.4, 16.4, 15.8, 16.3, 15.7, 17, 17, 15.8, 16.9, 17.9, 15.8, 16.5, 17, 16.6, 16.7, 18.3, 16.9, 15.2, 16.7, 15.9, 16.5, 18.1, 15.3, 16.6, 16.8, 16.5, 16.6, 17.3, 16.2, 21.1, 18.8, 10.9, 15.9, 17.6, 16.6, 15.5, 18.4, 15.1, 15.2, 19.1, 15.4, 16.9, 17, 16.5, 16.3, 18.1, 15.1, 17.9, 16.9, 15.9, 17.2, 18.8, 17.5, 12.3, 16.9, 16.4, 16.3, 17.4, 16.2, 16.8, 17.1, 16, 17.3, 17.4, 15.6, 17.1, 17.7, 14.8, 17.7, 16.6, 15.7, 16.8, 16.8, 16.4, 17.3, 16.9, 15, 17.1, 18.6, 15.3, 17.4, 17.5, 14.4, 17.8, 16.9, 15.4, 17.3, 16.7, 15.7, 18, 16.7, 15.6, 17.1, 16.8, 16.2, 17.7, 16.1, 15.7, 16.7, 14.4, 19.9, 17.2, 16.4, 16.4, 16.7, 17.8, 15.3, 17.9, 16.5, 16, 17.3, 16.9, 15.4, 17.6, 16.3, 15.9, 17.5, 16.5, 16.1, 16.8, 16.7, 16.3, 17.5, 16.6, 15.7, 17.5, 17.1, 15.6, 17.9, 15.8, 16.5, 17.7, 15.6, 16.2, 17.4, 16.8, 16.1, 21.1, 15, 16.6, 14.6, 16.3, 23.6, 17.2, 7.5, 18.9, 17.3, 17.6, 15.1, 18.1, 16.5, 15.5, 18.2, 16.5, 13.1, 17.2, 18.4, 14.7, 20.9, 10.7, 18.7, 17.8, 18.4, 16.7, 17.3, 14.6, 14.7, 19.8, 13.1, 16.6, 17.7, 17.3, 20.1, 15, 16.8, 16.1, 17.6, 14.8, 14.1, 17.5, 17, 15.4, 17.1, 15.3, 16.7, 18, 15.3, 16.3, 18.4, 15.2, 16.9, 17.9, 15.2, 17, 17.8, 14.9, 18.9, 16.1, 15.8, 16.3, 17.9, 15.3, 16.8, 16.9, 16.3, 16.6, 18, 15.5, 16.6, 18.9, 17.7, 14.2, 16.8, 16.4, 15.6, 18, 15.4]",60.0,62.0,60.0,4990.1,[],,,,,,,,,,,,,,,,,,,,,,,,,HRV,HRV_0072,2022-11-30 18:16:55
,wl-html-keyboard-response,2,38795,0.0-2.0-0.0,0.0,3.0,,,,,,,,25878.5,0.0,0,,,,,,,,,,,,,,,,,,,,,,HRV,HRV_0072,2022-11-30 18:16:55
,wl-rdm,3,47064,0.0-3.0-0.0,0.0,4.0,,,,,,,[],,,,0.0,0.0,87.9,0.0,u,0.0,True,2633.4999999981374,159.0,60.0,40.0,False,,3000.0,[],"[676.5, 380.5]",ColorTask_Demo,,,,,HRV,HRV_0072,2022-11-30 18:16:55
,wl-rdm,4,52240,0.0-3.0-1.0,0.0,5.0,,,,,,,[],,,,0.0,0.0,87.9,1.0,i,1.0,True,1077.699999999255,65.0,60.0,40.0,False,,2000.0,[],"[676.5, 380.5]",ColorTask_Demo,,,,,HRV,HRV_0072,2022-11-30 18:16:55
,wl-html-keyboard-response,5,62804,0.0-3.0-2.0,0.0,6.0,,,,,,,,8556.0,0.0,1,,,,,,,,,,,,,,,,,,,,,,HRV,HRV_0072,2022-11-30 18:16:55
,wl-html-keyboard-response,6,77315,0.0-4.0-0.0,0.0,7.0,,,,,,,,12501.5,0.0,0,,,,,,,,,,,,,,,,,,,,,,HRV,HRV_0072,2022-11-30 18:16:55
,wl-html-keyboard-response,7,105796,0.0-5.0-0.0,0.0,8.0,,,,,,,,26466.299999998882,0.0,0,,,,,,,,,,,,,,,,,,,,,,HRV,HRV_0072,2022-11-30 18:16:55
,wl-rdm,8,108493,0.0-6.0-0.0,0.0,9.0,,,,,,,[],,,,,,56.4,1.0,u,0.0,False,1228.7999999988824,74.0,60.0,40.0,False,,373.9852647310447,[],"[676.5, 380.5]",ColorTask,-1.0,1.0,,,HRV,HRV_0072,2022-11-30 18:16:55
,wl-rdm,9,110703,0.0-6.1-0.1,0.0,10.0,,,,,,,[],,,,,,62.5,1.0,i,1.0,True,896.8999999985099,54.0,60.0,40.0,False,,224.12572047664403,[],"[676.5, 380.5]",ColorTask,0.0,2.0,,,HRV,HRV_0072,2022-11-30 18:16:55
,wl-rdm,10,113300,0.0-6.2-0.2,0.0,11.0,,,,,,,[],,,,,,62.5,0.0,u,0.0,True,1154.0999999996275,70.0,60.0,40.0,False,,370.18436327822064,[],"[676.5, 380.5]",ColorTask,1.0,3.0,,,HRV,HRV_0072,2022-11-30 18:16:55
,wl-rdm,11,115949,0.0-6.3-0.3,0.0,12.0,,,,,,,[],,,,,,87.9,0.0,u,0.0,True,1206.5999999996275,73.0,60.0,40.0,False,,363.47915820232106,[],"[676.5, 380.5]",ColorTask,2.0,4.0,,,HRV,HRV_0072,2022-11-30 18:16:55
,wl-rdm,12,118213,0.0-6.4-0.4,0.0,13.0,,,,,,,[],,,,,,50.0,1.0,i,1.0,True,951.8999999985099,57.0,60.0,40.0,False,,249.15159437827876,[],"[676.5, 380.5]",ColorTask,3.0,5.0,,,HRV,HRV_0072,2022-11-30 18:16:55
,wl-rdm,13,120944,0.0-6.5-0.5,0.0,14.0,,,,,,,[],,,,,,50.0,1.0,i,1.0,True,1398.5,83.0,60.0,40.0,False,,259.54050808467133,[],"[676.5, 380.5]",ColorTask,4.0,6.0,,,HRV,HRV_0072,2022-11-30 18:16:55
,wl-rdm,14,123208,0.0-6.6-0.6,0.0,15.0,,,,,,,[],,,,,,73.6,1.0,i,1.0,True,928.1999999992549,55.0,60.0,40.0,False,,273.7204523902158,[],"[676.5, 380.5]",ColorTask,5.0,7.0,,,HRV,HRV_0072,2022-11-30 18:16:55
,wl-rdm,15,125821,0.0-6.7-0.7,0.0,16.0,,,,,,,[],,,,,,53.2,1.0,i,1.0,True,1302.1000000014901,78.0,60.0,40.0,False,,244.0119086855272,[],"[676.5, 380.5]",ColorTask,6.0,8.0,,,HRV,HRV_0072,2022-11-30 18:16:55
,wl-rdm,16,127885,0.0-6.8-0.8,0.0,17.0,,,,,,,[],,,,,,87.9,1.0,i,1.0,True,784.9000000003725,47.0,60.0,40.0,False,,203.55967394049694,[],"[676.5, 380.5]",ColorTask,7.0,9.0,,,HRV,HRV_0072,2022-11-30 18:16:55
,wl-rdm,17,130466,0.0-6.9-0.9,0.0,18.0,,,,,,,[],,,,,,73.6,0.0,u,0.0,True,1251.6000000014901,76.0,60.0,40.0,False,,237.57666276558535,[],"[676.5, 380.5]",ColorTask,8.0,10.0,,,HRV,HRV_0072,2022-11-30 18:16:55
,wl-rdm,18,132913,0.0-6.10-0.10,0.0,19.0,,,,,,,[],,,,,,62.5,1.0,i,1.0,True,1043.0999999996275,62.0,60.0,40.0,False,,339.021807257046,[],"[676.5, 380.5]",ColorTask,9.0,11.0,,,HRV,HRV_0072,2022-11-30 18:16:55
,wl-rdm,19,135660,0.0-6.11-0.11,0.0,20.0,,,,,,,[],,,,,,87.9,0.0,i,1.0,False,1318.4000000003725,79.0,60.0,40.0,False,,334.3621886291027,[],"[676.5, 380.5]",ColorTask,8.0,12.0,,,HRV,HRV_0072,2022-11-30 18:16:55
,wl-rdm,20,138607,0.0-6.12-0.12,0.0,21.0,,,,,,,[],,,,,,73.6,0.0,u,0.0,True,1517.5,91.0,60.0,40.0,False,,360.0372968502573,[],"[676.5, 380.5]",ColorTask,9.0,13.0,,,HRV,HRV_0072,2022-11-30 18:16:55
,wl-rdm,21,141836,0.0-6.13-0.13,0.0,22.0,,,,,,,[],,,,,,73.6,1.0,i,1.0,True,1938.699999999255,116.0,60.0,40.0,False,,201.76143185004847,[],"[676.5, 380.5]",ColorTask,10.0,14.0,,,HRV,HRV_0072,2022-11-30 18:16:55
,wl-rdm,22,145166,0.0-6.14-0.14,0.0,23.0,,,,,,,[],,,,,,56.4,0.0,i,1.0,False,1897.300000000745,113.0,60.0,40.0,False,,361.65512902730165,[],"[676.5, 380.5]",ColorTask,9.0,15.0,,,HRV,HRV_0072,2022-11-30 18:16:55
,wl-rdm,23,147579,0.0-6.15-0.15,0.0,24.0,,,,,,,[],,,,,,62.5,1.0,u,0.0,False,1085.699999999255,65.0,60.0,40.0,False,,245.34663663009343,[],"[676.5, 380.5]",ColorTask,8.0,16.0,,,HRV,HRV_0072,2022-11-30 18:16:55
,wl-rdm,24,151308,0.0-6.16-0.16,0.0,25.0,,,,,,,[],,,,,,53.2,0.0,i,1.0,False,2431.9999999981374,145.0,60.0,40.0,False,,223.03141423760763,[],"[676.5, 380.5]",ColorTask,7.0,17.0,,,HRV,HRV_0072,2022-11-30 18:16:55
,wl-rdm,25,154255,0.0-6.17-0.17,0.0,26.0,,,,,,,[],,,,,,62.5,1.0,i,1.0,True,1649.2999999988824,98.0,60.0,40.0,False,,222.79246160273937,[],"[676.5, 380.5]",ColorTask,8.0,18.0,,,HRV,HRV_0072,2022-11-30 18:16:55
,wl-rdm,26,157135,0.0-6.18-0.18,0.0,27.0,,,,,,,[],,,,,,73.6,1.0,i,1.0,True,1486.4999999981374,89.0,60.0,40.0,False,,317.78582507942826,[],"[676.5, 380.5]",ColorTask,9.0,19.0,,,HRV,HRV_0072,2022-11-30 18:16:55
,wl-rdm,27,160681,0.0-6.19-0.19,0.0,28.0,,,,,,,[],,,,,,62.5,0.0,u,0.0,True,2219.400000002235,132.0,60.0,40.0,False,,243.99526345424482,[],"[676.5, 380.5]",ColorTask,10.0,20.0,,,HRV,HRV_0072,2022-11-30 18:16:55
,wl-rdm,28,164477,0.0-6.20-0.20,0.0,29.0,,,,,,,[],,,,,,62.5,0.0,u,0.0,True,2372.2999999988824,142.0,60.0,40.0,False,,346.17111514274484,[],"[676.5, 380.5]",ColorTask,11.0,21.0,,,HRV,HRV_0072,2022-11-30 18:16:55
,wl-rdm,29,168106,0.0-6.21-0.21,0.0,30.0,,,,,,,[],,,,,,56.4,0.0,u,0.0,True,2308.0999999996275,137.0,60.0,40.0,False,,243.46779912802577,[],"[676.5, 380.5]",ColorTask,12.0,22.0,,,HRV,HRV_0072,2022-11-30 18:16:55
,wl-rdm,30,171419,0.0-6.22-0.22,0.0,31.0,,,,,,,[],,,,,,50.0,0.0,u,0.0,True,1957.8000000026077,116.0,60.0,40.0,False,,272.67717298045295,[],"[676.5, 380.5]",ColorTask,13.0,23.0,,,HRV,HRV_0072,2022-11-30 18:16:55
,wl-rdm,31,174448,0.0-6.23-0.23,0.0,32.0,,,,,,,[],,,,,,62.5,0.0,u,0.0,True,1643.4999999981374,98.0,60.0,40.0,False,,305.26600354730095,[],"[676.5, 380.5]",ColorTask,14.0,24.0,,,HRV,HRV_0072,2022-11-30 18:16:55
,wl-rdm,32,177795,0.0-6.24-0.24,0.0,33.0,,,,,,,[],,,,,,53.2,1.0,i,1.0,True,2001.5,119.0,60.0,40.0,False,,252.07188385147956,[],"[676.5, 380.5]",ColorTask,15.0,25.0,,,HRV,HRV_0072,2022-11-30 18:16:55
,wl-rdm,33,181923,0.0-6.25-0.25,0.0,34.0,,,,,,,[],,,,,,56.4,1.0,i,1.0,True,2732.5999999996275,163.0,60.0,40.0,False,,285.51116833448555,[],"[676.5, 380.5]",ColorTask,16.0,26.0,,,HRV,HRV_0072,2022-11-30 18:16:55
,wl-rdm,34,184720,0.0-6.26-0.26,0.0,35.0,,,,,,,[],,,,,,56.4,0.0,i,1.0,False,1414.2000000011176,85.0,60.0,40.0,False,,313.62125065462595,[],"[676.5, 380.5]",ColorTask,15.0,27.0,,,HRV,HRV_0072,2022-11-30 18:16:55
,wl-rdm,35,187200,0.0-6.27-0.27,0.0,36.0,,,,,,,[],,,,,,73.6,0.0,u,0.0,True,1103.4000000022352,66.0,60.0,40.0,False,,289.39624210328816,[],"[676.5, 380.5]",ColorTask,16.0,28.0,,,HRV,HRV_0072,2022-11-30 18:16:55
,wl-rdm,36,189748,0.0-6.28-0.28,0.0,37.0,,,,,,,[],,,,,,53.2,0.0,u,0.0,True,1140.300000000745,68.0,60.0,40.0,False,,320.25623200897894,[],"[676.5, 380.5]",ColorTask,17.0,29.0,,,HRV,HRV_0072,2022-11-30 18:16:55
,wl-rdm,37,192279,0.0-6.29-0.29,0.0,38.0,,,,,,,[],,,,,,50.0,1.0,u,0.0,False,1221.300000000745,73.0,60.0,40.0,False,,238.66981632130097,[],"[676.5, 380.5]",ColorTask,16.0,30.0,,,HRV,HRV_0072,2022-11-30 18:16:55
,wl-rdm,38,195824,0.0-6.30-0.30,0.0,39.0,,,,,,,[],,,,,,53.2,0.0,u,0.0,True,2098.2999999988824,125.0,60.0,40.0,False,,370.19215586342114,[],"[676.5, 380.5]",ColorTask,17.0,31.0,,,HRV,HRV_0072,2022-11-30 18:16:55
,wl-rdm,39,198670,0.0-6.31-0.31,0.0,40.0,,,,,,,[],,,,,,50.0,1.0,u,0.0,False,1516.3999999985099,90.0,60.0,40.0,False,,250.37900986681612,[],"[676.5, 380.5]",ColorTask,16.0,32.0,,,HRV,HRV_0072,2022-11-30 18:16:55
,wl-rdm,40,201301,0.0-6.32-0.32,0.0,41.0,,,,,,,[],,,,,,87.9,1.0,i,1.0,True,1239.699999999255,75.0,60.0,40.0,False,,313.2560972175599,[],"[676.5, 380.5]",ColorTask,17.0,33.0,,,HRV,HRV_0072,2022-11-30 18:16:55
,wl-rdm,41,204730,0.0-6.33-0.33,0.0,42.0,,,,,,,[],,,,,,56.4,1.0,u,0.0,False,2107.5,126.0,60.0,40.0,False,,243.3247128342304,[],"[676.5, 380.5]",ColorTask,16.0,34.0,,,HRV,HRV_0072,2022-11-30 18:16:55
,wl-rdm,42,207161,0.0-6.34-0.34,0.0,43.0,,,,,,,[],,,,,,62.5,0.0,u,0.0,True,1141.0,69.0,60.0,40.0,False,,216.62104413336084,[],"[676.5, 380.5]",ColorTask,17.0,35.0,,,HRV,HRV_0072,2022-11-30 18:16:55
,wl-rdm,43,210325,0.0-6.35-0.35,0.0,44.0,,,,,,,[],,,,,,56.4,1.0,u,0.0,False,1806.699999999255,108.0,60.0,40.0,False,,269.8933641845769,[],"[676.5, 380.5]",ColorTask,16.0,36.0,,,HRV,HRV_0072,2022-11-30 18:16:55
,wl-rdm,44,213070,0.0-6.36-0.36,0.0,45.0,,,,,,,[],,,,,,62.5,0.0,u,0.0,True,1454.0999999977648,87.0,60.0,40.0,False,,202.0064233034045,[],"[676.5, 380.5]",ColorTask,17.0,37.0,,,HRV,HRV_0072,2022-11-30 18:16:55
,wl-rdm,45,215734,0.0-6.37-0.37,0.0,46.0,,,,,,,[],,,,,,73.6,1.0,u,0.0,False,1321.6000000014901,80.0,60.0,40.0,False,,261.3963601390801,[],"[676.5, 380.5]",ColorTask,16.0,38.0,,,HRV,HRV_0072,2022-11-30 18:16:55
,wl-rdm,46,218730,0.0-6.38-0.38,0.0,47.0,,,,,,,[],,,,,,50.0,0.0,u,0.0,True,1519.0999999996275,92.0,60.0,40.0,False,,394.2327849233387,[],"[676.5, 380.5]",ColorTask,17.0,39.0,,,HRV,HRV_0072,2022-11-30 18:16:55
,wl-rdm,47,221244,0.0-6.39-0.39,0.0,48.0,,,,,,,[],,,,,,50.0,0.0,i,1.0,False,1102.5,67.0,60.0,40.0,False,,323.9243217097884,[],"[676.5, 380.5]",ColorTask,16.0,40.0,,,HRV,HRV_0072,2022-11-30 18:16:55
,wl-rdm,48,224441,0.0-6.40-0.40,0.0,49.0,,,,,,,[],,,,,,56.4,1.0,i,1.0,True,1726.300000000745,103.0,60.0,40.0,False,,390.964602906811,[],"[676.5, 380.5]",ColorTask,17.0,41.0,,,HRV,HRV_0072,2022-11-30 18:16:55
,wl-rdm,49,228105,0.0-6.41-0.41,0.0,50.0,,,,,,,[],,,,,,56.4,0.0,u,0.0,True,2320.800000000745,139.0,60.0,40.0,False,,252.22292902421157,[],"[676.5, 380.5]",ColorTask,18.0,42.0,,,HRV,HRV_0072,2022-11-30 18:16:55
,wl-rdm,50,230434,0.0-6.42-0.42,0.0,51.0,,,,,,,[],,,,,,87.9,0.0,u,0.0,True,894.8000000007451,54.0,60.0,40.0,False,,362.7097050568815,[],"[676.5, 380.5]",ColorTask,19.0,43.0,,,HRV,HRV_0072,2022-11-30 18:16:55
,wl-rdm,51,233147,0.0-6.43-0.43,0.0,52.0,,,,,,,[],,,,,,56.4,0.0,u,0.0,True,1402.0999999996275,83.0,60.0,40.0,False,,233.61052208272167,[],"[676.5, 380.5]",ColorTask,20.0,44.0,,,HRV,HRV_0072,2022-11-30 18:16:55
,wl-rdm,52,236094,0.0-6.44-0.44,0.0,53.0,,,,,,,[],,,,,,53.2,1.0,i,1.0,True,1652.6000000014901,99.0,60.0,40.0,False,,201.27181362805618,[],"[676.5, 380.5]",ColorTask,21.0,45.0,,,HRV,HRV_0072,2022-11-30 18:16:55
,wl-rdm,53,239692,0.0-6.45-0.45,0.0,54.0,,,,,,,[],,,,,,50.0,1.0,i,1.0,True,2274.2000000011176,136.0,60.0,40.0,False,,247.17371716103432,[],"[676.5, 380.5]",ColorTask,22.0,46.0,,,HRV,HRV_0072,2022-11-30 18:16:55
,wl-rdm,54,242187,0.0-6.46-0.46,0.0,55.0,,,,,,,[],,,,,,87.9,1.0,i,1.0,True,1091.300000000745,65.0,60.0,40.0,False,,344.3324994946314,[],"[676.5, 380.5]",ColorTask,23.0,47.0,,,HRV,HRV_0072,2022-11-30 18:16:55
,wl-rdm,55,244551,0.0-6.47-0.47,0.0,56.0,,,,,,,[],,,,,,87.9,0.0,u,0.0,True,983.4000000022352,59.0,60.0,40.0,False,,303.9309732798804,[],"[676.5, 380.5]",ColorTask,24.0,48.0,,,HRV,HRV_0072,2022-11-30 18:16:55
,wl-rdm,56,247265,0.0-6.48-0.48,0.0,57.0,,,,,,,[],,,,,,87.9,1.0,i,1.0,True,1386.7999999988824,82.0,60.0,40.0,False,,248.69819778129957,[],"[676.5, 380.5]",ColorTask,25.0,49.0,,,HRV,HRV_0072,2022-11-30 18:16:55
,wl-rdm,57,249728,0.0-6.49-0.49,0.0,58.0,,,,,,,[],,,,,,73.6,0.0,u,0.0,True,1087.0,65.0,60.0,40.0,False,,295.0385268526372,[],"[676.5, 380.5]",ColorTask,26.0,50.0,,,HRV,HRV_0072,2022-11-30 18:16:55
,wl-rdm,58,252558,0.0-6.50-0.50,0.0,59.0,,,,,,,[],,,,,,73.6,1.0,i,1.0,True,1366.800000000745,81.0,60.0,40.0,False,,398.8846384095983,[],"[676.5, 380.5]",ColorTask,27.0,51.0,,,HRV,HRV_0072,2022-11-30 18:16:55
,wl-rdm,59,255389,0.0-6.51-0.51,0.0,60.0,,,,,,,[],,,,,,56.4,0.0,i,1.0,False,1468.300000000745,88.0,60.0,40.0,False,,268.46433886857517,[],"[676.5, 380.5]",ColorTask,26.0,52.0,,,HRV,HRV_0072,2022-11-30 18:16:55
,wl-rdm,60,257668,0.0-6.52-0.52,0.0,61.0,,,,,,,[],,,,,,73.6,1.0,i,1.0,True,1003.5,61.0,60.0,40.0,False,,213.85092168338238,[],"[676.5, 380.5]",ColorTask,27.0,53.0,,,HRV,HRV_0072,2022-11-30 18:16:55
,wl-rdm,61,261499,0.0-6.53-0.53,0.0,62.0,,,,,,,[],,,,,,62.5,1.0,i,1.0,True,2518.4000000003725,150.0,60.0,40.0,False,,224.21344844793552,[],"[676.5, 380.5]",ColorTask,28.0,54.0,,,HRV,HRV_0072,2022-11-30 18:16:55
,wl-rdm,62,264528,0.0-6.54-0.54,0.0,63.0,,,,,,,[],,,,,,62.5,1.0,i,1.0,True,1703.300000000745,101.0,60.0,40.0,False,,236.43437371597736,[],"[676.5, 380.5]",ColorTask,29.0,55.0,,,HRV,HRV_0072,2022-11-30 18:16:55
,wl-rdm,63,267475,0.0-6.55-0.55,0.0,64.0,,,,,,,[],,,,,,73.6,0.0,u,0.0,True,1661.2999999988824,98.0,60.0,40.0,False,,207.12107277095933,[],"[676.5, 380.5]",ColorTask,30.0,56.0,,,HRV,HRV_0072,2022-11-30 18:16:55
,wl-rdm,64,269839,0.0-6.56-0.56,0.0,65.0,,,,,,,[],,,,,,87.9,1.0,i,1.0,True,1017.5999999996275,60.0,60.0,40.0,False,,281.52241886461854,[],"[676.5, 380.5]",ColorTask,31.0,57.0,,,HRV,HRV_0072,2022-11-30 18:16:55
,wl-rdm,65,273235,0.0-6.57-0.57,0.0,66.0,,,,,,,[],,,,,,56.4,1.0,u,0.0,False,2084.39999999851,124.0,60.0,40.0,False,,218.05093215485988,[],"[676.5, 380.5]",ColorTask,30.0,58.0,,,HRV,HRV_0072,2022-11-30 18:16:55
,wl-rdm,66,276298,0.0-6.58-0.58,0.0,67.0,,,,,,,[],,,,,,56.4,1.0,u,0.0,False,1665.5,99.0,60.0,40.0,False,,316.3177403743075,[],"[676.5, 380.5]",ColorTask,29.0,59.0,,,HRV,HRV_0072,2022-11-30 18:16:55
,wl-rdm,67,278995,0.0-6.59-0.59,0.0,68.0,,,,,,,[],,,,,,62.5,1.0,i,1.0,True,1292.3000000026077,77.0,60.0,40.0,False,,318.4696592773162,[],"[676.5, 380.5]",ColorTask,30.0,60.0,,,HRV,HRV_0072,2022-11-30 18:16:55
,wl-rdm,68,282224,0.0-6.60-0.60,0.0,69.0,,,,,,,[],,,,,,62.5,0.0,u,0.0,True,1762.5,104.0,60.0,40.0,False,,395.95782636416266,[],"[676.5, 380.5]",ColorTask,31.0,61.0,,,HRV,HRV_0072,2022-11-30 18:16:55
,wl-rdm,69,284305,0.0-6.61-0.61,0.0,70.0,,,,,,,[],,,,,,87.9,0.0,u,0.0,True,771.2999999988824,47.0,60.0,40.0,False,,224.9225144858421,[],"[676.5, 380.5]",ColorTask,32.0,62.0,,,HRV,HRV_0072,2022-11-30 18:16:55
,wl-rdm,70,286935,0.0-6.62-0.62,0.0,71.0,,,,,,,[],,,,,,73.6,1.0,i,1.0,True,1254.7000000011176,76.0,60.0,40.0,False,,314.5950080394009,[],"[676.5, 380.5]",ColorTask,33.0,63.0,,,HRV,HRV_0072,2022-11-30 18:16:55
,wl-rdm,71,291131,0.0-6.63-0.63,0.0,72.0,,,,,,,[],,,,,,53.2,0.0,i,1.0,False,2833.89999999851,169.0,60.0,40.0,False,,271.8741635326525,[],"[676.5, 380.5]",ColorTask,32.0,64.0,,,HRV,HRV_0072,2022-11-30 18:16:55
,wl-rdm,72,293778,0.0-6.64-0.64,0.0,73.0,,,,,,,[],,,,,,50.0,0.0,i,1.0,False,1235.699999999255,75.0,60.0,40.0,False,,318.102306088104,[],"[676.5, 380.5]",ColorTask,31.0,65.0,,,HRV,HRV_0072,2022-11-30 18:16:55
,wl-rdm,73,295840,0.0-6.65-0.65,0.0,74.0,,,,,,,[],,,,,,62.5,0.0,u,0.0,True,776.5999999996275,46.0,60.0,40.0,False,,224.47649040079276,[],"[676.5, 380.5]",ColorTask,32.0,66.0,,,HRV,HRV_0072,2022-11-30 18:16:55
,wl-rdm,74,297807,0.0-6.66-0.66,0.0,75.0,,,,,,,[],,,,,,87.9,0.0,u,0.0,True,672.2999999988824,40.0,60.0,40.0,False,,210.49394679584015,[],"[676.5, 380.5]",ColorTask,33.0,67.0,,,HRV,HRV_0072,2022-11-30 18:16:55
,wl-rdm,75,300054,0.0-6.67-0.67,0.0,76.0,,,,,,,[],,,,,,87.9,0.0,u,0.0,True,923.0999999996275,55.0,60.0,40.0,False,,248.93146502755476,[],"[676.5, 380.5]",ColorTask,34.0,68.0,,,HRV,HRV_0072,2022-11-30 18:16:55
,wl-rdm,76,302484,0.0-6.68-0.68,0.0,77.0,,,,,,,[],,,,,,53.2,0.0,u,0.0,True,1102.2999999988824,66.0,60.0,40.0,False,,244.99642941838178,[],"[676.5, 380.5]",ColorTask,35.0,69.0,,,HRV,HRV_0072,2022-11-30 18:16:55
,wl-rdm,77,305729,0.0-6.69-0.69,0.0,78.0,,,,,,,[],,,,,,56.4,1.0,u,0.0,False,1917.5999999996275,115.0,60.0,40.0,False,,243.25859355251464,[],"[676.5, 380.5]",ColorTask,34.0,70.0,,,HRV,HRV_0072,2022-11-30 18:16:55
,wl-rdm,78,307745,0.0-6.70-0.70,0.0,79.0,,,,,,,[],,,,,,73.6,1.0,i,1.0,True,594.9000000022352,35.0,60.0,40.0,False,,344.66291078883154,[],"[676.5, 380.5]",ColorTask,35.0,71.0,,,HRV,HRV_0072,2022-11-30 18:16:55
,wl-rdm,79,312140,0.0-6.71-0.71,0.0,79.0,,,,,,,[],,,,,,56.4,0.0,i,,,3330.4999999981374,179.0,60.0,40.0,True,RT_timeout ,298.1536335211049,[],"[676.5, 380.5]",ColorTask,34.0,72.0,,,HRV,HRV_0072,2022-11-30 18:16:55
,wl-rdm,80,314504,0.0-6.72-0.72,0.0,80.0,,,,,,,[],,,,,,53.2,1.0,i,1.0,True,1037.4000000022352,63.0,60.0,40.0,False,,242.20981459166754,[],"[676.5, 380.5]",ColorTask,35.0,73.0,,,HRV,HRV_0072,2022-11-30 18:16:55
,wl-rdm,81,316951,0.0-6.73-0.73,0.0,81.0,,,,,,,[],,,,,,73.6,0.0,u,0.0,True,1087.8999999985099,65.0,60.0,40.0,False,,297.11826127374854,[],"[676.5, 380.5]",ColorTask,36.0,74.0,,,HRV,HRV_0072,2022-11-30 18:16:55
,wl-rdm,82,321179,0.0-6.74-0.74,0.0,82.0,,,,,,,[],,,,,,50.0,0.0,u,0.0,True,2900.60000000149,175.0,60.0,40.0,False,,245.25465947781166,[],"[676.5, 380.5]",ColorTask,37.0,75.0,,,HRV,HRV_0072,2022-11-30 18:16:55
,wl-rdm,83,323344,0.0-6.75-0.75,0.0,83.0,,,,,,,[],,,,,,50.0,1.0,u,0.0,False,865.1999999992549,52.0,60.0,40.0,False,,226.54695975223018,[],"[676.5, 380.5]",ColorTask,36.0,76.0,,,HRV,HRV_0072,2022-11-30 18:16:55
,wl-rdm,84,326407,0.0-6.76-0.76,0.0,84.0,,,,,,,[],,,,,,50.0,1.0,i,1.0,True,1669.8999999985099,101.0,60.0,40.0,False,,329.99870442574246,[],"[676.5, 380.5]",ColorTask,37.0,77.0,,,HRV,HRV_0072,2022-11-30 18:16:55
,wl-rdm,85,329003,0.0-6.77-0.77,0.0,85.0,,,,,,,[],,,,,,50.0,0.0,i,1.0,False,1236.4000000003725,75.0,60.0,40.0,False,,280.0128232977853,[],"[676.5, 380.5]",ColorTask,36.0,78.0,,,HRV,HRV_0072,2022-11-30 18:16:55
,wl-rdm,86,331151,0.0-6.78-0.78,0.0,86.0,,,,,,,[],,,,,,56.4,1.0,u,0.0,False,850.2999999988824,50.0,60.0,40.0,False,,225.02762757584452,[],"[676.5, 380.5]",ColorTask,35.0,79.0,,,HRV,HRV_0072,2022-11-30 18:16:55
,wl-rdm,87,333529,0.0-6.79-0.79,0.0,87.0,,,,,,,[],,,,,,56.4,0.0,i,1.0,False,917.1999999992549,55.0,60.0,40.0,False,,375.3851974411329,[],"[676.5, 380.5]",ColorTask,34.0,80.0,,,HRV,HRV_0072,2022-11-30 18:16:55
,wl-rdm,88,336026,0.0-6.80-0.80,0.0,88.0,,,,,,,[],,,,,,62.5,1.0,i,1.0,True,1089.0999999996275,66.0,60.0,40.0,False,,339.4631725941664,[],"[676.5, 380.5]",ColorTask,35.0,81.0,,,HRV,HRV_0072,2022-11-30 18:16:55
,wl-rdm,89,338075,0.0-6.81-0.81,0.0,89.0,,,,,,,[],,,,,,73.6,0.0,u,0.0,True,739.4000000003725,46.0,60.0,40.0,False,,235.60891716964738,[],"[676.5, 380.5]",ColorTask,36.0,82.0,,,HRV,HRV_0072,2022-11-30 18:16:55
,wl-rdm,90,341971,0.0-6.82-0.82,0.0,90.0,,,,,,,[],,,,,,53.2,1.0,u,0.0,False,2535.199999999255,153.0,60.0,40.0,False,,275.68890884928595,[],"[676.5, 380.5]",ColorTask,35.0,83.0,,,HRV,HRV_0072,2022-11-30 18:16:55
,wl-rdm,91,344138,0.0-6.83-0.83,0.0,91.0,,,,,,,[],,,,,,87.9,1.0,u,0.0,False,866.5999999996275,52.0,60.0,40.0,False,,222.33288557077628,[],"[676.5, 380.5]",ColorTask,34.0,84.0,,,HRV,HRV_0072,2022-11-30 18:16:55
,wl-rdm,92,346417,0.0-6.84-0.84,0.0,92.0,,,,,,,[],,,,,,53.2,1.0,u,0.0,False,926.7999999988824,55.0,60.0,40.0,False,,280.53589859535435,[],"[676.5, 380.5]",ColorTask,33.0,85.0,,,HRV,HRV_0072,2022-11-30 18:16:55
,wl-rdm,93,348864,0.0-6.85-0.85,0.0,93.0,,,,,,,[],,,,,,53.2,1.0,i,1.0,True,1015.8000000026077,61.0,60.0,40.0,False,,350.8371064981525,[],"[676.5, 380.5]",ColorTask,34.0,86.0,,,HRV,HRV_0072,2022-11-30 18:16:55
,wl-rdm,94,351594,0.0-6.86-0.86,0.0,94.0,,,,,,,[],,,,,,73.6,0.0,i,1.0,False,1376.5,82.0,60.0,40.0,False,,274.6149198761905,[],"[676.5, 380.5]",ColorTask,33.0,87.0,,,HRV,HRV_0072,2022-11-30 18:16:55
,wl-rdm,95,354391,0.0-6.87-0.87,0.0,95.0,,,,,,,[],,,,,,50.0,1.0,i,1.0,True,1500.7000000011176,90.0,60.0,40.0,False,,230.118698775094,[],"[676.5, 380.5]",ColorTask,34.0,88.0,,,HRV,HRV_0072,2022-11-30 18:16:55
,wl-rdm,96,356838,0.0-6.88-0.88,0.0,96.0,,,,,,,[],,,,,,50.0,0.0,i,1.0,False,1136.699999999255,69.0,60.0,40.0,False,,234.7851317055886,[],"[676.5, 380.5]",ColorTask,33.0,89.0,,,HRV,HRV_0072,2022-11-30 18:16:55
,wl-rdm,97,359102,0.0-6.89-0.89,0.0,97.0,,,,,,,[],,,,,,62.5,1.0,i,1.0,True,868.0,52.0,60.0,40.0,False,,329.62059503543753,[],"[676.5, 380.5]",ColorTask,34.0,90.0,,,HRV,HRV_0072,2022-11-30 18:16:55
,wl-rdm,98,361915,0.0-6.90-0.90,0.0,98.0,,,,,,,[],,,,,,53.2,0.0,u,0.0,True,1501.6000000014901,91.0,60.0,40.0,False,,231.78405630316752,[],"[676.5, 380.5]",ColorTask,35.0,91.0,,,HRV,HRV_0072,2022-11-30 18:16:55
,wl-rdm,99,364030,0.0-6.91-0.91,0.0,99.0,,,,,,,[],,,,,,87.9,0.0,u,0.0,True,805.8000000007451,49.0,60.0,40.0,False,,235.78346969767057,[],"[676.5, 380.5]",ColorTask,36.0,92.0,,,HRV,HRV_0072,2022-11-30 18:16:55
,wl-rdm,100,366377,0.0-6.92-0.92,0.0,100.0,,,,,,,[],,,,,,87.9,1.0,i,1.0,True,1036.2999999988824,63.0,60.0,40.0,False,,230.73731748745445,[],"[676.5, 380.5]",ColorTask,37.0,93.0,,,HRV,HRV_0072,2022-11-30 18:16:55
,wl-rdm,101,368825,0.0-6.93-0.93,0.0,101.0,,,,,,,[],,,,,,53.2,0.0,u,0.0,True,1166.0999999996275,69.0,60.0,40.0,False,,205.23141629735701,[],"[676.5, 380.5]",ColorTask,38.0,94.0,,,HRV,HRV_0072,2022-11-30 18:16:55
,wl-rdm,102,371455,0.0-6.94-0.94,0.0,102.0,,,,,,,[],,,,,,56.4,0.0,u,0.0,True,1305.2000000011176,79.0,60.0,40.0,False,,240.45259280101737,[],"[676.5, 380.5]",ColorTask,39.0,95.0,,,HRV,HRV_0072,2022-11-30 18:16:55
,wl-rdm,103,375134,0.0-6.95-0.95,0.0,103.0,,,,,,,[],,,,,,56.4,0.0,i,1.0,False,2232.800000000745,134.0,60.0,40.0,False,,375.4395184078552,[],"[676.5, 380.5]",ColorTask,38.0,96.0,,,HRV,HRV_0072,2022-11-30 18:16:55
,wl-rdm,104,377829,0.0-6.96-0.96,0.0,104.0,,,,,,,[],,,,,,62.5,0.0,u,0.0,True,1235.3999999985099,74.0,60.0,40.0,False,,373.23322794861303,[],"[676.5, 380.5]",ColorTask,39.0,97.0,,,HRV,HRV_0072,2022-11-30 18:16:55
,wl-rdm,105,380594,0.0-6.97-0.97,0.0,105.0,,,,,,,[],,,,,,50.0,1.0,i,1.0,True,1360.699999999255,82.0,60.0,40.0,False,,334.08934180738333,[],"[676.5, 380.5]",ColorTask,40.0,98.0,,,HRV,HRV_0072,2022-11-30 18:16:55
,wl-rdm,106,383208,0.0-6.98-0.98,0.0,106.0,,,,,,,[],,,,,,87.9,1.0,i,1.0,True,1154.0999999996275,70.0,60.0,40.0,False,,365.9560779809474,[],"[676.5, 380.5]",ColorTask,41.0,99.0,,,HRV,HRV_0072,2022-11-30 18:16:55
,wl-rdm,107,385539,0.0-6.99-0.99,0.0,107.0,,,,,,,[],,,,,,87.9,0.0,u,0.0,True,919.3000000007451,55.0,60.0,40.0,False,,329.6004646409681,[],"[676.5, 380.5]",ColorTask,42.0,100.0,,,HRV,HRV_0072,2022-11-30 18:16:55
,wl-rdm,108,387968,0.0-6.100-0.100,0.0,108.0,,,,,,,[],,,,,,53.2,0.0,i,1.0,False,1138.4999999981374,69.0,60.0,40.0,False,,202.75577686352352,[],"[676.5, 380.5]",ColorTask,41.0,101.0,,,HRV,HRV_0072,2022-11-30 18:16:55
,wl-rdm,109,390299,0.0-6.101-0.101,0.0,109.0,,,,,,,[],,,,,,87.9,1.0,i,1.0,True,968.8999999985099,58.0,60.0,40.0,False,,267.2024679933097,[],"[676.5, 380.5]",ColorTask,42.0,102.0,,,HRV,HRV_0072,2022-11-30 18:16:55
,wl-rdm,110,392630,0.0-6.102-0.102,0.0,110.0,,,,,,,[],,,,,,53.2,1.0,i,1.0,True,923.0,55.0,60.0,40.0,False,,332.3188438627418,[],"[676.5, 380.5]",ColorTask,43.0,103.0,,,HRV,HRV_0072,2022-11-30 18:16:55
,wl-rdm,111,396442,0.0-6.103-0.103,0.0,111.0,,,,,,,[],,,,,,50.0,0.0,u,0.0,True,2474.0999999996275,148.0,60.0,40.0,False,,247.33884102360727,[],"[676.5, 380.5]",ColorTask,44.0,104.0,,,HRV,HRV_0072,2022-11-30 18:16:55
,wl-rdm,112,398756,0.0-6.104-0.104,0.0,112.0,,,,,,,[],,,,,,53.2,0.0,i,1.0,False,1024.699999999255,62.0,60.0,40.0,False,,210.1237978260759,[],"[676.5, 380.5]",ColorTask,43.0,105.0,,,HRV,HRV_0072,2022-11-30 18:16:55
,wl-rdm,113,401003,0.0-6.105-0.105,0.0,113.0,,,,,,,[],,,,,,50.0,0.0,u,0.0,True,959.9000000003725,58.0,60.0,40.0,False,,205.91366273187305,[],"[676.5, 380.5]",ColorTask,44.0,106.0,,,HRV,HRV_0072,2022-11-30 18:16:55
,wl-rdm,114,403866,0.0-6.106-0.106,0.0,114.0,,,,,,,[],,,,,,53.2,1.0,u,0.0,False,1542.0999999996275,93.0,60.0,40.0,False,,237.11415886191162,[],"[676.5, 380.5]",ColorTask,43.0,107.0,,,HRV,HRV_0072,2022-11-30 18:16:55
,wl-rdm,115,406179,0.0-6.107-0.107,0.0,115.0,,,,,,,[],,,,,,73.6,0.0,u,0.0,True,936.1999999992549,56.0,60.0,40.0,False,,314.6053345354833,[],"[676.5, 380.5]",ColorTask,44.0,108.0,,,HRV,HRV_0072,2022-11-30 18:16:55
,wl-rdm,116,408978,0.0-6.108-0.108,0.0,116.0,,,,,,,[],,,,,,73.6,1.0,i,1.0,True,1352.2000000011176,80.0,60.0,40.0,False,,356.01833679346294,[],"[676.5, 380.5]",ColorTask,45.0,109.0,,,HRV,HRV_0072,2022-11-30 18:16:55
,wl-html-keyboard-response,117,418076,0.0-7.0-0.0,1.0,117.0,,,,,,,,7085.0999999996275,1.0,0,,,,,,,,,,,,,,,,,,,,,,HRV,HRV_0072,2022-11-30 18:16:55
,wl-rdm,118,420311,0.0-8.0-0.0,1.0,118.0,,,,,,,[],,,,,,53.2,1.0,i,1.0,True,862.6000000014901,52.0,60.0,40.0,False,,284.09514453016675,[],"[676.5, 380.5]",ColorTask,46.0,1.0,,,HRV,HRV_0072,2022-11-30 18:16:55
,wl-rdm,119,423375,0.0-8.1-0.1,1.0,119.0,,,,,,,[],,,,,,56.4,1.0,u,0.0,False,1688.699999999255,102.0,60.0,40.0,False,,315.2638853407864,[],"[676.5, 380.5]",ColorTask,45.0,2.0,,,HRV,HRV_0072,2022-11-30 18:16:55
,wl-rdm,120,426008,0.0-8.2-0.2,1.0,120.0,,,,,,,[],,,,,,73.6,0.0,u,0.0,True,1223.300000000745,74.0,60.0,40.0,False,,323.91434755102915,[],"[676.5, 380.5]",ColorTask,46.0,3.0,,,HRV,HRV_0072,2022-11-30 18:16:55
,wl-rdm,121,428505,0.0-8.3-0.3,1.0,121.0,,,,,,,[],,,,,,73.6,1.0,u,0.0,False,1226.2999999988824,73.0,60.0,40.0,False,,211.37553188879176,[],"[676.5, 380.5]",ColorTask,45.0,4.0,,,HRV,HRV_0072,2022-11-30 18:16:55
,wl-rdm,122,430886,0.0-8.4-0.4,1.0,122.0,,,,,,,[],,,,,,87.9,1.0,i,1.0,True,984.0,59.0,60.0,40.0,False,,330.62362631632834,[],"[676.5, 380.5]",ColorTask,46.0,5.0,,,HRV,HRV_0072,2022-11-30 18:16:55
,wl-rdm,123,433532,0.0-8.5-0.5,1.0,123.0,,,,,,,[],,,,,,53.2,0.0,u,0.0,True,1316.2999999988824,79.0,60.0,40.0,False,,264.5458160865038,[],"[676.5, 380.5]",ColorTask,47.0,6.0,,,HRV,HRV_0072,2022-11-30 18:16:55
,wl-rdm,124,436612,0.0-8.6-0.6,1.0,124.0,,,,,,,[],,,,,,87.9,1.0,i,1.0,True,1640.9000000022352,99.0,60.0,40.0,False,,349.4878849829727,[],"[676.5, 380.5]",ColorTask,48.0,7.0,,,HRV,HRV_0072,2022-11-30 18:16:55
,wl-rdm,125,439825,0.0-8.7-0.7,1.0,125.0,,,,,,,[],,,,,,62.5,0.0,u,0.0,True,1765.1000000014901,106.0,60.0,40.0,False,,368.9262402732271,[],"[676.5, 380.5]",ColorTask,49.0,8.0,,,HRV,HRV_0072,2022-11-30 18:16:55
,wl-rdm,126,442456,0.0-8.8-0.8,1.0,126.0,,,,,,,[],,,,,,50.0,1.0,u,0.0,False,1287.5,78.0,60.0,40.0,False,,263.0512708448217,[],"[676.5, 380.5]",ColorTask,48.0,9.0,,,HRV,HRV_0072,2022-11-30 18:16:55
,wl-rdm,127,445270,0.0-8.9-0.9,1.0,127.0,,,,,,,[],,,,,,56.4,1.0,i,1.0,True,1456.0,87.0,60.0,40.0,False,,255.21642885812668,[],"[676.5, 380.5]",ColorTask,49.0,10.0,,,HRV,HRV_0072,2022-11-30 18:16:55
,wl-rdm,128,447467,0.0-8.10-0.10,1.0,128.0,,,,,,,[],,,,,,56.4,0.0,u,0.0,True,877.6999999992549,53.0,60.0,40.0,False,,242.41057655640378,[],"[676.5, 380.5]",ColorTask,50.0,11.0,,,HRV,HRV_0072,2022-11-30 18:16:55
,wl-rdm,129,449881,0.0-8.11-0.11,1.0,129.0,,,,,,,[],,,,,,56.4,0.0,u,0.0,True,970.0,59.0,60.0,40.0,False,,350.71310101871813,[],"[676.5, 380.5]",ColorTask,51.0,12.0,,,HRV,HRV_0072,2022-11-30 18:16:55
,wl-rdm,130,452095,0.0-8.12-0.12,1.0,130.0,,,,,,,[],,,,,,73.6,1.0,i,1.0,True,917.0999999996275,54.0,60.0,40.0,False,,227.45238659208832,[],"[676.5, 380.5]",ColorTask,52.0,13.0,,,HRV,HRV_0072,2022-11-30 18:16:55
,wl-rdm,131,455041,0.0-8.13-0.13,1.0,131.0,,,,,,,[],,,,,,50.0,1.0,u,0.0,False,1636.0000000018626,99.0,60.0,40.0,False,,217.48662931341357,[],"[676.5, 380.5]",ColorTask,51.0,14.0,,,HRV,HRV_0072,2022-11-30 18:16:55
,wl-rdm,132,457538,0.0-8.14-0.14,1.0,132.0,,,,,,,[],,,,,,50.0,0.0,i,1.0,False,1126.4000000003725,68.0,60.0,40.0,False,,294.3214520220907,[],"[676.5, 380.5]",ColorTask,50.0,15.0,,,HRV,HRV_0072,2022-11-30 18:16:55
,wl-rdm,133,460618,0.0-8.15-0.15,1.0,133.0,,,,,,,[],,,,,,50.0,0.0,u,0.0,True,1703.4000000003725,103.0,60.0,40.0,False,,312.79237024414533,[],"[676.5, 380.5]",ColorTask,51.0,16.0,,,HRV,HRV_0072,2022-11-30 18:16:55
,wl-rdm,134,462815,0.0-8.16-0.16,1.0,134.0,,,,,,,[],,,,,,87.9,1.0,i,1.0,True,817.0999999996275,49.0,60.0,40.0,False,,311.79212089646035,[],"[676.5, 380.5]",ColorTask,52.0,17.0,,,HRV,HRV_0072,2022-11-30 18:16:55
,wl-rdm,135,465396,0.0-8.17-0.17,1.0,135.0,,,,,,,[],,,,,,53.2,1.0,u,0.0,False,1255.2999999988824,75.0,60.0,40.0,False,,226.34995177783028,[],"[676.5, 380.5]",ColorTask,51.0,18.0,,,HRV,HRV_0072,2022-11-30 18:16:55
,wl-rdm,136,468657,0.0-8.18-0.18,1.0,136.0,,,,,,,[],,,,,,56.4,1.0,i,1.0,True,1858.4000000003725,111.0,60.0,40.0,False,,317.04562131000137,[],"[676.5, 380.5]",ColorTask,52.0,19.0,,,HRV,HRV_0072,2022-11-30 18:16:55
,wl-rdm,137,471305,0.0-8.19-0.19,1.0,137.0,,,,,,,[],,,,,,53.2,0.0,u,0.0,True,1319.5999999996275,80.0,60.0,40.0,False,,245.0801219544107,[],"[676.5, 380.5]",ColorTask,53.0,20.0,,,HRV,HRV_0072,2022-11-30 18:16:55
,wl-rdm,138,473672,0.0-8.20-0.20,1.0,138.0,,,,,,,[],,,,,,53.2,1.0,u,0.0,False,1001.3999999985099,58.0,60.0,40.0,False,,291.18144671079756,[],"[676.5, 380.5]",ColorTask,52.0,21.0,,,HRV,HRV_0072,2022-11-30 18:16:55
,wl-rdm,139,476151,0.0-8.21-0.21,1.0,139.0,,,,,,,[],,,,,,62.5,0.0,u,0.0,True,1039.5000000018626,63.0,60.0,40.0,False,,347.3897800263673,[],"[676.5, 380.5]",ColorTask,53.0,22.0,,,HRV,HRV_0072,2022-11-30 18:16:55
,wl-rdm,140,478881,0.0-8.22-0.22,1.0,140.0,,,,,,,[],,,,,,56.4,0.0,u,0.0,True,1367.5,82.0,60.0,40.0,False,,281.1351918495423,[],"[676.5, 380.5]",ColorTask,54.0,23.0,,,HRV,HRV_0072,2022-11-30 18:16:55
,wl-rdm,141,481560,0.0-8.23-0.23,1.0,141.0,,,,,,,[],,,,,,87.9,1.0,i,1.0,True,1230.5999999996275,72.0,60.0,40.0,False,,354.5533932547929,[],"[676.5, 380.5]",ColorTask,55.0,24.0,,,HRV,HRV_0072,2022-11-30 18:16:55
,wl-rdm,142,483944,0.0-8.24-0.24,1.0,142.0,,,,,,,[],,,,,,87.9,1.0,i,1.0,True,1039.5999999996275,62.0,60.0,40.0,False,,260.94517353095887,[],"[676.5, 380.5]",ColorTask,56.0,25.0,,,HRV,HRV_0072,2022-11-30 18:16:55
,wl-rdm,143,486323,0.0-8.25-0.25,1.0,143.0,,,,,,,[],,,,,,50.0,0.0,u,0.0,True,1078.199999999255,64.0,60.0,40.0,False,,220.46395964862427,[],"[676.5, 380.5]",ColorTask,57.0,26.0,,,HRV,HRV_0072,2022-11-30 18:16:55
,wl-rdm,144,488937,0.0-8.26-0.26,1.0,144.0,,,,,,,[],,,,,,53.2,0.0,i,1.0,False,1116.800000000745,67.0,60.0,40.0,False,,383.91307778506916,[],"[676.5, 380.5]",ColorTask,56.0,27.0,,,HRV,HRV_0072,2022-11-30 18:16:55
,wl-rdm,145,491349,0.0-8.27-0.27,1.0,145.0,,,,,,,[],,,,,,62.5,1.0,i,1.0,True,1068.9000000003725,64.0,60.0,40.0,False,,262.3678712100541,[],"[676.5, 380.5]",ColorTask,57.0,28.0,,,HRV,HRV_0072,2022-11-30 18:16:55
,wl-rdm,146,494046,0.0-8.28-0.28,1.0,146.0,,,,,,,[],,,,,,73.6,0.0,u,0.0,True,1282.7999999988824,77.0,60.0,40.0,False,,312.06149139842023,[],"[676.5, 380.5]",ColorTask,58.0,29.0,,,HRV,HRV_0072,2022-11-30 18:16:55
,wl-rdm,147,496760,0.0-8.29-0.29,1.0,147.0,,,,,,,[],,,,,,87.9,0.0,u,0.0,True,1331.8999999985099,79.0,60.0,40.0,False,,299.16960338098966,[],"[676.5, 380.5]",ColorTask,59.0,30.0,,,HRV,HRV_0072,2022-11-30 18:16:55
,wl-rdm,148,498991,0.0-8.30-0.30,1.0,148.0,,,,,,,[],,,,,,50.0,1.0,i,1.0,True,756.4000000003725,46.0,60.0,40.0,False,,392.7350055726539,[],"[676.5, 380.5]",ColorTask,60.0,31.0,,,HRV,HRV_0072,2022-11-30 18:16:55
,wl-rdm,149,501987,0.0-8.31-0.31,1.0,149.0,,,,,,,[],,,,,,56.4,0.0,u,0.0,True,1650.8999999985099,98.0,60.0,40.0,False,,262.9521138511873,[],"[676.5, 380.5]",ColorTask,61.0,32.0,,,HRV,HRV_0072,2022-11-30 18:16:55
,wl-rdm,150,505050,0.0-8.32-0.32,1.0,150.0,,,,,,,[],,,,,,53.2,0.0,u,0.0,True,1738.5,105.0,60.0,40.0,False,,231.55387189894807,[],"[676.5, 380.5]",ColorTask,62.0,33.0,,,HRV,HRV_0072,2022-11-30 18:16:55
,wl-rdm,151,507914,0.0-8.33-0.33,1.0,151.0,,,,,,,[],,,,,,50.0,1.0,i,1.0,True,1427.0000000018626,85.0,60.0,40.0,False,,362.01800854387386,[],"[676.5, 380.5]",ColorTask,63.0,34.0,,,HRV,HRV_0072,2022-11-30 18:16:55
,wl-rdm,152,510978,0.0-8.34-0.34,1.0,152.0,,,,,,,[],,,,,,62.5,0.0,u,0.0,True,1585.4000000003725,94.0,60.0,40.0,False,,390.8818432667016,[],"[676.5, 380.5]",ColorTask,64.0,35.0,,,HRV,HRV_0072,2022-11-30 18:16:55
,wl-rdm,153,514537,0.0-8.35-0.35,1.0,153.0,,,,,,,[],,,,,,56.4,1.0,i,1.0,True,2140.199999999255,122.0,60.0,40.0,False,,329.920321563642,[],"[676.5, 380.5]",ColorTask,65.0,36.0,,,HRV,HRV_0072,2022-11-30 18:16:55
,wl-rdm,154,517050,0.0-8.36-0.36,1.0,154.0,,,,,,,[],,,,,,73.6,1.0,u,0.0,False,1057.2000000011176,64.0,60.0,40.0,False,,357.8212047062389,[],"[676.5, 380.5]",ColorTask,64.0,37.0,,,HRV,HRV_0072,2022-11-30 18:16:55
,wl-rdm,155,519535,0.0-8.37-0.37,1.0,155.0,,,,,,,[],,,,,,62.5,0.0,u,0.0,True,1171.2999999988824,71.0,60.0,40.0,False,,251.9914028836281,[],"[676.5, 380.5]",ColorTask,65.0,38.0,,,HRV,HRV_0072,2022-11-30 18:16:55
,wl-rdm,156,522014,0.0-8.38-0.38,1.0,156.0,,,,,,,[],,,,,,53.2,0.0,u,0.0,True,1033.0000000018626,62.0,60.0,40.0,False,,311.42155397610634,[],"[676.5, 380.5]",ColorTask,66.0,39.0,,,HRV,HRV_0072,2022-11-30 18:16:55
,wl-rdm,157,524494,0.0-8.39-0.39,1.0,157.0,,,,,,,[],,,,,,62.5,1.0,u,0.0,False,986.7999999988824,59.0,60.0,40.0,False,,381.94055208181055,[],"[676.5, 380.5]",ColorTask,65.0,40.0,,,HRV,HRV_0072,2022-11-30 18:16:55
,wl-rdm,158,526775,0.0-8.40-0.40,1.0,158.0,,,,,,,[],,,,,,87.9,1.0,i,1.0,True,951.0999999996275,57.0,60.0,40.0,False,,249.3179063698413,[],"[676.5, 380.5]",ColorTask,66.0,41.0,,,HRV,HRV_0072,2022-11-30 18:16:55
,wl-rdm,159,528839,0.0-8.41-0.41,1.0,159.0,,,,,,,[],,,,,,87.9,0.0,u,0.0,True,756.0,45.0,60.0,40.0,False,,220.5293266092222,[],"[676.5, 380.5]",ColorTask,67.0,42.0,,,HRV,HRV_0072,2022-11-30 18:16:55
,wl-rdm,160,531719,0.0-8.42-0.42,1.0,160.0,,,,,,,[],,,,,,50.0,0.0,i,1.0,False,1455.2000000011176,88.0,60.0,40.0,False,,333.76136764102444,[],"[676.5, 380.5]",ColorTask,66.0,43.0,,,HRV,HRV_0072,2022-11-30 18:16:55
,wl-rdm,161,534182,0.0-8.43-0.43,1.0,161.0,,,,,,,[],,,,,,73.6,1.0,i,1.0,True,1118.0999999996275,67.0,60.0,40.0,False,,252.0587699976831,[],"[676.5, 380.5]",ColorTask,67.0,44.0,,,HRV,HRV_0072,2022-11-30 18:16:55
,wl-rdm,162,536830,0.0-8.44-0.44,1.0,162.0,,,,,,,[],,,,,,56.4,1.0,u,0.0,False,1299.9000000003725,77.0,60.0,40.0,False,,270.297627343347,[],"[676.5, 380.5]",ColorTask,66.0,45.0,,,HRV,HRV_0072,2022-11-30 18:16:55
,wl-rdm,163,539094,0.0-8.45-0.45,1.0,163.0,,,,,,,[],,,,,,73.6,0.0,u,0.0,True,888.8999999985099,53.0,60.0,40.0,False,,276.57301683534,[],"[676.5, 380.5]",ColorTask,67.0,46.0,,,HRV,HRV_0072,2022-11-30 18:16:55
,wl-rdm,164,541824,0.0-8.46-0.46,1.0,164.0,,,,,,,[],,,,,,73.6,0.0,u,0.0,True,1432.7999999988824,84.0,60.0,40.0,False,,224.6122772231093,[],"[676.5, 380.5]",ColorTask,68.0,47.0,,,HRV,HRV_0072,2022-11-30 18:16:55
,wl-rdm,165,544622,0.0-8.47-0.47,1.0,165.0,,,,,,,[],,,,,,56.4,0.0,i,1.0,False,1455.5999999977648,86.0,60.0,40.0,False,,271.1328642447092,[],"[676.5, 380.5]",ColorTask,67.0,48.0,,,HRV,HRV_0072,2022-11-30 18:16:55
,wl-rdm,166,546818,0.0-8.48-0.48,1.0,166.0,,,,,,,[],,,,,,87.9,0.0,u,0.0,True,871.4000000003725,52.0,60.0,40.0,False,,221.08133723464783,[],"[676.5, 380.5]",ColorTask,68.0,49.0,,,HRV,HRV_0072,2022-11-30 18:16:55
,wl-rdm,167,549482,0.0-8.49-0.49,1.0,167.0,,,,,,,[],,,,,,50.0,1.0,i,1.0,True,1321.199999999255,80.0,60.0,40.0,False,,262.23404828239927,[],"[676.5, 380.5]",ColorTask,69.0,50.0,,,HRV,HRV_0072,2022-11-30 18:16:55
,wl-rdm,168,552428,0.0-8.50-0.50,1.0,168.0,,,,,,,[],,,,,,50.0,1.0,i,1.0,True,1586.2000000011176,96.0,60.0,40.0,False,,267.95359370444555,[],"[676.5, 380.5]",ColorTask,70.0,51.0,,,HRV,HRV_0072,2022-11-30 18:16:55
,wl-rdm,169,555408,0.0-8.51-0.51,1.0,169.0,,,,,,,[],,,,,,53.2,1.0,i,1.0,True,1537.2999999988824,93.0,60.0,40.0,False,,353.06196979236813,[],"[676.5, 380.5]",ColorTask,71.0,52.0,,,HRV,HRV_0072,2022-11-30 18:16:55
,wl-rdm,170,558089,0.0-8.52-0.52,1.0,170.0,,,,,,,[],,,,,,56.4,1.0,u,0.0,False,1269.7000000011176,76.0,60.0,40.0,False,,316.0456957626795,[],"[676.5, 380.5]",ColorTask,70.0,53.0,,,HRV,HRV_0072,2022-11-30 18:16:55
,wl-rdm,171,560635,0.0-8.53-0.53,1.0,171.0,,,,,,,[],,,,,,50.0,1.0,i,1.0,True,1167.7000000011176,69.0,60.0,40.0,False,,288.5951352586562,[],"[676.5, 380.5]",ColorTask,71.0,54.0,,,HRV,HRV_0072,2022-11-30 18:16:55
,wl-rdm,172,562783,0.0-8.54-0.54,1.0,172.0,,,,,,,[],,,,,,87.9,0.0,u,0.0,True,855.1000000014901,51.0,60.0,40.0,False,,201.5863548353872,[],"[676.5, 380.5]",ColorTask,72.0,55.0,,,HRV,HRV_0072,2022-11-30 18:16:55
,wl-rdm,173,565296,0.0-8.55-0.55,1.0,173.0,,,,,,,[],,,,,,62.5,1.0,i,1.0,True,1152.9000000022352,69.0,60.0,40.0,False,,278.8177261806552,[],"[676.5, 380.5]",ColorTask,73.0,56.0,,,HRV,HRV_0072,2022-11-30 18:16:55
,wl-rdm,174,567778,0.0-8.56-0.56,1.0,174.0,,,,,,,[],,,,,,87.9,0.0,u,0.0,True,1122.5999999996275,66.0,60.0,40.0,False,,277.0758206604415,[],"[676.5, 380.5]",ColorTask,74.0,57.0,,,HRV,HRV_0072,2022-11-30 18:16:55
,wl-rdm,175,570640,0.0-8.57-0.57,1.0,175.0,,,,,,,[],,,,,,62.5,1.0,i,1.0,True,1501.9000000003725,90.0,60.0,40.0,False,,288.2202092377611,[],"[676.5, 380.5]",ColorTask,75.0,58.0,,,HRV,HRV_0072,2022-11-30 18:16:55
,wl-rdm,176,573241,0.0-8.58-0.58,1.0,176.0,,,,,,,[],,,,,,53.2,1.0,i,1.0,True,1238.800000000745,75.0,60.0,40.0,False,,293.3692603742973,[],"[676.5, 380.5]",ColorTask,76.0,59.0,,,HRV,HRV_0072,2022-11-30 18:16:55
,wl-rdm,177,576465,0.0-8.59-0.59,1.0,177.0,,,,,,,[],,,,,,50.0,0.0,i,1.0,False,1923.6000000014901,114.0,60.0,40.0,False,,219.96675725978224,[],"[676.5, 380.5]",ColorTask,75.0,60.0,,,HRV,HRV_0072,2022-11-30 18:16:55
,wl-rdm,178,578628,0.0-8.60-0.60,1.0,178.0,,,,,,,[],,,,,,73.6,1.0,i,1.0,True,853.0999999996275,51.0,60.0,40.0,False,,239.39714201020195,[],"[676.5, 380.5]",ColorTask,76.0,61.0,,,HRV,HRV_0072,2022-11-30 18:16:55
,wl-rdm,179,580928,0.0-8.61-0.61,1.0,179.0,,,,,,,[],,,,,,73.6,1.0,i,1.0,True,953.1000000014901,58.0,60.0,40.0,False,,254.6851468791528,[],"[676.5, 380.5]",ColorTask,77.0,62.0,,,HRV,HRV_0072,2022-11-30 18:16:55
,wl-rdm,180,583127,0.0-8.62-0.62,1.0,180.0,,,,,,,[],,,,,,87.9,1.0,i,1.0,True,883.0999999996275,53.0,60.0,40.0,False,,238.7226616867262,[],"[676.5, 380.5]",ColorTask,78.0,63.0,,,HRV,HRV_0072,2022-11-30 18:16:55
,wl-rdm,181,585557,0.0-8.63-0.63,1.0,181.0,,,,,,,[],,,,,,62.5,1.0,i,1.0,True,1084.4000000003725,65.0,60.0,40.0,False,,272.2920070743821,[],"[676.5, 380.5]",ColorTask,79.0,64.0,,,HRV,HRV_0072,2022-11-30 18:16:55
,wl-rdm,182,587855,0.0-8.64-0.64,1.0,182.0,,,,,,,[],,,,,,53.2,0.0,i,1.0,False,967.8999999985099,57.0,60.0,40.0,False,,259.11969204250533,[],"[676.5, 380.5]",ColorTask,78.0,65.0,,,HRV,HRV_0072,2022-11-30 18:16:55
,wl-rdm,183,590350,0.0-8.65-0.65,1.0,183.0,,,,,,,[],,,,,,73.6,1.0,i,1.0,True,1037.0999999996275,63.0,60.0,40.0,False,,371.0883665981097,[],"[676.5, 380.5]",ColorTask,79.0,66.0,,,HRV,HRV_0072,2022-11-30 18:16:55
,wl-rdm,184,593182,0.0-8.66-0.66,1.0,184.0,,,,,,,[],,,,,,53.2,1.0,i,1.0,True,1372.6000000014901,83.0,60.0,40.0,False,,395.91382639865515,[],"[676.5, 380.5]",ColorTask,80.0,67.0,,,HRV,HRV_0072,2022-11-30 18:16:55
,wl-rdm,185,595259,0.0-8.67-0.67,1.0,185.0,,,,,,,[],,,,,,87.9,0.0,u,0.0,True,725.7000000011176,44.0,60.0,40.0,False,,236.1555295782983,[],"[676.5, 380.5]",ColorTask,81.0,68.0,,,HRV,HRV_0072,2022-11-30 18:16:55
,wl-rdm,186,597509,0.0-8.68-0.68,1.0,186.0,,,,,,,[],,,,,,87.9,1.0,i,1.0,True,800.5999999996275,48.0,60.0,40.0,False,,381.01556107214947,[],"[676.5, 380.5]",ColorTask,82.0,69.0,,,HRV,HRV_0072,2022-11-30 18:16:55
,wl-rdm,187,599904,0.0-8.69-0.69,1.0,187.0,,,,,,,[],,,,,,56.4,1.0,u,0.0,False,988.5,58.0,60.0,40.0,False,,318.1593297056165,[],"[676.5, 380.5]",ColorTask,81.0,70.0,,,HRV,HRV_0072,2022-11-30 18:16:55
,wl-rdm,188,602138,0.0-8.70-0.70,1.0,188.0,,,,,,,[],,,,,,53.2,1.0,u,0.0,False,929.8000000007451,56.0,60.0,40.0,False,,247.38537472751366,[],"[676.5, 380.5]",ColorTask,80.0,71.0,,,HRV,HRV_0072,2022-11-30 18:16:55
,wl-rdm,189,604135,0.0-8.71-0.71,1.0,189.0,,,,,,,[],,,,,,53.2,0.0,i,1.0,False,699.6999999992549,42.0,60.0,40.0,False,,217.67229449765492,[],"[676.5, 380.5]",ColorTask,79.0,72.0,,,HRV,HRV_0072,2022-11-30 18:16:55
,wl-rdm,190,607398,0.0-8.72-0.72,1.0,190.0,,,,,,,[],,,,,,50.0,0.0,i,1.0,False,1850.4999999981374,111.0,60.0,40.0,False,,335.76625581846497,[],"[676.5, 380.5]",ColorTask,78.0,73.0,,,HRV,HRV_0072,2022-11-30 18:16:55
,wl-rdm,191,609864,0.0-8.73-0.73,1.0,191.0,,,,,,,[],,,,,,56.4,1.0,i,1.0,True,1150.7999999988824,69.0,60.0,40.0,False,,239.0980694270715,[],"[676.5, 380.5]",ColorTask,79.0,74.0,,,HRV,HRV_0072,2022-11-30 18:16:55
,wl-rdm,192,612177,0.0-8.74-0.74,1.0,192.0,,,,,,,[],,,,,,73.6,0.0,u,0.0,True,837.9000000003725,51.0,60.0,40.0,False,,371.14440395914517,[],"[676.5, 380.5]",ColorTask,80.0,75.0,,,HRV,HRV_0072,2022-11-30 18:16:55
,wl-rdm,193,614656,0.0-8.75-0.75,1.0,193.0,,,,,,,[],,,,,,62.5,0.0,u,0.0,True,1187.0999999996275,72.0,60.0,40.0,False,,213.07601168827742,[],"[676.5, 380.5]",ColorTask,81.0,76.0,,,HRV,HRV_0072,2022-11-30 18:16:55
,wl-rdm,194,616920,0.0-8.76-0.76,1.0,194.0,,,,,,,[],,,,,,62.5,1.0,i,1.0,True,844.9000000003725,51.0,60.0,40.0,False,,342.45886598114464,[],"[676.5, 380.5]",ColorTask,82.0,77.0,,,HRV,HRV_0072,2022-11-30 18:16:55
,wl-rdm,195,619417,0.0-8.77-0.77,1.0,195.0,,,,,,,[],,,,,,50.0,0.0,i,1.0,False,1036.9000000022352,62.0,60.0,40.0,False,,373.4106557638738,[],"[676.5, 380.5]",ColorTask,81.0,78.0,,,HRV,HRV_0072,2022-11-30 18:16:55
,wl-rdm,196,621981,0.0-8.78-0.78,1.0,196.0,,,,,,,[],,,,,,73.6,0.0,u,0.0,True,1106.199999999255,66.0,60.0,40.0,False,,377.91545466705463,[],"[676.5, 380.5]",ColorTask,82.0,79.0,,,HRV,HRV_0072,2022-11-30 18:16:55
,wl-rdm,197,624894,0.0-8.79-0.79,1.0,197.0,,,,,,,[],,,,,,56.4,1.0,i,1.0,True,1554.5,92.0,60.0,40.0,False,,273.9169117427307,[],"[676.5, 380.5]",ColorTask,83.0,80.0,,,HRV,HRV_0072,2022-11-30 18:16:55
,wl-rdm,198,628063,0.0-8.80-0.80,1.0,198.0,,,,,,,[],,,,,,50.0,0.0,u,0.0,True,1810.800000000745,108.0,60.0,40.0,False,,253.01728552814876,[],"[676.5, 380.5]",ColorTask,84.0,81.0,,,HRV,HRV_0072,2022-11-30 18:16:55
,wl-rdm,199,630555,0.0-8.81-0.81,1.0,199.0,,,,,,,[],,,,,,87.9,0.0,u,0.0,True,1174.800000000745,71.0,60.0,40.0,False,,232.25422520104598,[],"[676.5, 380.5]",ColorTask,85.0,82.0,,,HRV,HRV_0072,2022-11-30 18:16:55
,wl-rdm,200,633253,0.0-8.82-0.82,1.0,200.0,,,,,,,[],,,,,,53.2,0.0,u,0.0,True,1407.8999999985099,84.0,60.0,40.0,False,,218.63281217682163,[],"[676.5, 380.5]",ColorTask,86.0,83.0,,,HRV,HRV_0072,2022-11-30 18:16:55
,wl-rdm,201,635932,0.0-8.83-0.83,1.0,201.0,,,,,,,[],,,,,,73.6,0.0,u,0.0,True,1236.7000000011176,74.0,60.0,40.0,False,,353.27600712651173,[],"[676.5, 380.5]",ColorTask,87.0,84.0,,,HRV,HRV_0072,2022-11-30 18:16:55
,wl-rdm,202,638313,0.0-8.84-0.84,1.0,202.0,,,,,,,[],,,,,,87.9,0.0,u,0.0,True,1003.0000000018626,61.0,60.0,40.0,False,,269.97831068127755,[],"[676.5, 380.5]",ColorTask,88.0,85.0,,,HRV,HRV_0072,2022-11-30 18:16:55
,wl-rdm,203,640410,0.0-8.85-0.85,1.0,203.0,,,,,,,[],,,,,,87.9,0.0,u,0.0,True,769.6999999992549,46.0,60.0,40.0,False,,232.54859140008668,[],"[676.5, 380.5]",ColorTask,89.0,86.0,,,HRV,HRV_0072,2022-11-30 18:16:55
,wl-rdm,204,643390,0.0-8.86-0.86,1.0,204.0,,,,,,,[],,,,,,62.5,0.0,u,0.0,True,1567.0,94.0,60.0,40.0,False,,327.6500022948485,[],"[676.5, 380.5]",ColorTask,90.0,87.0,,,HRV,HRV_0072,2022-11-30 18:16:55
,wl-rdm,205,646403,0.0-8.87-0.87,1.0,205.0,,,,,,,[],,,,,,73.6,1.0,i,1.0,True,1518.2999999988824,91.0,60.0,40.0,False,,397.7301661847899,[],"[676.5, 380.5]",ColorTask,91.0,88.0,,,HRV,HRV_0072,2022-11-30 18:16:55
,wl-rdm,206,648833,0.0-8.88-0.88,1.0,206.0,,,,,,,[],,,,,,50.0,1.0,u,0.0,False,968.8000000007451,59.0,60.0,40.0,False,,377.4682827710035,[],"[676.5, 380.5]",ColorTask,90.0,89.0,,,HRV,HRV_0072,2022-11-30 18:16:55
,wl-rdm,207,651697,0.0-8.89-0.89,1.0,207.0,,,,,,,[],,,,,,53.2,0.0,i,1.0,False,1509.2999999988824,90.0,60.0,40.0,False,,279.0308022679677,[],"[676.5, 380.5]",ColorTask,89.0,90.0,,,HRV,HRV_0072,2022-11-30 18:16:55
,wl-rdm,208,654278,0.0-8.90-0.90,1.0,208.0,,,,,,,[],,,,,,62.5,0.0,u,0.0,True,1110.5999999996275,67.0,60.0,40.0,False,,387.7164800318262,[],"[676.5, 380.5]",ColorTask,90.0,91.0,,,HRV,HRV_0072,2022-11-30 18:16:55
,wl-rdm,209,657190,0.0-8.91-0.91,1.0,209.0,,,,,,,[],,,,,,62.5,0.0,u,0.0,True,1553.199999999255,93.0,60.0,40.0,False,,289.74238125731057,[],"[676.5, 380.5]",ColorTask,91.0,92.0,,,HRV,HRV_0072,2022-11-30 18:16:55
,wl-rdm,210,659386,0.0-8.92-0.92,1.0,210.0,,,,,,,[],,,,,,73.6,0.0,u,0.0,True,853.0999999996275,51.0,60.0,40.0,False,,261.66735784745106,[],"[676.5, 380.5]",ColorTask,92.0,93.0,,,HRV,HRV_0072,2022-11-30 18:16:55
,wl-rdm,211,662235,0.0-8.93-0.93,1.0,211.0,,,,,,,[],,,,,,53.2,1.0,i,1.0,True,1403.0999999996275,84.0,60.0,40.0,False,,337.20056283804945,[],"[676.5, 380.5]",ColorTask,93.0,94.0,,,HRV,HRV_0072,2022-11-30 18:16:55
,wl-rdm,212,665349,0.0-8.94-0.94,1.0,212.0,,,,,,,[],,,,,,56.4,0.0,i,1.0,False,1732.8999999985099,103.0,60.0,40.0,False,,315.4550341946133,[],"[676.5, 380.5]",ColorTask,92.0,95.0,,,HRV,HRV_0072,2022-11-30 18:16:55
,wl-rdm,213,667462,0.0-8.95-0.95,1.0,213.0,,,,,,,[],,,,,,73.6,1.0,i,1.0,True,821.6999999992549,49.0,60.0,40.0,False,,211.2011719760164,[],"[676.5, 380.5]",ColorTask,93.0,96.0,,,HRV,HRV_0072,2022-11-30 18:16:55
,wl-rdm,214,670325,0.0-8.96-0.96,1.0,214.0,,,,,,,[],,,,,,50.0,1.0,u,0.0,False,1467.2000000011176,88.0,60.0,40.0,False,,320.3581563515791,[],"[676.5, 380.5]",ColorTask,92.0,97.0,,,HRV,HRV_0072,2022-11-30 18:16:55
,wl-rdm,215,672589,0.0-8.97-0.97,1.0,215.0,,,,,,,[],,,,,,56.4,0.0,u,0.0,True,968.2000000011176,58.0,60.0,40.0,False,,226.49131475311088,[],"[676.5, 380.5]",ColorTask,93.0,98.0,,,HRV,HRV_0072,2022-11-30 18:16:55
,wl-rdm,216,674920,0.0-8.98-0.98,1.0,216.0,,,,,,,[],,,,,,56.4,0.0,u,0.0,True,871.0999999996275,52.0,60.0,40.0,False,,386.7887159812983,[],"[676.5, 380.5]",ColorTask,94.0,99.0,,,HRV,HRV_0072,2022-11-30 18:16:55
,wl-rdm,217,677167,0.0-8.99-0.99,1.0,217.0,,,,,,,[],,,,,,73.6,0.0,u,0.0,True,889.7999999988824,53.0,60.0,40.0,False,,275.18320588308234,[],"[676.5, 380.5]",ColorTask,95.0,100.0,,,HRV,HRV_0072,2022-11-30 18:16:55
,wl-rdm,218,679332,0.0-8.100-0.100,1.0,218.0,,,,,,,[],,,,,,62.5,0.0,u,0.0,True,824.4999999981374,50.0,60.0,40.0,False,,254.52201856494602,[],"[676.5, 380.5]",ColorTask,96.0,101.0,,,HRV,HRV_0072,2022-11-30 18:16:55
,wl-rdm,219,681662,0.0-8.101-0.101,1.0,219.0,,,,,,,[],,,,,,50.0,0.0,u,0.0,True,917.0000000018626,54.0,60.0,40.0,False,,336.19537220939105,[],"[676.5, 380.5]",ColorTask,97.0,102.0,,,HRV,HRV_0072,2022-11-30 18:16:55
,wl-rdm,220,683727,0.0-8.102-0.102,1.0,220.0,,,,,,,[],,,,,,87.9,1.0,i,1.0,True,768.0999999996275,46.0,60.0,40.0,False,,230.35889847956705,[],"[676.5, 380.5]",ColorTask,98.0,103.0,,,HRV,HRV_0072,2022-11-30 18:16:55
,wl-rdm,221,686523,0.0-8.103-0.103,1.0,221.0,,,,,,,[],,,,,,53.2,1.0,i,1.0,True,1407.6000000014901,84.0,60.0,40.0,False,,305.684041118623,[],"[676.5, 380.5]",ColorTask,99.0,104.0,,,HRV,HRV_0072,2022-11-30 18:16:55
,wl-rdm,222,689254,0.0-8.104-0.104,1.0,222.0,,,,,,,[],,,,,,62.5,1.0,i,1.0,True,1434.199999999255,86.0,60.0,40.0,False,,228.71977668439308,[],"[676.5, 380.5]",ColorTask,100.0,105.0,,,HRV,HRV_0072,2022-11-30 18:16:55
,wl-rdm,223,691701,0.0-8.105-0.105,1.0,223.0,,,,,,,[],,,,,,56.4,0.0,u,0.0,True,1070.5999999996275,65.0,60.0,40.0,False,,266.2492282627894,[],"[676.5, 380.5]",ColorTask,101.0,106.0,,,HRV,HRV_0072,2022-11-30 18:16:55
,wl-rdm,224,694015,0.0-8.106-0.106,1.0,224.0,,,,,,,[],,,,,,62.5,1.0,i,1.0,True,975.2999999988824,58.0,60.0,40.0,False,,240.6387569343787,[],"[676.5, 380.5]",ColorTask,102.0,107.0,,,HRV,HRV_0072,2022-11-30 18:16:55
,wl-rdm,225,696463,0.0-8.107-0.107,1.0,225.0,,,,,,,[],,,,,,62.5,1.0,i,1.0,True,1053.0999999996275,61.0,60.0,40.0,False,,316.7396848268122,[],"[676.5, 380.5]",ColorTask,103.0,108.0,,,HRV,HRV_0072,2022-11-30 18:16:55
,wl-html-button-response,226,701200,0.0-9.0-0.0,,,,,,,,,,4717.199999999255,,0,,,,,,,,,,,,,,,,,,,,<h3>End of this session. Thank you!</h3><br>,['Close window'],HRV,HRV_0072,2022-11-30 18:16:55
