success,trial_type,trial_index,time_elapsed,internal_node_id,Block,TrialNumber,TrialTime,trialTimeDiff,FPS_avg,FPS_med,FPS_mode,TrialDur,winResizeTime,rt,block,button_pressed,MotCoh,MotDir,ColCoh,Color,ChoiceKey,Choice,Accuracy,RT,nFrames,FPS,PPD,missTrial,missTrialMsg,onsetDelay,fullScreenExitTime,canvCenter,TrialType,Score,BlockTrial,stimulus,button_labels,exp,subjectId,date
True,fullscreen,0,2560,0.0-0.0,0.0,1.0,,,,,,,,,,,,,,,,,,,,,,,,,,,,,,,,HRV,HRV_0201,2022-11-30 18:54:39
,wl-check-fps,1,7645,0.0-1.0,0.0,2.0,"[7306, 7308.1, 7331, 7355.3, 7361.5, 7378.2, 7395.3, 7411.2, 7428.3, 7442.9, 7460.8, 7476.5, 7494.9, 7510.7, 7526.5, 7544, 7559.7, 7576.7, 7595, 7610.9, 7626.7, 7644.7, 7659.7, 7676.5, 7694.1, 7709.7, 7726.7, 7744.1, 7759.9, 7777.4, 7793.1, 7810.1, 7828.4, 7843.2, 7860.5, 7876.3, 7893.3, 7910.5, 7926.3, 7943.4, 7960.6, 7977.6, 7994.8, 8011.2, 8027.8, 8044.7, 8061.3, 8076.5, 8094.6, 8111.6, 8126.4, 8143.2, 8160.2, 8178.5, 8194.7, 8210.3, 8228.6, 8244, 8259.9, 8277, 8294.8, 8311.9, 8326.7, 8345, 8362, 8378.2, 8395.1, 8410, 8428.2, 8445.3, 8460.2, 8478, 8493.5, 8511.8, 8527.2, 8544.9, 8560.6, 8577.6, 8593.5, 8610.5, 8628.7, 8643.6, 8660.8, 8678.8, 8693.6, 8711.6, 8728.2, 8747.8, 8764, 8777.4, 8795.3, 8814, 8828.3, 8844.1, 8862.1, 8878.1, 8894.2, 8911.2, 8927, 8945.2, 8960.2, 8978.4, 8995.5, 9010.2, 9027.3, 9044.3, 9060.2, 9077.2, 9094.3, 9111.4, 9127.2, 9144.7, 9161.2, 9177.3, 9194, 9211.1, 9227, 9244, 9261.2, 9277.1, 9294.4, 9312.3, 9327.2, 9345.4, 9360.3, 9377.4, 9393.7, 9411.9, 9428, 9443.8, 9460.9, 9477, 9494, 9511.3, 9527, 9544.2, 9561.5, 9577.2, 9594.8, 9612.3, 9627.4, 9644.6, 9661.1, 9677.7, 9694.9, 9710.5, 9728.7, 9744.6, 9761.7, 9777.1, 9794.1, 9811.2, 9827.2, 9844.7, 9862.4, 9877.3, 9893.9, 9912, 9929.1, 9943.9, 9961.2, 9977.4, 9994.7, 10010.5, 10027.7, 10044.6, 10061.4, 10079.3, 10094, 10111.1, 10129.4, 10144.2, 10161.4, 10177.3, 10194.4, 10212.6, 10227.4, 10245.3, 10262.3, 10277.8, 10294.9, 10310.8, 10327.5, 10344.5, 10360.7, 10377.6, 10394.8, 10410.6, 10428.1, 10445.1, 10460.8, 10479, 10495.2, 10511, 10528.3, 10544.3, 10562.2, 10579.1, 10596, 10612.1, 10627.8, 10645.2, 10660.9, 10678.4, 10695.2, 10711, 10728.3, 10744.1, 10761.2, 10779.1, 10796.1, 10811, 10828, 10844.1, 10861.1, 10879.2, 10896.2, 10912.7, 10929.4, 10944.9, 10962.7, 10979.7, 10995.9, 11012.1, 11029, 11046.4, 11061.5, 11079.2, 11096.2, 11111.5, 11129.2, 11146.3, 11162.3, 11179.3, 11196.3, 11211.1, 11229.5, 11246.7, 11261.1, 11277.9, 11295.7, 11312.8, 11327.9, 11345.2, 11363.2, 11378.4, 11395.9, 11411.1, 11429.2, 11445.7, 11461.8, 11479, 11496.4, 11511.1, 11528.2, 11545.8, 11561.3, 11578.5, 11594.5, 11611.4, 11629.6, 11644.5, 11661.8, 11678.9, 11694.7, 11711.9, 11727.9, 11744.9, 11762.2, 11778, 11795.3, 11811.9, 11829.6, 11845.8, 11861.5, 11878.6, 11894.5, 11912.7, 11929.7, 11944.6, 11962.4, 11978.1, 11995.4, 12012.4, 12028.2, 12046.2, 12063.4, 12078.3, 12094.8, 12112.1, 12128, 12145.1, 12163.2, 12179.1, 12196, 12211.5, 12228.9, 12244.7, 12261.9, 12279.1]","[92.2, 2.1, 22.9, 24.3, 6.2, 16.7, 17.1, 15.9, 17.1, 14.6, 17.9, 15.7, 18.4, 15.8, 15.8, 17.5, 15.7, 17, 18.3, 15.9, 15.8, 18, 15, 16.8, 17.6, 15.6, 17, 17.4, 15.8, 17.5, 15.7, 17, 18.3, 14.8, 17.3, 15.8, 17, 17.2, 15.8, 17.1, 17.2, 17, 17.2, 16.4, 16.6, 16.9, 16.6, 15.2, 18.1, 17, 14.8, 16.8, 17, 18.3, 16.2, 15.6, 18.3, 15.4, 15.9, 17.1, 17.8, 17.1, 14.8, 18.3, 17, 16.2, 16.9, 14.9, 18.2, 17.1, 14.9, 17.8, 15.5, 18.3, 15.4, 17.7, 15.7, 17, 15.9, 17, 18.2, 14.9, 17.2, 18, 14.8, 18, 16.6, 19.6, 16.2, 13.4, 17.9, 18.7, 14.3, 15.8, 18, 16, 16.1, 17, 15.8, 18.2, 15, 18.2, 17.1, 14.7, 17.1, 17, 15.9, 17, 17.1, 17.1, 15.8, 17.5, 16.5, 16.1, 16.7, 17.1, 15.9, 17, 17.2, 15.9, 17.3, 17.9, 14.9, 18.2, 14.9, 17.1, 16.3, 18.2, 16.1, 15.8, 17.1, 16.1, 17, 17.3, 15.7, 17.2, 17.3, 15.7, 17.6, 17.5, 15.1, 17.2, 16.5, 16.6, 17.2, 15.6, 18.2, 15.9, 17.1, 15.4, 17, 17.1, 16, 17.5, 17.7, 14.9, 16.6, 18.1, 17.1, 14.8, 17.3, 16.2, 17.3, 15.8, 17.2, 16.9, 16.8, 17.9, 14.7, 17.1, 18.3, 14.8, 17.2, 15.9, 17.1, 18.2, 14.8, 17.9, 17, 15.5, 17.1, 15.9, 16.7, 17, 16.2, 16.9, 17.2, 15.8, 17.5, 17, 15.7, 18.2, 16.2, 15.8, 17.3, 16, 17.9, 16.9, 16.9, 16.1, 15.7, 17.4, 15.7, 17.5, 16.8, 15.8, 17.3, 15.8, 17.1, 17.9, 17, 14.9, 17, 16.1, 17, 18.1, 17, 16.5, 16.7, 15.5, 17.8, 17, 16.2, 16.2, 16.9, 17.4, 15.1, 17.7, 17, 15.3, 17.7, 17.1, 16, 17, 17, 14.8, 18.4, 17.2, 14.4, 16.8, 17.8, 17.1, 15.1, 17.3, 18, 15.2, 17.5, 15.2, 18.1, 16.5, 16.1, 17.2, 17.4, 14.7, 17.1, 17.6, 15.5, 17.2, 16, 16.9, 18.2, 14.9, 17.3, 17.1, 15.8, 17.2, 16, 17, 17.3, 15.8, 17.3, 16.6, 17.7, 16.2, 15.7, 17.1, 15.9, 18.2, 17, 14.9, 17.8, 15.7, 17.3, 17, 15.8, 18, 17.2, 14.9, 16.5, 17.3, 15.9, 17.1, 18.1, 15.9, 16.9, 15.5, 17.4, 15.8, 17.2, 17.2]",59.0,62.0,59.0,5081.1,[],,,,,,,,,,,,,,,,,,,,,,,,,HRV,HRV_0201,2022-11-30 18:54:39
,wl-html-keyboard-response,2,29648,0.0-2.0-0.0,0.0,3.0,,,,,,,,19974.399999976158,0.0,0,,,,,,,,,,,,,,,,,,,,,,HRV,HRV_0201,2022-11-30 18:54:39
,wl-rdm,3,40008,0.0-3.0-0.0,0.0,4.0,,,,,,,[],,,,0.0,0.0,87.9,0.0,u,0.0,True,994.3000000119209,60.0,59.0,40.0,False,too_early ,3000.0,[],"[683, 384]",ColorTask_Demo,,,,,HRV,HRV_0201,2022-11-30 18:54:39
,wl-rdm,4,45509,0.0-3.0-1.0,0.0,5.0,,,,,,,[],,,,0.0,0.0,87.9,1.0,i,1.0,True,1420.800000011921,86.0,59.0,40.0,False,,2000.0,[],"[683, 384]",ColorTask_Demo,,,,,HRV,HRV_0201,2022-11-30 18:54:39
,wl-html-keyboard-response,5,79486,0.0-3.0-2.0,0.0,6.0,,,,,,,,31974.69999998808,0.0,1,,,,,,,,,,,,,,,,,,,,,,HRV,HRV_0201,2022-11-30 18:54:39
,wl-html-keyboard-response,6,88151,0.0-4.0-0.0,0.0,7.0,,,,,,,,6661.299999952316,0.0,0,,,,,,,,,,,,,,,,,,,,,,HRV,HRV_0201,2022-11-30 18:54:39
,wl-html-keyboard-response,7,96750,0.0-5.0-0.0,0.0,8.0,,,,,,,,6578.300000011921,0.0,0,,,,,,,,,,,,,,,,,,,,,,HRV,HRV_0201,2022-11-30 18:54:39
,wl-rdm,8,99046,0.0-6.0-0.0,0.0,9.0,,,,,,,[],,,,,,56.4,0.0,u,0.0,True,858.0,52.0,59.0,40.0,False,,356.71721250717746,[],"[683, 384]",ColorTask,1.0,1.0,,,HRV,HRV_0201,2022-11-30 18:54:39
,wl-rdm,9,101445,0.0-6.1-0.1,0.0,10.0,,,,,,,[],,,,,,73.6,0.0,u,0.0,True,1072.7999999523163,65.0,59.0,40.0,False,,261.15225643506807,[],"[683, 384]",ColorTask,2.0,2.0,,,HRV,HRV_0201,2022-11-30 18:54:39
,wl-rdm,10,103763,0.0-6.2-0.2,0.0,11.0,,,,,,,[],,,,,,53.2,1.0,u,0.0,False,958.8000000119209,58.0,59.0,40.0,False,,280.0129632988055,[],"[683, 384]",ColorTask,1.0,3.0,,,HRV,HRV_0201,2022-11-30 18:54:39
,wl-rdm,11,106015,0.0-6.3-0.3,0.0,12.0,,,,,,,[],,,,,,62.5,0.0,u,0.0,True,856.4000000357628,52.0,59.0,40.0,False,,302.3610853257851,[],"[683, 384]",ColorTask,2.0,4.0,,,HRV,HRV_0201,2022-11-30 18:54:39
,wl-rdm,12,108197,0.0-6.4-0.4,0.0,13.0,,,,,,,[],,,,,,50.0,1.0,u,0.0,False,863.1999999284744,52.0,59.0,40.0,False,,265.79664754998254,[],"[683, 384]",ColorTask,1.0,5.0,,,HRV,HRV_0201,2022-11-30 18:54:39
,wl-rdm,13,110482,0.0-6.5-0.5,0.0,14.0,,,,,,,[],,,,,,50.0,1.0,i,1.0,True,951.0999999642372,57.0,59.0,40.0,False,,271.2823556905015,[],"[683, 384]",ColorTask,2.0,6.0,,,HRV,HRV_0201,2022-11-30 18:54:39
,wl-rdm,14,112800,0.0-6.6-0.6,0.0,15.0,,,,,,,[],,,,,,87.9,1.0,i,1.0,True,985.6999999284744,60.0,59.0,40.0,False,,263.6055216148121,[],"[683, 384]",ColorTask,3.0,7.0,,,HRV,HRV_0201,2022-11-30 18:54:39
,wl-rdm,15,115234,0.0-6.7-0.7,0.0,16.0,,,,,,,[],,,,,,50.0,1.0,i,1.0,True,1103.699999988079,67.0,59.0,40.0,False,,253.67433650291807,[],"[683, 384]",ColorTask,4.0,8.0,,,HRV,HRV_0201,2022-11-30 18:54:39
,wl-rdm,16,117386,0.0-6.8-0.8,0.0,17.0,,,,,,,[],,,,,,62.5,1.0,i,1.0,True,786.5,48.0,59.0,40.0,False,,290.9804194491515,[],"[683, 384]",ColorTask,5.0,9.0,,,HRV,HRV_0201,2022-11-30 18:54:39
,wl-rdm,17,119619,0.0-6.9-0.9,0.0,18.0,,,,,,,[],,,,,,53.2,1.0,i,1.0,True,753.0000000596046,46.0,59.0,40.0,False,,371.47757085228085,[],"[683, 384]",ColorTask,6.0,10.0,,,HRV,HRV_0201,2022-11-30 18:54:39
,wl-rdm,18,121736,0.0-6.10-0.10,0.0,19.0,,,,,,,[],,,,,,87.9,1.0,i,1.0,True,776.9000000357628,47.0,59.0,40.0,False,,282.3533592813468,[],"[683, 384]",ColorTask,7.0,11.0,,,HRV,HRV_0201,2022-11-30 18:54:39
,wl-rdm,19,123954,0.0-6.11-0.11,0.0,20.0,,,,,,,[],,,,,,62.5,1.0,u,0.0,False,769.0,47.0,59.0,40.0,False,,363.31207724622175,[],"[683, 384]",ColorTask,6.0,12.0,,,HRV,HRV_0201,2022-11-30 18:54:39
,wl-rdm,20,125987,0.0-6.12-0.12,0.0,21.0,,,,,,,[],,,,,,87.9,0.0,i,1.0,False,590.5,36.0,59.0,40.0,False,,371.06498172266095,[],"[683, 384]",ColorTask,5.0,13.0,,,HRV,HRV_0201,2022-11-30 18:54:39
,wl-rdm,21,128205,0.0-6.13-0.13,0.0,22.0,,,,,,,[],,,,,,53.2,1.0,u,0.0,False,847.0,51.0,59.0,40.0,False,,295.2651156635644,[],"[683, 384]",ColorTask,4.0,14.0,,,HRV,HRV_0201,2022-11-30 18:54:39
,wl-rdm,22,130306,0.0-6.14-0.14,0.0,23.0,,,,,,,[],,,,,,50.0,0.0,u,0.0,True,686.1000000238419,42.0,59.0,40.0,False,,332.5627120764715,[],"[683, 384]",ColorTask,5.0,15.0,,,HRV,HRV_0201,2022-11-30 18:54:39
,wl-rdm,23,132642,0.0-6.15-0.15,0.0,24.0,,,,,,,[],,,,,,53.2,0.0,u,0.0,True,970.1999999880791,59.0,59.0,40.0,False,,275.941147497711,[],"[683, 384]",ColorTask,6.0,16.0,,,HRV,HRV_0201,2022-11-30 18:54:39
,wl-rdm,24,134643,0.0-6.16-0.16,0.0,25.0,,,,,,,[],,,,,,50.0,0.0,u,0.0,True,676.0999999642372,41.0,59.0,40.0,False,,262.6007218088048,[],"[683, 384]",ColorTask,7.0,17.0,,,HRV,HRV_0201,2022-11-30 18:54:39
,wl-rdm,25,137009,0.0-6.17-0.17,0.0,26.0,,,,,,,[],,,,,,62.5,1.0,u,0.0,False,1035.0999999642372,63.0,59.0,40.0,False,,236.42961321319711,[],"[683, 384]",ColorTask,6.0,18.0,,,HRV,HRV_0201,2022-11-30 18:54:39
,wl-rdm,26,139210,0.0-6.18-0.18,0.0,27.0,,,,,,,[],,,,,,87.9,0.0,u,0.0,True,827.5000000596046,50.0,59.0,40.0,False,,298.1181489356922,[],"[683, 384]",ColorTask,7.0,19.0,,,HRV,HRV_0201,2022-11-30 18:54:39
,wl-rdm,27,141494,0.0-6.19-0.19,0.0,28.0,,,,,,,[],,,,,,62.5,1.0,i,1.0,True,1013.6000000238419,61.0,59.0,40.0,False,,204.6176772404525,[],"[683, 384]",ColorTask,8.0,20.0,,,HRV,HRV_0201,2022-11-30 18:54:39
,wl-rdm,28,144178,0.0-6.20-0.20,0.0,29.0,,,,,,,[],,,,,,56.4,1.0,u,0.0,False,1226.0999999642372,74.0,59.0,40.0,False,,390.0308885185433,[],"[683, 384]",ColorTask,7.0,21.0,,,HRV,HRV_0201,2022-11-30 18:54:39
,wl-rdm,29,146479,0.0-6.21-0.21,0.0,30.0,,,,,,,[],,,,,,87.9,0.0,u,0.0,True,970.0,59.0,59.0,40.0,False,,266.2326111285534,[],"[683, 384]",ColorTask,8.0,22.0,,,HRV,HRV_0201,2022-11-30 18:54:39
,wl-rdm,30,148663,0.0-6.22-0.22,0.0,31.0,,,,,,,[],,,,,,87.9,0.0,u,0.0,True,778.7000000476837,47.0,59.0,40.0,False,,348.06144554513253,[],"[683, 384]",ColorTask,9.0,23.0,,,HRV,HRV_0201,2022-11-30 18:54:39
,wl-rdm,31,151131,0.0-6.23-0.23,0.0,32.0,,,,,,,[],,,,,,56.4,0.0,u,0.0,True,1126.0,68.0,59.0,40.0,False,,258.32945006600096,[],"[683, 384]",ColorTask,10.0,24.0,,,HRV,HRV_0201,2022-11-30 18:54:39
,wl-rdm,32,153366,0.0-6.24-0.24,0.0,33.0,,,,,,,[],,,,,,87.9,1.0,i,1.0,True,864.6999999880791,52.0,59.0,40.0,False,,298.6810940913112,[],"[683, 384]",ColorTask,11.0,25.0,,,HRV,HRV_0201,2022-11-30 18:54:39
,wl-rdm,33,155617,0.0-6.25-0.25,0.0,34.0,,,,,,,[],,,,,,87.9,0.0,u,0.0,True,859.8000000119209,52.0,59.0,40.0,False,,329.4322742561883,[],"[683, 384]",ColorTask,12.0,26.0,,,HRV,HRV_0201,2022-11-30 18:54:39
,wl-rdm,34,158068,0.0-6.26-0.26,0.0,35.0,,,,,,,[],,,,,,53.2,0.0,u,0.0,True,1009.2000000476837,61.0,59.0,40.0,False,,391.0486805458547,[],"[683, 384]",ColorTask,13.0,27.0,,,HRV,HRV_0201,2022-11-30 18:54:39
,wl-rdm,35,160286,0.0-6.27-0.27,0.0,36.0,,,,,,,[],,,,,,50.0,0.0,u,0.0,True,922.6000000238419,56.0,59.0,40.0,False,,221.01918167621474,[],"[683, 384]",ColorTask,14.0,28.0,,,HRV,HRV_0201,2022-11-30 18:54:39
,wl-rdm,36,162603,0.0-6.28-0.28,0.0,37.0,,,,,,,[],,,,,,50.0,1.0,u,0.0,False,993.0,60.0,59.0,40.0,False,,253.3949967982183,[],"[683, 384]",ColorTask,13.0,29.0,,,HRV,HRV_0201,2022-11-30 18:54:39
,wl-rdm,37,164953,0.0-6.29-0.29,0.0,38.0,,,,,,,[],,,,,,53.2,1.0,u,0.0,False,943.8000000119209,57.0,59.0,40.0,False,,327.38110431218627,[],"[683, 384]",ColorTask,12.0,30.0,,,HRV,HRV_0201,2022-11-30 18:54:39
,wl-rdm,38,166955,0.0-6.30-0.30,0.0,39.0,,,,,,,[],,,,,,73.6,0.0,i,1.0,False,575.8999999761581,35.0,59.0,40.0,False,,354.54229096506526,[],"[683, 384]",ColorTask,11.0,31.0,,,HRV,HRV_0201,2022-11-30 18:54:39
,wl-rdm,39,168939,0.0-6.31-0.31,0.0,40.0,,,,,,,[],,,,,,56.4,0.0,u,0.0,True,675.7999999523163,41.0,59.0,40.0,False,,240.0432901681726,[],"[683, 384]",ColorTask,12.0,32.0,,,HRV,HRV_0201,2022-11-30 18:54:39
,wl-rdm,40,171073,0.0-6.32-0.32,0.0,41.0,,,,,,,[],,,,,,73.6,0.0,u,0.0,True,811.8000000119209,49.0,59.0,40.0,False,,238.60763128097574,[],"[683, 384]",ColorTask,13.0,33.0,,,HRV,HRV_0201,2022-11-30 18:54:39
,wl-rdm,41,173324,0.0-6.33-0.33,0.0,42.0,,,,,,,[],,,,,,73.6,1.0,i,1.0,True,817.3000000119209,49.0,59.0,40.0,False,,352.63574479937574,[],"[683, 384]",ColorTask,14.0,34.0,,,HRV,HRV_0201,2022-11-30 18:54:39
,wl-rdm,42,175543,0.0-6.34-0.34,0.0,43.0,,,,,,,[],,,,,,73.6,0.0,u,0.0,True,931.8999999761581,56.0,59.0,40.0,False,,206.61246495068758,[],"[683, 384]",ColorTask,15.0,35.0,,,HRV,HRV_0201,2022-11-30 18:54:39
,wl-rdm,43,178108,0.0-6.35-0.35,0.0,44.0,,,,,,,[],,,,,,62.5,0.0,i,1.0,False,1265.4000000357628,76.0,59.0,40.0,False,,244.1338214480645,[],"[683, 384]",ColorTask,14.0,36.0,,,HRV,HRV_0201,2022-11-30 18:54:39
,wl-rdm,44,180342,0.0-6.36-0.36,0.0,45.0,,,,,,,[],,,,,,62.5,1.0,u,0.0,False,829.6000000238419,50.0,59.0,40.0,False,,331.5375098894448,[],"[683, 384]",ColorTask,13.0,37.0,,,HRV,HRV_0201,2022-11-30 18:54:39
,wl-rdm,45,182561,0.0-6.37-0.37,0.0,46.0,,,,,,,[],,,,,,56.4,1.0,u,0.0,False,904.8999999761581,55.0,59.0,40.0,False,,216.38396465194205,[],"[683, 384]",ColorTask,12.0,38.0,,,HRV,HRV_0201,2022-11-30 18:54:39
,wl-rdm,46,184777,0.0-6.38-0.38,0.0,47.0,,,,,,,[],,,,,,87.9,1.0,i,1.0,True,759.8000000119209,46.0,59.0,40.0,False,,376.2846073280082,[],"[683, 384]",ColorTask,13.0,39.0,,,HRV,HRV_0201,2022-11-30 18:54:39
,wl-rdm,47,187029,0.0-6.39-0.39,0.0,48.0,,,,,,,[],,,,,,56.4,1.0,i,1.0,True,881.3000000119209,53.0,59.0,40.0,False,,289.00698966202845,[],"[683, 384]",ColorTask,14.0,40.0,,,HRV,HRV_0201,2022-11-30 18:54:39
,wl-rdm,48,189262,0.0-6.40-0.40,0.0,49.0,,,,,,,[],,,,,,56.4,1.0,i,1.0,True,771.0999999642372,47.0,59.0,40.0,False,,385.3103531927844,[],"[683, 384]",ColorTask,15.0,41.0,,,HRV,HRV_0201,2022-11-30 18:54:39
,wl-rdm,49,191364,0.0-6.41-0.41,0.0,50.0,,,,,,,[],,,,,,53.2,0.0,i,1.0,False,724.4000000357628,44.0,59.0,40.0,False,,306.5280581257838,[],"[683, 384]",ColorTask,14.0,42.0,,,HRV,HRV_0201,2022-11-30 18:54:39
,wl-rdm,50,193531,0.0-6.42-0.42,0.0,51.0,,,,,,,[],,,,,,56.4,1.0,u,0.0,False,809.4000000953674,49.0,59.0,40.0,False,,271.892808359786,[],"[683, 384]",ColorTask,13.0,43.0,,,HRV,HRV_0201,2022-11-30 18:54:39
,wl-rdm,51,195649,0.0-6.43-0.43,0.0,52.0,,,,,,,[],,,,,,73.6,1.0,u,0.0,False,810.6999999880791,49.0,59.0,40.0,False,,240.6481820319759,[],"[683, 384]",ColorTask,12.0,44.0,,,HRV,HRV_0201,2022-11-30 18:54:39
,wl-rdm,52,197799,0.0-6.44-0.44,0.0,53.0,,,,,,,[],,,,,,87.9,1.0,i,1.0,True,720.6999999880791,44.0,59.0,40.0,False,,352.0903127219427,[],"[683, 384]",ColorTask,13.0,45.0,,,HRV,HRV_0201,2022-11-30 18:54:39
,wl-rdm,53,200067,0.0-6.45-0.45,0.0,54.0,,,,,,,[],,,,,,50.0,0.0,u,0.0,True,950.4000000357628,57.0,59.0,40.0,False,,243.68951195859273,[],"[683, 384]",ColorTask,14.0,46.0,,,HRV,HRV_0201,2022-11-30 18:54:39
,wl-rdm,54,202333,0.0-6.46-0.46,0.0,55.0,,,,,,,[],,,,,,53.2,1.0,u,0.0,False,937.5,57.0,59.0,40.0,False,,257.0605049282709,[],"[683, 384]",ColorTask,13.0,47.0,,,HRV,HRV_0201,2022-11-30 18:54:39
,wl-rdm,55,204885,0.0-6.47-0.47,0.0,56.0,,,,,,,[],,,,,,62.5,1.0,i,1.0,True,1113.1000000238419,67.0,59.0,40.0,False,,353.2516960049602,[],"[683, 384]",ColorTask,14.0,48.0,,,HRV,HRV_0201,2022-11-30 18:54:39
,wl-rdm,56,207102,0.0-6.48-0.48,0.0,57.0,,,,,,,[],,,,,,62.5,0.0,i,1.0,False,872.1999999880791,53.0,59.0,40.0,False,,251.87984315312366,[],"[683, 384]",ColorTask,13.0,49.0,,,HRV,HRV_0201,2022-11-30 18:54:39
,wl-rdm,57,209555,0.0-6.49-0.49,0.0,58.0,,,,,,,[],,,,,,62.5,0.0,i,1.0,False,1137.6000000238419,69.0,59.0,40.0,False,,231.23149112580086,[],"[683, 384]",ColorTask,12.0,50.0,,,HRV,HRV_0201,2022-11-30 18:54:39
,wl-rdm,58,211671,0.0-6.50-0.50,0.0,59.0,,,,,,,[],,,,,,73.6,0.0,u,0.0,True,820.8000000119209,50.0,59.0,40.0,False,,219.93932678016859,[],"[683, 384]",ColorTask,13.0,51.0,,,HRV,HRV_0201,2022-11-30 18:54:39
,wl-rdm,59,213906,0.0-6.51-0.51,0.0,60.0,,,,,,,[],,,,,,73.6,0.0,u,0.0,True,836.5999999642372,51.0,59.0,40.0,False,,326.26006878784347,[],"[683, 384]",ColorTask,14.0,52.0,,,HRV,HRV_0201,2022-11-30 18:54:39
,wl-rdm,60,216122,0.0-6.52-0.52,0.0,61.0,,,,,,,[],,,,,,73.6,1.0,i,1.0,True,916.4000000357628,55.0,59.0,40.0,False,,223.27636560223885,[],"[683, 384]",ColorTask,15.0,53.0,,,HRV,HRV_0201,2022-11-30 18:54:39
,wl-rdm,61,218541,0.0-6.53-0.53,0.0,62.0,,,,,,,[],,,,,,73.6,0.0,u,0.0,True,1015.3000000715256,61.0,59.0,40.0,False,,329.1982042797504,[],"[683, 384]",ColorTask,16.0,54.0,,,HRV,HRV_0201,2022-11-30 18:54:39
,wl-rdm,62,220858,0.0-6.54-0.54,0.0,63.0,,,,,,,[],,,,,,73.6,0.0,u,0.0,True,876.1999999880791,53.0,59.0,40.0,False,,356.18423065493636,[],"[683, 384]",ColorTask,17.0,55.0,,,HRV,HRV_0201,2022-11-30 18:54:39
,wl-rdm,63,223391,0.0-6.55-0.55,0.0,64.0,,,,,,,[],,,,,,50.0,1.0,i,1.0,True,1136.8999999761581,69.0,59.0,40.0,False,,328.3051327320637,[],"[683, 384]",ColorTask,18.0,56.0,,,HRV,HRV_0201,2022-11-30 18:54:39
,wl-rdm,64,225860,0.0-6.56-0.56,0.0,65.0,,,,,,,[],,,,,,50.0,1.0,i,1.0,True,1140.0999999642372,69.0,59.0,40.0,False,,258.874486343534,[],"[683, 384]",ColorTask,19.0,57.0,,,HRV,HRV_0201,2022-11-30 18:54:39
,wl-rdm,65,228126,0.0-6.57-0.57,0.0,66.0,,,,,,,[],,,,,,56.4,0.0,i,1.0,False,844.6000000238419,51.0,59.0,40.0,False,,338.0727516112062,[],"[683, 384]",ColorTask,18.0,58.0,,,HRV,HRV_0201,2022-11-30 18:54:39
,wl-rdm,66,230377,0.0-6.58-0.58,0.0,67.0,,,,,,,[],,,,,,50.0,1.0,u,0.0,False,825.1999999880791,50.0,59.0,40.0,False,,353.82716843921355,[],"[683, 384]",ColorTask,17.0,59.0,,,HRV,HRV_0201,2022-11-30 18:54:39
,wl-rdm,67,232465,0.0-6.59-0.59,0.0,68.0,,,,,,,[],,,,,,87.9,1.0,i,1.0,True,787.8000000119209,48.0,59.0,40.0,False,,230.9874990956639,[],"[683, 384]",ColorTask,18.0,60.0,,,HRV,HRV_0201,2022-11-30 18:54:39
,wl-rdm,68,235247,0.0-6.60-0.60,0.0,69.0,,,,,,,[],,,,,,50.0,0.0,u,0.0,True,1336.5,81.0,59.0,40.0,False,,368.5130713465847,[],"[683, 384]",ColorTask,19.0,61.0,,,HRV,HRV_0201,2022-11-30 18:54:39
,wl-rdm,69,237730,0.0-6.61-0.61,0.0,70.0,,,,,,,[],,,,,,50.0,0.0,u,0.0,True,1032.6000000238419,62.0,59.0,40.0,False,,392.6595015572942,[],"[683, 384]",ColorTask,20.0,62.0,,,HRV,HRV_0201,2022-11-30 18:54:39
,wl-rdm,70,239915,0.0-6.62-0.62,0.0,71.0,,,,,,,[],,,,,,62.5,0.0,u,0.0,True,848.6000000238419,51.0,59.0,40.0,False,,265.8709064994193,[],"[683, 384]",ColorTask,21.0,63.0,,,HRV,HRV_0201,2022-11-30 18:54:39
,wl-rdm,71,241949,0.0-6.63-0.63,0.0,72.0,,,,,,,[],,,,,,53.2,0.0,u,0.0,True,712.8999999761581,43.0,59.0,40.0,False,,261.79246591265195,[],"[683, 384]",ColorTask,22.0,64.0,,,HRV,HRV_0201,2022-11-30 18:54:39
,wl-rdm,72,244367,0.0-6.64-0.64,0.0,73.0,,,,,,,[],,,,,,56.4,0.0,i,1.0,False,1003.6999999880791,61.0,59.0,40.0,False,,319.7356019860807,[],"[683, 384]",ColorTask,21.0,65.0,,,HRV,HRV_0201,2022-11-30 18:54:39
,wl-rdm,73,246634,0.0-6.65-0.65,0.0,74.0,,,,,,,[],,,,,,73.6,1.0,i,1.0,True,936.0999999642372,57.0,59.0,40.0,False,,236.38338552653767,[],"[683, 384]",ColorTask,22.0,66.0,,,HRV,HRV_0201,2022-11-30 18:54:39
,wl-rdm,74,248968,0.0-6.66-0.66,0.0,75.0,,,,,,,[],,,,,,87.9,0.0,u,0.0,True,869.5,53.0,59.0,40.0,False,,375.5429293133398,[],"[683, 384]",ColorTask,23.0,67.0,,,HRV,HRV_0201,2022-11-30 18:54:39
,wl-rdm,75,251436,0.0-6.67-0.67,0.0,76.0,,,,,,,[],,,,,,62.5,1.0,i,1.0,True,1024.0999999642372,62.0,59.0,40.0,False,,362.32518417758797,[],"[683, 384]",ColorTask,24.0,68.0,,,HRV,HRV_0201,2022-11-30 18:54:39
,wl-rdm,76,253970,0.0-6.68-0.68,0.0,77.0,,,,,,,[],,,,,,53.2,0.0,u,0.0,True,1198.7999999523163,72.0,59.0,40.0,False,,273.91205045673513,[],"[683, 384]",ColorTask,25.0,69.0,,,HRV,HRV_0201,2022-11-30 18:54:39
,wl-rdm,77,256204,0.0-6.69-0.69,0.0,78.0,,,,,,,[],,,,,,73.6,1.0,i,1.0,True,956.4999999403954,58.0,59.0,40.0,False,,210.50928149613313,[],"[683, 384]",ColorTask,26.0,70.0,,,HRV,HRV_0201,2022-11-30 18:54:39
,wl-rdm,78,258639,0.0-6.70-0.70,0.0,79.0,,,,,,,[],,,,,,53.2,0.0,i,1.0,False,1004.0,61.0,59.0,40.0,False,,339.43433569383615,[],"[683, 384]",ColorTask,25.0,71.0,,,HRV,HRV_0201,2022-11-30 18:54:39
,wl-rdm,79,261173,0.0-6.71-0.71,0.0,80.0,,,,,,,[],,,,,,56.4,0.0,u,0.0,True,1171.2999999523163,71.0,59.0,40.0,False,,287.8390336510252,[],"[683, 384]",ColorTask,26.0,72.0,,,HRV,HRV_0201,2022-11-30 18:54:39
,wl-rdm,80,263474,0.0-6.72-0.72,0.0,81.0,,,,,,,[],,,,,,56.4,1.0,i,1.0,True,919.5999999642372,56.0,59.0,40.0,False,,291.91045392665137,[],"[683, 384]",ColorTask,27.0,73.0,,,HRV,HRV_0201,2022-11-30 18:54:39
,wl-rdm,81,265641,0.0-6.73-0.73,0.0,82.0,,,,,,,[],,,,,,73.6,1.0,i,1.0,True,825.9000000357628,50.0,59.0,40.0,False,,281.5599249599991,[],"[683, 384]",ColorTask,28.0,74.0,,,HRV,HRV_0201,2022-11-30 18:54:39
,wl-rdm,82,267828,0.0-6.74-0.74,0.0,83.0,,,,,,,[],,,,,,56.4,0.0,i,1.0,False,826.5000000596046,50.0,59.0,40.0,False,,269.4743610286976,[],"[683, 384]",ColorTask,27.0,75.0,,,HRV,HRV_0201,2022-11-30 18:54:39
,wl-rdm,83,270460,0.0-6.75-0.75,0.0,84.0,,,,,,,[],,,,,,56.4,1.0,i,1.0,True,1190.199999988079,72.0,59.0,40.0,False,,361.99605848550675,[],"[683, 384]",ColorTask,28.0,76.0,,,HRV,HRV_0201,2022-11-30 18:54:39
,wl-rdm,84,272694,0.0-6.76-0.76,0.0,85.0,,,,,,,[],,,,,,87.9,1.0,i,1.0,True,820.6000000238419,50.0,59.0,40.0,False,,344.9136311353918,[],"[683, 384]",ColorTask,29.0,77.0,,,HRV,HRV_0201,2022-11-30 18:54:39
,wl-rdm,85,275095,0.0-6.77-0.77,0.0,86.0,,,,,,,[],,,,,,53.2,1.0,u,0.0,False,919.7999999523163,56.0,59.0,40.0,False,,390.4827636736015,[],"[683, 384]",ColorTask,28.0,78.0,,,HRV,HRV_0201,2022-11-30 18:54:39
,wl-rdm,86,277112,0.0-6.78-0.78,0.0,87.0,,,,,,,[],,,,,,53.2,1.0,i,1.0,True,727.0999999642372,44.0,59.0,40.0,False,,205.85345360369053,[],"[683, 384]",ColorTask,29.0,79.0,,,HRV,HRV_0201,2022-11-30 18:54:39
,wl-rdm,87,278981,0.0-6.79-0.79,0.0,88.0,,,,,,,[],,,,,,56.4,0.0,i,1.0,False,531.2999999523163,32.0,59.0,40.0,False,,297.55885307355027,[],"[683, 384]",ColorTask,28.0,80.0,,,HRV,HRV_0201,2022-11-30 18:54:39
,wl-rdm,88,280947,0.0-6.80-0.80,0.0,89.0,,,,,,,[],,,,,,53.2,1.0,i,1.0,True,615.0,37.0,59.0,40.0,False,,299.78670628625446,[],"[683, 384]",ColorTask,29.0,81.0,,,HRV,HRV_0201,2022-11-30 18:54:39
,wl-rdm,89,282848,0.0-6.81-0.81,0.0,90.0,,,,,,,[],,,,,,50.0,1.0,u,0.0,False,603.6999999880791,37.0,59.0,40.0,False,,227.96180587400943,[],"[683, 384]",ColorTask,28.0,82.0,,,HRV,HRV_0201,2022-11-30 18:54:39
,wl-rdm,90,285165,0.0-6.82-0.82,0.0,91.0,,,,,,,[],,,,,,62.5,1.0,u,0.0,False,962.0,58.0,59.0,40.0,False,,273.091411336007,[],"[683, 384]",ColorTask,27.0,83.0,,,HRV,HRV_0201,2022-11-30 18:54:39
,wl-rdm,91,287066,0.0-6.83-0.83,0.0,92.0,,,,,,,[],,,,,,87.9,1.0,u,0.0,False,568.4999999403954,35.0,59.0,40.0,False,,234.46348950181095,[],"[683, 384]",ColorTask,26.0,84.0,,,HRV,HRV_0201,2022-11-30 18:54:39
,wl-rdm,92,289350,0.0-6.84-0.84,0.0,93.0,,,,,,,[],,,,,,53.2,0.0,i,1.0,False,987.5,60.0,59.0,40.0,False,,201.33979579342548,[],"[683, 384]",ColorTask,25.0,85.0,,,HRV,HRV_0201,2022-11-30 18:54:39
,wl-rdm,93,291834,0.0-6.85-0.85,0.0,94.0,,,,,,,[],,,,,,50.0,0.0,u,0.0,True,1098.2000000476837,66.0,59.0,40.0,False,,325.58956102271924,[],"[683, 384]",ColorTask,26.0,86.0,,,HRV,HRV_0201,2022-11-30 18:54:39
,wl-rdm,94,293953,0.0-6.86-0.86,0.0,95.0,,,,,,,[],,,,,,87.9,0.0,u,0.0,True,809.3999999165535,49.0,59.0,40.0,False,,248.48669300153517,[],"[683, 384]",ColorTask,27.0,87.0,,,HRV,HRV_0201,2022-11-30 18:54:39
,wl-rdm,95,296006,0.0-6.87-0.87,0.0,96.0,,,,,,,[],,,,,,53.2,1.0,u,0.0,False,723.8999999761581,44.0,59.0,40.0,False,,262.35251343305924,[],"[683, 384]",ColorTask,26.0,88.0,,,HRV,HRV_0201,2022-11-30 18:54:39
,wl-rdm,96,297921,0.0-6.88-0.88,0.0,97.0,,,,,,,[],,,,,,62.5,0.0,i,1.0,False,568.2000000476837,34.0,59.0,40.0,False,,286.4672884379247,[],"[683, 384]",ColorTask,25.0,89.0,,,HRV,HRV_0201,2022-11-30 18:54:39
,wl-rdm,97,299854,0.0-6.89-0.89,0.0,98.0,,,,,,,[],,,,,,56.4,0.0,i,1.0,False,638.1999999880791,39.0,59.0,40.0,False,,204.70649215624042,[],"[683, 384]",ColorTask,24.0,90.0,,,HRV,HRV_0201,2022-11-30 18:54:39
,wl-rdm,98,301839,0.0-6.90-0.90,0.0,99.0,,,,,,,[],,,,,,56.4,1.0,i,1.0,True,677.5000000596046,41.0,59.0,40.0,False,,240.01441875764817,[],"[683, 384]",ColorTask,25.0,91.0,,,HRV,HRV_0201,2022-11-30 18:54:39
,wl-rdm,99,303772,0.0-6.91-0.91,0.0,100.0,,,,,,,[],,,,,,73.6,1.0,u,0.0,False,580.1999999880791,35.0,59.0,40.0,False,,272.3713662788196,[],"[683, 384]",ColorTask,24.0,92.0,,,HRV,HRV_0201,2022-11-30 18:54:39
,wl-rdm,100,306258,0.0-6.92-0.92,0.0,101.0,,,,,,,[],,,,,,50.0,1.0,i,1.0,True,1026.0999999642372,62.0,59.0,40.0,False,,374.15951253293247,[],"[683, 384]",ColorTask,25.0,93.0,,,HRV,HRV_0201,2022-11-30 18:54:39
,wl-rdm,101,308474,0.0-6.93-0.93,0.0,102.0,,,,,,,[],,,,,,62.5,0.0,i,1.0,False,798.3999999165535,48.0,59.0,40.0,False,,362.26024203478715,[],"[683, 384]",ColorTask,24.0,94.0,,,HRV,HRV_0201,2022-11-30 18:54:39
,wl-rdm,102,310509,0.0-6.94-0.94,0.0,103.0,,,,,,,[],,,,,,87.9,0.0,u,0.0,True,763.6999999880791,46.0,59.0,40.0,False,,203.0634221052755,[],"[683, 384]",ColorTask,25.0,95.0,,,HRV,HRV_0201,2022-11-30 18:54:39
,wl-rdm,103,312392,0.0-6.95-0.95,0.0,104.0,,,,,,,[],,,,,,50.0,0.0,i,1.0,False,568.8000000119209,35.0,59.0,40.0,False,,250.2834829121826,[],"[683, 384]",ColorTask,24.0,96.0,,,HRV,HRV_0201,2022-11-30 18:54:39
,wl-rdm,104,314277,0.0-6.96-0.96,0.0,105.0,,,,,,,[],,,,,,53.2,0.0,u,0.0,True,463.69999998807907,28.0,59.0,40.0,False,,339.86273424610016,[],"[683, 384]",ColorTask,25.0,97.0,,,HRV,HRV_0201,2022-11-30 18:54:39
,wl-rdm,105,316060,0.0-6.97-0.97,0.0,106.0,,,,,,,[],,,,,,62.5,0.0,i,1.0,False,496.0,30.0,59.0,40.0,False,,216.89814798533442,[],"[683, 384]",ColorTask,24.0,98.0,,,HRV,HRV_0201,2022-11-30 18:54:39
,wl-rdm,106,317262,0.0-6.98-0.98,0.0,106.0,,,,,,,[],,,,,,87.9,0.0,u,,,651.6000000238419,0.0,59.0,40.0,True,too_early ,226.41315512359353,[],"[683, 384]",ColorTask,23.0,99.0,,,HRV,HRV_0201,2022-11-30 18:54:39
,wl-rdm,107,318711,0.0-6.99-0.99,0.0,107.0,,,,,,,[],,,,,,62.5,1.0,i,1.0,True,149.69999998807907,10.0,59.0,40.0,False,,230.44102797408976,[],"[683, 384]",ColorTask,24.0,100.0,,,HRV,HRV_0201,2022-11-30 18:54:39
,wl-rdm,108,320128,0.0-6.100-0.100,0.0,108.0,,,,,,,[],,,,,,53.2,0.0,i,1.0,False,142.10000002384186,9.0,59.0,40.0,False,,200.5399211618885,[],"[683, 384]",ColorTask,23.0,101.0,,,HRV,HRV_0201,2022-11-30 18:54:39
,wl-rdm,109,321529,0.0-6.101-0.101,0.0,108.0,,,,,,,[],,,,,,87.9,0.0,u,0.0,True,98.89999997615814,6.0,59.0,40.0,True,too_early ,239.83542580984493,[],"[683, 384]",ColorTask,24.0,102.0,,,HRV,HRV_0201,2022-11-30 18:54:39
,wl-rdm,110,323613,0.0-6.102-0.102,0.0,109.0,,,,,,,[],,,,,,62.5,0.0,u,0.0,True,645.8000000715256,39.0,59.0,40.0,False,,372.16340125697445,[],"[683, 384]",ColorTask,25.0,103.0,,,HRV,HRV_0201,2022-11-30 18:54:39
,wl-rdm,111,325798,0.0-6.103-0.103,0.0,110.0,,,,,,,[],,,,,,73.6,1.0,i,1.0,True,753.5000000596046,46.0,59.0,40.0,False,,353.62355211139084,[],"[683, 384]",ColorTask,26.0,104.0,,,HRV,HRV_0201,2022-11-30 18:54:39
,wl-rdm,112,327782,0.0-6.104-0.104,0.0,111.0,,,,,,,[],,,,,,87.9,0.0,i,1.0,False,670.1999999880791,41.0,59.0,40.0,False,,232.35328577128223,[],"[683, 384]",ColorTask,25.0,105.0,,,HRV,HRV_0201,2022-11-30 18:54:39
,wl-rdm,113,329967,0.0-6.105-0.105,0.0,112.0,,,,,,,[],,,,,,50.0,0.0,i,1.0,False,854.0,52.0,59.0,40.0,False,,264.2788137758679,[],"[683, 384]",ColorTask,24.0,106.0,,,HRV,HRV_0201,2022-11-30 18:54:39
,wl-rdm,114,331866,0.0-6.106-0.106,0.0,113.0,,,,,,,[],,,,,,73.6,1.0,u,0.0,False,597.8999999761581,36.0,59.0,40.0,False,,248.89515677976806,[],"[683, 384]",ColorTask,23.0,107.0,,,HRV,HRV_0201,2022-11-30 18:54:39
,wl-rdm,115,334134,0.0-6.107-0.107,0.0,114.0,,,,,,,[],,,,,,73.6,0.0,i,1.0,False,943.4999999403954,57.0,59.0,40.0,False,,259.86712380463183,[],"[683, 384]",ColorTask,22.0,108.0,,,HRV,HRV_0201,2022-11-30 18:54:39
,wl-rdm,116,336085,0.0-6.108-0.108,0.0,115.0,,,,,,,[],,,,,,56.4,1.0,i,1.0,True,570.8999999761581,35.0,59.0,40.0,False,,302.2635691394077,[],"[683, 384]",ColorTask,23.0,109.0,,,HRV,HRV_0201,2022-11-30 18:54:39
,wl-rdm,117,338486,0.0-6.109-0.109,0.0,116.0,,,,,,,[],,,,,,87.9,1.0,i,1.0,True,987.1999999880791,60.0,59.0,40.0,False,,334.0191581668113,[],"[683, 384]",ColorTask,24.0,110.0,,,HRV,HRV_0201,2022-11-30 18:54:39
,wl-html-keyboard-response,118,405488,0.0-7.0-0.0,1.0,117.0,,,,,,,,64993.0,1.0,0,,,,,,,,,,,,,,,,,,,,,,HRV,HRV_0201,2022-11-30 18:54:39
,wl-rdm,119,407663,0.0-8.0-0.0,1.0,118.0,,,,,,,[],,,,,,50.0,1.0,u,0.0,False,854.3000000119209,52.0,59.0,40.0,False,,243.4060475122912,[],"[683, 384]",ColorTask,23.0,1.0,,,HRV,HRV_0201,2022-11-30 18:54:39
,wl-rdm,120,409830,0.0-8.1-0.1,1.0,119.0,,,,,,,[],,,,,,73.6,1.0,i,1.0,True,819.3999999761581,50.0,59.0,40.0,False,,259.66858392832535,[],"[683, 384]",ColorTask,24.0,2.0,,,HRV,HRV_0201,2022-11-30 18:54:39
,wl-rdm,121,411965,0.0-8.2-0.2,1.0,120.0,,,,,,,[],,,,,,87.9,1.0,i,1.0,True,712.9000000357628,43.0,59.0,40.0,False,,361.18043325715837,[],"[683, 384]",ColorTask,25.0,3.0,,,HRV,HRV_0201,2022-11-30 18:54:39
,wl-rdm,122,414265,0.0-8.3-0.3,1.0,121.0,,,,,,,[],,,,,,53.2,0.0,i,1.0,False,902.7000000476837,55.0,59.0,40.0,False,,305.41530049540086,[],"[683, 384]",ColorTask,24.0,4.0,,,HRV,HRV_0201,2022-11-30 18:54:39
,wl-rdm,123,416583,0.0-8.4-0.4,1.0,122.0,,,,,,,[],,,,,,53.2,0.0,u,0.0,True,944.2999999523163,57.0,59.0,40.0,False,,310.25402315063457,[],"[683, 384]",ColorTask,25.0,5.0,,,HRV,HRV_0201,2022-11-30 18:54:39
,wl-rdm,124,419366,0.0-8.5-0.5,1.0,123.0,,,,,,,[],,,,,,62.5,0.0,u,0.0,True,1476.5,89.0,59.0,40.0,False,,240.2394022375478,[],"[683, 384]",ColorTask,26.0,6.0,,,HRV,HRV_0201,2022-11-30 18:54:39
,wl-rdm,125,421367,0.0-8.6-0.6,1.0,124.0,,,,,,,[],,,,,,53.2,0.0,u,0.0,True,668.9000000357628,41.0,59.0,40.0,False,,255.588491702121,[],"[683, 384]",ColorTask,27.0,7.0,,,HRV,HRV_0201,2022-11-30 18:54:39
,wl-rdm,126,423535,0.0-8.7-0.7,1.0,125.0,,,,,,,[],,,,,,73.6,1.0,i,1.0,True,817.2000000476837,49.0,59.0,40.0,False,,272.32969611786285,[],"[683, 384]",ColorTask,28.0,8.0,,,HRV,HRV_0201,2022-11-30 18:54:39
,wl-rdm,127,425936,0.0-8.8-0.8,1.0,126.0,,,,,,,[],,,,,,62.5,1.0,i,1.0,True,943.6999999880791,57.0,59.0,40.0,False,,382.7846600332993,[],"[683, 384]",ColorTask,29.0,9.0,,,HRV,HRV_0201,2022-11-30 18:54:39
,wl-rdm,128,428136,0.0-8.9-0.9,1.0,127.0,,,,,,,[],,,,,,50.0,0.0,i,1.0,False,915.8999999165535,55.0,59.0,40.0,False,,215.91984006950952,[],"[683, 384]",ColorTask,28.0,10.0,,,HRV,HRV_0201,2022-11-30 18:54:39
,wl-rdm,129,430304,0.0-8.10-0.10,1.0,128.0,,,,,,,[],,,,,,87.9,1.0,i,1.0,True,802.3000000119209,49.0,59.0,40.0,False,,272.39931413231363,[],"[683, 384]",ColorTask,29.0,11.0,,,HRV,HRV_0201,2022-11-30 18:54:39
,wl-rdm,130,432572,0.0-8.11-0.11,1.0,129.0,,,,,,,[],,,,,,62.5,0.0,u,0.0,True,879.0999999642372,53.0,59.0,40.0,False,,332.1209120587183,[],"[683, 384]",ColorTask,30.0,12.0,,,HRV,HRV_0201,2022-11-30 18:54:39
,wl-rdm,131,435055,0.0-8.12-0.12,1.0,130.0,,,,,,,[],,,,,,62.5,1.0,i,1.0,True,1136.1000000238419,69.0,59.0,40.0,False,,274.61930995650323,[],"[683, 384]",ColorTask,31.0,13.0,,,HRV,HRV_0201,2022-11-30 18:54:39
,wl-rdm,132,437540,0.0-8.13-0.13,1.0,131.0,,,,,,,[],,,,,,56.4,0.0,i,1.0,False,1046.0,63.0,59.0,40.0,False,,378.804095873816,[],"[683, 384]",ColorTask,30.0,14.0,,,HRV,HRV_0201,2022-11-30 18:54:39
,wl-rdm,133,439507,0.0-8.14-0.14,1.0,132.0,,,,,,,[],,,,,,87.9,0.0,u,0.0,True,696.3000000119209,42.0,59.0,40.0,False,,210.1014782676753,[],"[683, 384]",ColorTask,31.0,15.0,,,HRV,HRV_0201,2022-11-30 18:54:39
,wl-rdm,134,441809,0.0-8.15-0.15,1.0,133.0,,,,,,,[],,,,,,53.2,1.0,i,1.0,True,1032.3999999761581,62.0,59.0,40.0,False,,206.24342972436355,[],"[683, 384]",ColorTask,32.0,16.0,,,HRV,HRV_0201,2022-11-30 18:54:39
,wl-rdm,135,444959,0.0-8.16-0.16,1.0,134.0,,,,,,,[],,,,,,87.9,1.0,i,1.0,True,1693.2999999523163,102.0,59.0,40.0,False,,397.48381921095137,[],"[683, 384]",ColorTask,33.0,17.0,,,HRV,HRV_0201,2022-11-30 18:54:39
,wl-rdm,136,446943,0.0-8.17-0.17,1.0,135.0,,,,,,,[],,,,,,50.0,1.0,u,0.0,False,509.19999998807907,31.0,59.0,40.0,False,,384.6875317255853,[],"[683, 384]",ColorTask,32.0,18.0,,,HRV,HRV_0201,2022-11-30 18:54:39
,wl-rdm,137,448877,0.0-8.18-0.18,1.0,136.0,,,,,,,[],,,,,,56.4,1.0,i,1.0,True,636.6999999880791,39.0,59.0,40.0,False,,205.93445462905686,[],"[683, 384]",ColorTask,33.0,19.0,,,HRV,HRV_0201,2022-11-30 18:54:39
,wl-rdm,138,451112,0.0-8.19-0.19,1.0,137.0,,,,,,,[],,,,,,56.4,0.0,u,0.0,True,876.8999999761581,53.0,59.0,40.0,False,,275.8399008739706,[],"[683, 384]",ColorTask,34.0,20.0,,,HRV,HRV_0201,2022-11-30 18:54:39
,wl-rdm,139,453479,0.0-8.20-0.20,1.0,138.0,,,,,,,[],,,,,,50.0,1.0,u,0.0,False,1033.5999999642372,61.0,59.0,40.0,False,,276.2135678617883,[],"[683, 384]",ColorTask,33.0,21.0,,,HRV,HRV_0201,2022-11-30 18:54:39
,wl-rdm,140,455680,0.0-8.21-0.21,1.0,139.0,,,,,,,[],,,,,,73.6,0.0,u,0.0,True,782.5,47.0,59.0,40.0,False,,353.0901785157271,[],"[683, 384]",ColorTask,34.0,22.0,,,HRV,HRV_0201,2022-11-30 18:54:39
,wl-rdm,141,457881,0.0-8.22-0.22,1.0,140.0,,,,,,,[],,,,,,87.9,0.0,u,0.0,True,864.8999999761581,52.0,59.0,40.0,False,,268.45198614903285,[],"[683, 384]",ColorTask,35.0,23.0,,,HRV,HRV_0201,2022-11-30 18:54:39
,wl-rdm,142,460014,0.0-8.23-0.23,1.0,141.0,,,,,,,[],,,,,,62.5,1.0,i,1.0,True,760.3999999761581,46.0,59.0,40.0,False,,307.76175026860346,[],"[683, 384]",ColorTask,36.0,24.0,,,HRV,HRV_0201,2022-11-30 18:54:39
,wl-rdm,143,462300,0.0-8.24-0.24,1.0,142.0,,,,,,,[],,,,,,56.4,0.0,i,1.0,False,921.5,56.0,59.0,40.0,False,,279.945959396989,[],"[683, 384]",ColorTask,35.0,25.0,,,HRV,HRV_0201,2022-11-30 18:54:39
,wl-rdm,144,464150,0.0-8.25-0.25,1.0,143.0,,,,,,,[],,,,,,62.5,0.0,u,0.0,True,576.5000000596046,35.0,59.0,40.0,False,,204.8285570302793,[],"[683, 384]",ColorTask,36.0,26.0,,,HRV,HRV_0201,2022-11-30 18:54:39
,wl-rdm,145,466868,0.0-8.26-0.26,1.0,144.0,,,,,,,[],,,,,,87.9,0.0,u,0.0,True,1271.2999999523163,77.0,59.0,40.0,False,,375.4538821575296,[],"[683, 384]",ColorTask,37.0,27.0,,,HRV,HRV_0201,2022-11-30 18:54:39
,wl-rdm,146,469168,0.0-8.27-0.27,1.0,145.0,,,,,,,[],,,,,,56.4,1.0,i,1.0,True,924.2999999523163,56.0,59.0,40.0,False,,306.1106839735584,[],"[683, 384]",ColorTask,38.0,28.0,,,HRV,HRV_0201,2022-11-30 18:54:39
,wl-rdm,147,471002,0.0-8.28-0.28,1.0,146.0,,,,,,,[],,,,,,56.4,1.0,i,1.0,True,422.60000002384186,26.0,59.0,40.0,False,,338.6012573647563,[],"[683, 384]",ColorTask,39.0,29.0,,,HRV,HRV_0201,2022-11-30 18:54:39
,wl-rdm,148,472719,0.0-8.29-0.29,1.0,147.0,,,,,,,[],,,,,,73.6,0.0,u,0.0,True,333.19999998807907,20.0,59.0,40.0,False,,300.95792638716966,[],"[683, 384]",ColorTask,40.0,30.0,,,HRV,HRV_0201,2022-11-30 18:54:39
,wl-rdm,149,474870,0.0-8.30-0.30,1.0,148.0,,,,,,,[],,,,,,56.4,1.0,u,0.0,False,700.3000000119209,42.0,59.0,40.0,False,,368.59978984628526,[],"[683, 384]",ColorTask,39.0,31.0,,,HRV,HRV_0201,2022-11-30 18:54:39
,wl-rdm,150,477188,0.0-8.31-0.31,1.0,149.0,,,,,,,[],,,,,,62.5,1.0,i,1.0,True,911.5,55.0,59.0,40.0,False,,342.4951088827539,[],"[683, 384]",ColorTask,40.0,32.0,,,HRV,HRV_0201,2022-11-30 18:54:39
,wl-rdm,151,480305,0.0-8.32-0.32,1.0,150.0,,,,,,,[],,,,,,62.5,1.0,u,0.0,False,1739.8000000715256,105.0,59.0,40.0,False,,311.9187311605025,[],"[683, 384]",ColorTask,39.0,33.0,,,HRV,HRV_0201,2022-11-30 18:54:39
,wl-rdm,152,482556,0.0-8.33-0.33,1.0,151.0,,,,,,,[],,,,,,56.4,0.0,u,0.0,True,853.5,52.0,59.0,40.0,False,,327.29056946183044,[],"[683, 384]",ColorTask,40.0,34.0,,,HRV,HRV_0201,2022-11-30 18:54:39
,wl-rdm,153,484924,0.0-8.34-0.34,1.0,152.0,,,,,,,[],,,,,,53.2,0.0,u,0.0,True,978.4999999403954,59.0,59.0,40.0,False,,313.7025127412196,[],"[683, 384]",ColorTask,41.0,35.0,,,HRV,HRV_0201,2022-11-30 18:54:39
,wl-rdm,154,487242,0.0-8.35-0.35,1.0,153.0,,,,,,,[],,,,,,53.2,1.0,i,1.0,True,896.0,54.0,59.0,40.0,False,,365.9271629372862,[],"[683, 384]",ColorTask,42.0,36.0,,,HRV,HRV_0201,2022-11-30 18:54:39
,wl-rdm,155,489743,0.0-8.36-0.36,1.0,154.0,,,,,,,[],,,,,,73.6,1.0,i,1.0,True,1167.5,70.0,59.0,40.0,False,,251.70546795684305,[],"[683, 384]",ColorTask,43.0,37.0,,,HRV,HRV_0201,2022-11-30 18:54:39
,wl-rdm,156,491960,0.0-8.37-0.37,1.0,155.0,,,,,,,[],,,,,,50.0,0.0,i,1.0,False,841.3999999165535,51.0,59.0,40.0,False,,283.49350580269004,[],"[683, 384]",ColorTask,42.0,38.0,,,HRV,HRV_0201,2022-11-30 18:54:39
,wl-rdm,157,493862,0.0-8.38-0.38,1.0,156.0,,,,,,,[],,,,,,73.6,0.0,u,0.0,True,476.80000001192093,29.0,59.0,40.0,False,,358.77496509189336,[],"[683, 384]",ColorTask,43.0,39.0,,,HRV,HRV_0201,2022-11-30 18:54:39
,wl-rdm,158,495645,0.0-8.39-0.39,1.0,157.0,,,,,,,[],,,,,,87.9,1.0,i,1.0,True,343.7999999523163,21.0,59.0,40.0,False,,378.8036892276715,[],"[683, 384]",ColorTask,44.0,40.0,,,HRV,HRV_0201,2022-11-30 18:54:39
,wl-rdm,159,498397,0.0-8.40-0.40,1.0,158.0,,,,,,,[],,,,,,50.0,0.0,u,0.0,True,1361.4000000357628,82.0,59.0,40.0,False,,318.443186134307,[],"[683, 384]",ColorTask,45.0,41.0,,,HRV,HRV_0201,2022-11-30 18:54:39
,wl-rdm,160,499947,0.0-8.41-0.41,1.0,159.0,,,,,,,[],,,,,,87.9,1.0,i,1.0,True,179.30000001192093,11.0,59.0,40.0,False,,308.94088998534227,[],"[683, 384]",ColorTask,46.0,42.0,,,HRV,HRV_0201,2022-11-30 18:54:39
,wl-rdm,161,502231,0.0-8.42-0.42,1.0,160.0,,,,,,,[],,,,,,62.5,1.0,u,0.0,False,935.8000000119209,57.0,59.0,40.0,False,,264.75571397550846,[],"[683, 384]",ColorTask,45.0,43.0,,,HRV,HRV_0201,2022-11-30 18:54:39
,wl-rdm,162,503615,0.0-8.43-0.43,1.0,160.0,,,,,,,[],,,,,,73.6,1.0,u,0.0,False,57.89999997615814,4.0,59.0,40.0,True,too_early ,253.01192577953915,[],"[683, 384]",ColorTask,44.0,44.0,,,HRV,HRV_0201,2022-11-30 18:54:39
,wl-rdm,163,505833,0.0-8.44-0.44,1.0,161.0,,,,,,,[],,,,,,62.5,0.0,u,0.0,True,914.7999999523163,55.0,59.0,40.0,False,,233.3526705701214,[],"[683, 384]",ColorTask,45.0,45.0,,,HRV,HRV_0201,2022-11-30 18:54:39
,wl-rdm,164,509216,0.0-8.45-0.45,1.0,162.0,,,,,,,[],,,,,,62.5,0.0,u,0.0,True,2008.1000000238419,121.0,59.0,40.0,False,,291.67615178181006,[],"[683, 384]",ColorTask,46.0,46.0,,,HRV,HRV_0201,2022-11-30 18:54:39
,wl-rdm,165,511184,0.0-8.46-0.46,1.0,163.0,,,,,,,[],,,,,,50.0,1.0,i,1.0,True,639.9000000357628,39.0,59.0,40.0,False,,262.5718534427663,[],"[683, 384]",ColorTask,47.0,47.0,,,HRV,HRV_0201,2022-11-30 18:54:39
,wl-rdm,166,515452,0.0-8.47-0.47,1.0,164.0,,,,,,,[],,,,,,53.2,1.0,i,1.0,True,2928.4999999403954,176.0,59.0,40.0,False,,264.68588704339084,[],"[683, 384]",ColorTask,48.0,48.0,,,HRV,HRV_0201,2022-11-30 18:54:39
,wl-rdm,167,517386,0.0-8.48-0.48,1.0,165.0,,,,,,,[],,,,,,62.5,0.0,i,1.0,False,639.3000000119209,39.0,59.0,40.0,False,,200.91330415154812,[],"[683, 384]",ColorTask,47.0,49.0,,,HRV,HRV_0201,2022-11-30 18:54:39
,wl-rdm,168,519488,0.0-8.49-0.49,1.0,166.0,,,,,,,[],,,,,,87.9,1.0,u,0.0,False,816.5,49.0,59.0,40.0,False,,202.20303371532964,[],"[683, 384]",ColorTask,46.0,50.0,,,HRV,HRV_0201,2022-11-30 18:54:39
,wl-rdm,169,521989,0.0-8.50-0.50,1.0,167.0,,,,,,,[],,,,,,56.4,1.0,u,0.0,False,1177.2999999523163,71.0,59.0,40.0,False,,260.4537485701469,[],"[683, 384]",ColorTask,45.0,51.0,,,HRV,HRV_0201,2022-11-30 18:54:39
,wl-rdm,170,524406,0.0-8.51-0.51,1.0,168.0,,,,,,,[],,,,,,50.0,1.0,i,1.0,True,976.9999999403954,59.0,59.0,40.0,False,,355.8355664048685,[],"[683, 384]",ColorTask,46.0,52.0,,,HRV,HRV_0201,2022-11-30 18:54:39
,wl-rdm,171,526474,0.0-8.52-0.52,1.0,169.0,,,,,,,[],,,,,,53.2,1.0,i,1.0,True,730.2999999523163,44.0,59.0,40.0,False,,280.7905214932322,[],"[683, 384]",ColorTask,47.0,53.0,,,HRV,HRV_0201,2022-11-30 18:54:39
,wl-rdm,172,528690,0.0-8.53-0.53,1.0,170.0,,,,,,,[],,,,,,50.0,0.0,i,1.0,False,838.7000000476837,51.0,59.0,40.0,False,,296.0633743417375,[],"[683, 384]",ColorTask,46.0,54.0,,,HRV,HRV_0201,2022-11-30 18:54:39
,wl-rdm,173,531642,0.0-8.54-0.54,1.0,171.0,,,,,,,[],,,,,,50.0,0.0,u,0.0,True,1587.7999999523163,96.0,59.0,40.0,False,,298.68198685600225,[],"[683, 384]",ColorTask,47.0,55.0,,,HRV,HRV_0201,2022-11-30 18:54:39
,wl-rdm,174,533559,0.0-8.55-0.55,1.0,172.0,,,,,,,[],,,,,,50.0,1.0,i,1.0,True,573.8999999165535,35.0,59.0,40.0,False,,274.451160215682,[],"[683, 384]",ColorTask,48.0,56.0,,,HRV,HRV_0201,2022-11-30 18:54:39
,wl-rdm,175,536560,0.0-8.56-0.56,1.0,173.0,,,,,,,[],,,,,,73.6,1.0,i,1.0,True,1697.6000000238419,102.0,59.0,40.0,False,,246.9560665870549,[],"[683, 384]",ColorTask,49.0,57.0,,,HRV,HRV_0201,2022-11-30 18:54:39
,wl-rdm,176,539178,0.0-8.57-0.57,1.0,174.0,,,,,,,[],,,,,,87.9,1.0,i,1.0,True,1305.0,79.0,59.0,40.0,False,,222.95586781927378,[],"[683, 384]",ColorTask,50.0,58.0,,,HRV,HRV_0201,2022-11-30 18:54:39
,wl-rdm,177,541731,0.0-8.58-0.58,1.0,175.0,,,,,,,[],,,,,,56.4,1.0,i,1.0,True,1273.7000000476837,77.0,59.0,40.0,False,,201.29428240732165,[],"[683, 384]",ColorTask,51.0,59.0,,,HRV,HRV_0201,2022-11-30 18:54:39
,wl-rdm,178,544996,0.0-8.59-0.59,1.0,176.0,,,,,,,[],,,,,,62.5,0.0,i,1.0,False,1870.3000000715256,113.0,59.0,40.0,False,,314.26580274501123,[],"[683, 384]",ColorTask,50.0,60.0,,,HRV,HRV_0201,2022-11-30 18:54:39
,wl-rdm,179,548549,0.0-8.60-0.60,1.0,177.0,,,,,,,[],,,,,,53.2,1.0,u,0.0,False,2219.600000023842,134.0,59.0,40.0,False,,242.92844671074835,[],"[683, 384]",ColorTask,49.0,61.0,,,HRV,HRV_0201,2022-11-30 18:54:39
,wl-rdm,180,550583,0.0-8.61-0.61,1.0,178.0,,,,,,,[],,,,,,50.0,1.0,i,1.0,True,751.4000000357628,45.0,59.0,40.0,False,,207.8904208207926,[],"[683, 384]",ColorTask,50.0,62.0,,,HRV,HRV_0201,2022-11-30 18:54:39
,wl-rdm,181,552950,0.0-8.62-0.62,1.0,179.0,,,,,,,[],,,,,,73.6,0.0,i,1.0,False,1076.2000000476837,65.0,59.0,40.0,False,,225.64212763850293,[],"[683, 384]",ColorTask,49.0,63.0,,,HRV,HRV_0201,2022-11-30 18:54:39
,wl-rdm,182,554884,0.0-8.63-0.63,1.0,180.0,,,,,,,[],,,,,,73.6,0.0,u,0.0,True,643.5,39.0,59.0,40.0,False,,204.1526413929699,[],"[683, 384]",ColorTask,50.0,64.0,,,HRV,HRV_0201,2022-11-30 18:54:39
,wl-rdm,183,557902,0.0-8.64-0.64,1.0,181.0,,,,,,,[],,,,,,62.5,1.0,i,1.0,True,1676.1000000238419,101.0,59.0,40.0,False,,254.44108631691145,[],"[683, 384]",ColorTask,51.0,65.0,,,HRV,HRV_0201,2022-11-30 18:54:39
,wl-rdm,184,560269,0.0-8.65-0.65,1.0,182.0,,,,,,,[],,,,,,87.9,0.0,i,1.0,False,1001.2000000476837,61.0,59.0,40.0,False,,278.0794665732868,[],"[683, 384]",ColorTask,50.0,66.0,,,HRV,HRV_0201,2022-11-30 18:54:39
,wl-rdm,185,562520,0.0-8.66-0.66,1.0,183.0,,,,,,,[],,,,,,53.2,1.0,u,0.0,False,907.3999999761581,55.0,59.0,40.0,False,,267.5961654233971,[],"[683, 384]",ColorTask,49.0,67.0,,,HRV,HRV_0201,2022-11-30 18:54:39
,wl-rdm,186,565137,0.0-8.67-0.67,1.0,184.0,,,,,,,[],,,,,,53.2,1.0,u,0.0,False,1280.1000000238419,77.0,59.0,40.0,False,,254.9992555836715,[],"[683, 384]",ColorTask,48.0,68.0,,,HRV,HRV_0201,2022-11-30 18:54:39
,wl-rdm,187,567639,0.0-8.68-0.68,1.0,185.0,,,,,,,[],,,,,,73.6,0.0,u,0.0,True,1158.199999988079,70.0,59.0,40.0,False,,268.19215988108687,[],"[683, 384]",ColorTask,49.0,69.0,,,HRV,HRV_0201,2022-11-30 18:54:39
,wl-rdm,188,569656,0.0-8.69-0.69,1.0,186.0,,,,,,,[],,,,,,87.9,0.0,u,0.0,True,747.3999999761581,45.0,59.0,40.0,False,,203.0220104011576,[],"[683, 384]",ColorTask,50.0,70.0,,,HRV,HRV_0201,2022-11-30 18:54:39
,wl-rdm,189,571724,0.0-8.70-0.70,1.0,187.0,,,,,,,[],,,,,,62.5,0.0,u,0.0,True,770.1999999880791,47.0,59.0,40.0,False,,216.58505008563728,[],"[683, 384]",ColorTask,51.0,71.0,,,HRV,HRV_0201,2022-11-30 18:54:39
,wl-rdm,190,574107,0.0-8.71-0.71,1.0,188.0,,,,,,,[],,,,,,56.4,0.0,i,1.0,False,1077.800000011921,65.0,59.0,40.0,False,,230.04914896380075,[],"[683, 384]",ColorTask,50.0,72.0,,,HRV,HRV_0201,2022-11-30 18:54:39
,wl-rdm,191,576493,0.0-8.72-0.72,1.0,189.0,,,,,,,[],,,,,,53.2,1.0,u,0.0,False,903.4000000357628,55.0,59.0,40.0,False,,390.7171670646095,[],"[683, 384]",ColorTask,49.0,73.0,,,HRV,HRV_0201,2022-11-30 18:54:39
,wl-rdm,192,578593,0.0-8.73-0.73,1.0,190.0,,,,,,,[],,,,,,73.6,0.0,i,1.0,False,695.9000000357628,42.0,59.0,40.0,False,,325.0059757524466,[],"[683, 384]",ColorTask,48.0,74.0,,,HRV,HRV_0201,2022-11-30 18:54:39
,wl-rdm,193,582262,0.0-8.74-0.74,1.0,191.0,,,,,,,[],,,,,,56.4,0.0,u,0.0,True,2276.399999976158,137.0,59.0,40.0,False,,312.38076249857556,[],"[683, 384]",ColorTask,49.0,75.0,,,HRV,HRV_0201,2022-11-30 18:54:39
,wl-rdm,194,584561,0.0-8.75-0.75,1.0,192.0,,,,,,,[],,,,,,50.0,0.0,i,1.0,False,1011.5999999642372,61.0,59.0,40.0,False,,233.30564623995073,[],"[683, 384]",ColorTask,48.0,76.0,,,HRV,HRV_0201,2022-11-30 18:54:39
,wl-rdm,195,587047,0.0-8.76-0.76,1.0,193.0,,,,,,,[],,,,,,56.4,0.0,u,0.0,True,1158.7999999523163,70.0,59.0,40.0,False,,263.7804991042806,[],"[683, 384]",ColorTask,49.0,77.0,,,HRV,HRV_0201,2022-11-30 18:54:39
,wl-rdm,196,589164,0.0-8.77-0.77,1.0,194.0,,,,,,,[],,,,,,87.9,0.0,u,0.0,True,759.1000000238419,46.0,59.0,40.0,False,,298.1501767615328,[],"[683, 384]",ColorTask,50.0,78.0,,,HRV,HRV_0201,2022-11-30 18:54:39
,wl-rdm,197,591248,0.0-8.78-0.78,1.0,195.0,,,,,,,[],,,,,,73.6,1.0,i,1.0,True,747.2000000476837,45.0,59.0,40.0,False,,278.3766820579831,[],"[683, 384]",ColorTask,51.0,79.0,,,HRV,HRV_0201,2022-11-30 18:54:39
,wl-rdm,198,595582,0.0-8.79-0.79,1.0,195.0,,,,,,,[],,,,,,53.2,0.0,u,,,3177.600000023842,176.0,59.0,40.0,True,RT_timeout ,245.99229555659315,[],"[683, 384]",ColorTask,50.0,80.0,,,HRV,HRV_0201,2022-11-30 18:54:39
,wl-rdm,199,598166,0.0-8.80-0.80,1.0,196.0,,,,,,,[],,,,,,50.0,1.0,u,0.0,False,1231.7999999523163,74.0,59.0,40.0,False,,285.139120973301,[],"[683, 384]",ColorTask,49.0,81.0,,,HRV,HRV_0201,2022-11-30 18:54:39
,wl-rdm,200,600686,0.0-8.81-0.81,1.0,197.0,,,,,,,[],,,,,,53.2,0.0,u,0.0,True,1076.800000011921,65.0,59.0,40.0,False,,357.8994744435368,[],"[683, 384]",ColorTask,50.0,82.0,,,HRV,HRV_0201,2022-11-30 18:54:39
,wl-rdm,201,603187,0.0-8.82-0.82,1.0,198.0,,,,,,,[],,,,,,73.6,1.0,u,0.0,False,1212.7000000476837,73.0,59.0,40.0,False,,228.2971585013448,[],"[683, 384]",ColorTask,49.0,83.0,,,HRV,HRV_0201,2022-11-30 18:54:39
,wl-rdm,202,605520,0.0-8.83-0.83,1.0,199.0,,,,,,,[],,,,,,62.5,0.0,i,1.0,False,906.5,55.0,59.0,40.0,False,,335.55998653923655,[],"[683, 384]",ColorTask,48.0,84.0,,,HRV,HRV_0201,2022-11-30 18:54:39
,wl-rdm,203,607787,0.0-8.84-0.84,1.0,200.0,,,,,,,[],,,,,,53.2,0.0,i,1.0,False,953.0999999642372,58.0,59.0,40.0,False,,245.76549909929656,[],"[683, 384]",ColorTask,47.0,85.0,,,HRV,HRV_0201,2022-11-30 18:54:39
,wl-rdm,204,610239,0.0-8.85-0.85,1.0,201.0,,,,,,,[],,,,,,56.4,0.0,u,0.0,True,1132.300000011921,68.0,59.0,40.0,False,,235.0187862073775,[],"[683, 384]",ColorTask,48.0,86.0,,,HRV,HRV_0201,2022-11-30 18:54:39
,wl-rdm,205,612639,0.0-8.86-0.86,1.0,202.0,,,,,,,[],,,,,,53.2,0.0,u,0.0,True,973.5000000596046,59.0,59.0,40.0,False,,343.5776621826359,[],"[683, 384]",ColorTask,49.0,87.0,,,HRV,HRV_0201,2022-11-30 18:54:39
,wl-rdm,206,614874,0.0-8.87-0.87,1.0,203.0,,,,,,,[],,,,,,56.4,1.0,u,0.0,False,887.2999999523163,54.0,59.0,40.0,False,,270.45328644211713,[],"[683, 384]",ColorTask,48.0,88.0,,,HRV,HRV_0201,2022-11-30 18:54:39
,wl-rdm,207,616824,0.0-8.88-0.88,1.0,204.0,,,,,,,[],,,,,,50.0,0.0,u,0.0,True,672.6999999880791,41.0,59.0,40.0,False,,210.3011648081107,[],"[683, 384]",ColorTask,49.0,89.0,,,HRV,HRV_0201,2022-11-30 18:54:39
,wl-rdm,208,619391,0.0-8.89-0.89,1.0,205.0,,,,,,,[],,,,,,73.6,0.0,i,1.0,False,1273.4000000357628,77.0,59.0,40.0,False,,220.46612973963343,[],"[683, 384]",ColorTask,48.0,90.0,,,HRV,HRV_0201,2022-11-30 18:54:39
,wl-rdm,209,623611,0.0-8.90-0.90,1.0,206.0,,,,,,,[],,,,,,53.2,0.0,i,1.0,False,2928.0,176.0,59.0,40.0,False,,228.33171124163695,[],"[683, 384]",ColorTask,47.0,91.0,,,HRV,HRV_0201,2022-11-30 18:54:39
,wl-rdm,210,625627,0.0-8.91-0.91,1.0,207.0,,,,,,,[],,,,,,73.6,1.0,u,0.0,False,643.1999999880791,39.0,59.0,40.0,False,,293.71913358792506,[],"[683, 384]",ColorTask,46.0,92.0,,,HRV,HRV_0201,2022-11-30 18:54:39
,wl-rdm,211,628062,0.0-8.92-0.92,1.0,208.0,,,,,,,[],,,,,,87.9,1.0,i,1.0,True,1025.8000000715256,62.0,59.0,40.0,False,,329.9452991181802,[],"[683, 384]",ColorTask,47.0,93.0,,,HRV,HRV_0201,2022-11-30 18:54:39
,wl-rdm,212,630546,0.0-8.93-0.93,1.0,209.0,,,,,,,[],,,,,,87.9,0.0,u,0.0,True,1178.0999999642372,71.0,59.0,40.0,False,,238.68160105890053,[],"[683, 384]",ColorTask,48.0,94.0,,,HRV,HRV_0201,2022-11-30 18:54:39
,wl-rdm,213,632730,0.0-8.94-0.94,1.0,210.0,,,,,,,[],,,,,,73.6,1.0,u,0.0,False,811.9999999403954,49.0,59.0,40.0,False,,286.1362536047517,[],"[683, 384]",ColorTask,47.0,95.0,,,HRV,HRV_0201,2022-11-30 18:54:39
,wl-rdm,214,635131,0.0-8.95-0.95,1.0,211.0,,,,,,,[],,,,,,56.4,1.0,i,1.0,True,1110.5,67.0,59.0,40.0,False,,232.73186869588517,[],"[683, 384]",ColorTask,48.0,96.0,,,HRV,HRV_0201,2022-11-30 18:54:39
,wl-rdm,215,637482,0.0-8.96-0.96,1.0,212.0,,,,,,,[],,,,,,87.9,0.0,u,0.0,True,893.2999999523163,54.0,59.0,40.0,False,,387.2831416643236,[],"[683, 384]",ColorTask,49.0,97.0,,,HRV,HRV_0201,2022-11-30 18:54:39
,wl-rdm,216,640182,0.0-8.97-0.97,1.0,213.0,,,,,,,[],,,,,,50.0,1.0,i,1.0,True,1275.199999988079,77.0,59.0,40.0,False,,347.06806092790515,[],"[683, 384]",ColorTask,50.0,98.0,,,HRV,HRV_0201,2022-11-30 18:54:39
,wl-rdm,217,642634,0.0-8.98-0.98,1.0,214.0,,,,,,,[],,,,,,73.6,0.0,u,0.0,True,1178.5000000596046,71.0,59.0,40.0,False,,214.99669920883167,[],"[683, 384]",ColorTask,51.0,99.0,,,HRV,HRV_0201,2022-11-30 18:54:39
,wl-rdm,218,644884,0.0-8.99-0.99,1.0,215.0,,,,,,,[],,,,,,53.2,0.0,u,0.0,True,966.8000000119209,58.0,59.0,40.0,False,,205.28861007264646,[],"[683, 384]",ColorTask,52.0,100.0,,,HRV,HRV_0201,2022-11-30 18:54:39
,wl-rdm,219,647920,0.0-8.100-0.100,1.0,216.0,,,,,,,[],,,,,,50.0,0.0,i,1.0,False,1581.300000011921,95.0,59.0,40.0,False,,390.68576009907537,[],"[683, 384]",ColorTask,51.0,101.0,,,HRV,HRV_0201,2022-11-30 18:54:39
,wl-rdm,220,652305,0.0-8.101-0.101,1.0,216.0,,,,,,,[],,,,,,73.6,1.0,u,,,3382.300000011921,176.0,59.0,40.0,True,RT_timeout ,299.78338405543354,[],"[683, 384]",ColorTask,50.0,102.0,,,HRV,HRV_0201,2022-11-30 18:54:39
,wl-rdm,221,654571,0.0-8.102-0.102,1.0,217.0,,,,,,,[],,,,,,56.4,1.0,u,0.0,False,904.0000000596046,55.0,59.0,40.0,False,,292.0031520417907,[],"[683, 384]",ColorTask,49.0,103.0,,,HRV,HRV_0201,2022-11-30 18:54:39
,wl-rdm,222,657389,0.0-8.103-0.103,1.0,218.0,,,,,,,[],,,,,,53.2,1.0,u,0.0,False,1525.199999988079,92.0,59.0,40.0,False,,224.62773988980769,[],"[683, 384]",ColorTask,48.0,104.0,,,HRV,HRV_0201,2022-11-30 18:54:39
,wl-rdm,223,659608,0.0-8.104-0.104,1.0,219.0,,,,,,,[],,,,,,62.5,1.0,i,1.0,True,898.3000000119209,54.0,59.0,40.0,False,,245.7899417352857,[],"[683, 384]",ColorTask,49.0,105.0,,,HRV,HRV_0201,2022-11-30 18:54:39
,wl-rdm,224,662057,0.0-8.105-0.105,1.0,220.0,,,,,,,[],,,,,,56.4,0.0,u,0.0,True,1137.7999999523163,69.0,59.0,40.0,False,,227.96884481495752,[],"[683, 384]",ColorTask,50.0,106.0,,,HRV,HRV_0201,2022-11-30 18:54:39
,wl-rdm,225,664492,0.0-8.106-0.106,1.0,221.0,,,,,,,[],,,,,,62.5,1.0,i,1.0,True,976.0,59.0,59.0,40.0,False,,392.4314115919234,[],"[683, 384]",ColorTask,51.0,107.0,,,HRV,HRV_0201,2022-11-30 18:54:39
,wl-rdm,226,666677,0.0-8.107-0.107,1.0,222.0,,,,,,,[],,,,,,50.0,0.0,i,1.0,False,899.1999999880791,54.0,59.0,40.0,False,,220.5552539027902,[],"[683, 384]",ColorTask,50.0,108.0,,,HRV,HRV_0201,2022-11-30 18:54:39
,wl-rdm,227,669110,0.0-8.108-0.108,1.0,223.0,,,,,,,[],,,,,,87.9,0.0,u,0.0,True,1147.199999988079,69.0,59.0,40.0,False,,218.69168262404276,[],"[683, 384]",ColorTask,51.0,109.0,,,HRV,HRV_0201,2022-11-30 18:54:39
,wl-rdm,228,671478,0.0-8.109-0.109,1.0,224.0,,,,,,,[],,,,,,73.6,1.0,i,1.0,True,923.9999999403954,56.0,59.0,40.0,False,,372.72111311537697,[],"[683, 384]",ColorTask,52.0,110.0,,,HRV,HRV_0201,2022-11-30 18:54:39
,wl-rdm,229,673929,0.0-8.110-0.110,1.0,225.0,,,,,,,[],,,,,,87.9,1.0,i,1.0,True,1045.9000000953674,63.0,59.0,40.0,False,,347.26681716534614,[],"[683, 384]",ColorTask,53.0,111.0,,,HRV,HRV_0201,2022-11-30 18:54:39
,wl-html-button-response,230,676989,0.0-9.0-0.0,,,,,,,,,,3055.0,,0,,,,,,,,,,,,,,,,,,,,<h3>End of this session. Thank you!</h3><br>,['Close window'],HRV,HRV_0201,2022-11-30 18:54:39
