trialN,stimuli,trialStartTime,trialStartTime_UNIX,stimulus1,stimulus2,stimulus1Bid,stimulus2Bid,delta,selected,rt,rt_UNIX,rt_perfnow,receivedResponse,rsp,trialEndTime,trialDuration,trialEndTime_UNIX,trialDuration_UNIX,exp,subjectId,date
0,"[{'imgObject': {}, 'id': 'steak', 'src': '/static/foodstim60/steak.jpg', 'key': 'u', 'origWidth': 410, 'origHeight': 410, 'width': 410, 'height': 410, 'widthPercent': 0.45, 'rescaleHeight': False, 'trialN': 0, 'loaded': True, 'loadedTime': 6823, 'positionName': 'LEFT', 'positionCoords': [245.68, 179], 'bid': 8.08}, {'imgObject': {}, 'id': 'yogurt no spoon', 'src': '/static/foodstim60/yogurt no spoon.jpg', 'key': 'i', 'origWidth': 411, 'origHeight': 410, 'width': 411, 'height': 410, 'widthPercent': 0.45, 'rescaleHeight': False, 'trialN': 0, 'loaded': True, 'loadedTime': 6870.099999964237, 'positionName': 'RIGHT', 'positionCoords': [710.32, 179], 'bid': 6.21}]",7974.599999964237,1669833444003,steak,yogurt no spoon,8.08,6.21,-1.87,steak,937.4000000357628,938,938.1000000238419,True,u,9432.699999988079,1458.1000000238419,1669833445461,1458,HRV,HRV_0201,2022-11-30 18:42:49
1,"[{'imgObject': {}, 'id': 'blackbeanswithrice', 'src': '/static/foodstim60/blackbeanswithrice.jpg', 'key': 'u', 'origWidth': 410, 'origHeight': 410, 'width': 410, 'height': 410, 'widthPercent': 0.45, 'rescaleHeight': False, 'trialN': 1, 'loaded': True, 'loadedTime': 6953.899999976158, 'positionName': 'LEFT', 'positionCoords': [245.68, 179], 'bid': 3.06}, {'imgObject': {}, 'id': 'edamame', 'src': '/static/foodstim60/edamame.jpg', 'key': 'i', 'origWidth': 409, 'origHeight': 410, 'width': 409, 'height': 410, 'widthPercent': 0.45, 'rescaleHeight': False, 'trialN': 1, 'loaded': True, 'loadedTime': 7071.699999988079, 'positionName': 'RIGHT', 'positionCoords': [710.32, 179], 'bid': 5.38}]",9433.199999988079,1669833445462,blackbeanswithrice,edamame,3.06,5.38,2.32,edamame,1470.699999988079,1471,1471.0999999642372,True,i,11415.699999988079,1982.5,1669833447444,1982,HRV,HRV_0201,2022-11-30 18:42:49
2,"[{'imgObject': {}, 'id': 'mango', 'src': '/static/foodstim60/mango.jpg', 'key': 'u', 'origWidth': 411, 'origHeight': 411, 'width': 411, 'height': 411, 'widthPercent': 0.45, 'rescaleHeight': False, 'trialN': 2, 'loaded': True, 'loadedTime': 7015.799999952316, 'positionName': 'LEFT', 'positionCoords': [244.68, 178.5], 'bid': 3.98}, {'imgObject': {}, 'id': 'olives', 'src': '/static/foodstim60/olives.jpg', 'key': 'i', 'origWidth': 410, 'origHeight': 410, 'width': 410, 'height': 410, 'widthPercent': 0.45, 'rescaleHeight': False, 'trialN': 2, 'loaded': True, 'loadedTime': 6998.299999952316, 'positionName': 'RIGHT', 'positionCoords': [710.32, 179], 'bid': 2.96}]",11416.0,1669833447445,mango,olives,3.98,2.96,-1.02,olives,975.8999999761581,976,976.1999999880791,True,i,12915.5,1499.5,1669833448944,1499,HRV,HRV_0201,2022-11-30 18:42:49
3,"[{'imgObject': {}, 'id': 'hashbrowns', 'src': '/static/foodstim60/hashbrowns.jpg', 'key': 'u', 'origWidth': 411, 'origHeight': 410, 'width': 411, 'height': 410, 'widthPercent': 0.45, 'rescaleHeight': False, 'trialN': 3, 'loaded': True, 'loadedTime': 7116.699999988079, 'positionName': 'LEFT', 'positionCoords': [244.68, 179], 'bid': 6.83}, {'imgObject': {}, 'id': 'raisin bran w milk', 'src': '/static/foodstim60/raisin bran w milk.jpg', 'key': 'i', 'origWidth': 411, 'origHeight': 411, 'width': 411, 'height': 411, 'widthPercent': 0.45, 'rescaleHeight': False, 'trialN': 3, 'loaded': True, 'loadedTime': 6919.5, 'positionName': 'RIGHT', 'positionCoords': [710.32, 178.5], 'bid': 6.2}]",12915.699999988079,1669833448944,hashbrowns,raisin bran w milk,6.83,6.2,-0.6299999999999999,raisin bran w milk,964.3999999761581,965,964.6999999880791,True,i,14396.699999988079,1481.0,1669833450425,1481,HRV,HRV_0201,2022-11-30 18:42:49
4,"[{'imgObject': {}, 'id': 'fruitsalad', 'src': '/static/foodstim60/fruitsalad.jpg', 'key': 'u', 'origWidth': 410, 'origHeight': 410, 'width': 410, 'height': 410, 'widthPercent': 0.45, 'rescaleHeight': False, 'trialN': 4, 'loaded': True, 'loadedTime': 6977.699999988079, 'positionName': 'LEFT', 'positionCoords': [245.68, 179], 'bid': 7.65}, {'imgObject': {}, 'id': 'roastedpotatoes', 'src': '/static/foodstim60/roastedpotatoes.jpg', 'key': 'i', 'origWidth': 409, 'origHeight': 410, 'width': 409, 'height': 410, 'widthPercent': 0.45, 'rescaleHeight': False, 'trialN': 4, 'loaded': True, 'loadedTime': 7013.899999976158, 'positionName': 'RIGHT', 'positionCoords': [710.32, 179], 'bid': 7.97}]",14397.0,1669833450426,fruitsalad,roastedpotatoes,7.65,7.97,0.3199999999999994,roastedpotatoes,1602.8999999761581,1603,1603.199999988079,True,i,16510.899999976158,2113.899999976158,1669833452540,2114,HRV,HRV_0201,2022-11-30 18:42:49
5,"[{'imgObject': {}, 'id': 'turkeysandwich', 'src': '/static/foodstim60/turkeysandwich.jpg', 'key': 'u', 'origWidth': 409, 'origHeight': 409, 'width': 409, 'height': 409, 'widthPercent': 0.45, 'rescaleHeight': False, 'trialN': 5, 'loaded': True, 'loadedTime': 7047.599999964237, 'positionName': 'LEFT', 'positionCoords': [246.68, 179.5], 'bid': 7.28}, {'imgObject': {}, 'id': 'ice cream sundae 002', 'src': '/static/foodstim60/ice cream sundae 002.jpg', 'key': 'i', 'origWidth': 409, 'origHeight': 409, 'width': 409, 'height': 409, 'widthPercent': 0.45, 'rescaleHeight': False, 'trialN': 5, 'loaded': True, 'loadedTime': 7095.5, 'positionName': 'RIGHT', 'positionCoords': [710.32, 179.5], 'bid': 7.53}]",16511.299999952316,1669833452540,turkeysandwich,ice cream sundae 002,7.28,7.53,0.25,ice cream sundae 002,1224.6000000238419,1225,1224.800000011921,True,i,18250.69999998808,1739.4000000357628,1669833454279,1739,HRV,HRV_0201,2022-11-30 18:42:49
6,"[{'imgObject': {}, 'id': 'kiwi', 'src': '/static/foodstim60/kiwi.jpg', 'key': 'u', 'origWidth': 410, 'origHeight': 410, 'width': 410, 'height': 410, 'widthPercent': 0.45, 'rescaleHeight': False, 'trialN': 6, 'loaded': True, 'loadedTime': 7121.099999964237, 'positionName': 'LEFT', 'positionCoords': [245.68, 179], 'bid': 7.37}, {'imgObject': {}, 'id': 'chickenfingers', 'src': '/static/foodstim60/chickenfingers.jpg', 'key': 'i', 'origWidth': 410, 'origHeight': 410, 'width': 410, 'height': 410, 'widthPercent': 0.45, 'rescaleHeight': False, 'trialN': 6, 'loaded': True, 'loadedTime': 7141.799999952316, 'positionName': 'RIGHT', 'positionCoords': [710.32, 179], 'bid': 6.65}]",18251.0,1669833454280,kiwi,chickenfingers,7.37,6.65,-0.7199999999999998,chickenfingers,876.6999999880791,877,877.0999999642372,True,i,19651.299999952316,1400.2999999523163,1669833455680,1400,HRV,HRV_0201,2022-11-30 18:42:49
7,"[{'imgObject': {}, 'id': 'burger', 'src': '/static/foodstim60/burger.jpg', 'key': 'u', 'origWidth': 409, 'origHeight': 409, 'width': 409, 'height': 409, 'widthPercent': 0.45, 'rescaleHeight': False, 'trialN': 7, 'loaded': True, 'loadedTime': 7163.099999964237, 'positionName': 'LEFT', 'positionCoords': [246.68, 179.5], 'bid': 7.31}, {'imgObject': {}, 'id': 'salmon', 'src': '/static/foodstim60/salmon.jpg', 'key': 'i', 'origWidth': 410, 'origHeight': 409, 'width': 410, 'height': 409, 'widthPercent': 0.45, 'rescaleHeight': False, 'trialN': 7, 'loaded': True, 'loadedTime': 7164.299999952316, 'positionName': 'RIGHT', 'positionCoords': [710.32, 179.5], 'bid': 7.6}]",19651.5,1669833455680,burger,salmon,7.31,7.6,0.29000000000000004,burger,1436.2999999523163,1437,1436.5999999642372,True,u,21603.399999976158,1951.8999999761581,1669833457632,1952,HRV,HRV_0201,2022-11-30 18:42:49
8,"[{'imgObject': {}, 'id': 'cherries', 'src': '/static/foodstim60/cherries.jpg', 'key': 'u', 'origWidth': 410, 'origHeight': 411, 'width': 410, 'height': 411, 'widthPercent': 0.45, 'rescaleHeight': False, 'trialN': 8, 'loaded': True, 'loadedTime': 7211.5, 'positionName': 'LEFT', 'positionCoords': [245.68, 178.5], 'bid': 4.37}, {'imgObject': {}, 'id': 'popsicles', 'src': '/static/foodstim60/popsicles.jpg', 'key': 'i', 'origWidth': 410, 'origHeight': 410, 'width': 410, 'height': 410, 'widthPercent': 0.45, 'rescaleHeight': False, 'trialN': 8, 'loaded': True, 'loadedTime': 7970.799999952316, 'positionName': 'RIGHT', 'positionCoords': [710.32, 179], 'bid': 2.49}]",21603.599999964237,1669833457632,cherries,popsicles,4.37,2.49,-1.88,cherries,860.1000000238419,861,860.5,True,u,22967.899999976158,1364.300000011921,1669833458997,1365,HRV,HRV_0201,2022-11-30 18:42:49
9,"[{'imgObject': {}, 'id': 'hotdog w must', 'src': '/static/foodstim60/hotdog w must.jpg', 'key': 'u', 'origWidth': 409, 'origHeight': 409, 'width': 409, 'height': 409, 'widthPercent': 0.45, 'rescaleHeight': False, 'trialN': 9, 'loaded': True, 'loadedTime': 7251.299999952316, 'positionName': 'LEFT', 'positionCoords': [246.68, 179.5], 'bid': 3.15}, {'imgObject': {}, 'id': 'eggsalad', 'src': '/static/foodstim60/eggsalad.jpg', 'key': 'i', 'origWidth': 410, 'origHeight': 409, 'width': 410, 'height': 409, 'widthPercent': 0.45, 'rescaleHeight': False, 'trialN': 9, 'loaded': True, 'loadedTime': 7281.699999988079, 'positionName': 'RIGHT', 'positionCoords': [710.32, 179.5], 'bid': 3.19}]",22968.0,1669833458997,hotdog w must,eggsalad,3.15,3.19,0.040000000000000036,eggsalad,976.0,976,976.3999999761581,True,i,24459.5,1491.5,1669833460488,1491,HRV,HRV_0201,2022-11-30 18:42:49
10,"[{'imgObject': {}, 'id': 'salmon', 'src': '/static/foodstim60/salmon.jpg', 'key': 'u', 'origWidth': 410, 'origHeight': 409, 'width': 410, 'height': 409, 'widthPercent': 0.45, 'rescaleHeight': False, 'trialN': 10, 'loaded': True, 'loadedTime': 7166.299999952316, 'positionName': 'LEFT', 'positionCoords': [245.68, 179.5], 'bid': 7.6}, {'imgObject': {}, 'id': 'salad w chicken', 'src': '/static/foodstim60/salad w chicken.jpg', 'key': 'i', 'origWidth': 411, 'origHeight': 411, 'width': 411, 'height': 411, 'widthPercent': 0.45, 'rescaleHeight': False, 'trialN': 10, 'loaded': True, 'loadedTime': 7384.099999964237, 'positionName': 'RIGHT', 'positionCoords': [710.32, 178.5], 'bid': 3.6}]",24459.799999952316,1669833460488,salmon,salad w chicken,7.6,3.6,-3.9999999999999996,salad w chicken,1092.0,1093,1092.4000000357628,True,i,26055.899999976158,1596.1000000238419,1669833462085,1597,HRV,HRV_0201,2022-11-30 18:42:49
11,"[{'imgObject': {}, 'id': 'baked potato', 'src': '/static/foodstim60/baked potato.jpg', 'key': 'u', 'origWidth': 409, 'origHeight': 410, 'width': 409, 'height': 410, 'widthPercent': 0.45, 'rescaleHeight': False, 'trialN': 11, 'loaded': True, 'loadedTime': 7288.699999988079, 'positionName': 'LEFT', 'positionCoords': [246.68, 179], 'bid': 7.73}, {'imgObject': {}, 'id': 'mashed potato', 'src': '/static/foodstim60/mashed potato.jpg', 'key': 'i', 'origWidth': 409, 'origHeight': 409, 'width': 409, 'height': 409, 'widthPercent': 0.45, 'rescaleHeight': False, 'trialN': 11, 'loaded': True, 'loadedTime': 7314.699999988079, 'positionName': 'RIGHT', 'positionCoords': [710.32, 179.5], 'bid': 7.28}]",26056.099999964237,1669833462085,baked potato,mashed potato,7.73,7.28,-0.4500000000000002,mashed potato,1303.6000000238419,1304,1304.0,True,i,27872.299999952316,1816.199999988079,1669833463901,1816,HRV,HRV_0201,2022-11-30 18:42:49
12,"[{'imgObject': {}, 'id': 'strawberries', 'src': '/static/foodstim60/strawberries.jpg', 'key': 'u', 'origWidth': 410, 'origHeight': 410, 'width': 410, 'height': 410, 'widthPercent': 0.45, 'rescaleHeight': False, 'trialN': 12, 'loaded': True, 'loadedTime': 7342.199999988079, 'positionName': 'LEFT', 'positionCoords': [245.68, 179], 'bid': 6.71}, {'imgObject': {}, 'id': 'blueberries', 'src': '/static/foodstim60/blueberries.jpg', 'key': 'i', 'origWidth': 411, 'origHeight': 411, 'width': 411, 'height': 411, 'widthPercent': 0.45, 'rescaleHeight': False, 'trialN': 12, 'loaded': True, 'loadedTime': 7346.5, 'positionName': 'RIGHT', 'positionCoords': [710.32, 178.5], 'bid': 7.37}]",27872.599999964237,1669833463901,strawberries,blueberries,6.71,7.37,0.6600000000000001,blueberries,1207.1000000238419,1208,1207.6000000238419,True,i,29587.69999998808,1715.1000000238419,1669833465616,1715,HRV,HRV_0201,2022-11-30 18:42:49
13,"[{'imgObject': {}, 'id': 'omelette', 'src': '/static/foodstim60/omelette.jpg', 'key': 'u', 'origWidth': 410, 'origHeight': 409, 'width': 410, 'height': 409, 'widthPercent': 0.45, 'rescaleHeight': False, 'trialN': 13, 'loaded': True, 'loadedTime': 7346.699999988079, 'positionName': 'LEFT', 'positionCoords': [245.68, 179.5], 'bid': 2.59}, {'imgObject': {}, 'id': 'cheerios', 'src': '/static/foodstim60/cheerios.jpg', 'key': 'i', 'origWidth': 409, 'origHeight': 410, 'width': 409, 'height': 410, 'widthPercent': 0.45, 'rescaleHeight': False, 'trialN': 13, 'loaded': True, 'loadedTime': 7365.099999964237, 'positionName': 'RIGHT', 'positionCoords': [710.32, 179], 'bid': 5.39}]",29587.799999952316,1669833465617,omelette,cheerios,2.59,5.39,2.8,cheerios,1347.9000000357628,1348,1348.2000000476837,True,i,31441.599999964237,1853.800000011921,1669833467470,1853,HRV,HRV_0201,2022-11-30 18:42:49
14,"[{'imgObject': {}, 'id': 'yogurt no spoon', 'src': '/static/foodstim60/yogurt no spoon.jpg', 'key': 'u', 'origWidth': 411, 'origHeight': 410, 'width': 411, 'height': 410, 'widthPercent': 0.45, 'rescaleHeight': False, 'trialN': 14, 'loaded': True, 'loadedTime': 6869.799999952316, 'positionName': 'LEFT', 'positionCoords': [244.68, 179], 'bid': 6.21}, {'imgObject': {}, 'id': 'sushi w_condiments', 'src': '/static/foodstim60/sushi w_condiments.jpg', 'key': 'i', 'origWidth': 410, 'origHeight': 410, 'width': 410, 'height': 410, 'widthPercent': 0.45, 'rescaleHeight': False, 'trialN': 14, 'loaded': True, 'loadedTime': 7390.099999964237, 'positionName': 'RIGHT', 'positionCoords': [710.32, 179], 'bid': 3.38}]",31441.899999976158,1669833467471,yogurt no spoon,sushi w_condiments,6.21,3.38,-2.83,yogurt no spoon,1229.699999988079,1230,1230.1000000238419,True,u,33179.5,1737.6000000238419,1669833469208,1737,HRV,HRV_0201,2022-11-30 18:42:49
15,"[{'imgObject': {}, 'id': 'corn cob', 'src': '/static/foodstim60/corn cob.jpg', 'key': 'u', 'origWidth': 411, 'origHeight': 411, 'width': 411, 'height': 411, 'widthPercent': 0.45, 'rescaleHeight': False, 'trialN': 15, 'loaded': True, 'loadedTime': 7425.399999976158, 'positionName': 'LEFT', 'positionCoords': [244.68, 178.5], 'bid': 6.72}, {'imgObject': {}, 'id': 'cheerios', 'src': '/static/foodstim60/cheerios.jpg', 'key': 'i', 'origWidth': 409, 'origHeight': 410, 'width': 409, 'height': 410, 'widthPercent': 0.45, 'rescaleHeight': False, 'trialN': 15, 'loaded': True, 'loadedTime': 7366.699999988079, 'positionName': 'RIGHT', 'positionCoords': [710.32, 179], 'bid': 5.39}]",33179.69999998808,1669833469208,corn cob,cheerios,6.72,5.39,-1.33,cheerios,1348.199999988079,1349,1348.5999999642372,True,i,35039.799999952316,1860.0999999642372,1669833471068,1860,HRV,HRV_0201,2022-11-30 18:42:49
16,"[{'imgObject': {}, 'id': 'Tribe humus pita', 'src': '/static/foodstim60/Tribe humus pita.jpg', 'key': 'u', 'origWidth': 411, 'origHeight': 411, 'width': 411, 'height': 411, 'widthPercent': 0.45, 'rescaleHeight': False, 'trialN': 16, 'loaded': True, 'loadedTime': 7445, 'positionName': 'LEFT', 'positionCoords': [244.68, 178.5], 'bid': 7.66}, {'imgObject': {}, 'id': 'baked potato', 'src': '/static/foodstim60/baked potato.jpg', 'key': 'i', 'origWidth': 409, 'origHeight': 410, 'width': 409, 'height': 410, 'widthPercent': 0.45, 'rescaleHeight': False, 'trialN': 16, 'loaded': True, 'loadedTime': 7282.699999988079, 'positionName': 'RIGHT', 'positionCoords': [710.32, 179], 'bid': 7.73}]",35040.0,1669833471069,Tribe humus pita,baked potato,7.66,7.73,0.07000000000000028,Tribe humus pita,967.6999999880791,968,968.0999999642372,True,u,36523.5,1483.5,1669833472552,1483,HRV,HRV_0201,2022-11-30 18:42:49
17,"[{'imgObject': {}, 'id': 'cherries', 'src': '/static/foodstim60/cherries.jpg', 'key': 'u', 'origWidth': 410, 'origHeight': 411, 'width': 410, 'height': 411, 'widthPercent': 0.45, 'rescaleHeight': False, 'trialN': 17, 'loaded': True, 'loadedTime': 7211.199999988079, 'positionName': 'LEFT', 'positionCoords': [245.68, 178.5], 'bid': 4.37}, {'imgObject': {}, 'id': 'sushi w_condiments', 'src': '/static/foodstim60/sushi w_condiments.jpg', 'key': 'i', 'origWidth': 410, 'origHeight': 410, 'width': 410, 'height': 410, 'widthPercent': 0.45, 'rescaleHeight': False, 'trialN': 17, 'loaded': True, 'loadedTime': 7408.299999952316, 'positionName': 'RIGHT', 'positionCoords': [710.32, 179], 'bid': 3.38}]",36523.59999996424,1669833472552,cherries,sushi w_condiments,4.37,3.38,-0.9900000000000002,sushi w_condiments,892.0,893,892.4000000357628,True,i,37923.19999998808,1399.6000000238419,1669833473952,1400,HRV,HRV_0201,2022-11-30 18:42:49
18,"[{'imgObject': {}, 'id': 'tacos', 'src': '/static/foodstim60/tacos.jpg', 'key': 'u', 'origWidth': 411, 'origHeight': 411, 'width': 411, 'height': 411, 'widthPercent': 0.45, 'rescaleHeight': False, 'trialN': 18, 'loaded': True, 'loadedTime': 7459.399999976158, 'positionName': 'LEFT', 'positionCoords': [244.68, 178.5], 'bid': 7.63}, {'imgObject': {}, 'id': 'cantaloupe', 'src': '/static/foodstim60/cantaloupe.jpg', 'key': 'i', 'origWidth': 409, 'origHeight': 409, 'width': 409, 'height': 409, 'widthPercent': 0.45, 'rescaleHeight': False, 'trialN': 18, 'loaded': True, 'loadedTime': 7461.399999976158, 'positionName': 'RIGHT', 'positionCoords': [710.32, 179.5], 'bid': 7.66}]",37923.39999997616,1669833473952,tacos,cantaloupe,7.63,7.66,0.03000000000000025,cantaloupe,988.1999999880791,989,988.5,True,i,39417.59999996424,1494.199999988079,1669833475446,1494,HRV,HRV_0201,2022-11-30 18:42:49
19,"[{'imgObject': {}, 'id': 'raspberries', 'src': '/static/foodstim60/raspberries.jpg', 'key': 'u', 'origWidth': 411, 'origHeight': 411, 'width': 411, 'height': 411, 'widthPercent': 0.45, 'rescaleHeight': False, 'trialN': 19, 'loaded': True, 'loadedTime': 7498.699999988079, 'positionName': 'LEFT', 'positionCoords': [244.68, 178.5], 'bid': 7.98}, {'imgObject': {}, 'id': 'sweetpotato', 'src': '/static/foodstim60/sweetpotato.jpg', 'key': 'i', 'origWidth': 410, 'origHeight': 410, 'width': 410, 'height': 410, 'widthPercent': 0.45, 'rescaleHeight': False, 'trialN': 19, 'loaded': True, 'loadedTime': 7501.5, 'positionName': 'RIGHT', 'positionCoords': [710.32, 179], 'bid': 8.3}]",39417.799999952316,1669833475446,raspberries,sweetpotato,7.98,8.3,0.3200000000000003,raspberries,1085.800000011921,1087,1086.2000000476837,True,u,41010.799999952316,1593.0,1669833477039,1593,HRV,HRV_0201,2022-11-30 18:42:49
20,"[{'imgObject': {}, 'id': 'hotdog w must', 'src': '/static/foodstim60/hotdog w must.jpg', 'key': 'u', 'origWidth': 409, 'origHeight': 409, 'width': 409, 'height': 409, 'widthPercent': 0.45, 'rescaleHeight': False, 'trialN': 20, 'loaded': True, 'loadedTime': 7229.099999964237, 'positionName': 'LEFT', 'positionCoords': [246.68, 179.5], 'bid': 3.15}, {'imgObject': {}, 'id': 'bagel plain', 'src': '/static/foodstim60/bagel plain.jpg', 'key': 'i', 'origWidth': 410, 'origHeight': 410, 'width': 410, 'height': 410, 'widthPercent': 0.45, 'rescaleHeight': False, 'trialN': 20, 'loaded': True, 'loadedTime': 7504.399999976158, 'positionName': 'RIGHT', 'positionCoords': [710.32, 179], 'bid': 6.15}]",41010.89999997616,1669833477040,hotdog w must,bagel plain,3.15,6.15,3.0000000000000004,bagel plain,804.6999999880791,805,805.1000000238419,True,i,42322.799999952316,1311.8999999761581,1669833478352,1312,HRV,HRV_0201,2022-11-30 18:42:49
21,"[{'imgObject': {}, 'id': 'mac & cheese', 'src': '/static/foodstim60/mac & cheese.jpg', 'key': 'u', 'origWidth': 410, 'origHeight': 410, 'width': 410, 'height': 410, 'widthPercent': 0.45, 'rescaleHeight': False, 'trialN': 21, 'loaded': True, 'loadedTime': 7523.5, 'positionName': 'LEFT', 'positionCoords': [245.68, 179], 'bid': 6.05}, {'imgObject': {}, 'id': 'shreddedwheatwithmilk', 'src': '/static/foodstim60/shreddedwheatwithmilk.jpg', 'key': 'i', 'origWidth': 410, 'origHeight': 410, 'width': 410, 'height': 410, 'widthPercent': 0.45, 'rescaleHeight': False, 'trialN': 21, 'loaded': True, 'loadedTime': 7523.899999976158, 'positionName': 'RIGHT', 'positionCoords': [710.32, 179], 'bid': 7.26}]",42323.09999996424,1669833478352,mac & cheese,shreddedwheatwithmilk,6.05,7.26,1.21,shreddedwheatwithmilk,1020.4000000357628,1021,1020.8000000119209,True,i,43846.299999952316,1523.199999988079,1669833479875,1523,HRV,HRV_0201,2022-11-30 18:42:49
22,"[{'imgObject': {}, 'id': 'raspberries', 'src': '/static/foodstim60/raspberries.jpg', 'key': 'u', 'origWidth': 411, 'origHeight': 411, 'width': 411, 'height': 411, 'widthPercent': 0.45, 'rescaleHeight': False, 'trialN': 22, 'loaded': True, 'loadedTime': 7481.299999952316, 'positionName': 'LEFT', 'positionCoords': [244.68, 178.5], 'bid': 7.98}, {'imgObject': {}, 'id': 'steak', 'src': '/static/foodstim60/steak.jpg', 'key': 'i', 'origWidth': 410, 'origHeight': 410, 'width': 410, 'height': 410, 'widthPercent': 0.45, 'rescaleHeight': False, 'trialN': 22, 'loaded': True, 'loadedTime': 6822.799999952316, 'positionName': 'RIGHT', 'positionCoords': [710.32, 179], 'bid': 8.08}]",43846.39999997616,1669833479875,raspberries,steak,7.98,8.08,0.09999999999999964,steak,969.3000000119209,970,969.6999999880791,True,i,45327.5,1481.1000000238419,1669833481356,1481,HRV,HRV_0201,2022-11-30 18:42:49
23,"[{'imgObject': {}, 'id': 'hashbrowns', 'src': '/static/foodstim60/hashbrowns.jpg', 'key': 'u', 'origWidth': 411, 'origHeight': 410, 'width': 411, 'height': 410, 'widthPercent': 0.45, 'rescaleHeight': False, 'trialN': 23, 'loaded': True, 'loadedTime': 7101.299999952316, 'positionName': 'LEFT', 'positionCoords': [244.68, 179], 'bid': 6.83}, {'imgObject': {}, 'id': 'shreddedwheatwithmilk', 'src': '/static/foodstim60/shreddedwheatwithmilk.jpg', 'key': 'i', 'origWidth': 410, 'origHeight': 410, 'width': 410, 'height': 410, 'widthPercent': 0.45, 'rescaleHeight': False, 'trialN': 23, 'loaded': True, 'loadedTime': 7558.099999964237, 'positionName': 'RIGHT', 'positionCoords': [710.32, 179], 'bid': 7.26}]",45327.69999998808,1669833481356,hashbrowns,shreddedwheatwithmilk,6.83,7.26,0.4299999999999997,shreddedwheatwithmilk,1199.800000011921,1201,1200.199999988079,True,i,47031.09999996424,1703.3999999761581,1669833483060,1704,HRV,HRV_0201,2022-11-30 18:42:49
24,"[{'imgObject': {}, 'id': 'burger', 'src': '/static/foodstim60/burger.jpg', 'key': 'u', 'origWidth': 409, 'origHeight': 409, 'width': 409, 'height': 409, 'widthPercent': 0.45, 'rescaleHeight': False, 'trialN': 24, 'loaded': True, 'loadedTime': 7163.799999952316, 'positionName': 'LEFT', 'positionCoords': [246.68, 179.5], 'bid': 7.31}, {'imgObject': {}, 'id': 'yogurt no spoon', 'src': '/static/foodstim60/yogurt no spoon.jpg', 'key': 'i', 'origWidth': 411, 'origHeight': 410, 'width': 411, 'height': 410, 'widthPercent': 0.45, 'rescaleHeight': False, 'trialN': 24, 'loaded': True, 'loadedTime': 6870.299999952316, 'positionName': 'RIGHT', 'positionCoords': [710.32, 179], 'bid': 6.21}]",47031.299999952316,1669833483060,burger,yogurt no spoon,7.31,6.21,-1.0999999999999996,yogurt no spoon,1024.2000000476837,1025,1024.6000000238419,True,i,48558.5,1527.2000000476837,1669833484587,1527,HRV,HRV_0201,2022-11-30 18:42:49
25,"[{'imgObject': {}, 'id': 'baked potato', 'src': '/static/foodstim60/baked potato.jpg', 'key': 'u', 'origWidth': 409, 'origHeight': 410, 'width': 409, 'height': 410, 'widthPercent': 0.45, 'rescaleHeight': False, 'trialN': 25, 'loaded': True, 'loadedTime': 7314.5, 'positionName': 'LEFT', 'positionCoords': [246.68, 179], 'bid': 7.73}, {'imgObject': {}, 'id': 'edamame', 'src': '/static/foodstim60/edamame.jpg', 'key': 'i', 'origWidth': 409, 'origHeight': 410, 'width': 409, 'height': 410, 'widthPercent': 0.45, 'rescaleHeight': False, 'trialN': 25, 'loaded': True, 'loadedTime': 7070.799999952316, 'positionName': 'RIGHT', 'positionCoords': [710.32, 179], 'bid': 5.38}]",48558.59999996424,1669833484587,baked potato,edamame,7.73,5.38,-2.3500000000000005,baked potato,1128.9000000357628,1130,1129.300000011921,True,u,50198.0,1639.4000000357628,1669833486227,1640,HRV,HRV_0201,2022-11-30 18:42:49
26,"[{'imgObject': {}, 'id': 'strawberries', 'src': '/static/foodstim60/strawberries.jpg', 'key': 'u', 'origWidth': 410, 'origHeight': 410, 'width': 410, 'height': 410, 'widthPercent': 0.45, 'rescaleHeight': False, 'trialN': 26, 'loaded': True, 'loadedTime': 7319.599999964237, 'positionName': 'LEFT', 'positionCoords': [245.68, 179], 'bid': 6.71}, {'imgObject': {}, 'id': 'banana', 'src': '/static/foodstim60/banana.jpg', 'key': 'i', 'origWidth': 410, 'origHeight': 410, 'width': 410, 'height': 410, 'widthPercent': 0.45, 'rescaleHeight': False, 'trialN': 26, 'loaded': True, 'loadedTime': 7559.399999976158, 'positionName': 'RIGHT', 'positionCoords': [710.32, 179], 'bid': 3.81}]",50198.09999996424,1669833486227,strawberries,banana,6.71,3.81,-2.9,strawberries,1353.5,1354,1353.9000000357628,True,u,52067.89999997616,1869.800000011921,1669833488097,1870,HRV,HRV_0201,2022-11-30 18:42:49
27,"[{'imgObject': {}, 'id': 'fried eggs', 'src': '/static/foodstim60/fried eggs.jpg', 'key': 'u', 'origWidth': 410, 'origHeight': 410, 'width': 410, 'height': 410, 'widthPercent': 0.45, 'rescaleHeight': False, 'trialN': 27, 'loaded': True, 'loadedTime': 7572.199999988079, 'positionName': 'LEFT', 'positionCoords': [245.68, 179], 'bid': 8.3}, {'imgObject': {}, 'id': 'baked potato', 'src': '/static/foodstim60/baked potato.jpg', 'key': 'i', 'origWidth': 409, 'origHeight': 410, 'width': 409, 'height': 410, 'widthPercent': 0.45, 'rescaleHeight': False, 'trialN': 27, 'loaded': True, 'loadedTime': 7287, 'positionName': 'RIGHT', 'positionCoords': [710.32, 179], 'bid': 7.73}]",52068.09999996424,1669833488097,fried eggs,baked potato,8.3,7.73,-0.5700000000000003,fried eggs,875.3000000119209,876,875.6999999880791,True,u,53454.69999998808,1386.6000000238419,1669833489483,1386,HRV,HRV_0201,2022-11-30 18:42:49
28,"[{'imgObject': {}, 'id': 'cherry tomato', 'src': '/static/foodstim60/cherry tomato.jpg', 'key': 'u', 'origWidth': 410, 'origHeight': 410, 'width': 410, 'height': 410, 'widthPercent': 0.45, 'rescaleHeight': False, 'trialN': 28, 'loaded': True, 'loadedTime': 7578.799999952316, 'positionName': 'LEFT', 'positionCoords': [245.68, 179], 'bid': 2.83}, {'imgObject': {}, 'id': 'turkeysandwich', 'src': '/static/foodstim60/turkeysandwich.jpg', 'key': 'i', 'origWidth': 409, 'origHeight': 409, 'width': 409, 'height': 409, 'widthPercent': 0.45, 'rescaleHeight': False, 'trialN': 28, 'loaded': True, 'loadedTime': 7069.099999964237, 'positionName': 'RIGHT', 'positionCoords': [710.32, 179.5], 'bid': 7.28}]",53455.0,1669833489484,cherry tomato,turkeysandwich,2.83,7.28,4.45,turkeysandwich,984.3999999761581,984,984.7999999523163,True,i,54943.5,1488.5,1669833490972,1488,HRV,HRV_0201,2022-11-30 18:42:49
29,"[{'imgObject': {}, 'id': 'rigatoni', 'src': '/static/foodstim60/rigatoni.jpg', 'key': 'u', 'origWidth': 411, 'origHeight': 411, 'width': 411, 'height': 411, 'widthPercent': 0.45, 'rescaleHeight': False, 'trialN': 29, 'loaded': True, 'loadedTime': 7598, 'positionName': 'LEFT', 'positionCoords': [244.68, 178.5], 'bid': 3.87}, {'imgObject': {}, 'id': 'cherries', 'src': '/static/foodstim60/cherries.jpg', 'key': 'i', 'origWidth': 410, 'origHeight': 411, 'width': 410, 'height': 411, 'widthPercent': 0.45, 'rescaleHeight': False, 'trialN': 29, 'loaded': True, 'loadedTime': 7210.5, 'positionName': 'RIGHT', 'positionCoords': [710.32, 178.5], 'bid': 4.37}]",54943.69999998808,1669833490972,rigatoni,cherries,3.87,4.37,0.5,rigatoni,999.8999999761581,1001,1000.3999999761581,True,u,56453.0,1509.300000011921,1669833492482,1510,HRV,HRV_0201,2022-11-30 18:42:49
30,"[{'imgObject': {}, 'id': 'burger', 'src': '/static/foodstim60/burger.jpg', 'key': 'u', 'origWidth': 409, 'origHeight': 409, 'width': 409, 'height': 409, 'widthPercent': 0.45, 'rescaleHeight': False, 'trialN': 30, 'loaded': True, 'loadedTime': 7163.899999976158, 'positionName': 'LEFT', 'positionCoords': [246.68, 179.5], 'bid': 7.31}, {'imgObject': {}, 'id': 'olives', 'src': '/static/foodstim60/olives.jpg', 'key': 'i', 'origWidth': 410, 'origHeight': 410, 'width': 410, 'height': 410, 'widthPercent': 0.45, 'rescaleHeight': False, 'trialN': 30, 'loaded': True, 'loadedTime': 6997.399999976158, 'positionName': 'RIGHT', 'positionCoords': [710.32, 179], 'bid': 2.96}]",56453.299999952316,1669833492482,burger,olives,7.31,2.96,-4.35,burger,970.2000000476837,967,970.5,True,u,57949.39999997616,1496.1000000238419,1669833493975,1493,HRV,HRV_0201,2022-11-30 18:42:49
31,"[{'imgObject': {}, 'id': 'roastedpotatoes', 'src': '/static/foodstim60/roastedpotatoes.jpg', 'key': 'u', 'origWidth': 409, 'origHeight': 410, 'width': 409, 'height': 410, 'widthPercent': 0.45, 'rescaleHeight': False, 'trialN': 31, 'loaded': True, 'loadedTime': 7000.699999988079, 'positionName': 'LEFT', 'positionCoords': [246.68, 179], 'bid': 7.97}, {'imgObject': {}, 'id': 'apple slices', 'src': '/static/foodstim60/apple slices.jpg', 'key': 'i', 'origWidth': 409, 'origHeight': 410, 'width': 409, 'height': 410, 'widthPercent': 0.45, 'rescaleHeight': False, 'trialN': 31, 'loaded': True, 'loadedTime': 7600, 'positionName': 'RIGHT', 'positionCoords': [710.32, 179], 'bid': 7.95}]",57949.59999996424,1669833493975,roastedpotatoes,apple slices,7.97,7.95,-0.019999999999999574,roastedpotatoes,849.8000000119209,850,850.3000000119209,True,u,59311.0,1361.4000000357628,1669833495336,1361,HRV,HRV_0201,2022-11-30 18:42:49
32,"[{'imgObject': {}, 'id': 'avocado', 'src': '/static/foodstim60/avocado.jpg', 'key': 'u', 'origWidth': 409, 'origHeight': 409, 'width': 409, 'height': 409, 'widthPercent': 0.45, 'rescaleHeight': False, 'trialN': 32, 'loaded': True, 'loadedTime': 7623, 'positionName': 'LEFT', 'positionCoords': [246.68, 179.5], 'bid': 5.89}, {'imgObject': {}, 'id': 'cheerios', 'src': '/static/foodstim60/cheerios.jpg', 'key': 'i', 'origWidth': 409, 'origHeight': 410, 'width': 409, 'height': 410, 'widthPercent': 0.45, 'rescaleHeight': False, 'trialN': 32, 'loaded': True, 'loadedTime': 7367.399999976158, 'positionName': 'RIGHT', 'positionCoords': [710.32, 179], 'bid': 5.39}]",59311.09999996424,1669833495336,avocado,cheerios,5.89,5.39,-0.5,cheerios,888.3000000119209,889,888.6000000238419,True,i,60701.09999996424,1390.0,1669833496726,1390,HRV,HRV_0201,2022-11-30 18:42:49
33,"[{'imgObject': {}, 'id': 'roastedpotatoes', 'src': '/static/foodstim60/roastedpotatoes.jpg', 'key': 'u', 'origWidth': 409, 'origHeight': 410, 'width': 409, 'height': 410, 'widthPercent': 0.45, 'rescaleHeight': False, 'trialN': 33, 'loaded': True, 'loadedTime': 7014.599999964237, 'positionName': 'LEFT', 'positionCoords': [246.68, 179], 'bid': 7.97}, {'imgObject': {}, 'id': 'bagel plain', 'src': '/static/foodstim60/bagel plain.jpg', 'key': 'i', 'origWidth': 410, 'origHeight': 410, 'width': 410, 'height': 410, 'widthPercent': 0.45, 'rescaleHeight': False, 'trialN': 33, 'loaded': True, 'loadedTime': 7520, 'positionName': 'RIGHT', 'positionCoords': [710.32, 179], 'bid': 6.15}]",60701.19999998808,1669833496726,roastedpotatoes,bagel plain,7.97,6.15,-1.8199999999999994,roastedpotatoes,890.0999999642372,891,890.5,True,u,62104.89999997616,1403.699999988079,1669833498130,1404,HRV,HRV_0201,2022-11-30 18:42:49
34,"[{'imgObject': {}, 'id': 'rigatoni', 'src': '/static/foodstim60/rigatoni.jpg', 'key': 'u', 'origWidth': 411, 'origHeight': 411, 'width': 411, 'height': 411, 'widthPercent': 0.45, 'rescaleHeight': False, 'trialN': 34, 'loaded': True, 'loadedTime': 7597.5, 'positionName': 'LEFT', 'positionCoords': [244.68, 178.5], 'bid': 3.87}, {'imgObject': {}, 'id': 'avocado', 'src': '/static/foodstim60/avocado.jpg', 'key': 'i', 'origWidth': 409, 'origHeight': 409, 'width': 409, 'height': 409, 'widthPercent': 0.45, 'rescaleHeight': False, 'trialN': 34, 'loaded': True, 'loadedTime': 7622.899999976158, 'positionName': 'RIGHT', 'positionCoords': [710.32, 179.5], 'bid': 5.89}]",62105.09999996424,1669833498130,rigatoni,avocado,3.87,5.89,2.0199999999999996,rigatoni,1182.199999988079,1183,1182.6000000238419,True,u,63788.799999952316,1683.699999988079,1669833499814,1684,HRV,HRV_0201,2022-11-30 18:42:49
35,"[{'imgObject': {}, 'id': 'grilled chicken strips', 'src': '/static/foodstim60/grilled chicken strips.jpg', 'key': 'u', 'origWidth': 410, 'origHeight': 411, 'width': 410, 'height': 411, 'widthPercent': 0.45, 'rescaleHeight': False, 'trialN': 35, 'loaded': True, 'loadedTime': 7625.399999976158, 'positionName': 'LEFT', 'positionCoords': [245.68, 178.5], 'bid': 7.79}, {'imgObject': {}, 'id': 'seaweed', 'src': '/static/foodstim60/seaweed.jpg', 'key': 'i', 'origWidth': 410, 'origHeight': 410, 'width': 410, 'height': 410, 'widthPercent': 0.45, 'rescaleHeight': False, 'trialN': 35, 'loaded': True, 'loadedTime': 7628.599999964237, 'positionName': 'RIGHT', 'positionCoords': [710.32, 179], 'bid': 7.48}]",63789.09999996424,1669833499814,grilled chicken strips,seaweed,7.79,7.48,-0.3099999999999996,grilled chicken strips,834.1000000238419,835,834.6000000238419,True,u,65129.39999997616,1340.300000011921,1669833501155,1341,HRV,HRV_0201,2022-11-30 18:42:49
36,"[{'imgObject': {}, 'id': 'popsicles', 'src': '/static/foodstim60/popsicles.jpg', 'key': 'u', 'origWidth': 410, 'origHeight': 410, 'width': 410, 'height': 410, 'widthPercent': 0.45, 'rescaleHeight': False, 'trialN': 36, 'loaded': True, 'loadedTime': 7973.199999988079, 'positionName': 'LEFT', 'positionCoords': [245.68, 179], 'bid': 2.49}, {'imgObject': {}, 'id': 'shreddedwheatwithmilk', 'src': '/static/foodstim60/shreddedwheatwithmilk.jpg', 'key': 'i', 'origWidth': 410, 'origHeight': 410, 'width': 410, 'height': 410, 'widthPercent': 0.45, 'rescaleHeight': False, 'trialN': 36, 'loaded': True, 'loadedTime': 7554.099999964237, 'positionName': 'RIGHT', 'positionCoords': [710.32, 179], 'bid': 7.26}]",65129.59999996424,1669833501155,popsicles,shreddedwheatwithmilk,2.49,7.26,4.77,shreddedwheatwithmilk,989.9000000357628,990,990.3000000119209,True,i,66630.29999995232,1500.699999988079,1669833502655,1500,HRV,HRV_0201,2022-11-30 18:42:49
37,"[{'imgObject': {}, 'id': 'Grapes', 'src': '/static/foodstim60/Grapes.jpg', 'key': 'u', 'origWidth': 411, 'origHeight': 411, 'width': 411, 'height': 411, 'widthPercent': 0.45, 'rescaleHeight': False, 'trialN': 37, 'loaded': True, 'loadedTime': 7652.099999964237, 'positionName': 'LEFT', 'positionCoords': [244.68, 178.5], 'bid': 7.84}, {'imgObject': {}, 'id': 'turkeysandwich', 'src': '/static/foodstim60/turkeysandwich.jpg', 'key': 'i', 'origWidth': 409, 'origHeight': 409, 'width': 409, 'height': 409, 'widthPercent': 0.45, 'rescaleHeight': False, 'trialN': 37, 'loaded': True, 'loadedTime': 7048.099999964237, 'positionName': 'RIGHT', 'positionCoords': [710.32, 179.5], 'bid': 7.28}]",66630.59999996424,1669833502656,Grapes,turkeysandwich,7.84,7.28,-0.5599999999999996,turkeysandwich,960.6999999880791,961,961.0,True,i,68096.19999998808,1465.6000000238419,1669833504121,1465,HRV,HRV_0201,2022-11-30 18:42:49
38,"[{'imgObject': {}, 'id': 'rigatoni', 'src': '/static/foodstim60/rigatoni.jpg', 'key': 'u', 'origWidth': 411, 'origHeight': 411, 'width': 411, 'height': 411, 'widthPercent': 0.45, 'rescaleHeight': False, 'trialN': 38, 'loaded': True, 'loadedTime': 7597.899999976158, 'positionName': 'LEFT', 'positionCoords': [244.68, 178.5], 'bid': 3.87}, {'imgObject': {}, 'id': 'cherry tomato', 'src': '/static/foodstim60/cherry tomato.jpg', 'key': 'i', 'origWidth': 410, 'origHeight': 410, 'width': 410, 'height': 410, 'widthPercent': 0.45, 'rescaleHeight': False, 'trialN': 38, 'loaded': True, 'loadedTime': 7580.399999976158, 'positionName': 'RIGHT', 'positionCoords': [710.32, 179], 'bid': 2.83}]",68096.29999995232,1669833504121,rigatoni,cherry tomato,3.87,2.83,-1.04,rigatoni,1639.0,1640,1639.4000000357628,True,u,70249.59999996424,2153.300000011921,1669833506275,2154,HRV,HRV_0201,2022-11-30 18:42:49
39,"[{'imgObject': {}, 'id': 'froot loops w milk', 'src': '/static/foodstim60/froot loops w milk.jpg', 'key': 'u', 'origWidth': 410, 'origHeight': 410, 'width': 410, 'height': 410, 'widthPercent': 0.45, 'rescaleHeight': False, 'trialN': 39, 'loaded': True, 'loadedTime': 7654.899999976158, 'positionName': 'LEFT', 'positionCoords': [245.68, 179], 'bid': 3.87}, {'imgObject': {}, 'id': 'omelette', 'src': '/static/foodstim60/omelette.jpg', 'key': 'i', 'origWidth': 410, 'origHeight': 409, 'width': 410, 'height': 409, 'widthPercent': 0.45, 'rescaleHeight': False, 'trialN': 39, 'loaded': True, 'loadedTime': 7364.299999952316, 'positionName': 'RIGHT', 'positionCoords': [710.32, 179.5], 'bid': 2.59}]",70249.79999995232,1669833506275,froot loops w milk,omelette,3.87,2.59,-1.2800000000000002,froot loops w milk,949.4000000357628,950,949.9000000357628,True,u,71704.09999996424,1454.300000011921,1669833507729,1454,HRV,HRV_0201,2022-11-30 18:42:49
40,"[{'imgObject': {}, 'id': 'apple slices', 'src': '/static/foodstim60/apple slices.jpg', 'key': 'u', 'origWidth': 409, 'origHeight': 410, 'width': 409, 'height': 410, 'widthPercent': 0.45, 'rescaleHeight': False, 'trialN': 40, 'loaded': True, 'loadedTime': 7598.399999976158, 'positionName': 'LEFT', 'positionCoords': [246.68, 179], 'bid': 7.95}, {'imgObject': {}, 'id': 'Tribe humus pita', 'src': '/static/foodstim60/Tribe humus pita.jpg', 'key': 'i', 'origWidth': 411, 'origHeight': 411, 'width': 411, 'height': 411, 'widthPercent': 0.45, 'rescaleHeight': False, 'trialN': 40, 'loaded': True, 'loadedTime': 7444.599999964237, 'positionName': 'RIGHT', 'positionCoords': [710.32, 178.5], 'bid': 7.66}]",71704.19999998808,1669833507729,apple slices,Tribe humus pita,7.95,7.66,-0.29000000000000004,Tribe humus pita,1271.0,1272,1271.3999999761581,True,i,73488.09999996424,1783.8999999761581,1669833509513,1784,HRV,HRV_0201,2022-11-30 18:42:49
41,"[{'imgObject': {}, 'id': 'kiwi', 'src': '/static/foodstim60/kiwi.jpg', 'key': 'u', 'origWidth': 410, 'origHeight': 410, 'width': 410, 'height': 410, 'widthPercent': 0.45, 'rescaleHeight': False, 'trialN': 41, 'loaded': True, 'loadedTime': 7119.899999976158, 'positionName': 'LEFT', 'positionCoords': [245.68, 179], 'bid': 7.37}, {'imgObject': {}, 'id': 'lox', 'src': '/static/foodstim60/lox.jpg', 'key': 'i', 'origWidth': 410, 'origHeight': 411, 'width': 410, 'height': 411, 'widthPercent': 0.45, 'rescaleHeight': False, 'trialN': 41, 'loaded': True, 'loadedTime': 7658, 'positionName': 'RIGHT', 'positionCoords': [710.32, 178.5], 'bid': 3}]",73488.19999998808,1669833509513,kiwi,lox,7.37,3.0,-4.37,kiwi,1311.0,1312,1311.3999999761581,True,u,75310.89999997616,1822.699999988079,1669833511336,1823,HRV,HRV_0201,2022-11-30 18:42:49
42,"[{'imgObject': {}, 'id': 'chickenfingers', 'src': '/static/foodstim60/chickenfingers.jpg', 'key': 'u', 'origWidth': 410, 'origHeight': 410, 'width': 410, 'height': 410, 'widthPercent': 0.45, 'rescaleHeight': False, 'trialN': 42, 'loaded': True, 'loadedTime': 7140.899999976158, 'positionName': 'LEFT', 'positionCoords': [245.68, 179], 'bid': 6.65}, {'imgObject': {}, 'id': 'strawberries', 'src': '/static/foodstim60/strawberries.jpg', 'key': 'i', 'origWidth': 410, 'origHeight': 410, 'width': 410, 'height': 410, 'widthPercent': 0.45, 'rescaleHeight': False, 'trialN': 42, 'loaded': True, 'loadedTime': 7342.899999976158, 'positionName': 'RIGHT', 'positionCoords': [710.32, 179], 'bid': 6.71}]",75311.19999998808,1669833511336,chickenfingers,strawberries,6.65,6.71,0.05999999999999961,chickenfingers,832.0999999642372,833,832.5999999642372,True,u,76650.39999997616,1339.199999988079,1669833512676,1340,HRV,HRV_0201,2022-11-30 18:42:49
43,"[{'imgObject': {}, 'id': 'mac & cheese', 'src': '/static/foodstim60/mac & cheese.jpg', 'key': 'u', 'origWidth': 410, 'origHeight': 410, 'width': 410, 'height': 410, 'widthPercent': 0.45, 'rescaleHeight': False, 'trialN': 43, 'loaded': True, 'loadedTime': 7523, 'positionName': 'LEFT', 'positionCoords': [245.68, 179], 'bid': 6.05}, {'imgObject': {}, 'id': 'turkey sandwich', 'src': '/static/foodstim60/turkey sandwich.jpg', 'key': 'i', 'origWidth': 409, 'origHeight': 409, 'width': 409, 'height': 409, 'widthPercent': 0.45, 'rescaleHeight': False, 'trialN': 43, 'loaded': True, 'loadedTime': 7660.699999988079, 'positionName': 'RIGHT', 'positionCoords': [710.32, 179.5], 'bid': 7.92}]",76650.5,1669833512676,mac & cheese,turkey sandwich,6.05,7.92,1.87,turkey sandwich,1708.5999999642372,1709,1709.0999999642372,True,i,78860.39999997616,2209.899999976158,1669833514886,2210,HRV,HRV_0201,2022-11-30 18:42:49
44,"[{'imgObject': {}, 'id': 'rigatoni and sauce', 'src': '/static/foodstim60/rigatoni and sauce.jpg', 'key': 'u', 'origWidth': 410, 'origHeight': 411, 'width': 410, 'height': 411, 'widthPercent': 0.45, 'rescaleHeight': False, 'trialN': 44, 'loaded': True, 'loadedTime': 7663.799999952316, 'positionName': 'LEFT', 'positionCoords': [245.68, 178.5], 'bid': 2.56}, {'imgObject': {}, 'id': 'omelette', 'src': '/static/foodstim60/omelette.jpg', 'key': 'i', 'origWidth': 410, 'origHeight': 409, 'width': 410, 'height': 409, 'widthPercent': 0.45, 'rescaleHeight': False, 'trialN': 44, 'loaded': True, 'loadedTime': 7348.299999952316, 'positionName': 'RIGHT', 'positionCoords': [710.32, 179.5], 'bid': 2.59}]",78860.59999996424,1669833514886,rigatoni and sauce,omelette,2.56,2.59,0.029999999999999805,rigatoni and sauce,1514.5,1515,1514.9000000357628,True,u,80890.39999997616,2029.800000011921,1669833516916,2030,HRV,HRV_0201,2022-11-30 18:42:49
45,"[{'imgObject': {}, 'id': 'eggs', 'src': '/static/foodstim60/eggs.jpg', 'key': 'u', 'origWidth': 409, 'origHeight': 409, 'width': 409, 'height': 409, 'widthPercent': 0.45, 'rescaleHeight': False, 'trialN': 45, 'loaded': True, 'loadedTime': 7687.199999988079, 'positionName': 'LEFT', 'positionCoords': [246.68, 179.5], 'bid': 5.57}, {'imgObject': {}, 'id': 'cheerios', 'src': '/static/foodstim60/cheerios.jpg', 'key': 'i', 'origWidth': 409, 'origHeight': 410, 'width': 409, 'height': 410, 'widthPercent': 0.45, 'rescaleHeight': False, 'trialN': 45, 'loaded': True, 'loadedTime': 7367.099999964237, 'positionName': 'RIGHT', 'positionCoords': [710.32, 179], 'bid': 5.39}]",80890.69999998808,1669833516916,eggs,cheerios,5.57,5.39,-0.1800000000000006,eggs,740.3999999761581,741,740.8000000119209,True,u,82134.59999996424,1243.8999999761581,1669833518160,1244,HRV,HRV_0201,2022-11-30 18:42:49
46,"[{'imgObject': {}, 'id': 'tacos', 'src': '/static/foodstim60/tacos.jpg', 'key': 'u', 'origWidth': 411, 'origHeight': 411, 'width': 411, 'height': 411, 'widthPercent': 0.45, 'rescaleHeight': False, 'trialN': 46, 'loaded': True, 'loadedTime': 7458.599999964237, 'positionName': 'LEFT', 'positionCoords': [244.68, 178.5], 'bid': 7.63}, {'imgObject': {}, 'id': 'fruitsalad', 'src': '/static/foodstim60/fruitsalad.jpg', 'key': 'i', 'origWidth': 410, 'origHeight': 410, 'width': 410, 'height': 410, 'widthPercent': 0.45, 'rescaleHeight': False, 'trialN': 46, 'loaded': True, 'loadedTime': 6977, 'positionName': 'RIGHT', 'positionCoords': [710.32, 179], 'bid': 7.65}]",82134.79999995232,1669833518160,tacos,fruitsalad,7.63,7.65,0.020000000000000462,tacos,752.3000000119209,753,752.7000000476837,True,u,83401.79999995232,1267.0,1669833519427,1267,HRV,HRV_0201,2022-11-30 18:42:49
47,"[{'imgObject': {}, 'id': 'yogurt no spoon', 'src': '/static/foodstim60/yogurt no spoon.jpg', 'key': 'u', 'origWidth': 411, 'origHeight': 410, 'width': 411, 'height': 410, 'widthPercent': 0.45, 'rescaleHeight': False, 'trialN': 47, 'loaded': True, 'loadedTime': 6868.5, 'positionName': 'LEFT', 'positionCoords': [244.68, 179], 'bid': 6.21}, {'imgObject': {}, 'id': 'raisin bran w milk', 'src': '/static/foodstim60/raisin bran w milk.jpg', 'key': 'i', 'origWidth': 411, 'origHeight': 411, 'width': 411, 'height': 411, 'widthPercent': 0.45, 'rescaleHeight': False, 'trialN': 47, 'loaded': True, 'loadedTime': 6871.099999964237, 'positionName': 'RIGHT', 'positionCoords': [710.32, 178.5], 'bid': 6.2}]",83402.0,1669833519427,yogurt no spoon,raisin bran w milk,6.21,6.2,-0.009999999999999787,yogurt no spoon,941.0,942,941.5,True,u,84844.5,1442.5,1669833520870,1443,HRV,HRV_0201,2022-11-30 18:42:49
48,"[{'imgObject': {}, 'id': 'apple slices', 'src': '/static/foodstim60/apple slices.jpg', 'key': 'u', 'origWidth': 409, 'origHeight': 410, 'width': 409, 'height': 410, 'widthPercent': 0.45, 'rescaleHeight': False, 'trialN': 48, 'loaded': True, 'loadedTime': 7600.099999964237, 'positionName': 'LEFT', 'positionCoords': [246.68, 179], 'bid': 7.95}, {'imgObject': {}, 'id': 'granola w milk', 'src': '/static/foodstim60/granola w milk.jpg', 'key': 'i', 'origWidth': 410, 'origHeight': 410, 'width': 410, 'height': 410, 'widthPercent': 0.45, 'rescaleHeight': False, 'trialN': 48, 'loaded': True, 'loadedTime': 7689.899999976158, 'positionName': 'RIGHT', 'positionCoords': [710.32, 179], 'bid': 6.15}]",84844.69999998808,1669833520870,apple slices,granola w milk,7.95,6.15,-1.7999999999999998,apple slices,970.3000000119209,971,970.8000000119209,True,u,86321.89999997616,1477.199999988079,1669833522347,1477,HRV,HRV_0201,2022-11-30 18:42:49
49,"[{'imgObject': {}, 'id': 'eggsalad', 'src': '/static/foodstim60/eggsalad.jpg', 'key': 'u', 'origWidth': 410, 'origHeight': 409, 'width': 410, 'height': 409, 'widthPercent': 0.45, 'rescaleHeight': False, 'trialN': 49, 'loaded': True, 'loadedTime': 7277.099999964237, 'positionName': 'LEFT', 'positionCoords': [245.68, 179.5], 'bid': 3.19}, {'imgObject': {}, 'id': 'luckycharms', 'src': '/static/foodstim60/luckycharms.jpg', 'key': 'i', 'origWidth': 410, 'origHeight': 409, 'width': 410, 'height': 409, 'widthPercent': 0.45, 'rescaleHeight': False, 'trialN': 49, 'loaded': True, 'loadedTime': 7691.199999988079, 'positionName': 'RIGHT', 'positionCoords': [710.32, 179.5], 'bid': 7.5}]",86322.09999996424,1669833522347,eggsalad,luckycharms,3.19,7.5,4.3100000000000005,luckycharms,1301.0,1302,1301.5,True,i,88134.0,1811.9000000357628,1669833524159,1812,HRV,HRV_0201,2022-11-30 18:42:49
50,"[{'imgObject': {}, 'id': 'avocado', 'src': '/static/foodstim60/avocado.jpg', 'key': 'u', 'origWidth': 409, 'origHeight': 409, 'width': 409, 'height': 409, 'widthPercent': 0.45, 'rescaleHeight': False, 'trialN': 50, 'loaded': True, 'loadedTime': 7623.099999964237, 'positionName': 'LEFT', 'positionCoords': [246.68, 179.5], 'bid': 5.89}, {'imgObject': {}, 'id': 'orange slices', 'src': '/static/foodstim60/orange slices.jpg', 'key': 'i', 'origWidth': 409, 'origHeight': 410, 'width': 409, 'height': 410, 'widthPercent': 0.45, 'rescaleHeight': False, 'trialN': 50, 'loaded': True, 'loadedTime': 7693.799999952316, 'positionName': 'RIGHT', 'positionCoords': [710.32, 179], 'bid': 7.890000000000001}]",88134.09999996424,1669833524159,avocado,orange slices,5.89,7.890000000000001,2.000000000000001,orange slices,856.8000000119209,858,857.1999999880791,True,i,89505.69999998808,1371.6000000238419,1669833525531,1372,HRV,HRV_0201,2022-11-30 18:42:49
51,"[{'imgObject': {}, 'id': 'pear', 'src': '/static/foodstim60/pear.jpg', 'key': 'u', 'origWidth': 411, 'origHeight': 410, 'width': 411, 'height': 410, 'widthPercent': 0.45, 'rescaleHeight': False, 'trialN': 51, 'loaded': True, 'loadedTime': 7695.599999964237, 'positionName': 'LEFT', 'positionCoords': [244.68, 179], 'bid': 2.42}, {'imgObject': {}, 'id': 'popsicles', 'src': '/static/foodstim60/popsicles.jpg', 'key': 'i', 'origWidth': 410, 'origHeight': 410, 'width': 410, 'height': 410, 'widthPercent': 0.45, 'rescaleHeight': False, 'trialN': 51, 'loaded': True, 'loadedTime': 7973.099999964237, 'positionName': 'RIGHT', 'positionCoords': [710.32, 179], 'bid': 2.49}]",89505.89999997616,1669833525531,pear,popsicles,2.42,2.49,0.07000000000000028,pear,973.0,974,973.5,True,u,90989.89999997616,1484.0,1669833527015,1484,HRV,HRV_0201,2022-11-30 18:42:49
52,"[{'imgObject': {}, 'id': 'grilled chicken strips', 'src': '/static/foodstim60/grilled chicken strips.jpg', 'key': 'u', 'origWidth': 410, 'origHeight': 411, 'width': 410, 'height': 411, 'widthPercent': 0.45, 'rescaleHeight': False, 'trialN': 52, 'loaded': True, 'loadedTime': 7625.099999964237, 'positionName': 'LEFT', 'positionCoords': [245.68, 178.5], 'bid': 7.79}, {'imgObject': {}, 'id': 'bagel and cc', 'src': '/static/foodstim60/bagel and cc.jpg', 'key': 'i', 'origWidth': 410, 'origHeight': 410, 'width': 410, 'height': 410, 'widthPercent': 0.45, 'rescaleHeight': False, 'trialN': 52, 'loaded': True, 'loadedTime': 7698.099999964237, 'positionName': 'RIGHT', 'positionCoords': [710.32, 179], 'bid': 7.28}]",90990.09999996424,1669833527015,grilled chicken strips,bagel and cc,7.79,7.28,-0.5099999999999998,grilled chicken strips,776.9000000357628,777,777.1999999880791,True,u,92278.09999996424,1288.0,1669833528303,1288,HRV,HRV_0201,2022-11-30 18:42:49
53,"[{'imgObject': {}, 'id': 'mango', 'src': '/static/foodstim60/mango.jpg', 'key': 'u', 'origWidth': 411, 'origHeight': 411, 'width': 411, 'height': 411, 'widthPercent': 0.45, 'rescaleHeight': False, 'trialN': 53, 'loaded': True, 'loadedTime': 7017.399999976158, 'positionName': 'LEFT', 'positionCoords': [244.68, 178.5], 'bid': 3.98}, {'imgObject': {}, 'id': 'mac & cheese', 'src': '/static/foodstim60/mac & cheese.jpg', 'key': 'i', 'origWidth': 410, 'origHeight': 410, 'width': 410, 'height': 410, 'widthPercent': 0.45, 'rescaleHeight': False, 'trialN': 53, 'loaded': True, 'loadedTime': 7523.699999988079, 'positionName': 'RIGHT', 'positionCoords': [710.32, 179], 'bid': 6.05}]",92278.19999998808,1669833528303,mango,mac & cheese,3.98,6.05,2.07,mac & cheese,1201.0,1202,1201.300000011921,True,i,93983.69999998808,1705.5,1669833530009,1706,HRV,HRV_0201,2022-11-30 18:42:49
54,"[{'imgObject': {}, 'id': 'hashbrowns', 'src': '/static/foodstim60/hashbrowns.jpg', 'key': 'u', 'origWidth': 411, 'origHeight': 410, 'width': 411, 'height': 410, 'widthPercent': 0.45, 'rescaleHeight': False, 'trialN': 54, 'loaded': True, 'loadedTime': 7116.5, 'positionName': 'LEFT', 'positionCoords': [244.68, 179], 'bid': 6.83}, {'imgObject': {}, 'id': 'avocado', 'src': '/static/foodstim60/avocado.jpg', 'key': 'i', 'origWidth': 409, 'origHeight': 409, 'width': 409, 'height': 409, 'widthPercent': 0.45, 'rescaleHeight': False, 'trialN': 54, 'loaded': True, 'loadedTime': 7622.599999964237, 'positionName': 'RIGHT', 'positionCoords': [710.32, 179.5], 'bid': 5.89}]",93984.0,1669833530009,hashbrowns,avocado,6.83,5.89,-0.9400000000000004,hashbrowns,918.8999999761581,919,919.3999999761581,True,u,95415.0,1431.0,1669833531440,1431,HRV,HRV_0201,2022-11-30 18:42:49
55,"[{'imgObject': {}, 'id': 'fried eggs', 'src': '/static/foodstim60/fried eggs.jpg', 'key': 'u', 'origWidth': 410, 'origHeight': 410, 'width': 410, 'height': 410, 'widthPercent': 0.45, 'rescaleHeight': False, 'trialN': 55, 'loaded': True, 'loadedTime': 7567.099999964237, 'positionName': 'LEFT', 'positionCoords': [245.68, 179], 'bid': 8.3}, {'imgObject': {}, 'id': 'tacos', 'src': '/static/foodstim60/tacos.jpg', 'key': 'i', 'origWidth': 411, 'origHeight': 411, 'width': 411, 'height': 411, 'widthPercent': 0.45, 'rescaleHeight': False, 'trialN': 55, 'loaded': True, 'loadedTime': 7456.299999952316, 'positionName': 'RIGHT', 'positionCoords': [710.32, 178.5], 'bid': 7.63}]",95415.19999998808,1669833531440,fried eggs,tacos,8.3,7.63,-0.6700000000000008,tacos,1231.699999988079,1232,1232.0999999642372,True,i,97162.29999995232,1747.0999999642372,1669833533187,1747,HRV,HRV_0201,2022-11-30 18:42:49
56,"[{'imgObject': {}, 'id': 'rigatoni', 'src': '/static/foodstim60/rigatoni.jpg', 'key': 'u', 'origWidth': 411, 'origHeight': 411, 'width': 411, 'height': 411, 'widthPercent': 0.45, 'rescaleHeight': False, 'trialN': 56, 'loaded': True, 'loadedTime': 7595.599999964237, 'positionName': 'LEFT', 'positionCoords': [244.68, 178.5], 'bid': 3.87}, {'imgObject': {}, 'id': 'veggieswithdip', 'src': '/static/foodstim60/veggieswithdip.jpg', 'key': 'i', 'origWidth': 409, 'origHeight': 409, 'width': 409, 'height': 409, 'widthPercent': 0.45, 'rescaleHeight': False, 'trialN': 56, 'loaded': True, 'loadedTime': 7699.599999964237, 'positionName': 'RIGHT', 'positionCoords': [710.32, 179.5], 'bid': 2.26}]",97162.5,1669833533188,rigatoni,veggieswithdip,3.87,2.26,-1.6100000000000003,rigatoni,1276.5,1277,1277.0,True,u,98947.69999998808,1785.199999988079,1669833534973,1785,HRV,HRV_0201,2022-11-30 18:42:49
57,"[{'imgObject': {}, 'id': 'Grapes', 'src': '/static/foodstim60/Grapes.jpg', 'key': 'u', 'origWidth': 411, 'origHeight': 411, 'width': 411, 'height': 411, 'widthPercent': 0.45, 'rescaleHeight': False, 'trialN': 57, 'loaded': True, 'loadedTime': 7651.5, 'positionName': 'LEFT', 'positionCoords': [244.68, 178.5], 'bid': 7.84}, {'imgObject': {}, 'id': 'baked potato', 'src': '/static/foodstim60/baked potato.jpg', 'key': 'i', 'origWidth': 409, 'origHeight': 410, 'width': 409, 'height': 410, 'widthPercent': 0.45, 'rescaleHeight': False, 'trialN': 57, 'loaded': True, 'loadedTime': 7313.799999952316, 'positionName': 'RIGHT', 'positionCoords': [710.32, 179], 'bid': 7.73}]",98947.89999997616,1669833534973,Grapes,baked potato,7.84,7.73,-0.10999999999999943,Grapes,1562.800000011921,1563,1563.3999999761581,True,u,101022.09999996424,2074.199999988079,1669833537047,2074,HRV,HRV_0201,2022-11-30 18:42:49
58,"[{'imgObject': {}, 'id': 'corn cob', 'src': '/static/foodstim60/corn cob.jpg', 'key': 'u', 'origWidth': 411, 'origHeight': 411, 'width': 411, 'height': 411, 'widthPercent': 0.45, 'rescaleHeight': False, 'trialN': 58, 'loaded': True, 'loadedTime': 7425.599999964237, 'positionName': 'LEFT', 'positionCoords': [244.68, 178.5], 'bid': 6.72}, {'imgObject': {}, 'id': 'cocktailshrimp', 'src': '/static/foodstim60/cocktailshrimp.jpg', 'key': 'i', 'origWidth': 410, 'origHeight': 410, 'width': 410, 'height': 410, 'widthPercent': 0.45, 'rescaleHeight': False, 'trialN': 58, 'loaded': True, 'loadedTime': 7717.599999964237, 'positionName': 'RIGHT', 'positionCoords': [710.32, 179], 'bid': 2.21}]",101022.29999995232,1669833537047,corn cob,cocktailshrimp,6.72,2.21,-4.51,cocktailshrimp,984.6000000238419,985,985.0,True,i,102508.19999998808,1485.9000000357628,1669833538533,1486,HRV,HRV_0201,2022-11-30 18:42:49
59,"[{'imgObject': {}, 'id': 'raisin bran w milk', 'src': '/static/foodstim60/raisin bran w milk.jpg', 'key': 'u', 'origWidth': 411, 'origHeight': 411, 'width': 411, 'height': 411, 'widthPercent': 0.45, 'rescaleHeight': False, 'trialN': 59, 'loaded': True, 'loadedTime': 6872.299999952316, 'positionName': 'LEFT', 'positionCoords': [244.68, 178.5], 'bid': 6.2}, {'imgObject': {}, 'id': 'granola w milk', 'src': '/static/foodstim60/granola w milk.jpg', 'key': 'i', 'origWidth': 410, 'origHeight': 410, 'width': 410, 'height': 410, 'widthPercent': 0.45, 'rescaleHeight': False, 'trialN': 59, 'loaded': True, 'loadedTime': 7690, 'positionName': 'RIGHT', 'positionCoords': [710.32, 179], 'bid': 6.15}]",102508.39999997616,1669833538533,raisin bran w milk,granola w milk,6.2,6.15,-0.04999999999999982,raisin bran w milk,1042.5,1043,1042.800000011921,True,u,104061.69999998808,1553.300000011921,1669833540087,1554,HRV,HRV_0201,2022-11-30 18:42:49
60,"[{'imgObject': {}, 'id': 'avocado', 'src': '/static/foodstim60/avocado.jpg', 'key': 'u', 'origWidth': 409, 'origHeight': 409, 'width': 409, 'height': 409, 'widthPercent': 0.45, 'rescaleHeight': False, 'trialN': 60, 'loaded': True, 'loadedTime': 7620.899999976158, 'positionName': 'LEFT', 'positionCoords': [246.68, 179.5], 'bid': 5.89}, {'imgObject': {}, 'id': 'olives', 'src': '/static/foodstim60/olives.jpg', 'key': 'i', 'origWidth': 410, 'origHeight': 410, 'width': 410, 'height': 410, 'widthPercent': 0.45, 'rescaleHeight': False, 'trialN': 60, 'loaded': True, 'loadedTime': 6981.5, 'positionName': 'RIGHT', 'positionCoords': [710.32, 179], 'bid': 2.96}]",104061.79999995232,1669833540087,avocado,olives,5.89,2.96,-2.9299999999999997,avocado,1449.0,1449,1449.4000000357628,True,u,106019.5,1957.7000000476837,1669833542045,1958,HRV,HRV_0201,2022-11-30 18:42:49
61,"[{'imgObject': {}, 'id': 'salmon', 'src': '/static/foodstim60/salmon.jpg', 'key': 'u', 'origWidth': 410, 'origHeight': 409, 'width': 410, 'height': 409, 'widthPercent': 0.45, 'rescaleHeight': False, 'trialN': 61, 'loaded': True, 'loadedTime': 7187.5, 'positionName': 'LEFT', 'positionCoords': [245.68, 179.5], 'bid': 7.6}, {'imgObject': {}, 'id': 'sweetpotato', 'src': '/static/foodstim60/sweetpotato.jpg', 'key': 'i', 'origWidth': 410, 'origHeight': 410, 'width': 410, 'height': 410, 'widthPercent': 0.45, 'rescaleHeight': False, 'trialN': 61, 'loaded': True, 'loadedTime': 7502.699999988079, 'positionName': 'RIGHT', 'positionCoords': [710.32, 179], 'bid': 8.3}]",106019.59999996424,1669833542045,salmon,sweetpotato,7.6,8.3,0.7000000000000011,salmon,907.1999999880791,907,907.6000000238419,True,u,107438.59999996424,1419.0,1669833543464,1419,HRV,HRV_0201,2022-11-30 18:42:49
62,"[{'imgObject': {}, 'id': 'luckycharms', 'src': '/static/foodstim60/luckycharms.jpg', 'key': 'u', 'origWidth': 410, 'origHeight': 409, 'width': 410, 'height': 409, 'widthPercent': 0.45, 'rescaleHeight': False, 'trialN': 62, 'loaded': True, 'loadedTime': 7691.5, 'positionName': 'LEFT', 'positionCoords': [245.68, 179.5], 'bid': 7.5}, {'imgObject': {}, 'id': 'salmon', 'src': '/static/foodstim60/salmon.jpg', 'key': 'i', 'origWidth': 410, 'origHeight': 409, 'width': 410, 'height': 409, 'widthPercent': 0.45, 'rescaleHeight': False, 'trialN': 62, 'loaded': True, 'loadedTime': 7166.099999964237, 'positionName': 'RIGHT', 'positionCoords': [710.32, 179.5], 'bid': 7.6}]",107438.79999995232,1669833543464,luckycharms,salmon,7.5,7.6,0.09999999999999964,luckycharms,1312.1000000238419,1313,1312.6000000238419,True,u,109258.09999996424,1819.300000011921,1669833545283,1819,HRV,HRV_0201,2022-11-30 18:42:49
63,"[{'imgObject': {}, 'id': 'granola w milk', 'src': '/static/foodstim60/granola w milk.jpg', 'key': 'u', 'origWidth': 410, 'origHeight': 410, 'width': 410, 'height': 410, 'widthPercent': 0.45, 'rescaleHeight': False, 'trialN': 63, 'loaded': True, 'loadedTime': 7689.699999988079, 'positionName': 'LEFT', 'positionCoords': [245.68, 179], 'bid': 6.15}, {'imgObject': {}, 'id': 'corn cob', 'src': '/static/foodstim60/corn cob.jpg', 'key': 'i', 'origWidth': 411, 'origHeight': 411, 'width': 411, 'height': 411, 'widthPercent': 0.45, 'rescaleHeight': False, 'trialN': 63, 'loaded': True, 'loadedTime': 7425.699999988079, 'positionName': 'RIGHT', 'positionCoords': [710.32, 178.5], 'bid': 6.72}]",109258.29999995232,1669833545283,granola w milk,corn cob,6.15,6.72,0.5699999999999994,granola w milk,1508.5,1509,1508.800000011921,True,u,111279.29999995232,2021.0,1669833547304,2021,HRV,HRV_0201,2022-11-30 18:42:49
64,"[{'imgObject': {}, 'id': 'turkey sandwich', 'src': '/static/foodstim60/turkey sandwich.jpg', 'key': 'u', 'origWidth': 409, 'origHeight': 409, 'width': 409, 'height': 409, 'widthPercent': 0.45, 'rescaleHeight': False, 'trialN': 64, 'loaded': True, 'loadedTime': 7661.099999964237, 'positionName': 'LEFT', 'positionCoords': [246.68, 179.5], 'bid': 7.92}, {'imgObject': {}, 'id': 'salmon', 'src': '/static/foodstim60/salmon.jpg', 'key': 'i', 'origWidth': 410, 'origHeight': 409, 'width': 410, 'height': 409, 'widthPercent': 0.45, 'rescaleHeight': False, 'trialN': 64, 'loaded': True, 'loadedTime': 7165.599999964237, 'positionName': 'RIGHT', 'positionCoords': [710.32, 179.5], 'bid': 7.6}]",111279.39999997616,1669833547305,turkey sandwich,salmon,7.92,7.6,-0.3200000000000003,turkey sandwich,951.3000000119209,951,951.8000000119209,True,u,112747.79999995232,1468.3999999761581,1669833548773,1468,HRV,HRV_0201,2022-11-30 18:42:49
65,"[{'imgObject': {}, 'id': 'corn cob', 'src': '/static/foodstim60/corn cob.jpg', 'key': 'u', 'origWidth': 411, 'origHeight': 411, 'width': 411, 'height': 411, 'widthPercent': 0.45, 'rescaleHeight': False, 'trialN': 65, 'loaded': True, 'loadedTime': 7424.799999952316, 'positionName': 'LEFT', 'positionCoords': [244.68, 178.5], 'bid': 6.72}, {'imgObject': {}, 'id': 'chicken nuggets2', 'src': '/static/foodstim60/chicken nuggets2.jpg', 'key': 'i', 'origWidth': 410, 'origHeight': 409, 'width': 410, 'height': 409, 'widthPercent': 0.45, 'rescaleHeight': False, 'trialN': 65, 'loaded': True, 'loadedTime': 7717.799999952316, 'positionName': 'RIGHT', 'positionCoords': [710.32, 179.5], 'bid': 6.83}]",112748.09999996424,1669833548773,corn cob,chicken nuggets2,6.72,6.83,0.11000000000000032,chicken nuggets2,826.6000000238419,827,827.0,True,i,114087.09999996424,1339.0,1669833550112,1339,HRV,HRV_0201,2022-11-30 18:42:49
66,"[{'imgObject': {}, 'id': 'burrito', 'src': '/static/foodstim60/burrito.jpg', 'key': 'u', 'origWidth': 410, 'origHeight': 410, 'width': 410, 'height': 410, 'widthPercent': 0.45, 'rescaleHeight': False, 'trialN': 66, 'loaded': True, 'loadedTime': 7722.699999988079, 'positionName': 'LEFT', 'positionCoords': [245.68, 179], 'bid': 7.66}, {'imgObject': {}, 'id': 'luckycharms', 'src': '/static/foodstim60/luckycharms.jpg', 'key': 'i', 'origWidth': 410, 'origHeight': 409, 'width': 410, 'height': 409, 'widthPercent': 0.45, 'rescaleHeight': False, 'trialN': 66, 'loaded': True, 'loadedTime': 7691.699999988079, 'positionName': 'RIGHT', 'positionCoords': [710.32, 179.5], 'bid': 7.5}]",114087.29999995232,1669833550112,burrito,luckycharms,7.66,7.5,-0.16000000000000014,burrito,847.4000000357628,848,847.8000000119209,True,u,115439.09999996424,1351.800000011921,1669833551464,1352,HRV,HRV_0201,2022-11-30 18:42:49
67,"[{'imgObject': {}, 'id': 'fried eggs', 'src': '/static/foodstim60/fried eggs.jpg', 'key': 'u', 'origWidth': 410, 'origHeight': 410, 'width': 410, 'height': 410, 'widthPercent': 0.45, 'rescaleHeight': False, 'trialN': 67, 'loaded': True, 'loadedTime': 7573.799999952316, 'positionName': 'LEFT', 'positionCoords': [245.68, 179], 'bid': 8.3}, {'imgObject': {}, 'id': 'turkey sandwich', 'src': '/static/foodstim60/turkey sandwich.jpg', 'key': 'i', 'origWidth': 409, 'origHeight': 409, 'width': 409, 'height': 409, 'widthPercent': 0.45, 'rescaleHeight': False, 'trialN': 67, 'loaded': True, 'loadedTime': 7660.899999976158, 'positionName': 'RIGHT', 'positionCoords': [710.32, 179.5], 'bid': 7.92}]",115439.39999997616,1669833551464,fried eggs,turkey sandwich,8.3,7.92,-0.3800000000000008,turkey sandwich,1111.199999988079,1112,1111.6000000238419,True,i,117055.79999995232,1616.3999999761581,1669833553081,1617,HRV,HRV_0201,2022-11-30 18:42:49
68,"[{'imgObject': {}, 'id': 'edamame', 'src': '/static/foodstim60/edamame.jpg', 'key': 'u', 'origWidth': 409, 'origHeight': 410, 'width': 409, 'height': 410, 'widthPercent': 0.45, 'rescaleHeight': False, 'trialN': 68, 'loaded': True, 'loadedTime': 7069.599999964237, 'positionName': 'LEFT', 'positionCoords': [246.68, 179], 'bid': 5.38}, {'imgObject': {}, 'id': 'rigatoni and sauce', 'src': '/static/foodstim60/rigatoni and sauce.jpg', 'key': 'i', 'origWidth': 410, 'origHeight': 411, 'width': 410, 'height': 411, 'widthPercent': 0.45, 'rescaleHeight': False, 'trialN': 68, 'loaded': True, 'loadedTime': 7664, 'positionName': 'RIGHT', 'positionCoords': [710.32, 178.5], 'bid': 2.56}]",117056.0,1669833553081,edamame,rigatoni and sauce,5.38,2.56,-2.82,rigatoni and sauce,1054.5999999642372,1058,1055.0,True,i,118620.89999997616,1564.8999999761581,1669833554649,1568,HRV,HRV_0201,2022-11-30 18:42:49
69,"[{'imgObject': {}, 'id': 'hotdog w must', 'src': '/static/foodstim60/hotdog w must.jpg', 'key': 'u', 'origWidth': 409, 'origHeight': 409, 'width': 409, 'height': 409, 'widthPercent': 0.45, 'rescaleHeight': False, 'trialN': 69, 'loaded': True, 'loadedTime': 7250.399999976158, 'positionName': 'LEFT', 'positionCoords': [246.68, 179.5], 'bid': 3.15}, {'imgObject': {}, 'id': 'lox', 'src': '/static/foodstim60/lox.jpg', 'key': 'i', 'origWidth': 410, 'origHeight': 411, 'width': 410, 'height': 411, 'widthPercent': 0.45, 'rescaleHeight': False, 'trialN': 69, 'loaded': True, 'loadedTime': 7658.299999952316, 'positionName': 'RIGHT', 'positionCoords': [710.32, 178.5], 'bid': 3}]",118621.19999998808,1669833554649,hotdog w must,lox,3.15,3.0,-0.1499999999999999,hotdog w must,1913.5999999642372,1914,1914.0999999642372,True,u,121045.79999995232,2424.599999964237,1669833557074,2425,HRV,HRV_0201,2022-11-30 18:42:49
70,"[{'imgObject': {}, 'id': 'sushi w_condiments', 'src': '/static/foodstim60/sushi w_condiments.jpg', 'key': 'u', 'origWidth': 410, 'origHeight': 410, 'width': 410, 'height': 410, 'widthPercent': 0.45, 'rescaleHeight': False, 'trialN': 70, 'loaded': True, 'loadedTime': 7391.899999976158, 'positionName': 'LEFT', 'positionCoords': [245.68, 179], 'bid': 3.38}, {'imgObject': {}, 'id': 'banana', 'src': '/static/foodstim60/banana.jpg', 'key': 'i', 'origWidth': 410, 'origHeight': 410, 'width': 410, 'height': 410, 'widthPercent': 0.45, 'rescaleHeight': False, 'trialN': 70, 'loaded': True, 'loadedTime': 7562.699999988079, 'positionName': 'RIGHT', 'positionCoords': [710.32, 179], 'bid': 3.81}]",121046.0,1669833557074,sushi w_condiments,banana,3.38,3.81,0.43000000000000016,banana,1752.5999999642372,1753,1753.0,True,i,123302.0,2256.0,1669833559330,2256,HRV,HRV_0201,2022-11-30 18:42:49
71,"[{'imgObject': {}, 'id': 'hashbrowns', 'src': '/static/foodstim60/hashbrowns.jpg', 'key': 'u', 'origWidth': 411, 'origHeight': 410, 'width': 411, 'height': 410, 'widthPercent': 0.45, 'rescaleHeight': False, 'trialN': 71, 'loaded': True, 'loadedTime': 7116, 'positionName': 'LEFT', 'positionCoords': [244.68, 179], 'bid': 6.83}, {'imgObject': {}, 'id': 'mashed potato', 'src': '/static/foodstim60/mashed potato.jpg', 'key': 'i', 'origWidth': 409, 'origHeight': 409, 'width': 409, 'height': 409, 'widthPercent': 0.45, 'rescaleHeight': False, 'trialN': 71, 'loaded': True, 'loadedTime': 7317.399999976158, 'positionName': 'RIGHT', 'positionCoords': [710.32, 179.5], 'bid': 7.28}]",123302.29999995232,1669833559330,hashbrowns,mashed potato,6.83,7.28,0.4500000000000002,hashbrowns,1352.300000011921,1353,1352.7000000476837,True,u,125162.5,1860.2000000476837,1669833561190,1860,HRV,HRV_0201,2022-11-30 18:42:49
72,"[{'imgObject': {}, 'id': 'banana', 'src': '/static/foodstim60/banana.jpg', 'key': 'u', 'origWidth': 410, 'origHeight': 410, 'width': 410, 'height': 410, 'widthPercent': 0.45, 'rescaleHeight': False, 'trialN': 72, 'loaded': True, 'loadedTime': 7565.299999952316, 'positionName': 'LEFT', 'positionCoords': [245.68, 179], 'bid': 3.81}, {'imgObject': {}, 'id': 'cheerios', 'src': '/static/foodstim60/cheerios.jpg', 'key': 'i', 'origWidth': 409, 'origHeight': 410, 'width': 409, 'height': 410, 'widthPercent': 0.45, 'rescaleHeight': False, 'trialN': 72, 'loaded': True, 'loadedTime': 7367.899999976158, 'positionName': 'RIGHT', 'positionCoords': [710.32, 179], 'bid': 5.39}]",125162.69999998808,1669833561191,banana,cheerios,3.81,5.39,1.5799999999999996,cheerios,771.8999999761581,772,772.6999999880791,True,i,126447.69999998808,1285.0,1669833562476,1285,HRV,HRV_0201,2022-11-30 18:42:49
73,"[{'imgObject': {}, 'id': 'sushi w_condiments', 'src': '/static/foodstim60/sushi w_condiments.jpg', 'key': 'u', 'origWidth': 410, 'origHeight': 410, 'width': 410, 'height': 410, 'widthPercent': 0.45, 'rescaleHeight': False, 'trialN': 73, 'loaded': True, 'loadedTime': 7391.699999988079, 'positionName': 'LEFT', 'positionCoords': [245.68, 179], 'bid': 3.38}, {'imgObject': {}, 'id': 'salad w chicken', 'src': '/static/foodstim60/salad w chicken.jpg', 'key': 'i', 'origWidth': 411, 'origHeight': 411, 'width': 411, 'height': 411, 'widthPercent': 0.45, 'rescaleHeight': False, 'trialN': 73, 'loaded': True, 'loadedTime': 7384.199999988079, 'positionName': 'RIGHT', 'positionCoords': [710.32, 178.5], 'bid': 3.6}]",126447.89999997616,1669833562476,sushi w_condiments,salad w chicken,3.38,3.6,0.2200000000000002,salad w chicken,886.6000000238419,887,887.1000000238419,True,i,127850.69999998808,1402.800000011921,1669833563879,1403,HRV,HRV_0201,2022-11-30 18:42:49
74,"[{'imgObject': {}, 'id': 'blackbeanswithrice', 'src': '/static/foodstim60/blackbeanswithrice.jpg', 'key': 'u', 'origWidth': 410, 'origHeight': 410, 'width': 410, 'height': 410, 'widthPercent': 0.45, 'rescaleHeight': False, 'trialN': 74, 'loaded': True, 'loadedTime': 6952.599999964237, 'positionName': 'LEFT', 'positionCoords': [245.68, 179], 'bid': 3.06}, {'imgObject': {}, 'id': 'eggsalad', 'src': '/static/foodstim60/eggsalad.jpg', 'key': 'i', 'origWidth': 410, 'origHeight': 409, 'width': 410, 'height': 409, 'widthPercent': 0.45, 'rescaleHeight': False, 'trialN': 74, 'loaded': True, 'loadedTime': 7280.899999976158, 'positionName': 'RIGHT', 'positionCoords': [710.32, 179.5], 'bid': 3.19}]",127850.89999997616,1669833563879,blackbeanswithrice,eggsalad,3.06,3.19,0.1299999999999999,eggsalad,955.6999999880791,956,956.0,True,i,129313.79999995232,1462.8999999761581,1669833565342,1463,HRV,HRV_0201,2022-11-30 18:42:49
75,"[{'imgObject': {}, 'id': 'eggsalad', 'src': '/static/foodstim60/eggsalad.jpg', 'key': 'u', 'origWidth': 410, 'origHeight': 409, 'width': 410, 'height': 409, 'widthPercent': 0.45, 'rescaleHeight': False, 'trialN': 75, 'loaded': True, 'loadedTime': 7279.199999988079, 'positionName': 'LEFT', 'positionCoords': [245.68, 179.5], 'bid': 3.19}, {'imgObject': {}, 'id': 'omelette', 'src': '/static/foodstim60/omelette.jpg', 'key': 'i', 'origWidth': 410, 'origHeight': 409, 'width': 410, 'height': 409, 'widthPercent': 0.45, 'rescaleHeight': False, 'trialN': 75, 'loaded': True, 'loadedTime': 7364, 'positionName': 'RIGHT', 'positionCoords': [710.32, 179.5], 'bid': 2.59}]",129314.0,1669833565342,eggsalad,omelette,3.19,2.59,-0.6000000000000001,eggsalad,1524.699999988079,1525,1525.0999999642372,True,u,131347.39999997616,2033.3999999761581,1669833567375,2033,HRV,HRV_0201,2022-11-30 18:42:49
76,"[{'imgObject': {}, 'id': 'hashbrowns', 'src': '/static/foodstim60/hashbrowns.jpg', 'key': 'u', 'origWidth': 411, 'origHeight': 410, 'width': 411, 'height': 410, 'widthPercent': 0.45, 'rescaleHeight': False, 'trialN': 76, 'loaded': True, 'loadedTime': 7103.199999988079, 'positionName': 'LEFT', 'positionCoords': [244.68, 179], 'bid': 6.83}, {'imgObject': {}, 'id': 'pear', 'src': '/static/foodstim60/pear.jpg', 'key': 'i', 'origWidth': 411, 'origHeight': 410, 'width': 411, 'height': 410, 'widthPercent': 0.45, 'rescaleHeight': False, 'trialN': 76, 'loaded': True, 'loadedTime': 7694.099999964237, 'positionName': 'RIGHT', 'positionCoords': [710.32, 179], 'bid': 2.42}]",131347.59999996424,1669833567375,hashbrowns,pear,6.83,2.42,-4.41,hashbrowns,1042.9000000357628,1044,1043.199999988079,True,u,132893.5,1545.9000000357628,1669833568921,1546,HRV,HRV_0201,2022-11-30 18:42:49
77,"[{'imgObject': {}, 'id': 'froot loops w milk', 'src': '/static/foodstim60/froot loops w milk.jpg', 'key': 'u', 'origWidth': 410, 'origHeight': 410, 'width': 410, 'height': 410, 'widthPercent': 0.45, 'rescaleHeight': False, 'trialN': 77, 'loaded': True, 'loadedTime': 7653, 'positionName': 'LEFT', 'positionCoords': [245.68, 179], 'bid': 3.87}, {'imgObject': {}, 'id': 'fruitsalad', 'src': '/static/foodstim60/fruitsalad.jpg', 'key': 'i', 'origWidth': 410, 'origHeight': 410, 'width': 410, 'height': 410, 'widthPercent': 0.45, 'rescaleHeight': False, 'trialN': 77, 'loaded': True, 'loadedTime': 6954.699999988079, 'positionName': 'RIGHT', 'positionCoords': [710.32, 179], 'bid': 7.65}]",132893.69999998808,1669833568922,froot loops w milk,fruitsalad,3.87,7.65,3.7800000000000002,fruitsalad,1168.800000011921,1169,1169.0999999642372,True,i,134566.5,1672.800000011921,1669833570594,1672,HRV,HRV_0201,2022-11-30 18:42:49
78,"[{'imgObject': {}, 'id': 'mac & cheese', 'src': '/static/foodstim60/mac & cheese.jpg', 'key': 'u', 'origWidth': 410, 'origHeight': 410, 'width': 410, 'height': 410, 'widthPercent': 0.45, 'rescaleHeight': False, 'trialN': 78, 'loaded': True, 'loadedTime': 7520.399999976158, 'positionName': 'LEFT', 'positionCoords': [245.68, 179], 'bid': 6.05}, {'imgObject': {}, 'id': 'eggs', 'src': '/static/foodstim60/eggs.jpg', 'key': 'i', 'origWidth': 409, 'origHeight': 409, 'width': 409, 'height': 409, 'widthPercent': 0.45, 'rescaleHeight': False, 'trialN': 78, 'loaded': True, 'loadedTime': 7664.299999952316, 'positionName': 'RIGHT', 'positionCoords': [710.32, 179.5], 'bid': 5.57}]",134566.69999998808,1669833570595,mac & cheese,eggs,6.05,5.57,-0.47999999999999954,eggs,2263.699999988079,2264,2264.099999964237,True,i,137345.59999996424,2778.899999976158,1669833573374,2779,HRV,HRV_0201,2022-11-30 18:42:49
79,"[{'imgObject': {}, 'id': 'raspberries', 'src': '/static/foodstim60/raspberries.jpg', 'key': 'u', 'origWidth': 411, 'origHeight': 411, 'width': 411, 'height': 411, 'widthPercent': 0.45, 'rescaleHeight': False, 'trialN': 79, 'loaded': True, 'loadedTime': 7483.199999988079, 'positionName': 'LEFT', 'positionCoords': [244.68, 178.5], 'bid': 7.98}, {'imgObject': {}, 'id': 'grilled chicken strips', 'src': '/static/foodstim60/grilled chicken strips.jpg', 'key': 'i', 'origWidth': 410, 'origHeight': 411, 'width': 410, 'height': 411, 'widthPercent': 0.45, 'rescaleHeight': False, 'trialN': 79, 'loaded': True, 'loadedTime': 7625.699999988079, 'positionName': 'RIGHT', 'positionCoords': [710.32, 178.5], 'bid': 7.79}]",137345.89999997616,1669833573374,raspberries,grilled chicken strips,7.98,7.79,-0.1900000000000004,grilled chicken strips,676.6000000238419,677,677.0,True,i,138532.19999998808,1186.300000011921,1669833574560,1186,HRV,HRV_0201,2022-11-30 18:42:49
80,"[{'imgObject': {}, 'id': 'blueberries', 'src': '/static/foodstim60/blueberries.jpg', 'key': 'u', 'origWidth': 411, 'origHeight': 411, 'width': 411, 'height': 411, 'widthPercent': 0.45, 'rescaleHeight': False, 'trialN': 80, 'loaded': True, 'loadedTime': 7345.399999976158, 'positionName': 'LEFT', 'positionCoords': [244.68, 178.5], 'bid': 7.37}, {'imgObject': {}, 'id': 'kiwi', 'src': '/static/foodstim60/kiwi.jpg', 'key': 'i', 'origWidth': 410, 'origHeight': 410, 'width': 410, 'height': 410, 'widthPercent': 0.45, 'rescaleHeight': False, 'trialN': 80, 'loaded': True, 'loadedTime': 7117, 'positionName': 'RIGHT', 'positionCoords': [710.32, 179], 'bid': 7.37}]",138532.39999997616,1669833574560,blueberries,kiwi,7.37,7.37,0.0,kiwi,1250.0,1251,1250.3999999761581,True,i,140284.5,1752.1000000238419,1669833576312,1752,HRV,HRV_0201,2022-11-30 18:42:49
81,"[{'imgObject': {}, 'id': 'bagel and cc', 'src': '/static/foodstim60/bagel and cc.jpg', 'key': 'u', 'origWidth': 410, 'origHeight': 410, 'width': 410, 'height': 410, 'widthPercent': 0.45, 'rescaleHeight': False, 'trialN': 81, 'loaded': True, 'loadedTime': 7697.799999952316, 'positionName': 'LEFT', 'positionCoords': [245.68, 179], 'bid': 7.28}, {'imgObject': {}, 'id': 'strawberries', 'src': '/static/foodstim60/strawberries.jpg', 'key': 'i', 'origWidth': 410, 'origHeight': 410, 'width': 410, 'height': 410, 'widthPercent': 0.45, 'rescaleHeight': False, 'trialN': 81, 'loaded': True, 'loadedTime': 7343.199999988079, 'positionName': 'RIGHT', 'positionCoords': [710.32, 179], 'bid': 6.71}]",140284.69999998808,1669833576313,bagel and cc,strawberries,7.28,6.71,-0.5700000000000003,strawberries,1385.800000011921,1386,1386.300000011921,True,i,142183.19999998808,1898.5,1669833578211,1898,HRV,HRV_0201,2022-11-30 18:42:49
82,"[{'imgObject': {}, 'id': 'cherry tomato', 'src': '/static/foodstim60/cherry tomato.jpg', 'key': 'u', 'origWidth': 410, 'origHeight': 410, 'width': 410, 'height': 410, 'widthPercent': 0.45, 'rescaleHeight': False, 'trialN': 82, 'loaded': True, 'loadedTime': 7595, 'positionName': 'LEFT', 'positionCoords': [245.68, 179], 'bid': 2.83}, {'imgObject': {}, 'id': 'rigatoni and sauce', 'src': '/static/foodstim60/rigatoni and sauce.jpg', 'key': 'i', 'origWidth': 410, 'origHeight': 411, 'width': 410, 'height': 411, 'widthPercent': 0.45, 'rescaleHeight': False, 'trialN': 82, 'loaded': True, 'loadedTime': 7661.5, 'positionName': 'RIGHT', 'positionCoords': [710.32, 178.5], 'bid': 2.56}]",142183.39999997616,1669833578211,cherry tomato,rigatoni and sauce,2.83,2.56,-0.27,rigatoni and sauce,1095.0,1096,1095.3999999761581,True,i,143793.5,1610.1000000238419,1669833579821,1610,HRV,HRV_0201,2022-11-30 18:42:49
83,"[{'imgObject': {}, 'id': 'fried eggs', 'src': '/static/foodstim60/fried eggs.jpg', 'key': 'u', 'origWidth': 410, 'origHeight': 410, 'width': 410, 'height': 410, 'widthPercent': 0.45, 'rescaleHeight': False, 'trialN': 83, 'loaded': True, 'loadedTime': 7573, 'positionName': 'LEFT', 'positionCoords': [245.68, 179], 'bid': 8.3}, {'imgObject': {}, 'id': 'steak', 'src': '/static/foodstim60/steak.jpg', 'key': 'i', 'origWidth': 410, 'origHeight': 410, 'width': 410, 'height': 410, 'widthPercent': 0.45, 'rescaleHeight': False, 'trialN': 83, 'loaded': True, 'loadedTime': 6654, 'positionName': 'RIGHT', 'positionCoords': [710.32, 179], 'bid': 8.08}]",143793.59999996424,1669833579822,fried eggs,steak,8.3,8.08,-0.22000000000000064,steak,1068.699999988079,1069,1069.1000000238419,True,i,145367.29999995232,1573.699999988079,1669833581395,1573,HRV,HRV_0201,2022-11-30 18:42:49
84,"[{'imgObject': {}, 'id': 'grilled chicken strips', 'src': '/static/foodstim60/grilled chicken strips.jpg', 'key': 'u', 'origWidth': 410, 'origHeight': 411, 'width': 410, 'height': 411, 'widthPercent': 0.45, 'rescaleHeight': False, 'trialN': 84, 'loaded': True, 'loadedTime': 7623.5, 'positionName': 'LEFT', 'positionCoords': [245.68, 178.5], 'bid': 7.79}, {'imgObject': {}, 'id': 'Grapes', 'src': '/static/foodstim60/Grapes.jpg', 'key': 'i', 'origWidth': 411, 'origHeight': 411, 'width': 411, 'height': 411, 'widthPercent': 0.45, 'rescaleHeight': False, 'trialN': 84, 'loaded': True, 'loadedTime': 7629, 'positionName': 'RIGHT', 'positionCoords': [710.32, 178.5], 'bid': 7.84}]",145367.39999997616,1669833581395,grilled chicken strips,Grapes,7.79,7.84,0.04999999999999982,grilled chicken strips,902.8999999761581,904,903.3000000119209,True,u,146779.0,1411.6000000238419,1669833582807,1412,HRV,HRV_0201,2022-11-30 18:42:49
85,"[{'imgObject': {}, 'id': 'fried eggs', 'src': '/static/foodstim60/fried eggs.jpg', 'key': 'u', 'origWidth': 410, 'origHeight': 410, 'width': 410, 'height': 410, 'widthPercent': 0.45, 'rescaleHeight': False, 'trialN': 85, 'loaded': True, 'loadedTime': 7570.299999952316, 'positionName': 'LEFT', 'positionCoords': [245.68, 179], 'bid': 8.3}, {'imgObject': {}, 'id': 'sweetpotato', 'src': '/static/foodstim60/sweetpotato.jpg', 'key': 'i', 'origWidth': 410, 'origHeight': 410, 'width': 410, 'height': 410, 'widthPercent': 0.45, 'rescaleHeight': False, 'trialN': 85, 'loaded': True, 'loadedTime': 7501.899999976158, 'positionName': 'RIGHT', 'positionCoords': [710.32, 179], 'bid': 8.3}]",146779.29999995232,1669833582807,fried eggs,sweetpotato,8.3,8.3,0.0,fried eggs,1090.9000000357628,1092,1091.4000000357628,True,u,148375.5,1596.2000000476837,1669833584403,1596,HRV,HRV_0201,2022-11-30 18:42:49
86,"[{'imgObject': {}, 'id': 'turkeysandwich', 'src': '/static/foodstim60/turkeysandwich.jpg', 'key': 'u', 'origWidth': 409, 'origHeight': 409, 'width': 409, 'height': 409, 'widthPercent': 0.45, 'rescaleHeight': False, 'trialN': 86, 'loaded': True, 'loadedTime': 7048.299999952316, 'positionName': 'LEFT', 'positionCoords': [246.68, 179.5], 'bid': 7.28}, {'imgObject': {}, 'id': 'kiwi', 'src': '/static/foodstim60/kiwi.jpg', 'key': 'i', 'origWidth': 410, 'origHeight': 410, 'width': 410, 'height': 410, 'widthPercent': 0.45, 'rescaleHeight': False, 'trialN': 86, 'loaded': True, 'loadedTime': 7118.799999952316, 'positionName': 'RIGHT', 'positionCoords': [710.32, 179], 'bid': 7.37}]",148375.69999998808,1669833584404,turkeysandwich,kiwi,7.28,7.37,0.08999999999999986,turkeysandwich,1158.5999999642372,1159,1158.8999999761581,True,u,150039.79999995232,1664.0999999642372,1669833586068,1664,HRV,HRV_0201,2022-11-30 18:42:49
87,"[{'imgObject': {}, 'id': 'omelette', 'src': '/static/foodstim60/omelette.jpg', 'key': 'u', 'origWidth': 410, 'origHeight': 409, 'width': 410, 'height': 409, 'widthPercent': 0.45, 'rescaleHeight': False, 'trialN': 87, 'loaded': True, 'loadedTime': 7364.699999988079, 'positionName': 'LEFT', 'positionCoords': [245.68, 179.5], 'bid': 2.59}, {'imgObject': {}, 'id': 'bagel and cc', 'src': '/static/foodstim60/bagel and cc.jpg', 'key': 'i', 'origWidth': 410, 'origHeight': 410, 'width': 410, 'height': 410, 'widthPercent': 0.45, 'rescaleHeight': False, 'trialN': 87, 'loaded': True, 'loadedTime': 7696, 'positionName': 'RIGHT', 'positionCoords': [710.32, 179], 'bid': 7.28}]",150039.89999997616,1669833586068,omelette,bagel and cc,2.59,7.28,4.69,bagel and cc,1150.300000011921,1151,1150.800000011921,True,i,151704.59999996424,1664.699999988079,1669833587732,1664,HRV,HRV_0201,2022-11-30 18:42:49
88,"[{'imgObject': {}, 'id': 'mashed potato', 'src': '/static/foodstim60/mashed potato.jpg', 'key': 'u', 'origWidth': 409, 'origHeight': 409, 'width': 409, 'height': 409, 'widthPercent': 0.45, 'rescaleHeight': False, 'trialN': 88, 'loaded': True, 'loadedTime': 7316.199999988079, 'positionName': 'LEFT', 'positionCoords': [246.68, 179.5], 'bid': 7.28}, {'imgObject': {}, 'id': 'granola w milk', 'src': '/static/foodstim60/granola w milk.jpg', 'key': 'i', 'origWidth': 410, 'origHeight': 410, 'width': 410, 'height': 410, 'widthPercent': 0.45, 'rescaleHeight': False, 'trialN': 88, 'loaded': True, 'loadedTime': 7687.799999952316, 'positionName': 'RIGHT', 'positionCoords': [710.32, 179], 'bid': 6.15}]",151704.79999995232,1669833587733,mashed potato,granola w milk,7.28,6.15,-1.13,granola w milk,1197.6000000238419,1198,1198.0,True,i,153411.5,1706.7000000476837,1669833589439,1706,HRV,HRV_0201,2022-11-30 18:42:49
89,"[{'imgObject': {}, 'id': 'Tribe humus pita', 'src': '/static/foodstim60/Tribe humus pita.jpg', 'key': 'u', 'origWidth': 411, 'origHeight': 411, 'width': 411, 'height': 411, 'widthPercent': 0.45, 'rescaleHeight': False, 'trialN': 89, 'loaded': True, 'loadedTime': 7430.599999964237, 'positionName': 'LEFT', 'positionCoords': [244.68, 178.5], 'bid': 7.66}, {'imgObject': {}, 'id': 'shreddedwheatwithmilk', 'src': '/static/foodstim60/shreddedwheatwithmilk.jpg', 'key': 'i', 'origWidth': 410, 'origHeight': 410, 'width': 410, 'height': 410, 'widthPercent': 0.45, 'rescaleHeight': False, 'trialN': 89, 'loaded': True, 'loadedTime': 7556, 'positionName': 'RIGHT', 'positionCoords': [710.32, 179], 'bid': 7.26}]",153411.69999998808,1669833589440,Tribe humus pita,shreddedwheatwithmilk,7.66,7.26,-0.40000000000000036,Tribe humus pita,810.5,811,811.0999999642372,True,u,154733.0,1321.300000011921,1669833590761,1321,HRV,HRV_0201,2022-11-30 18:42:49
90,"[{'imgObject': {}, 'id': 'banana', 'src': '/static/foodstim60/banana.jpg', 'key': 'u', 'origWidth': 410, 'origHeight': 410, 'width': 410, 'height': 410, 'widthPercent': 0.45, 'rescaleHeight': False, 'trialN': 90, 'loaded': True, 'loadedTime': 7565.799999952316, 'positionName': 'LEFT', 'positionCoords': [245.68, 179], 'bid': 3.81}, {'imgObject': {}, 'id': 'froot loops w milk', 'src': '/static/foodstim60/froot loops w milk.jpg', 'key': 'i', 'origWidth': 410, 'origHeight': 410, 'width': 410, 'height': 410, 'widthPercent': 0.45, 'rescaleHeight': False, 'trialN': 90, 'loaded': True, 'loadedTime': 7655.599999964237, 'positionName': 'RIGHT', 'positionCoords': [710.32, 179], 'bid': 3.87}]",160549.0,1669833596577,banana,froot loops w milk,3.81,3.87,0.06000000000000005,froot loops w milk,1969.0999999642372,1970,1969.5999999642372,True,i,163026.69999998808,2477.699999988079,1669833599055,2478,HRV,HRV_0201,2022-11-30 18:42:49
91,"[{'imgObject': {}, 'id': 'shreddedwheatwithmilk', 'src': '/static/foodstim60/shreddedwheatwithmilk.jpg', 'key': 'u', 'origWidth': 410, 'origHeight': 410, 'width': 410, 'height': 410, 'widthPercent': 0.45, 'rescaleHeight': False, 'trialN': 91, 'loaded': True, 'loadedTime': 7526.199999988079, 'positionName': 'LEFT', 'positionCoords': [245.68, 179], 'bid': 7.26}, {'imgObject': {}, 'id': 'bagel and cc', 'src': '/static/foodstim60/bagel and cc.jpg', 'key': 'i', 'origWidth': 410, 'origHeight': 410, 'width': 410, 'height': 410, 'widthPercent': 0.45, 'rescaleHeight': False, 'trialN': 91, 'loaded': True, 'loadedTime': 7697.5, 'positionName': 'RIGHT', 'positionCoords': [710.32, 179], 'bid': 7.28}]",163026.79999995232,1669833599055,shreddedwheatwithmilk,bagel and cc,7.26,7.28,0.020000000000000462,shreddedwheatwithmilk,1651.5,1652,1651.9000000357628,True,u,165180.19999998808,2153.400000035763,1669833601208,2153,HRV,HRV_0201,2022-11-30 18:42:49
92,"[{'imgObject': {}, 'id': 'mango', 'src': '/static/foodstim60/mango.jpg', 'key': 'u', 'origWidth': 411, 'origHeight': 411, 'width': 411, 'height': 411, 'widthPercent': 0.45, 'rescaleHeight': False, 'trialN': 92, 'loaded': True, 'loadedTime': 7042.699999988079, 'positionName': 'LEFT', 'positionCoords': [244.68, 178.5], 'bid': 3.98}, {'imgObject': {}, 'id': 'pear', 'src': '/static/foodstim60/pear.jpg', 'key': 'i', 'origWidth': 411, 'origHeight': 410, 'width': 411, 'height': 410, 'widthPercent': 0.45, 'rescaleHeight': False, 'trialN': 92, 'loaded': True, 'loadedTime': 7695.299999952316, 'positionName': 'RIGHT', 'positionCoords': [710.32, 179], 'bid': 2.42}]",165180.29999995232,1669833601208,mango,pear,3.98,2.42,-1.56,pear,737.8000000119209,738,738.2000000476837,True,i,166420.69999998808,1240.4000000357628,1669833602449,1241,HRV,HRV_0201,2022-11-30 18:42:49
93,"[{'imgObject': {}, 'id': 'seaweed', 'src': '/static/foodstim60/seaweed.jpg', 'key': 'u', 'origWidth': 410, 'origHeight': 410, 'width': 410, 'height': 410, 'widthPercent': 0.45, 'rescaleHeight': False, 'trialN': 93, 'loaded': True, 'loadedTime': 7628.799999952316, 'positionName': 'LEFT', 'positionCoords': [245.68, 179], 'bid': 7.48}, {'imgObject': {}, 'id': 'ice cream sundae 002', 'src': '/static/foodstim60/ice cream sundae 002.jpg', 'key': 'i', 'origWidth': 409, 'origHeight': 409, 'width': 409, 'height': 409, 'widthPercent': 0.45, 'rescaleHeight': False, 'trialN': 93, 'loaded': True, 'loadedTime': 7072.299999952316, 'positionName': 'RIGHT', 'positionCoords': [710.32, 179.5], 'bid': 7.53}]",166420.89999997616,1669833602449,seaweed,ice cream sundae 002,7.48,7.53,0.04999999999999982,ice cream sundae 002,1489.1000000238419,1489,1489.6000000238419,True,i,168414.59999996424,1993.699999988079,1669833604442,1993,HRV,HRV_0201,2022-11-30 18:42:49
94,"[{'imgObject': {}, 'id': 'turkey sandwich', 'src': '/static/foodstim60/turkey sandwich.jpg', 'key': 'u', 'origWidth': 409, 'origHeight': 409, 'width': 409, 'height': 409, 'widthPercent': 0.45, 'rescaleHeight': False, 'trialN': 94, 'loaded': True, 'loadedTime': 7661.299999952316, 'positionName': 'LEFT', 'positionCoords': [246.68, 179.5], 'bid': 7.92}, {'imgObject': {}, 'id': 'kiwi', 'src': '/static/foodstim60/kiwi.jpg', 'key': 'i', 'origWidth': 410, 'origHeight': 410, 'width': 410, 'height': 410, 'widthPercent': 0.45, 'rescaleHeight': False, 'trialN': 94, 'loaded': True, 'loadedTime': 7119.299999952316, 'positionName': 'RIGHT', 'positionCoords': [710.32, 179], 'bid': 7.37}]",168414.69999998808,1669833604443,turkey sandwich,kiwi,7.92,7.37,-0.5499999999999998,turkey sandwich,807.3000000119209,807,807.6999999880791,True,u,169729.79999995232,1315.0999999642372,1669833605758,1315,HRV,HRV_0201,2022-11-30 18:42:49
95,"[{'imgObject': {}, 'id': 'seaweed', 'src': '/static/foodstim60/seaweed.jpg', 'key': 'u', 'origWidth': 410, 'origHeight': 410, 'width': 410, 'height': 410, 'widthPercent': 0.45, 'rescaleHeight': False, 'trialN': 95, 'loaded': True, 'loadedTime': 7626.199999988079, 'positionName': 'LEFT', 'positionCoords': [245.68, 179], 'bid': 7.48}, {'imgObject': {}, 'id': 'luckycharms', 'src': '/static/foodstim60/luckycharms.jpg', 'key': 'i', 'origWidth': 410, 'origHeight': 409, 'width': 410, 'height': 409, 'widthPercent': 0.45, 'rescaleHeight': False, 'trialN': 95, 'loaded': True, 'loadedTime': 7691.399999976158, 'positionName': 'RIGHT', 'positionCoords': [710.32, 179.5], 'bid': 7.5}]",169730.0,1669833605758,seaweed,luckycharms,7.48,7.5,0.019999999999999574,seaweed,1660.0999999642372,1660,1660.3999999761581,True,u,171906.69999998808,2176.699999988079,1669833607935,2177,HRV,HRV_0201,2022-11-30 18:42:49
96,"[{'imgObject': {}, 'id': 'seaweed', 'src': '/static/foodstim60/seaweed.jpg', 'key': 'u', 'origWidth': 410, 'origHeight': 410, 'width': 410, 'height': 410, 'widthPercent': 0.45, 'rescaleHeight': False, 'trialN': 96, 'loaded': True, 'loadedTime': 7628.399999976158, 'positionName': 'LEFT', 'positionCoords': [245.68, 179], 'bid': 7.48}, {'imgObject': {}, 'id': 'cantaloupe', 'src': '/static/foodstim60/cantaloupe.jpg', 'key': 'i', 'origWidth': 409, 'origHeight': 409, 'width': 409, 'height': 409, 'widthPercent': 0.45, 'rescaleHeight': False, 'trialN': 96, 'loaded': True, 'loadedTime': 7478.299999952316, 'positionName': 'RIGHT', 'positionCoords': [710.32, 179.5], 'bid': 7.66}]",171906.89999997616,1669833607935,seaweed,cantaloupe,7.48,7.66,0.17999999999999972,seaweed,1171.1000000238419,1171,1171.6000000238419,True,u,173594.09999996424,1687.199999988079,1669833609622,1687,HRV,HRV_0201,2022-11-30 18:42:49
97,"[{'imgObject': {}, 'id': 'banana', 'src': '/static/foodstim60/banana.jpg', 'key': 'u', 'origWidth': 410, 'origHeight': 410, 'width': 410, 'height': 410, 'widthPercent': 0.45, 'rescaleHeight': False, 'trialN': 97, 'loaded': True, 'loadedTime': 7562.299999952316, 'positionName': 'LEFT', 'positionCoords': [245.68, 179], 'bid': 3.81}, {'imgObject': {}, 'id': 'tacos', 'src': '/static/foodstim60/tacos.jpg', 'key': 'i', 'origWidth': 411, 'origHeight': 411, 'width': 411, 'height': 411, 'widthPercent': 0.45, 'rescaleHeight': False, 'trialN': 97, 'loaded': True, 'loadedTime': 7459.199999988079, 'positionName': 'RIGHT', 'positionCoords': [710.32, 178.5], 'bid': 7.63}]",173594.29999995232,1669833609622,banana,tacos,3.81,7.63,3.82,tacos,851.7000000476837,852,852.1000000238419,True,i,174948.0,1353.7000000476837,1669833610976,1354,HRV,HRV_0201,2022-11-30 18:42:49
98,"[{'imgObject': {}, 'id': 'popsicles', 'src': '/static/foodstim60/popsicles.jpg', 'key': 'u', 'origWidth': 410, 'origHeight': 410, 'width': 410, 'height': 410, 'widthPercent': 0.45, 'rescaleHeight': False, 'trialN': 98, 'loaded': True, 'loadedTime': 7973.399999976158, 'positionName': 'LEFT', 'positionCoords': [245.68, 179], 'bid': 2.49}, {'imgObject': {}, 'id': 'blackbeanswithrice', 'src': '/static/foodstim60/blackbeanswithrice.jpg', 'key': 'i', 'origWidth': 410, 'origHeight': 410, 'width': 410, 'height': 410, 'widthPercent': 0.45, 'rescaleHeight': False, 'trialN': 98, 'loaded': True, 'loadedTime': 6953.299999952316, 'positionName': 'RIGHT', 'positionCoords': [710.32, 179], 'bid': 3.06}]",174948.19999998808,1669833610976,popsicles,blackbeanswithrice,2.49,3.06,0.5699999999999998,blackbeanswithrice,770.0,771,770.3999999761581,True,i,176229.09999996424,1280.8999999761581,1669833612257,1281,HRV,HRV_0201,2022-11-30 18:42:49
99,"[{'imgObject': {}, 'id': 'orange slices', 'src': '/static/foodstim60/orange slices.jpg', 'key': 'u', 'origWidth': 409, 'origHeight': 410, 'width': 409, 'height': 410, 'widthPercent': 0.45, 'rescaleHeight': False, 'trialN': 99, 'loaded': True, 'loadedTime': 7693.299999952316, 'positionName': 'LEFT', 'positionCoords': [246.68, 179], 'bid': 7.890000000000001}, {'imgObject': {}, 'id': 'apple slices', 'src': '/static/foodstim60/apple slices.jpg', 'key': 'i', 'origWidth': 409, 'origHeight': 410, 'width': 409, 'height': 410, 'widthPercent': 0.45, 'rescaleHeight': False, 'trialN': 99, 'loaded': True, 'loadedTime': 7600.399999976158, 'positionName': 'RIGHT', 'positionCoords': [710.32, 179], 'bid': 7.95}]",176229.39999997616,1669833612257,orange slices,apple slices,7.890000000000001,7.95,0.05999999999999961,orange slices,1072.6000000238419,1073,1073.0,True,u,177811.09999996424,1581.699999988079,1669833613839,1582,HRV,HRV_0201,2022-11-30 18:42:49
100,"[{'imgObject': {}, 'id': 'Grapes', 'src': '/static/foodstim60/Grapes.jpg', 'key': 'u', 'origWidth': 411, 'origHeight': 411, 'width': 411, 'height': 411, 'widthPercent': 0.45, 'rescaleHeight': False, 'trialN': 100, 'loaded': True, 'loadedTime': 7630.299999952316, 'positionName': 'LEFT', 'positionCoords': [244.68, 178.5], 'bid': 7.84}, {'imgObject': {}, 'id': 'luckycharms', 'src': '/static/foodstim60/luckycharms.jpg', 'key': 'i', 'origWidth': 410, 'origHeight': 409, 'width': 410, 'height': 409, 'widthPercent': 0.45, 'rescaleHeight': False, 'trialN': 100, 'loaded': True, 'loadedTime': 7690.199999988079, 'positionName': 'RIGHT', 'positionCoords': [710.32, 179.5], 'bid': 7.5}]",177811.29999995232,1669833613839,Grapes,luckycharms,7.84,7.5,-0.33999999999999986,luckycharms,978.7000000476837,969,979.1000000238419,True,i,179297.5,1486.2000000476837,1669833615315,1476,HRV,HRV_0201,2022-11-30 18:42:49
101,"[{'imgObject': {}, 'id': 'orange slices', 'src': '/static/foodstim60/orange slices.jpg', 'key': 'u', 'origWidth': 409, 'origHeight': 410, 'width': 409, 'height': 410, 'widthPercent': 0.45, 'rescaleHeight': False, 'trialN': 101, 'loaded': True, 'loadedTime': 7692.099999964237, 'positionName': 'LEFT', 'positionCoords': [246.68, 179], 'bid': 7.890000000000001}, {'imgObject': {}, 'id': 'turkey sandwich', 'src': '/static/foodstim60/turkey sandwich.jpg', 'key': 'i', 'origWidth': 409, 'origHeight': 409, 'width': 409, 'height': 409, 'widthPercent': 0.45, 'rescaleHeight': False, 'trialN': 101, 'loaded': True, 'loadedTime': 7660.299999952316, 'positionName': 'RIGHT', 'positionCoords': [710.32, 179.5], 'bid': 7.92}]",179297.69999998808,1669833615316,orange slices,turkey sandwich,7.890000000000001,7.92,0.02999999999999936,orange slices,748.3000000119209,748,748.6999999880791,True,u,180558.89999997616,1261.199999988079,1669833616577,1261,HRV,HRV_0201,2022-11-30 18:42:49
102,"[{'imgObject': {}, 'id': 'veggieswithdip', 'src': '/static/foodstim60/veggieswithdip.jpg', 'key': 'u', 'origWidth': 409, 'origHeight': 409, 'width': 409, 'height': 409, 'widthPercent': 0.45, 'rescaleHeight': False, 'trialN': 102, 'loaded': True, 'loadedTime': 7698.199999988079, 'positionName': 'LEFT', 'positionCoords': [246.68, 179.5], 'bid': 2.26}, {'imgObject': {}, 'id': 'popsicles', 'src': '/static/foodstim60/popsicles.jpg', 'key': 'i', 'origWidth': 410, 'origHeight': 410, 'width': 410, 'height': 410, 'widthPercent': 0.45, 'rescaleHeight': False, 'trialN': 102, 'loaded': True, 'loadedTime': 7972.5, 'positionName': 'RIGHT', 'positionCoords': [710.32, 179], 'bid': 2.49}]",180559.0,1669833616577,veggieswithdip,popsicles,2.26,2.49,0.23000000000000043,veggieswithdip,1294.8999999761581,1295,1295.3999999761581,True,u,182362.29999995232,1803.2999999523163,1669833618380,1803,HRV,HRV_0201,2022-11-30 18:42:49
103,"[{'imgObject': {}, 'id': 'sweetpotato', 'src': '/static/foodstim60/sweetpotato.jpg', 'key': 'u', 'origWidth': 410, 'origHeight': 410, 'width': 410, 'height': 410, 'widthPercent': 0.45, 'rescaleHeight': False, 'trialN': 103, 'loaded': True, 'loadedTime': 7502.399999976158, 'positionName': 'LEFT', 'positionCoords': [245.68, 179], 'bid': 8.3}, {'imgObject': {}, 'id': 'chickenfingers', 'src': '/static/foodstim60/chickenfingers.jpg', 'key': 'i', 'origWidth': 410, 'origHeight': 410, 'width': 410, 'height': 410, 'widthPercent': 0.45, 'rescaleHeight': False, 'trialN': 103, 'loaded': True, 'loadedTime': 7141.599999964237, 'positionName': 'RIGHT', 'positionCoords': [710.32, 179], 'bid': 6.65}]",182362.5,1669833618380,sweetpotato,chickenfingers,8.3,6.65,-1.6500000000000004,chickenfingers,1299.3999999761581,1300,1299.699999988079,True,i,184172.89999997616,1810.3999999761581,1669833620191,1811,HRV,HRV_0201,2022-11-30 18:42:49
104,"[{'imgObject': {}, 'id': 'strawberries', 'src': '/static/foodstim60/strawberries.jpg', 'key': 'u', 'origWidth': 410, 'origHeight': 410, 'width': 410, 'height': 410, 'widthPercent': 0.45, 'rescaleHeight': False, 'trialN': 104, 'loaded': True, 'loadedTime': 7317.699999988079, 'positionName': 'LEFT', 'positionCoords': [245.68, 179], 'bid': 6.71}, {'imgObject': {}, 'id': 'chicken nuggets2', 'src': '/static/foodstim60/chicken nuggets2.jpg', 'key': 'i', 'origWidth': 410, 'origHeight': 409, 'width': 410, 'height': 409, 'widthPercent': 0.45, 'rescaleHeight': False, 'trialN': 104, 'loaded': True, 'loadedTime': 7720.299999952316, 'positionName': 'RIGHT', 'positionCoords': [710.32, 179.5], 'bid': 6.83}]",184173.09999996424,1669833620191,strawberries,chicken nuggets2,6.71,6.83,0.1200000000000001,chicken nuggets2,896.9000000357628,897,897.1999999880791,True,i,185582.0,1408.9000000357628,1669833621600,1409,HRV,HRV_0201,2022-11-30 18:42:49
105,"[{'imgObject': {}, 'id': 'pear', 'src': '/static/foodstim60/pear.jpg', 'key': 'u', 'origWidth': 411, 'origHeight': 410, 'width': 411, 'height': 410, 'widthPercent': 0.45, 'rescaleHeight': False, 'trialN': 105, 'loaded': True, 'loadedTime': 7695.799999952316, 'positionName': 'LEFT', 'positionCoords': [244.68, 179], 'bid': 2.42}, {'imgObject': {}, 'id': 'cocktailshrimp', 'src': '/static/foodstim60/cocktailshrimp.jpg', 'key': 'i', 'origWidth': 410, 'origHeight': 410, 'width': 410, 'height': 410, 'widthPercent': 0.45, 'rescaleHeight': False, 'trialN': 105, 'loaded': True, 'loadedTime': 7715.299999952316, 'positionName': 'RIGHT', 'positionCoords': [710.32, 179], 'bid': 2.21}]",185582.19999998808,1669833621600,pear,cocktailshrimp,2.42,2.21,-0.20999999999999996,pear,1943.800000011921,1944,1944.199999988079,True,u,188043.39999997616,2461.199999988079,1669833624061,2461,HRV,HRV_0201,2022-11-30 18:42:49
106,"[{'imgObject': {}, 'id': 'chickenfingers', 'src': '/static/foodstim60/chickenfingers.jpg', 'key': 'u', 'origWidth': 410, 'origHeight': 410, 'width': 410, 'height': 410, 'widthPercent': 0.45, 'rescaleHeight': False, 'trialN': 106, 'loaded': True, 'loadedTime': 7139.299999952316, 'positionName': 'LEFT', 'positionCoords': [245.68, 179], 'bid': 6.65}, {'imgObject': {}, 'id': 'corn cob', 'src': '/static/foodstim60/corn cob.jpg', 'key': 'i', 'origWidth': 411, 'origHeight': 411, 'width': 411, 'height': 411, 'widthPercent': 0.45, 'rescaleHeight': False, 'trialN': 106, 'loaded': True, 'loadedTime': 7423.099999964237, 'positionName': 'RIGHT', 'positionCoords': [710.32, 178.5], 'bid': 6.72}]",188043.59999996424,1669833624061,chickenfingers,corn cob,6.65,6.72,0.0699999999999994,chickenfingers,754.3000000119209,755,754.6999999880791,True,u,189313.89999997616,1270.300000011921,1669833625332,1271,HRV,HRV_0201,2022-11-30 18:42:49
107,"[{'imgObject': {}, 'id': 'orange slices', 'src': '/static/foodstim60/orange slices.jpg', 'key': 'u', 'origWidth': 409, 'origHeight': 410, 'width': 409, 'height': 410, 'widthPercent': 0.45, 'rescaleHeight': False, 'trialN': 107, 'loaded': True, 'loadedTime': 7693.899999976158, 'positionName': 'LEFT', 'positionCoords': [246.68, 179], 'bid': 7.890000000000001}, {'imgObject': {}, 'id': 'sweetpotato', 'src': '/static/foodstim60/sweetpotato.jpg', 'key': 'i', 'origWidth': 410, 'origHeight': 410, 'width': 410, 'height': 410, 'widthPercent': 0.45, 'rescaleHeight': False, 'trialN': 107, 'loaded': True, 'loadedTime': 7499.899999976158, 'positionName': 'RIGHT', 'positionCoords': [710.32, 179], 'bid': 8.3}]",189314.09999996424,1669833625332,orange slices,sweetpotato,7.890000000000001,8.3,0.41000000000000014,orange slices,1675.699999988079,1676,1676.1000000238419,True,u,191499.29999995232,2185.199999988079,1669833627517,2185,HRV,HRV_0201,2022-11-30 18:42:49
108,"[{'imgObject': {}, 'id': 'rigatoni', 'src': '/static/foodstim60/rigatoni.jpg', 'key': 'u', 'origWidth': 411, 'origHeight': 411, 'width': 411, 'height': 411, 'widthPercent': 0.45, 'rescaleHeight': False, 'trialN': 108, 'loaded': True, 'loadedTime': 7598.299999952316, 'positionName': 'LEFT', 'positionCoords': [244.68, 178.5], 'bid': 3.87}, {'imgObject': {}, 'id': 'mango', 'src': '/static/foodstim60/mango.jpg', 'key': 'i', 'origWidth': 411, 'origHeight': 411, 'width': 411, 'height': 411, 'widthPercent': 0.45, 'rescaleHeight': False, 'trialN': 108, 'loaded': True, 'loadedTime': 7043.699999988079, 'positionName': 'RIGHT', 'positionCoords': [710.32, 178.5], 'bid': 3.98}]",191499.59999996424,1669833627517,rigatoni,mango,3.87,3.98,0.10999999999999988,rigatoni,1474.199999988079,1475,1474.6000000238419,True,u,193491.59999996424,1992.0,1669833629509,1992,HRV,HRV_0201,2022-11-30 18:42:49
