success,trial_type,trial_index,time_elapsed,internal_node_id,missTrial,missTrialMsg,Block,TrialNumber,TrialTime,trialTimeDiff,FPS_avg,FPS_med,FPS_mode,TrialDur,winResizeTime,rt,block,button_pressed,MotCoh,MotDir,ColCoh,Color,ChoiceKey,Choice,Accuracy,RT,nFrames,FPS,PPD,onsetDelay,fullScreenExitTime,canvCenter,TrialType,Score,BlockTrial,stimulus,button_labels,exp,subjectId,date
True,fullscreen,0,1784068,0.0-0.0,True,undefinedblurEvent ,0.0,0.0,,,,,,,,,,,,,,,,,,,,,,,,,,,,,,HRV,HRV_0274,2022-11-30 21:09:56
,wl-check-fps,1,1789088,0.0-1.0,,,0.0,1.0,"[1786301.1, 1786318.6, 1786335.3, 1786350.2, 1786366.7, 1786383.2, 1786400.1, 1786416.6, 1786433.5, 1786450.3, 1786471.8, 1786487.8, 1786502.6, 1786526.3, 1786537.4, 1786549.5, 1786566.2, 1786583, 1786599.7, 1786616.5, 1786633.4, 1786650.1, 1786666.9, 1786683.5, 1786700.1, 1786717, 1786733.3, 1786749.9, 1786766.7, 1786783.5, 1786800, 1786816.4, 1786833.4, 1786850.1, 1786866.7, 1786883.3, 1786900.2, 1786916.9, 1786933.4, 1786950.4, 1786967.9, 1786983.4, 1787000.9, 1787016.7, 1787033.9, 1787050.1, 1787066.7, 1787083.4, 1787100.2, 1787116.8, 1787133.6, 1787149.9, 1787166.8, 1787183.5, 1787200.1, 1787216.8, 1787233.6, 1787250.1, 1787267.4, 1787283.4, 1787300.2, 1787316.7, 1787333.6, 1787350.3, 1787367.1, 1787383.6, 1787400.1, 1787417, 1787433.7, 1787450.2, 1787467, 1787483.6, 1787500.4, 1787516.8, 1787533.5, 1787550.2, 1787567, 1787583.3, 1787600, 1787617.2, 1787633.8, 1787650.3, 1787666.9, 1787683.5, 1787700.2, 1787716.9, 1787733.4, 1787750.3, 1787766.8, 1787783.7, 1787800.2, 1787816.9, 1787833.5, 1787850, 1787867.3, 1787883.4, 1787900.2, 1787916.9, 1787934.4, 1787950.4, 1787966.9, 1787986, 1788000.3, 1788018.4, 1788033.7, 1788050.4, 1788067.1, 1788085, 1788100.2, 1788116.8, 1788133.7, 1788150.1, 1788166.4, 1788183, 1788199.7, 1788216.3, 1788233.1, 1788249.7, 1788266.4, 1788283.1, 1788299.7, 1788316.5, 1788333.1, 1788349.8, 1788367.2, 1788383.6, 1788400.3, 1788416.9, 1788433.7, 1788450.5, 1788466.9, 1788483.7, 1788500.4, 1788516.8, 1788533.6, 1788550.1, 1788566.8, 1788584, 1788600.2, 1788617.1, 1788633.7, 1788650.4, 1788666.8, 1788683.4, 1788700.3, 1788717, 1788733.6, 1788750.2, 1788767.1, 1788783.6, 1788800.5, 1788817.4, 1788833.5, 1788850.2, 1788869.4, 1788883.5, 1788900.2, 1788917.5, 1788933.7, 1788950.3, 1788966.9, 1788984, 1789000.4, 1789017, 1789033.6, 1789050.4, 1789067.3, 1789084, 1789100.1, 1789117, 1789133.8, 1789150.1, 1789167, 1789183.7, 1789200.4, 1789217.2, 1789233.8, 1789250.5, 1789266.9, 1789284, 1789300.3, 1789317.2, 1789333.8, 1789350.2, 1789366.9, 1789383.8, 1789400.3, 1789417, 1789433.8, 1789450.5, 1789467.1, 1789483.7, 1789500.4, 1789517.1, 1789533.5, 1789550.4, 1789567.1, 1789583.8, 1789600.2, 1789616.9, 1789633.7, 1789650.3, 1789666.9, 1789683.6, 1789700.5, 1789717.1, 1789733.8, 1789750.4, 1789767.6, 1789783.7, 1789800.5, 1789817.1, 1789833.8, 1789850.7, 1789866.8, 1789884, 1789900.7, 1789916.9, 1789934.1, 1789953.2, 1789968.7, 1789984.8, 1790001.2, 1790018.4, 1790034.7, 1790051.8, 1790070.1, 1790084.8, 1790101.4, 1790117.4, 1790134.1, 1790150.7, 1790167.4, 1790184, 1790200.7, 1790217.4, 1790234.3, 1790252.3, 1790267.6, 1790284.7, 1790300.8, 1790317.6, 1790334.2, 1790350.6, 1790367.3, 1790383.8, 1790400.5, 1790418.1, 1790433.7, 1790450.4, 1790467, 1790483.8, 1790500.2, 1790516.6, 1790533.3, 1790550.1, 1790566.8, 1790583.6, 1790600.1, 1790617.1, 1790633.7, 1790650.6, 1790667.4, 1790683.8, 1790700.4, 1790717.2, 1790734, 1790750.6, 1790767.2, 1790784, 1790801.2, 1790817.5, 1790833.9, 1790850.7, 1790867.4, 1790883.7, 1790900.8, 1790917.3, 1790933.9, 1790950.7, 1790967.1, 1790984.5, 1791000.5, 1791017.2, 1791033.9, 1791050.7, 1791067.4, 1791083.9, 1791100.5, 1791117.1, 1791133.8, 1791150.7, 1791167.2, 1791183.9, 1791200.6, 1791217.1, 1791234.1, 1791250.4, 1791267.2, 1791283.9]","[10.6, 17.5, 16.7, 14.9, 16.5, 16.5, 16.9, 16.5, 16.9, 16.8, 21.5, 16, 14.8, 23.7, 11.1, 12.1, 16.7, 16.8, 16.7, 16.8, 16.9, 16.7, 16.8, 16.6, 16.6, 16.9, 16.3, 16.6, 16.8, 16.8, 16.5, 16.4, 17, 16.7, 16.6, 16.6, 16.9, 16.7, 16.5, 17, 17.5, 15.5, 17.5, 15.8, 17.2, 16.2, 16.6, 16.7, 16.8, 16.6, 16.8, 16.3, 16.9, 16.7, 16.6, 16.7, 16.8, 16.5, 17.3, 16, 16.8, 16.5, 16.9, 16.7, 16.8, 16.5, 16.5, 16.9, 16.7, 16.5, 16.8, 16.6, 16.8, 16.4, 16.7, 16.7, 16.8, 16.3, 16.7, 17.2, 16.6, 16.5, 16.6, 16.6, 16.7, 16.7, 16.5, 16.9, 16.5, 16.9, 16.5, 16.7, 16.6, 16.5, 17.3, 16.1, 16.8, 16.7, 17.5, 16, 16.5, 19.1, 14.3, 18.1, 15.3, 16.7, 16.7, 17.9, 15.2, 16.6, 16.9, 16.4, 16.3, 16.6, 16.7, 16.6, 16.8, 16.6, 16.7, 16.7, 16.6, 16.8, 16.6, 16.7, 17.4, 16.4, 16.7, 16.6, 16.8, 16.8, 16.4, 16.8, 16.7, 16.4, 16.8, 16.5, 16.7, 17.2, 16.2, 16.9, 16.6, 16.7, 16.4, 16.6, 16.9, 16.7, 16.6, 16.6, 16.9, 16.5, 16.9, 16.9, 16.1, 16.7, 19.2, 14.1, 16.7, 17.3, 16.2, 16.6, 16.6, 17.1, 16.4, 16.6, 16.6, 16.8, 16.9, 16.7, 16.1, 16.9, 16.8, 16.3, 16.9, 16.7, 16.7, 16.8, 16.6, 16.7, 16.4, 17.1, 16.3, 16.9, 16.6, 16.4, 16.7, 16.9, 16.5, 16.7, 16.8, 16.7, 16.6, 16.6, 16.7, 16.7, 16.4, 16.9, 16.7, 16.7, 16.4, 16.7, 16.8, 16.6, 16.6, 16.7, 16.9, 16.6, 16.7, 16.6, 17.2, 16.1, 16.8, 16.6, 16.7, 16.9, 16.1, 17.2, 16.7, 16.2, 17.2, 19.1, 15.5, 16.1, 16.4, 17.2, 16.3, 17.1, 18.3, 14.7, 16.6, 16, 16.7, 16.6, 16.7, 16.6, 16.7, 16.7, 16.9, 18, 15.3, 17.1, 16.1, 16.8, 16.6, 16.4, 16.7, 16.5, 16.7, 17.6, 15.6, 16.7, 16.6, 16.8, 16.4, 16.4, 16.7, 16.8, 16.7, 16.8, 16.5, 17, 16.6, 16.9, 16.8, 16.4, 16.6, 16.8, 16.8, 16.6, 16.6, 16.8, 17.2, 16.3, 16.4, 16.8, 16.7, 16.3, 17.1, 16.5, 16.6, 16.8, 16.4, 17.4, 16, 16.7, 16.7, 16.8, 16.7, 16.5, 16.6, 16.6, 16.7, 16.9, 16.5, 16.7, 16.7, 16.5, 17, 16.3, 16.8, 16.7]",60.0,60.0,60.0,5010.0,[],,,,,,,,,,,,,,,,,,,,,,,HRV,HRV_0274,2022-11-30 21:09:56
,wl-html-keyboard-response,2,1797908,0.0-2.0-0.0,,,0.0,2.0,,,,,,,,6800.099999964237,0.0,0,,,,,,,,,,,,,,,,,,,,HRV,HRV_0274,2022-11-30 21:09:56
,wl-rdm,3,1804702,0.0-3.0-0.0,False,,0.0,3.0,,,,,,,[],,,,0.0,0.0,87.9,0.0,u,0.0,True,1205.5000000596046,73.0,60.0,40.0,3000.0,[],"[640, 360]",ColorTask_Demo,,,,,HRV,HRV_0274,2022-11-30 21:09:56
,wl-rdm,4,1809419,0.0-3.0-1.0,False,,0.0,4.0,,,,,,,[],,,,0.0,0.0,87.9,1.0,i,1.0,True,647.4000000357628,39.0,60.0,40.0,2000.0,[],"[640, 360]",ColorTask_Demo,,,,,HRV,HRV_0274,2022-11-30 21:09:56
,wl-html-keyboard-response,5,1813164,0.0-3.0-2.0,,,0.0,5.0,,,,,,,,1727.5,0.0,1,,,,,,,,,,,,,,,,,,,,HRV,HRV_0274,2022-11-30 21:09:56
,wl-html-keyboard-response,6,1820659,0.0-4.0-0.0,,,0.0,6.0,,,,,,,,5482.099999964237,0.0,0,,,,,,,,,,,,,,,,,,,,HRV,HRV_0274,2022-11-30 21:09:56
,wl-html-keyboard-response,7,1827693,0.0-5.0-0.0,,,0.0,7.0,,,,,,,,5714.899999976158,0.0,0,,,,,,,,,,,,,,,,,,,,HRV,HRV_0274,2022-11-30 21:09:56
,wl-rdm,8,1830235,0.0-6.0-0.0,False,,0.0,8.0,,,,,,,[],,,,,,56.4,0.0,u,0.0,True,1110.8999999761581,67.0,60.0,40.0,352.92022120545244,[],"[640, 360]",ColorTask,1.0,1.0,,,HRV,HRV_0274,2022-11-30 21:09:56
,wl-rdm,9,1832252,0.0-6.1-0.1,False,,0.0,9.0,,,,,,,[],,,,,,62.5,1.0,i,1.0,True,662.6000000238419,40.0,60.0,40.0,270.2187904550407,[],"[640, 360]",ColorTask,2.0,2.0,,,HRV,HRV_0274,2022-11-30 21:09:56
,wl-rdm,10,1834369,0.0-6.2-0.2,False,,0.0,10.0,,,,,,,[],,,,,,62.5,1.0,i,1.0,True,788.7000000476837,48.0,60.0,40.0,244.50525993797822,[],"[640, 360]",ColorTask,3.0,3.0,,,HRV,HRV_0274,2022-11-30 21:09:56
,wl-rdm,11,1836285,0.0-6.3-0.3,False,,0.0,11.0,,,,,,,[],,,,,,50.0,0.0,u,0.0,True,639.6999999880791,39.0,60.0,40.0,206.42094273291647,[],"[640, 360]",ColorTask,4.0,4.0,,,HRV,HRV_0274,2022-11-30 21:09:56
,wl-rdm,12,1838336,0.0-6.4-0.4,False,,0.0,12.0,,,,,,,[],,,,,,50.0,1.0,i,1.0,True,704.3000000119209,43.0,60.0,40.0,261.83699421451286,[],"[640, 360]",ColorTask,5.0,5.0,,,HRV,HRV_0274,2022-11-30 21:09:56
,wl-rdm,13,1840504,0.0-6.5-0.5,False,,0.0,13.0,,,,,,,[],,,,,,50.0,1.0,u,0.0,False,824.6999999880791,50.0,60.0,40.0,270.2810215356427,[],"[640, 360]",ColorTask,4.0,6.0,,,HRV,HRV_0274,2022-11-30 21:09:56
,wl-rdm,14,1842286,0.0-6.6-0.6,False,,0.0,14.0,,,,,,,[],,,,,,87.9,0.0,u,0.0,True,488.5999999642372,30.0,60.0,40.0,203.3880921664971,[],"[640, 360]",ColorTask,5.0,7.0,,,HRV,HRV_0274,2022-11-30 21:09:56
,wl-rdm,15,1844219,0.0-6.7-0.7,False,,0.0,15.0,,,,,,,[],,,,,,56.4,1.0,i,1.0,True,559.0,34.0,60.0,40.0,291.51313144446453,[],"[640, 360]",ColorTask,6.0,8.0,,,HRV,HRV_0274,2022-11-30 21:09:56
,wl-rdm,16,1846270,0.0-6.8-0.8,False,,0.0,16.0,,,,,,,[],,,,,,73.6,1.0,u,0.0,False,640.5,39.0,60.0,40.0,319.7720496851507,[],"[640, 360]",ColorTask,5.0,9.0,,,HRV,HRV_0274,2022-11-30 21:09:56
,wl-rdm,17,1848537,0.0-6.9-0.9,False,,0.0,17.0,,,,,,,[],,,,,,56.4,0.0,u,0.0,True,853.5,52.0,60.0,40.0,341.80454533475256,[],"[640, 360]",ColorTask,6.0,10.0,,,HRV,HRV_0274,2022-11-30 21:09:56
,wl-rdm,18,1850687,0.0-6.10-0.10,False,,0.0,18.0,,,,,,,[],,,,,,56.4,1.0,i,1.0,True,715.0,43.0,60.0,40.0,375.9502338931752,[],"[640, 360]",ColorTask,7.0,11.0,,,HRV,HRV_0274,2022-11-30 21:09:56
,wl-rdm,19,1852587,0.0-6.11-0.11,False,,0.0,19.0,,,,,,,[],,,,,,62.5,1.0,i,1.0,True,593.2000000476837,36.0,60.0,40.0,217.21127818944666,[],"[640, 360]",ColorTask,8.0,12.0,,,HRV,HRV_0274,2022-11-30 21:09:56
,wl-rdm,20,1854637,0.0-6.12-0.12,False,,0.0,20.0,,,,,,,[],,,,,,62.5,0.0,u,0.0,True,775.9000000357628,47.0,60.0,40.0,213.6520956192047,[],"[640, 360]",ColorTask,9.0,13.0,,,HRV,HRV_0274,2022-11-30 21:09:56
,wl-rdm,21,1856571,0.0-6.13-0.13,False,,0.0,21.0,,,,,,,[],,,,,,87.9,1.0,i,1.0,True,612.8000000119209,37.0,60.0,40.0,243.59599755765203,[],"[640, 360]",ColorTask,10.0,14.0,,,HRV,HRV_0274,2022-11-30 21:09:56
,wl-rdm,22,1858871,0.0-6.14-0.14,False,,0.0,22.0,,,,,,,[],,,,,,56.4,0.0,i,1.0,False,941.3000000119209,57.0,60.0,40.0,281.13199291996676,[],"[640, 360]",ColorTask,9.0,15.0,,,HRV,HRV_0274,2022-11-30 21:09:56
,wl-rdm,23,1861187,0.0-6.15-0.15,False,,0.0,23.0,,,,,,,[],,,,,,53.2,1.0,i,1.0,True,857.8999999165535,52.0,60.0,40.0,376.6167811493857,[],"[640, 360]",ColorTask,10.0,16.0,,,HRV,HRV_0274,2022-11-30 21:09:56
,wl-rdm,24,1863288,0.0-6.16-0.16,False,,0.0,24.0,,,,,,,[],,,,,,53.2,0.0,i,1.0,False,781.6000000238419,47.0,60.0,40.0,256.5960813373853,[],"[640, 360]",ColorTask,9.0,17.0,,,HRV,HRV_0274,2022-11-30 21:09:56
,wl-rdm,25,1865572,0.0-6.17-0.17,False,,0.0,25.0,,,,,,,[],,,,,,53.2,1.0,u,0.0,False,877.6999999880791,53.0,60.0,40.0,342.9564334050418,[],"[640, 360]",ColorTask,8.0,18.0,,,HRV,HRV_0274,2022-11-30 21:09:56
,wl-rdm,26,1867805,0.0-6.18-0.18,False,,0.0,26.0,,,,,,,[],,,,,,50.0,1.0,u,0.0,False,900.2000000476837,54.0,60.0,40.0,251.49006091554412,[],"[640, 360]",ColorTask,7.0,19.0,,,HRV,HRV_0274,2022-11-30 21:09:56
,wl-rdm,27,1870122,0.0-6.19-0.19,False,,0.0,27.0,,,,,,,[],,,,,,87.9,0.0,u,0.0,True,904.8999999761581,55.0,60.0,40.0,334.161767662729,[],"[640, 360]",ColorTask,8.0,20.0,,,HRV,HRV_0274,2022-11-30 21:09:56
,wl-rdm,28,1872222,0.0-6.20-0.20,False,,0.0,28.0,,,,,,,[],,,,,,87.9,0.0,u,0.0,True,806.1000000238419,49.0,60.0,40.0,215.0996029581287,[],"[640, 360]",ColorTask,9.0,21.0,,,HRV,HRV_0274,2022-11-30 21:09:56
,wl-rdm,29,1874273,0.0-6.21-0.21,False,,0.0,29.0,,,,,,,[],,,,,,53.2,1.0,u,0.0,False,760.9000000357628,46.0,60.0,40.0,204.4246711871086,[],"[640, 360]",ColorTask,8.0,22.0,,,HRV,HRV_0274,2022-11-30 21:09:56
,wl-rdm,30,1876322,0.0-6.22-0.22,False,,0.0,30.0,,,,,,,[],,,,,,56.4,1.0,i,1.0,True,720.6000000238419,44.0,60.0,40.0,221.33564053655874,[],"[640, 360]",ColorTask,9.0,23.0,,,HRV,HRV_0274,2022-11-30 21:09:56
,wl-rdm,31,1878290,0.0-6.23-0.23,False,,0.0,31.0,,,,,,,[],,,,,,73.6,0.0,u,0.0,True,688.3999999761581,42.0,60.0,40.0,205.12783803225628,[],"[640, 360]",ColorTask,10.0,24.0,,,HRV,HRV_0274,2022-11-30 21:09:56
,wl-rdm,32,1880590,0.0-6.24-0.24,False,,0.0,32.0,,,,,,,[],,,,,,87.9,0.0,u,0.0,True,942.1000000238419,57.0,60.0,40.0,281.95107798630727,[],"[640, 360]",ColorTask,11.0,25.0,,,HRV,HRV_0274,2022-11-30 21:09:56
,wl-rdm,33,1882657,0.0-6.25-0.25,False,,0.0,33.0,,,,,,,[],,,,,,87.9,1.0,i,1.0,True,638.2999999523163,39.0,60.0,40.0,336.5844887511813,[],"[640, 360]",ColorTask,12.0,26.0,,,HRV,HRV_0274,2022-11-30 21:09:56
,wl-rdm,34,1884595,0.0-6.26-0.26,False,,0.0,34.0,,,,,,,[],,,,,,73.6,1.0,i,1.0,True,547.5,33.0,60.0,40.0,317.0221473024226,[],"[640, 360]",ColorTask,13.0,27.0,,,HRV,HRV_0274,2022-11-30 21:09:56
,wl-rdm,35,1886474,0.0-6.27-0.27,False,,0.0,35.0,,,,,,,[],,,,,,87.9,0.0,u,0.0,True,575.6000000238419,35.0,60.0,40.0,212.07138433010226,[],"[640, 360]",ColorTask,14.0,28.0,,,HRV,HRV_0274,2022-11-30 21:09:56
,wl-rdm,36,1888441,0.0-6.28-0.28,False,,0.0,36.0,,,,,,,[],,,,,,87.9,1.0,i,1.0,True,568.7000000476837,35.0,60.0,40.0,304.66082418810083,[],"[640, 360]",ColorTask,15.0,29.0,,,HRV,HRV_0274,2022-11-30 21:09:56
,wl-rdm,37,1890507,0.0-6.29-0.29,False,,0.0,37.0,,,,,,,[],,,,,,53.2,1.0,i,1.0,True,595.6999999880791,36.0,60.0,40.0,399.88278748462835,[],"[640, 360]",ColorTask,16.0,30.0,,,HRV,HRV_0274,2022-11-30 21:09:56
,wl-rdm,38,1892343,0.0-6.30-0.30,False,,0.0,38.0,,,,,,,[],,,,,,87.9,1.0,i,1.0,True,487.0999999642372,30.0,60.0,40.0,282.64616818911554,[],"[640, 360]",ColorTask,17.0,31.0,,,HRV,HRV_0274,2022-11-30 21:09:56
,wl-rdm,39,1894240,0.0-6.31-0.31,False,,0.0,39.0,,,,,,,[],,,,,,73.6,1.0,i,1.0,True,479.80000001192093,29.0,60.0,40.0,319.3802879612099,[],"[640, 360]",ColorTask,18.0,32.0,,,HRV,HRV_0274,2022-11-30 21:09:56
,wl-rdm,40,1896158,0.0-6.32-0.32,False,,0.0,40.0,,,,,,,[],,,,,,50.0,1.0,i,1.0,True,596.0,36.0,60.0,40.0,243.85357445227086,[],"[640, 360]",ColorTask,19.0,33.0,,,HRV,HRV_0274,2022-11-30 21:09:56
,wl-rdm,41,1897961,0.0-6.33-0.33,False,,0.0,41.0,,,,,,,[],,,,,,53.2,1.0,i,1.0,True,531.3000000119209,32.0,60.0,40.0,213.18555696705414,[],"[640, 360]",ColorTask,20.0,34.0,,,HRV,HRV_0274,2022-11-30 21:09:56
,wl-rdm,42,1899958,0.0-6.34-0.34,False,,0.0,42.0,,,,,,,[],,,,,,53.2,1.0,i,1.0,True,643.4000000357628,39.0,60.0,40.0,276.50894323784826,[],"[640, 360]",ColorTask,21.0,35.0,,,HRV,HRV_0274,2022-11-30 21:09:56
,wl-rdm,43,1901925,0.0-6.35-0.35,False,,0.0,43.0,,,,,,,[],,,,,,53.2,0.0,i,1.0,False,640.2000000476837,39.0,60.0,40.0,238.8448810326143,[],"[640, 360]",ColorTask,20.0,36.0,,,HRV,HRV_0274,2022-11-30 21:09:56
,wl-rdm,44,1903958,0.0-6.36-0.36,False,,0.0,44.0,,,,,,,[],,,,,,73.6,0.0,u,0.0,True,705.1000000238419,43.0,60.0,40.0,243.1290250145736,[],"[640, 360]",ColorTask,21.0,37.0,,,HRV,HRV_0274,2022-11-30 21:09:56
,wl-rdm,45,1905925,0.0-6.37-0.37,False,,0.0,45.0,,,,,,,[],,,,,,62.5,1.0,i,1.0,True,677.4000000357628,41.0,60.0,40.0,210.29392622778997,[],"[640, 360]",ColorTask,22.0,38.0,,,HRV,HRV_0274,2022-11-30 21:09:56
,wl-rdm,46,1907859,0.0-6.38-0.38,False,,0.0,46.0,,,,,,,[],,,,,,50.0,0.0,i,1.0,False,605.2000000476837,37.0,60.0,40.0,245.84933297023258,[],"[640, 360]",ColorTask,21.0,39.0,,,HRV,HRV_0274,2022-11-30 21:09:56
,wl-rdm,47,1910012,0.0-6.39-0.39,False,,0.0,47.0,,,,,,,[],,,,,,53.2,0.0,u,0.0,True,759.0999999642372,46.0,60.0,40.0,301.8501225732561,[],"[640, 360]",ColorTask,22.0,40.0,,,HRV,HRV_0274,2022-11-30 21:09:56
,wl-rdm,48,1911976,0.0-6.40-0.40,False,,0.0,48.0,,,,,,,[],,,,,,73.6,0.0,u,0.0,True,582.6999999880791,35.0,60.0,40.0,293.5467074597999,[],"[640, 360]",ColorTask,23.0,41.0,,,HRV,HRV_0274,2022-11-30 21:09:56
,wl-rdm,49,1914028,0.0-6.41-0.41,False,,0.0,49.0,,,,,,,[],,,,,,73.6,1.0,i,1.0,True,640.1000000238419,39.0,60.0,40.0,348.6443248590193,[],"[640, 360]",ColorTask,24.0,42.0,,,HRV,HRV_0274,2022-11-30 21:09:56
,wl-rdm,50,1916010,0.0-6.42-0.42,False,,0.0,50.0,,,,,,,[],,,,,,73.6,0.0,u,0.0,True,679.6000000238419,41.0,60.0,40.0,240.70702447727894,[],"[640, 360]",ColorTask,25.0,43.0,,,HRV,HRV_0274,2022-11-30 21:09:56
,wl-rdm,51,1918060,0.0-6.43-0.43,False,,0.0,51.0,,,,,,,[],,,,,,62.5,0.0,i,1.0,False,658.8000000119209,40.0,60.0,40.0,315.7211076518238,[],"[640, 360]",ColorTask,24.0,44.0,,,HRV,HRV_0274,2022-11-30 21:09:56
,wl-rdm,52,1919977,0.0-6.44-0.44,False,,0.0,52.0,,,,,,,[],,,,,,53.2,0.0,i,1.0,False,569.4000000357628,35.0,60.0,40.0,271.137501049429,[],"[640, 360]",ColorTask,23.0,45.0,,,HRV,HRV_0274,2022-11-30 21:09:56
,wl-rdm,53,1921827,0.0-6.45-0.45,False,,0.0,53.0,,,,,,,[],,,,,,87.9,1.0,i,1.0,True,488.30000001192093,30.0,60.0,40.0,278.76655066564234,[],"[640, 360]",ColorTask,24.0,46.0,,,HRV,HRV_0274,2022-11-30 21:09:56
,wl-rdm,54,1923977,0.0-6.46-0.46,False,,0.0,54.0,,,,,,,[],,,,,,62.5,0.0,u,0.0,True,671.5,41.0,60.0,40.0,379.08265483944405,[],"[640, 360]",ColorTask,25.0,47.0,,,HRV,HRV_0274,2022-11-30 21:09:56
,wl-rdm,55,1926161,0.0-6.47-0.47,False,,0.0,55.0,,,,,,,[],,,,,,73.6,0.0,u,0.0,True,790.5999999642372,48.0,60.0,40.0,309.1429713053386,[],"[640, 360]",ColorTask,26.0,48.0,,,HRV,HRV_0274,2022-11-30 21:09:56
,wl-rdm,56,1928378,0.0-6.48-0.48,False,,0.0,56.0,,,,,,,[],,,,,,73.6,1.0,i,1.0,True,839.0000000596046,51.0,60.0,40.0,311.53247578512276,[],"[640, 360]",ColorTask,27.0,49.0,,,HRV,HRV_0274,2022-11-30 21:09:56
,wl-rdm,57,1930345,0.0-6.49-0.49,False,,0.0,57.0,,,,,,,[],,,,,,87.9,0.0,u,0.0,True,560.8999999761581,34.0,60.0,40.0,327.1145750716815,[],"[640, 360]",ColorTask,28.0,50.0,,,HRV,HRV_0274,2022-11-30 21:09:56
,wl-rdm,58,1932478,0.0-6.50-0.50,False,,0.0,58.0,,,,,,,[],,,,,,87.9,0.0,u,0.0,True,657.8999999761581,40.0,60.0,40.0,385.26304356023627,[],"[640, 360]",ColorTask,29.0,51.0,,,HRV,HRV_0274,2022-11-30 21:09:56
,wl-rdm,59,1934745,0.0-6.51-0.51,False,,0.0,59.0,,,,,,,[],,,,,,56.4,1.0,i,1.0,True,836.5999999642372,51.0,60.0,40.0,366.3796645083715,[],"[640, 360]",ColorTask,30.0,52.0,,,HRV,HRV_0274,2022-11-30 21:09:56
,wl-rdm,60,1936896,0.0-6.52-0.52,False,,0.0,60.0,,,,,,,[],,,,,,73.6,0.0,u,0.0,True,828.1999999880791,50.0,60.0,40.0,219.49722905303238,[],"[640, 360]",ColorTask,31.0,53.0,,,HRV,HRV_0274,2022-11-30 21:09:56
,wl-rdm,61,1938862,0.0-6.53-0.53,False,,0.0,61.0,,,,,,,[],,,,,,73.6,0.0,u,0.0,True,663.7999999523163,40.0,60.0,40.0,235.88769500290948,[],"[640, 360]",ColorTask,32.0,54.0,,,HRV,HRV_0274,2022-11-30 21:09:56
,wl-rdm,62,1941013,0.0-6.54-0.54,False,,0.0,62.0,,,,,,,[],,,,,,73.6,0.0,u,0.0,True,737.9000000357628,45.0,60.0,40.0,314.44338309838133,[],"[640, 360]",ColorTask,33.0,55.0,,,HRV,HRV_0274,2022-11-30 21:09:56
,wl-rdm,63,1943063,0.0-6.55-0.55,False,,0.0,63.0,,,,,,,[],,,,,,87.9,1.0,i,1.0,True,604.6999999880791,37.0,60.0,40.0,383.2195877193964,[],"[640, 360]",ColorTask,34.0,56.0,,,HRV,HRV_0274,2022-11-30 21:09:56
,wl-rdm,64,1945162,0.0-6.56-0.56,False,,0.0,64.0,,,,,,,[],,,,,,50.0,1.0,u,0.0,False,674.5000000596046,41.0,60.0,40.0,339.2555593081218,[],"[640, 360]",ColorTask,33.0,57.0,,,HRV,HRV_0274,2022-11-30 21:09:56
,wl-rdm,65,1947146,0.0-6.57-0.57,False,,0.0,65.0,,,,,,,[],,,,,,73.6,1.0,i,1.0,True,614.4000000357628,37.0,60.0,40.0,292.54880650472046,[],"[640, 360]",ColorTask,34.0,58.0,,,HRV,HRV_0274,2022-11-30 21:09:56
,wl-rdm,66,1949063,0.0-6.58-0.58,False,,0.0,66.0,,,,,,,[],,,,,,56.4,1.0,i,1.0,True,616.4000000357628,37.0,60.0,40.0,227.2010483525342,[],"[640, 360]",ColorTask,35.0,59.0,,,HRV,HRV_0274,2022-11-30 21:09:56
,wl-rdm,67,1950980,0.0-6.59-0.59,False,,0.0,67.0,,,,,,,[],,,,,,53.2,0.0,i,1.0,False,544.5,33.0,60.0,40.0,309.44631376770343,[],"[640, 360]",ColorTask,34.0,60.0,,,HRV,HRV_0274,2022-11-30 21:09:56
,wl-rdm,68,1952930,0.0-6.60-0.60,False,,0.0,68.0,,,,,,,[],,,,,,50.0,1.0,i,1.0,True,579.1999999880791,35.0,60.0,40.0,302.92568907773256,[],"[640, 360]",ColorTask,35.0,61.0,,,HRV,HRV_0274,2022-11-30 21:09:56
,wl-rdm,69,1954883,0.0-6.61-0.61,False,,0.0,69.0,,,,,,,[],,,,,,62.5,1.0,i,1.0,True,495.69999998807907,30.0,60.0,40.0,390.70970695066717,[],"[640, 360]",ColorTask,36.0,62.0,,,HRV,HRV_0274,2022-11-30 21:09:56
,wl-rdm,70,1956864,0.0-6.62-0.62,False,,0.0,70.0,,,,,,,[],,,,,,62.5,0.0,i,1.0,False,647.7999999523163,39.0,60.0,40.0,267.9104509942258,[],"[640, 360]",ColorTask,35.0,63.0,,,HRV,HRV_0274,2022-11-30 21:09:56
,wl-rdm,71,1958864,0.0-6.63-0.63,False,,0.0,71.0,,,,,,,[],,,,,,50.0,0.0,i,1.0,False,689.8999999165535,42.0,60.0,40.0,228.63455944860456,[],"[640, 360]",ColorTask,34.0,64.0,,,HRV,HRV_0274,2022-11-30 21:09:56
,wl-rdm,72,1961015,0.0-6.64-0.64,False,,0.0,72.0,,,,,,,[],,,,,,50.0,0.0,u,0.0,True,725.4999999403954,44.0,60.0,40.0,364.28121162663774,[],"[640, 360]",ColorTask,35.0,65.0,,,HRV,HRV_0274,2022-11-30 21:09:56
,wl-rdm,73,1963398,0.0-6.65-0.65,False,,0.0,73.0,,,,,,,[],,,,,,50.0,0.0,i,1.0,False,1006.1999999284744,61.0,60.0,40.0,316.1328597701846,[],"[640, 360]",ColorTask,34.0,66.0,,,HRV,HRV_0274,2022-11-30 21:09:56
,wl-rdm,74,1965416,0.0-6.66-0.66,False,,0.0,74.0,,,,,,,[],,,,,,56.4,0.0,i,1.0,False,718.7999999523163,43.0,60.0,40.0,221.94922745253103,[],"[640, 360]",ColorTask,33.0,67.0,,,HRV,HRV_0274,2022-11-30 21:09:56
,wl-rdm,75,1967299,0.0-6.67-0.67,False,,0.0,75.0,,,,,,,[],,,,,,87.9,0.0,u,0.0,True,511.10000002384186,31.0,60.0,40.0,291.40250691791096,[],"[640, 360]",ColorTask,34.0,68.0,,,HRV,HRV_0274,2022-11-30 21:09:56
,wl-rdm,76,1969366,0.0-6.68-0.68,False,,0.0,76.0,,,,,,,[],,,,,,62.5,0.0,u,0.0,True,756.7000000476837,46.0,60.0,40.0,224.1626109707034,[],"[640, 360]",ColorTask,35.0,69.0,,,HRV,HRV_0274,2022-11-30 21:09:56
,wl-rdm,77,1971383,0.0-6.69-0.69,False,,0.0,77.0,,,,,,,[],,,,,,62.5,0.0,u,0.0,True,625.0999999642372,38.0,60.0,40.0,321.67261080598814,[],"[640, 360]",ColorTask,36.0,70.0,,,HRV,HRV_0274,2022-11-30 21:09:56
,wl-rdm,78,1973337,0.0-6.70-0.70,False,,0.0,78.0,,,,,,,[],,,,,,53.2,0.0,i,1.0,False,673.1000000238419,41.0,60.0,40.0,212.27463918444414,[],"[640, 360]",ColorTask,35.0,71.0,,,HRV,HRV_0274,2022-11-30 21:09:56
,wl-rdm,79,1975400,0.0-6.71-0.71,False,,0.0,79.0,,,,,,,[],,,,,,62.5,0.0,u,0.0,True,739.7000000476837,45.0,60.0,40.0,242.71993363529342,[],"[640, 360]",ColorTask,36.0,72.0,,,HRV,HRV_0274,2022-11-30 21:09:56
,wl-rdm,80,1977700,0.0-6.72-0.72,False,,0.0,80.0,,,,,,,[],,,,,,56.4,0.0,u,0.0,True,976.4000000357628,59.0,60.0,40.0,238.78436157971296,[],"[640, 360]",ColorTask,37.0,73.0,,,HRV,HRV_0274,2022-11-30 21:09:56
,wl-rdm,81,1979950,0.0-6.73-0.73,False,,0.0,81.0,,,,,,,[],,,,,,62.5,0.0,u,0.0,True,938.6999999880791,56.0,60.0,40.0,241.14321606201392,[],"[640, 360]",ColorTask,38.0,74.0,,,HRV,HRV_0274,2022-11-30 21:09:56
,wl-rdm,82,1982017,0.0-6.74-0.74,False,,0.0,82.0,,,,,,,[],,,,,,62.5,0.0,u,0.0,True,725.6999999880791,44.0,60.0,40.0,281.3110915869564,[],"[640, 360]",ColorTask,39.0,75.0,,,HRV,HRV_0274,2022-11-30 21:09:56
,wl-rdm,83,1983901,0.0-6.75-0.75,False,,0.0,83.0,,,,,,,[],,,,,,87.9,1.0,i,1.0,True,576.3000000119209,35.0,60.0,40.0,222.8343818685525,[],"[640, 360]",ColorTask,40.0,76.0,,,HRV,HRV_0274,2022-11-30 21:09:56
,wl-rdm,84,1985851,0.0-6.76-0.76,False,,0.0,84.0,,,,,,,[],,,,,,73.6,0.0,u,0.0,True,536.6999999880791,33.0,60.0,40.0,337.57653761951826,[],"[640, 360]",ColorTask,41.0,77.0,,,HRV,HRV_0274,2022-11-30 21:09:56
,wl-rdm,85,1988069,0.0-6.77-0.77,False,,0.0,85.0,,,,,,,[],,,,,,50.0,0.0,u,0.0,True,949.5,57.0,60.0,40.0,214.43507080811403,[],"[640, 360]",ColorTask,42.0,78.0,,,HRV,HRV_0274,2022-11-30 21:09:56
,wl-rdm,86,1990202,0.0-6.78-0.78,False,,0.0,86.0,,,,,,,[],,,,,,56.4,0.0,u,0.0,True,704.8000000119209,43.0,60.0,40.0,361.0337861199213,[],"[640, 360]",ColorTask,43.0,79.0,,,HRV,HRV_0274,2022-11-30 21:09:56
,wl-rdm,87,1992085,0.0-6.79-0.79,False,,0.0,87.0,,,,,,,[],,,,,,62.5,1.0,i,1.0,True,585.1999999880791,36.0,60.0,40.0,228.85850054947434,[],"[640, 360]",ColorTask,44.0,80.0,,,HRV,HRV_0274,2022-11-30 21:09:56
,wl-rdm,88,1994318,0.0-6.80-0.80,False,,0.0,88.0,,,,,,,[],,,,,,53.2,1.0,i,1.0,True,930.4000000357628,56.0,60.0,40.0,230.05139550238664,[],"[640, 360]",ColorTask,45.0,81.0,,,HRV,HRV_0274,2022-11-30 21:09:56
,wl-rdm,89,1996452,0.0-6.81-0.81,False,,0.0,89.0,,,,,,,[],,,,,,56.4,1.0,i,1.0,True,662.1000000238419,40.0,60.0,40.0,389.3318758984027,[],"[640, 360]",ColorTask,46.0,82.0,,,HRV,HRV_0274,2022-11-30 21:09:56
,wl-rdm,90,1998585,0.0-6.82-0.82,False,,0.0,90.0,,,,,,,[],,,,,,50.0,0.0,i,1.0,False,802.5999999642372,48.0,60.0,40.0,259.3049548054188,[],"[640, 360]",ColorTask,45.0,83.0,,,HRV,HRV_0274,2022-11-30 21:09:56
,wl-rdm,91,2000502,0.0-6.83-0.83,False,,0.0,91.0,,,,,,,[],,,,,,50.0,0.0,i,1.0,False,620.2999999523163,38.0,60.0,40.0,214.11824274488993,[],"[640, 360]",ColorTask,44.0,84.0,,,HRV,HRV_0274,2022-11-30 21:09:56
,wl-rdm,92,2002686,0.0-6.84-0.84,False,,0.0,92.0,,,,,,,[],,,,,,62.5,1.0,i,1.0,True,729.6000000238419,44.0,60.0,40.0,377.6310876981283,[],"[640, 360]",ColorTask,45.0,85.0,,,HRV,HRV_0274,2022-11-30 21:09:56
,wl-rdm,93,2004736,0.0-6.85-0.85,False,,0.0,93.0,,,,,,,[],,,,,,62.5,1.0,i,1.0,True,592.2000000476837,36.0,60.0,40.0,366.7757956058758,[],"[640, 360]",ColorTask,46.0,86.0,,,HRV,HRV_0274,2022-11-30 21:09:56
,wl-rdm,94,2007003,0.0-6.86-0.86,False,,0.0,94.0,,,,,,,[],,,,,,56.4,1.0,u,0.0,False,874.8999999761581,53.0,60.0,40.0,310.31651127211865,[],"[640, 360]",ColorTask,45.0,87.0,,,HRV,HRV_0274,2022-11-30 21:09:56
,wl-rdm,95,2009036,0.0-6.87-0.87,False,,0.0,95.0,,,,,,,[],,,,,,50.0,0.0,u,0.0,True,731.5,44.0,60.0,40.0,238.67105988800495,[],"[640, 360]",ColorTask,46.0,88.0,,,HRV,HRV_0274,2022-11-30 21:09:56
,wl-rdm,96,2011287,0.0-6.88-0.88,False,,0.0,96.0,,,,,,,[],,,,,,73.6,1.0,i,1.0,True,855.4999999403954,52.0,60.0,40.0,318.22253080700705,[],"[640, 360]",ColorTask,47.0,89.0,,,HRV,HRV_0274,2022-11-30 21:09:56
,wl-rdm,97,2013620,0.0-6.89-0.89,False,,0.0,97.0,,,,,,,[],,,,,,53.2,0.0,u,0.0,True,883.1000000238419,53.0,60.0,40.0,352.9864511438683,[],"[640, 360]",ColorTask,48.0,90.0,,,HRV,HRV_0274,2022-11-30 21:09:56
,wl-rdm,98,2015837,0.0-6.90-0.90,False,,0.0,98.0,,,,,,,[],,,,,,56.4,0.0,u,0.0,True,823.4000000357628,50.0,60.0,40.0,309.6627015562682,[],"[640, 360]",ColorTask,49.0,91.0,,,HRV,HRV_0274,2022-11-30 21:09:56
,wl-rdm,99,2017754,0.0-6.91-0.91,False,,0.0,99.0,,,,,,,[],,,,,,87.9,1.0,i,1.0,True,588.4000000357628,36.0,60.0,40.0,235.29839650893433,[],"[640, 360]",ColorTask,50.0,92.0,,,HRV,HRV_0274,2022-11-30 21:09:56
,wl-rdm,100,2019838,0.0-6.92-0.92,False,,0.0,100.0,,,,,,,[],,,,,,53.2,1.0,i,1.0,True,725.1000000238419,44.0,60.0,40.0,281.1010468915532,[],"[640, 360]",ColorTask,51.0,93.0,,,HRV,HRV_0274,2022-11-30 21:09:56
,wl-rdm,101,2022254,0.0-6.93-0.93,False,,0.0,101.0,,,,,,,[],,,,,,73.6,1.0,u,0.0,False,1132.300000011921,68.0,60.0,40.0,223.68099768677405,[],"[640, 360]",ColorTask,50.0,94.0,,,HRV,HRV_0274,2022-11-30 21:09:56
,wl-rdm,102,2024354,0.0-6.94-0.94,False,,0.0,102.0,,,,,,,[],,,,,,50.0,1.0,i,1.0,True,715.8000000119209,43.0,60.0,40.0,308.30487153357006,[],"[640, 360]",ColorTask,51.0,95.0,,,HRV,HRV_0274,2022-11-30 21:09:56
,wl-rdm,103,2026771,0.0-6.95-0.95,False,,0.0,103.0,,,,,,,[],,,,,,62.5,1.0,i,1.0,True,1115.1000000238419,67.0,60.0,40.0,237.96897607024744,[],"[640, 360]",ColorTask,52.0,96.0,,,HRV,HRV_0274,2022-11-30 21:09:56
,wl-rdm,104,2028872,0.0-6.96-0.96,False,,0.0,104.0,,,,,,,[],,,,,,53.2,0.0,u,0.0,True,639.1000000238419,39.0,60.0,40.0,370.8826269908655,[],"[640, 360]",ColorTask,53.0,97.0,,,HRV,HRV_0274,2022-11-30 21:09:56
,wl-rdm,105,2031089,0.0-6.97-0.97,False,,0.0,105.0,,,,,,,[],,,,,,56.4,0.0,u,0.0,True,875.0,53.0,60.0,40.0,259.7039132058354,[],"[640, 360]",ColorTask,54.0,98.0,,,HRV,HRV_0274,2022-11-30 21:09:56
,wl-rdm,106,2033289,0.0-6.98-0.98,False,,0.0,106.0,,,,,,,[],,,,,,53.2,0.0,u,0.0,True,774.7999999523163,47.0,60.0,40.0,327.7298663621916,[],"[640, 360]",ColorTask,55.0,99.0,,,HRV,HRV_0274,2022-11-30 21:09:56
,wl-rdm,107,2035272,0.0-6.99-0.99,False,,0.0,107.0,,,,,,,[],,,,,,87.9,1.0,i,1.0,True,679.1000000238419,41.0,60.0,40.0,221.53844012066492,[],"[640, 360]",ColorTask,56.0,100.0,,,HRV,HRV_0274,2022-11-30 21:09:56
,wl-rdm,108,2037139,0.0-6.100-0.100,False,,0.0,108.0,,,,,,,[],,,,,,73.6,1.0,i,1.0,True,594.8000000119209,36.0,60.0,40.0,207.28413565942665,[],"[640, 360]",ColorTask,57.0,101.0,,,HRV,HRV_0274,2022-11-30 21:09:56
,wl-rdm,109,2039055,0.0-6.101-0.101,False,,0.0,109.0,,,,,,,[],,,,,,53.2,1.0,u,0.0,False,586.5,36.0,60.0,40.0,221.08817235847033,[],"[640, 360]",ColorTask,56.0,102.0,,,HRV,HRV_0274,2022-11-30 21:09:56
,wl-rdm,110,2041223,0.0-6.102-0.102,False,,0.0,110.0,,,,,,,[],,,,,,56.4,0.0,u,0.0,True,866.0,52.0,60.0,40.0,227.21659515409118,[],"[640, 360]",ColorTask,57.0,103.0,,,HRV,HRV_0274,2022-11-30 21:09:56
,wl-rdm,111,2043273,0.0-6.103-0.103,False,,0.0,111.0,,,,,,,[],,,,,,87.9,0.0,u,0.0,True,764.6000000238419,46.0,60.0,40.0,200.7397134868777,[],"[640, 360]",ColorTask,58.0,104.0,,,HRV,HRV_0274,2022-11-30 21:09:56
,wl-rdm,112,2045507,0.0-6.104-0.104,False,,0.0,112.0,,,,,,,[],,,,,,50.0,1.0,i,1.0,True,956.1999999880791,58.0,60.0,40.0,201.94203120854706,[],"[640, 360]",ColorTask,59.0,105.0,,,HRV,HRV_0274,2022-11-30 21:09:56
,wl-rdm,113,2047673,0.0-6.105-0.105,False,,0.0,113.0,,,,,,,[],,,,,,50.0,1.0,u,0.0,False,757.8000000119209,46.0,60.0,40.0,325.8577069429413,[],"[640, 360]",ColorTask,58.0,106.0,,,HRV,HRV_0274,2022-11-30 21:09:56
,wl-rdm,114,2049991,0.0-6.106-0.106,False,,0.0,114.0,,,,,,,[],,,,,,56.4,1.0,u,0.0,False,904.7000000476837,55.0,60.0,40.0,340.802924760492,[],"[640, 360]",ColorTask,57.0,107.0,,,HRV,HRV_0274,2022-11-30 21:09:56
,wl-rdm,115,2051957,0.0-6.107-0.107,False,,0.0,115.0,,,,,,,[],,,,,,56.4,1.0,i,1.0,True,591.5,36.0,60.0,40.0,289.9633469092827,[],"[640, 360]",ColorTask,58.0,108.0,,,HRV,HRV_0274,2022-11-30 21:09:56
,wl-html-keyboard-response,116,2059489,0.0-7.0-0.0,,,1.0,116.0,,,,,,,,5511.699999988079,1.0,0,,,,,,,,,,,,,,,,,,,,HRV,HRV_0274,2022-11-30 21:09:56
,wl-rdm,117,2061864,0.0-8.0-0.0,False,,1.0,117.0,,,,,,,[],,,,,,87.9,1.0,i,1.0,True,1064.7000000476837,64.0,60.0,40.0,234.40458739148409,[],"[640, 360]",ColorTask,59.0,1.0,,,HRV,HRV_0274,2022-11-30 21:09:56
,wl-rdm,118,2063867,0.0-8.1-0.1,False,,1.0,118.0,,,,,,,[],,,,,,53.2,1.0,i,1.0,True,638.0,39.0,60.0,40.0,274.2946293777447,[],"[640, 360]",ColorTask,60.0,2.0,,,HRV,HRV_0274,2022-11-30 21:09:56
,wl-rdm,119,2066132,0.0-8.2-0.2,False,,1.0,119.0,,,,,,,[],,,,,,56.4,0.0,u,0.0,True,972.1000000238419,59.0,60.0,40.0,220.52111277403355,[],"[640, 360]",ColorTask,61.0,3.0,,,HRV,HRV_0274,2022-11-30 21:09:56
,wl-rdm,120,2068198,0.0-8.3-0.3,False,,1.0,120.0,,,,,,,[],,,,,,56.4,1.0,i,1.0,True,641.2999999523163,39.0,60.0,40.0,365.5443709116548,[],"[640, 360]",ColorTask,62.0,4.0,,,HRV,HRV_0274,2022-11-30 21:09:56
,wl-rdm,121,2070101,0.0-8.4-0.4,False,,1.0,121.0,,,,,,,[],,,,,,73.6,1.0,i,1.0,True,607.0000000596046,37.0,60.0,40.0,227.75744457162563,[],"[640, 360]",ColorTask,63.0,5.0,,,HRV,HRV_0274,2022-11-30 21:09:56
,wl-rdm,122,2071982,0.0-8.5-0.5,False,,1.0,122.0,,,,,,,[],,,,,,87.9,1.0,i,1.0,True,545.3000000119209,33.0,60.0,40.0,256.44957874617097,[],"[640, 360]",ColorTask,64.0,6.0,,,HRV,HRV_0274,2022-11-30 21:09:56
,wl-rdm,123,2074149,0.0-8.6-0.6,False,,1.0,123.0,,,,,,,[],,,,,,62.5,1.0,i,1.0,True,766.8000000119209,46.0,60.0,40.0,344.9996992633591,[],"[640, 360]",ColorTask,65.0,7.0,,,HRV,HRV_0274,2022-11-30 21:09:56
,wl-rdm,124,2076099,0.0-8.7-0.7,False,,1.0,124.0,,,,,,,[],,,,,,62.5,1.0,i,1.0,True,600.4000000357628,36.0,60.0,40.0,278.2940322192575,[],"[640, 360]",ColorTask,66.0,8.0,,,HRV,HRV_0274,2022-11-30 21:09:56
,wl-rdm,125,2078082,0.0-8.8-0.8,False,,1.0,125.0,,,,,,,[],,,,,,87.9,0.0,u,0.0,True,625.6999999880791,38.0,60.0,40.0,271.6512392468776,[],"[640, 360]",ColorTask,67.0,9.0,,,HRV,HRV_0274,2022-11-30 21:09:56
,wl-rdm,126,2079999,0.0-8.9-0.9,False,,1.0,126.0,,,,,,,[],,,,,,87.9,1.0,i,1.0,True,597.0999999642372,36.0,60.0,40.0,238.1259249594478,[],"[640, 360]",ColorTask,68.0,10.0,,,HRV,HRV_0274,2022-11-30 21:09:56
,wl-rdm,127,2081933,0.0-8.10-0.10,False,,1.0,127.0,,,,,,,[],,,,,,50.0,0.0,i,1.0,False,618.0,37.0,60.0,40.0,240.83847279429227,[],"[640, 360]",ColorTask,67.0,11.0,,,HRV,HRV_0274,2022-11-30 21:09:56
,wl-rdm,128,2083883,0.0-8.11-0.11,False,,1.0,128.0,,,,,,,[],,,,,,73.6,1.0,i,1.0,True,662.0999999642372,40.0,60.0,40.0,229.44421815614328,[],"[640, 360]",ColorTask,68.0,12.0,,,HRV,HRV_0274,2022-11-30 21:09:56
,wl-rdm,129,2086000,0.0-8.12-0.12,False,,1.0,129.0,,,,,,,[],,,,,,53.2,1.0,i,1.0,True,675.5999999642372,41.0,60.0,40.0,363.79770363103955,[],"[640, 360]",ColorTask,69.0,13.0,,,HRV,HRV_0274,2022-11-30 21:09:56
,wl-rdm,130,2088201,0.0-8.13-0.13,False,,1.0,130.0,,,,,,,[],,,,,,62.5,0.0,u,0.0,True,772.0999999642372,47.0,60.0,40.0,335.08767599135433,[],"[640, 360]",ColorTask,70.0,14.0,,,HRV,HRV_0274,2022-11-30 21:09:56
,wl-rdm,131,2090351,0.0-8.14-0.14,False,,1.0,131.0,,,,,,,[],,,,,,62.5,0.0,u,0.0,True,822.1999999880791,49.0,60.0,40.0,256.67407880284463,[],"[640, 360]",ColorTask,71.0,15.0,,,HRV,HRV_0274,2022-11-30 21:09:56
,wl-rdm,132,2092468,0.0-8.15-0.15,False,,1.0,132.0,,,,,,,[],,,,,,56.4,0.0,u,0.0,True,808.5,49.0,60.0,40.0,204.49695904490767,[],"[640, 360]",ColorTask,72.0,16.0,,,HRV,HRV_0274,2022-11-30 21:09:56
,wl-rdm,133,2094485,0.0-8.16-0.16,False,,1.0,133.0,,,,,,,[],,,,,,73.6,0.0,u,0.0,True,662.7999999523163,40.0,60.0,40.0,264.3253951729139,[],"[640, 360]",ColorTask,73.0,17.0,,,HRV,HRV_0274,2022-11-30 21:09:56
,wl-rdm,134,2096735,0.0-8.17-0.17,False,,1.0,134.0,,,,,,,[],,,,,,50.0,0.0,u,0.0,True,900.2000000476837,53.0,60.0,40.0,278.2326939536122,[],"[640, 360]",ColorTask,74.0,18.0,,,HRV,HRV_0274,2022-11-30 21:09:56
,wl-rdm,135,2098785,0.0-8.18-0.18,False,,1.0,135.0,,,,,,,[],,,,,,56.4,1.0,i,1.0,True,688.2000000476837,42.0,60.0,40.0,276.3497403709786,[],"[640, 360]",ColorTask,75.0,19.0,,,HRV,HRV_0274,2022-11-30 21:09:56
,wl-rdm,136,2100935,0.0-8.19-0.19,False,,1.0,136.0,,,,,,,[],,,,,,56.4,1.0,i,1.0,True,852.8000000119209,52.0,60.0,40.0,204.69414038441886,[],"[640, 360]",ColorTask,76.0,20.0,,,HRV,HRV_0274,2022-11-30 21:09:56
,wl-rdm,137,2102985,0.0-8.20-0.20,False,,1.0,137.0,,,,,,,[],,,,,,62.5,0.0,u,0.0,True,661.6000000238419,40.0,60.0,40.0,329.1485338102027,[],"[640, 360]",ColorTask,77.0,21.0,,,HRV,HRV_0274,2022-11-30 21:09:56
,wl-rdm,138,2104919,0.0-8.21-0.21,False,,1.0,138.0,,,,,,,[],,,,,,73.6,1.0,i,1.0,True,521.3999999761581,32.0,60.0,40.0,331.6233119961581,[],"[640, 360]",ColorTask,78.0,22.0,,,HRV,HRV_0274,2022-11-30 21:09:56
,wl-rdm,139,2106869,0.0-8.22-0.22,False,,1.0,139.0,,,,,,,[],,,,,,87.9,0.0,u,0.0,True,593.7999999523163,36.0,60.0,40.0,256.86987004265586,[],"[640, 360]",ColorTask,79.0,23.0,,,HRV,HRV_0274,2022-11-30 21:09:56
,wl-rdm,140,2108803,0.0-8.23-0.23,False,,1.0,140.0,,,,,,,[],,,,,,87.9,0.0,u,0.0,True,555.9999999403954,34.0,60.0,40.0,283.8852913842445,[],"[640, 360]",ColorTask,80.0,24.0,,,HRV,HRV_0274,2022-11-30 21:09:56
,wl-rdm,141,2110603,0.0-8.24-0.24,False,,1.0,141.0,,,,,,,[],,,,,,56.4,0.0,u,0.0,True,507.1999999284744,31.0,60.0,40.0,209.85307806825887,[],"[640, 360]",ColorTask,81.0,25.0,,,HRV,HRV_0274,2022-11-30 21:09:56
,wl-rdm,142,2112886,0.0-8.25-0.25,False,,1.0,142.0,,,,,,,[],,,,,,56.4,0.0,u,0.0,True,909.3000000119209,55.0,60.0,40.0,316.2445469925667,[],"[640, 360]",ColorTask,82.0,26.0,,,HRV,HRV_0274,2022-11-30 21:09:56
,wl-rdm,143,2114725,0.0-8.26-0.26,False,,1.0,143.0,,,,,,,[],,,,,,73.6,1.0,i,1.0,True,514.9999999403954,31.0,60.0,40.0,252.8576454492191,[],"[640, 360]",ColorTask,83.0,27.0,,,HRV,HRV_0274,2022-11-30 21:09:56
,wl-rdm,144,2116753,0.0-8.27-0.27,False,,1.0,144.0,,,,,,,[],,,,,,53.2,0.0,i,1.0,False,649.1999999880791,39.0,60.0,40.0,313.8764359294328,[],"[640, 360]",ColorTask,82.0,28.0,,,HRV,HRV_0274,2022-11-30 21:09:56
,wl-rdm,145,2119070,0.0-8.28-0.28,False,,1.0,145.0,,,,,,,[],,,,,,56.4,1.0,i,1.0,True,945.6000000238419,57.0,60.0,40.0,288.23859044797223,[],"[640, 360]",ColorTask,83.0,29.0,,,HRV,HRV_0274,2022-11-30 21:09:56
,wl-rdm,146,2121203,0.0-8.29-0.29,False,,1.0,146.0,,,,,,,[],,,,,,56.4,0.0,u,0.0,True,771.0000000596046,47.0,60.0,40.0,270.72804205634776,[],"[640, 360]",ColorTask,84.0,30.0,,,HRV,HRV_0274,2022-11-30 21:09:56
,wl-rdm,147,2123004,0.0-8.30-0.30,False,,1.0,147.0,,,,,,,[],,,,,,87.9,0.0,u,0.0,True,490.6999999284744,30.0,60.0,40.0,229.56298468749387,[],"[640, 360]",ColorTask,85.0,31.0,,,HRV,HRV_0274,2022-11-30 21:09:56
,wl-rdm,148,2125221,0.0-8.31-0.31,False,,1.0,148.0,,,,,,,[],,,,,,53.2,0.0,u,0.0,True,821.1000000238419,50.0,60.0,40.0,317.7309504832556,[],"[640, 360]",ColorTask,86.0,32.0,,,HRV,HRV_0274,2022-11-30 21:09:56
,wl-rdm,149,2127305,0.0-8.32-0.32,False,,1.0,149.0,,,,,,,[],,,,,,53.2,1.0,i,1.0,True,777.0000000596046,47.0,60.0,40.0,241.9590213381689,[],"[640, 360]",ColorTask,87.0,33.0,,,HRV,HRV_0274,2022-11-30 21:09:56
,wl-rdm,150,2129571,0.0-8.33-0.33,False,,1.0,150.0,,,,,,,[],,,,,,56.4,0.0,i,1.0,False,982.3999999761581,59.0,60.0,40.0,222.15994780471775,[],"[640, 360]",ColorTask,86.0,34.0,,,HRV,HRV_0274,2022-11-30 21:09:56
,wl-rdm,151,2131855,0.0-8.34-0.34,False,,1.0,151.0,,,,,,,[],,,,,,87.9,0.0,u,0.0,True,818.6999999880791,50.0,60.0,40.0,387.8464928749984,[],"[640, 360]",ColorTask,87.0,35.0,,,HRV,HRV_0274,2022-11-30 21:09:56
,wl-rdm,152,2134072,0.0-8.35-0.35,False,,1.0,152.0,,,,,,,[],,,,,,87.9,0.0,u,0.0,True,932.0,56.0,60.0,40.0,231.27237701147556,[],"[640, 360]",ColorTask,88.0,36.0,,,HRV,HRV_0274,2022-11-30 21:09:56
,wl-rdm,153,2136172,0.0-8.36-0.36,False,,1.0,153.0,,,,,,,[],,,,,,53.2,0.0,i,1.0,False,724.9000000357628,44.0,60.0,40.0,296.9703901333227,[],"[640, 360]",ColorTask,87.0,37.0,,,HRV,HRV_0274,2022-11-30 21:09:56
,wl-rdm,154,2138439,0.0-8.37-0.37,False,,1.0,154.0,,,,,,,[],,,,,,87.9,1.0,i,1.0,True,836.8000000715256,51.0,60.0,40.0,363.093737816328,[],"[640, 360]",ColorTask,88.0,38.0,,,HRV,HRV_0274,2022-11-30 21:09:56
,wl-rdm,155,2141123,0.0-8.38-0.38,False,,1.0,155.0,,,,,,,[],,,,,,53.2,0.0,u,0.0,True,1381.0,83.0,60.0,40.0,234.95979059123323,[],"[640, 360]",ColorTask,89.0,39.0,,,HRV,HRV_0274,2022-11-30 21:09:56
,wl-rdm,156,2143473,0.0-8.39-0.39,False,,1.0,156.0,,,,,,,[],,,,,,62.5,1.0,i,1.0,True,924.6000000238419,56.0,60.0,40.0,332.4602431969207,[],"[640, 360]",ColorTask,90.0,40.0,,,HRV,HRV_0274,2022-11-30 21:09:56
,wl-rdm,157,2146357,0.0-8.40-0.40,False,,1.0,157.0,,,,,,,[],,,,,,50.0,0.0,u,0.0,True,1541.3000000715256,93.0,60.0,40.0,252.87681528909044,[],"[640, 360]",ColorTask,91.0,41.0,,,HRV,HRV_0274,2022-11-30 21:09:56
,wl-rdm,158,2148640,0.0-8.41-0.41,False,,1.0,158.0,,,,,,,[],,,,,,87.9,1.0,i,1.0,True,831.1999999880791,50.0,60.0,40.0,378.71345688679116,[],"[640, 360]",ColorTask,92.0,42.0,,,HRV,HRV_0274,2022-11-30 21:09:56
,wl-rdm,159,2150907,0.0-8.42-0.42,False,,1.0,159.0,,,,,,,[],,,,,,50.0,1.0,i,1.0,True,892.1000000238419,54.0,60.0,40.0,289.7922251300263,[],"[640, 360]",ColorTask,93.0,43.0,,,HRV,HRV_0274,2022-11-30 21:09:56
,wl-rdm,160,2153691,0.0-8.43-0.43,False,,1.0,160.0,,,,,,,[],,,,,,50.0,0.0,u,0.0,True,1332.6999999284744,79.0,60.0,40.0,384.947971932777,[],"[640, 360]",ColorTask,94.0,44.0,,,HRV,HRV_0274,2022-11-30 21:09:56
,wl-rdm,161,2156241,0.0-8.44-0.44,False,,1.0,161.0,,,,,,,[],,,,,,53.2,1.0,i,1.0,True,1130.199999988079,68.0,60.0,40.0,334.1948145975641,[],"[640, 360]",ColorTask,95.0,45.0,,,HRV,HRV_0274,2022-11-30 21:09:56
,wl-rdm,162,2159109,0.0-8.45-0.45,False,,1.0,162.0,,,,,,,[],,,,,,50.0,0.0,i,1.0,False,1476.1999999284744,88.0,60.0,40.0,330.0097589161464,[],"[640, 360]",ColorTask,94.0,46.0,,,HRV,HRV_0274,2022-11-30 21:09:56
,wl-rdm,163,2161326,0.0-8.46-0.46,False,,1.0,163.0,,,,,,,[],,,,,,62.5,0.0,u,0.0,True,827.8000000119209,50.0,60.0,40.0,318.1443700258345,[],"[640, 360]",ColorTask,95.0,47.0,,,HRV,HRV_0274,2022-11-30 21:09:56
,wl-rdm,164,2163692,0.0-8.47-0.47,False,,1.0,164.0,,,,,,,[],,,,,,56.4,0.0,i,1.0,False,1055.8999999761581,64.0,60.0,40.0,232.5783597266407,[],"[640, 360]",ColorTask,94.0,48.0,,,HRV,HRV_0274,2022-11-30 21:09:56
,wl-rdm,165,2165742,0.0-8.48-0.48,False,,1.0,165.0,,,,,,,[],,,,,,56.4,1.0,i,1.0,True,757.3999999761581,46.0,60.0,40.0,223.6143502863572,[],"[640, 360]",ColorTask,95.0,49.0,,,HRV,HRV_0274,2022-11-30 21:09:56
,wl-rdm,166,2168026,0.0-8.49-0.49,False,,1.0,166.0,,,,,,,[],,,,,,56.4,0.0,u,0.0,True,857.1999999880791,52.0,60.0,40.0,337.29550152764006,[],"[640, 360]",ColorTask,96.0,50.0,,,HRV,HRV_0274,2022-11-30 21:09:56
,wl-rdm,167,2170243,0.0-8.50-0.50,False,,1.0,167.0,,,,,,,[],,,,,,53.2,1.0,i,1.0,True,787.5,48.0,60.0,40.0,341.7321880561606,[],"[640, 360]",ColorTask,97.0,51.0,,,HRV,HRV_0274,2022-11-30 21:09:56
,wl-rdm,168,2172310,0.0-8.51-0.51,False,,1.0,168.0,,,,,,,[],,,,,,62.5,1.0,i,1.0,True,705.6999999880791,43.0,60.0,40.0,270.8499724903351,[],"[640, 360]",ColorTask,98.0,52.0,,,HRV,HRV_0274,2022-11-30 21:09:56
,wl-rdm,169,2174410,0.0-8.52-0.52,False,,1.0,169.0,,,,,,,[],,,,,,87.9,1.0,i,1.0,True,633.9999999403954,38.0,60.0,40.0,395.4691390443295,[],"[640, 360]",ColorTask,99.0,53.0,,,HRV,HRV_0274,2022-11-30 21:09:56
,wl-rdm,170,2176427,0.0-8.53-0.53,False,,1.0,170.0,,,,,,,[],,,,,,73.6,0.0,u,0.0,True,657.6999999284744,40.0,60.0,40.0,275.10308144679846,[],"[640, 360]",ColorTask,100.0,54.0,,,HRV,HRV_0274,2022-11-30 21:09:56
,wl-rdm,171,2178594,0.0-8.54-0.54,False,,1.0,171.0,,,,,,,[],,,,,,73.6,0.0,i,1.0,False,840.3999999165535,51.0,60.0,40.0,238.161028183947,[],"[640, 360]",ColorTask,99.0,55.0,,,HRV,HRV_0274,2022-11-30 21:09:56
,wl-rdm,172,2180961,0.0-8.55-0.55,False,,1.0,172.0,,,,,,,[],,,,,,73.6,0.0,u,0.0,True,1055.0,64.0,60.0,40.0,244.17177756991674,[],"[640, 360]",ColorTask,100.0,56.0,,,HRV,HRV_0274,2022-11-30 21:09:56
,wl-rdm,173,2183278,0.0-8.56-0.56,False,,1.0,173.0,,,,,,,[],,,,,,53.2,1.0,i,1.0,True,925.6999999880791,56.0,60.0,40.0,313.85670966691805,[],"[640, 360]",ColorTask,101.0,57.0,,,HRV,HRV_0274,2022-11-30 21:09:56
,wl-rdm,174,2185662,0.0-8.57-0.57,False,,1.0,174.0,,,,,,,[],,,,,,62.5,0.0,u,0.0,True,1008.3999999761581,61.0,60.0,40.0,296.68346860901795,[],"[640, 360]",ColorTask,102.0,58.0,,,HRV,HRV_0274,2022-11-30 21:09:56
,wl-rdm,175,2187713,0.0-8.58-0.58,False,,1.0,175.0,,,,,,,[],,,,,,62.5,0.0,u,0.0,True,652.6000000238419,39.0,60.0,40.0,301.7135958936476,[],"[640, 360]",ColorTask,103.0,59.0,,,HRV,HRV_0274,2022-11-30 21:09:56
,wl-rdm,176,2189812,0.0-8.59-0.59,False,,1.0,176.0,,,,,,,[],,,,,,56.4,1.0,i,1.0,True,770.7999999523163,47.0,60.0,40.0,258.59276833251784,[],"[640, 360]",ColorTask,104.0,60.0,,,HRV,HRV_0274,2022-11-30 21:09:56
,wl-rdm,177,2191912,0.0-8.60-0.60,False,,1.0,177.0,,,,,,,[],,,,,,53.2,1.0,i,1.0,True,655.5,40.0,60.0,40.0,341.66074773439414,[],"[640, 360]",ColorTask,105.0,61.0,,,HRV,HRV_0274,2022-11-30 21:09:56
,wl-rdm,178,2194029,0.0-8.61-0.61,False,,1.0,178.0,,,,,,,[],,,,,,87.9,0.0,u,0.0,True,722.3999999761581,44.0,60.0,40.0,310.34944407582304,[],"[640, 360]",ColorTask,106.0,62.0,,,HRV,HRV_0274,2022-11-30 21:09:56
,wl-rdm,179,2196096,0.0-8.62-0.62,False,,1.0,179.0,,,,,,,[],,,,,,50.0,1.0,i,1.0,True,798.2999999523163,48.0,60.0,40.0,207.25242276771687,[],"[640, 360]",ColorTask,107.0,63.0,,,HRV,HRV_0274,2022-11-30 21:09:56
,wl-rdm,180,2198012,0.0-8.63-0.63,False,,1.0,180.0,,,,,,,[],,,,,,87.9,1.0,i,1.0,True,521.6999999880791,32.0,60.0,40.0,316.81816792882216,[],"[640, 360]",ColorTask,108.0,64.0,,,HRV,HRV_0274,2022-11-30 21:09:56
,wl-rdm,181,2200029,0.0-8.64-0.64,False,,1.0,181.0,,,,,,,[],,,,,,62.5,1.0,i,1.0,True,671.5999999642372,41.0,60.0,40.0,259.1709677006999,[],"[640, 360]",ColorTask,109.0,65.0,,,HRV,HRV_0274,2022-11-30 21:09:56
,wl-rdm,182,2202179,0.0-8.65-0.65,False,,1.0,182.0,,,,,,,[],,,,,,87.9,0.0,u,0.0,True,733.5000000596046,44.0,60.0,40.0,348.0027226453528,[],"[640, 360]",ColorTask,110.0,66.0,,,HRV,HRV_0274,2022-11-30 21:09:56
,wl-rdm,183,2204446,0.0-8.66-0.66,False,,1.0,183.0,,,,,,,[],,,,,,56.4,1.0,i,1.0,True,794.6000000238419,48.0,60.0,40.0,399.57745464093495,[],"[640, 360]",ColorTask,111.0,67.0,,,HRV,HRV_0274,2022-11-30 21:09:56
,wl-rdm,184,2206463,0.0-8.67-0.67,False,,1.0,184.0,,,,,,,[],,,,,,50.0,1.0,i,1.0,True,712.1000000238419,43.0,60.0,40.0,220.09810858474927,[],"[640, 360]",ColorTask,112.0,68.0,,,HRV,HRV_0274,2022-11-30 21:09:56
,wl-rdm,185,2208463,0.0-8.68-0.68,False,,1.0,185.0,,,,,,,[],,,,,,73.6,0.0,u,0.0,True,606.3000000119209,37.0,60.0,40.0,304.66807916585947,[],"[640, 360]",ColorTask,113.0,69.0,,,HRV,HRV_0274,2022-11-30 21:09:56
,wl-rdm,186,2210450,0.0-8.69-0.69,False,,1.0,186.0,,,,,,,[],,,,,,62.5,1.0,i,1.0,True,698.1000000834465,42.0,60.0,40.0,221.61112611124506,[],"[640, 360]",ColorTask,114.0,70.0,,,HRV,HRV_0274,2022-11-30 21:09:56
,wl-rdm,187,2212414,0.0-8.70-0.70,False,,1.0,187.0,,,,,,,[],,,,,,62.5,0.0,u,0.0,True,689.7000000476837,42.0,60.0,40.0,203.18691282638338,[],"[640, 360]",ColorTask,115.0,71.0,,,HRV,HRV_0274,2022-11-30 21:09:56
,wl-rdm,188,2214431,0.0-8.71-0.71,False,,1.0,188.0,,,,,,,[],,,,,,73.6,1.0,i,1.0,True,565.6999999880791,34.0,60.0,40.0,387.60758717576306,[],"[640, 360]",ColorTask,116.0,72.0,,,HRV,HRV_0274,2022-11-30 21:09:56
,wl-rdm,189,2216464,0.0-8.72-0.72,False,,1.0,189.0,,,,,,,[],,,,,,73.6,1.0,i,1.0,True,604.0,37.0,60.0,40.0,338.18837569210405,[],"[640, 360]",ColorTask,117.0,73.0,,,HRV,HRV_0274,2022-11-30 21:09:56
,wl-rdm,190,2218481,0.0-8.73-0.73,False,,1.0,190.0,,,,,,,[],,,,,,87.9,0.0,u,0.0,True,597.1999999880791,36.0,60.0,40.0,352.1292014888128,[],"[640, 360]",ColorTask,118.0,74.0,,,HRV,HRV_0274,2022-11-30 21:09:56
,wl-rdm,191,2220615,0.0-8.74-0.74,False,,1.0,191.0,,,,,,,[],,,,,,62.5,1.0,i,1.0,True,705.6999999880791,43.0,60.0,40.0,353.31063147943064,[],"[640, 360]",ColorTask,119.0,75.0,,,HRV,HRV_0274,2022-11-30 21:09:56
,wl-rdm,192,2223216,0.0-8.75-0.75,False,,1.0,192.0,,,,,,,[],,,,,,53.2,0.0,i,1.0,False,1177.300000011921,71.0,60.0,40.0,353.39710097929174,[],"[640, 360]",ColorTask,118.0,76.0,,,HRV,HRV_0274,2022-11-30 21:09:56
,wl-rdm,193,2225198,0.0-8.76-0.76,False,,1.0,193.0,,,,,,,[],,,,,,73.6,1.0,i,1.0,True,601.0999999642372,37.0,60.0,40.0,298.6636692114993,[],"[640, 360]",ColorTask,119.0,77.0,,,HRV,HRV_0274,2022-11-30 21:09:56
,wl-rdm,194,2227299,0.0-8.77-0.77,False,,1.0,194.0,,,,,,,[],,,,,,50.0,0.0,i,1.0,False,722.6999999880791,44.0,60.0,40.0,287.67653513802014,[],"[640, 360]",ColorTask,118.0,78.0,,,HRV,HRV_0274,2022-11-30 21:09:56
,wl-rdm,195,2229333,0.0-8.78-0.78,False,,1.0,195.0,,,,,,,[],,,,,,73.6,0.0,i,1.0,False,615.7000000476837,37.0,60.0,40.0,349.2211400786118,[],"[640, 360]",ColorTask,117.0,79.0,,,HRV,HRV_0274,2022-11-30 21:09:56
,wl-rdm,196,2231616,0.0-8.79-0.79,False,,1.0,196.0,,,,,,,[],,,,,,50.0,0.0,i,1.0,False,990.9000000357628,60.0,60.0,40.0,228.81830112967958,[],"[640, 360]",ColorTask,116.0,80.0,,,HRV,HRV_0274,2022-11-30 21:09:56
,wl-rdm,197,2233833,0.0-8.80-0.80,False,,1.0,197.0,,,,,,,[],,,,,,50.0,1.0,u,0.0,False,847.1000000238419,51.0,60.0,40.0,314.90337322355043,[],"[640, 360]",ColorTask,115.0,81.0,,,HRV,HRV_0274,2022-11-30 21:09:56
,wl-rdm,198,2236116,0.0-8.81-0.81,False,,1.0,198.0,,,,,,,[],,,,,,50.0,1.0,u,0.0,False,830.0000000596046,49.0,60.0,40.0,396.33819095003156,[],"[640, 360]",ColorTask,114.0,82.0,,,HRV,HRV_0274,2022-11-30 21:09:56
,wl-rdm,199,2238500,0.0-8.82-0.82,False,,1.0,199.0,,,,,,,[],,,,,,50.0,1.0,u,0.0,False,1010.1999999880791,61.0,60.0,40.0,299.2867524890245,[],"[640, 360]",ColorTask,113.0,83.0,,,HRV,HRV_0274,2022-11-30 21:09:56
,wl-rdm,200,2240367,0.0-8.83-0.83,False,,1.0,200.0,,,,,,,[],,,,,,62.5,1.0,i,1.0,True,588.5,36.0,60.0,40.0,202.09633893833302,[],"[640, 360]",ColorTask,114.0,84.0,,,HRV,HRV_0274,2022-11-30 21:09:56
,wl-rdm,201,2242233,0.0-8.84-0.84,False,,1.0,201.0,,,,,,,[],,,,,,87.9,1.0,i,1.0,True,440.1999999284744,27.0,60.0,40.0,333.4700926958506,[],"[640, 360]",ColorTask,115.0,85.0,,,HRV,HRV_0274,2022-11-30 21:09:56
,wl-rdm,202,2244200,0.0-8.85-0.85,False,,1.0,202.0,,,,,,,[],,,,,,73.6,0.0,u,0.0,True,590.6999999880791,36.0,60.0,40.0,294.2507747820901,[],"[640, 360]",ColorTask,116.0,86.0,,,HRV,HRV_0274,2022-11-30 21:09:56
,wl-rdm,203,2246284,0.0-8.86-0.86,False,,1.0,203.0,,,,,,,[],,,,,,56.4,0.0,i,1.0,False,763.6999999284744,46.0,60.0,40.0,261.8694406778155,[],"[640, 360]",ColorTask,115.0,87.0,,,HRV,HRV_0274,2022-11-30 21:09:56
,wl-rdm,204,2248301,0.0-8.87-0.87,False,,1.0,204.0,,,,,,,[],,,,,,62.5,1.0,i,1.0,True,631.1999999880791,38.0,60.0,40.0,311.00337317441176,[],"[640, 360]",ColorTask,116.0,88.0,,,HRV,HRV_0274,2022-11-30 21:09:56
,wl-rdm,205,2250385,0.0-8.88-0.88,False,,1.0,205.0,,,,,,,[],,,,,,73.6,0.0,u,0.0,True,754.8000000119209,46.0,60.0,40.0,248.1735513615862,[],"[640, 360]",ColorTask,117.0,89.0,,,HRV,HRV_0274,2022-11-30 21:09:56
,wl-rdm,206,2252551,0.0-8.89-0.89,False,,1.0,206.0,,,,,,,[],,,,,,50.0,1.0,u,0.0,False,721.8999999761581,44.0,60.0,40.0,354.684647102692,[],"[640, 360]",ColorTask,116.0,90.0,,,HRV,HRV_0274,2022-11-30 21:09:56
,wl-rdm,207,2254385,0.0-8.90-0.90,False,,1.0,207.0,,,,,,,[],,,,,,73.6,1.0,i,1.0,True,523.0999999642372,32.0,60.0,40.0,231.12076090254135,[],"[640, 360]",ColorTask,117.0,91.0,,,HRV,HRV_0274,2022-11-30 21:09:56
,wl-rdm,208,2256485,0.0-8.91-0.91,False,,1.0,208.0,,,,,,,[],,,,,,53.2,0.0,i,1.0,False,749.8999999761581,45.0,60.0,40.0,283.20710851722373,[],"[640, 360]",ColorTask,116.0,92.0,,,HRV,HRV_0274,2022-11-30 21:09:56
,wl-rdm,209,2258487,0.0-8.92-0.92,False,,1.0,209.0,,,,,,,[],,,,,,56.4,1.0,i,1.0,True,660.2999999523163,40.0,60.0,40.0,269.44256570948096,[],"[640, 360]",ColorTask,117.0,93.0,,,HRV,HRV_0274,2022-11-30 21:09:56
,wl-rdm,210,2260602,0.0-8.93-0.93,False,,1.0,210.0,,,,,,,[],,,,,,56.4,1.0,i,1.0,True,803.9999999403954,49.0,60.0,40.0,233.60087562945245,[],"[640, 360]",ColorTask,118.0,94.0,,,HRV,HRV_0274,2022-11-30 21:09:56
,wl-rdm,211,2262553,0.0-8.94-0.94,False,,1.0,211.0,,,,,,,[],,,,,,53.2,1.0,i,1.0,True,590.2999999523163,36.0,60.0,40.0,286.08536046100676,[],"[640, 360]",ColorTask,119.0,95.0,,,HRV,HRV_0274,2022-11-30 21:09:56
,wl-rdm,212,2264436,0.0-8.95-0.95,False,,1.0,212.0,,,,,,,[],,,,,,73.6,0.0,u,0.0,True,546.8000000119209,33.0,60.0,40.0,264.08580114093854,[],"[640, 360]",ColorTask,120.0,96.0,,,HRV,HRV_0274,2022-11-30 21:09:56
,wl-rdm,213,2266637,0.0-8.96-0.96,False,,1.0,213.0,,,,,,,[],,,,,,73.6,1.0,u,0.0,False,810.3999999761581,49.0,60.0,40.0,305.2087499224141,[],"[640, 360]",ColorTask,119.0,97.0,,,HRV,HRV_0274,2022-11-30 21:09:56
,wl-rdm,214,2268703,0.0-8.97-0.97,False,,1.0,214.0,,,,,,,[],,,,,,87.9,1.0,i,1.0,True,655.8999999761581,40.0,60.0,40.0,330.1897775725182,[],"[640, 360]",ColorTask,120.0,98.0,,,HRV,HRV_0274,2022-11-30 21:09:56
,wl-rdm,215,2270870,0.0-8.98-0.98,False,,1.0,215.0,,,,,,,[],,,,,,53.2,0.0,u,0.0,True,830.1999999880791,50.0,60.0,40.0,251.43539730610632,[],"[640, 360]",ColorTask,121.0,99.0,,,HRV,HRV_0274,2022-11-30 21:09:56
,wl-rdm,216,2273004,0.0-8.99-0.99,False,,1.0,216.0,,,,,,,[],,,,,,53.2,0.0,i,1.0,False,847.4000000357628,51.0,60.0,40.0,200.9688167353761,[],"[640, 360]",ColorTask,120.0,100.0,,,HRV,HRV_0274,2022-11-30 21:09:56
,wl-rdm,217,2275221,0.0-8.100-0.100,False,,1.0,217.0,,,,,,,[],,,,,,50.0,1.0,u,0.0,False,747.6999999880791,45.0,60.0,40.0,390.9136933123108,[],"[640, 360]",ColorTask,119.0,101.0,,,HRV,HRV_0274,2022-11-30 21:09:56
,wl-rdm,218,2277338,0.0-8.101-0.101,False,,1.0,218.0,,,,,,,[],,,,,,50.0,0.0,u,0.0,True,738.2999999523163,45.0,60.0,40.0,308.4110846336631,[],"[640, 360]",ColorTask,120.0,102.0,,,HRV,HRV_0274,2022-11-30 21:09:56
,wl-rdm,219,2279238,0.0-8.102-0.102,False,,1.0,219.0,,,,,,,[],,,,,,62.5,0.0,u,0.0,True,511.7999999523163,31.0,60.0,40.0,301.029862226241,[],"[640, 360]",ColorTask,121.0,103.0,,,HRV,HRV_0274,2022-11-30 21:09:56
,wl-rdm,220,2281255,0.0-8.103-0.103,False,,1.0,220.0,,,,,,,[],,,,,,53.2,1.0,u,0.0,False,721.0999999642372,44.0,60.0,40.0,214.96209208132356,[],"[640, 360]",ColorTask,120.0,104.0,,,HRV,HRV_0274,2022-11-30 21:09:56
,wl-rdm,221,2283338,0.0-8.104-0.104,False,,1.0,221.0,,,,,,,[],,,,,,53.2,0.0,i,1.0,False,738.5999999642372,45.0,60.0,40.0,250.2782119132508,[],"[640, 360]",ColorTask,119.0,105.0,,,HRV,HRV_0274,2022-11-30 21:09:56
,wl-rdm,222,2285588,0.0-8.105-0.105,False,,1.0,222.0,,,,,,,[],,,,,,50.0,1.0,u,0.0,False,788.4000000357628,48.0,60.0,40.0,367.53011939595774,[],"[640, 360]",ColorTask,118.0,106.0,,,HRV,HRV_0274,2022-11-30 21:09:56
,wl-rdm,223,2287722,0.0-8.106-0.106,False,,1.0,223.0,,,,,,,[],,,,,,62.5,0.0,i,1.0,False,783.6999999880791,47.0,60.0,40.0,274.85799784773747,[],"[640, 360]",ColorTask,117.0,107.0,,,HRV,HRV_0274,2022-11-30 21:09:56
,wl-rdm,224,2290239,0.0-8.107-0.107,False,,1.0,224.0,,,,,,,[],,,,,,50.0,0.0,u,0.0,True,1221.8999999761581,74.0,60.0,40.0,201.87444622486828,[],"[640, 360]",ColorTask,118.0,108.0,,,HRV,HRV_0274,2022-11-30 21:09:56
,wl-html-button-response,225,2292140,0.0-9.0-0.0,,,,,,,,,,,,1890.5999999642372,,0,,,,,,,,,,,,,,,,,,<h3>End of this session. Thank you!</h3><br>,['Close window'],HRV,HRV_0274,2022-11-30 21:09:56
