trialN,stimuli,trialStartTime,trialStartTime_UNIX,stimulus1,stimulus2,stimulus1Bid,stimulus2Bid,delta,selected,rt,rt_UNIX,rt_perfnow,receivedResponse,rsp,trialEndTime,trialDuration,trialEndTime_UNIX,trialDuration_UNIX,exp,subjectId,date
0,"[{'imgObject': {}, 'id': 'apple slices', 'src': '/static/foodstim60/apple slices.jpg', 'key': 'u', 'origWidth': 409, 'origHeight': 410, 'width': 409, 'height': 410, 'widthPercent': 0.45, 'rescaleHeight': False, 'trialN': 0, 'loaded': True, 'loadedTime': 4241.800000011921, 'positionName': 'LEFT', 'positionCoords': [205.4, 155], 'bid': 5.59}, {'imgObject': {}, 'id': 'raisin bran w milk', 'src': '/static/foodstim60/raisin bran w milk.jpg', 'key': 'i', 'origWidth': 411, 'origHeight': 411, 'width': 411, 'height': 411, 'widthPercent': 0.45, 'rescaleHeight': False, 'trialN': 0, 'loaded': True, 'loadedTime': 4249.200000047684, 'positionName': 'RIGHT', 'positionCoords': [665.6, 154.5], 'bid': 6.95}]",5079.5,1669837926744,apple slices,raisin bran w milk,5.59,6.95,1.3600000000000003,raisin bran w milk,1382.800000011921,1384,1384.2000000476837,True,i,6967.400000035763,1887.9000000357628,1669837928632,1888,HRV,HRV_0274,2022-11-30 19:56:45
1,"[{'imgObject': {}, 'id': 'turkeysandwich', 'src': '/static/foodstim60/turkeysandwich.jpg', 'key': 'u', 'origWidth': 409, 'origHeight': 409, 'width': 409, 'height': 409, 'widthPercent': 0.45, 'rescaleHeight': False, 'trialN': 1, 'loaded': True, 'loadedTime': 4253.200000047684, 'positionName': 'LEFT', 'positionCoords': [205.4, 155.5], 'bid': 5.8100000000000005}, {'imgObject': {}, 'id': 'Grapes', 'src': '/static/foodstim60/Grapes.jpg', 'key': 'i', 'origWidth': 411, 'origHeight': 411, 'width': 411, 'height': 411, 'widthPercent': 0.45, 'rescaleHeight': False, 'trialN': 1, 'loaded': True, 'loadedTime': 4280.200000047684, 'positionName': 'RIGHT', 'positionCoords': [665.6, 154.5], 'bid': 4.23}]",6967.800000011921,1669837928632,turkeysandwich,Grapes,5.8100000000000005,4.23,-1.58,turkeysandwich,870.6000000238419,871,871.3000000119209,True,u,8346.400000035763,1378.6000000238419,1669837930011,1379,HRV,HRV_0274,2022-11-30 19:56:45
2,"[{'imgObject': {}, 'id': 'omelette', 'src': '/static/foodstim60/omelette.jpg', 'key': 'u', 'origWidth': 410, 'origHeight': 409, 'width': 410, 'height': 409, 'widthPercent': 0.45, 'rescaleHeight': False, 'trialN': 2, 'loaded': True, 'loadedTime': 4285.300000011921, 'positionName': 'LEFT', 'positionCoords': [204.4, 155.5], 'bid': 4.4}, {'imgObject': {}, 'id': 'popsicles', 'src': '/static/foodstim60/popsicles.jpg', 'key': 'i', 'origWidth': 410, 'origHeight': 410, 'width': 410, 'height': 410, 'widthPercent': 0.45, 'rescaleHeight': False, 'trialN': 2, 'loaded': True, 'loadedTime': 4288.600000023842, 'positionName': 'RIGHT', 'positionCoords': [665.6, 155], 'bid': 4.96}]",8347.0,1669837930011,omelette,popsicles,4.4,4.96,0.5599999999999996,omelette,1130.300000011921,1131,1131.4000000357628,True,u,9986.200000047684,1639.2000000476837,1669837931650,1639,HRV,HRV_0274,2022-11-30 19:56:45
3,"[{'imgObject': {}, 'id': 'olives', 'src': '/static/foodstim60/olives.jpg', 'key': 'u', 'origWidth': 410, 'origHeight': 410, 'width': 410, 'height': 410, 'widthPercent': 0.45, 'rescaleHeight': False, 'trialN': 3, 'loaded': True, 'loadedTime': 4291.5, 'positionName': 'LEFT', 'positionCoords': [204.4, 155], 'bid': 5}, {'imgObject': {}, 'id': 'shreddedwheatwithmilk', 'src': '/static/foodstim60/shreddedwheatwithmilk.jpg', 'key': 'i', 'origWidth': 410, 'origHeight': 410, 'width': 410, 'height': 410, 'widthPercent': 0.45, 'rescaleHeight': False, 'trialN': 3, 'loaded': True, 'loadedTime': 4297.400000035763, 'positionName': 'RIGHT', 'positionCoords': [665.6, 155], 'bid': 6.42}]",9987.0,1669837931651,olives,shreddedwheatwithmilk,5.0,6.42,1.42,shreddedwheatwithmilk,1131.300000011921,1133,1132.4000000357628,True,i,11628.0,1641.0,1669837933292,1641,HRV,HRV_0274,2022-11-30 19:56:45
4,"[{'imgObject': {}, 'id': 'rigatoni', 'src': '/static/foodstim60/rigatoni.jpg', 'key': 'u', 'origWidth': 411, 'origHeight': 411, 'width': 411, 'height': 411, 'widthPercent': 0.45, 'rescaleHeight': False, 'trialN': 4, 'loaded': True, 'loadedTime': 4304.5, 'positionName': 'LEFT', 'positionCoords': [203.4, 154.5], 'bid': 2.03}, {'imgObject': {}, 'id': 'Tribe humus pita', 'src': '/static/foodstim60/Tribe humus pita.jpg', 'key': 'i', 'origWidth': 411, 'origHeight': 411, 'width': 411, 'height': 411, 'widthPercent': 0.45, 'rescaleHeight': False, 'trialN': 4, 'loaded': True, 'loadedTime': 4314, 'positionName': 'RIGHT', 'positionCoords': [665.6, 154.5], 'bid': 3.56}]",11628.800000011921,1669837933293,rigatoni,Tribe humus pita,2.03,3.56,1.5300000000000002,Tribe humus pita,1660.300000011921,1661,1660.6000000238419,True,i,13803.200000047684,2174.400000035763,1669837935467,2174,HRV,HRV_0274,2022-11-30 19:56:45
5,"[{'imgObject': {}, 'id': 'eggs', 'src': '/static/foodstim60/eggs.jpg', 'key': 'u', 'origWidth': 409, 'origHeight': 409, 'width': 409, 'height': 409, 'widthPercent': 0.45, 'rescaleHeight': False, 'trialN': 5, 'loaded': True, 'loadedTime': 4323.800000011921, 'positionName': 'LEFT', 'positionCoords': [205.4, 155.5], 'bid': 4.93}, {'imgObject': {}, 'id': 'mango', 'src': '/static/foodstim60/mango.jpg', 'key': 'i', 'origWidth': 411, 'origHeight': 411, 'width': 411, 'height': 411, 'widthPercent': 0.45, 'rescaleHeight': False, 'trialN': 5, 'loaded': True, 'loadedTime': 4332.200000047684, 'positionName': 'RIGHT', 'positionCoords': [665.6, 154.5], 'bid': 2.84}]",13803.900000035763,1669837935468,eggs,mango,4.93,2.84,-2.09,eggs,760.5,761,761.3000000119209,True,u,15083.800000011921,1279.8999999761581,1669837936748,1280,HRV,HRV_0274,2022-11-30 19:56:45
6,"[{'imgObject': {}, 'id': 'yogurt no spoon', 'src': '/static/foodstim60/yogurt no spoon.jpg', 'key': 'u', 'origWidth': 411, 'origHeight': 410, 'width': 411, 'height': 410, 'widthPercent': 0.45, 'rescaleHeight': False, 'trialN': 6, 'loaded': True, 'loadedTime': 4373.300000011921, 'positionName': 'LEFT', 'positionCoords': [203.4, 155], 'bid': 9.28}, {'imgObject': {}, 'id': 'cheerios', 'src': '/static/foodstim60/cheerios.jpg', 'key': 'i', 'origWidth': 409, 'origHeight': 410, 'width': 409, 'height': 410, 'widthPercent': 0.45, 'rescaleHeight': False, 'trialN': 6, 'loaded': True, 'loadedTime': 4429.300000011921, 'positionName': 'RIGHT', 'positionCoords': [665.6, 155], 'bid': 7.96}]",15084.400000035763,1669837936749,yogurt no spoon,cheerios,9.28,7.96,-1.3199999999999994,yogurt no spoon,1378.800000011921,1379,1379.800000011921,True,u,16980.600000023842,1896.199999988079,1669837938645,1896,HRV,HRV_0274,2022-11-30 19:56:45
7,"[{'imgObject': {}, 'id': 'olives', 'src': '/static/foodstim60/olives.jpg', 'key': 'u', 'origWidth': 410, 'origHeight': 410, 'width': 410, 'height': 410, 'widthPercent': 0.45, 'rescaleHeight': False, 'trialN': 7, 'loaded': True, 'loadedTime': 4293.300000011921, 'positionName': 'LEFT', 'positionCoords': [204.4, 155], 'bid': 5}, {'imgObject': {}, 'id': 'popsicles', 'src': '/static/foodstim60/popsicles.jpg', 'key': 'i', 'origWidth': 410, 'origHeight': 410, 'width': 410, 'height': 410, 'widthPercent': 0.45, 'rescaleHeight': False, 'trialN': 7, 'loaded': True, 'loadedTime': 4288.800000011921, 'positionName': 'RIGHT', 'positionCoords': [665.6, 155], 'bid': 4.96}]",16981.900000035763,1669837938646,olives,popsicles,5.0,4.96,-0.040000000000000036,popsicles,1094.699999988079,1096,1096.0,True,i,18595.30000001192,1613.3999999761581,1669837940260,1614,HRV,HRV_0274,2022-11-30 19:56:45
8,"[{'imgObject': {}, 'id': 'cocktailshrimp', 'src': '/static/foodstim60/cocktailshrimp.jpg', 'key': 'u', 'origWidth': 410, 'origHeight': 410, 'width': 410, 'height': 410, 'widthPercent': 0.45, 'rescaleHeight': False, 'trialN': 8, 'loaded': True, 'loadedTime': 4437, 'positionName': 'LEFT', 'positionCoords': [204.4, 155], 'bid': 8.32}, {'imgObject': {}, 'id': 'froot loops w milk', 'src': '/static/foodstim60/froot loops w milk.jpg', 'key': 'i', 'origWidth': 410, 'origHeight': 410, 'width': 410, 'height': 410, 'widthPercent': 0.45, 'rescaleHeight': False, 'trialN': 8, 'loaded': True, 'loadedTime': 4487.5, 'positionName': 'RIGHT', 'positionCoords': [665.6, 155], 'bid': 7.54}]",18596.0,1669837940260,cocktailshrimp,froot loops w milk,8.32,7.54,-0.7800000000000002,froot loops w milk,977.0,978,978.2000000476837,True,i,20081.100000023842,1485.1000000238419,1669837941745,1485,HRV,HRV_0274,2022-11-30 19:56:45
9,"[{'imgObject': {}, 'id': 'blueberries', 'src': '/static/foodstim60/blueberries.jpg', 'key': 'u', 'origWidth': 411, 'origHeight': 411, 'width': 411, 'height': 411, 'widthPercent': 0.45, 'rescaleHeight': False, 'trialN': 9, 'loaded': True, 'loadedTime': 4548.200000047684, 'positionName': 'LEFT', 'positionCoords': [203.4, 154.5], 'bid': 9.37}, {'imgObject': {}, 'id': 'pear', 'src': '/static/foodstim60/pear.jpg', 'key': 'i', 'origWidth': 411, 'origHeight': 410, 'width': 411, 'height': 410, 'widthPercent': 0.45, 'rescaleHeight': False, 'trialN': 9, 'loaded': True, 'loadedTime': 4601.600000023842, 'positionName': 'RIGHT', 'positionCoords': [665.6, 155], 'bid': 8.03}]",20082.200000047684,1669837941746,blueberries,pear,9.37,8.03,-1.3399999999999999,blueberries,1040.7999999523163,1042,1041.7999999523163,True,u,21641.30000001192,1559.0999999642372,1669837943306,1560,HRV,HRV_0274,2022-11-30 19:56:45
10,"[{'imgObject': {}, 'id': 'burger', 'src': '/static/foodstim60/burger.jpg', 'key': 'u', 'origWidth': 409, 'origHeight': 409, 'width': 409, 'height': 409, 'widthPercent': 0.45, 'rescaleHeight': False, 'trialN': 10, 'loaded': True, 'loadedTime': 4615.100000023842, 'positionName': 'LEFT', 'positionCoords': [205.4, 155.5], 'bid': 4.7}, {'imgObject': {}, 'id': 'sweetpotato', 'src': '/static/foodstim60/sweetpotato.jpg', 'key': 'i', 'origWidth': 410, 'origHeight': 410, 'width': 410, 'height': 410, 'widthPercent': 0.45, 'rescaleHeight': False, 'trialN': 10, 'loaded': True, 'loadedTime': 4662.5, 'positionName': 'RIGHT', 'positionCoords': [665.6, 155], 'bid': 1.96}]",21642.30000001192,1669837943306,burger,sweetpotato,4.7,1.96,-2.74,burger,1108.4000000357628,1110,1109.800000011921,True,u,23258.80000001192,1616.5,1669837944923,1617,HRV,HRV_0274,2022-11-30 19:56:45
11,"[{'imgObject': {}, 'id': 'fried eggs', 'src': '/static/foodstim60/fried eggs.jpg', 'key': 'u', 'origWidth': 410, 'origHeight': 410, 'width': 410, 'height': 410, 'widthPercent': 0.45, 'rescaleHeight': False, 'trialN': 11, 'loaded': True, 'loadedTime': 4718, 'positionName': 'LEFT', 'positionCoords': [204.4, 155], 'bid': 7.17}, {'imgObject': {}, 'id': 'orange slices', 'src': '/static/foodstim60/orange slices.jpg', 'key': 'i', 'origWidth': 409, 'origHeight': 410, 'width': 409, 'height': 410, 'widthPercent': 0.45, 'rescaleHeight': False, 'trialN': 11, 'loaded': True, 'loadedTime': 4720.400000035763, 'positionName': 'RIGHT', 'positionCoords': [665.6, 155], 'bid': 7.28}]",23259.30000001192,1669837944923,fried eggs,orange slices,7.17,7.28,0.11000000000000032,fried eggs,1243.9000000357628,1245,1244.5,True,u,25024.400000035763,1765.1000000238419,1669837946689,1766,HRV,HRV_0274,2022-11-30 19:56:45
12,"[{'imgObject': {}, 'id': 'ice cream sundae 002', 'src': '/static/foodstim60/ice cream sundae 002.jpg', 'key': 'u', 'origWidth': 409, 'origHeight': 409, 'width': 409, 'height': 409, 'widthPercent': 0.45, 'rescaleHeight': False, 'trialN': 12, 'loaded': True, 'loadedTime': 4722.200000047684, 'positionName': 'LEFT', 'positionCoords': [205.4, 155.5], 'bid': 5.0600000000000005}, {'imgObject': {}, 'id': 'steak', 'src': '/static/foodstim60/steak.jpg', 'key': 'i', 'origWidth': 410, 'origHeight': 410, 'width': 410, 'height': 410, 'widthPercent': 0.45, 'rescaleHeight': False, 'trialN': 12, 'loaded': True, 'loadedTime': 4777.5, 'positionName': 'RIGHT', 'positionCoords': [665.6, 155], 'bid': 5.21}]",25025.5,1669837946690,ice cream sundae 002,steak,5.0600000000000005,5.21,0.14999999999999947,steak,1881.5,1882,1882.4000000357628,True,i,27415.400000035763,2389.900000035763,1669837949080,2390,HRV,HRV_0274,2022-11-30 19:56:45
13,"[{'imgObject': {}, 'id': 'ice cream sundae 002', 'src': '/static/foodstim60/ice cream sundae 002.jpg', 'key': 'u', 'origWidth': 409, 'origHeight': 409, 'width': 409, 'height': 409, 'widthPercent': 0.45, 'rescaleHeight': False, 'trialN': 13, 'loaded': True, 'loadedTime': 4721.900000035763, 'positionName': 'LEFT', 'positionCoords': [205.4, 155.5], 'bid': 5.0600000000000005}, {'imgObject': {}, 'id': 'Tribe humus pita', 'src': '/static/foodstim60/Tribe humus pita.jpg', 'key': 'i', 'origWidth': 411, 'origHeight': 411, 'width': 411, 'height': 411, 'widthPercent': 0.45, 'rescaleHeight': False, 'trialN': 13, 'loaded': True, 'loadedTime': 4315.200000047684, 'positionName': 'RIGHT', 'positionCoords': [665.6, 154.5], 'bid': 3.56}]",27415.900000035763,1669837949080,ice cream sundae 002,Tribe humus pita,5.0600000000000005,3.56,-1.5000000000000004,ice cream sundae 002,992.5,993,993.3999999761581,True,u,28922.400000035763,1506.5,1669837950587,1507,HRV,HRV_0274,2022-11-30 19:56:45
14,"[{'imgObject': {}, 'id': 'grilled chicken strips', 'src': '/static/foodstim60/grilled chicken strips.jpg', 'key': 'u', 'origWidth': 410, 'origHeight': 411, 'width': 410, 'height': 411, 'widthPercent': 0.45, 'rescaleHeight': False, 'trialN': 14, 'loaded': True, 'loadedTime': 4779.300000011921, 'positionName': 'LEFT', 'positionCoords': [204.4, 154.5], 'bid': 5.0600000000000005}, {'imgObject': {}, 'id': 'ice cream sundae 002', 'src': '/static/foodstim60/ice cream sundae 002.jpg', 'key': 'i', 'origWidth': 409, 'origHeight': 409, 'width': 409, 'height': 409, 'widthPercent': 0.45, 'rescaleHeight': False, 'trialN': 14, 'loaded': True, 'loadedTime': 4722, 'positionName': 'RIGHT', 'positionCoords': [665.6, 155.5], 'bid': 5.0600000000000005}]",28923.100000023842,1669837950587,grilled chicken strips,ice cream sundae 002,5.0600000000000005,5.0600000000000005,0.0,ice cream sundae 002,2346.5,2349,2348.699999988079,True,i,31778.5,2855.399999976158,1669837953443,2856,HRV,HRV_0274,2022-11-30 19:56:45
15,"[{'imgObject': {}, 'id': 'orange slices', 'src': '/static/foodstim60/orange slices.jpg', 'key': 'u', 'origWidth': 409, 'origHeight': 410, 'width': 409, 'height': 410, 'widthPercent': 0.45, 'rescaleHeight': False, 'trialN': 15, 'loaded': True, 'loadedTime': 4720.5, 'positionName': 'LEFT', 'positionCoords': [205.4, 155], 'bid': 7.28}, {'imgObject': {}, 'id': 'raisin bran w milk', 'src': '/static/foodstim60/raisin bran w milk.jpg', 'key': 'i', 'origWidth': 411, 'origHeight': 411, 'width': 411, 'height': 411, 'widthPercent': 0.45, 'rescaleHeight': False, 'trialN': 15, 'loaded': True, 'loadedTime': 4246.400000035763, 'positionName': 'RIGHT', 'positionCoords': [665.6, 154.5], 'bid': 6.95}]",31779.100000023842,1669837953443,orange slices,raisin bran w milk,7.28,6.95,-0.33000000000000007,raisin bran w milk,1143.5,1145,1144.300000011921,True,i,33437.90000003576,1658.800000011921,1669837955102,1659,HRV,HRV_0274,2022-11-30 19:56:45
16,"[{'imgObject': {}, 'id': 'raisin bran w milk', 'src': '/static/foodstim60/raisin bran w milk.jpg', 'key': 'u', 'origWidth': 411, 'origHeight': 411, 'width': 411, 'height': 411, 'widthPercent': 0.45, 'rescaleHeight': False, 'trialN': 16, 'loaded': True, 'loadedTime': 4244.100000023842, 'positionName': 'LEFT', 'positionCoords': [203.4, 154.5], 'bid': 6.95}, {'imgObject': {}, 'id': 'luckycharms', 'src': '/static/foodstim60/luckycharms.jpg', 'key': 'i', 'origWidth': 410, 'origHeight': 409, 'width': 410, 'height': 409, 'widthPercent': 0.45, 'rescaleHeight': False, 'trialN': 16, 'loaded': True, 'loadedTime': 4841, 'positionName': 'RIGHT', 'positionCoords': [665.6, 155.5], 'bid': 9.2}]",33438.200000047684,1669837955102,raisin bran w milk,luckycharms,6.95,9.2,2.249999999999999,luckycharms,989.7999999523163,991,990.8999999761581,True,i,34935.700000047684,1497.5,1669837956600,1498,HRV,HRV_0274,2022-11-30 19:56:45
17,"[{'imgObject': {}, 'id': 'turkey sandwich', 'src': '/static/foodstim60/turkey sandwich.jpg', 'key': 'u', 'origWidth': 409, 'origHeight': 409, 'width': 409, 'height': 409, 'widthPercent': 0.45, 'rescaleHeight': False, 'trialN': 17, 'loaded': True, 'loadedTime': 4844.800000011921, 'positionName': 'LEFT', 'positionCoords': [205.4, 155.5], 'bid': 6.73}, {'imgObject': {}, 'id': 'mango', 'src': '/static/foodstim60/mango.jpg', 'key': 'i', 'origWidth': 411, 'origHeight': 411, 'width': 411, 'height': 411, 'widthPercent': 0.45, 'rescaleHeight': False, 'trialN': 17, 'loaded': True, 'loadedTime': 4332.400000035763, 'positionName': 'RIGHT', 'positionCoords': [665.6, 154.5], 'bid': 2.84}]",34936.80000001192,1669837956601,turkey sandwich,mango,6.73,2.84,-3.8900000000000006,turkey sandwich,706.0,706,706.5,True,u,36153.90000003576,1217.1000000238419,1669837957818,1217,HRV,HRV_0274,2022-11-30 19:56:45
18,"[{'imgObject': {}, 'id': 'mac & cheese', 'src': '/static/foodstim60/mac & cheese.jpg', 'key': 'u', 'origWidth': 410, 'origHeight': 410, 'width': 410, 'height': 410, 'widthPercent': 0.45, 'rescaleHeight': False, 'trialN': 18, 'loaded': True, 'loadedTime': 4847, 'positionName': 'LEFT', 'positionCoords': [204.4, 155], 'bid': 9.43}, {'imgObject': {}, 'id': 'froot loops w milk', 'src': '/static/foodstim60/froot loops w milk.jpg', 'key': 'i', 'origWidth': 410, 'origHeight': 410, 'width': 410, 'height': 410, 'widthPercent': 0.45, 'rescaleHeight': False, 'trialN': 18, 'loaded': True, 'loadedTime': 4489.300000011921, 'positionName': 'RIGHT', 'positionCoords': [665.6, 155], 'bid': 7.54}]",36154.700000047684,1669837957819,mac & cheese,froot loops w milk,9.43,7.54,-1.8899999999999997,mac & cheese,980.6999999880791,982,981.8999999761581,True,u,37652.30000001192,1497.5999999642372,1669837959317,1498,HRV,HRV_0274,2022-11-30 19:56:45
19,"[{'imgObject': {}, 'id': 'salad w chicken', 'src': '/static/foodstim60/salad w chicken.jpg', 'key': 'u', 'origWidth': 411, 'origHeight': 411, 'width': 411, 'height': 411, 'widthPercent': 0.45, 'rescaleHeight': False, 'trialN': 19, 'loaded': True, 'loadedTime': 4903.5, 'positionName': 'LEFT', 'positionCoords': [203.4, 154.5], 'bid': 6.59}, {'imgObject': {}, 'id': 'ice cream sundae 002', 'src': '/static/foodstim60/ice cream sundae 002.jpg', 'key': 'i', 'origWidth': 409, 'origHeight': 409, 'width': 409, 'height': 409, 'widthPercent': 0.45, 'rescaleHeight': False, 'trialN': 19, 'loaded': True, 'loadedTime': 4720.800000011921, 'positionName': 'RIGHT', 'positionCoords': [665.6, 155.5], 'bid': 5.0600000000000005}]",37653.200000047684,1669837959317,salad w chicken,ice cream sundae 002,6.59,5.0600000000000005,-1.5299999999999994,salad w chicken,1281.699999988079,1283,1282.699999988079,True,u,39442.90000003576,1789.699999988079,1669837961107,1790,HRV,HRV_0274,2022-11-30 19:56:45
20,"[{'imgObject': {}, 'id': 'edamame', 'src': '/static/foodstim60/edamame.jpg', 'key': 'u', 'origWidth': 409, 'origHeight': 410, 'width': 409, 'height': 410, 'widthPercent': 0.45, 'rescaleHeight': False, 'trialN': 20, 'loaded': True, 'loadedTime': 4907.300000011921, 'positionName': 'LEFT', 'positionCoords': [205.4, 155], 'bid': 4.51}, {'imgObject': {}, 'id': 'roastedpotatoes', 'src': '/static/foodstim60/roastedpotatoes.jpg', 'key': 'i', 'origWidth': 409, 'origHeight': 410, 'width': 409, 'height': 410, 'widthPercent': 0.45, 'rescaleHeight': False, 'trialN': 20, 'loaded': True, 'loadedTime': 4912.600000023842, 'positionName': 'RIGHT', 'positionCoords': [665.6, 155], 'bid': 1.93}]",39443.60000002384,1669837961108,edamame,roastedpotatoes,4.51,1.93,-2.58,edamame,1105.6000000238419,1106,1106.0,True,u,41061.30000001192,1617.699999988079,1669837962725,1617,HRV,HRV_0274,2022-11-30 19:56:45
21,"[{'imgObject': {}, 'id': 'lox', 'src': '/static/foodstim60/lox.jpg', 'key': 'u', 'origWidth': 410, 'origHeight': 411, 'width': 410, 'height': 411, 'widthPercent': 0.45, 'rescaleHeight': False, 'trialN': 21, 'loaded': True, 'loadedTime': 4921.300000011921, 'positionName': 'LEFT', 'positionCoords': [204.4, 154.5], 'bid': 5.64}, {'imgObject': {}, 'id': 'hotdog w must', 'src': '/static/foodstim60/hotdog w must.jpg', 'key': 'i', 'origWidth': 409, 'origHeight': 409, 'width': 409, 'height': 409, 'widthPercent': 0.45, 'rescaleHeight': False, 'trialN': 21, 'loaded': True, 'loadedTime': 4933.300000011921, 'positionName': 'RIGHT', 'positionCoords': [665.6, 155.5], 'bid': 6.15}]",41061.90000003576,1669837962726,lox,hotdog w must,5.64,6.15,0.5100000000000007,hotdog w must,2070.5,2072,2071.699999988079,True,i,43641.30000001192,2579.399999976158,1669837965305,2579,HRV,HRV_0274,2022-11-30 19:56:45
22,"[{'imgObject': {}, 'id': 'eggs', 'src': '/static/foodstim60/eggs.jpg', 'key': 'u', 'origWidth': 409, 'origHeight': 409, 'width': 409, 'height': 409, 'widthPercent': 0.45, 'rescaleHeight': False, 'trialN': 22, 'loaded': True, 'loadedTime': 4319.800000011921, 'positionName': 'LEFT', 'positionCoords': [205.4, 155.5], 'bid': 4.93}, {'imgObject': {}, 'id': 'hotdog w must', 'src': '/static/foodstim60/hotdog w must.jpg', 'key': 'i', 'origWidth': 409, 'origHeight': 409, 'width': 409, 'height': 409, 'widthPercent': 0.45, 'rescaleHeight': False, 'trialN': 22, 'loaded': True, 'loadedTime': 4931.800000011921, 'positionName': 'RIGHT', 'positionCoords': [665.6, 155.5], 'bid': 6.15}]",43641.90000003576,1669837965306,eggs,hotdog w must,4.93,6.15,1.2200000000000006,eggs,614.5999999642372,615,615.0,True,u,44766.200000047684,1124.300000011921,1669837966430,1124,HRV,HRV_0274,2022-11-30 19:56:45
23,"[{'imgObject': {}, 'id': 'raisin bran w milk', 'src': '/static/foodstim60/raisin bran w milk.jpg', 'key': 'u', 'origWidth': 411, 'origHeight': 411, 'width': 411, 'height': 411, 'widthPercent': 0.45, 'rescaleHeight': False, 'trialN': 23, 'loaded': True, 'loadedTime': 4247.100000023842, 'positionName': 'LEFT', 'positionCoords': [203.4, 154.5], 'bid': 6.95}, {'imgObject': {}, 'id': 'eggsalad', 'src': '/static/foodstim60/eggsalad.jpg', 'key': 'i', 'origWidth': 410, 'origHeight': 409, 'width': 410, 'height': 409, 'widthPercent': 0.45, 'rescaleHeight': False, 'trialN': 23, 'loaded': True, 'loadedTime': 4944.5, 'positionName': 'RIGHT', 'positionCoords': [665.6, 155.5], 'bid': 3.37}]",44766.5,1669837966431,raisin bran w milk,eggsalad,6.95,3.37,-3.58,raisin bran w milk,1233.5,1234,1234.7000000476837,True,u,46506.80000001192,1740.300000011921,1669837968171,1740,HRV,HRV_0274,2022-11-30 19:56:45
24,"[{'imgObject': {}, 'id': 'veggieswithdip', 'src': '/static/foodstim60/veggieswithdip.jpg', 'key': 'u', 'origWidth': 409, 'origHeight': 409, 'width': 409, 'height': 409, 'widthPercent': 0.45, 'rescaleHeight': False, 'trialN': 24, 'loaded': True, 'loadedTime': 4948.200000047684, 'positionName': 'LEFT', 'positionCoords': [205.4, 155.5], 'bid': 9.87}, {'imgObject': {}, 'id': 'turkeysandwich', 'src': '/static/foodstim60/turkeysandwich.jpg', 'key': 'i', 'origWidth': 409, 'origHeight': 409, 'width': 409, 'height': 409, 'widthPercent': 0.45, 'rescaleHeight': False, 'trialN': 24, 'loaded': True, 'loadedTime': 4265.400000035763, 'positionName': 'RIGHT', 'positionCoords': [665.6, 155.5], 'bid': 5.8100000000000005}]",46507.200000047684,1669837968171,veggieswithdip,turkeysandwich,9.87,5.8100000000000005,-4.059999999999999,veggieswithdip,995.7999999523163,997,996.5999999642372,True,u,48007.90000003576,1500.699999988079,1669837969672,1501,HRV,HRV_0274,2022-11-30 19:56:45
25,"[{'imgObject': {}, 'id': 'bagel and cc', 'src': '/static/foodstim60/bagel and cc.jpg', 'key': 'u', 'origWidth': 410, 'origHeight': 410, 'width': 410, 'height': 410, 'widthPercent': 0.45, 'rescaleHeight': False, 'trialN': 25, 'loaded': True, 'loadedTime': 4949.800000011921, 'positionName': 'LEFT', 'positionCoords': [204.4, 155], 'bid': 3.87}, {'imgObject': {}, 'id': 'Tribe humus pita', 'src': '/static/foodstim60/Tribe humus pita.jpg', 'key': 'i', 'origWidth': 411, 'origHeight': 411, 'width': 411, 'height': 411, 'widthPercent': 0.45, 'rescaleHeight': False, 'trialN': 25, 'loaded': True, 'loadedTime': 4315.700000047684, 'positionName': 'RIGHT', 'positionCoords': [665.6, 154.5], 'bid': 3.56}]",48008.200000047684,1669837969672,bagel and cc,Tribe humus pita,3.87,3.56,-0.31000000000000005,Tribe humus pita,997.5,999,998.7999999523163,True,i,49512.90000003576,1504.699999988079,1669837971177,1505,HRV,HRV_0274,2022-11-30 19:56:45
26,"[{'imgObject': {}, 'id': 'shreddedwheatwithmilk', 'src': '/static/foodstim60/shreddedwheatwithmilk.jpg', 'key': 'u', 'origWidth': 410, 'origHeight': 410, 'width': 410, 'height': 410, 'widthPercent': 0.45, 'rescaleHeight': False, 'trialN': 26, 'loaded': True, 'loadedTime': 4298.900000035763, 'positionName': 'LEFT', 'positionCoords': [204.4, 155], 'bid': 6.42}, {'imgObject': {}, 'id': 'cherries', 'src': '/static/foodstim60/cherries.jpg', 'key': 'i', 'origWidth': 410, 'origHeight': 411, 'width': 410, 'height': 411, 'widthPercent': 0.45, 'rescaleHeight': False, 'trialN': 26, 'loaded': True, 'loadedTime': 4960.200000047684, 'positionName': 'RIGHT', 'positionCoords': [665.6, 154.5], 'bid': 8.56}]",49513.10000002384,1669837971177,shreddedwheatwithmilk,cherries,6.42,8.56,2.1400000000000006,cherries,755.3000000119209,757,756.5,True,i,50782.30000001192,1269.199999988079,1669837972447,1270,HRV,HRV_0274,2022-11-30 19:56:45
27,"[{'imgObject': {}, 'id': 'mac & cheese', 'src': '/static/foodstim60/mac & cheese.jpg', 'key': 'u', 'origWidth': 410, 'origHeight': 410, 'width': 410, 'height': 410, 'widthPercent': 0.45, 'rescaleHeight': False, 'trialN': 27, 'loaded': True, 'loadedTime': 4898, 'positionName': 'LEFT', 'positionCoords': [204.4, 155], 'bid': 9.43}, {'imgObject': {}, 'id': 'grilled chicken strips', 'src': '/static/foodstim60/grilled chicken strips.jpg', 'key': 'i', 'origWidth': 410, 'origHeight': 411, 'width': 410, 'height': 411, 'widthPercent': 0.45, 'rescaleHeight': False, 'trialN': 27, 'loaded': True, 'loadedTime': 4779.5, 'positionName': 'RIGHT', 'positionCoords': [665.6, 154.5], 'bid': 5.0600000000000005}]",50783.0,1669837972447,mac & cheese,grilled chicken strips,9.43,5.0600000000000005,-4.369999999999999,mac & cheese,673.4000000357628,675,674.6000000238419,True,u,51964.0,1181.0,1669837973628,1181,HRV,HRV_0274,2022-11-30 19:56:45
28,"[{'imgObject': {}, 'id': 'ice cream sundae 002', 'src': '/static/foodstim60/ice cream sundae 002.jpg', 'key': 'u', 'origWidth': 409, 'origHeight': 409, 'width': 409, 'height': 409, 'widthPercent': 0.45, 'rescaleHeight': False, 'trialN': 28, 'loaded': True, 'loadedTime': 4722.200000047684, 'positionName': 'LEFT', 'positionCoords': [205.4, 155.5], 'bid': 5.0600000000000005}, {'imgObject': {}, 'id': 'hotdog w must', 'src': '/static/foodstim60/hotdog w must.jpg', 'key': 'i', 'origWidth': 409, 'origHeight': 409, 'width': 409, 'height': 409, 'widthPercent': 0.45, 'rescaleHeight': False, 'trialN': 28, 'loaded': True, 'loadedTime': 4938.800000011921, 'positionName': 'RIGHT', 'positionCoords': [665.6, 155.5], 'bid': 6.15}]",51964.700000047684,1669837973629,ice cream sundae 002,hotdog w must,5.0600000000000005,6.15,1.0899999999999999,hotdog w must,838.0999999642372,839,839.3999999761581,True,i,53322.5,1357.7999999523163,1669837974987,1358,HRV,HRV_0274,2022-11-30 19:56:45
29,"[{'imgObject': {}, 'id': 'omelette', 'src': '/static/foodstim60/omelette.jpg', 'key': 'u', 'origWidth': 410, 'origHeight': 409, 'width': 410, 'height': 409, 'widthPercent': 0.45, 'rescaleHeight': False, 'trialN': 29, 'loaded': True, 'loadedTime': 4283.300000011921, 'positionName': 'LEFT', 'positionCoords': [204.4, 155.5], 'bid': 4.4}, {'imgObject': {}, 'id': 'cantaloupe', 'src': '/static/foodstim60/cantaloupe.jpg', 'key': 'i', 'origWidth': 409, 'origHeight': 409, 'width': 409, 'height': 409, 'widthPercent': 0.45, 'rescaleHeight': False, 'trialN': 29, 'loaded': True, 'loadedTime': 4964.400000035763, 'positionName': 'RIGHT', 'positionCoords': [665.6, 155.5], 'bid': 1.9}]",53322.80000001192,1669837974987,omelette,cantaloupe,4.4,1.9,-2.5000000000000004,omelette,647.0,647,647.3000000119209,True,u,54482.40000003576,1159.6000000238419,1669837976147,1160,HRV,HRV_0274,2022-11-30 19:56:45
30,"[{'imgObject': {}, 'id': 'edamame', 'src': '/static/foodstim60/edamame.jpg', 'key': 'u', 'origWidth': 409, 'origHeight': 410, 'width': 409, 'height': 410, 'widthPercent': 0.45, 'rescaleHeight': False, 'trialN': 30, 'loaded': True, 'loadedTime': 4911.700000047684, 'positionName': 'LEFT', 'positionCoords': [205.4, 155], 'bid': 4.51}, {'imgObject': {}, 'id': 'blackbeanswithrice', 'src': '/static/foodstim60/blackbeanswithrice.jpg', 'key': 'i', 'origWidth': 410, 'origHeight': 410, 'width': 410, 'height': 410, 'widthPercent': 0.45, 'rescaleHeight': False, 'trialN': 30, 'loaded': True, 'loadedTime': 4984.200000047684, 'positionName': 'RIGHT', 'positionCoords': [665.6, 155], 'bid': 4.73}]",54483.700000047684,1669837976148,edamame,blackbeanswithrice,4.51,4.73,0.22000000000000064,blackbeanswithrice,1785.8999999761581,1786,1786.5999999642372,True,i,56785.90000003576,2302.199999988079,1669837978450,2302,HRV,HRV_0274,2022-11-30 19:56:45
31,"[{'imgObject': {}, 'id': 'strawberries', 'src': '/static/foodstim60/strawberries.jpg', 'key': 'u', 'origWidth': 410, 'origHeight': 410, 'width': 410, 'height': 410, 'widthPercent': 0.45, 'rescaleHeight': False, 'trialN': 31, 'loaded': True, 'loadedTime': 4989.100000023842, 'positionName': 'LEFT', 'positionCoords': [204.4, 155], 'bid': 8.96}, {'imgObject': {}, 'id': 'popsicles', 'src': '/static/foodstim60/popsicles.jpg', 'key': 'i', 'origWidth': 410, 'origHeight': 410, 'width': 410, 'height': 410, 'widthPercent': 0.45, 'rescaleHeight': False, 'trialN': 31, 'loaded': True, 'loadedTime': 4286, 'positionName': 'RIGHT', 'positionCoords': [665.6, 155], 'bid': 4.96}]",56786.30000001192,1669837978451,strawberries,popsicles,8.96,4.96,-4.000000000000001,strawberries,645.4000000357628,646,646.8000000119209,True,u,57946.80000001192,1160.5,1669837979611,1160,HRV,HRV_0274,2022-11-30 19:56:45
32,"[{'imgObject': {}, 'id': 'strawberries', 'src': '/static/foodstim60/strawberries.jpg', 'key': 'u', 'origWidth': 410, 'origHeight': 410, 'width': 410, 'height': 410, 'widthPercent': 0.45, 'rescaleHeight': False, 'trialN': 32, 'loaded': True, 'loadedTime': 4987.600000023842, 'positionName': 'LEFT', 'positionCoords': [204.4, 155], 'bid': 8.96}, {'imgObject': {}, 'id': 'tacos', 'src': '/static/foodstim60/tacos.jpg', 'key': 'i', 'origWidth': 411, 'origHeight': 411, 'width': 411, 'height': 411, 'widthPercent': 0.45, 'rescaleHeight': False, 'trialN': 32, 'loaded': True, 'loadedTime': 5009.800000011921, 'positionName': 'RIGHT', 'positionCoords': [665.6, 154.5], 'bid': 6.75}]",57947.80000001192,1669837979612,strawberries,tacos,8.96,6.75,-2.210000000000001,strawberries,888.6999999880791,890,889.6999999880791,True,u,59349.80000001192,1402.0,1669837981014,1402,HRV,HRV_0274,2022-11-30 19:56:45
33,"[{'imgObject': {}, 'id': 'sweetpotato', 'src': '/static/foodstim60/sweetpotato.jpg', 'key': 'u', 'origWidth': 410, 'origHeight': 410, 'width': 410, 'height': 410, 'widthPercent': 0.45, 'rescaleHeight': False, 'trialN': 33, 'loaded': True, 'loadedTime': 4662.700000047684, 'positionName': 'LEFT', 'positionCoords': [204.4, 155], 'bid': 1.96}, {'imgObject': {}, 'id': 'granola w milk', 'src': '/static/foodstim60/granola w milk.jpg', 'key': 'i', 'origWidth': 410, 'origHeight': 410, 'width': 410, 'height': 410, 'widthPercent': 0.45, 'rescaleHeight': False, 'trialN': 33, 'loaded': True, 'loadedTime': 5012.5, 'positionName': 'RIGHT', 'positionCoords': [665.6, 155], 'bid': 6.28}]",59350.10000002384,1669837981015,sweetpotato,granola w milk,1.96,6.28,4.32,granola w milk,819.0,819,819.5,True,i,60687.0,1336.8999999761581,1669837982351,1336,HRV,HRV_0274,2022-11-30 19:56:45
34,"[{'imgObject': {}, 'id': 'Tribe humus pita', 'src': '/static/foodstim60/Tribe humus pita.jpg', 'key': 'u', 'origWidth': 411, 'origHeight': 411, 'width': 411, 'height': 411, 'widthPercent': 0.45, 'rescaleHeight': False, 'trialN': 34, 'loaded': True, 'loadedTime': 4317.300000011921, 'positionName': 'LEFT', 'positionCoords': [203.4, 154.5], 'bid': 3.56}, {'imgObject': {}, 'id': 'bagel plain', 'src': '/static/foodstim60/bagel plain.jpg', 'key': 'i', 'origWidth': 410, 'origHeight': 410, 'width': 410, 'height': 410, 'widthPercent': 0.45, 'rescaleHeight': False, 'trialN': 34, 'loaded': True, 'loadedTime': 5018.100000023842, 'positionName': 'RIGHT', 'positionCoords': [665.6, 155], 'bid': 3.53}]",60687.30000001192,1669837982352,Tribe humus pita,bagel plain,3.56,3.53,-0.03000000000000025,Tribe humus pita,935.6999999880791,937,937.0,True,u,62138.30000001192,1451.0,1669837983803,1451,HRV,HRV_0274,2022-11-30 19:56:45
35,"[{'imgObject': {}, 'id': 'fruitsalad', 'src': '/static/foodstim60/fruitsalad.jpg', 'key': 'u', 'origWidth': 410, 'origHeight': 410, 'width': 410, 'height': 410, 'widthPercent': 0.45, 'rescaleHeight': False, 'trialN': 35, 'loaded': True, 'loadedTime': 5022.600000023842, 'positionName': 'LEFT', 'positionCoords': [204.4, 155], 'bid': 7.79}, {'imgObject': {}, 'id': 'strawberries', 'src': '/static/foodstim60/strawberries.jpg', 'key': 'i', 'origWidth': 410, 'origHeight': 410, 'width': 410, 'height': 410, 'widthPercent': 0.45, 'rescaleHeight': False, 'trialN': 35, 'loaded': True, 'loadedTime': 4989.800000011921, 'positionName': 'RIGHT', 'positionCoords': [665.6, 155], 'bid': 8.96}]",62138.700000047684,1669837983803,fruitsalad,strawberries,7.79,8.96,1.1700000000000008,fruitsalad,955.0,960,959.7999999523163,True,u,63602.30000001192,1463.5999999642372,1669837985267,1464,HRV,HRV_0274,2022-11-30 19:56:45
36,"[{'imgObject': {}, 'id': 'raspberries', 'src': '/static/foodstim60/raspberries.jpg', 'key': 'u', 'origWidth': 411, 'origHeight': 411, 'width': 411, 'height': 411, 'widthPercent': 0.45, 'rescaleHeight': False, 'trialN': 36, 'loaded': True, 'loadedTime': 5029.600000023842, 'positionName': 'LEFT', 'positionCoords': [203.4, 154.5], 'bid': 9.5}, {'imgObject': {}, 'id': 'avocado', 'src': '/static/foodstim60/avocado.jpg', 'key': 'i', 'origWidth': 409, 'origHeight': 409, 'width': 409, 'height': 409, 'widthPercent': 0.45, 'rescaleHeight': False, 'trialN': 36, 'loaded': True, 'loadedTime': 5033.300000011921, 'positionName': 'RIGHT', 'positionCoords': [665.6, 155.5], 'bid': 8.96}]",63602.700000047684,1669837985267,raspberries,avocado,9.5,8.96,-0.5399999999999991,raspberries,956.3999999761581,957,956.8999999761581,True,u,65072.60000002384,1469.8999999761581,1669837986737,1470,HRV,HRV_0274,2022-11-30 19:56:45
37,"[{'imgObject': {}, 'id': 'corn cob', 'src': '/static/foodstim60/corn cob.jpg', 'key': 'u', 'origWidth': 411, 'origHeight': 411, 'width': 411, 'height': 411, 'widthPercent': 0.45, 'rescaleHeight': False, 'trialN': 37, 'loaded': True, 'loadedTime': 5036.800000011921, 'positionName': 'LEFT', 'positionCoords': [203.4, 154.5], 'bid': 8.6}, {'imgObject': {}, 'id': 'mac & cheese', 'src': '/static/foodstim60/mac & cheese.jpg', 'key': 'i', 'origWidth': 410, 'origHeight': 410, 'width': 410, 'height': 410, 'widthPercent': 0.45, 'rescaleHeight': False, 'trialN': 37, 'loaded': True, 'loadedTime': 4895.300000011921, 'positionName': 'RIGHT', 'positionCoords': [665.6, 155], 'bid': 9.43}]",65073.5,1669837986738,corn cob,mac & cheese,8.6,9.43,0.8300000000000001,mac & cheese,601.4000000357628,602,602.3000000119209,True,i,66182.90000003576,1109.4000000357628,1669837987847,1109,HRV,HRV_0274,2022-11-30 19:56:45
38,"[{'imgObject': {}, 'id': 'granola w milk', 'src': '/static/foodstim60/granola w milk.jpg', 'key': 'u', 'origWidth': 410, 'origHeight': 410, 'width': 410, 'height': 410, 'widthPercent': 0.45, 'rescaleHeight': False, 'trialN': 38, 'loaded': True, 'loadedTime': 5012.300000011921, 'positionName': 'LEFT', 'positionCoords': [204.4, 155], 'bid': 6.28}, {'imgObject': {}, 'id': 'steak', 'src': '/static/foodstim60/steak.jpg', 'key': 'i', 'origWidth': 410, 'origHeight': 410, 'width': 410, 'height': 410, 'widthPercent': 0.45, 'rescaleHeight': False, 'trialN': 38, 'loaded': True, 'loadedTime': 4777.700000047684, 'positionName': 'RIGHT', 'positionCoords': [665.6, 155], 'bid': 5.21}]",66183.20000004768,1669837987848,granola w milk,steak,6.28,5.21,-1.0700000000000003,granola w milk,1841.3999999761581,1842,1842.5999999642372,True,u,68542.20000004768,2359.0,1669837990207,2359,HRV,HRV_0274,2022-11-30 19:56:45
39,"[{'imgObject': {}, 'id': 'pear', 'src': '/static/foodstim60/pear.jpg', 'key': 'u', 'origWidth': 411, 'origHeight': 410, 'width': 411, 'height': 410, 'widthPercent': 0.45, 'rescaleHeight': False, 'trialN': 39, 'loaded': True, 'loadedTime': 4605.600000023842, 'positionName': 'LEFT', 'positionCoords': [203.4, 155], 'bid': 8.03}, {'imgObject': {}, 'id': 'fried eggs', 'src': '/static/foodstim60/fried eggs.jpg', 'key': 'i', 'origWidth': 410, 'origHeight': 410, 'width': 410, 'height': 410, 'widthPercent': 0.45, 'rescaleHeight': False, 'trialN': 39, 'loaded': True, 'loadedTime': 4718.400000035763, 'positionName': 'RIGHT', 'positionCoords': [665.6, 155], 'bid': 7.17}]",68543.20000004768,1669837990208,pear,fried eggs,8.03,7.17,-0.8599999999999994,fried eggs,1337.3999999761581,1338,1338.2999999523163,True,i,70391.30000001192,1848.0999999642372,1669837992056,1848,HRV,HRV_0274,2022-11-30 19:56:45
40,"[{'imgObject': {}, 'id': 'hotdog w must', 'src': '/static/foodstim60/hotdog w must.jpg', 'key': 'u', 'origWidth': 409, 'origHeight': 409, 'width': 409, 'height': 409, 'widthPercent': 0.45, 'rescaleHeight': False, 'trialN': 40, 'loaded': True, 'loadedTime': 4938.200000047684, 'positionName': 'LEFT', 'positionCoords': [205.4, 155.5], 'bid': 6.15}, {'imgObject': {}, 'id': 'kiwi', 'src': '/static/foodstim60/kiwi.jpg', 'key': 'i', 'origWidth': 410, 'origHeight': 410, 'width': 410, 'height': 410, 'widthPercent': 0.45, 'rescaleHeight': False, 'trialN': 40, 'loaded': True, 'loadedTime': 5039, 'positionName': 'RIGHT', 'positionCoords': [665.6, 155], 'bid': 8.06}]",70391.80000001192,1669837992056,hotdog w must,kiwi,6.15,8.06,1.9100000000000001,kiwi,2176.800000011921,2178,2178.0,True,i,73071.30000001192,2679.5,1669837994736,2680,HRV,HRV_0274,2022-11-30 19:56:45
41,"[{'imgObject': {}, 'id': 'raisin bran w milk', 'src': '/static/foodstim60/raisin bran w milk.jpg', 'key': 'u', 'origWidth': 411, 'origHeight': 411, 'width': 411, 'height': 411, 'widthPercent': 0.45, 'rescaleHeight': False, 'trialN': 41, 'loaded': True, 'loadedTime': 4249.800000011921, 'positionName': 'LEFT', 'positionCoords': [203.4, 154.5], 'bid': 6.95}, {'imgObject': {}, 'id': 'tacos', 'src': '/static/foodstim60/tacos.jpg', 'key': 'i', 'origWidth': 411, 'origHeight': 411, 'width': 411, 'height': 411, 'widthPercent': 0.45, 'rescaleHeight': False, 'trialN': 41, 'loaded': True, 'loadedTime': 5009.600000023842, 'positionName': 'RIGHT', 'positionCoords': [665.6, 154.5], 'bid': 6.75}]",73071.80000001192,1669837994736,raisin bran w milk,tacos,6.95,6.75,-0.20000000000000018,raisin bran w milk,1086.800000011921,1088,1088.0,True,u,74671.90000003576,1600.1000000238419,1669837996336,1600,HRV,HRV_0274,2022-11-30 19:56:45
42,"[{'imgObject': {}, 'id': 'cherry tomato', 'src': '/static/foodstim60/cherry tomato.jpg', 'key': 'u', 'origWidth': 410, 'origHeight': 410, 'width': 410, 'height': 410, 'widthPercent': 0.45, 'rescaleHeight': False, 'trialN': 42, 'loaded': True, 'loadedTime': 5039.800000011921, 'positionName': 'LEFT', 'positionCoords': [204.4, 155], 'bid': 3.9}, {'imgObject': {}, 'id': 'burrito', 'src': '/static/foodstim60/burrito.jpg', 'key': 'i', 'origWidth': 410, 'origHeight': 410, 'width': 410, 'height': 410, 'widthPercent': 0.45, 'rescaleHeight': False, 'trialN': 42, 'loaded': True, 'loadedTime': 5044.800000011921, 'positionName': 'RIGHT', 'positionCoords': [665.6, 155], 'bid': 7.96}]",74672.70000004768,1669837996337,cherry tomato,burrito,3.9,7.96,4.0600000000000005,burrito,1174.8999999761581,1176,1175.3999999761581,True,i,76363.20000004768,1690.5,1669837998028,1691,HRV,HRV_0274,2022-11-30 19:56:45
43,"[{'imgObject': {}, 'id': 'rigatoni', 'src': '/static/foodstim60/rigatoni.jpg', 'key': 'u', 'origWidth': 411, 'origHeight': 411, 'width': 411, 'height': 411, 'widthPercent': 0.45, 'rescaleHeight': False, 'trialN': 43, 'loaded': True, 'loadedTime': 4313, 'positionName': 'LEFT', 'positionCoords': [203.4, 154.5], 'bid': 2.03}, {'imgObject': {}, 'id': 'mashed potato', 'src': '/static/foodstim60/mashed potato.jpg', 'key': 'i', 'origWidth': 409, 'origHeight': 409, 'width': 409, 'height': 409, 'widthPercent': 0.45, 'rescaleHeight': False, 'trialN': 43, 'loaded': True, 'loadedTime': 5050.5, 'positionName': 'RIGHT', 'positionCoords': [665.6, 155.5], 'bid': 4.17}]",76363.5,1669837998028,rigatoni,mashed potato,2.03,4.17,2.14,mashed potato,1300.0,1301,1300.800000011921,True,i,78176.0,1812.5,1669837999840,1812,HRV,HRV_0274,2022-11-30 19:56:45
44,"[{'imgObject': {}, 'id': 'banana', 'src': '/static/foodstim60/banana.jpg', 'key': 'u', 'origWidth': 410, 'origHeight': 410, 'width': 410, 'height': 410, 'widthPercent': 0.45, 'rescaleHeight': False, 'trialN': 44, 'loaded': True, 'loadedTime': 5055.400000035763, 'positionName': 'LEFT', 'positionCoords': [204.4, 155], 'bid': 4.82}, {'imgObject': {}, 'id': 'blackbeanswithrice', 'src': '/static/foodstim60/blackbeanswithrice.jpg', 'key': 'i', 'origWidth': 410, 'origHeight': 410, 'width': 410, 'height': 410, 'widthPercent': 0.45, 'rescaleHeight': False, 'trialN': 44, 'loaded': True, 'loadedTime': 4966.300000011921, 'positionName': 'RIGHT', 'positionCoords': [665.6, 155], 'bid': 4.73}]",78176.30000001192,1669837999841,banana,blackbeanswithrice,4.82,4.73,-0.08999999999999986,blackbeanswithrice,967.4000000357628,969,968.8000000119209,True,i,79656.90000003576,1480.6000000238419,1669838001321,1480,HRV,HRV_0274,2022-11-30 19:56:45
45,"[{'imgObject': {}, 'id': 'rigatoni', 'src': '/static/foodstim60/rigatoni.jpg', 'key': 'u', 'origWidth': 411, 'origHeight': 411, 'width': 411, 'height': 411, 'widthPercent': 0.45, 'rescaleHeight': False, 'trialN': 45, 'loaded': True, 'loadedTime': 4302.600000023842, 'positionName': 'LEFT', 'positionCoords': [203.4, 154.5], 'bid': 2.03}, {'imgObject': {}, 'id': 'blackbeanswithrice', 'src': '/static/foodstim60/blackbeanswithrice.jpg', 'key': 'i', 'origWidth': 410, 'origHeight': 410, 'width': 410, 'height': 410, 'widthPercent': 0.45, 'rescaleHeight': False, 'trialN': 45, 'loaded': True, 'loadedTime': 4969.600000023842, 'positionName': 'RIGHT', 'positionCoords': [665.6, 155], 'bid': 4.73}]",79657.30000001192,1669838001322,rigatoni,blackbeanswithrice,2.03,4.73,2.7000000000000006,blackbeanswithrice,654.8000000119209,656,656.1999999880791,True,i,80816.10000002384,1158.800000011921,1669838002481,1159,HRV,HRV_0274,2022-11-30 19:56:45
46,"[{'imgObject': {}, 'id': 'strawberries', 'src': '/static/foodstim60/strawberries.jpg', 'key': 'u', 'origWidth': 410, 'origHeight': 410, 'width': 410, 'height': 410, 'widthPercent': 0.45, 'rescaleHeight': False, 'trialN': 46, 'loaded': True, 'loadedTime': 4989.300000011921, 'positionName': 'LEFT', 'positionCoords': [204.4, 155], 'bid': 8.96}, {'imgObject': {}, 'id': 'avocado', 'src': '/static/foodstim60/avocado.jpg', 'key': 'i', 'origWidth': 409, 'origHeight': 409, 'width': 409, 'height': 409, 'widthPercent': 0.45, 'rescaleHeight': False, 'trialN': 46, 'loaded': True, 'loadedTime': 5030.900000035763, 'positionName': 'RIGHT', 'positionCoords': [665.6, 155.5], 'bid': 8.96}]",80817.0,1669838002481,strawberries,avocado,8.96,8.96,0.0,strawberries,723.6000000238419,725,724.9000000357628,True,u,82068.70000004768,1251.7000000476837,1669838003733,1252,HRV,HRV_0274,2022-11-30 19:56:45
47,"[{'imgObject': {}, 'id': 'turkeysandwich', 'src': '/static/foodstim60/turkeysandwich.jpg', 'key': 'u', 'origWidth': 409, 'origHeight': 409, 'width': 409, 'height': 409, 'widthPercent': 0.45, 'rescaleHeight': False, 'trialN': 47, 'loaded': True, 'loadedTime': 4250.800000011921, 'positionName': 'LEFT', 'positionCoords': [205.4, 155.5], 'bid': 5.8100000000000005}, {'imgObject': {}, 'id': 'turkey sandwich', 'src': '/static/foodstim60/turkey sandwich.jpg', 'key': 'i', 'origWidth': 409, 'origHeight': 409, 'width': 409, 'height': 409, 'widthPercent': 0.45, 'rescaleHeight': False, 'trialN': 47, 'loaded': True, 'loadedTime': 4844.400000035763, 'positionName': 'RIGHT', 'positionCoords': [665.6, 155.5], 'bid': 6.73}]",82069.5,1669838003734,turkeysandwich,turkey sandwich,5.8100000000000005,6.73,0.9199999999999999,turkey sandwich,2205.2000000476837,2206,2206.400000035763,True,i,84798.60000002384,2729.100000023842,1669838006463,2729,HRV,HRV_0274,2022-11-30 19:56:45
48,"[{'imgObject': {}, 'id': 'rigatoni and sauce', 'src': '/static/foodstim60/rigatoni and sauce.jpg', 'key': 'u', 'origWidth': 410, 'origHeight': 411, 'width': 410, 'height': 411, 'widthPercent': 0.45, 'rescaleHeight': False, 'trialN': 48, 'loaded': True, 'loadedTime': 5059.900000035763, 'positionName': 'LEFT', 'positionCoords': [204.4, 154.5], 'bid': 3.12}, {'imgObject': {}, 'id': 'edamame', 'src': '/static/foodstim60/edamame.jpg', 'key': 'i', 'origWidth': 409, 'origHeight': 410, 'width': 409, 'height': 410, 'widthPercent': 0.45, 'rescaleHeight': False, 'trialN': 48, 'loaded': True, 'loadedTime': 4910.900000035763, 'positionName': 'RIGHT', 'positionCoords': [665.6, 155], 'bid': 4.51}]",84799.20000004768,1669838006464,rigatoni and sauce,edamame,3.12,4.51,1.3899999999999997,edamame,900.3999999761581,901,901.3999999761581,True,i,86210.90000003576,1411.699999988079,1669838007875,1411,HRV,HRV_0274,2022-11-30 19:56:45
49,"[{'imgObject': {}, 'id': 'hotdog w must', 'src': '/static/foodstim60/hotdog w must.jpg', 'key': 'u', 'origWidth': 409, 'origHeight': 409, 'width': 409, 'height': 409, 'widthPercent': 0.45, 'rescaleHeight': False, 'trialN': 49, 'loaded': True, 'loadedTime': 4933.5, 'positionName': 'LEFT', 'positionCoords': [205.4, 155.5], 'bid': 6.15}, {'imgObject': {}, 'id': 'cantaloupe', 'src': '/static/foodstim60/cantaloupe.jpg', 'key': 'i', 'origWidth': 409, 'origHeight': 409, 'width': 409, 'height': 409, 'widthPercent': 0.45, 'rescaleHeight': False, 'trialN': 49, 'loaded': True, 'loadedTime': 4961.400000035763, 'positionName': 'RIGHT', 'positionCoords': [665.6, 155.5], 'bid': 1.9}]",86211.30000001192,1669838007876,hotdog w must,cantaloupe,6.15,1.9,-4.25,hotdog w must,847.3000000119209,848,848.4000000357628,True,u,87566.30000001192,1355.0,1669838009231,1355,HRV,HRV_0274,2022-11-30 19:56:45
50,"[{'imgObject': {}, 'id': 'eggsalad', 'src': '/static/foodstim60/eggsalad.jpg', 'key': 'u', 'origWidth': 410, 'origHeight': 409, 'width': 410, 'height': 409, 'widthPercent': 0.45, 'rescaleHeight': False, 'trialN': 50, 'loaded': True, 'loadedTime': 4940.700000047684, 'positionName': 'LEFT', 'positionCoords': [204.4, 155.5], 'bid': 3.37}, {'imgObject': {}, 'id': 'burger', 'src': '/static/foodstim60/burger.jpg', 'key': 'i', 'origWidth': 409, 'origHeight': 409, 'width': 409, 'height': 409, 'widthPercent': 0.45, 'rescaleHeight': False, 'trialN': 50, 'loaded': True, 'loadedTime': 4612.300000011921, 'positionName': 'RIGHT', 'positionCoords': [665.6, 155.5], 'bid': 4.7}]",87566.70000004768,1669838009231,eggsalad,burger,3.37,4.7,1.33,burger,705.7999999523163,706,706.0,True,i,88782.60000002384,1215.8999999761581,1669838010447,1216,HRV,HRV_0274,2022-11-30 19:56:45
51,"[{'imgObject': {}, 'id': 'shreddedwheatwithmilk', 'src': '/static/foodstim60/shreddedwheatwithmilk.jpg', 'key': 'u', 'origWidth': 410, 'origHeight': 410, 'width': 410, 'height': 410, 'widthPercent': 0.45, 'rescaleHeight': False, 'trialN': 51, 'loaded': True, 'loadedTime': 4300, 'positionName': 'LEFT', 'positionCoords': [204.4, 155], 'bid': 6.42}, {'imgObject': {}, 'id': 'rigatoni', 'src': '/static/foodstim60/rigatoni.jpg', 'key': 'i', 'origWidth': 411, 'origHeight': 411, 'width': 411, 'height': 411, 'widthPercent': 0.45, 'rescaleHeight': False, 'trialN': 51, 'loaded': True, 'loadedTime': 4304.300000011921, 'positionName': 'RIGHT', 'positionCoords': [665.6, 154.5], 'bid': 2.03}]",88783.20000004768,1669838010448,shreddedwheatwithmilk,rigatoni,6.42,2.03,-4.390000000000001,shreddedwheatwithmilk,671.0,672,672.0999999642372,True,u,89960.90000003576,1177.699999988079,1669838011625,1177,HRV,HRV_0274,2022-11-30 19:56:45
52,"[{'imgObject': {}, 'id': 'cocktailshrimp', 'src': '/static/foodstim60/cocktailshrimp.jpg', 'key': 'u', 'origWidth': 410, 'origHeight': 410, 'width': 410, 'height': 410, 'widthPercent': 0.45, 'rescaleHeight': False, 'trialN': 52, 'loaded': True, 'loadedTime': 4437.700000047684, 'positionName': 'LEFT', 'positionCoords': [204.4, 155], 'bid': 8.32}, {'imgObject': {}, 'id': 'chicken nuggets2', 'src': '/static/foodstim60/chicken nuggets2.jpg', 'key': 'i', 'origWidth': 410, 'origHeight': 409, 'width': 410, 'height': 409, 'widthPercent': 0.45, 'rescaleHeight': False, 'trialN': 52, 'loaded': True, 'loadedTime': 5061.700000047684, 'positionName': 'RIGHT', 'positionCoords': [665.6, 155.5], 'bid': 6.18}]",89961.5,1669838011626,cocktailshrimp,chicken nuggets2,8.32,6.18,-2.1400000000000006,chicken nuggets2,718.3000000119209,719,719.4000000357628,True,i,91193.5,1232.0,1669838012858,1232,HRV,HRV_0274,2022-11-30 19:56:45
53,"[{'imgObject': {}, 'id': 'apple slices', 'src': '/static/foodstim60/apple slices.jpg', 'key': 'u', 'origWidth': 409, 'origHeight': 410, 'width': 409, 'height': 410, 'widthPercent': 0.45, 'rescaleHeight': False, 'trialN': 53, 'loaded': True, 'loadedTime': 4242.900000035763, 'positionName': 'LEFT', 'positionCoords': [205.4, 155], 'bid': 5.59}, {'imgObject': {}, 'id': 'cherry tomato', 'src': '/static/foodstim60/cherry tomato.jpg', 'key': 'i', 'origWidth': 410, 'origHeight': 410, 'width': 410, 'height': 410, 'widthPercent': 0.45, 'rescaleHeight': False, 'trialN': 53, 'loaded': True, 'loadedTime': 5041.700000047684, 'positionName': 'RIGHT', 'positionCoords': [665.6, 155], 'bid': 3.9}]",91193.90000003576,1669838012858,apple slices,cherry tomato,5.59,3.9,-1.69,apple slices,589.8999999761581,592,591.5,True,u,92288.0,1094.0999999642372,1669838013952,1094,HRV,HRV_0274,2022-11-30 19:56:45
54,"[{'imgObject': {}, 'id': 'fruitsalad', 'src': '/static/foodstim60/fruitsalad.jpg', 'key': 'u', 'origWidth': 410, 'origHeight': 410, 'width': 410, 'height': 410, 'widthPercent': 0.45, 'rescaleHeight': False, 'trialN': 54, 'loaded': True, 'loadedTime': 5019.300000011921, 'positionName': 'LEFT', 'positionCoords': [204.4, 155], 'bid': 7.79}, {'imgObject': {}, 'id': 'seaweed', 'src': '/static/foodstim60/seaweed.jpg', 'key': 'i', 'origWidth': 410, 'origHeight': 410, 'width': 410, 'height': 410, 'widthPercent': 0.45, 'rescaleHeight': False, 'trialN': 54, 'loaded': True, 'loadedTime': 5065, 'positionName': 'RIGHT', 'positionCoords': [665.6, 155], 'bid': 8.4}]",92288.20000004768,1669838013953,fruitsalad,seaweed,7.79,8.4,0.6100000000000003,seaweed,2418.399999976158,2419,2419.399999976158,True,i,95219.0,2930.7999999523163,1669838016883,2930,HRV,HRV_0274,2022-11-30 19:56:45
55,"[{'imgObject': {}, 'id': 'granola w milk', 'src': '/static/foodstim60/granola w milk.jpg', 'key': 'u', 'origWidth': 410, 'origHeight': 410, 'width': 410, 'height': 410, 'widthPercent': 0.45, 'rescaleHeight': False, 'trialN': 55, 'loaded': True, 'loadedTime': 5012.400000035763, 'positionName': 'LEFT', 'positionCoords': [204.4, 155], 'bid': 6.28}, {'imgObject': {}, 'id': 'shreddedwheatwithmilk', 'src': '/static/foodstim60/shreddedwheatwithmilk.jpg', 'key': 'i', 'origWidth': 410, 'origHeight': 410, 'width': 410, 'height': 410, 'widthPercent': 0.45, 'rescaleHeight': False, 'trialN': 55, 'loaded': True, 'loadedTime': 4301.800000011921, 'positionName': 'RIGHT', 'positionCoords': [665.6, 155], 'bid': 6.42}]",95219.60000002384,1669838016884,granola w milk,shreddedwheatwithmilk,6.28,6.42,0.13999999999999968,granola w milk,994.1999999880791,995,995.1000000238419,True,u,96737.70000004768,1518.1000000238419,1669838018402,1518,HRV,HRV_0274,2022-11-30 19:56:45
56,"[{'imgObject': {}, 'id': 'cherries', 'src': '/static/foodstim60/cherries.jpg', 'key': 'u', 'origWidth': 410, 'origHeight': 411, 'width': 410, 'height': 411, 'widthPercent': 0.45, 'rescaleHeight': False, 'trialN': 56, 'loaded': True, 'loadedTime': 4960.900000035763, 'positionName': 'LEFT', 'positionCoords': [204.4, 154.5], 'bid': 8.56}, {'imgObject': {}, 'id': 'blackbeanswithrice', 'src': '/static/foodstim60/blackbeanswithrice.jpg', 'key': 'i', 'origWidth': 410, 'origHeight': 410, 'width': 410, 'height': 410, 'widthPercent': 0.45, 'rescaleHeight': False, 'trialN': 56, 'loaded': True, 'loadedTime': 4984.700000047684, 'positionName': 'RIGHT', 'positionCoords': [665.6, 155], 'bid': 4.73}]",96738.40000003576,1669838018403,cherries,blackbeanswithrice,8.56,4.73,-3.83,cherries,699.8999999761581,701,700.6999999880791,True,u,97957.5,1219.0999999642372,1669838019622,1219,HRV,HRV_0274,2022-11-30 19:56:45
57,"[{'imgObject': {}, 'id': 'lox', 'src': '/static/foodstim60/lox.jpg', 'key': 'u', 'origWidth': 410, 'origHeight': 411, 'width': 410, 'height': 411, 'widthPercent': 0.45, 'rescaleHeight': False, 'trialN': 57, 'loaded': True, 'loadedTime': 4924.100000023842, 'positionName': 'LEFT', 'positionCoords': [204.4, 154.5], 'bid': 5.64}, {'imgObject': {}, 'id': 'salad w chicken', 'src': '/static/foodstim60/salad w chicken.jpg', 'key': 'i', 'origWidth': 411, 'origHeight': 411, 'width': 411, 'height': 411, 'widthPercent': 0.45, 'rescaleHeight': False, 'trialN': 57, 'loaded': True, 'loadedTime': 4898.400000035763, 'positionName': 'RIGHT', 'positionCoords': [665.6, 154.5], 'bid': 6.59}]",97957.90000003576,1669838019622,lox,salad w chicken,5.64,6.59,0.9500000000000002,salad w chicken,960.3000000119209,962,961.0999999642372,True,i,99423.80000001192,1465.8999999761581,1669838021088,1466,HRV,HRV_0274,2022-11-30 19:56:45
58,"[{'imgObject': {}, 'id': 'popsicles', 'src': '/static/foodstim60/popsicles.jpg', 'key': 'u', 'origWidth': 410, 'origHeight': 410, 'width': 410, 'height': 410, 'widthPercent': 0.45, 'rescaleHeight': False, 'trialN': 58, 'loaded': True, 'loadedTime': 4290.300000011921, 'positionName': 'LEFT', 'positionCoords': [204.4, 155], 'bid': 4.96}, {'imgObject': {}, 'id': 'rigatoni and sauce', 'src': '/static/foodstim60/rigatoni and sauce.jpg', 'key': 'i', 'origWidth': 410, 'origHeight': 411, 'width': 410, 'height': 411, 'widthPercent': 0.45, 'rescaleHeight': False, 'trialN': 58, 'loaded': True, 'loadedTime': 5060, 'positionName': 'RIGHT', 'positionCoords': [665.6, 154.5], 'bid': 3.12}]",99424.90000003576,1669838021089,popsicles,rigatoni and sauce,4.96,3.12,-1.8399999999999999,rigatoni and sauce,653.8000000119209,656,655.1999999880791,True,i,100589.60000002384,1164.699999988079,1669838022254,1165,HRV,HRV_0274,2022-11-30 19:56:45
59,"[{'imgObject': {}, 'id': 'omelette', 'src': '/static/foodstim60/omelette.jpg', 'key': 'u', 'origWidth': 410, 'origHeight': 409, 'width': 410, 'height': 409, 'widthPercent': 0.45, 'rescaleHeight': False, 'trialN': 59, 'loaded': True, 'loadedTime': 4280.600000023842, 'positionName': 'LEFT', 'positionCoords': [204.4, 155.5], 'bid': 4.4}, {'imgObject': {}, 'id': 'kiwi', 'src': '/static/foodstim60/kiwi.jpg', 'key': 'i', 'origWidth': 410, 'origHeight': 410, 'width': 410, 'height': 410, 'widthPercent': 0.45, 'rescaleHeight': False, 'trialN': 59, 'loaded': True, 'loadedTime': 5039.400000035763, 'positionName': 'RIGHT', 'positionCoords': [665.6, 155], 'bid': 8.06}]",100590.10000002384,1669838022255,omelette,kiwi,4.4,8.06,3.66,kiwi,1402.3999999761581,1403,1403.300000011921,True,i,102509.30000001192,1919.199999988079,1669838024174,1919,HRV,HRV_0274,2022-11-30 19:56:45
60,"[{'imgObject': {}, 'id': 'avocado', 'src': '/static/foodstim60/avocado.jpg', 'key': 'u', 'origWidth': 409, 'origHeight': 409, 'width': 409, 'height': 409, 'widthPercent': 0.45, 'rescaleHeight': False, 'trialN': 60, 'loaded': True, 'loadedTime': 5034, 'positionName': 'LEFT', 'positionCoords': [205.4, 155.5], 'bid': 8.96}, {'imgObject': {}, 'id': 'turkey sandwich', 'src': '/static/foodstim60/turkey sandwich.jpg', 'key': 'i', 'origWidth': 409, 'origHeight': 409, 'width': 409, 'height': 409, 'widthPercent': 0.45, 'rescaleHeight': False, 'trialN': 60, 'loaded': True, 'loadedTime': 4846, 'positionName': 'RIGHT', 'positionCoords': [665.6, 155.5], 'bid': 6.73}]",102510.5,1669838024175,avocado,turkey sandwich,8.96,6.73,-2.2300000000000004,turkey sandwich,944.0,944,944.4000000357628,True,i,103961.80000001192,1451.300000011921,1669838025626,1451,HRV,HRV_0274,2022-11-30 19:56:45
61,"[{'imgObject': {}, 'id': 'bagel and cc', 'src': '/static/foodstim60/bagel and cc.jpg', 'key': 'u', 'origWidth': 410, 'origHeight': 410, 'width': 410, 'height': 410, 'widthPercent': 0.45, 'rescaleHeight': False, 'trialN': 61, 'loaded': True, 'loadedTime': 4953.5, 'positionName': 'LEFT', 'positionCoords': [204.4, 155], 'bid': 3.87}, {'imgObject': {}, 'id': 'steak', 'src': '/static/foodstim60/steak.jpg', 'key': 'i', 'origWidth': 410, 'origHeight': 410, 'width': 410, 'height': 410, 'widthPercent': 0.45, 'rescaleHeight': False, 'trialN': 61, 'loaded': True, 'loadedTime': 4775.600000023842, 'positionName': 'RIGHT', 'positionCoords': [665.6, 155], 'bid': 5.21}]",103962.5,1669838025627,bagel and cc,steak,3.87,5.21,1.3399999999999999,steak,941.8000000119209,943,943.2000000476837,True,i,105419.40000003576,1456.9000000357628,1669838027084,1457,HRV,HRV_0274,2022-11-30 19:56:45
62,"[{'imgObject': {}, 'id': 'baked potato', 'src': '/static/foodstim60/baked potato.jpg', 'key': 'u', 'origWidth': 409, 'origHeight': 410, 'width': 409, 'height': 410, 'widthPercent': 0.45, 'rescaleHeight': False, 'trialN': 62, 'loaded': True, 'loadedTime': 5066, 'positionName': 'LEFT', 'positionCoords': [205.4, 155], 'bid': 3.64}, {'imgObject': {}, 'id': 'hashbrowns', 'src': '/static/foodstim60/hashbrowns.jpg', 'key': 'i', 'origWidth': 411, 'origHeight': 410, 'width': 411, 'height': 410, 'widthPercent': 0.45, 'rescaleHeight': False, 'trialN': 62, 'loaded': True, 'loadedTime': 5068.600000023842, 'positionName': 'RIGHT', 'positionCoords': [665.6, 155], 'bid': 2.81}]",105420.10000002384,1669838027085,baked potato,hashbrowns,3.64,2.81,-0.8300000000000001,baked potato,3235.600000023842,3236,3236.600000023842,True,u,109160.30000001192,3740.199999988079,1669838030825,3740,HRV,HRV_0274,2022-11-30 19:56:45
63,"[{'imgObject': {}, 'id': 'baked potato', 'src': '/static/foodstim60/baked potato.jpg', 'key': 'u', 'origWidth': 409, 'origHeight': 410, 'width': 409, 'height': 410, 'widthPercent': 0.45, 'rescaleHeight': False, 'trialN': 63, 'loaded': True, 'loadedTime': 5067, 'positionName': 'LEFT', 'positionCoords': [205.4, 155], 'bid': 3.64}, {'imgObject': {}, 'id': 'bagel plain', 'src': '/static/foodstim60/bagel plain.jpg', 'key': 'i', 'origWidth': 410, 'origHeight': 410, 'width': 410, 'height': 410, 'widthPercent': 0.45, 'rescaleHeight': False, 'trialN': 63, 'loaded': True, 'loadedTime': 5018.200000047684, 'positionName': 'RIGHT', 'positionCoords': [665.6, 155], 'bid': 3.53}]",109160.60000002384,1669838030825,baked potato,bagel plain,3.64,3.53,-0.11000000000000032,bagel plain,2065.600000023842,2067,2066.699999988079,True,i,111738.70000004768,2578.100000023842,1669838033403,2578,HRV,HRV_0274,2022-11-30 19:56:45
64,"[{'imgObject': {}, 'id': 'fruitsalad', 'src': '/static/foodstim60/fruitsalad.jpg', 'key': 'u', 'origWidth': 410, 'origHeight': 410, 'width': 410, 'height': 410, 'widthPercent': 0.45, 'rescaleHeight': False, 'trialN': 64, 'loaded': True, 'loadedTime': 5021, 'positionName': 'LEFT', 'positionCoords': [204.4, 155], 'bid': 7.79}, {'imgObject': {}, 'id': 'bagel and cc', 'src': '/static/foodstim60/bagel and cc.jpg', 'key': 'i', 'origWidth': 410, 'origHeight': 410, 'width': 410, 'height': 410, 'widthPercent': 0.45, 'rescaleHeight': False, 'trialN': 64, 'loaded': True, 'loadedTime': 4954, 'positionName': 'RIGHT', 'positionCoords': [665.6, 155], 'bid': 3.87}]",111739.5,1669838033404,fruitsalad,bagel and cc,7.79,3.87,-3.92,fruitsalad,924.6000000238419,925,925.1000000238419,True,u,113172.20000004768,1432.7000000476837,1669838034837,1433,HRV,HRV_0274,2022-11-30 19:56:45
65,"[{'imgObject': {}, 'id': 'popsicles', 'src': '/static/foodstim60/popsicles.jpg', 'key': 'u', 'origWidth': 410, 'origHeight': 410, 'width': 410, 'height': 410, 'widthPercent': 0.45, 'rescaleHeight': False, 'trialN': 65, 'loaded': True, 'loadedTime': 4287.700000047684, 'positionName': 'LEFT', 'positionCoords': [204.4, 155], 'bid': 4.96}, {'imgObject': {}, 'id': 'eggs', 'src': '/static/foodstim60/eggs.jpg', 'key': 'i', 'origWidth': 409, 'origHeight': 409, 'width': 409, 'height': 409, 'widthPercent': 0.45, 'rescaleHeight': False, 'trialN': 65, 'loaded': True, 'loadedTime': 4325.800000011921, 'positionName': 'RIGHT', 'positionCoords': [665.6, 155.5], 'bid': 4.93}]",113172.90000003576,1669838034837,popsicles,eggs,4.96,4.93,-0.03000000000000025,eggs,1199.0,1200,1199.800000011921,True,i,114879.80000001192,1706.8999999761581,1669838036544,1707,HRV,HRV_0274,2022-11-30 19:56:45
66,"[{'imgObject': {}, 'id': 'olives', 'src': '/static/foodstim60/olives.jpg', 'key': 'u', 'origWidth': 410, 'origHeight': 410, 'width': 410, 'height': 410, 'widthPercent': 0.45, 'rescaleHeight': False, 'trialN': 66, 'loaded': True, 'loadedTime': 4295.800000011921, 'positionName': 'LEFT', 'positionCoords': [204.4, 155], 'bid': 5}, {'imgObject': {}, 'id': 'yogurt no spoon', 'src': '/static/foodstim60/yogurt no spoon.jpg', 'key': 'i', 'origWidth': 411, 'origHeight': 410, 'width': 411, 'height': 410, 'widthPercent': 0.45, 'rescaleHeight': False, 'trialN': 66, 'loaded': True, 'loadedTime': 4373, 'positionName': 'RIGHT', 'positionCoords': [665.6, 155], 'bid': 9.28}]",114880.80000001192,1669838036545,olives,yogurt no spoon,5.0,9.28,4.279999999999999,yogurt no spoon,659.0,660,660.1000000238419,True,i,116050.20000004768,1169.4000000357628,1669838037715,1170,HRV,HRV_0274,2022-11-30 19:56:45
67,"[{'imgObject': {}, 'id': 'cherries', 'src': '/static/foodstim60/cherries.jpg', 'key': 'u', 'origWidth': 410, 'origHeight': 411, 'width': 410, 'height': 411, 'widthPercent': 0.45, 'rescaleHeight': False, 'trialN': 67, 'loaded': True, 'loadedTime': 4957.700000047684, 'positionName': 'LEFT', 'positionCoords': [204.4, 154.5], 'bid': 8.56}, {'imgObject': {}, 'id': 'chickenfingers', 'src': '/static/foodstim60/chickenfingers.jpg', 'key': 'i', 'origWidth': 410, 'origHeight': 410, 'width': 410, 'height': 410, 'widthPercent': 0.45, 'rescaleHeight': False, 'trialN': 67, 'loaded': True, 'loadedTime': 5070.600000023842, 'positionName': 'RIGHT', 'positionCoords': [665.6, 155], 'bid': 9.82}]",116050.60000002384,1669838037715,cherries,chickenfingers,8.56,9.82,1.2599999999999998,chickenfingers,634.1000000238419,635,634.8999999761581,True,i,117189.90000003576,1139.300000011921,1669838038854,1139,HRV,HRV_0274,2022-11-30 19:56:45
68,"[{'imgObject': {}, 'id': 'omelette', 'src': '/static/foodstim60/omelette.jpg', 'key': 'u', 'origWidth': 410, 'origHeight': 409, 'width': 410, 'height': 409, 'widthPercent': 0.45, 'rescaleHeight': False, 'trialN': 68, 'loaded': True, 'loadedTime': 4284.600000023842, 'positionName': 'LEFT', 'positionCoords': [204.4, 155.5], 'bid': 4.4}, {'imgObject': {}, 'id': 'mashed potato', 'src': '/static/foodstim60/mashed potato.jpg', 'key': 'i', 'origWidth': 409, 'origHeight': 409, 'width': 409, 'height': 409, 'widthPercent': 0.45, 'rescaleHeight': False, 'trialN': 68, 'loaded': True, 'loadedTime': 5050.300000011921, 'positionName': 'RIGHT', 'positionCoords': [665.6, 155.5], 'bid': 4.17}]",117190.10000002384,1669838038855,omelette,mashed potato,4.4,4.17,-0.23000000000000043,omelette,1018.6999999880791,1020,1020.1000000238419,True,u,118717.40000003576,1527.300000011921,1669838040382,1527,HRV,HRV_0274,2022-11-30 19:56:45
69,"[{'imgObject': {}, 'id': 'luckycharms', 'src': '/static/foodstim60/luckycharms.jpg', 'key': 'u', 'origWidth': 410, 'origHeight': 409, 'width': 410, 'height': 409, 'widthPercent': 0.45, 'rescaleHeight': False, 'trialN': 69, 'loaded': True, 'loadedTime': 4838.600000023842, 'positionName': 'LEFT', 'positionCoords': [204.4, 155.5], 'bid': 9.2}, {'imgObject': {}, 'id': 'salmon', 'src': '/static/foodstim60/salmon.jpg', 'key': 'i', 'origWidth': 410, 'origHeight': 409, 'width': 410, 'height': 409, 'widthPercent': 0.45, 'rescaleHeight': False, 'trialN': 69, 'loaded': True, 'loadedTime': 5073.200000047684, 'positionName': 'RIGHT', 'positionCoords': [665.6, 155.5], 'bid': 5}]",118718.70000004768,1669838040383,luckycharms,salmon,9.2,5.0,-4.199999999999999,luckycharms,635.5999999642372,637,636.5,True,u,119872.90000003576,1154.199999988079,1669838041537,1154,HRV,HRV_0274,2022-11-30 19:56:45
70,"[{'imgObject': {}, 'id': 'raspberries', 'src': '/static/foodstim60/raspberries.jpg', 'key': 'u', 'origWidth': 411, 'origHeight': 411, 'width': 411, 'height': 411, 'widthPercent': 0.45, 'rescaleHeight': False, 'trialN': 70, 'loaded': True, 'loadedTime': 5030.800000011921, 'positionName': 'LEFT', 'positionCoords': [203.4, 154.5], 'bid': 9.5}, {'imgObject': {}, 'id': 'fruitsalad', 'src': '/static/foodstim60/fruitsalad.jpg', 'key': 'i', 'origWidth': 410, 'origHeight': 410, 'width': 410, 'height': 410, 'widthPercent': 0.45, 'rescaleHeight': False, 'trialN': 70, 'loaded': True, 'loadedTime': 5021.400000035763, 'positionName': 'RIGHT', 'positionCoords': [665.6, 155], 'bid': 7.79}]",119873.5,1669838041538,raspberries,fruitsalad,9.5,7.79,-1.71,raspberries,611.7000000476837,613,612.9000000357628,True,u,121005.70000004768,1132.2000000476837,1669838042670,1132,HRV,HRV_0274,2022-11-30 19:56:45
71,"[{'imgObject': {}, 'id': 'cheerios', 'src': '/static/foodstim60/cheerios.jpg', 'key': 'u', 'origWidth': 409, 'origHeight': 410, 'width': 409, 'height': 410, 'widthPercent': 0.45, 'rescaleHeight': False, 'trialN': 71, 'loaded': True, 'loadedTime': 4429, 'positionName': 'LEFT', 'positionCoords': [205.4, 155], 'bid': 7.96}, {'imgObject': {}, 'id': 'mashed potato', 'src': '/static/foodstim60/mashed potato.jpg', 'key': 'i', 'origWidth': 409, 'origHeight': 409, 'width': 409, 'height': 409, 'widthPercent': 0.45, 'rescaleHeight': False, 'trialN': 71, 'loaded': True, 'loadedTime': 5047.400000035763, 'positionName': 'RIGHT', 'positionCoords': [665.6, 155.5], 'bid': 4.17}]",121006.10000002384,1669838042671,cheerios,mashed potato,7.96,4.17,-3.79,cheerios,1229.8999999761581,1231,1230.8999999761581,True,u,122760.80000001192,1754.699999988079,1669838044425,1754,HRV,HRV_0274,2022-11-30 19:56:45
72,"[{'imgObject': {}, 'id': 'burrito', 'src': '/static/foodstim60/burrito.jpg', 'key': 'u', 'origWidth': 410, 'origHeight': 410, 'width': 410, 'height': 410, 'widthPercent': 0.45, 'rescaleHeight': False, 'trialN': 72, 'loaded': True, 'loadedTime': 5045.100000023842, 'positionName': 'LEFT', 'positionCoords': [204.4, 155], 'bid': 7.96}, {'imgObject': {}, 'id': 'tacos', 'src': '/static/foodstim60/tacos.jpg', 'key': 'i', 'origWidth': 411, 'origHeight': 411, 'width': 411, 'height': 411, 'widthPercent': 0.45, 'rescaleHeight': False, 'trialN': 72, 'loaded': True, 'loadedTime': 5008.300000011921, 'positionName': 'RIGHT', 'positionCoords': [665.6, 154.5], 'bid': 6.75}]",122761.30000001192,1669838044426,burrito,tacos,7.96,6.75,-1.21,burrito,696.0,697,697.3000000119209,True,u,123973.90000003576,1212.6000000238419,1669838045639,1213,HRV,HRV_0274,2022-11-30 19:56:45
73,"[{'imgObject': {}, 'id': 'bagel and cc', 'src': '/static/foodstim60/bagel and cc.jpg', 'key': 'u', 'origWidth': 410, 'origHeight': 410, 'width': 410, 'height': 410, 'widthPercent': 0.45, 'rescaleHeight': False, 'trialN': 73, 'loaded': True, 'loadedTime': 4955.300000011921, 'positionName': 'LEFT', 'positionCoords': [204.4, 155], 'bid': 3.87}, {'imgObject': {}, 'id': 'baked potato', 'src': '/static/foodstim60/baked potato.jpg', 'key': 'i', 'origWidth': 409, 'origHeight': 410, 'width': 409, 'height': 410, 'widthPercent': 0.45, 'rescaleHeight': False, 'trialN': 73, 'loaded': True, 'loadedTime': 5067.300000011921, 'positionName': 'RIGHT', 'positionCoords': [665.6, 155], 'bid': 3.64}]",123974.60000002384,1669838045639,bagel and cc,baked potato,3.87,3.64,-0.22999999999999998,bagel and cc,1193.6000000238419,1194,1194.0,True,u,125685.90000003576,1711.300000011921,1669838047351,1712,HRV,HRV_0274,2022-11-30 19:56:45
74,"[{'imgObject': {}, 'id': 'grilled chicken strips', 'src': '/static/foodstim60/grilled chicken strips.jpg', 'key': 'u', 'origWidth': 410, 'origHeight': 411, 'width': 410, 'height': 411, 'widthPercent': 0.45, 'rescaleHeight': False, 'trialN': 74, 'loaded': True, 'loadedTime': 4779.100000023842, 'positionName': 'LEFT', 'positionCoords': [204.4, 154.5], 'bid': 5.0600000000000005}, {'imgObject': {}, 'id': 'chicken nuggets2', 'src': '/static/foodstim60/chicken nuggets2.jpg', 'key': 'i', 'origWidth': 410, 'origHeight': 409, 'width': 410, 'height': 409, 'widthPercent': 0.45, 'rescaleHeight': False, 'trialN': 74, 'loaded': True, 'loadedTime': 5060.300000011921, 'positionName': 'RIGHT', 'positionCoords': [665.6, 155.5], 'bid': 6.18}]",125686.60000002384,1669838047351,grilled chicken strips,chicken nuggets2,5.0600000000000005,6.18,1.1199999999999992,chicken nuggets2,554.6000000238419,556,556.1000000238419,True,i,126752.10000002384,1065.5,1669838048417,1066,HRV,HRV_0274,2022-11-30 19:56:45
75,"[{'imgObject': {}, 'id': 'mashed potato', 'src': '/static/foodstim60/mashed potato.jpg', 'key': 'u', 'origWidth': 409, 'origHeight': 409, 'width': 409, 'height': 409, 'widthPercent': 0.45, 'rescaleHeight': False, 'trialN': 75, 'loaded': True, 'loadedTime': 5051.100000023842, 'positionName': 'LEFT', 'positionCoords': [205.4, 155.5], 'bid': 4.17}, {'imgObject': {}, 'id': 'cherry tomato', 'src': '/static/foodstim60/cherry tomato.jpg', 'key': 'i', 'origWidth': 410, 'origHeight': 410, 'width': 410, 'height': 410, 'widthPercent': 0.45, 'rescaleHeight': False, 'trialN': 75, 'loaded': True, 'loadedTime': 5042.400000035763, 'positionName': 'RIGHT', 'positionCoords': [665.6, 155], 'bid': 3.9}]",126752.80000001192,1669838048417,mashed potato,cherry tomato,4.17,3.9,-0.27,mashed potato,579.1000000238419,580,579.5,True,u,127852.60000002384,1099.800000011921,1669838049517,1100,HRV,HRV_0274,2022-11-30 19:56:45
76,"[{'imgObject': {}, 'id': 'bagel plain', 'src': '/static/foodstim60/bagel plain.jpg', 'key': 'u', 'origWidth': 410, 'origHeight': 410, 'width': 410, 'height': 410, 'widthPercent': 0.45, 'rescaleHeight': False, 'trialN': 76, 'loaded': True, 'loadedTime': 5015, 'positionName': 'LEFT', 'positionCoords': [204.4, 155], 'bid': 3.53}, {'imgObject': {}, 'id': 'sweetpotato', 'src': '/static/foodstim60/sweetpotato.jpg', 'key': 'i', 'origWidth': 410, 'origHeight': 410, 'width': 410, 'height': 410, 'widthPercent': 0.45, 'rescaleHeight': False, 'trialN': 76, 'loaded': True, 'loadedTime': 4661, 'positionName': 'RIGHT', 'positionCoords': [665.6, 155], 'bid': 1.96}]",127852.90000003576,1669838049518,bagel plain,sweetpotato,3.53,1.96,-1.5699999999999998,bagel plain,1147.3999999761581,1148,1148.5,True,u,129516.20000004768,1663.300000011921,1669838051181,1663,HRV,HRV_0274,2022-11-30 19:56:45
77,"[{'imgObject': {}, 'id': 'salmon', 'src': '/static/foodstim60/salmon.jpg', 'key': 'u', 'origWidth': 410, 'origHeight': 409, 'width': 410, 'height': 409, 'widthPercent': 0.45, 'rescaleHeight': False, 'trialN': 77, 'loaded': True, 'loadedTime': 5073.300000011921, 'positionName': 'LEFT', 'positionCoords': [204.4, 155.5], 'bid': 5}, {'imgObject': {}, 'id': 'granola w milk', 'src': '/static/foodstim60/granola w milk.jpg', 'key': 'i', 'origWidth': 410, 'origHeight': 410, 'width': 410, 'height': 410, 'widthPercent': 0.45, 'rescaleHeight': False, 'trialN': 77, 'loaded': True, 'loadedTime': 5012.700000047684, 'positionName': 'RIGHT', 'positionCoords': [665.6, 155], 'bid': 6.28}]",129516.30000001192,1669838051181,salmon,granola w milk,5.0,6.28,1.2800000000000002,granola w milk,573.6000000238419,574,574.5,True,i,130605.20000004768,1088.9000000357628,1669838052270,1089,HRV,HRV_0274,2022-11-30 19:56:45
78,"[{'imgObject': {}, 'id': 'sweetpotato', 'src': '/static/foodstim60/sweetpotato.jpg', 'key': 'u', 'origWidth': 410, 'origHeight': 410, 'width': 410, 'height': 410, 'widthPercent': 0.45, 'rescaleHeight': False, 'trialN': 78, 'loaded': True, 'loadedTime': 4662.600000023842, 'positionName': 'LEFT', 'positionCoords': [204.4, 155], 'bid': 1.96}, {'imgObject': {}, 'id': 'cherry tomato', 'src': '/static/foodstim60/cherry tomato.jpg', 'key': 'i', 'origWidth': 410, 'origHeight': 410, 'width': 410, 'height': 410, 'widthPercent': 0.45, 'rescaleHeight': False, 'trialN': 78, 'loaded': True, 'loadedTime': 5043.200000047684, 'positionName': 'RIGHT', 'positionCoords': [665.6, 155], 'bid': 3.9}]",130605.80000001192,1669838052270,sweetpotato,cherry tomato,1.96,3.9,1.94,sweetpotato,1505.699999988079,1508,1507.1000000238419,True,u,132617.40000003576,2011.6000000238419,1669838054282,2012,HRV,HRV_0274,2022-11-30 19:56:45
79,"[{'imgObject': {}, 'id': 'Grapes', 'src': '/static/foodstim60/Grapes.jpg', 'key': 'u', 'origWidth': 411, 'origHeight': 411, 'width': 411, 'height': 411, 'widthPercent': 0.45, 'rescaleHeight': False, 'trialN': 79, 'loaded': True, 'loadedTime': 4279, 'positionName': 'LEFT', 'positionCoords': [203.4, 154.5], 'bid': 4.23}, {'imgObject': {}, 'id': 'omelette', 'src': '/static/foodstim60/omelette.jpg', 'key': 'i', 'origWidth': 410, 'origHeight': 409, 'width': 410, 'height': 409, 'widthPercent': 0.45, 'rescaleHeight': False, 'trialN': 79, 'loaded': True, 'loadedTime': 4283.100000023842, 'positionName': 'RIGHT', 'positionCoords': [665.6, 155.5], 'bid': 4.4}]",132618.10000002384,1669838054283,Grapes,omelette,4.23,4.4,0.16999999999999993,omelette,872.8999999761581,874,874.0,True,i,134009.90000003576,1391.800000011921,1669838055674,1391,HRV,HRV_0274,2022-11-30 19:56:45
80,"[{'imgObject': {}, 'id': 'roastedpotatoes', 'src': '/static/foodstim60/roastedpotatoes.jpg', 'key': 'u', 'origWidth': 409, 'origHeight': 410, 'width': 409, 'height': 410, 'widthPercent': 0.45, 'rescaleHeight': False, 'trialN': 80, 'loaded': True, 'loadedTime': 4915.800000011921, 'positionName': 'LEFT', 'positionCoords': [205.4, 155], 'bid': 1.93}, {'imgObject': {}, 'id': 'cantaloupe', 'src': '/static/foodstim60/cantaloupe.jpg', 'key': 'i', 'origWidth': 409, 'origHeight': 409, 'width': 409, 'height': 409, 'widthPercent': 0.45, 'rescaleHeight': False, 'trialN': 80, 'loaded': True, 'loadedTime': 4965.900000035763, 'positionName': 'RIGHT', 'positionCoords': [665.6, 155.5], 'bid': 1.9}]",134010.40000003576,1669838055675,roastedpotatoes,cantaloupe,1.93,1.9,-0.030000000000000027,roastedpotatoes,1483.5999999642372,1485,1484.5,True,u,136009.30000001192,1998.8999999761581,1669838057674,1999,HRV,HRV_0274,2022-11-30 19:56:45
81,"[{'imgObject': {}, 'id': 'rigatoni and sauce', 'src': '/static/foodstim60/rigatoni and sauce.jpg', 'key': 'u', 'origWidth': 410, 'origHeight': 411, 'width': 410, 'height': 411, 'widthPercent': 0.45, 'rescaleHeight': False, 'trialN': 81, 'loaded': True, 'loadedTime': 5059.800000011921, 'positionName': 'LEFT', 'positionCoords': [204.4, 154.5], 'bid': 3.12}, {'imgObject': {}, 'id': 'cantaloupe', 'src': '/static/foodstim60/cantaloupe.jpg', 'key': 'i', 'origWidth': 409, 'origHeight': 409, 'width': 409, 'height': 409, 'widthPercent': 0.45, 'rescaleHeight': False, 'trialN': 81, 'loaded': True, 'loadedTime': 4964.800000011921, 'positionName': 'RIGHT', 'positionCoords': [665.6, 155.5], 'bid': 1.9}]",136009.60000002384,1669838057674,rigatoni and sauce,cantaloupe,3.12,1.9,-1.2200000000000002,cantaloupe,830.6000000238419,832,831.6000000238419,True,i,137355.5,1345.8999999761581,1669838059020,1346,HRV,HRV_0274,2022-11-30 19:56:45
82,"[{'imgObject': {}, 'id': 'eggs', 'src': '/static/foodstim60/eggs.jpg', 'key': 'u', 'origWidth': 409, 'origHeight': 409, 'width': 409, 'height': 409, 'widthPercent': 0.45, 'rescaleHeight': False, 'trialN': 82, 'loaded': True, 'loadedTime': 4325.5, 'positionName': 'LEFT', 'positionCoords': [205.4, 155.5], 'bid': 4.93}, {'imgObject': {}, 'id': 'Grapes', 'src': '/static/foodstim60/Grapes.jpg', 'key': 'i', 'origWidth': 411, 'origHeight': 411, 'width': 411, 'height': 411, 'widthPercent': 0.45, 'rescaleHeight': False, 'trialN': 82, 'loaded': True, 'loadedTime': 4277.800000011921, 'positionName': 'RIGHT', 'positionCoords': [665.6, 154.5], 'bid': 4.23}]",137355.90000003576,1669838059021,eggs,Grapes,4.93,4.23,-0.6999999999999993,eggs,791.1999999880791,791,791.5999999642372,True,u,138669.10000002384,1313.199999988079,1669838060334,1313,HRV,HRV_0274,2022-11-30 19:56:45
83,"[{'imgObject': {}, 'id': 'eggsalad', 'src': '/static/foodstim60/eggsalad.jpg', 'key': 'u', 'origWidth': 410, 'origHeight': 409, 'width': 410, 'height': 409, 'widthPercent': 0.45, 'rescaleHeight': False, 'trialN': 83, 'loaded': True, 'loadedTime': 4942.100000023842, 'positionName': 'LEFT', 'positionCoords': [204.4, 155.5], 'bid': 3.37}, {'imgObject': {}, 'id': 'mango', 'src': '/static/foodstim60/mango.jpg', 'key': 'i', 'origWidth': 411, 'origHeight': 411, 'width': 411, 'height': 411, 'widthPercent': 0.45, 'rescaleHeight': False, 'trialN': 83, 'loaded': True, 'loadedTime': 4367.200000047684, 'positionName': 'RIGHT', 'positionCoords': [665.6, 154.5], 'bid': 2.84}]",138669.70000004768,1669838060334,eggsalad,mango,3.37,2.84,-0.5300000000000002,eggsalad,1159.7999999523163,1161,1160.699999988079,True,u,140338.90000003576,1669.199999988079,1669838062004,1670,HRV,HRV_0274,2022-11-30 19:56:45
84,"[{'imgObject': {}, 'id': 'cantaloupe', 'src': '/static/foodstim60/cantaloupe.jpg', 'key': 'u', 'origWidth': 409, 'origHeight': 409, 'width': 409, 'height': 409, 'widthPercent': 0.45, 'rescaleHeight': False, 'trialN': 84, 'loaded': True, 'loadedTime': 4962.700000047684, 'positionName': 'LEFT', 'positionCoords': [205.4, 155.5], 'bid': 1.9}, {'imgObject': {}, 'id': 'sweetpotato', 'src': '/static/foodstim60/sweetpotato.jpg', 'key': 'i', 'origWidth': 410, 'origHeight': 410, 'width': 410, 'height': 410, 'widthPercent': 0.45, 'rescaleHeight': False, 'trialN': 84, 'loaded': True, 'loadedTime': 4662.200000047684, 'positionName': 'RIGHT', 'positionCoords': [665.6, 155], 'bid': 1.96}]",140339.10000002384,1669838062004,cantaloupe,sweetpotato,1.9,1.96,0.06000000000000005,sweetpotato,1431.300000011921,1433,1433.0,True,i,142288.90000003576,1949.800000011921,1669838063954,1950,HRV,HRV_0274,2022-11-30 19:56:45
85,"[{'imgObject': {}, 'id': 'mac & cheese', 'src': '/static/foodstim60/mac & cheese.jpg', 'key': 'u', 'origWidth': 410, 'origHeight': 410, 'width': 410, 'height': 410, 'widthPercent': 0.45, 'rescaleHeight': False, 'trialN': 85, 'loaded': True, 'loadedTime': 4895.800000011921, 'positionName': 'LEFT', 'positionCoords': [204.4, 155], 'bid': 9.43}, {'imgObject': {}, 'id': 'yogurt no spoon', 'src': '/static/foodstim60/yogurt no spoon.jpg', 'key': 'i', 'origWidth': 411, 'origHeight': 410, 'width': 411, 'height': 410, 'widthPercent': 0.45, 'rescaleHeight': False, 'trialN': 85, 'loaded': True, 'loadedTime': 4370.600000023842, 'positionName': 'RIGHT', 'positionCoords': [665.6, 155], 'bid': 9.28}]",142289.40000003576,1669838063954,mac & cheese,yogurt no spoon,9.43,9.28,-0.15000000000000036,yogurt no spoon,681.6999999880791,683,683.0,True,i,143480.80000001192,1191.3999999761581,1669838065145,1191,HRV,HRV_0274,2022-11-30 19:56:45
86,"[{'imgObject': {}, 'id': 'kiwi', 'src': '/static/foodstim60/kiwi.jpg', 'key': 'u', 'origWidth': 410, 'origHeight': 410, 'width': 410, 'height': 410, 'widthPercent': 0.45, 'rescaleHeight': False, 'trialN': 86, 'loaded': True, 'loadedTime': 5037.100000023842, 'positionName': 'LEFT', 'positionCoords': [204.4, 155], 'bid': 8.06}, {'imgObject': {}, 'id': 'seaweed', 'src': '/static/foodstim60/seaweed.jpg', 'key': 'i', 'origWidth': 410, 'origHeight': 410, 'width': 410, 'height': 410, 'widthPercent': 0.45, 'rescaleHeight': False, 'trialN': 86, 'loaded': True, 'loadedTime': 5063.400000035763, 'positionName': 'RIGHT', 'positionCoords': [665.6, 155], 'bid': 8.4}]",143481.90000003576,1669838065147,kiwi,seaweed,8.06,8.4,0.33999999999999986,kiwi,1438.3999999761581,1439,1439.3999999761581,True,u,145433.20000004768,1951.300000011921,1669838067098,1951,HRV,HRV_0274,2022-11-30 19:56:45
87,"[{'imgObject': {}, 'id': 'turkey sandwich', 'src': '/static/foodstim60/turkey sandwich.jpg', 'key': 'u', 'origWidth': 409, 'origHeight': 409, 'width': 409, 'height': 409, 'widthPercent': 0.45, 'rescaleHeight': False, 'trialN': 87, 'loaded': True, 'loadedTime': 4846.700000047684, 'positionName': 'LEFT', 'positionCoords': [205.4, 155.5], 'bid': 6.73}, {'imgObject': {}, 'id': 'shreddedwheatwithmilk', 'src': '/static/foodstim60/shreddedwheatwithmilk.jpg', 'key': 'i', 'origWidth': 410, 'origHeight': 410, 'width': 410, 'height': 410, 'widthPercent': 0.45, 'rescaleHeight': False, 'trialN': 87, 'loaded': True, 'loadedTime': 4300.900000035763, 'positionName': 'RIGHT', 'positionCoords': [665.6, 155], 'bid': 6.42}]",145434.10000002384,1669838067099,turkey sandwich,shreddedwheatwithmilk,6.73,6.42,-0.3100000000000005,turkey sandwich,816.6999999880791,818,818.0,True,u,146762.40000003576,1328.300000011921,1669838068427,1328,HRV,HRV_0274,2022-11-30 19:56:45
88,"[{'imgObject': {}, 'id': 'eggsalad', 'src': '/static/foodstim60/eggsalad.jpg', 'key': 'u', 'origWidth': 410, 'origHeight': 409, 'width': 410, 'height': 409, 'widthPercent': 0.45, 'rescaleHeight': False, 'trialN': 88, 'loaded': True, 'loadedTime': 4939, 'positionName': 'LEFT', 'positionCoords': [204.4, 155.5], 'bid': 3.37}, {'imgObject': {}, 'id': 'roastedpotatoes', 'src': '/static/foodstim60/roastedpotatoes.jpg', 'key': 'i', 'origWidth': 409, 'origHeight': 410, 'width': 409, 'height': 410, 'widthPercent': 0.45, 'rescaleHeight': False, 'trialN': 88, 'loaded': True, 'loadedTime': 4913.900000035763, 'positionName': 'RIGHT', 'positionCoords': [665.6, 155], 'bid': 1.93}]",146762.80000001192,1669838068427,eggsalad,roastedpotatoes,3.37,1.93,-1.4400000000000002,eggsalad,1994.0,1996,1995.199999988079,True,u,149264.70000004768,2501.900000035763,1669838070929,2502,HRV,HRV_0274,2022-11-30 19:56:45
89,"[{'imgObject': {}, 'id': 'blueberries', 'src': '/static/foodstim60/blueberries.jpg', 'key': 'u', 'origWidth': 411, 'origHeight': 411, 'width': 411, 'height': 411, 'widthPercent': 0.45, 'rescaleHeight': False, 'trialN': 89, 'loaded': True, 'loadedTime': 4549.5, 'positionName': 'LEFT', 'positionCoords': [203.4, 154.5], 'bid': 9.37}, {'imgObject': {}, 'id': 'mac & cheese', 'src': '/static/foodstim60/mac & cheese.jpg', 'key': 'i', 'origWidth': 410, 'origHeight': 410, 'width': 410, 'height': 410, 'widthPercent': 0.45, 'rescaleHeight': False, 'trialN': 89, 'loaded': True, 'loadedTime': 4898.300000011921, 'positionName': 'RIGHT', 'positionCoords': [665.6, 155], 'bid': 9.43}]",149265.20000004768,1669838070930,blueberries,mac & cheese,9.37,9.43,0.0600000000000005,mac & cheese,1039.3999999761581,1041,1040.699999988079,True,i,150810.20000004768,1545.0,1669838072475,1545,HRV,HRV_0274,2022-11-30 19:56:45
90,"[{'imgObject': {}, 'id': 'froot loops w milk', 'src': '/static/foodstim60/froot loops w milk.jpg', 'key': 'u', 'origWidth': 410, 'origHeight': 410, 'width': 410, 'height': 410, 'widthPercent': 0.45, 'rescaleHeight': False, 'trialN': 90, 'loaded': True, 'loadedTime': 4543.5, 'positionName': 'LEFT', 'positionCoords': [204.4, 155], 'bid': 7.54}, {'imgObject': {}, 'id': 'baked potato', 'src': '/static/foodstim60/baked potato.jpg', 'key': 'i', 'origWidth': 409, 'origHeight': 410, 'width': 409, 'height': 410, 'widthPercent': 0.45, 'rescaleHeight': False, 'trialN': 90, 'loaded': True, 'loadedTime': 5067.200000047684, 'positionName': 'RIGHT', 'positionCoords': [665.6, 155], 'bid': 3.64}]",153753.10000002384,1669838075418,froot loops w milk,baked potato,7.54,3.64,-3.9,froot loops w milk,1150.0,1151,1151.3999999761581,True,u,155413.60000002384,1660.5,1669838077078,1660,HRV,HRV_0274,2022-11-30 19:56:45
91,"[{'imgObject': {}, 'id': 'edamame', 'src': '/static/foodstim60/edamame.jpg', 'key': 'u', 'origWidth': 409, 'origHeight': 410, 'width': 409, 'height': 410, 'widthPercent': 0.45, 'rescaleHeight': False, 'trialN': 91, 'loaded': True, 'loadedTime': 4906.800000011921, 'positionName': 'LEFT', 'positionCoords': [205.4, 155], 'bid': 4.51}, {'imgObject': {}, 'id': 'salmon', 'src': '/static/foodstim60/salmon.jpg', 'key': 'i', 'origWidth': 410, 'origHeight': 409, 'width': 410, 'height': 409, 'widthPercent': 0.45, 'rescaleHeight': False, 'trialN': 91, 'loaded': True, 'loadedTime': 5072.700000047684, 'positionName': 'RIGHT', 'positionCoords': [665.6, 155.5], 'bid': 5}]",155413.90000003576,1669838077079,edamame,salmon,4.51,5.0,0.4900000000000002,edamame,863.0999999642372,864,864.0999999642372,True,u,156797.40000003576,1383.5,1669838078462,1383,HRV,HRV_0274,2022-11-30 19:56:45
92,"[{'imgObject': {}, 'id': 'sushi w_condiments', 'src': '/static/foodstim60/sushi w_condiments.jpg', 'key': 'u', 'origWidth': 410, 'origHeight': 410, 'width': 410, 'height': 410, 'widthPercent': 0.45, 'rescaleHeight': False, 'trialN': 92, 'loaded': True, 'loadedTime': 5074.900000035763, 'positionName': 'LEFT', 'positionCoords': [204.4, 155], 'bid': 9.65}, {'imgObject': {}, 'id': 'raspberries', 'src': '/static/foodstim60/raspberries.jpg', 'key': 'i', 'origWidth': 411, 'origHeight': 411, 'width': 411, 'height': 411, 'widthPercent': 0.45, 'rescaleHeight': False, 'trialN': 92, 'loaded': True, 'loadedTime': 5028.400000035763, 'positionName': 'RIGHT', 'positionCoords': [665.6, 154.5], 'bid': 9.5}]",156798.0,1669838078463,sushi w_condiments,raspberries,9.65,9.5,-0.15000000000000036,sushi w_condiments,1754.300000011921,1755,1755.5,True,u,159056.10000002384,2258.100000023842,1669838080721,2258,HRV,HRV_0274,2022-11-30 19:56:45
93,"[{'imgObject': {}, 'id': 'hashbrowns', 'src': '/static/foodstim60/hashbrowns.jpg', 'key': 'u', 'origWidth': 411, 'origHeight': 410, 'width': 411, 'height': 410, 'widthPercent': 0.45, 'rescaleHeight': False, 'trialN': 93, 'loaded': True, 'loadedTime': 5068.800000011921, 'positionName': 'LEFT', 'positionCoords': [203.4, 155], 'bid': 2.81}, {'imgObject': {}, 'id': 'rigatoni and sauce', 'src': '/static/foodstim60/rigatoni and sauce.jpg', 'key': 'i', 'origWidth': 410, 'origHeight': 411, 'width': 410, 'height': 411, 'widthPercent': 0.45, 'rescaleHeight': False, 'trialN': 93, 'loaded': True, 'loadedTime': 5057.800000011921, 'positionName': 'RIGHT', 'positionCoords': [665.6, 154.5], 'bid': 3.12}]",159056.60000002384,1669838080721,hashbrowns,rigatoni and sauce,2.81,3.12,0.31000000000000005,rigatoni and sauce,1043.1000000238419,1044,1044.199999988079,True,i,160610.20000004768,1553.6000000238419,1669838082275,1554,HRV,HRV_0274,2022-11-30 19:56:45
94,"[{'imgObject': {}, 'id': 'tacos', 'src': '/static/foodstim60/tacos.jpg', 'key': 'u', 'origWidth': 411, 'origHeight': 411, 'width': 411, 'height': 411, 'widthPercent': 0.45, 'rescaleHeight': False, 'trialN': 94, 'loaded': True, 'loadedTime': 5001.900000035763, 'positionName': 'LEFT', 'positionCoords': [203.4, 154.5], 'bid': 6.75}, {'imgObject': {}, 'id': 'rigatoni and sauce', 'src': '/static/foodstim60/rigatoni and sauce.jpg', 'key': 'i', 'origWidth': 410, 'origHeight': 411, 'width': 410, 'height': 411, 'widthPercent': 0.45, 'rescaleHeight': False, 'trialN': 94, 'loaded': True, 'loadedTime': 5055.700000047684, 'positionName': 'RIGHT', 'positionCoords': [665.6, 154.5], 'bid': 3.12}]",160610.80000001192,1669838082275,tacos,rigatoni and sauce,6.75,3.12,-3.63,tacos,677.0,678,677.9000000357628,True,u,161794.40000003576,1183.6000000238419,1669838083459,1184,HRV,HRV_0274,2022-11-30 19:56:45
95,"[{'imgObject': {}, 'id': 'burrito', 'src': '/static/foodstim60/burrito.jpg', 'key': 'u', 'origWidth': 410, 'origHeight': 410, 'width': 410, 'height': 410, 'widthPercent': 0.45, 'rescaleHeight': False, 'trialN': 95, 'loaded': True, 'loadedTime': 5047.300000011921, 'positionName': 'LEFT', 'positionCoords': [204.4, 155], 'bid': 7.96}, {'imgObject': {}, 'id': 'froot loops w milk', 'src': '/static/foodstim60/froot loops w milk.jpg', 'key': 'i', 'origWidth': 410, 'origHeight': 410, 'width': 410, 'height': 410, 'widthPercent': 0.45, 'rescaleHeight': False, 'trialN': 95, 'loaded': True, 'loadedTime': 4488.900000035763, 'positionName': 'RIGHT', 'positionCoords': [665.6, 155], 'bid': 7.54}]",161794.60000002384,1669838083459,burrito,froot loops w milk,7.96,7.54,-0.41999999999999993,burrito,1038.300000011921,1040,1039.5,True,u,163339.10000002384,1544.5,1669838085004,1545,HRV,HRV_0274,2022-11-30 19:56:45
96,"[{'imgObject': {}, 'id': 'cheerios', 'src': '/static/foodstim60/cheerios.jpg', 'key': 'u', 'origWidth': 409, 'origHeight': 410, 'width': 409, 'height': 410, 'widthPercent': 0.45, 'rescaleHeight': False, 'trialN': 96, 'loaded': True, 'loadedTime': 4429.5, 'positionName': 'LEFT', 'positionCoords': [205.4, 155], 'bid': 7.96}, {'imgObject': {}, 'id': 'burrito', 'src': '/static/foodstim60/burrito.jpg', 'key': 'i', 'origWidth': 410, 'origHeight': 410, 'width': 410, 'height': 410, 'widthPercent': 0.45, 'rescaleHeight': False, 'trialN': 96, 'loaded': True, 'loadedTime': 5043.400000035763, 'positionName': 'RIGHT', 'positionCoords': [665.6, 155], 'bid': 7.96}]",163339.5,1669838085004,cheerios,burrito,7.96,7.96,0.0,burrito,957.1000000238419,958,958.2000000476837,True,i,164819.20000004768,1479.7000000476837,1669838086484,1480,HRV,HRV_0274,2022-11-30 19:56:45
97,"[{'imgObject': {}, 'id': 'froot loops w milk', 'src': '/static/foodstim60/froot loops w milk.jpg', 'key': 'u', 'origWidth': 410, 'origHeight': 410, 'width': 410, 'height': 410, 'widthPercent': 0.45, 'rescaleHeight': False, 'trialN': 97, 'loaded': True, 'loadedTime': 4488.800000011921, 'positionName': 'LEFT', 'positionCoords': [204.4, 155], 'bid': 7.54}, {'imgObject': {}, 'id': 'avocado', 'src': '/static/foodstim60/avocado.jpg', 'key': 'i', 'origWidth': 409, 'origHeight': 409, 'width': 409, 'height': 409, 'widthPercent': 0.45, 'rescaleHeight': False, 'trialN': 97, 'loaded': True, 'loadedTime': 5034.400000035763, 'positionName': 'RIGHT', 'positionCoords': [665.6, 155.5], 'bid': 8.96}]",164819.90000003576,1669838086485,froot loops w milk,avocado,7.54,8.96,1.4200000000000008,froot loops w milk,655.3999999761581,656,656.6999999880791,True,u,165990.30000001192,1170.3999999761581,1669838087655,1170,HRV,HRV_0274,2022-11-30 19:56:45
98,"[{'imgObject': {}, 'id': 'salmon', 'src': '/static/foodstim60/salmon.jpg', 'key': 'u', 'origWidth': 410, 'origHeight': 409, 'width': 410, 'height': 409, 'widthPercent': 0.45, 'rescaleHeight': False, 'trialN': 98, 'loaded': True, 'loadedTime': 5071.600000023842, 'positionName': 'LEFT', 'positionCoords': [204.4, 155.5], 'bid': 5}, {'imgObject': {}, 'id': 'eggsalad', 'src': '/static/foodstim60/eggsalad.jpg', 'key': 'i', 'origWidth': 410, 'origHeight': 409, 'width': 410, 'height': 409, 'widthPercent': 0.45, 'rescaleHeight': False, 'trialN': 98, 'loaded': True, 'loadedTime': 4943.900000035763, 'positionName': 'RIGHT', 'positionCoords': [665.6, 155.5], 'bid': 3.37}]",165990.70000004768,1669838087655,salmon,eggsalad,5.0,3.37,-1.63,eggsalad,873.7999999523163,875,874.7999999523163,True,i,167371.30000001192,1380.5999999642372,1669838089036,1381,HRV,HRV_0274,2022-11-30 19:56:45
99,"[{'imgObject': {}, 'id': 'sushi w_condiments', 'src': '/static/foodstim60/sushi w_condiments.jpg', 'key': 'u', 'origWidth': 410, 'origHeight': 410, 'width': 410, 'height': 410, 'widthPercent': 0.45, 'rescaleHeight': False, 'trialN': 99, 'loaded': True, 'loadedTime': 5074.700000047684, 'positionName': 'LEFT', 'positionCoords': [204.4, 155], 'bid': 9.65}, {'imgObject': {}, 'id': 'burrito', 'src': '/static/foodstim60/burrito.jpg', 'key': 'i', 'origWidth': 410, 'origHeight': 410, 'width': 410, 'height': 410, 'widthPercent': 0.45, 'rescaleHeight': False, 'trialN': 99, 'loaded': True, 'loadedTime': 5045.300000011921, 'positionName': 'RIGHT', 'positionCoords': [665.6, 155], 'bid': 7.96}]",167371.70000004768,1669838089036,sushi w_condiments,burrito,9.65,7.96,-1.6900000000000004,burrito,585.5,587,586.3999999761581,True,i,168467.10000002384,1095.3999999761581,1669838090132,1096,HRV,HRV_0274,2022-11-30 19:56:45
100,"[{'imgObject': {}, 'id': 'hashbrowns', 'src': '/static/foodstim60/hashbrowns.jpg', 'key': 'u', 'origWidth': 411, 'origHeight': 410, 'width': 411, 'height': 410, 'widthPercent': 0.45, 'rescaleHeight': False, 'trialN': 100, 'loaded': True, 'loadedTime': 5069.100000023842, 'positionName': 'LEFT', 'positionCoords': [203.4, 155], 'bid': 2.81}, {'imgObject': {}, 'id': 'salad w chicken', 'src': '/static/foodstim60/salad w chicken.jpg', 'key': 'i', 'origWidth': 411, 'origHeight': 411, 'width': 411, 'height': 411, 'widthPercent': 0.45, 'rescaleHeight': False, 'trialN': 100, 'loaded': True, 'loadedTime': 4900.800000011921, 'positionName': 'RIGHT', 'positionCoords': [665.6, 154.5], 'bid': 6.59}]",168467.5,1669838090132,hashbrowns,salad w chicken,2.81,6.59,3.78,salad w chicken,1454.9000000357628,1456,1456.2000000476837,True,i,170444.5,1977.0,1669838092109,1977,HRV,HRV_0274,2022-11-30 19:56:45
101,"[{'imgObject': {}, 'id': 'blackbeanswithrice', 'src': '/static/foodstim60/blackbeanswithrice.jpg', 'key': 'u', 'origWidth': 410, 'origHeight': 410, 'width': 410, 'height': 410, 'widthPercent': 0.45, 'rescaleHeight': False, 'trialN': 101, 'loaded': True, 'loadedTime': 4969.800000011921, 'positionName': 'LEFT', 'positionCoords': [204.4, 155], 'bid': 4.73}, {'imgObject': {}, 'id': 'bagel plain', 'src': '/static/foodstim60/bagel plain.jpg', 'key': 'i', 'origWidth': 410, 'origHeight': 410, 'width': 410, 'height': 410, 'widthPercent': 0.45, 'rescaleHeight': False, 'trialN': 101, 'loaded': True, 'loadedTime': 5017.800000011921, 'positionName': 'RIGHT', 'positionCoords': [665.6, 155], 'bid': 3.53}]",170444.90000003576,1669838092110,blackbeanswithrice,bagel plain,4.73,3.53,-1.2000000000000006,blackbeanswithrice,670.5999999642372,671,671.8000000119209,True,u,171636.30000001192,1191.3999999761581,1669838093301,1191,HRV,HRV_0274,2022-11-30 19:56:45
102,"[{'imgObject': {}, 'id': 'veggieswithdip', 'src': '/static/foodstim60/veggieswithdip.jpg', 'key': 'u', 'origWidth': 409, 'origHeight': 409, 'width': 409, 'height': 409, 'widthPercent': 0.45, 'rescaleHeight': False, 'trialN': 102, 'loaded': True, 'loadedTime': 4948.300000011921, 'positionName': 'LEFT', 'positionCoords': [205.4, 155.5], 'bid': 9.87}, {'imgObject': {}, 'id': 'pear', 'src': '/static/foodstim60/pear.jpg', 'key': 'i', 'origWidth': 411, 'origHeight': 410, 'width': 411, 'height': 410, 'widthPercent': 0.45, 'rescaleHeight': False, 'trialN': 102, 'loaded': True, 'loadedTime': 4608.200000047684, 'positionName': 'RIGHT', 'positionCoords': [665.6, 155], 'bid': 8.03}]",171636.80000001192,1669838093301,veggieswithdip,pear,9.87,8.03,-1.8399999999999999,veggieswithdip,776.3000000119209,778,777.8000000119209,True,u,172924.80000001192,1288.0,1669838094589,1288,HRV,HRV_0274,2022-11-30 19:56:45
103,"[{'imgObject': {}, 'id': 'eggsalad', 'src': '/static/foodstim60/eggsalad.jpg', 'key': 'u', 'origWidth': 410, 'origHeight': 409, 'width': 410, 'height': 409, 'widthPercent': 0.45, 'rescaleHeight': False, 'trialN': 103, 'loaded': True, 'loadedTime': 4941, 'positionName': 'LEFT', 'positionCoords': [204.4, 155.5], 'bid': 3.37}, {'imgObject': {}, 'id': 'rigatoni and sauce', 'src': '/static/foodstim60/rigatoni and sauce.jpg', 'key': 'i', 'origWidth': 410, 'origHeight': 411, 'width': 410, 'height': 411, 'widthPercent': 0.45, 'rescaleHeight': False, 'trialN': 103, 'loaded': True, 'loadedTime': 5057.600000023842, 'positionName': 'RIGHT', 'positionCoords': [665.6, 154.5], 'bid': 3.12}]",172925.70000004768,1669838094590,eggsalad,rigatoni and sauce,3.37,3.12,-0.25,eggsalad,1084.0999999642372,1085,1085.0999999642372,True,u,174520.0,1594.2999999523163,1669838096185,1595,HRV,HRV_0274,2022-11-30 19:56:45
104,"[{'imgObject': {}, 'id': 'orange slices', 'src': '/static/foodstim60/orange slices.jpg', 'key': 'u', 'origWidth': 409, 'origHeight': 410, 'width': 409, 'height': 410, 'widthPercent': 0.45, 'rescaleHeight': False, 'trialN': 104, 'loaded': True, 'loadedTime': 4720.700000047684, 'positionName': 'LEFT', 'positionCoords': [205.4, 155], 'bid': 7.28}, {'imgObject': {}, 'id': 'blueberries', 'src': '/static/foodstim60/blueberries.jpg', 'key': 'i', 'origWidth': 411, 'origHeight': 411, 'width': 411, 'height': 411, 'widthPercent': 0.45, 'rescaleHeight': False, 'trialN': 104, 'loaded': True, 'loadedTime': 4553, 'positionName': 'RIGHT', 'positionCoords': [665.6, 154.5], 'bid': 9.37}]",174521.0,1669838096186,orange slices,blueberries,7.28,9.37,2.089999999999999,blueberries,557.9000000357628,559,559.3000000119209,True,i,175588.90000003576,1067.9000000357628,1669838097254,1068,HRV,HRV_0274,2022-11-30 19:56:45
105,"[{'imgObject': {}, 'id': 'veggieswithdip', 'src': '/static/foodstim60/veggieswithdip.jpg', 'key': 'u', 'origWidth': 409, 'origHeight': 409, 'width': 409, 'height': 409, 'widthPercent': 0.45, 'rescaleHeight': False, 'trialN': 105, 'loaded': True, 'loadedTime': 4948.400000035763, 'positionName': 'LEFT', 'positionCoords': [205.4, 155.5], 'bid': 9.87}, {'imgObject': {}, 'id': 'corn cob', 'src': '/static/foodstim60/corn cob.jpg', 'key': 'i', 'origWidth': 411, 'origHeight': 411, 'width': 411, 'height': 411, 'widthPercent': 0.45, 'rescaleHeight': False, 'trialN': 105, 'loaded': True, 'loadedTime': 5036.400000035763, 'positionName': 'RIGHT', 'positionCoords': [665.6, 154.5], 'bid': 8.6}]",175589.40000003576,1669838097254,veggieswithdip,corn cob,9.87,8.6,-1.2699999999999996,veggieswithdip,779.6999999880791,781,780.8999999761581,True,u,176884.10000002384,1294.699999988079,1669838098549,1295,HRV,HRV_0274,2022-11-30 19:56:45
106,"[{'imgObject': {}, 'id': 'eggs', 'src': '/static/foodstim60/eggs.jpg', 'key': 'u', 'origWidth': 409, 'origHeight': 409, 'width': 409, 'height': 409, 'widthPercent': 0.45, 'rescaleHeight': False, 'trialN': 106, 'loaded': True, 'loadedTime': 4318.100000023842, 'positionName': 'LEFT', 'positionCoords': [205.4, 155.5], 'bid': 4.93}, {'imgObject': {}, 'id': 'avocado', 'src': '/static/foodstim60/avocado.jpg', 'key': 'i', 'origWidth': 409, 'origHeight': 409, 'width': 409, 'height': 409, 'widthPercent': 0.45, 'rescaleHeight': False, 'trialN': 106, 'loaded': True, 'loadedTime': 5033.800000011921, 'positionName': 'RIGHT', 'positionCoords': [665.6, 155.5], 'bid': 8.96}]",176885.0,1669838098550,eggs,avocado,4.93,8.96,4.030000000000001,eggs,627.4000000357628,628,628.6000000238419,True,u,178020.90000003576,1135.9000000357628,1669838099686,1136,HRV,HRV_0274,2022-11-30 19:56:45
107,"[{'imgObject': {}, 'id': 'burrito', 'src': '/static/foodstim60/burrito.jpg', 'key': 'u', 'origWidth': 410, 'origHeight': 410, 'width': 410, 'height': 410, 'widthPercent': 0.45, 'rescaleHeight': False, 'trialN': 107, 'loaded': True, 'loadedTime': 5047.100000023842, 'positionName': 'LEFT', 'positionCoords': [204.4, 155], 'bid': 7.96}, {'imgObject': {}, 'id': 'luckycharms', 'src': '/static/foodstim60/luckycharms.jpg', 'key': 'i', 'origWidth': 410, 'origHeight': 409, 'width': 410, 'height': 409, 'widthPercent': 0.45, 'rescaleHeight': False, 'trialN': 107, 'loaded': True, 'loadedTime': 4839.900000035763, 'positionName': 'RIGHT', 'positionCoords': [665.6, 155.5], 'bid': 9.2}]",178021.70000004768,1669838099686,burrito,luckycharms,7.96,9.2,1.2399999999999993,luckycharms,488.89999997615814,490,489.69999998807907,True,i,179021.90000003576,1000.1999999880791,1669838100687,1001,HRV,HRV_0274,2022-11-30 19:56:45
108,"[{'imgObject': {}, 'id': 'pear', 'src': '/static/foodstim60/pear.jpg', 'key': 'u', 'origWidth': 411, 'origHeight': 410, 'width': 411, 'height': 410, 'widthPercent': 0.45, 'rescaleHeight': False, 'trialN': 108, 'loaded': True, 'loadedTime': 4608.5, 'positionName': 'LEFT', 'positionCoords': [203.4, 155], 'bid': 8.03}, {'imgObject': {}, 'id': 'Grapes', 'src': '/static/foodstim60/Grapes.jpg', 'key': 'i', 'origWidth': 411, 'origHeight': 411, 'width': 411, 'height': 411, 'widthPercent': 0.45, 'rescaleHeight': False, 'trialN': 108, 'loaded': True, 'loadedTime': 4271.900000035763, 'positionName': 'RIGHT', 'positionCoords': [665.6, 154.5], 'bid': 4.23}]",179022.5,1669838100687,pear,Grapes,8.03,4.23,-3.799999999999999,pear,566.6000000238419,568,567.7000000476837,True,u,180096.10000002384,1073.6000000238419,1669838101761,1074,HRV,HRV_0274,2022-11-30 19:56:45
