success,trial_type,trial_index,time_elapsed,internal_node_id,Block,TrialNumber,TrialTime,trialTimeDiff,FPS_avg,FPS_med,FPS_mode,TrialDur,winResizeTime,rt,block,button_pressed,MotCoh,MotDir,ColCoh,Color,ChoiceKey,Choice,Accuracy,RT,nFrames,FPS,PPD,missTrial,missTrialMsg,onsetDelay,fullScreenExitTime,canvCenter,TrialType,Score,BlockTrial,stimulus,button_labels,exp,subjectId,date
True,fullscreen,0,3926,0.0-0.0,0.0,1.0,,,,,,,,,,,,,,,,,,,,,,,,,,,,,,,,HRV,HRV_0133,2022-11-30 18:17:33
,wl-check-fps,1,8930,0.0-1.0,0.0,2.0,"[4608.3, 4619.7, 4636.2, 4652.9, 4669.6, 4686.3, 4702.9, 4719.6, 4736.2, 4752.9, 4769.3, 4786.2, 4802.9, 4819.7, 4836.3, 4853.2, 4869.8, 4886.4, 4903.1, 4919.7, 4936.3, 4953.1, 4969.6, 4986.4, 5003.1, 5019.6, 5036.3, 5053.2, 5069.7, 5086.4, 5103, 5119.8, 5136.4, 5153, 5169.6, 5186, 5202.6, 5219.6, 5236.2, 5252.9, 5269.8, 5286.6, 5303.3, 5319.9, 5336.6, 5353.3, 5369.9, 5386.5, 5403.2, 5419.9, 5436.6, 5453.3, 5469.9, 5486.5, 5503.2, 5519.8, 5536.6, 5553.2, 5569.6, 5586.5, 5603.2, 5619.8, 5636.5, 5653.3, 5669.8, 5686.6, 5703.3, 5719.8, 5736.6, 5753, 5769.3, 5786, 5802.7, 5819.5, 5836.3, 5852.8, 5869.5, 5886.2, 5903, 5919.7, 5936, 5952.7, 5969.4, 5986.1, 6002.9, 6019.5, 6036.1, 6052.9, 6069.5, 6086.2, 6102.9, 6119.4, 6136.1, 6152.8, 6169.4, 6186, 6202.9, 6219.5, 6236.2, 6252.8, 6269.5, 6286.3, 6302.8, 6319.6, 6336.5, 6353.3, 6369.8, 6386.6, 6403.3, 6419.8, 6436.6, 6453.2, 6469.9, 6486.6, 6503.3, 6519.8, 6536.6, 6553.2, 6569.7, 6586.6, 6603.2, 6619.8, 6636.6, 6653.3, 6669.9, 6686.6, 6702.7, 6719.5, 6736.1, 6752.9, 6769.4, 6786.6, 6803.1, 6819.6, 6836.6, 6853, 6869.8, 6886.4, 6903.2, 6919.7, 6936.5, 6953, 6969.7, 6986.5, 7003.2, 7019.6, 7036.5, 7052.9, 7069.7, 7086.5, 7103.2, 7119.8, 7136.6, 7153.1, 7169.4, 7186.1, 7202.7, 7219.4, 7236.1, 7252.8, 7269.4, 7286.1, 7302.8, 7319.4, 7336.3, 7352.9, 7370, 7386, 7402.9, 7419.4, 7436.3, 7453.2, 7469.8, 7486.6, 7503.3, 7519.8, 7536.6, 7553.1, 7569.9, 7586.6, 7603.2, 7619.8, 7636.7, 7653.2, 7669.9, 7686.6, 7702.8, 7719.4, 7736.3, 7752.8, 7769.6, 7786.5, 7803.3, 7819.8, 7836.6, 7853.2, 7869.9, 7886.5, 7903.1, 7919.9, 7936.5, 7953.3, 7969.7, 7986.6, 8003.2, 8019.6, 8036.3, 8053.1, 8069.7, 8086.4, 8103.1, 8119.7, 8136.3, 8153, 8169.7, 8186.1, 8202.8, 8219.5, 8236.3, 8252.9, 8269.6, 8286.4, 8303, 8319.7, 8336.4, 8353, 8369.6, 8386.4, 8403.1, 8419.7, 8436.4, 8453.1, 8469.7, 8486.4, 8503, 8519.7, 8536.4, 8553, 8569.7, 8586.4, 8603.1, 8619.6, 8636.4, 8653.1, 8669.6, 8686.5, 8703.1, 8719.7, 8736.4, 8753.1, 8769.7, 8786.6, 8803.2, 8819.9, 8836.4, 8853.3, 8869.9, 8886.6, 8903.2, 8919.9, 8936.7, 8953.1, 8969.7, 8986.6, 9003.3, 9019.8, 9036.6, 9053.2, 9069.8, 9086.5, 9103.1, 9119.9, 9136.5, 9153.2, 9169.8, 9186.1, 9202.7, 9219.6, 9236.2, 9252.9, 9269.6, 9286.6, 9303.1, 9319.6, 9336.4, 9353, 9369.8, 9386.5, 9403.1, 9419.7, 9436.3, 9453, 9469.7, 9486.3, 9503.1, 9519.6, 9536.5, 9553.2, 9569.6, 9586.5]","[3.1, 11.4, 16.5, 16.7, 16.7, 16.7, 16.6, 16.7, 16.6, 16.7, 16.4, 16.9, 16.7, 16.8, 16.6, 16.9, 16.6, 16.6, 16.7, 16.6, 16.6, 16.8, 16.5, 16.8, 16.7, 16.5, 16.7, 16.9, 16.5, 16.7, 16.6, 16.8, 16.6, 16.6, 16.6, 16.4, 16.6, 17, 16.6, 16.7, 16.9, 16.8, 16.7, 16.6, 16.7, 16.7, 16.6, 16.6, 16.7, 16.7, 16.7, 16.7, 16.6, 16.6, 16.7, 16.6, 16.8, 16.6, 16.4, 16.9, 16.7, 16.6, 16.7, 16.8, 16.5, 16.8, 16.7, 16.5, 16.8, 16.4, 16.3, 16.7, 16.7, 16.8, 16.8, 16.5, 16.7, 16.7, 16.8, 16.7, 16.3, 16.7, 16.7, 16.7, 16.8, 16.6, 16.6, 16.8, 16.6, 16.7, 16.7, 16.5, 16.7, 16.7, 16.6, 16.6, 16.9, 16.6, 16.7, 16.6, 16.7, 16.8, 16.5, 16.8, 16.9, 16.8, 16.5, 16.8, 16.7, 16.5, 16.8, 16.6, 16.7, 16.7, 16.7, 16.5, 16.8, 16.6, 16.5, 16.9, 16.6, 16.6, 16.8, 16.7, 16.6, 16.7, 16.1, 16.8, 16.6, 16.8, 16.5, 17.2, 16.5, 16.5, 17, 16.4, 16.8, 16.6, 16.8, 16.5, 16.8, 16.5, 16.7, 16.8, 16.7, 16.4, 16.9, 16.4, 16.8, 16.8, 16.7, 16.6, 16.8, 16.5, 16.3, 16.7, 16.6, 16.7, 16.7, 16.7, 16.6, 16.7, 16.7, 16.6, 16.9, 16.6, 17.1, 16, 16.9, 16.5, 16.9, 16.9, 16.6, 16.8, 16.7, 16.5, 16.8, 16.5, 16.8, 16.7, 16.6, 16.6, 16.9, 16.5, 16.7, 16.7, 16.2, 16.6, 16.9, 16.5, 16.8, 16.9, 16.8, 16.5, 16.8, 16.6, 16.7, 16.6, 16.6, 16.8, 16.6, 16.8, 16.4, 16.9, 16.6, 16.4, 16.7, 16.8, 16.6, 16.7, 16.7, 16.6, 16.6, 16.7, 16.7, 16.4, 16.7, 16.7, 16.8, 16.6, 16.7, 16.8, 16.6, 16.7, 16.7, 16.6, 16.6, 16.8, 16.7, 16.6, 16.7, 16.7, 16.6, 16.7, 16.6, 16.7, 16.7, 16.6, 16.7, 16.7, 16.7, 16.5, 16.8, 16.7, 16.5, 16.9, 16.6, 16.6, 16.7, 16.7, 16.6, 16.9, 16.6, 16.7, 16.5, 16.9, 16.6, 16.7, 16.6, 16.7, 16.8, 16.4, 16.6, 16.9, 16.7, 16.5, 16.8, 16.6, 16.6, 16.7, 16.6, 16.8, 16.6, 16.7, 16.6, 16.3, 16.6, 16.9, 16.6, 16.7, 16.7, 17, 16.5, 16.5, 16.8, 16.6, 16.8, 16.7, 16.6, 16.6, 16.6, 16.7, 16.7, 16.6, 16.8, 16.5, 16.9, 16.7, 16.4, 16.9]",60.0,60.0,60.0,4997.8,[],,,,,,,,,,,,,,,,,,,,,,,,,HRV,HRV_0133,2022-11-30 18:17:33
,wl-html-keyboard-response,2,27246,0.0-2.0-0.0,0.0,3.0,,,,,,,,16303.0,0.0,0,,,,,,,,,,,,,,,,,,,,,,HRV,HRV_0133,2022-11-30 18:17:33
,wl-rdm,3,34029,0.0-3.0-0.0,0.0,4.0,,,,,,,[],,,,0.0,0.0,87.9,0.0,u,0.0,True,1187.5999999977648,71.0,60.0,40.0,False,,3000.0,[],"[698, 392.5]",ColorTask_Demo,,,,,HRV,HRV_0133,2022-11-30 18:17:33
,wl-rdm,4,39112,0.0-3.0-1.0,0.0,5.0,,,,,,,[],,,,0.0,0.0,87.9,1.0,i,1.0,True,1019.3000000007451,62.0,60.0,40.0,False,,2000.0,[],"[698, 392.5]",ColorTask_Demo,,,,,HRV,HRV_0133,2022-11-30 18:17:33
,wl-html-keyboard-response,5,46358,0.0-3.0-2.0,0.0,6.0,,,,,,,,5240.099999997765,0.0,1,,,,,,,,,,,,,,,,,,,,,,HRV,HRV_0133,2022-11-30 18:17:33
,wl-html-keyboard-response,6,65686,0.0-4.0-0.0,0.0,7.0,,,,,,,,17316.89999999851,0.0,0,,,,,,,,,,,,,,,,,,,,,,HRV,HRV_0133,2022-11-30 18:17:33
,wl-html-keyboard-response,7,123414,0.0-5.0-0.0,0.0,8.0,,,,,,,,55724.699999999255,0.0,0,,,,,,,,,,,,,,,,,,,,,,HRV,HRV_0133,2022-11-30 18:17:33
,wl-rdm,8,126360,0.0-6.0-0.0,0.0,9.0,,,,,,,[],,,,,,62.5,0.0,u,0.0,True,1617.5,98.0,60.0,40.0,False,,240.14609634438352,[],"[698, 392.5]",ColorTask,1.0,1.0,,,HRV,HRV_0133,2022-11-30 18:17:33
,wl-rdm,9,129243,0.0-6.1-0.1,0.0,10.0,,,,,,,[],,,,,,50.0,1.0,i,1.0,True,1399.699999999255,84.0,60.0,40.0,False,,399.88712282008714,[],"[698, 392.5]",ColorTask,2.0,2.0,,,HRV,HRV_0133,2022-11-30 18:17:33
,wl-rdm,10,131844,0.0-6.2-0.2,0.0,11.0,,,,,,,[],,,,,,50.0,1.0,i,1.0,True,1222.8999999985099,74.0,60.0,40.0,False,,312.25683258827496,[],"[698, 392.5]",ColorTask,3.0,3.0,,,HRV,HRV_0133,2022-11-30 18:17:33
,wl-rdm,11,134710,0.0-6.3-0.3,0.0,12.0,,,,,,,[],,,,,,50.0,1.0,u,0.0,False,1472.9000000022352,89.0,60.0,40.0,False,,302.94420366892257,[],"[698, 392.5]",ColorTask,2.0,4.0,,,HRV,HRV_0133,2022-11-30 18:17:33
,wl-rdm,12,137277,0.0-6.4-0.4,0.0,13.0,,,,,,,[],,,,,,62.5,0.0,u,0.0,True,1256.199999999255,76.0,60.0,40.0,False,,229.60372243190704,[],"[698, 392.5]",ColorTask,3.0,5.0,,,HRV,HRV_0133,2022-11-30 18:17:33
,wl-rdm,13,139927,0.0-6.5-0.5,0.0,14.0,,,,,,,[],,,,,,50.0,0.0,i,1.0,False,1303.4999999962747,79.0,60.0,40.0,False,,272.69647951150785,[],"[698, 392.5]",ColorTask,2.0,6.0,,,HRV,HRV_0133,2022-11-30 18:17:33
,wl-rdm,14,142677,0.0-6.6-0.6,0.0,15.0,,,,,,,[],,,,,,56.4,0.0,i,1.0,False,1423.0,86.0,60.0,40.0,False,,248.1479393057778,[],"[698, 392.5]",ColorTask,1.0,7.0,,,HRV,HRV_0133,2022-11-30 18:17:33
,wl-rdm,15,145794,0.0-6.7-0.7,0.0,16.0,,,,,,,[],,,,,,53.2,0.0,i,1.0,False,1785.4000000022352,108.0,60.0,40.0,False,,262.735581395298,[],"[698, 392.5]",ColorTask,0.0,8.0,,,HRV,HRV_0133,2022-11-30 18:17:33
,wl-rdm,16,148460,0.0-6.8-0.8,0.0,17.0,,,,,,,[],,,,,,73.6,1.0,i,1.0,True,1231.1000000014901,74.0,60.0,40.0,False,,380.78740238225174,[],"[698, 392.5]",ColorTask,1.0,9.0,,,HRV,HRV_0133,2022-11-30 18:17:33
,wl-rdm,17,151511,0.0-6.9-0.9,0.0,18.0,,,,,,,[],,,,,,53.2,1.0,i,1.0,True,1655.199999999255,99.0,60.0,40.0,False,,306.56165793450367,[],"[698, 392.5]",ColorTask,2.0,10.0,,,HRV,HRV_0133,2022-11-30 18:17:33
,wl-rdm,18,155576,0.0-6.10-0.10,0.0,19.0,,,,,,,[],,,,,,62.5,0.0,u,0.0,True,2619.199999999255,158.0,60.0,40.0,False,,365.46782211678,[],"[698, 392.5]",ColorTask,3.0,11.0,,,HRV,HRV_0133,2022-11-30 18:17:33
,wl-rdm,19,158660,0.0-6.11-0.11,0.0,20.0,,,,,,,[],,,,,,50.0,0.0,u,0.0,True,1691.300000000745,102.0,60.0,40.0,False,,305.85267556960144,[],"[698, 392.5]",ColorTask,4.0,12.0,,,HRV,HRV_0133,2022-11-30 18:17:33
,wl-rdm,20,161977,0.0-6.12-0.12,0.0,21.0,,,,,,,[],,,,,,56.4,1.0,i,1.0,True,1960.4000000022352,118.0,60.0,40.0,False,,269.89149348161436,[],"[698, 392.5]",ColorTask,5.0,13.0,,,HRV,HRV_0133,2022-11-30 18:17:33
,wl-rdm,21,164794,0.0-6.13-0.13,0.0,22.0,,,,,,,[],,,,,,73.6,0.0,u,0.0,True,1368.800000000745,83.0,60.0,40.0,False,,359.0795412017135,[],"[698, 392.5]",ColorTask,6.0,14.0,,,HRV,HRV_0133,2022-11-30 18:17:33
,wl-rdm,22,168077,0.0-6.14-0.14,0.0,23.0,,,,,,,[],,,,,,53.2,0.0,i,1.0,False,2004.7000000029802,121.0,60.0,40.0,False,,204.1539549792552,[],"[698, 392.5]",ColorTask,5.0,15.0,,,HRV,HRV_0133,2022-11-30 18:17:33
,wl-rdm,23,170494,0.0-6.15-0.15,0.0,24.0,,,,,,,[],,,,,,62.5,1.0,i,1.0,True,1123.3999999985099,68.0,60.0,40.0,False,,211.28916736233452,[],"[698, 392.5]",ColorTask,6.0,16.0,,,HRV,HRV_0133,2022-11-30 18:17:33
,wl-rdm,24,173260,0.0-6.16-0.16,0.0,25.0,,,,,,,[],,,,,,62.5,0.0,u,0.0,True,1468.3999999985099,89.0,60.0,40.0,False,,202.0742456684938,[],"[698, 392.5]",ColorTask,7.0,17.0,,,HRV,HRV_0133,2022-11-30 18:17:33
,wl-rdm,25,176760,0.0-6.17-0.17,0.0,26.0,,,,,,,[],,,,,,73.6,0.0,i,1.0,False,2053.099999997765,124.0,60.0,40.0,False,,379.625106753045,[],"[698, 392.5]",ColorTask,6.0,18.0,,,HRV,HRV_0133,2022-11-30 18:17:33
,wl-rdm,26,178960,0.0-6.18-0.18,0.0,27.0,,,,,,,[],,,,,,50.0,1.0,u,0.0,False,843.4999999962747,51.0,60.0,40.0,False,,285.52877954898196,[],"[698, 392.5]",ColorTask,5.0,19.0,,,HRV,HRV_0133,2022-11-30 18:17:33
,wl-rdm,27,181744,0.0-6.19-0.19,0.0,28.0,,,,,,,[],,,,,,73.6,0.0,u,0.0,True,1455.1000000014901,88.0,60.0,40.0,False,,239.92476436522418,[],"[698, 392.5]",ColorTask,6.0,20.0,,,HRV,HRV_0133,2022-11-30 18:17:33
,wl-rdm,28,184360,0.0-6.20-0.20,0.0,29.0,,,,,,,[],,,,,,62.5,1.0,i,1.0,True,1259.699999999255,76.0,60.0,40.0,False,,296.7856981413693,[],"[698, 392.5]",ColorTask,7.0,21.0,,,HRV,HRV_0133,2022-11-30 18:17:33
,wl-rdm,29,186760,0.0-6.21-0.21,0.0,30.0,,,,,,,[],,,,,,73.6,1.0,i,1.0,True,927.9000000022352,56.0,60.0,40.0,False,,399.7356339269852,[],"[698, 392.5]",ColorTask,8.0,22.0,,,HRV,HRV_0133,2022-11-30 18:17:33
,wl-rdm,30,189276,0.0-6.22-0.22,0.0,31.0,,,,,,,[],,,,,,53.2,1.0,i,1.0,True,1172.3999999985099,71.0,60.0,40.0,False,,265.03866776769775,[],"[698, 392.5]",ColorTask,9.0,23.0,,,HRV,HRV_0133,2022-11-30 18:17:33
,wl-rdm,31,191543,0.0-6.23-0.23,0.0,32.0,,,,,,,[],,,,,,87.9,1.0,i,1.0,True,978.4000000022352,59.0,60.0,40.0,False,,202.22891663549046,[],"[698, 392.5]",ColorTask,10.0,24.0,,,HRV,HRV_0133,2022-11-30 18:17:33
,wl-rdm,32,193877,0.0-6.24-0.24,0.0,33.0,,,,,,,[],,,,,,73.6,1.0,i,1.0,True,942.8999999985099,57.0,60.0,40.0,False,,300.62725928580676,[],"[698, 392.5]",ColorTask,11.0,25.0,,,HRV,HRV_0133,2022-11-30 18:17:33
,wl-rdm,33,196210,0.0-6.25-0.25,0.0,34.0,,,,,,,[],,,,,,73.6,0.0,u,0.0,True,1001.7000000029802,61.0,60.0,40.0,False,,239.94604114448296,[],"[698, 392.5]",ColorTask,12.0,26.0,,,HRV,HRV_0133,2022-11-30 18:17:33
,wl-rdm,34,198577,0.0-6.26-0.26,0.0,35.0,,,,,,,[],,,,,,53.2,0.0,i,1.0,False,1077.3000000044703,65.0,60.0,40.0,False,,206.28766447339618,[],"[698, 392.5]",ColorTask,11.0,27.0,,,HRV,HRV_0133,2022-11-30 18:17:33
,wl-rdm,35,201293,0.0-6.27-0.27,0.0,36.0,,,,,,,[],,,,,,56.4,0.0,i,1.0,False,1422.9999999962747,86.0,60.0,40.0,False,,200.03922868332285,[],"[698, 392.5]",ColorTask,10.0,28.0,,,HRV,HRV_0133,2022-11-30 18:17:33
,wl-rdm,36,203677,0.0-6.28-0.28,0.0,37.0,,,,,,,[],,,,,,56.4,1.0,i,1.0,True,1031.199999999255,62.0,60.0,40.0,False,,291.55288199952497,[],"[698, 392.5]",ColorTask,11.0,29.0,,,HRV,HRV_0133,2022-11-30 18:17:33
,wl-rdm,37,205994,0.0-6.29-0.29,0.0,38.0,,,,,,,[],,,,,,87.9,0.0,u,0.0,True,937.1000000014901,57.0,60.0,40.0,False,,297.32452357974745,[],"[698, 392.5]",ColorTask,12.0,30.0,,,HRV,HRV_0133,2022-11-30 18:17:33
,wl-rdm,38,208494,0.0-6.30-0.30,0.0,39.0,,,,,,,[],,,,,,50.0,1.0,i,1.0,True,1172.2999999970198,71.0,60.0,40.0,False,,252.24497282740452,[],"[698, 392.5]",ColorTask,13.0,31.0,,,HRV,HRV_0133,2022-11-30 18:17:33
,wl-rdm,39,211244,0.0-6.31-0.31,0.0,40.0,,,,,,,[],,,,,,56.4,0.0,u,0.0,True,1357.1000000014901,82.0,60.0,40.0,False,,322.7781087596633,[],"[698, 392.5]",ColorTask,14.0,32.0,,,HRV,HRV_0133,2022-11-30 18:17:33
,wl-rdm,40,213444,0.0-6.32-0.32,0.0,41.0,,,,,,,[],,,,,,56.4,0.0,i,1.0,False,874.6000000014901,53.0,60.0,40.0,False,,238.61864052870658,[],"[698, 392.5]",ColorTask,13.0,33.0,,,HRV,HRV_0133,2022-11-30 18:17:33
,wl-rdm,41,215760,0.0-6.33-0.33,0.0,42.0,,,,,,,[],,,,,,50.0,1.0,i,1.0,True,944.4000000022352,57.0,60.0,40.0,False,,283.5467901882625,[],"[698, 392.5]",ColorTask,14.0,34.0,,,HRV,HRV_0133,2022-11-30 18:17:33
,wl-rdm,42,217777,0.0-6.34-0.34,0.0,43.0,,,,,,,[],,,,,,87.9,1.0,i,1.0,True,636.6999999992549,39.0,60.0,40.0,False,,306.474902393522,[],"[698, 392.5]",ColorTask,15.0,35.0,,,HRV,HRV_0133,2022-11-30 18:17:33
,wl-rdm,43,219944,0.0-6.35-0.35,0.0,44.0,,,,,,,[],,,,,,87.9,0.0,u,0.0,True,811.5000000037253,49.0,60.0,40.0,False,,293.6375952467321,[],"[698, 392.5]",ColorTask,16.0,36.0,,,HRV,HRV_0133,2022-11-30 18:17:33
,wl-rdm,44,222244,0.0-6.36-0.36,0.0,45.0,,,,,,,[],,,,,,50.0,0.0,i,1.0,False,924.7000000029802,56.0,60.0,40.0,False,,284.32083996188135,[],"[698, 392.5]",ColorTask,15.0,37.0,,,HRV,HRV_0133,2022-11-30 18:17:33
,wl-rdm,45,224627,0.0-6.37-0.37,0.0,46.0,,,,,,,[],,,,,,73.6,1.0,i,1.0,True,1052.1000000014901,64.0,60.0,40.0,False,,240.0660726606462,[],"[698, 392.5]",ColorTask,16.0,38.0,,,HRV,HRV_0133,2022-11-30 18:17:33
,wl-rdm,46,227027,0.0-6.38-0.38,0.0,47.0,,,,,,,[],,,,,,73.6,1.0,i,1.0,True,956.5000000037253,58.0,60.0,40.0,False,,369.4849377122873,[],"[698, 392.5]",ColorTask,17.0,39.0,,,HRV,HRV_0133,2022-11-30 18:17:33
,wl-rdm,47,229227,0.0-6.39-0.39,0.0,48.0,,,,,,,[],,,,,,56.4,1.0,i,1.0,True,775.6999999992549,47.0,60.0,40.0,False,,362.1428888570706,[],"[698, 392.5]",ColorTask,18.0,40.0,,,HRV,HRV_0133,2022-11-30 18:17:33
,wl-rdm,48,232127,0.0-6.40-0.40,0.0,49.0,,,,,,,[],,,,,,56.4,0.0,u,0.0,True,1578.199999999255,95.0,60.0,40.0,False,,252.84665265194923,[],"[698, 392.5]",ColorTask,19.0,41.0,,,HRV,HRV_0133,2022-11-30 18:17:33
,wl-rdm,49,234543,0.0-6.41-0.41,0.0,50.0,,,,,,,[],,,,,,56.4,1.0,i,1.0,True,1086.8999999985099,66.0,60.0,40.0,False,,253.4020867578958,[],"[698, 392.5]",ColorTask,20.0,42.0,,,HRV,HRV_0133,2022-11-30 18:17:33
,wl-rdm,50,236527,0.0-6.42-0.42,0.0,51.0,,,,,,,[],,,,,,87.9,1.0,i,1.0,True,712.1000000014901,43.0,60.0,40.0,False,,213.41570828884286,[],"[698, 392.5]",ColorTask,21.0,43.0,,,HRV,HRV_0133,2022-11-30 18:17:33
,wl-rdm,51,238627,0.0-6.43-0.43,0.0,52.0,,,,,,,[],,,,,,53.2,0.0,i,1.0,False,785.2999999970198,48.0,60.0,40.0,False,,228.40912179070932,[],"[698, 392.5]",ColorTask,20.0,44.0,,,HRV,HRV_0133,2022-11-30 18:17:33
,wl-rdm,52,241177,0.0-6.44-0.44,0.0,53.0,,,,,,,[],,,,,,62.5,0.0,u,0.0,True,1093.0,66.0,60.0,40.0,False,,389.27627965752697,[],"[698, 392.5]",ColorTask,21.0,45.0,,,HRV,HRV_0133,2022-11-30 18:17:33
,wl-rdm,53,243410,0.0-6.45-0.45,0.0,54.0,,,,,,,[],,,,,,73.6,0.0,i,1.0,False,841.7000000029802,51.0,60.0,40.0,False,,319.0420404731804,[],"[698, 392.5]",ColorTask,20.0,46.0,,,HRV,HRV_0133,2022-11-30 18:17:33
,wl-rdm,54,245543,0.0-6.46-0.46,0.0,55.0,,,,,,,[],,,,,,87.9,1.0,i,1.0,True,712.0999999977648,43.0,60.0,40.0,False,,348.7438980269841,[],"[698, 392.5]",ColorTask,21.0,47.0,,,HRV,HRV_0133,2022-11-30 18:17:33
,wl-rdm,55,248043,0.0-6.47-0.47,0.0,56.0,,,,,,,[],,,,,,62.5,0.0,u,0.0,True,1166.300000000745,70.0,60.0,40.0,False,,266.181313112662,[],"[698, 392.5]",ColorTask,22.0,48.0,,,HRV,HRV_0133,2022-11-30 18:17:33
,wl-rdm,56,250160,0.0-6.48-0.48,0.0,57.0,,,,,,,[],,,,,,87.9,1.0,i,1.0,True,776.0,47.0,60.0,40.0,False,,270.4384544461591,[],"[698, 392.5]",ColorTask,23.0,49.0,,,HRV,HRV_0133,2022-11-30 18:17:33
,wl-rdm,57,252627,0.0-6.49-0.49,0.0,58.0,,,,,,,[],,,,,,73.6,0.0,u,0.0,True,1093.1000000014901,66.0,60.0,40.0,False,,285.9166568403327,[],"[698, 392.5]",ColorTask,24.0,50.0,,,HRV,HRV_0133,2022-11-30 18:17:33
,wl-rdm,58,254843,0.0-6.50-0.50,0.0,59.0,,,,,,,[],,,,,,87.9,0.0,u,0.0,True,775.3000000044703,47.0,60.0,40.0,False,,353.0864286251366,[],"[698, 392.5]",ColorTask,25.0,51.0,,,HRV,HRV_0133,2022-11-30 18:17:33
,wl-rdm,59,257143,0.0-6.51-0.51,0.0,60.0,,,,,,,[],,,,,,73.6,1.0,i,1.0,True,870.8999999985099,53.0,60.0,40.0,False,,353.13578511392666,[],"[698, 392.5]",ColorTask,26.0,52.0,,,HRV,HRV_0133,2022-11-30 18:17:33
,wl-rdm,60,259026,0.0-6.52-0.52,0.0,61.0,,,,,,,[],,,,,,87.9,1.0,i,1.0,True,568.8000000044703,35.0,60.0,40.0,False,,232.31613759729993,[],"[698, 392.5]",ColorTask,27.0,53.0,,,HRV,HRV_0133,2022-11-30 18:17:33
,wl-rdm,61,261493,0.0-6.53-0.53,0.0,62.0,,,,,,,[],,,,,,50.0,0.0,u,0.0,True,1173.2999999970198,71.0,60.0,40.0,False,,207.07985381807933,[],"[698, 392.5]",ColorTask,28.0,54.0,,,HRV,HRV_0133,2022-11-30 18:17:33
,wl-rdm,62,263260,0.0-6.54-0.54,0.0,63.0,,,,,,,[],,,,,,87.9,1.0,i,1.0,True,474.5,29.0,60.0,40.0,False,,224.29147027758324,[],"[698, 392.5]",ColorTask,29.0,55.0,,,HRV,HRV_0133,2022-11-30 18:17:33
,wl-rdm,63,265193,0.0-6.55-0.55,0.0,64.0,,,,,,,[],,,,,,53.2,1.0,i,1.0,True,643.7000000029802,39.0,60.0,40.0,False,,207.7229222258048,[],"[698, 392.5]",ColorTask,30.0,56.0,,,HRV,HRV_0133,2022-11-30 18:17:33
,wl-rdm,64,267343,0.0-6.56-0.56,0.0,65.0,,,,,,,[],,,,,,53.2,0.0,u,0.0,True,704.2000000029802,43.0,60.0,40.0,False,,351.64664503299326,[],"[698, 392.5]",ColorTask,31.0,57.0,,,HRV,HRV_0133,2022-11-30 18:17:33
,wl-rdm,65,269726,0.0-6.57-0.57,0.0,66.0,,,,,,,[],,,,,,62.5,0.0,u,0.0,True,1087.9999999962747,66.0,60.0,40.0,False,,229.4792097547479,[],"[698, 392.5]",ColorTask,32.0,58.0,,,HRV,HRV_0133,2022-11-30 18:17:33
,wl-rdm,66,272026,0.0-6.58-0.58,0.0,67.0,,,,,,,[],,,,,,62.5,0.0,i,1.0,False,892.4000000022352,54.0,60.0,40.0,False,,321.6588419373927,[],"[698, 392.5]",ColorTask,31.0,59.0,,,HRV,HRV_0133,2022-11-30 18:17:33
,wl-rdm,67,274160,0.0-6.59-0.59,0.0,68.0,,,,,,,[],,,,,,87.9,0.0,u,0.0,True,836.9999999962747,51.0,60.0,40.0,False,,208.65046680556648,[],"[698, 392.5]",ColorTask,32.0,60.0,,,HRV,HRV_0133,2022-11-30 18:17:33
,wl-rdm,68,276293,0.0-6.60-0.60,0.0,69.0,,,,,,,[],,,,,,53.2,1.0,i,1.0,True,815.1999999992549,49.0,60.0,40.0,False,,258.6742075802886,[],"[698, 392.5]",ColorTask,33.0,61.0,,,HRV,HRV_0133,2022-11-30 18:17:33
,wl-rdm,69,278243,0.0-6.61-0.61,0.0,70.0,,,,,,,[],,,,,,62.5,1.0,i,1.0,True,541.6000000014901,33.0,60.0,40.0,False,,319.7483537128394,[],"[698, 392.5]",ColorTask,34.0,62.0,,,HRV,HRV_0133,2022-11-30 18:17:33
,wl-rdm,70,280176,0.0-6.62-0.62,0.0,71.0,,,,,,,[],,,,,,62.5,1.0,i,1.0,True,619.8999999985099,38.0,60.0,40.0,False,,224.20964609608728,[],"[698, 392.5]",ColorTask,35.0,63.0,,,HRV,HRV_0133,2022-11-30 18:17:33
,wl-rdm,71,282160,0.0-6.63-0.63,0.0,72.0,,,,,,,[],,,,,,62.5,1.0,i,1.0,True,520.2000000029802,32.0,60.0,40.0,False,,373.7944342517263,[],"[698, 392.5]",ColorTask,36.0,64.0,,,HRV,HRV_0133,2022-11-30 18:17:33
,wl-rdm,72,283943,0.0-6.64-0.64,0.0,73.0,,,,,,,[],,,,,,87.9,1.0,i,1.0,True,379.30000000074506,23.0,60.0,40.0,False,,331.13400050796963,[],"[698, 392.5]",ColorTask,37.0,65.0,,,HRV,HRV_0133,2022-11-30 18:17:33
,wl-rdm,73,285876,0.0-6.65-0.65,0.0,74.0,,,,,,,[],,,,,,62.5,0.0,u,0.0,True,532.0,32.0,60.0,40.0,False,,345.48881447481557,[],"[698, 392.5]",ColorTask,38.0,66.0,,,HRV,HRV_0133,2022-11-30 18:17:33
,wl-rdm,74,287593,0.0-6.66-0.66,0.0,75.0,,,,,,,[],,,,,,50.0,0.0,u,0.0,True,416.0000000037253,25.0,60.0,40.0,False,,241.8912394028969,[],"[698, 392.5]",ColorTask,39.0,67.0,,,HRV,HRV_0133,2022-11-30 18:17:33
,wl-rdm,75,289243,0.0-6.67-0.67,0.0,76.0,,,,,,,[],,,,,,53.2,0.0,i,1.0,False,335.0,21.0,60.0,40.0,False,,229.288965996037,[],"[698, 392.5]",ColorTask,38.0,68.0,,,HRV,HRV_0133,2022-11-30 18:17:33
,wl-rdm,76,291493,0.0-6.68-0.68,0.0,77.0,,,,,,,[],,,,,,56.4,1.0,i,1.0,True,897.0,54.0,60.0,40.0,False,,284.28028047797994,[],"[698, 392.5]",ColorTask,39.0,69.0,,,HRV,HRV_0133,2022-11-30 18:17:33
,wl-rdm,77,293260,0.0-6.69-0.69,0.0,78.0,,,,,,,[],,,,,,62.5,1.0,i,1.0,True,465.0000000037253,28.0,60.0,40.0,False,,247.8124731022197,[],"[698, 392.5]",ColorTask,40.0,70.0,,,HRV,HRV_0133,2022-11-30 18:17:33
,wl-rdm,78,295376,0.0-6.70-0.70,0.0,79.0,,,,,,,[],,,,,,50.0,0.0,u,0.0,True,669.9000000022352,41.0,60.0,40.0,False,,360.1245292293471,[],"[698, 392.5]",ColorTask,41.0,71.0,,,HRV,HRV_0133,2022-11-30 18:17:33
,wl-rdm,79,297376,0.0-6.71-0.71,0.0,80.0,,,,,,,[],,,,,,73.6,0.0,u,0.0,True,629.5000000037253,38.0,60.0,40.0,False,,289.5483441723448,[],"[698, 392.5]",ColorTask,42.0,72.0,,,HRV,HRV_0133,2022-11-30 18:17:33
,wl-rdm,80,299626,0.0-6.72-0.72,0.0,81.0,,,,,,,[],,,,,,53.2,1.0,u,0.0,False,858.5000000037253,52.0,60.0,40.0,False,,322.3933431449573,[],"[698, 392.5]",ColorTask,41.0,73.0,,,HRV,HRV_0133,2022-11-30 18:17:33
,wl-rdm,81,301393,0.0-6.73-0.73,0.0,82.0,,,,,,,[],,,,,,87.9,0.0,i,1.0,False,408.5999999977648,25.0,60.0,40.0,False,,297.464353264366,[],"[698, 392.5]",ColorTask,40.0,74.0,,,HRV,HRV_0133,2022-11-30 18:17:33
,wl-rdm,82,303359,0.0-6.74-0.74,0.0,83.0,,,,,,,[],,,,,,50.0,0.0,i,1.0,False,611.9000000022352,37.0,60.0,40.0,False,,277.25293961370255,[],"[698, 392.5]",ColorTask,39.0,75.0,,,HRV,HRV_0133,2022-11-30 18:17:33
,wl-rdm,83,305809,0.0-6.75-0.75,0.0,84.0,,,,,,,[],,,,,,53.2,1.0,u,0.0,False,1044.6000000014901,63.0,60.0,40.0,False,,329.2190982097469,[],"[698, 392.5]",ColorTask,38.0,76.0,,,HRV,HRV_0133,2022-11-30 18:17:33
,wl-rdm,84,307959,0.0-6.76-0.76,0.0,85.0,,,,,,,[],,,,,,53.2,1.0,i,1.0,True,779.8000000007451,47.0,60.0,40.0,False,,296.8443534702633,[],"[698, 392.5]",ColorTask,39.0,77.0,,,HRV,HRV_0133,2022-11-30 18:17:33
,wl-rdm,85,310260,0.0-6.77-0.77,0.0,86.0,,,,,,,[],,,,,,56.4,0.0,u,0.0,True,1024.0999999977648,62.0,60.0,40.0,False,,200.75010815598776,[],"[698, 392.5]",ColorTask,40.0,78.0,,,HRV,HRV_0133,2022-11-30 18:17:33
,wl-rdm,86,313043,0.0-6.78-0.78,0.0,87.0,,,,,,,[],,,,,,56.4,0.0,i,1.0,False,1348.7000000029802,81.0,60.0,40.0,False,,379.3579293981918,[],"[698, 392.5]",ColorTask,39.0,79.0,,,HRV,HRV_0133,2022-11-30 18:17:33
,wl-rdm,87,315060,0.0-6.79-0.79,0.0,88.0,,,,,,,[],,,,,,73.6,1.0,i,1.0,True,568.8000000007451,35.0,60.0,40.0,False,,351.27666624785525,[],"[698, 392.5]",ColorTask,40.0,80.0,,,HRV,HRV_0133,2022-11-30 18:17:33
,wl-rdm,88,316943,0.0-6.80-0.80,0.0,89.0,,,,,,,[],,,,,,56.4,1.0,u,0.0,False,604.0,37.0,60.0,40.0,False,,207.75302763487716,[],"[698, 392.5]",ColorTask,39.0,81.0,,,HRV,HRV_0133,2022-11-30 18:17:33
,wl-rdm,89,318826,0.0-6.81-0.81,0.0,90.0,,,,,,,[],,,,,,73.6,1.0,i,1.0,True,585.5,36.0,60.0,40.0,False,,204.90740894827474,[],"[698, 392.5]",ColorTask,40.0,82.0,,,HRV,HRV_0133,2022-11-30 18:17:33
,wl-rdm,90,320976,0.0-6.82-0.82,0.0,91.0,,,,,,,[],,,,,,87.9,0.0,u,0.0,True,753.5,46.0,60.0,40.0,False,,303.54272044001954,[],"[698, 392.5]",ColorTask,41.0,83.0,,,HRV,HRV_0133,2022-11-30 18:17:33
,wl-rdm,91,323376,0.0-6.83-0.83,0.0,92.0,,,,,,,[],,,,,,50.0,1.0,i,1.0,True,1094.5,66.0,60.0,40.0,False,,220.57140865985923,[],"[698, 392.5]",ColorTask,42.0,84.0,,,HRV,HRV_0133,2022-11-30 18:17:33
,wl-rdm,92,325326,0.0-6.84-0.84,0.0,93.0,,,,,,,[],,,,,,53.2,0.0,i,1.0,False,662.5999999977648,40.0,60.0,40.0,False,,227.8132234757044,[],"[698, 392.5]",ColorTask,41.0,85.0,,,HRV,HRV_0133,2022-11-30 18:17:33
,wl-rdm,93,327559,0.0-6.85-0.85,0.0,94.0,,,,,,,[],,,,,,62.5,1.0,i,1.0,True,871.0,53.0,60.0,40.0,False,,281.9663580921557,[],"[698, 392.5]",ColorTask,42.0,86.0,,,HRV,HRV_0133,2022-11-30 18:17:33
,wl-rdm,94,329593,0.0-6.86-0.86,0.0,95.0,,,,,,,[],,,,,,56.4,1.0,u,0.0,False,684.8000000007451,42.0,60.0,40.0,False,,263.3186475151507,[],"[698, 392.5]",ColorTask,41.0,87.0,,,HRV,HRV_0133,2022-11-30 18:17:33
,wl-rdm,95,331409,0.0-6.87-0.87,0.0,96.0,,,,,,,[],,,,,,53.2,0.0,i,1.0,False,482.0999999977648,29.0,60.0,40.0,False,,270.16379721613896,[],"[698, 392.5]",ColorTask,40.0,88.0,,,HRV,HRV_0133,2022-11-30 18:17:33
,wl-rdm,96,333326,0.0-6.88-0.88,0.0,97.0,,,,,,,[],,,,,,50.0,1.0,i,1.0,True,505.5,31.0,60.0,40.0,False,,326.39351779781924,[],"[698, 392.5]",ColorTask,41.0,89.0,,,HRV,HRV_0133,2022-11-30 18:17:33
,wl-rdm,97,335643,0.0-6.89-0.89,0.0,98.0,,,,,,,[],,,,,,50.0,0.0,u,0.0,True,901.6999999992549,55.0,60.0,40.0,False,,327.84691776941514,[],"[698, 392.5]",ColorTask,42.0,90.0,,,HRV,HRV_0133,2022-11-30 18:17:33
,wl-rdm,98,337926,0.0-6.90-0.90,0.0,99.0,,,,,,,[],,,,,,56.4,0.0,u,0.0,True,913.2000000029802,55.0,60.0,40.0,False,,288.0397085421609,[],"[698, 392.5]",ColorTask,43.0,91.0,,,HRV,HRV_0133,2022-11-30 18:17:33
,wl-rdm,99,339859,0.0-6.91-0.91,0.0,100.0,,,,,,,[],,,,,,73.6,1.0,i,1.0,True,591.3999999985099,36.0,60.0,40.0,False,,277.2056365471493,[],"[698, 392.5]",ColorTask,44.0,92.0,,,HRV,HRV_0133,2022-11-30 18:17:33
,wl-rdm,100,341959,0.0-6.92-0.92,0.0,101.0,,,,,,,[],,,,,,73.6,0.0,u,0.0,True,804.1000000014901,49.0,60.0,40.0,False,,211.53537321602127,[],"[698, 392.5]",ColorTask,45.0,93.0,,,HRV,HRV_0133,2022-11-30 18:17:33
,wl-rdm,101,343976,0.0-6.93-0.93,0.0,102.0,,,,,,,[],,,,,,73.6,0.0,u,0.0,True,728.0999999977648,44.0,60.0,40.0,False,,213.15990634174372,[],"[698, 392.5]",ColorTask,46.0,94.0,,,HRV,HRV_0133,2022-11-30 18:17:33
,wl-rdm,102,345876,0.0-6.94-0.94,0.0,103.0,,,,,,,[],,,,,,87.9,0.0,u,0.0,True,581.4000000022352,35.0,60.0,40.0,False,,255.92563896063962,[],"[698, 392.5]",ColorTask,47.0,95.0,,,HRV,HRV_0133,2022-11-30 18:17:33
,wl-rdm,103,348043,0.0-6.95-0.95,0.0,104.0,,,,,,,[],,,,,,53.2,1.0,i,1.0,True,723.9000000022352,44.0,60.0,40.0,False,,378.7968705667173,[],"[698, 392.5]",ColorTask,48.0,96.0,,,HRV,HRV_0133,2022-11-30 18:17:33
,wl-rdm,104,349959,0.0-6.96-0.96,0.0,105.0,,,,,,,[],,,,,,53.2,1.0,i,1.0,True,622.3000000007451,38.0,60.0,40.0,False,,203.307936008684,[],"[698, 392.5]",ColorTask,49.0,97.0,,,HRV,HRV_0133,2022-11-30 18:17:33
,wl-rdm,105,352093,0.0-6.97-0.97,0.0,106.0,,,,,,,[],,,,,,62.5,1.0,i,1.0,True,754.6999999992549,46.0,60.0,40.0,False,,300.6341486235608,[],"[698, 392.5]",ColorTask,50.0,98.0,,,HRV,HRV_0133,2022-11-30 18:17:33
,wl-rdm,106,354309,0.0-6.98-0.98,0.0,107.0,,,,,,,[],,,,,,87.9,0.0,u,0.0,True,778.5,47.0,60.0,40.0,False,,373.62316634698897,[],"[698, 392.5]",ColorTask,51.0,99.0,,,HRV,HRV_0133,2022-11-30 18:17:33
,wl-rdm,107,356326,0.0-6.99-0.99,0.0,108.0,,,,,,,[],,,,,,53.2,0.0,i,1.0,False,729.2999999970198,44.0,60.0,40.0,False,,227.93568532440457,[],"[698, 392.5]",ColorTask,50.0,100.0,,,HRV,HRV_0133,2022-11-30 18:17:33
,wl-rdm,108,358226,0.0-6.100-0.100,0.0,109.0,,,,,,,[],,,,,,50.0,0.0,i,1.0,False,592.7000000029802,36.0,60.0,40.0,False,,219.57810689279026,[],"[698, 392.5]",ColorTask,49.0,101.0,,,HRV,HRV_0133,2022-11-30 18:17:33
,wl-rdm,109,360259,0.0-6.101-0.101,0.0,110.0,,,,,,,[],,,,,,87.9,1.0,i,1.0,True,585.3999999985099,36.0,60.0,40.0,False,,375.357799999777,[],"[698, 392.5]",ColorTask,50.0,102.0,,,HRV,HRV_0133,2022-11-30 18:17:33
,wl-rdm,110,362393,0.0-6.102-0.102,0.0,111.0,,,,,,,[],,,,,,56.4,1.0,u,0.0,False,703.0,43.0,60.0,40.0,False,,338.6303339040322,[],"[698, 392.5]",ColorTask,49.0,103.0,,,HRV,HRV_0133,2022-11-30 18:17:33
,wl-rdm,111,364143,0.0-6.103-0.103,0.0,112.0,,,,,,,[],,,,,,56.4,1.0,i,1.0,True,378.5999999977648,23.0,60.0,40.0,False,,296.3366902801139,[],"[698, 392.5]",ColorTask,50.0,104.0,,,HRV,HRV_0133,2022-11-30 18:17:33
,wl-rdm,112,366076,0.0-6.104-0.104,0.0,113.0,,,,,,,[],,,,,,62.5,1.0,i,1.0,True,538.8000000007451,33.0,60.0,40.0,False,,324.85476477798454,[],"[698, 392.5]",ColorTask,51.0,105.0,,,HRV,HRV_0133,2022-11-30 18:17:33
,wl-rdm,113,367993,0.0-6.105-0.105,0.0,114.0,,,,,,,[],,,,,,50.0,1.0,i,1.0,True,503.3999999985099,31.0,60.0,40.0,False,,333.3493593505808,[],"[698, 392.5]",ColorTask,52.0,106.0,,,HRV,HRV_0133,2022-11-30 18:17:33
,wl-rdm,114,369926,0.0-6.106-0.106,0.0,115.0,,,,,,,[],,,,,,56.4,0.0,u,0.0,True,644.6999999992549,39.0,60.0,40.0,False,,232.5091606001193,[],"[698, 392.5]",ColorTask,53.0,107.0,,,HRV,HRV_0133,2022-11-30 18:17:33
,wl-rdm,115,371743,0.0-6.107-0.107,0.0,116.0,,,,,,,[],,,,,,87.9,0.0,u,0.0,True,506.69999999552965,31.0,60.0,40.0,False,,223.3536880766853,[],"[698, 392.5]",ColorTask,54.0,108.0,,,HRV,HRV_0133,2022-11-30 18:17:33
,wl-html-keyboard-response,116,383158,0.0-7.0-0.0,1.0,117.0,,,,,,,,9408.39999999851,1.0,0,,,,,,,,,,,,,,,,,,,,,,HRV,HRV_0133,2022-11-30 18:17:33
,wl-rdm,117,386142,0.0-8.0-0.0,1.0,118.0,,,,,,,[],,,,,,62.5,1.0,u,0.0,False,1544.0999999977648,93.0,60.0,40.0,False,,381.0944322862406,[],"[698, 392.5]",ColorTask,53.0,1.0,,,HRV,HRV_0133,2022-11-30 18:17:33
,wl-rdm,118,388509,0.0-8.1-0.1,1.0,119.0,,,,,,,[],,,,,,50.0,0.0,i,1.0,False,988.9999999962747,60.0,60.0,40.0,False,,301.988849496814,[],"[698, 392.5]",ColorTask,52.0,2.0,,,HRV,HRV_0133,2022-11-30 18:17:33
,wl-rdm,119,391025,0.0-8.2-0.2,1.0,120.0,,,,,,,[],,,,,,87.9,0.0,u,0.0,True,1084.3999999985099,66.0,60.0,40.0,False,,340.6344968568958,[],"[698, 392.5]",ColorTask,53.0,3.0,,,HRV,HRV_0133,2022-11-30 18:17:33
,wl-rdm,120,392943,0.0-8.3-0.3,1.0,121.0,,,,,,,[],,,,,,50.0,1.0,i,1.0,True,636.2000000029802,39.0,60.0,40.0,False,,215.03560723466572,[],"[698, 392.5]",ColorTask,54.0,4.0,,,HRV,HRV_0133,2022-11-30 18:17:33
,wl-rdm,121,394909,0.0-8.4-0.4,1.0,122.0,,,,,,,[],,,,,,73.6,0.0,u,0.0,True,623.0,38.0,60.0,40.0,False,,254.55449291821535,[],"[698, 392.5]",ColorTask,55.0,5.0,,,HRV,HRV_0133,2022-11-30 18:17:33
,wl-rdm,122,396959,0.0-8.5-0.5,1.0,123.0,,,,,,,[],,,,,,50.0,1.0,u,0.0,False,763.3000000007451,46.0,60.0,40.0,False,,200.3005664764729,[],"[698, 392.5]",ColorTask,54.0,6.0,,,HRV,HRV_0133,2022-11-30 18:17:33
,wl-rdm,123,398826,0.0-8.6-0.6,1.0,124.0,,,,,,,[],,,,,,53.2,0.0,i,1.0,False,394.30000000074506,24.0,60.0,40.0,False,,386.93687606346214,[],"[698, 392.5]",ColorTask,53.0,7.0,,,HRV,HRV_0133,2022-11-30 18:17:33
,wl-rdm,124,401409,0.0-8.7-0.7,1.0,125.0,,,,,,,[],,,,,,53.2,1.0,i,1.0,True,1102.300000000745,67.0,60.0,40.0,False,,387.39176899028746,[],"[698, 392.5]",ColorTask,54.0,8.0,,,HRV,HRV_0133,2022-11-30 18:17:33
,wl-rdm,125,403609,0.0-8.8-0.8,1.0,126.0,,,,,,,[],,,,,,56.4,0.0,u,0.0,True,869.1000000014901,53.0,60.0,40.0,False,,245.73386187112104,[],"[698, 392.5]",ColorTask,55.0,9.0,,,HRV,HRV_0133,2022-11-30 18:17:33
,wl-rdm,126,405459,0.0-8.9-0.9,1.0,127.0,,,,,,,[],,,,,,87.9,1.0,i,1.0,True,524.3999999985099,32.0,60.0,40.0,False,,259.625890653941,[],"[698, 392.5]",ColorTask,56.0,10.0,,,HRV,HRV_0133,2022-11-30 18:17:33
,wl-rdm,127,407425,0.0-8.10-0.10,1.0,128.0,,,,,,,[],,,,,,73.6,0.0,u,0.0,True,677.3000000007451,41.0,60.0,40.0,False,,200.14180967507875,[],"[698, 392.5]",ColorTask,57.0,11.0,,,HRV,HRV_0133,2022-11-30 18:17:33
,wl-rdm,128,409459,0.0-8.11-0.11,1.0,129.0,,,,,,,[],,,,,,87.9,0.0,u,0.0,True,624.7999999970198,38.0,60.0,40.0,False,,328.18156337313775,[],"[698, 392.5]",ColorTask,58.0,12.0,,,HRV,HRV_0133,2022-11-30 18:17:33
,wl-rdm,129,411542,0.0-8.12-0.12,1.0,130.0,,,,,,,[],,,,,,62.5,1.0,i,1.0,True,672.1999999992549,41.0,60.0,40.0,False,,327.7276100825649,[],"[698, 392.5]",ColorTask,59.0,13.0,,,HRV,HRV_0133,2022-11-30 18:17:33
,wl-rdm,130,413542,0.0-8.13-0.13,1.0,131.0,,,,,,,[],,,,,,56.4,0.0,u,0.0,True,705.4000000022352,43.0,60.0,40.0,False,,202.37456459235818,[],"[698, 392.5]",ColorTask,60.0,14.0,,,HRV,HRV_0133,2022-11-30 18:17:33
,wl-rdm,131,415776,0.0-8.14-0.14,1.0,132.0,,,,,,,[],,,,,,50.0,0.0,i,1.0,False,945.1999999992549,57.0,60.0,40.0,False,,212.92444886306643,[],"[698, 392.5]",ColorTask,59.0,15.0,,,HRV,HRV_0133,2022-11-30 18:17:33
,wl-rdm,132,417726,0.0-8.15-0.15,1.0,133.0,,,,,,,[],,,,,,87.9,0.0,u,0.0,True,540.3000000007451,33.0,60.0,40.0,False,,319.5954905326066,[],"[698, 392.5]",ColorTask,60.0,16.0,,,HRV,HRV_0133,2022-11-30 18:17:33
,wl-rdm,133,419759,0.0-8.16-0.16,1.0,134.0,,,,,,,[],,,,,,56.4,1.0,u,0.0,False,712.5,43.0,60.0,40.0,False,,246.18298799609772,[],"[698, 392.5]",ColorTask,59.0,17.0,,,HRV,HRV_0133,2022-11-30 18:17:33
,wl-rdm,134,421810,0.0-8.17-0.17,1.0,135.0,,,,,,,[],,,,,,87.9,0.0,u,0.0,True,736.1000000014901,45.0,60.0,40.0,False,,231.4792165366892,[],"[698, 392.5]",ColorTask,60.0,18.0,,,HRV,HRV_0133,2022-11-30 18:17:33
,wl-rdm,135,423893,0.0-8.18-0.18,1.0,136.0,,,,,,,[],,,,,,50.0,1.0,u,0.0,False,774.0,47.0,60.0,40.0,False,,230.38821925174668,[],"[698, 392.5]",ColorTask,59.0,19.0,,,HRV,HRV_0133,2022-11-30 18:17:33
,wl-rdm,136,426476,0.0-8.19-0.19,1.0,137.0,,,,,,,[],,,,,,53.2,1.0,u,0.0,False,1266.0,76.0,60.0,40.0,False,,236.66523459134103,[],"[698, 392.5]",ColorTask,58.0,20.0,,,HRV,HRV_0133,2022-11-30 18:17:33
,wl-rdm,137,428593,0.0-8.20-0.20,1.0,138.0,,,,,,,[],,,,,,56.4,1.0,i,1.0,True,704.1999999992549,43.0,60.0,40.0,False,,319.25143119023835,[],"[698, 392.5]",ColorTask,59.0,21.0,,,HRV,HRV_0133,2022-11-30 18:17:33
,wl-rdm,138,430609,0.0-8.21-0.21,1.0,139.0,,,,,,,[],,,,,,73.6,0.0,u,0.0,True,719.8000000007451,44.0,60.0,40.0,False,,207.80925035884746,[],"[698, 392.5]",ColorTask,60.0,22.0,,,HRV,HRV_0133,2022-11-30 18:17:33
,wl-rdm,139,432759,0.0-8.22-0.22,1.0,140.0,,,,,,,[],,,,,,53.2,1.0,u,0.0,False,671.3000000007451,41.0,60.0,40.0,False,,385.32621832970034,[],"[698, 392.5]",ColorTask,59.0,23.0,,,HRV,HRV_0133,2022-11-30 18:17:33
,wl-rdm,140,434726,0.0-8.23-0.23,1.0,141.0,,,,,,,[],,,,,,87.9,0.0,u,0.0,True,622.8000000044703,38.0,60.0,40.0,False,,254.90151518899222,[],"[698, 392.5]",ColorTask,60.0,24.0,,,HRV,HRV_0133,2022-11-30 18:17:33
,wl-rdm,141,436576,0.0-8.24-0.24,1.0,142.0,,,,,,,[],,,,,,87.9,1.0,i,1.0,True,528.3000000007451,32.0,60.0,40.0,False,,255.01083514509014,[],"[698, 392.5]",ColorTask,61.0,25.0,,,HRV,HRV_0133,2022-11-30 18:17:33
,wl-rdm,142,438525,0.0-8.25-0.25,1.0,143.0,,,,,,,[],,,,,,56.4,0.0,i,1.0,False,489.20000000298023,30.0,60.0,40.0,False,,369.52827223995905,[],"[698, 392.5]",ColorTask,60.0,26.0,,,HRV,HRV_0133,2022-11-30 18:17:33
,wl-rdm,143,440993,0.0-8.26-0.26,1.0,144.0,,,,,,,[],,,,,,50.0,1.0,i,1.0,True,995.5,60.0,60.0,40.0,False,,387.0397792606224,[],"[698, 392.5]",ColorTask,61.0,27.0,,,HRV,HRV_0133,2022-11-30 18:17:33
,wl-rdm,144,443393,0.0-8.27-0.27,1.0,145.0,,,,,,,[],,,,,,53.2,0.0,i,1.0,False,1060.800000000745,64.0,60.0,40.0,False,,276.19871456424846,[],"[698, 392.5]",ColorTask,60.0,28.0,,,HRV,HRV_0133,2022-11-30 18:17:33
,wl-rdm,145,445309,0.0-8.28-0.28,1.0,146.0,,,,,,,[],,,,,,62.5,1.0,i,1.0,True,597.1999999992549,36.0,60.0,40.0,False,,263.75575096301276,[],"[698, 392.5]",ColorTask,61.0,29.0,,,HRV,HRV_0133,2022-11-30 18:17:33
,wl-rdm,146,447525,0.0-8.29-0.29,1.0,147.0,,,,,,,[],,,,,,56.4,0.0,i,1.0,False,780.6999999992549,47.0,60.0,40.0,False,,355.71804518753595,[],"[698, 392.5]",ColorTask,60.0,30.0,,,HRV,HRV_0133,2022-11-30 18:17:33
,wl-rdm,147,449626,0.0-8.30-0.30,1.0,148.0,,,,,,,[],,,,,,87.9,0.0,u,0.0,True,711.6999999992549,43.0,60.0,40.0,False,,301.6004979270303,[],"[698, 392.5]",ColorTask,61.0,31.0,,,HRV,HRV_0133,2022-11-30 18:17:33
,wl-rdm,148,451626,0.0-8.31-0.31,1.0,149.0,,,,,,,[],,,,,,50.0,1.0,u,0.0,False,678.7000000029802,41.0,60.0,40.0,False,,237.50390087361774,[],"[698, 392.5]",ColorTask,60.0,32.0,,,HRV,HRV_0133,2022-11-30 18:17:33
,wl-rdm,149,453876,0.0-8.32-0.32,1.0,150.0,,,,,,,[],,,,,,73.6,0.0,i,1.0,False,874.1999999992549,53.0,60.0,40.0,False,,291.9626251504236,[],"[698, 392.5]",ColorTask,59.0,33.0,,,HRV,HRV_0133,2022-11-30 18:17:33
,wl-rdm,150,455926,0.0-8.33-0.33,1.0,151.0,,,,,,,[],,,,,,56.4,0.0,u,0.0,True,730.5,44.0,60.0,40.0,False,,242.59077083846273,[],"[698, 392.5]",ColorTask,60.0,34.0,,,HRV,HRV_0133,2022-11-30 18:17:33
,wl-rdm,151,457876,0.0-8.34-0.34,1.0,152.0,,,,,,,[],,,,,,50.0,0.0,u,0.0,True,615.6999999992549,37.0,60.0,40.0,False,,258.0239602646322,[],"[698, 392.5]",ColorTask,61.0,35.0,,,HRV,HRV_0133,2022-11-30 18:17:33
,wl-rdm,152,460009,0.0-8.35-0.35,1.0,153.0,,,,,,,[],,,,,,50.0,1.0,u,0.0,False,844.1000000014901,51.0,60.0,40.0,False,,206.27006895945863,[],"[698, 392.5]",ColorTask,60.0,36.0,,,HRV,HRV_0133,2022-11-30 18:17:33
,wl-rdm,153,462159,0.0-8.36-0.36,1.0,154.0,,,,,,,[],,,,,,53.2,0.0,u,0.0,True,722.5,44.0,60.0,40.0,False,,344.2489286045037,[],"[698, 392.5]",ColorTask,61.0,37.0,,,HRV,HRV_0133,2022-11-30 18:17:33
,wl-rdm,154,464093,0.0-8.37-0.37,1.0,155.0,,,,,,,[],,,,,,73.6,1.0,i,1.0,True,621.4000000022352,38.0,60.0,40.0,False,,241.0335864156869,[],"[698, 392.5]",ColorTask,62.0,38.0,,,HRV,HRV_0133,2022-11-30 18:17:33
,wl-rdm,155,466193,0.0-8.38-0.38,1.0,156.0,,,,,,,[],,,,,,73.6,1.0,i,1.0,True,778.1000000014901,47.0,60.0,40.0,False,,234.92842998839765,[],"[698, 392.5]",ColorTask,63.0,39.0,,,HRV,HRV_0133,2022-11-30 18:17:33
,wl-rdm,156,468059,0.0-8.39-0.39,1.0,157.0,,,,,,,[],,,,,,56.4,1.0,i,1.0,True,541.6999999992549,33.0,60.0,40.0,False,,256.60455097065335,[],"[698, 392.5]",ColorTask,64.0,40.0,,,HRV,HRV_0133,2022-11-30 18:17:33
,wl-rdm,157,469943,0.0-8.40-0.40,1.0,158.0,,,,,,,[],,,,,,73.6,1.0,i,1.0,True,472.3999999985099,29.0,60.0,40.0,False,,339.7801118349003,[],"[698, 392.5]",ColorTask,65.0,41.0,,,HRV,HRV_0133,2022-11-30 18:17:33
,wl-rdm,158,471693,0.0-8.41-0.41,1.0,159.0,,,,,,,[],,,,,,73.6,1.0,i,1.0,True,423.20000000298023,26.0,60.0,40.0,False,,266.5422584871309,[],"[698, 392.5]",ColorTask,66.0,42.0,,,HRV,HRV_0133,2022-11-30 18:17:33
,wl-rdm,159,473559,0.0-8.42-0.42,1.0,160.0,,,,,,,[],,,,,,62.5,1.0,i,1.0,True,486.1000000014901,30.0,60.0,40.0,False,,310.29162952157253,[],"[698, 392.5]",ColorTask,67.0,43.0,,,HRV,HRV_0133,2022-11-30 18:17:33
,wl-rdm,160,475493,0.0-8.43-0.43,1.0,161.0,,,,,,,[],,,,,,56.4,0.0,u,0.0,True,591.0,36.0,60.0,40.0,False,,257.65700421280377,[],"[698, 392.5]",ColorTask,68.0,44.0,,,HRV,HRV_0133,2022-11-30 18:17:33
,wl-rdm,161,477709,0.0-8.44-0.44,1.0,162.0,,,,,,,[],,,,,,62.5,0.0,u,0.0,True,789.3000000044703,48.0,60.0,40.0,False,,358.8188329313127,[],"[698, 392.5]",ColorTask,69.0,45.0,,,HRV,HRV_0133,2022-11-30 18:17:33
,wl-rdm,162,479576,0.0-8.45-0.45,1.0,163.0,,,,,,,[],,,,,,73.6,0.0,u,0.0,True,594.1000000014901,36.0,60.0,40.0,False,,200.42482686741815,[],"[698, 392.5]",ColorTask,70.0,46.0,,,HRV,HRV_0133,2022-11-30 18:17:33
,wl-rdm,163,481459,0.0-8.46-0.46,1.0,164.0,,,,,,,[],,,,,,56.4,1.0,u,0.0,False,558.1999999955297,34.0,60.0,40.0,False,,254.35015088825892,[],"[698, 392.5]",ColorTask,69.0,47.0,,,HRV,HRV_0133,2022-11-30 18:17:33
,wl-rdm,164,483243,0.0-8.47-0.47,1.0,165.0,,,,,,,[],,,,,,62.5,1.0,i,1.0,True,393.1000000014901,24.0,60.0,40.0,False,,300.08661265998745,[],"[698, 392.5]",ColorTask,70.0,48.0,,,HRV,HRV_0133,2022-11-30 18:17:33
,wl-rdm,165,485076,0.0-8.48-0.48,1.0,166.0,,,,,,,[],,,,,,87.9,0.0,i,1.0,False,372.8999999985099,23.0,60.0,40.0,False,,386.8681644145174,[],"[698, 392.5]",ColorTask,69.0,49.0,,,HRV,HRV_0133,2022-11-30 18:17:33
,wl-rdm,166,487176,0.0-8.49-0.49,1.0,167.0,,,,,,,[],,,,,,53.2,0.0,u,0.0,True,702.9000000022352,43.0,60.0,40.0,False,,317.59918593388704,[],"[698, 392.5]",ColorTask,70.0,50.0,,,HRV,HRV_0133,2022-11-30 18:17:33
,wl-rdm,167,488893,0.0-8.50-0.50,1.0,168.0,,,,,,,[],,,,,,56.4,1.0,u,0.0,False,363.69999999925494,22.0,60.0,40.0,False,,295.45410066012545,[],"[698, 392.5]",ColorTask,69.0,51.0,,,HRV,HRV_0133,2022-11-30 18:17:33
,wl-rdm,168,490909,0.0-8.51-0.51,1.0,169.0,,,,,,,[],,,,,,62.5,0.0,i,1.0,False,607.8000000044703,37.0,60.0,40.0,False,,333.9176793217804,[],"[698, 392.5]",ColorTask,68.0,52.0,,,HRV,HRV_0133,2022-11-30 18:17:33
,wl-rdm,169,493176,0.0-8.52-0.52,1.0,170.0,,,,,,,[],,,,,,62.5,0.0,u,0.0,True,995.2000000029802,60.0,60.0,40.0,False,,211.68681111743973,[],"[698, 392.5]",ColorTask,69.0,53.0,,,HRV,HRV_0133,2022-11-30 18:17:33
,wl-rdm,170,495076,0.0-8.53-0.53,1.0,171.0,,,,,,,[],,,,,,73.6,1.0,u,0.0,False,464.69999999925494,28.0,60.0,40.0,False,,356.391182769539,[],"[698, 392.5]",ColorTask,68.0,54.0,,,HRV,HRV_0133,2022-11-30 18:17:33
,wl-rdm,171,496893,0.0-8.54-0.54,1.0,172.0,,,,,,,[],,,,,,53.2,0.0,i,1.0,False,439.4999999962747,27.0,60.0,40.0,False,,309.63095363710596,[],"[698, 392.5]",ColorTask,67.0,55.0,,,HRV,HRV_0133,2022-11-30 18:17:33
,wl-rdm,172,498776,0.0-8.55-0.55,1.0,173.0,,,,,,,[],,,,,,62.5,0.0,i,1.0,False,578.9000000022352,35.0,60.0,40.0,False,,229.6745559080683,[],"[698, 392.5]",ColorTask,66.0,56.0,,,HRV,HRV_0133,2022-11-30 18:17:33
,wl-rdm,173,501143,0.0-8.56-0.56,1.0,174.0,,,,,,,[],,,,,,87.9,1.0,i,1.0,True,989.1000000014901,60.0,60.0,40.0,False,,307.5351781923599,[],"[698, 392.5]",ColorTask,67.0,57.0,,,HRV,HRV_0133,2022-11-30 18:17:33
,wl-rdm,174,503093,0.0-8.57-0.57,1.0,175.0,,,,,,,[],,,,,,62.5,0.0,u,0.0,True,680.0,41.0,60.0,40.0,False,,214.68578042806695,[],"[698, 392.5]",ColorTask,68.0,58.0,,,HRV,HRV_0133,2022-11-30 18:17:33
,wl-rdm,175,505176,0.0-8.58-0.58,1.0,176.0,,,,,,,[],,,,,,73.6,0.0,u,0.0,True,721.6000000014901,44.0,60.0,40.0,False,,274.34511632736553,[],"[698, 392.5]",ColorTask,69.0,59.0,,,HRV,HRV_0133,2022-11-30 18:17:33
,wl-rdm,176,507109,0.0-8.59-0.59,1.0,177.0,,,,,,,[],,,,,,50.0,1.0,u,0.0,False,521.5,32.0,60.0,40.0,False,,350.0638153014669,[],"[698, 392.5]",ColorTask,68.0,60.0,,,HRV,HRV_0133,2022-11-30 18:17:33
,wl-rdm,177,508793,0.0-8.60-0.60,1.0,178.0,,,,,,,[],,,,,,73.6,1.0,i,1.0,True,362.5000000037253,22.0,60.0,40.0,False,,261.0879175363745,[],"[698, 392.5]",ColorTask,69.0,61.0,,,HRV,HRV_0133,2022-11-30 18:17:33
,wl-rdm,178,510476,0.0-8.61-0.61,1.0,179.0,,,,,,,[],,,,,,50.0,1.0,i,1.0,True,398.80000000074506,24.0,60.0,40.0,False,,226.95149806807515,[],"[698, 392.5]",ColorTask,70.0,62.0,,,HRV,HRV_0133,2022-11-30 18:17:33
,wl-rdm,179,512226,0.0-8.62-0.62,1.0,180.0,,,,,,,[],,,,,,56.4,1.0,i,1.0,True,427.6000000014901,26.0,60.0,40.0,False,,241.1104054609715,[],"[698, 392.5]",ColorTask,71.0,63.0,,,HRV,HRV_0133,2022-11-30 18:17:33
,wl-rdm,180,514125,0.0-8.63-0.63,1.0,181.0,,,,,,,[],,,,,,62.5,1.0,u,0.0,False,514.3999999985099,31.0,60.0,40.0,False,,309.4929485080596,[],"[698, 392.5]",ColorTask,70.0,64.0,,,HRV,HRV_0133,2022-11-30 18:17:33
,wl-rdm,181,516309,0.0-8.64-0.64,1.0,182.0,,,,,,,[],,,,,,50.0,0.0,i,1.0,False,821.0,50.0,60.0,40.0,False,,289.5472833244695,[],"[698, 392.5]",ColorTask,69.0,65.0,,,HRV,HRV_0133,2022-11-30 18:17:33
,wl-rdm,182,518976,0.0-8.65-0.65,1.0,183.0,,,,,,,[],,,,,,62.5,0.0,u,0.0,True,1296.5999999977648,78.0,60.0,40.0,False,,285.50071176523267,[],"[698, 392.5]",ColorTask,70.0,66.0,,,HRV,HRV_0133,2022-11-30 18:17:33
,wl-rdm,183,521226,0.0-8.66-0.66,1.0,184.0,,,,,,,[],,,,,,50.0,0.0,i,1.0,False,777.4000000022352,47.0,60.0,40.0,False,,388.53823098286136,[],"[698, 392.5]",ColorTask,69.0,67.0,,,HRV,HRV_0133,2022-11-30 18:17:33
,wl-rdm,184,522892,0.0-8.67-0.67,1.0,185.0,,,,,,,[],,,,,,50.0,0.0,u,0.0,True,398.5,24.0,60.0,40.0,False,,204.72839851235585,[],"[698, 392.5]",ColorTask,70.0,68.0,,,HRV,HRV_0133,2022-11-30 18:17:33
,wl-rdm,185,524709,0.0-8.68-0.68,1.0,186.0,,,,,,,[],,,,,,87.9,0.0,u,0.0,True,497.6000000014901,30.0,60.0,40.0,False,,238.55979767977774,[],"[698, 392.5]",ColorTask,71.0,69.0,,,HRV,HRV_0133,2022-11-30 18:17:33
,wl-rdm,186,526642,0.0-8.69-0.69,1.0,187.0,,,,,,,[],,,,,,87.9,1.0,i,1.0,True,526.4000000022352,32.0,60.0,40.0,False,,322.8197182886952,[],"[698, 392.5]",ColorTask,72.0,70.0,,,HRV,HRV_0133,2022-11-30 18:17:33
,wl-rdm,187,528609,0.0-8.70-0.70,1.0,188.0,,,,,,,[],,,,,,87.9,1.0,i,1.0,True,544.7999999970198,33.0,60.0,40.0,False,,334.4584240126844,[],"[698, 392.5]",ColorTask,73.0,71.0,,,HRV,HRV_0133,2022-11-30 18:17:33
,wl-rdm,188,530575,0.0-8.71-0.71,1.0,189.0,,,,,,,[],,,,,,53.2,1.0,i,1.0,True,536.2999999970198,33.0,60.0,40.0,False,,335.90114161173994,[],"[698, 392.5]",ColorTask,74.0,72.0,,,HRV,HRV_0133,2022-11-30 18:17:33
,wl-rdm,189,532642,0.0-8.72-0.72,1.0,190.0,,,,,,,[],,,,,,73.6,0.0,i,1.0,False,775.0,47.0,60.0,40.0,False,,227.40329121560012,[],"[698, 392.5]",ColorTask,73.0,73.0,,,HRV,HRV_0133,2022-11-30 18:17:33
,wl-rdm,190,534359,0.0-8.73-0.73,1.0,191.0,,,,,,,[],,,,,,62.5,1.0,i,1.0,True,395.0000000037253,24.0,60.0,40.0,False,,261.2473491580163,[],"[698, 392.5]",ColorTask,74.0,74.0,,,HRV,HRV_0133,2022-11-30 18:17:33
,wl-rdm,191,536292,0.0-8.74-0.74,1.0,192.0,,,,,,,[],,,,,,50.0,1.0,i,1.0,True,548.4000000022352,33.0,60.0,40.0,False,,327.5147026035219,[],"[698, 392.5]",ColorTask,75.0,75.0,,,HRV,HRV_0133,2022-11-30 18:17:33
,wl-rdm,192,538742,0.0-8.75-0.75,1.0,193.0,,,,,,,[],,,,,,62.5,0.0,i,1.0,False,996.1000000014901,60.0,60.0,40.0,False,,384.69919417518133,[],"[698, 392.5]",ColorTask,74.0,76.0,,,HRV,HRV_0133,2022-11-30 18:17:33
,wl-rdm,193,540826,0.0-8.76-0.76,1.0,194.0,,,,,,,[],,,,,,62.5,0.0,u,0.0,True,679.1999999992549,41.0,60.0,40.0,False,,320.7809128014605,[],"[698, 392.5]",ColorTask,75.0,77.0,,,HRV,HRV_0133,2022-11-30 18:17:33
,wl-rdm,194,542558,0.0-8.77-0.77,1.0,195.0,,,,,,,[],,,,,,53.2,0.0,u,0.0,True,414.69999999925494,25.0,60.0,40.0,False,,237.30494357117968,[],"[698, 392.5]",ColorTask,76.0,78.0,,,HRV,HRV_0133,2022-11-30 18:17:33
,wl-rdm,195,544225,0.0-8.78-0.78,1.0,196.0,,,,,,,[],,,,,,56.4,1.0,i,1.0,True,335.8999999985099,21.0,60.0,40.0,False,,238.48168733691668,[],"[698, 392.5]",ColorTask,77.0,79.0,,,HRV,HRV_0133,2022-11-30 18:17:33
,wl-rdm,196,546192,0.0-8.79-0.79,1.0,197.0,,,,,,,[],,,,,,87.9,0.0,u,0.0,True,628.3000000007451,38.0,60.0,40.0,False,,252.36622486079037,[],"[698, 392.5]",ColorTask,78.0,80.0,,,HRV,HRV_0133,2022-11-30 18:17:33
,wl-rdm,197,548292,0.0-8.80-0.80,1.0,198.0,,,,,,,[],,,,,,87.9,1.0,i,1.0,True,807.8000000044703,49.0,60.0,40.0,False,,200.13143847506106,[],"[698, 392.5]",ColorTask,79.0,81.0,,,HRV,HRV_0133,2022-11-30 18:17:33
,wl-rdm,198,550475,0.0-8.81-0.81,1.0,199.0,,,,,,,[],,,,,,53.2,0.0,i,1.0,False,775.6000000014901,47.0,60.0,40.0,False,,326.11588560847184,[],"[698, 392.5]",ColorTask,78.0,82.0,,,HRV,HRV_0133,2022-11-30 18:17:33
,wl-rdm,199,552525,0.0-8.82-0.82,1.0,200.0,,,,,,,[],,,,,,50.0,0.0,i,1.0,False,737.8999999947846,45.0,60.0,40.0,False,,245.68123248808647,[],"[698, 392.5]",ColorTask,77.0,83.0,,,HRV,HRV_0133,2022-11-30 18:17:33
,wl-rdm,200,554409,0.0-8.83-0.83,1.0,201.0,,,,,,,[],,,,,,73.6,1.0,u,0.0,False,418.0,26.0,60.0,40.0,False,,396.47229623107523,[],"[698, 392.5]",ColorTask,76.0,84.0,,,HRV,HRV_0133,2022-11-30 18:17:33
,wl-rdm,201,556075,0.0-8.84-0.84,1.0,202.0,,,,,,,[],,,,,,87.9,1.0,i,1.0,True,266.69999999552965,16.0,60.0,40.0,False,,318.75446471328524,[],"[698, 392.5]",ColorTask,77.0,85.0,,,HRV,HRV_0133,2022-11-30 18:17:33
,wl-rdm,202,557809,0.0-8.85-0.85,1.0,203.0,,,,,,,[],,,,,,53.2,0.0,i,1.0,False,353.0999999977648,22.0,60.0,40.0,False,,286.70630002998695,[],"[698, 392.5]",ColorTask,76.0,86.0,,,HRV,HRV_0133,2022-11-30 18:17:33
,wl-rdm,203,559475,0.0-8.86-0.86,1.0,204.0,,,,,,,[],,,,,,73.6,0.0,i,1.0,False,375.5,23.0,60.0,40.0,False,,208.89915611224126,[],"[698, 392.5]",ColorTask,75.0,87.0,,,HRV,HRV_0133,2022-11-30 18:17:33
,wl-rdm,204,561391,0.0-8.87-0.87,1.0,205.0,,,,,,,[],,,,,,53.2,1.0,u,0.0,False,454.0999999977648,28.0,60.0,40.0,False,,379.1048384072338,[],"[698, 392.5]",ColorTask,74.0,88.0,,,HRV,HRV_0133,2022-11-30 18:17:33
,wl-rdm,205,563325,0.0-8.88-0.88,1.0,206.0,,,,,,,[],,,,,,73.6,1.0,i,1.0,True,490.80000000074506,30.0,60.0,40.0,False,,355.3278344204423,[],"[698, 392.5]",ColorTask,75.0,89.0,,,HRV,HRV_0133,2022-11-30 18:17:33
,wl-rdm,206,565059,0.0-8.89-0.89,1.0,207.0,,,,,,,[],,,,,,53.2,1.0,i,1.0,True,340.20000000298023,21.0,60.0,40.0,False,,328.4274714374384,[],"[698, 392.5]",ColorTask,76.0,90.0,,,HRV,HRV_0133,2022-11-30 18:17:33
,wl-rdm,207,566892,0.0-8.90-0.90,1.0,208.0,,,,,,,[],,,,,,87.9,1.0,i,1.0,True,531.6999999992549,32.0,60.0,40.0,False,,248.0844754868689,[],"[698, 392.5]",ColorTask,77.0,91.0,,,HRV,HRV_0133,2022-11-30 18:17:33
,wl-rdm,208,568825,0.0-8.91-0.91,1.0,209.0,,,,,,,[],,,,,,62.5,1.0,i,1.0,True,460.69999999552965,28.0,60.0,40.0,False,,397.05238661480416,[],"[698, 392.5]",ColorTask,78.0,92.0,,,HRV,HRV_0133,2022-11-30 18:17:33
,wl-rdm,209,570524,0.0-8.92-0.92,1.0,210.0,,,,,,,[],,,,,,56.4,1.0,u,0.0,False,289.80000000074506,18.0,60.0,40.0,False,,325.42322372293734,[],"[698, 392.5]",ColorTask,77.0,93.0,,,HRV,HRV_0133,2022-11-30 18:17:33
,wl-rdm,210,572591,0.0-8.93-0.93,1.0,211.0,,,,,,,[],,,,,,53.2,0.0,u,0.0,True,769.3000000007451,47.0,60.0,40.0,False,,209.58479567978142,[],"[698, 392.5]",ColorTask,78.0,94.0,,,HRV,HRV_0133,2022-11-30 18:17:33
,wl-rdm,211,574592,0.0-8.94-0.94,1.0,212.0,,,,,,,[],,,,,,53.2,1.0,i,1.0,True,672.1000000014901,41.0,60.0,40.0,False,,245.3349596766035,[],"[698, 392.5]",ColorTask,79.0,95.0,,,HRV,HRV_0133,2022-11-30 18:17:33
,wl-rdm,212,576325,0.0-8.95-0.95,1.0,213.0,,,,,,,[],,,,,,56.4,0.0,i,1.0,False,404.4999999962747,25.0,60.0,40.0,False,,246.2299058219886,[],"[698, 392.5]",ColorTask,78.0,96.0,,,HRV,HRV_0133,2022-11-30 18:17:33
,wl-rdm,213,578175,0.0-8.96-0.96,1.0,214.0,,,,,,,[],,,,,,73.6,0.0,u,0.0,True,512.0000000037253,31.0,60.0,40.0,False,,277.21627378454986,[],"[698, 392.5]",ColorTask,79.0,97.0,,,HRV,HRV_0133,2022-11-30 18:17:33
,wl-rdm,214,580092,0.0-8.97-0.97,1.0,215.0,,,,,,,[],,,,,,62.5,0.0,i,1.0,False,505.9999999962747,31.0,60.0,40.0,False,,349.66497748994107,[],"[698, 392.5]",ColorTask,78.0,98.0,,,HRV,HRV_0133,2022-11-30 18:17:33
,wl-rdm,215,582042,0.0-8.98-0.98,1.0,216.0,,,,,,,[],,,,,,56.4,0.0,u,0.0,True,543.1999999955297,33.0,60.0,40.0,False,,323.27484127730844,[],"[698, 392.5]",ColorTask,79.0,99.0,,,HRV,HRV_0133,2022-11-30 18:17:33
,wl-rdm,216,584275,0.0-8.99-0.99,1.0,217.0,,,,,,,[],,,,,,53.2,1.0,i,1.0,True,768.3999999947846,47.0,60.0,40.0,False,,399.7712386232397,[],"[698, 392.5]",ColorTask,80.0,100.0,,,HRV,HRV_0133,2022-11-30 18:17:33
,wl-rdm,217,586724,0.0-8.100-0.100,1.0,218.0,,,,,,,[],,,,,,56.4,0.0,i,1.0,False,998.9999999962747,60.0,60.0,40.0,False,,379.36324137241184,[],"[698, 392.5]",ColorTask,79.0,101.0,,,HRV,HRV_0133,2022-11-30 18:17:33
,wl-rdm,218,588708,0.0-8.101-0.101,1.0,219.0,,,,,,,[],,,,,,56.4,1.0,i,1.0,True,532.3000000007451,32.0,60.0,40.0,False,,372.8342515553892,[],"[698, 392.5]",ColorTask,80.0,102.0,,,HRV,HRV_0133,2022-11-30 18:17:33
,wl-rdm,219,590742,0.0-8.102-0.102,1.0,220.0,,,,,,,[],,,,,,62.5,1.0,i,1.0,True,603.7999999970198,37.0,60.0,40.0,False,,359.2837534165808,[],"[698, 392.5]",ColorTask,81.0,103.0,,,HRV,HRV_0133,2022-11-30 18:17:33
,wl-rdm,220,592992,0.0-8.103-0.103,1.0,221.0,,,,,,,[],,,,,,50.0,0.0,u,0.0,True,845.3999999985099,51.0,60.0,40.0,False,,329.53637179910027,[],"[698, 392.5]",ColorTask,82.0,104.0,,,HRV,HRV_0133,2022-11-30 18:17:33
,wl-rdm,221,595008,0.0-8.104-0.104,1.0,222.0,,,,,,,[],,,,,,53.2,1.0,u,0.0,False,661.4000000022352,40.0,60.0,40.0,False,,281.3644292645955,[],"[698, 392.5]",ColorTask,81.0,105.0,,,HRV,HRV_0133,2022-11-30 18:17:33
,wl-rdm,222,596725,0.0-8.105-0.105,1.0,223.0,,,,,,,[],,,,,,73.6,1.0,i,1.0,True,406.79999999701977,25.0,60.0,40.0,False,,224.5160619492247,[],"[698, 392.5]",ColorTask,82.0,106.0,,,HRV,HRV_0133,2022-11-30 18:17:33
,wl-rdm,223,598591,0.0-8.106-0.106,1.0,224.0,,,,,,,[],,,,,,50.0,0.0,i,1.0,False,468.79999999701977,29.0,60.0,40.0,False,,317.9144698155733,[],"[698, 392.5]",ColorTask,81.0,107.0,,,HRV,HRV_0133,2022-11-30 18:17:33
,wl-rdm,224,600535,0.0-8.107-0.107,1.0,225.0,,,,,,,[],,,,,,87.9,1.0,u,0.0,False,514.6999999992549,31.0,60.0,40.0,False,,338.5379064780099,[],"[698, 392.5]",ColorTask,80.0,108.0,,,HRV,HRV_0133,2022-11-30 18:17:33
,wl-html-button-response,225,603300,0.0-9.0-0.0,,,,,,,,,,2762.800000000745,,0,,,,,,,,,,,,,,,,,,,,<h3>End of this session. Thank you!</h3><br>,['Close window'],HRV,HRV_0133,2022-11-30 18:17:33
