trialN,stimuli,trialStartTime,trialStartTime_UNIX,stimulus1,stimulus2,stimulus1Bid,stimulus2Bid,delta,selected,rt,rt_UNIX,rt_perfnow,receivedResponse,rsp,trialEndTime,trialDuration,trialEndTime_UNIX,trialDuration_UNIX,exp,subjectId,date
0,"[{'imgObject': {}, 'id': 'corn cob', 'src': '/static/foodstim60/corn cob.jpg', 'key': 'u', 'origWidth': 411, 'origHeight': 411, 'width': 411, 'height': 411, 'widthPercent': 0.45, 'rescaleHeight': False, 'trialN': 0, 'loaded': True, 'loadedTime': 2587.599999997765, 'positionName': 'LEFT', 'positionCoords': [259.08, 187], 'bid': 8.78}, {'imgObject': {}, 'id': 'rigatoni and sauce', 'src': '/static/foodstim60/rigatoni and sauce.jpg', 'key': 'i', 'origWidth': 410, 'origHeight': 411, 'width': 410, 'height': 411, 'widthPercent': 0.45, 'rescaleHeight': False, 'trialN': 0, 'loaded': True, 'loadedTime': 2645, 'positionName': 'RIGHT', 'positionCoords': [725.92, 187], 'bid': 8.98}]",2892.699999999255,1669831333047,corn cob,rigatoni and sauce,8.78,8.98,0.20000000000000107,corn cob,2330.39999999851,2331,2330.89999999851,True,u,5730.699999999255,2838.0,1669831335885,2838,HRV,HRV_0133,2022-11-30 18:07:23
1,"[{'imgObject': {}, 'id': 'Tribe humus pita', 'src': '/static/foodstim60/Tribe humus pita.jpg', 'key': 'u', 'origWidth': 411, 'origHeight': 411, 'width': 411, 'height': 411, 'widthPercent': 0.45, 'rescaleHeight': False, 'trialN': 1, 'loaded': True, 'loadedTime': 2653.099999997765, 'positionName': 'LEFT', 'positionCoords': [259.08, 187], 'bid': 2.79}, {'imgObject': {}, 'id': 'raspberries', 'src': '/static/foodstim60/raspberries.jpg', 'key': 'i', 'origWidth': 411, 'origHeight': 411, 'width': 411, 'height': 411, 'widthPercent': 0.45, 'rescaleHeight': False, 'trialN': 1, 'loaded': True, 'loadedTime': 2659.099999997765, 'positionName': 'RIGHT', 'positionCoords': [725.92, 187], 'bid': 3.33}]",5730.89999999851,1669831335886,Tribe humus pita,raspberries,2.79,3.33,0.54,Tribe humus pita,1764.300000000745,1764,1764.6000000014901,True,u,8002.699999999255,2271.800000000745,1669831338157,2271,HRV,HRV_0133,2022-11-30 18:07:23
2,"[{'imgObject': {}, 'id': 'bagel and cc', 'src': '/static/foodstim60/bagel and cc.jpg', 'key': 'u', 'origWidth': 410, 'origHeight': 410, 'width': 410, 'height': 410, 'widthPercent': 0.45, 'rescaleHeight': False, 'trialN': 2, 'loaded': True, 'loadedTime': 2660.699999999255, 'positionName': 'LEFT', 'positionCoords': [260.08, 187.5], 'bid': 6.7}, {'imgObject': {}, 'id': 'cherries', 'src': '/static/foodstim60/cherries.jpg', 'key': 'i', 'origWidth': 410, 'origHeight': 411, 'width': 410, 'height': 411, 'widthPercent': 0.45, 'rescaleHeight': False, 'trialN': 2, 'loaded': True, 'loadedTime': 2665.5, 'positionName': 'RIGHT', 'positionCoords': [725.92, 187], 'bid': 6.57}]",8002.800000000745,1669831338158,bagel and cc,cherries,6.7,6.57,-0.1299999999999999,cherries,1564.2999999970198,1564,1564.699999999255,True,i,10074.39999999851,2071.599999997765,1669831340229,2071,HRV,HRV_0133,2022-11-30 18:07:23
3,"[{'imgObject': {}, 'id': 'seaweed', 'src': '/static/foodstim60/seaweed.jpg', 'key': 'u', 'origWidth': 410, 'origHeight': 410, 'width': 410, 'height': 410, 'widthPercent': 0.45, 'rescaleHeight': False, 'trialN': 3, 'loaded': True, 'loadedTime': 2672.300000000745, 'positionName': 'LEFT', 'positionCoords': [260.08, 187.5], 'bid': 1.11}, {'imgObject': {}, 'id': 'blueberries', 'src': '/static/foodstim60/blueberries.jpg', 'key': 'i', 'origWidth': 411, 'origHeight': 411, 'width': 411, 'height': 411, 'widthPercent': 0.45, 'rescaleHeight': False, 'trialN': 3, 'loaded': True, 'loadedTime': 2674.699999999255, 'positionName': 'RIGHT', 'positionCoords': [725.92, 187], 'bid': 1.4}]",10074.599999997765,1669831340229,seaweed,blueberries,1.11,1.4,0.2899999999999998,blueberries,1159.1000000014901,1160,1159.7000000029802,True,i,11738.0,1663.4000000022352,1669831341893,1664,HRV,HRV_0133,2022-11-30 18:07:23
4,"[{'imgObject': {}, 'id': 'bagel plain', 'src': '/static/foodstim60/bagel plain.jpg', 'key': 'u', 'origWidth': 410, 'origHeight': 410, 'width': 410, 'height': 410, 'widthPercent': 0.45, 'rescaleHeight': False, 'trialN': 4, 'loaded': True, 'loadedTime': 2683.199999999255, 'positionName': 'LEFT', 'positionCoords': [260.08, 187.5], 'bid': 6.69}, {'imgObject': {}, 'id': 'chickenfingers', 'src': '/static/foodstim60/chickenfingers.jpg', 'key': 'i', 'origWidth': 410, 'origHeight': 410, 'width': 410, 'height': 410, 'widthPercent': 0.45, 'rescaleHeight': False, 'trialN': 4, 'loaded': True, 'loadedTime': 2683.599999997765, 'positionName': 'RIGHT', 'positionCoords': [725.92, 187.5], 'bid': 6.46}]",11738.300000000745,1669831341893,bagel plain,chickenfingers,6.69,6.46,-0.23000000000000043,chickenfingers,1237.5,1238,1237.7999999970198,True,i,13481.699999999255,1743.3999999985099,1669831343636,1743,HRV,HRV_0133,2022-11-30 18:07:23
5,"[{'imgObject': {}, 'id': 'cherry tomato', 'src': '/static/foodstim60/cherry tomato.jpg', 'key': 'u', 'origWidth': 410, 'origHeight': 410, 'width': 410, 'height': 410, 'widthPercent': 0.45, 'rescaleHeight': False, 'trialN': 5, 'loaded': True, 'loadedTime': 2687.5, 'positionName': 'LEFT', 'positionCoords': [260.08, 187.5], 'bid': 1.8}, {'imgObject': {}, 'id': 'eggs', 'src': '/static/foodstim60/eggs.jpg', 'key': 'i', 'origWidth': 409, 'origHeight': 409, 'width': 409, 'height': 409, 'widthPercent': 0.45, 'rescaleHeight': False, 'trialN': 5, 'loaded': True, 'loadedTime': 2688.89999999851, 'positionName': 'RIGHT', 'positionCoords': [725.92, 188], 'bid': 1.71}]",13481.800000000745,1669831343637,cherry tomato,eggs,1.8,1.71,-0.09000000000000008,eggs,1941.699999999255,1942,1942.0,True,i,15929.599999997765,2447.7999999970198,1669831346084,2447,HRV,HRV_0133,2022-11-30 18:07:23
6,"[{'imgObject': {}, 'id': 'popsicles', 'src': '/static/foodstim60/popsicles.jpg', 'key': 'u', 'origWidth': 410, 'origHeight': 410, 'width': 410, 'height': 410, 'widthPercent': 0.45, 'rescaleHeight': False, 'trialN': 6, 'loaded': True, 'loadedTime': 2693, 'positionName': 'LEFT', 'positionCoords': [260.08, 187.5], 'bid': 1.07}, {'imgObject': {}, 'id': 'roastedpotatoes', 'src': '/static/foodstim60/roastedpotatoes.jpg', 'key': 'i', 'origWidth': 409, 'origHeight': 410, 'width': 409, 'height': 410, 'widthPercent': 0.45, 'rescaleHeight': False, 'trialN': 6, 'loaded': True, 'loadedTime': 2700.199999999255, 'positionName': 'RIGHT', 'positionCoords': [725.92, 187.5], 'bid': 6.2}]",15929.89999999851,1669831346085,popsicles,roastedpotatoes,1.07,6.2,5.13,roastedpotatoes,1470.9000000022352,1471,1471.5,True,i,17905.199999999255,1975.300000000745,1669831348060,1975,HRV,HRV_0133,2022-11-30 18:07:23
7,"[{'imgObject': {}, 'id': 'apple slices', 'src': '/static/foodstim60/apple slices.jpg', 'key': 'u', 'origWidth': 409, 'origHeight': 410, 'width': 409, 'height': 410, 'widthPercent': 0.45, 'rescaleHeight': False, 'trialN': 7, 'loaded': True, 'loadedTime': 2722.699999999255, 'positionName': 'LEFT', 'positionCoords': [261.08, 187.5], 'bid': 9.92}, {'imgObject': {}, 'id': 'orange slices', 'src': '/static/foodstim60/orange slices.jpg', 'key': 'i', 'origWidth': 409, 'origHeight': 410, 'width': 409, 'height': 410, 'widthPercent': 0.45, 'rescaleHeight': False, 'trialN': 7, 'loaded': True, 'loadedTime': 2724.599999997765, 'positionName': 'RIGHT', 'positionCoords': [725.92, 187.5], 'bid': 9.11}]",17905.5,1669831348060,apple slices,orange slices,9.92,9.11,-0.8100000000000005,apple slices,1423.300000000745,1424,1423.8999999985099,True,u,19833.699999999255,1928.199999999255,1669831349988,1928,HRV,HRV_0133,2022-11-30 18:07:23
8,"[{'imgObject': {}, 'id': 'roastedpotatoes', 'src': '/static/foodstim60/roastedpotatoes.jpg', 'key': 'u', 'origWidth': 409, 'origHeight': 410, 'width': 409, 'height': 410, 'widthPercent': 0.45, 'rescaleHeight': False, 'trialN': 8, 'loaded': True, 'loadedTime': 2700.300000000745, 'positionName': 'LEFT', 'positionCoords': [261.08, 187.5], 'bid': 6.2}, {'imgObject': {}, 'id': 'corn cob', 'src': '/static/foodstim60/corn cob.jpg', 'key': 'i', 'origWidth': 411, 'origHeight': 411, 'width': 411, 'height': 411, 'widthPercent': 0.45, 'rescaleHeight': False, 'trialN': 8, 'loaded': True, 'loadedTime': 2587.89999999851, 'positionName': 'RIGHT', 'positionCoords': [725.92, 187], 'bid': 8.78}]",19833.89999999851,1669831349989,roastedpotatoes,corn cob,6.2,8.78,2.579999999999999,corn cob,1238.5,1238,1238.800000000745,True,i,21577.800000000745,1743.9000000022352,1669831351732,1743,HRV,HRV_0133,2022-11-30 18:07:23
9,"[{'imgObject': {}, 'id': 'olives', 'src': '/static/foodstim60/olives.jpg', 'key': 'u', 'origWidth': 410, 'origHeight': 410, 'width': 410, 'height': 410, 'widthPercent': 0.45, 'rescaleHeight': False, 'trialN': 9, 'loaded': True, 'loadedTime': 2726.099999997765, 'positionName': 'LEFT', 'positionCoords': [260.08, 187.5], 'bid': 0.1}, {'imgObject': {}, 'id': 'luckycharms', 'src': '/static/foodstim60/luckycharms.jpg', 'key': 'i', 'origWidth': 410, 'origHeight': 409, 'width': 410, 'height': 409, 'widthPercent': 0.45, 'rescaleHeight': False, 'trialN': 9, 'loaded': True, 'loadedTime': 2729.5, 'positionName': 'RIGHT', 'positionCoords': [725.92, 188], 'bid': 4.58}]",21578.0,1669831351733,olives,luckycharms,0.1,4.58,4.48,luckycharms,1079.699999999255,1080,1080.3999999985099,True,i,23162.0,1584.0,1669831353317,1584,HRV,HRV_0133,2022-11-30 18:07:23
10,"[{'imgObject': {}, 'id': 'salad w chicken', 'src': '/static/foodstim60/salad w chicken.jpg', 'key': 'u', 'origWidth': 411, 'origHeight': 411, 'width': 411, 'height': 411, 'widthPercent': 0.45, 'rescaleHeight': False, 'trialN': 10, 'loaded': True, 'loadedTime': 2733.599999997765, 'positionName': 'LEFT', 'positionCoords': [259.08, 187], 'bid': 2.44}, {'imgObject': {}, 'id': 'edamame', 'src': '/static/foodstim60/edamame.jpg', 'key': 'i', 'origWidth': 409, 'origHeight': 410, 'width': 409, 'height': 410, 'widthPercent': 0.45, 'rescaleHeight': False, 'trialN': 10, 'loaded': True, 'loadedTime': 2737.800000000745, 'positionName': 'RIGHT', 'positionCoords': [725.92, 187.5], 'bid': 2.63}]",23162.39999999851,1669831353317,salad w chicken,edamame,2.44,2.63,0.18999999999999995,salad w chicken,1238.300000000745,1239,1238.800000000745,True,u,24905.300000000745,1742.9000000022352,1669831355060,1743,HRV,HRV_0133,2022-11-30 18:07:23
11,"[{'imgObject': {}, 'id': 'cantaloupe', 'src': '/static/foodstim60/cantaloupe.jpg', 'key': 'u', 'origWidth': 409, 'origHeight': 409, 'width': 409, 'height': 409, 'widthPercent': 0.45, 'rescaleHeight': False, 'trialN': 11, 'loaded': True, 'loadedTime': 2750.699999999255, 'positionName': 'LEFT', 'positionCoords': [261.08, 188], 'bid': 8.33}, {'imgObject': {}, 'id': 'burrito', 'src': '/static/foodstim60/burrito.jpg', 'key': 'i', 'origWidth': 410, 'origHeight': 410, 'width': 410, 'height': 410, 'widthPercent': 0.45, 'rescaleHeight': False, 'trialN': 11, 'loaded': True, 'loadedTime': 2753.699999999255, 'positionName': 'RIGHT', 'positionCoords': [725.92, 187.5], 'bid': 7.63}]",24905.599999997765,1669831355060,cantaloupe,burrito,8.33,7.63,-0.7000000000000002,cantaloupe,1176.4000000022352,1177,1176.800000000745,True,u,26585.599999997765,1680.0,1669831356740,1680,HRV,HRV_0133,2022-11-30 18:07:23
12,"[{'imgObject': {}, 'id': 'steak', 'src': '/static/foodstim60/steak.jpg', 'key': 'u', 'origWidth': 410, 'origHeight': 410, 'width': 410, 'height': 410, 'widthPercent': 0.45, 'rescaleHeight': False, 'trialN': 12, 'loaded': True, 'loadedTime': 2757, 'positionName': 'LEFT', 'positionCoords': [260.08, 187.5], 'bid': 7.0200000000000005}, {'imgObject': {}, 'id': 'mac & cheese', 'src': '/static/foodstim60/mac & cheese.jpg', 'key': 'i', 'origWidth': 410, 'origHeight': 410, 'width': 410, 'height': 410, 'widthPercent': 0.45, 'rescaleHeight': False, 'trialN': 12, 'loaded': True, 'loadedTime': 2767.199999999255, 'positionName': 'RIGHT', 'positionCoords': [725.92, 187.5], 'bid': 8.88}]",26586.0,1669831356741,steak,mac & cheese,7.0200000000000005,8.88,1.8600000000000003,mac & cheese,878.8000000007451,879,879.1999999992549,True,i,27970.199999999255,1384.199999999255,1669831358125,1384,HRV,HRV_0133,2022-11-30 18:07:23
13,"[{'imgObject': {}, 'id': 'seaweed', 'src': '/static/foodstim60/seaweed.jpg', 'key': 'u', 'origWidth': 410, 'origHeight': 410, 'width': 410, 'height': 410, 'widthPercent': 0.45, 'rescaleHeight': False, 'trialN': 13, 'loaded': True, 'loadedTime': 2669.099999997765, 'positionName': 'LEFT', 'positionCoords': [260.08, 187.5], 'bid': 1.11}, {'imgObject': {}, 'id': 'lox', 'src': '/static/foodstim60/lox.jpg', 'key': 'i', 'origWidth': 410, 'origHeight': 411, 'width': 410, 'height': 411, 'widthPercent': 0.45, 'rescaleHeight': False, 'trialN': 13, 'loaded': True, 'loadedTime': 2768.5, 'positionName': 'RIGHT', 'positionCoords': [725.92, 187], 'bid': 3.39}]",27970.5,1669831358126,seaweed,lox,1.11,3.39,2.2800000000000002,lox,1390.3999999985099,1390,1390.8999999985099,True,i,29865.5,1895.0,1669831360021,1895,HRV,HRV_0133,2022-11-30 18:07:23
14,"[{'imgObject': {}, 'id': 'strawberries', 'src': '/static/foodstim60/strawberries.jpg', 'key': 'u', 'origWidth': 410, 'origHeight': 410, 'width': 410, 'height': 410, 'widthPercent': 0.45, 'rescaleHeight': False, 'trialN': 14, 'loaded': True, 'loadedTime': 2779.39999999851, 'positionName': 'LEFT', 'positionCoords': [260.08, 187.5], 'bid': 9.67}, {'imgObject': {}, 'id': 'burrito', 'src': '/static/foodstim60/burrito.jpg', 'key': 'i', 'origWidth': 410, 'origHeight': 410, 'width': 410, 'height': 410, 'widthPercent': 0.45, 'rescaleHeight': False, 'trialN': 14, 'loaded': True, 'loadedTime': 2754.89999999851, 'positionName': 'RIGHT', 'positionCoords': [725.92, 187.5], 'bid': 7.63}]",29865.699999999255,1669831360021,strawberries,burrito,9.67,7.63,-2.04,strawberries,1159.0,1159,1159.6000000014901,True,u,31529.599999997765,1663.8999999985099,1669831361685,1664,HRV,HRV_0133,2022-11-30 18:07:23
15,"[{'imgObject': {}, 'id': 'salmon', 'src': '/static/foodstim60/salmon.jpg', 'key': 'u', 'origWidth': 410, 'origHeight': 409, 'width': 410, 'height': 409, 'widthPercent': 0.45, 'rescaleHeight': False, 'trialN': 15, 'loaded': True, 'loadedTime': 2782.800000000745, 'positionName': 'LEFT', 'positionCoords': [260.08, 188], 'bid': 7.36}, {'imgObject': {}, 'id': 'chicken nuggets2', 'src': '/static/foodstim60/chicken nuggets2.jpg', 'key': 'i', 'origWidth': 410, 'origHeight': 409, 'width': 410, 'height': 409, 'widthPercent': 0.45, 'rescaleHeight': False, 'trialN': 15, 'loaded': True, 'loadedTime': 2784.5, 'positionName': 'RIGHT', 'positionCoords': [725.92, 188], 'bid': 9.16}]",31529.800000000745,1669831361685,salmon,chicken nuggets2,7.36,9.16,1.7999999999999998,chicken nuggets2,1296.0999999977648,1296,1296.5999999977648,True,i,33329.599999997765,1799.7999999970198,1669831363485,1800,HRV,HRV_0133,2022-11-30 18:07:23
16,"[{'imgObject': {}, 'id': 'sushi w_condiments', 'src': '/static/foodstim60/sushi w_condiments.jpg', 'key': 'u', 'origWidth': 410, 'origHeight': 410, 'width': 410, 'height': 410, 'widthPercent': 0.45, 'rescaleHeight': False, 'trialN': 16, 'loaded': True, 'loadedTime': 2799.800000000745, 'positionName': 'LEFT', 'positionCoords': [260.08, 187.5], 'bid': 0.45}, {'imgObject': {}, 'id': 'hotdog w must', 'src': '/static/foodstim60/hotdog w must.jpg', 'key': 'i', 'origWidth': 409, 'origHeight': 409, 'width': 409, 'height': 409, 'widthPercent': 0.45, 'rescaleHeight': False, 'trialN': 16, 'loaded': True, 'loadedTime': 2804, 'positionName': 'RIGHT', 'positionCoords': [725.92, 188], 'bid': 5.8}]",33329.800000000745,1669831363485,sushi w_condiments,hotdog w must,0.45,5.8,5.35,hotdog w must,1206.8999999985099,1207,1207.3999999985099,True,i,35041.89999999851,1712.0999999977648,1669831365197,1712,HRV,HRV_0133,2022-11-30 18:07:23
17,"[{'imgObject': {}, 'id': 'chicken nuggets2', 'src': '/static/foodstim60/chicken nuggets2.jpg', 'key': 'u', 'origWidth': 410, 'origHeight': 409, 'width': 410, 'height': 409, 'widthPercent': 0.45, 'rescaleHeight': False, 'trialN': 17, 'loaded': True, 'loadedTime': 2785.099999997765, 'positionName': 'LEFT', 'positionCoords': [260.08, 188], 'bid': 9.16}, {'imgObject': {}, 'id': 'bagel plain', 'src': '/static/foodstim60/bagel plain.jpg', 'key': 'i', 'origWidth': 410, 'origHeight': 410, 'width': 410, 'height': 410, 'widthPercent': 0.45, 'rescaleHeight': False, 'trialN': 17, 'loaded': True, 'loadedTime': 2682.800000000745, 'positionName': 'RIGHT', 'positionCoords': [725.92, 187.5], 'bid': 6.69}]",35042.099999997765,1669831365197,chicken nuggets2,bagel plain,9.16,6.69,-2.4699999999999998,chicken nuggets2,1405.0,1405,1405.300000000745,True,u,36954.0,1911.9000000022352,1669831367109,1912,HRV,HRV_0133,2022-11-30 18:07:23
18,"[{'imgObject': {}, 'id': 'turkeysandwich', 'src': '/static/foodstim60/turkeysandwich.jpg', 'key': 'u', 'origWidth': 409, 'origHeight': 409, 'width': 409, 'height': 409, 'widthPercent': 0.45, 'rescaleHeight': False, 'trialN': 18, 'loaded': True, 'loadedTime': 2807.199999999255, 'positionName': 'LEFT', 'positionCoords': [261.08, 188], 'bid': 7.32}, {'imgObject': {}, 'id': 'steak', 'src': '/static/foodstim60/steak.jpg', 'key': 'i', 'origWidth': 410, 'origHeight': 410, 'width': 410, 'height': 410, 'widthPercent': 0.45, 'rescaleHeight': False, 'trialN': 18, 'loaded': True, 'loadedTime': 2758.39999999851, 'positionName': 'RIGHT', 'positionCoords': [725.92, 187.5], 'bid': 7.0200000000000005}]",36954.199999999255,1669831367109,turkeysandwich,steak,7.32,7.0200000000000005,-0.2999999999999998,turkeysandwich,1092.699999999255,1093,1093.0,True,u,38554.300000000745,1600.1000000014901,1669831368709,1600,HRV,HRV_0133,2022-11-30 18:07:23
19,"[{'imgObject': {}, 'id': 'eggs', 'src': '/static/foodstim60/eggs.jpg', 'key': 'u', 'origWidth': 409, 'origHeight': 409, 'width': 409, 'height': 409, 'widthPercent': 0.45, 'rescaleHeight': False, 'trialN': 19, 'loaded': True, 'loadedTime': 2689.599999997765, 'positionName': 'LEFT', 'positionCoords': [261.08, 188], 'bid': 1.71}, {'imgObject': {}, 'id': 'veggieswithdip', 'src': '/static/foodstim60/veggieswithdip.jpg', 'key': 'i', 'origWidth': 409, 'origHeight': 409, 'width': 409, 'height': 409, 'widthPercent': 0.45, 'rescaleHeight': False, 'trialN': 19, 'loaded': True, 'loadedTime': 2808.599999997765, 'positionName': 'RIGHT', 'positionCoords': [725.92, 188], 'bid': 2.89}]",38554.39999999851,1669831368709,eggs,veggieswithdip,1.71,2.89,1.1800000000000002,eggs,1788.800000000745,1790,1789.1000000014901,True,u,40849.800000000745,2295.400000002235,1669831371005,2296,HRV,HRV_0133,2022-11-30 18:07:23
20,"[{'imgObject': {}, 'id': 'rigatoni', 'src': '/static/foodstim60/rigatoni.jpg', 'key': 'u', 'origWidth': 411, 'origHeight': 411, 'width': 411, 'height': 411, 'widthPercent': 0.45, 'rescaleHeight': False, 'trialN': 20, 'loaded': True, 'loadedTime': 2815, 'positionName': 'LEFT', 'positionCoords': [259.08, 187], 'bid': 7.36}, {'imgObject': {}, 'id': 'chickenfingers', 'src': '/static/foodstim60/chickenfingers.jpg', 'key': 'i', 'origWidth': 410, 'origHeight': 410, 'width': 410, 'height': 410, 'widthPercent': 0.45, 'rescaleHeight': False, 'trialN': 20, 'loaded': True, 'loadedTime': 2685.599999997765, 'positionName': 'RIGHT', 'positionCoords': [725.92, 187.5], 'bid': 6.46}]",40850.0,1669831371005,rigatoni,chickenfingers,7.36,6.46,-0.9000000000000004,rigatoni,1719.8999999985099,1721,1720.5,True,u,43072.89999999851,2222.89999999851,1669831373228,2223,HRV,HRV_0133,2022-11-30 18:07:23
21,"[{'imgObject': {}, 'id': 'cocktailshrimp', 'src': '/static/foodstim60/cocktailshrimp.jpg', 'key': 'u', 'origWidth': 410, 'origHeight': 410, 'width': 410, 'height': 410, 'widthPercent': 0.45, 'rescaleHeight': False, 'trialN': 21, 'loaded': True, 'loadedTime': 2818.5, 'positionName': 'LEFT', 'positionCoords': [260.08, 187.5], 'bid': 6.03}, {'imgObject': {}, 'id': 'Grapes', 'src': '/static/foodstim60/Grapes.jpg', 'key': 'i', 'origWidth': 411, 'origHeight': 411, 'width': 411, 'height': 411, 'widthPercent': 0.45, 'rescaleHeight': False, 'trialN': 21, 'loaded': True, 'loadedTime': 2820.39999999851, 'positionName': 'RIGHT', 'positionCoords': [725.92, 187], 'bid': 8.51}]",43073.199999999255,1669831373228,cocktailshrimp,Grapes,6.03,8.51,2.4799999999999995,Grapes,958.3999999985099,959,958.6999999992549,True,i,44538.099999997765,1464.8999999985099,1669831374693,1465,HRV,HRV_0133,2022-11-30 18:07:23
22,"[{'imgObject': {}, 'id': 'seaweed', 'src': '/static/foodstim60/seaweed.jpg', 'key': 'u', 'origWidth': 410, 'origHeight': 410, 'width': 410, 'height': 410, 'widthPercent': 0.45, 'rescaleHeight': False, 'trialN': 22, 'loaded': True, 'loadedTime': 2671.599999997765, 'positionName': 'LEFT', 'positionCoords': [260.08, 187.5], 'bid': 1.11}, {'imgObject': {}, 'id': 'edamame', 'src': '/static/foodstim60/edamame.jpg', 'key': 'i', 'origWidth': 409, 'origHeight': 410, 'width': 409, 'height': 410, 'widthPercent': 0.45, 'rescaleHeight': False, 'trialN': 22, 'loaded': True, 'loadedTime': 2736.39999999851, 'positionName': 'RIGHT', 'positionCoords': [725.92, 187.5], 'bid': 2.63}]",44538.300000000745,1669831374693,seaweed,edamame,1.11,2.63,1.5199999999999998,edamame,1222.5999999977648,1223,1223.0999999977648,True,i,46265.699999999255,1727.3999999985099,1669831376421,1728,HRV,HRV_0133,2022-11-30 18:07:23
23,"[{'imgObject': {}, 'id': 'bagel plain', 'src': '/static/foodstim60/bagel plain.jpg', 'key': 'u', 'origWidth': 410, 'origHeight': 410, 'width': 410, 'height': 410, 'widthPercent': 0.45, 'rescaleHeight': False, 'trialN': 23, 'loaded': True, 'loadedTime': 2682.199999999255, 'positionName': 'LEFT', 'positionCoords': [260.08, 187.5], 'bid': 6.69}, {'imgObject': {}, 'id': 'froot loops w milk', 'src': '/static/foodstim60/froot loops w milk.jpg', 'key': 'i', 'origWidth': 410, 'origHeight': 410, 'width': 410, 'height': 410, 'widthPercent': 0.45, 'rescaleHeight': False, 'trialN': 23, 'loaded': True, 'loadedTime': 2827.699999999255, 'positionName': 'RIGHT', 'positionCoords': [725.92, 187.5], 'bid': 4.34}]",46266.0,1669831376421,bagel plain,froot loops w milk,6.69,4.34,-2.3500000000000005,froot loops w milk,2374.099999997765,2375,2374.39999999851,True,i,49146.099999997765,2880.099999997765,1669831379301,2880,HRV,HRV_0133,2022-11-30 18:07:23
24,"[{'imgObject': {}, 'id': 'fruitsalad', 'src': '/static/foodstim60/fruitsalad.jpg', 'key': 'u', 'origWidth': 410, 'origHeight': 410, 'width': 410, 'height': 410, 'widthPercent': 0.45, 'rescaleHeight': False, 'trialN': 24, 'loaded': True, 'loadedTime': 2827.89999999851, 'positionName': 'LEFT', 'positionCoords': [260.08, 187.5], 'bid': 2.33}, {'imgObject': {}, 'id': 'froot loops w milk', 'src': '/static/foodstim60/froot loops w milk.jpg', 'key': 'i', 'origWidth': 410, 'origHeight': 410, 'width': 410, 'height': 410, 'widthPercent': 0.45, 'rescaleHeight': False, 'trialN': 24, 'loaded': True, 'loadedTime': 2820.599999997765, 'positionName': 'RIGHT', 'positionCoords': [725.92, 187.5], 'bid': 4.34}]",49146.300000000745,1669831379301,fruitsalad,froot loops w milk,2.33,4.34,2.01,froot loops w milk,1519.5,1520,1520.0,True,i,51169.39999999851,2023.0999999977648,1669831381324,2023,HRV,HRV_0133,2022-11-30 18:07:23
25,"[{'imgObject': {}, 'id': 'salad w chicken', 'src': '/static/foodstim60/salad w chicken.jpg', 'key': 'u', 'origWidth': 411, 'origHeight': 411, 'width': 411, 'height': 411, 'widthPercent': 0.45, 'rescaleHeight': False, 'trialN': 25, 'loaded': True, 'loadedTime': 2732.199999999255, 'positionName': 'LEFT', 'positionCoords': [259.08, 187], 'bid': 2.44}, {'imgObject': {}, 'id': 'tacos', 'src': '/static/foodstim60/tacos.jpg', 'key': 'i', 'origWidth': 411, 'origHeight': 411, 'width': 411, 'height': 411, 'widthPercent': 0.45, 'rescaleHeight': False, 'trialN': 25, 'loaded': True, 'loadedTime': 2829.199999999255, 'positionName': 'RIGHT', 'positionCoords': [725.92, 187], 'bid': 4.36}]",51169.599999997765,1669831381325,salad w chicken,tacos,2.44,4.36,1.9200000000000004,tacos,1600.300000000745,1601,1600.9000000022352,True,i,53274.5,2104.900000002235,1669831383429,2104,HRV,HRV_0133,2022-11-30 18:07:23
26,"[{'imgObject': {}, 'id': 'rigatoni and sauce', 'src': '/static/foodstim60/rigatoni and sauce.jpg', 'key': 'u', 'origWidth': 410, 'origHeight': 411, 'width': 410, 'height': 411, 'widthPercent': 0.45, 'rescaleHeight': False, 'trialN': 26, 'loaded': True, 'loadedTime': 2645, 'positionName': 'LEFT', 'positionCoords': [260.08, 187], 'bid': 8.98}, {'imgObject': {}, 'id': 'mac & cheese', 'src': '/static/foodstim60/mac & cheese.jpg', 'key': 'i', 'origWidth': 410, 'origHeight': 410, 'width': 410, 'height': 410, 'widthPercent': 0.45, 'rescaleHeight': False, 'trialN': 26, 'loaded': True, 'loadedTime': 2758.89999999851, 'positionName': 'RIGHT', 'positionCoords': [725.92, 187.5], 'bid': 8.88}]",53274.599999997765,1669831383430,rigatoni and sauce,mac & cheese,8.98,8.88,-0.09999999999999964,mac & cheese,1300.800000000745,1301,1301.2000000029802,True,i,55080.89999999851,1806.300000000745,1669831385236,1806,HRV,HRV_0133,2022-11-30 18:07:23
27,"[{'imgObject': {}, 'id': 'turkey sandwich', 'src': '/static/foodstim60/turkey sandwich.jpg', 'key': 'u', 'origWidth': 409, 'origHeight': 409, 'width': 409, 'height': 409, 'widthPercent': 0.45, 'rescaleHeight': False, 'trialN': 27, 'loaded': True, 'loadedTime': 2830.699999999255, 'positionName': 'LEFT', 'positionCoords': [261.08, 188], 'bid': 8.13}, {'imgObject': {}, 'id': 'steak', 'src': '/static/foodstim60/steak.jpg', 'key': 'i', 'origWidth': 410, 'origHeight': 410, 'width': 410, 'height': 410, 'widthPercent': 0.45, 'rescaleHeight': False, 'trialN': 27, 'loaded': True, 'loadedTime': 2757.599999997765, 'positionName': 'RIGHT', 'positionCoords': [725.92, 187.5], 'bid': 7.0200000000000005}]",55081.199999999255,1669831385236,turkey sandwich,steak,8.13,7.0200000000000005,-1.1100000000000003,turkey sandwich,887.6000000014901,888,888.1000000014901,True,u,56474.0,1392.800000000745,1669831386629,1393,HRV,HRV_0133,2022-11-30 18:07:23
28,"[{'imgObject': {}, 'id': 'veggieswithdip', 'src': '/static/foodstim60/veggieswithdip.jpg', 'key': 'u', 'origWidth': 409, 'origHeight': 409, 'width': 409, 'height': 409, 'widthPercent': 0.45, 'rescaleHeight': False, 'trialN': 28, 'loaded': True, 'loadedTime': 2809.599999997765, 'positionName': 'LEFT', 'positionCoords': [261.08, 188], 'bid': 2.89}, {'imgObject': {}, 'id': 'kiwi', 'src': '/static/foodstim60/kiwi.jpg', 'key': 'i', 'origWidth': 410, 'origHeight': 410, 'width': 410, 'height': 410, 'widthPercent': 0.45, 'rescaleHeight': False, 'trialN': 28, 'loaded': True, 'loadedTime': 2842.300000000745, 'positionName': 'RIGHT', 'positionCoords': [725.92, 187.5], 'bid': 2.1}]",56474.300000000745,1669831386629,veggieswithdip,kiwi,2.89,2.1,-0.79,veggieswithdip,1622.3999999985099,1623,1623.0999999977648,True,u,58601.800000000745,2127.5,1669831388757,2128,HRV,HRV_0133,2022-11-30 18:07:23
29,"[{'imgObject': {}, 'id': 'burger', 'src': '/static/foodstim60/burger.jpg', 'key': 'u', 'origWidth': 409, 'origHeight': 409, 'width': 409, 'height': 409, 'widthPercent': 0.45, 'rescaleHeight': False, 'trialN': 29, 'loaded': True, 'loadedTime': 2844, 'positionName': 'LEFT', 'positionCoords': [261.08, 188], 'bid': 7.59}, {'imgObject': {}, 'id': 'banana', 'src': '/static/foodstim60/banana.jpg', 'key': 'i', 'origWidth': 410, 'origHeight': 410, 'width': 410, 'height': 410, 'widthPercent': 0.45, 'rescaleHeight': False, 'trialN': 29, 'loaded': True, 'loadedTime': 2845.300000000745, 'positionName': 'RIGHT', 'positionCoords': [725.92, 187.5], 'bid': 9.95}]",58602.0,1669831388757,burger,banana,7.59,9.95,2.3599999999999994,banana,701.5,702,701.6999999992549,True,i,59809.699999999255,1207.699999999255,1669831389965,1208,HRV,HRV_0133,2022-11-30 18:07:23
30,"[{'imgObject': {}, 'id': 'bagel and cc', 'src': '/static/foodstim60/bagel and cc.jpg', 'key': 'u', 'origWidth': 410, 'origHeight': 410, 'width': 410, 'height': 410, 'widthPercent': 0.45, 'rescaleHeight': False, 'trialN': 30, 'loaded': True, 'loadedTime': 2665, 'positionName': 'LEFT', 'positionCoords': [260.08, 187.5], 'bid': 6.7}, {'imgObject': {}, 'id': 'bagel plain', 'src': '/static/foodstim60/bagel plain.jpg', 'key': 'i', 'origWidth': 410, 'origHeight': 410, 'width': 410, 'height': 410, 'widthPercent': 0.45, 'rescaleHeight': False, 'trialN': 30, 'loaded': True, 'loadedTime': 2682.699999999255, 'positionName': 'RIGHT', 'positionCoords': [725.92, 187.5], 'bid': 6.69}]",59809.800000000745,1669831389965,bagel and cc,bagel plain,6.7,6.69,-0.009999999999999787,bagel and cc,1477.7999999970198,1478,1478.0,True,u,61793.199999999255,1983.3999999985099,1669831391948,1983,HRV,HRV_0133,2022-11-30 18:07:23
31,"[{'imgObject': {}, 'id': 'mac & cheese', 'src': '/static/foodstim60/mac & cheese.jpg', 'key': 'u', 'origWidth': 410, 'origHeight': 410, 'width': 410, 'height': 410, 'widthPercent': 0.45, 'rescaleHeight': False, 'trialN': 31, 'loaded': True, 'loadedTime': 2767.300000000745, 'positionName': 'LEFT', 'positionCoords': [260.08, 187.5], 'bid': 8.88}, {'imgObject': {}, 'id': 'Grapes', 'src': '/static/foodstim60/Grapes.jpg', 'key': 'i', 'origWidth': 411, 'origHeight': 411, 'width': 411, 'height': 411, 'widthPercent': 0.45, 'rescaleHeight': False, 'trialN': 31, 'loaded': True, 'loadedTime': 2820.300000000745, 'positionName': 'RIGHT', 'positionCoords': [725.92, 187], 'bid': 8.51}]",61793.39999999851,1669831391948,mac & cheese,Grapes,8.88,8.51,-0.370000000000001,Grapes,1286.0,1287,1286.300000000745,True,i,63586.199999999255,1792.800000000745,1669831393741,1793,HRV,HRV_0133,2022-11-30 18:07:23
32,"[{'imgObject': {}, 'id': 'eggsalad', 'src': '/static/foodstim60/eggsalad.jpg', 'key': 'u', 'origWidth': 410, 'origHeight': 409, 'width': 410, 'height': 409, 'widthPercent': 0.45, 'rescaleHeight': False, 'trialN': 32, 'loaded': True, 'loadedTime': 2847.39999999851, 'positionName': 'LEFT', 'positionCoords': [260.08, 188], 'bid': 3.4}, {'imgObject': {}, 'id': 'lox', 'src': '/static/foodstim60/lox.jpg', 'key': 'i', 'origWidth': 410, 'origHeight': 411, 'width': 410, 'height': 411, 'widthPercent': 0.45, 'rescaleHeight': False, 'trialN': 32, 'loaded': True, 'loadedTime': 2768.699999999255, 'positionName': 'RIGHT', 'positionCoords': [725.92, 187], 'bid': 3.39}]",63586.39999999851,1669831393741,eggsalad,lox,3.4,3.39,-0.009999999999999787,eggsalad,1951.4000000022352,1952,1952.0,True,u,66042.19999999925,2455.800000000745,1669831396197,2456,HRV,HRV_0133,2022-11-30 18:07:23
33,"[{'imgObject': {}, 'id': 'hashbrowns', 'src': '/static/foodstim60/hashbrowns.jpg', 'key': 'u', 'origWidth': 411, 'origHeight': 410, 'width': 411, 'height': 410, 'widthPercent': 0.45, 'rescaleHeight': False, 'trialN': 33, 'loaded': True, 'loadedTime': 2849.699999999255, 'positionName': 'LEFT', 'positionCoords': [259.08, 187.5], 'bid': 5.83}, {'imgObject': {}, 'id': 'yogurt no spoon', 'src': '/static/foodstim60/yogurt no spoon.jpg', 'key': 'i', 'origWidth': 411, 'origHeight': 410, 'width': 411, 'height': 410, 'widthPercent': 0.45, 'rescaleHeight': False, 'trialN': 33, 'loaded': True, 'loadedTime': 2853.099999997765, 'positionName': 'RIGHT', 'positionCoords': [725.92, 187.5], 'bid': 4.22}]",66042.30000000075,1669831396197,hashbrowns,yogurt no spoon,5.83,4.22,-1.6100000000000003,yogurt no spoon,1094.5,1095,1095.0,True,i,67641.09999999776,1598.7999999970198,1669831397796,1599,HRV,HRV_0133,2022-11-30 18:07:23
34,"[{'imgObject': {}, 'id': 'chicken nuggets2', 'src': '/static/foodstim60/chicken nuggets2.jpg', 'key': 'u', 'origWidth': 410, 'origHeight': 409, 'width': 410, 'height': 409, 'widthPercent': 0.45, 'rescaleHeight': False, 'trialN': 34, 'loaded': True, 'loadedTime': 2785.300000000745, 'positionName': 'LEFT', 'positionCoords': [260.08, 188], 'bid': 9.16}, {'imgObject': {}, 'id': 'orange slices', 'src': '/static/foodstim60/orange slices.jpg', 'key': 'i', 'origWidth': 409, 'origHeight': 410, 'width': 409, 'height': 410, 'widthPercent': 0.45, 'rescaleHeight': False, 'trialN': 34, 'loaded': True, 'loadedTime': 2725.89999999851, 'positionName': 'RIGHT', 'positionCoords': [725.92, 187.5], 'bid': 9.11}]",67641.30000000075,1669831397796,chicken nuggets2,orange slices,9.16,9.11,-0.05000000000000071,chicken nuggets2,2358.0,2359,2358.199999999255,True,u,70505.39999999851,2864.099999997765,1669831400661,2865,HRV,HRV_0133,2022-11-30 18:07:23
35,"[{'imgObject': {}, 'id': 'Grapes', 'src': '/static/foodstim60/Grapes.jpg', 'key': 'u', 'origWidth': 411, 'origHeight': 411, 'width': 411, 'height': 411, 'widthPercent': 0.45, 'rescaleHeight': False, 'trialN': 35, 'loaded': True, 'loadedTime': 2819, 'positionName': 'LEFT', 'positionCoords': [259.08, 187], 'bid': 8.51}, {'imgObject': {}, 'id': 'baked potato', 'src': '/static/foodstim60/baked potato.jpg', 'key': 'i', 'origWidth': 409, 'origHeight': 410, 'width': 409, 'height': 410, 'widthPercent': 0.45, 'rescaleHeight': False, 'trialN': 35, 'loaded': True, 'loadedTime': 2854.599999997765, 'positionName': 'RIGHT', 'positionCoords': [725.92, 187.5], 'bid': 9.61}]",70505.69999999925,1669831400661,Grapes,baked potato,8.51,9.61,1.0999999999999996,baked potato,1679.300000000745,1680,1680.0,True,i,72690.59999999776,2184.89999999851,1669831402846,2185,HRV,HRV_0133,2022-11-30 18:07:23
36,"[{'imgObject': {}, 'id': 'avocado', 'src': '/static/foodstim60/avocado.jpg', 'key': 'u', 'origWidth': 409, 'origHeight': 409, 'width': 409, 'height': 409, 'widthPercent': 0.45, 'rescaleHeight': False, 'trialN': 36, 'loaded': True, 'loadedTime': 2856.699999999255, 'positionName': 'LEFT', 'positionCoords': [261.08, 188], 'bid': 1.03}, {'imgObject': {}, 'id': 'sushi w_condiments', 'src': '/static/foodstim60/sushi w_condiments.jpg', 'key': 'i', 'origWidth': 410, 'origHeight': 410, 'width': 410, 'height': 410, 'widthPercent': 0.45, 'rescaleHeight': False, 'trialN': 36, 'loaded': True, 'loadedTime': 2799.5, 'positionName': 'RIGHT', 'positionCoords': [725.92, 187.5], 'bid': 0.45}]",72690.80000000075,1669831402846,avocado,sushi w_condiments,1.03,0.45,-0.5800000000000001,avocado,1166.0,1166,1166.5,True,u,74361.30000000075,1670.5,1669831404516,1670,HRV,HRV_0133,2022-11-30 18:07:23
37,"[{'imgObject': {}, 'id': 'cheerios', 'src': '/static/foodstim60/cheerios.jpg', 'key': 'u', 'origWidth': 409, 'origHeight': 410, 'width': 409, 'height': 410, 'widthPercent': 0.45, 'rescaleHeight': False, 'trialN': 37, 'loaded': True, 'loadedTime': 2859.099999997765, 'positionName': 'LEFT', 'positionCoords': [261.08, 187.5], 'bid': 4.24}, {'imgObject': {}, 'id': 'kiwi', 'src': '/static/foodstim60/kiwi.jpg', 'key': 'i', 'origWidth': 410, 'origHeight': 410, 'width': 410, 'height': 410, 'widthPercent': 0.45, 'rescaleHeight': False, 'trialN': 37, 'loaded': True, 'loadedTime': 2841.300000000745, 'positionName': 'RIGHT', 'positionCoords': [725.92, 187.5], 'bid': 2.1}]",74361.59999999776,1669831404517,cheerios,kiwi,4.24,2.1,-2.14,cheerios,1101.5,1101,1101.800000000745,True,u,75969.5,1607.9000000022352,1669831406125,1608,HRV,HRV_0133,2022-11-30 18:07:23
38,"[{'imgObject': {}, 'id': 'raisin bran w milk', 'src': '/static/foodstim60/raisin bran w milk.jpg', 'key': 'u', 'origWidth': 411, 'origHeight': 411, 'width': 411, 'height': 411, 'widthPercent': 0.45, 'rescaleHeight': False, 'trialN': 38, 'loaded': True, 'loadedTime': 2861.800000000745, 'positionName': 'LEFT', 'positionCoords': [259.08, 187], 'bid': 3.95}, {'imgObject': {}, 'id': 'grilled chicken strips', 'src': '/static/foodstim60/grilled chicken strips.jpg', 'key': 'i', 'origWidth': 410, 'origHeight': 411, 'width': 410, 'height': 411, 'widthPercent': 0.45, 'rescaleHeight': False, 'trialN': 38, 'loaded': True, 'loadedTime': 2862.099999997765, 'positionName': 'RIGHT', 'positionCoords': [725.92, 187], 'bid': 6.21}]",75969.59999999776,1669831406125,raisin bran w milk,grilled chicken strips,3.95,6.21,2.26,grilled chicken strips,849.1000000014901,849,849.7000000029802,True,i,77321.89999999851,1352.300000000745,1669831407477,1352,HRV,HRV_0133,2022-11-30 18:07:23
39,"[{'imgObject': {}, 'id': 'avocado', 'src': '/static/foodstim60/avocado.jpg', 'key': 'u', 'origWidth': 409, 'origHeight': 409, 'width': 409, 'height': 409, 'widthPercent': 0.45, 'rescaleHeight': False, 'trialN': 39, 'loaded': True, 'loadedTime': 2856.199999999255, 'positionName': 'LEFT', 'positionCoords': [261.08, 188], 'bid': 1.03}, {'imgObject': {}, 'id': 'fried eggs', 'src': '/static/foodstim60/fried eggs.jpg', 'key': 'i', 'origWidth': 410, 'origHeight': 410, 'width': 410, 'height': 410, 'widthPercent': 0.45, 'rescaleHeight': False, 'trialN': 39, 'loaded': True, 'loadedTime': 2864.199999999255, 'positionName': 'RIGHT', 'positionCoords': [725.92, 187.5], 'bid': 0.5700000000000001}]",77322.09999999776,1669831407477,avocado,fried eggs,1.03,0.5700000000000001,-0.45999999999999996,fried eggs,1214.7000000029802,1215,1215.2000000029802,True,i,79041.80000000075,1719.7000000029802,1669831409197,1720,HRV,HRV_0133,2022-11-30 18:07:23
40,"[{'imgObject': {}, 'id': 'roastedpotatoes', 'src': '/static/foodstim60/roastedpotatoes.jpg', 'key': 'u', 'origWidth': 409, 'origHeight': 410, 'width': 409, 'height': 410, 'widthPercent': 0.45, 'rescaleHeight': False, 'trialN': 40, 'loaded': True, 'loadedTime': 2700.099999997765, 'positionName': 'LEFT', 'positionCoords': [261.08, 187.5], 'bid': 6.2}, {'imgObject': {}, 'id': 'froot loops w milk', 'src': '/static/foodstim60/froot loops w milk.jpg', 'key': 'i', 'origWidth': 410, 'origHeight': 410, 'width': 410, 'height': 410, 'widthPercent': 0.45, 'rescaleHeight': False, 'trialN': 40, 'loaded': True, 'loadedTime': 2827.39999999851, 'positionName': 'RIGHT', 'positionCoords': [725.92, 187.5], 'bid': 4.34}]",79041.89999999851,1669831409197,roastedpotatoes,froot loops w milk,6.2,4.34,-1.8600000000000003,froot loops w milk,1287.0,1288,1287.6000000014901,True,i,80833.5,1791.6000000014901,1669831410989,1792,HRV,HRV_0133,2022-11-30 18:07:23
41,"[{'imgObject': {}, 'id': 'granola w milk', 'src': '/static/foodstim60/granola w milk.jpg', 'key': 'u', 'origWidth': 410, 'origHeight': 410, 'width': 410, 'height': 410, 'widthPercent': 0.45, 'rescaleHeight': False, 'trialN': 41, 'loaded': True, 'loadedTime': 2865.89999999851, 'positionName': 'LEFT', 'positionCoords': [260.08, 187.5], 'bid': 2.1}, {'imgObject': {}, 'id': 'yogurt no spoon', 'src': '/static/foodstim60/yogurt no spoon.jpg', 'key': 'i', 'origWidth': 411, 'origHeight': 410, 'width': 411, 'height': 410, 'widthPercent': 0.45, 'rescaleHeight': False, 'trialN': 41, 'loaded': True, 'loadedTime': 2853.199999999255, 'positionName': 'RIGHT', 'positionCoords': [725.92, 187.5], 'bid': 4.22}]",80833.69999999925,1669831410989,granola w milk,yogurt no spoon,2.1,4.22,2.1199999999999997,yogurt no spoon,1815.1000000014901,1815,1815.699999999255,True,i,83154.30000000075,2320.60000000149,1669831413309,2320,HRV,HRV_0133,2022-11-30 18:07:23
42,"[{'imgObject': {}, 'id': 'blackbeanswithrice', 'src': '/static/foodstim60/blackbeanswithrice.jpg', 'key': 'u', 'origWidth': 410, 'origHeight': 410, 'width': 410, 'height': 410, 'widthPercent': 0.45, 'rescaleHeight': False, 'trialN': 42, 'loaded': True, 'loadedTime': 2866, 'positionName': 'LEFT', 'positionCoords': [260.08, 187.5], 'bid': 3.79}, {'imgObject': {}, 'id': 'Tribe humus pita', 'src': '/static/foodstim60/Tribe humus pita.jpg', 'key': 'i', 'origWidth': 411, 'origHeight': 411, 'width': 411, 'height': 411, 'widthPercent': 0.45, 'rescaleHeight': False, 'trialN': 42, 'loaded': True, 'loadedTime': 2653.89999999851, 'positionName': 'RIGHT', 'positionCoords': [725.92, 187], 'bid': 2.79}]",83154.5,1669831413310,blackbeanswithrice,Tribe humus pita,3.79,2.79,-1.0,Tribe humus pita,1462.3999999985099,1463,1463.0,True,i,85122.0,1967.5,1669831415277,1967,HRV,HRV_0133,2022-11-30 18:07:23
43,"[{'imgObject': {}, 'id': 'rigatoni', 'src': '/static/foodstim60/rigatoni.jpg', 'key': 'u', 'origWidth': 411, 'origHeight': 411, 'width': 411, 'height': 411, 'widthPercent': 0.45, 'rescaleHeight': False, 'trialN': 43, 'loaded': True, 'loadedTime': 2815.5, 'positionName': 'LEFT', 'positionCoords': [259.08, 187], 'bid': 7.36}, {'imgObject': {}, 'id': 'steak', 'src': '/static/foodstim60/steak.jpg', 'key': 'i', 'origWidth': 410, 'origHeight': 410, 'width': 410, 'height': 410, 'widthPercent': 0.45, 'rescaleHeight': False, 'trialN': 43, 'loaded': True, 'loadedTime': 2757.300000000745, 'positionName': 'RIGHT', 'positionCoords': [725.92, 187.5], 'bid': 7.0200000000000005}]",85122.19999999925,1669831415277,rigatoni,steak,7.36,7.0200000000000005,-0.33999999999999986,rigatoni,1582.6000000014901,1583,1583.1000000014901,True,u,87209.69999999925,2087.5,1669831417365,2088,HRV,HRV_0133,2022-11-30 18:07:23
44,"[{'imgObject': {}, 'id': 'blackbeanswithrice', 'src': '/static/foodstim60/blackbeanswithrice.jpg', 'key': 'u', 'origWidth': 410, 'origHeight': 410, 'width': 410, 'height': 410, 'widthPercent': 0.45, 'rescaleHeight': False, 'trialN': 44, 'loaded': True, 'loadedTime': 2866.800000000745, 'positionName': 'LEFT', 'positionCoords': [260.08, 187.5], 'bid': 3.79}, {'imgObject': {}, 'id': 'eggs', 'src': '/static/foodstim60/eggs.jpg', 'key': 'i', 'origWidth': 409, 'origHeight': 409, 'width': 409, 'height': 409, 'widthPercent': 0.45, 'rescaleHeight': False, 'trialN': 44, 'loaded': True, 'loadedTime': 2691.300000000745, 'positionName': 'RIGHT', 'positionCoords': [725.92, 188], 'bid': 1.71}]",87210.0,1669831417365,blackbeanswithrice,eggs,3.79,1.71,-2.08,eggs,1622.699999999255,1622,1623.0,True,i,89338.09999999776,2128.099999997765,1669831419493,2128,HRV,HRV_0133,2022-11-30 18:07:23
45,"[{'imgObject': {}, 'id': 'turkeysandwich', 'src': '/static/foodstim60/turkeysandwich.jpg', 'key': 'u', 'origWidth': 409, 'origHeight': 409, 'width': 409, 'height': 409, 'widthPercent': 0.45, 'rescaleHeight': False, 'trialN': 45, 'loaded': True, 'loadedTime': 2806.5, 'positionName': 'LEFT', 'positionCoords': [261.08, 188], 'bid': 7.32}, {'imgObject': {}, 'id': 'rigatoni and sauce', 'src': '/static/foodstim60/rigatoni and sauce.jpg', 'key': 'i', 'origWidth': 410, 'origHeight': 411, 'width': 410, 'height': 411, 'widthPercent': 0.45, 'rescaleHeight': False, 'trialN': 45, 'loaded': True, 'loadedTime': 2645.199999999255, 'positionName': 'RIGHT', 'positionCoords': [725.92, 187], 'bid': 8.98}]",89338.39999999851,1669831419493,turkeysandwich,rigatoni and sauce,7.32,8.98,1.6600000000000001,turkeysandwich,1078.5,1079,1079.0,True,u,90921.0,1582.6000000014901,1669831421075,1582,HRV,HRV_0133,2022-11-30 18:07:23
46,"[{'imgObject': {}, 'id': 'raisin bran w milk', 'src': '/static/foodstim60/raisin bran w milk.jpg', 'key': 'u', 'origWidth': 411, 'origHeight': 411, 'width': 411, 'height': 411, 'widthPercent': 0.45, 'rescaleHeight': False, 'trialN': 46, 'loaded': True, 'loadedTime': 2860.89999999851, 'positionName': 'LEFT', 'positionCoords': [259.08, 187], 'bid': 3.95}, {'imgObject': {}, 'id': 'ice cream sundae 002', 'src': '/static/foodstim60/ice cream sundae 002.jpg', 'key': 'i', 'origWidth': 409, 'origHeight': 409, 'width': 409, 'height': 409, 'widthPercent': 0.45, 'rescaleHeight': False, 'trialN': 46, 'loaded': True, 'loadedTime': 2870, 'positionName': 'RIGHT', 'positionCoords': [725.92, 188], 'bid': 1.99}]",90921.19999999925,1669831421076,raisin bran w milk,ice cream sundae 002,3.95,1.99,-1.9600000000000002,raisin bran w milk,1974.300000000745,1974,1974.6000000014901,True,u,93401.09999999776,2479.89999999851,1669831423556,2480,HRV,HRV_0133,2022-11-30 18:07:23
47,"[{'imgObject': {}, 'id': 'cantaloupe', 'src': '/static/foodstim60/cantaloupe.jpg', 'key': 'u', 'origWidth': 409, 'origHeight': 409, 'width': 409, 'height': 409, 'widthPercent': 0.45, 'rescaleHeight': False, 'trialN': 47, 'loaded': True, 'loadedTime': 2752, 'positionName': 'LEFT', 'positionCoords': [261.08, 188], 'bid': 8.33}, {'imgObject': {}, 'id': 'Tribe humus pita', 'src': '/static/foodstim60/Tribe humus pita.jpg', 'key': 'i', 'origWidth': 411, 'origHeight': 411, 'width': 411, 'height': 411, 'widthPercent': 0.45, 'rescaleHeight': False, 'trialN': 47, 'loaded': True, 'loadedTime': 2645.199999999255, 'positionName': 'RIGHT', 'positionCoords': [725.92, 187], 'bid': 2.79}]",93401.39999999851,1669831423556,cantaloupe,Tribe humus pita,8.33,2.79,-5.54,cantaloupe,959.5,960,960.0,True,u,94865.09999999776,1463.699999999255,1669831425020,1464,HRV,HRV_0133,2022-11-30 18:07:23
48,"[{'imgObject': {}, 'id': 'Tribe humus pita', 'src': '/static/foodstim60/Tribe humus pita.jpg', 'key': 'u', 'origWidth': 411, 'origHeight': 411, 'width': 411, 'height': 411, 'widthPercent': 0.45, 'rescaleHeight': False, 'trialN': 48, 'loaded': True, 'loadedTime': 2652.89999999851, 'positionName': 'LEFT', 'positionCoords': [259.08, 187], 'bid': 2.79}, {'imgObject': {}, 'id': 'blueberries', 'src': '/static/foodstim60/blueberries.jpg', 'key': 'i', 'origWidth': 411, 'origHeight': 411, 'width': 411, 'height': 411, 'widthPercent': 0.45, 'rescaleHeight': False, 'trialN': 48, 'loaded': True, 'loadedTime': 2674.5, 'positionName': 'RIGHT', 'positionCoords': [725.92, 187], 'bid': 1.4}]",94865.39999999851,1669831425020,Tribe humus pita,blueberries,2.79,1.4,-1.3900000000000001,Tribe humus pita,1607.5,1608,1608.1000000014901,True,u,96978.5,2113.10000000149,1669831427133,2113,HRV,HRV_0133,2022-11-30 18:07:23
49,"[{'imgObject': {}, 'id': 'cantaloupe', 'src': '/static/foodstim60/cantaloupe.jpg', 'key': 'u', 'origWidth': 409, 'origHeight': 409, 'width': 409, 'height': 409, 'widthPercent': 0.45, 'rescaleHeight': False, 'trialN': 49, 'loaded': True, 'loadedTime': 2753.300000000745, 'positionName': 'LEFT', 'positionCoords': [261.08, 188], 'bid': 8.33}, {'imgObject': {}, 'id': 'turkeysandwich', 'src': '/static/foodstim60/turkeysandwich.jpg', 'key': 'i', 'origWidth': 409, 'origHeight': 409, 'width': 409, 'height': 409, 'widthPercent': 0.45, 'rescaleHeight': False, 'trialN': 49, 'loaded': True, 'loadedTime': 2806.599999997765, 'positionName': 'RIGHT', 'positionCoords': [725.92, 188], 'bid': 7.32}]",96978.80000000075,1669831427133,cantaloupe,turkeysandwich,8.33,7.32,-1.0099999999999998,turkeysandwich,1694.0999999977648,1695,1694.5,True,i,99177.59999999776,2198.7999999970198,1669831429332,2199,HRV,HRV_0133,2022-11-30 18:07:23
50,"[{'imgObject': {}, 'id': 'luckycharms', 'src': '/static/foodstim60/luckycharms.jpg', 'key': 'u', 'origWidth': 410, 'origHeight': 409, 'width': 410, 'height': 409, 'widthPercent': 0.45, 'rescaleHeight': False, 'trialN': 50, 'loaded': True, 'loadedTime': 2730.300000000745, 'positionName': 'LEFT', 'positionCoords': [260.08, 188], 'bid': 4.58}, {'imgObject': {}, 'id': 'burrito', 'src': '/static/foodstim60/burrito.jpg', 'key': 'i', 'origWidth': 410, 'origHeight': 410, 'width': 410, 'height': 410, 'widthPercent': 0.45, 'rescaleHeight': False, 'trialN': 50, 'loaded': True, 'loadedTime': 2754.699999999255, 'positionName': 'RIGHT', 'positionCoords': [725.92, 187.5], 'bid': 7.63}]",99177.80000000075,1669831429332,luckycharms,burrito,4.58,7.63,3.05,luckycharms,1309.5999999977648,1310,1309.7999999970198,True,u,100993.69999999925,1815.8999999985099,1669831431148,1816,HRV,HRV_0133,2022-11-30 18:07:23
51,"[{'imgObject': {}, 'id': 'burger', 'src': '/static/foodstim60/burger.jpg', 'key': 'u', 'origWidth': 409, 'origHeight': 409, 'width': 409, 'height': 409, 'widthPercent': 0.45, 'rescaleHeight': False, 'trialN': 51, 'loaded': True, 'loadedTime': 2843.5, 'positionName': 'LEFT', 'positionCoords': [261.08, 188], 'bid': 7.59}, {'imgObject': {}, 'id': 'baked potato', 'src': '/static/foodstim60/baked potato.jpg', 'key': 'i', 'origWidth': 409, 'origHeight': 410, 'width': 409, 'height': 410, 'widthPercent': 0.45, 'rescaleHeight': False, 'trialN': 51, 'loaded': True, 'loadedTime': 2855.300000000745, 'positionName': 'RIGHT', 'positionCoords': [725.92, 187.5], 'bid': 9.61}]",100994.0,1669831431148,burger,baked potato,7.59,9.61,2.0199999999999996,baked potato,1269.5999999977648,1270,1269.800000000745,True,i,102769.19999999925,1775.199999999255,1669831432924,1776,HRV,HRV_0133,2022-11-30 18:07:23
52,"[{'imgObject': {}, 'id': 'cantaloupe', 'src': '/static/foodstim60/cantaloupe.jpg', 'key': 'u', 'origWidth': 409, 'origHeight': 409, 'width': 409, 'height': 409, 'widthPercent': 0.45, 'rescaleHeight': False, 'trialN': 52, 'loaded': True, 'loadedTime': 2752.89999999851, 'positionName': 'LEFT', 'positionCoords': [261.08, 188], 'bid': 8.33}, {'imgObject': {}, 'id': 'pear', 'src': '/static/foodstim60/pear.jpg', 'key': 'i', 'origWidth': 411, 'origHeight': 410, 'width': 411, 'height': 410, 'widthPercent': 0.45, 'rescaleHeight': False, 'trialN': 52, 'loaded': True, 'loadedTime': 2873.89999999851, 'positionName': 'RIGHT', 'positionCoords': [725.92, 187.5], 'bid': 9.81}]",102769.39999999851,1669831432924,cantaloupe,pear,8.33,9.81,1.4800000000000004,cantaloupe,1303.4000000022352,1304,1303.800000000745,True,u,104577.5,1808.1000000014901,1669831434732,1808,HRV,HRV_0133,2022-11-30 18:07:23
53,"[{'imgObject': {}, 'id': 'popsicles', 'src': '/static/foodstim60/popsicles.jpg', 'key': 'u', 'origWidth': 410, 'origHeight': 410, 'width': 410, 'height': 410, 'widthPercent': 0.45, 'rescaleHeight': False, 'trialN': 53, 'loaded': True, 'loadedTime': 2691.39999999851, 'positionName': 'LEFT', 'positionCoords': [260.08, 187.5], 'bid': 1.07}, {'imgObject': {}, 'id': 'salad w chicken', 'src': '/static/foodstim60/salad w chicken.jpg', 'key': 'i', 'origWidth': 411, 'origHeight': 411, 'width': 411, 'height': 411, 'widthPercent': 0.45, 'rescaleHeight': False, 'trialN': 53, 'loaded': True, 'loadedTime': 2733.39999999851, 'positionName': 'RIGHT', 'positionCoords': [725.92, 187], 'bid': 2.44}]",104577.59999999776,1669831434732,popsicles,salad w chicken,1.07,2.44,1.3699999999999999,salad w chicken,1223.300000000745,1224,1223.7000000029802,True,i,106306.39999999851,1728.800000000745,1669831436461,1729,HRV,HRV_0133,2022-11-30 18:07:23
54,"[{'imgObject': {}, 'id': 'orange slices', 'src': '/static/foodstim60/orange slices.jpg', 'key': 'u', 'origWidth': 409, 'origHeight': 410, 'width': 409, 'height': 410, 'widthPercent': 0.45, 'rescaleHeight': False, 'trialN': 54, 'loaded': True, 'loadedTime': 2724.599999997765, 'positionName': 'LEFT', 'positionCoords': [261.08, 187.5], 'bid': 9.11}, {'imgObject': {}, 'id': 'cherries', 'src': '/static/foodstim60/cherries.jpg', 'key': 'i', 'origWidth': 410, 'origHeight': 411, 'width': 410, 'height': 411, 'widthPercent': 0.45, 'rescaleHeight': False, 'trialN': 54, 'loaded': True, 'loadedTime': 2668.699999999255, 'positionName': 'RIGHT', 'positionCoords': [725.92, 187], 'bid': 6.57}]",106306.69999999925,1669831436461,orange slices,cherries,9.11,6.57,-2.539999999999999,orange slices,1302.199999999255,1303,1302.699999999255,True,u,108114.0,1807.300000000745,1669831438268,1807,HRV,HRV_0133,2022-11-30 18:07:23
55,"[{'imgObject': {}, 'id': 'granola w milk', 'src': '/static/foodstim60/granola w milk.jpg', 'key': 'u', 'origWidth': 410, 'origHeight': 410, 'width': 410, 'height': 410, 'widthPercent': 0.45, 'rescaleHeight': False, 'trialN': 55, 'loaded': True, 'loadedTime': 2865.199999999255, 'positionName': 'LEFT', 'positionCoords': [260.08, 187.5], 'bid': 2.1}, {'imgObject': {}, 'id': 'turkeysandwich', 'src': '/static/foodstim60/turkeysandwich.jpg', 'key': 'i', 'origWidth': 409, 'origHeight': 409, 'width': 409, 'height': 409, 'widthPercent': 0.45, 'rescaleHeight': False, 'trialN': 55, 'loaded': True, 'loadedTime': 2806.099999997765, 'positionName': 'RIGHT', 'positionCoords': [725.92, 188], 'bid': 7.32}]",108114.19999999925,1669831438269,granola w milk,turkeysandwich,2.1,7.32,5.220000000000001,turkeysandwich,1366.6000000014901,1367,1367.199999999255,True,i,109985.5,1871.300000000745,1669831440140,1871,HRV,HRV_0133,2022-11-30 18:07:23
56,"[{'imgObject': {}, 'id': 'edamame', 'src': '/static/foodstim60/edamame.jpg', 'key': 'u', 'origWidth': 409, 'origHeight': 410, 'width': 409, 'height': 410, 'widthPercent': 0.45, 'rescaleHeight': False, 'trialN': 56, 'loaded': True, 'loadedTime': 2737.39999999851, 'positionName': 'LEFT', 'positionCoords': [261.08, 187.5], 'bid': 2.63}, {'imgObject': {}, 'id': 'fruitsalad', 'src': '/static/foodstim60/fruitsalad.jpg', 'key': 'i', 'origWidth': 410, 'origHeight': 410, 'width': 410, 'height': 410, 'widthPercent': 0.45, 'rescaleHeight': False, 'trialN': 56, 'loaded': True, 'loadedTime': 2828.699999999255, 'positionName': 'RIGHT', 'positionCoords': [725.92, 187.5], 'bid': 2.33}]",109985.69999999925,1669831440140,edamame,fruitsalad,2.63,2.33,-0.2999999999999998,fruitsalad,3096.800000000745,3097,3097.39999999851,True,i,113585.59999999776,3599.89999999851,1669831443740,3600,HRV,HRV_0133,2022-11-30 18:07:23
57,"[{'imgObject': {}, 'id': 'shreddedwheatwithmilk', 'src': '/static/foodstim60/shreddedwheatwithmilk.jpg', 'key': 'u', 'origWidth': 410, 'origHeight': 410, 'width': 410, 'height': 410, 'widthPercent': 0.45, 'rescaleHeight': False, 'trialN': 57, 'loaded': True, 'loadedTime': 2875.199999999255, 'positionName': 'LEFT', 'positionCoords': [260.08, 187.5], 'bid': 2.67}, {'imgObject': {}, 'id': 'mango', 'src': '/static/foodstim60/mango.jpg', 'key': 'i', 'origWidth': 411, 'origHeight': 411, 'width': 411, 'height': 411, 'widthPercent': 0.45, 'rescaleHeight': False, 'trialN': 57, 'loaded': True, 'loadedTime': 2877.199999999255, 'positionName': 'RIGHT', 'positionCoords': [725.92, 187], 'bid': 1.4}]",113585.80000000075,1669831443740,shreddedwheatwithmilk,mango,2.67,1.4,-1.27,shreddedwheatwithmilk,1655.0,1656,1655.5999999977648,True,u,115745.59999999776,2159.7999999970198,1669831445900,2160,HRV,HRV_0133,2022-11-30 18:07:23
58,"[{'imgObject': {}, 'id': 'hashbrowns', 'src': '/static/foodstim60/hashbrowns.jpg', 'key': 'u', 'origWidth': 411, 'origHeight': 410, 'width': 411, 'height': 410, 'widthPercent': 0.45, 'rescaleHeight': False, 'trialN': 58, 'loaded': True, 'loadedTime': 2848.199999999255, 'positionName': 'LEFT', 'positionCoords': [259.08, 187.5], 'bid': 5.83}, {'imgObject': {}, 'id': 'cantaloupe', 'src': '/static/foodstim60/cantaloupe.jpg', 'key': 'i', 'origWidth': 409, 'origHeight': 409, 'width': 409, 'height': 409, 'widthPercent': 0.45, 'rescaleHeight': False, 'trialN': 58, 'loaded': True, 'loadedTime': 2752.099999997765, 'positionName': 'RIGHT', 'positionCoords': [725.92, 188], 'bid': 8.33}]",115745.89999999851,1669831445900,hashbrowns,cantaloupe,5.83,8.33,2.5,cantaloupe,958.1000000014901,959,958.6000000014901,True,i,117209.5,1463.6000000014901,1669831447364,1464,HRV,HRV_0133,2022-11-30 18:07:23
59,"[{'imgObject': {}, 'id': 'burrito', 'src': '/static/foodstim60/burrito.jpg', 'key': 'u', 'origWidth': 410, 'origHeight': 410, 'width': 410, 'height': 410, 'widthPercent': 0.45, 'rescaleHeight': False, 'trialN': 59, 'loaded': True, 'loadedTime': 2755.300000000745, 'positionName': 'LEFT', 'positionCoords': [260.08, 187.5], 'bid': 7.63}, {'imgObject': {}, 'id': 'burger', 'src': '/static/foodstim60/burger.jpg', 'key': 'i', 'origWidth': 409, 'origHeight': 409, 'width': 409, 'height': 409, 'widthPercent': 0.45, 'rescaleHeight': False, 'trialN': 59, 'loaded': True, 'loadedTime': 2844.39999999851, 'positionName': 'RIGHT', 'positionCoords': [725.92, 188], 'bid': 7.59}]",117209.69999999925,1669831447364,burrito,burger,7.63,7.59,-0.040000000000000036,burger,1071.1000000014901,1072,1071.6000000014901,True,i,118785.0,1575.300000000745,1669831448939,1575,HRV,HRV_0133,2022-11-30 18:07:23
60,"[{'imgObject': {}, 'id': 'Grapes', 'src': '/static/foodstim60/Grapes.jpg', 'key': 'u', 'origWidth': 411, 'origHeight': 411, 'width': 411, 'height': 411, 'widthPercent': 0.45, 'rescaleHeight': False, 'trialN': 60, 'loaded': True, 'loadedTime': 2820.39999999851, 'positionName': 'LEFT', 'positionCoords': [259.08, 187], 'bid': 8.51}, {'imgObject': {}, 'id': 'corn cob', 'src': '/static/foodstim60/corn cob.jpg', 'key': 'i', 'origWidth': 411, 'origHeight': 411, 'width': 411, 'height': 411, 'widthPercent': 0.45, 'rescaleHeight': False, 'trialN': 60, 'loaded': True, 'loadedTime': 2587.699999999255, 'positionName': 'RIGHT', 'positionCoords': [725.92, 187], 'bid': 8.78}]",118785.30000000075,1669831448940,Grapes,corn cob,8.51,8.78,0.2699999999999996,Grapes,1927.5999999977648,1928,1928.2999999970198,True,u,121217.89999999851,2432.599999997765,1669831451372,2432,HRV,HRV_0133,2022-11-30 18:07:23
61,"[{'imgObject': {}, 'id': 'apple slices', 'src': '/static/foodstim60/apple slices.jpg', 'key': 'u', 'origWidth': 409, 'origHeight': 410, 'width': 409, 'height': 410, 'widthPercent': 0.45, 'rescaleHeight': False, 'trialN': 61, 'loaded': True, 'loadedTime': 2700.699999999255, 'positionName': 'LEFT', 'positionCoords': [261.08, 187.5], 'bid': 9.92}, {'imgObject': {}, 'id': 'Grapes', 'src': '/static/foodstim60/Grapes.jpg', 'key': 'i', 'origWidth': 411, 'origHeight': 411, 'width': 411, 'height': 411, 'widthPercent': 0.45, 'rescaleHeight': False, 'trialN': 61, 'loaded': True, 'loadedTime': 2820.5, 'positionName': 'RIGHT', 'positionCoords': [725.92, 187], 'bid': 8.51}]",121218.19999999925,1669831451373,apple slices,Grapes,9.92,8.51,-1.4100000000000001,apple slices,1150.699999999255,1151,1151.199999999255,True,u,122873.5,1655.300000000745,1669831453028,1655,HRV,HRV_0133,2022-11-30 18:07:23
62,"[{'imgObject': {}, 'id': 'ice cream sundae 002', 'src': '/static/foodstim60/ice cream sundae 002.jpg', 'key': 'u', 'origWidth': 409, 'origHeight': 409, 'width': 409, 'height': 409, 'widthPercent': 0.45, 'rescaleHeight': False, 'trialN': 62, 'loaded': True, 'loadedTime': 2867.5, 'positionName': 'LEFT', 'positionCoords': [261.08, 188], 'bid': 1.99}, {'imgObject': {}, 'id': 'steak', 'src': '/static/foodstim60/steak.jpg', 'key': 'i', 'origWidth': 410, 'origHeight': 410, 'width': 410, 'height': 410, 'widthPercent': 0.45, 'rescaleHeight': False, 'trialN': 62, 'loaded': True, 'loadedTime': 2758.099999997765, 'positionName': 'RIGHT', 'positionCoords': [725.92, 187.5], 'bid': 7.0200000000000005}]",122873.69999999925,1669831453028,ice cream sundae 002,steak,1.99,7.0200000000000005,5.03,steak,998.3999999985099,999,998.6999999992549,True,i,124378.39999999851,1504.699999999255,1669831454533,1505,HRV,HRV_0133,2022-11-30 18:07:23
63,"[{'imgObject': {}, 'id': 'burger', 'src': '/static/foodstim60/burger.jpg', 'key': 'u', 'origWidth': 409, 'origHeight': 409, 'width': 409, 'height': 409, 'widthPercent': 0.45, 'rescaleHeight': False, 'trialN': 63, 'loaded': True, 'loadedTime': 2842.599999997765, 'positionName': 'LEFT', 'positionCoords': [261.08, 188], 'bid': 7.59}, {'imgObject': {}, 'id': 'salad w chicken', 'src': '/static/foodstim60/salad w chicken.jpg', 'key': 'i', 'origWidth': 411, 'origHeight': 411, 'width': 411, 'height': 411, 'widthPercent': 0.45, 'rescaleHeight': False, 'trialN': 63, 'loaded': True, 'loadedTime': 2734.300000000745, 'positionName': 'RIGHT', 'positionCoords': [725.92, 187], 'bid': 2.44}]",124378.59999999776,1669831454533,burger,salad w chicken,7.59,2.44,-5.15,burger,1262.6000000014901,1263,1263.1000000014901,True,u,126145.69999999925,1767.1000000014901,1669831456300,1767,HRV,HRV_0133,2022-11-30 18:07:23
64,"[{'imgObject': {}, 'id': 'mashed potato', 'src': '/static/foodstim60/mashed potato.jpg', 'key': 'u', 'origWidth': 409, 'origHeight': 409, 'width': 409, 'height': 409, 'widthPercent': 0.45, 'rescaleHeight': False, 'trialN': 64, 'loaded': True, 'loadedTime': 2878.39999999851, 'positionName': 'LEFT', 'positionCoords': [261.08, 188], 'bid': 3.83}, {'imgObject': {}, 'id': 'cherry tomato', 'src': '/static/foodstim60/cherry tomato.jpg', 'key': 'i', 'origWidth': 410, 'origHeight': 410, 'width': 410, 'height': 410, 'widthPercent': 0.45, 'rescaleHeight': False, 'trialN': 64, 'loaded': True, 'loadedTime': 2686, 'positionName': 'RIGHT', 'positionCoords': [725.92, 187.5], 'bid': 1.8}]",126146.0,1669831456300,mashed potato,cherry tomato,3.83,1.8,-2.0300000000000002,mashed potato,1197.5999999977648,1198,1197.8999999985099,True,u,127850.30000000075,1704.300000000745,1669831458005,1705,HRV,HRV_0133,2022-11-30 18:07:23
65,"[{'imgObject': {}, 'id': 'chicken nuggets2', 'src': '/static/foodstim60/chicken nuggets2.jpg', 'key': 'u', 'origWidth': 410, 'origHeight': 409, 'width': 410, 'height': 409, 'widthPercent': 0.45, 'rescaleHeight': False, 'trialN': 65, 'loaded': True, 'loadedTime': 2784.39999999851, 'positionName': 'LEFT', 'positionCoords': [260.08, 188], 'bid': 9.16}, {'imgObject': {}, 'id': 'strawberries', 'src': '/static/foodstim60/strawberries.jpg', 'key': 'i', 'origWidth': 410, 'origHeight': 410, 'width': 410, 'height': 410, 'widthPercent': 0.45, 'rescaleHeight': False, 'trialN': 65, 'loaded': True, 'loadedTime': 2768.800000000745, 'positionName': 'RIGHT', 'positionCoords': [725.92, 187.5], 'bid': 9.67}]",127850.59999999776,1669831458005,chicken nuggets2,strawberries,9.16,9.67,0.5099999999999998,chicken nuggets2,1038.2000000029802,1039,1038.800000000745,True,u,129394.09999999776,1543.5,1669831459549,1544,HRV,HRV_0133,2022-11-30 18:07:23
66,"[{'imgObject': {}, 'id': 'sweetpotato', 'src': '/static/foodstim60/sweetpotato.jpg', 'key': 'u', 'origWidth': 410, 'origHeight': 410, 'width': 410, 'height': 410, 'widthPercent': 0.45, 'rescaleHeight': False, 'trialN': 66, 'loaded': True, 'loadedTime': 2879.800000000745, 'positionName': 'LEFT', 'positionCoords': [260.08, 187.5], 'bid': 9.75}, {'imgObject': {}, 'id': 'turkeysandwich', 'src': '/static/foodstim60/turkeysandwich.jpg', 'key': 'i', 'origWidth': 409, 'origHeight': 409, 'width': 409, 'height': 409, 'widthPercent': 0.45, 'rescaleHeight': False, 'trialN': 66, 'loaded': True, 'loadedTime': 2806.699999999255, 'positionName': 'RIGHT', 'positionCoords': [725.92, 188], 'bid': 7.32}]",129394.19999999925,1669831459549,sweetpotato,turkeysandwich,9.75,7.32,-2.4299999999999997,turkeysandwich,1863.6000000014901,1864,1864.0,True,i,131761.59999999776,2367.39999999851,1669831461916,2367,HRV,HRV_0133,2022-11-30 18:07:23
67,"[{'imgObject': {}, 'id': 'granola w milk', 'src': '/static/foodstim60/granola w milk.jpg', 'key': 'u', 'origWidth': 410, 'origHeight': 410, 'width': 410, 'height': 410, 'widthPercent': 0.45, 'rescaleHeight': False, 'trialN': 67, 'loaded': True, 'loadedTime': 2865.300000000745, 'positionName': 'LEFT', 'positionCoords': [260.08, 187.5], 'bid': 2.1}, {'imgObject': {}, 'id': 'cherry tomato', 'src': '/static/foodstim60/cherry tomato.jpg', 'key': 'i', 'origWidth': 410, 'origHeight': 410, 'width': 410, 'height': 410, 'widthPercent': 0.45, 'rescaleHeight': False, 'trialN': 67, 'loaded': True, 'loadedTime': 2688, 'positionName': 'RIGHT', 'positionCoords': [725.92, 187.5], 'bid': 1.8}]",131761.8999999985,1669831461916,granola w milk,cherry tomato,2.1,1.8,-0.30000000000000004,granola w milk,967.4000000022352,968,968.0,True,u,133234.0,1472.1000000014901,1669831463388,1472,HRV,HRV_0133,2022-11-30 18:07:23
68,"[{'imgObject': {}, 'id': 'ice cream sundae 002', 'src': '/static/foodstim60/ice cream sundae 002.jpg', 'key': 'u', 'origWidth': 409, 'origHeight': 409, 'width': 409, 'height': 409, 'widthPercent': 0.45, 'rescaleHeight': False, 'trialN': 68, 'loaded': True, 'loadedTime': 2870.099999997765, 'positionName': 'LEFT', 'positionCoords': [261.08, 188], 'bid': 1.99}, {'imgObject': {}, 'id': 'granola w milk', 'src': '/static/foodstim60/granola w milk.jpg', 'key': 'i', 'origWidth': 410, 'origHeight': 410, 'width': 410, 'height': 410, 'widthPercent': 0.45, 'rescaleHeight': False, 'trialN': 68, 'loaded': True, 'loadedTime': 2865.39999999851, 'positionName': 'RIGHT', 'positionCoords': [725.92, 187.5], 'bid': 2.1}]",133234.09999999776,1669831463389,ice cream sundae 002,granola w milk,1.99,2.1,0.1100000000000001,granola w milk,1007.7000000029802,1008,1008.1000000014901,True,i,134745.3999999985,1511.300000000745,1669831464900,1511,HRV,HRV_0133,2022-11-30 18:07:23
69,"[{'imgObject': {}, 'id': 'roastedpotatoes', 'src': '/static/foodstim60/roastedpotatoes.jpg', 'key': 'u', 'origWidth': 409, 'origHeight': 410, 'width': 409, 'height': 410, 'widthPercent': 0.45, 'rescaleHeight': False, 'trialN': 69, 'loaded': True, 'loadedTime': 2694, 'positionName': 'LEFT', 'positionCoords': [261.08, 187.5], 'bid': 6.2}, {'imgObject': {}, 'id': 'hashbrowns', 'src': '/static/foodstim60/hashbrowns.jpg', 'key': 'i', 'origWidth': 411, 'origHeight': 410, 'width': 411, 'height': 410, 'widthPercent': 0.45, 'rescaleHeight': False, 'trialN': 69, 'loaded': True, 'loadedTime': 2850.699999999255, 'positionName': 'RIGHT', 'positionCoords': [725.92, 187.5], 'bid': 5.83}]",134745.59999999776,1669831464900,roastedpotatoes,hashbrowns,6.2,5.83,-0.3700000000000001,hashbrowns,1343.2000000029802,1344,1343.7000000029802,True,i,136593.59999999776,1848.0,1669831466748,1848,HRV,HRV_0133,2022-11-30 18:07:23
70,"[{'imgObject': {}, 'id': 'lox', 'src': '/static/foodstim60/lox.jpg', 'key': 'u', 'origWidth': 410, 'origHeight': 411, 'width': 410, 'height': 411, 'widthPercent': 0.45, 'rescaleHeight': False, 'trialN': 70, 'loaded': True, 'loadedTime': 2768.800000000745, 'positionName': 'LEFT', 'positionCoords': [260.08, 187], 'bid': 3.39}, {'imgObject': {}, 'id': 'luckycharms', 'src': '/static/foodstim60/luckycharms.jpg', 'key': 'i', 'origWidth': 410, 'origHeight': 409, 'width': 410, 'height': 409, 'widthPercent': 0.45, 'rescaleHeight': False, 'trialN': 70, 'loaded': True, 'loadedTime': 2731.800000000745, 'positionName': 'RIGHT', 'positionCoords': [725.92, 188], 'bid': 4.58}]",136593.8999999985,1669831466748,lox,luckycharms,3.39,4.58,1.19,luckycharms,800.1999999992549,801,800.8000000007451,True,i,137897.09999999776,1303.199999999255,1669831468052,1304,HRV,HRV_0133,2022-11-30 18:07:23
71,"[{'imgObject': {}, 'id': 'cocktailshrimp', 'src': '/static/foodstim60/cocktailshrimp.jpg', 'key': 'u', 'origWidth': 410, 'origHeight': 410, 'width': 410, 'height': 410, 'widthPercent': 0.45, 'rescaleHeight': False, 'trialN': 71, 'loaded': True, 'loadedTime': 2818.199999999255, 'positionName': 'LEFT', 'positionCoords': [260.08, 187.5], 'bid': 6.03}, {'imgObject': {}, 'id': 'cheerios', 'src': '/static/foodstim60/cheerios.jpg', 'key': 'i', 'origWidth': 409, 'origHeight': 410, 'width': 409, 'height': 410, 'widthPercent': 0.45, 'rescaleHeight': False, 'trialN': 71, 'loaded': True, 'loadedTime': 2857, 'positionName': 'RIGHT', 'positionCoords': [725.92, 187.5], 'bid': 4.24}]",137897.3999999985,1669831468052,cocktailshrimp,cheerios,6.03,4.24,-1.79,cheerios,1071.4000000022352,1072,1071.9000000022352,True,i,139473.59999999776,1576.199999999255,1669831469628,1576,HRV,HRV_0133,2022-11-30 18:07:23
72,"[{'imgObject': {}, 'id': 'seaweed', 'src': '/static/foodstim60/seaweed.jpg', 'key': 'u', 'origWidth': 410, 'origHeight': 410, 'width': 410, 'height': 410, 'widthPercent': 0.45, 'rescaleHeight': False, 'trialN': 72, 'loaded': True, 'loadedTime': 2670.699999999255, 'positionName': 'LEFT', 'positionCoords': [260.08, 187.5], 'bid': 1.11}, {'imgObject': {}, 'id': 'granola w milk', 'src': '/static/foodstim60/granola w milk.jpg', 'key': 'i', 'origWidth': 410, 'origHeight': 410, 'width': 410, 'height': 410, 'widthPercent': 0.45, 'rescaleHeight': False, 'trialN': 72, 'loaded': True, 'loadedTime': 2864.5, 'positionName': 'RIGHT', 'positionCoords': [725.92, 187.5], 'bid': 2.1}]",139473.8999999985,1669831469628,seaweed,granola w milk,1.11,2.1,0.99,granola w milk,926.9000000022352,928,927.5,True,i,140905.19999999925,1431.300000000745,1669831471060,1432,HRV,HRV_0133,2022-11-30 18:07:23
73,"[{'imgObject': {}, 'id': 'fruitsalad', 'src': '/static/foodstim60/fruitsalad.jpg', 'key': 'u', 'origWidth': 410, 'origHeight': 410, 'width': 410, 'height': 410, 'widthPercent': 0.45, 'rescaleHeight': False, 'trialN': 73, 'loaded': True, 'loadedTime': 2829, 'positionName': 'LEFT', 'positionCoords': [260.08, 187.5], 'bid': 2.33}, {'imgObject': {}, 'id': 'salmon', 'src': '/static/foodstim60/salmon.jpg', 'key': 'i', 'origWidth': 410, 'origHeight': 409, 'width': 410, 'height': 409, 'widthPercent': 0.45, 'rescaleHeight': False, 'trialN': 73, 'loaded': True, 'loadedTime': 2779.5, 'positionName': 'RIGHT', 'positionCoords': [725.92, 188], 'bid': 7.36}]",140905.5,1669831471060,fruitsalad,salmon,2.33,7.36,5.03,salmon,1870.199999999255,1870,1870.5,True,i,143281.19999999925,2375.699999999255,1669831473436,2376,HRV,HRV_0133,2022-11-30 18:07:23
74,"[{'imgObject': {}, 'id': 'froot loops w milk', 'src': '/static/foodstim60/froot loops w milk.jpg', 'key': 'u', 'origWidth': 410, 'origHeight': 410, 'width': 410, 'height': 410, 'widthPercent': 0.45, 'rescaleHeight': False, 'trialN': 74, 'loaded': True, 'loadedTime': 2827.800000000745, 'positionName': 'LEFT', 'positionCoords': [260.08, 187.5], 'bid': 4.34}, {'imgObject': {}, 'id': 'apple slices', 'src': '/static/foodstim60/apple slices.jpg', 'key': 'i', 'origWidth': 409, 'origHeight': 410, 'width': 409, 'height': 410, 'widthPercent': 0.45, 'rescaleHeight': False, 'trialN': 74, 'loaded': True, 'loadedTime': 2701.599999997765, 'positionName': 'RIGHT', 'positionCoords': [725.92, 187.5], 'bid': 9.92}]",143281.3999999985,1669831473436,froot loops w milk,apple slices,4.34,9.92,5.58,apple slices,2079.5,2080,2079.900000002235,True,i,145865.09999999776,2583.699999999255,1669831476020,2584,HRV,HRV_0133,2022-11-30 18:07:23
75,"[{'imgObject': {}, 'id': 'eggsalad', 'src': '/static/foodstim60/eggsalad.jpg', 'key': 'u', 'origWidth': 410, 'origHeight': 409, 'width': 410, 'height': 409, 'widthPercent': 0.45, 'rescaleHeight': False, 'trialN': 75, 'loaded': True, 'loadedTime': 2847.599999997765, 'positionName': 'LEFT', 'positionCoords': [260.08, 188], 'bid': 3.4}, {'imgObject': {}, 'id': 'blackbeanswithrice', 'src': '/static/foodstim60/blackbeanswithrice.jpg', 'key': 'i', 'origWidth': 410, 'origHeight': 410, 'width': 410, 'height': 410, 'widthPercent': 0.45, 'rescaleHeight': False, 'trialN': 75, 'loaded': True, 'loadedTime': 2867.199999999255, 'positionName': 'RIGHT', 'positionCoords': [725.92, 187.5], 'bid': 3.79}]",145865.30000000075,1669831476020,eggsalad,blackbeanswithrice,3.4,3.79,0.3900000000000001,eggsalad,1007.0999999977648,1007,1007.2999999970198,True,u,147377.5,1512.199999999255,1669831477532,1512,HRV,HRV_0133,2022-11-30 18:07:23
76,"[{'imgObject': {}, 'id': 'luckycharms', 'src': '/static/foodstim60/luckycharms.jpg', 'key': 'u', 'origWidth': 410, 'origHeight': 409, 'width': 410, 'height': 409, 'widthPercent': 0.45, 'rescaleHeight': False, 'trialN': 76, 'loaded': True, 'loadedTime': 2731, 'positionName': 'LEFT', 'positionCoords': [260.08, 188], 'bid': 4.58}, {'imgObject': {}, 'id': 'hotdog w must', 'src': '/static/foodstim60/hotdog w must.jpg', 'key': 'i', 'origWidth': 409, 'origHeight': 409, 'width': 409, 'height': 409, 'widthPercent': 0.45, 'rescaleHeight': False, 'trialN': 76, 'loaded': True, 'loadedTime': 2803.89999999851, 'positionName': 'RIGHT', 'positionCoords': [725.92, 188], 'bid': 5.8}]",147377.80000000075,1669831477532,luckycharms,hotdog w must,4.58,5.8,1.2199999999999998,luckycharms,1639.0,1640,1639.5999999977648,True,u,149522.19999999925,2144.39999999851,1669831479677,2145,HRV,HRV_0133,2022-11-30 18:07:23
77,"[{'imgObject': {}, 'id': 'olives', 'src': '/static/foodstim60/olives.jpg', 'key': 'u', 'origWidth': 410, 'origHeight': 410, 'width': 410, 'height': 410, 'widthPercent': 0.45, 'rescaleHeight': False, 'trialN': 77, 'loaded': True, 'loadedTime': 2728.300000000745, 'positionName': 'LEFT', 'positionCoords': [260.08, 187.5], 'bid': 0.1}, {'imgObject': {}, 'id': 'edamame', 'src': '/static/foodstim60/edamame.jpg', 'key': 'i', 'origWidth': 409, 'origHeight': 410, 'width': 409, 'height': 410, 'widthPercent': 0.45, 'rescaleHeight': False, 'trialN': 77, 'loaded': True, 'loadedTime': 2750.599999997765, 'positionName': 'RIGHT', 'positionCoords': [725.92, 187.5], 'bid': 2.63}]",149522.3999999985,1669831479677,olives,edamame,0.1,2.63,2.53,edamame,1382.4000000022352,1383,1382.9000000022352,True,i,151410.30000000075,1887.9000000022352,1669831481565,1888,HRV,HRV_0133,2022-11-30 18:07:23
78,"[{'imgObject': {}, 'id': 'banana', 'src': '/static/foodstim60/banana.jpg', 'key': 'u', 'origWidth': 410, 'origHeight': 410, 'width': 410, 'height': 410, 'widthPercent': 0.45, 'rescaleHeight': False, 'trialN': 78, 'loaded': True, 'loadedTime': 2844.599999997765, 'positionName': 'LEFT', 'positionCoords': [260.08, 187.5], 'bid': 9.95}, {'imgObject': {}, 'id': 'apple slices', 'src': '/static/foodstim60/apple slices.jpg', 'key': 'i', 'origWidth': 409, 'origHeight': 410, 'width': 409, 'height': 410, 'widthPercent': 0.45, 'rescaleHeight': False, 'trialN': 78, 'loaded': True, 'loadedTime': 2701.800000000745, 'positionName': 'RIGHT', 'positionCoords': [725.92, 187.5], 'bid': 9.92}]",151410.3999999985,1669831481565,banana,apple slices,9.95,9.92,-0.02999999999999936,banana,710.5,711,710.9000000022352,True,u,152625.5,1215.1000000014901,1669831482780,1215,HRV,HRV_0133,2022-11-30 18:07:23
79,"[{'imgObject': {}, 'id': 'raisin bran w milk', 'src': '/static/foodstim60/raisin bran w milk.jpg', 'key': 'u', 'origWidth': 411, 'origHeight': 411, 'width': 411, 'height': 411, 'widthPercent': 0.45, 'rescaleHeight': False, 'trialN': 79, 'loaded': True, 'loadedTime': 2861.800000000745, 'positionName': 'LEFT', 'positionCoords': [259.08, 187], 'bid': 3.95}, {'imgObject': {}, 'id': 'cheerios', 'src': '/static/foodstim60/cheerios.jpg', 'key': 'i', 'origWidth': 409, 'origHeight': 410, 'width': 409, 'height': 410, 'widthPercent': 0.45, 'rescaleHeight': False, 'trialN': 79, 'loaded': True, 'loadedTime': 2858.5, 'positionName': 'RIGHT', 'positionCoords': [725.92, 187.5], 'bid': 4.24}]",152625.80000000075,1669831482781,raisin bran w milk,cheerios,3.95,4.24,0.29000000000000004,cheerios,1430.0,1430,1430.3999999985099,True,i,154562.0,1936.199999999255,1669831484717,1936,HRV,HRV_0133,2022-11-30 18:07:23
80,"[{'imgObject': {}, 'id': 'avocado', 'src': '/static/foodstim60/avocado.jpg', 'key': 'u', 'origWidth': 409, 'origHeight': 409, 'width': 409, 'height': 409, 'widthPercent': 0.45, 'rescaleHeight': False, 'trialN': 80, 'loaded': True, 'loadedTime': 2855.39999999851, 'positionName': 'LEFT', 'positionCoords': [261.08, 188], 'bid': 1.03}, {'imgObject': {}, 'id': 'fruitsalad', 'src': '/static/foodstim60/fruitsalad.jpg', 'key': 'i', 'origWidth': 410, 'origHeight': 410, 'width': 410, 'height': 410, 'widthPercent': 0.45, 'rescaleHeight': False, 'trialN': 80, 'loaded': True, 'loadedTime': 2828.89999999851, 'positionName': 'RIGHT', 'positionCoords': [725.92, 187.5], 'bid': 2.33}]",154562.09999999776,1669831484717,avocado,fruitsalad,1.03,2.33,1.3,fruitsalad,871.7000000029802,872,872.3000000007451,True,i,155937.5,1375.4000000022352,1669831486092,1375,HRV,HRV_0133,2022-11-30 18:07:23
81,"[{'imgObject': {}, 'id': 'salad w chicken', 'src': '/static/foodstim60/salad w chicken.jpg', 'key': 'u', 'origWidth': 411, 'origHeight': 411, 'width': 411, 'height': 411, 'widthPercent': 0.45, 'rescaleHeight': False, 'trialN': 81, 'loaded': True, 'loadedTime': 2736, 'positionName': 'LEFT', 'positionCoords': [259.08, 187], 'bid': 2.44}, {'imgObject': {}, 'id': 'lox', 'src': '/static/foodstim60/lox.jpg', 'key': 'i', 'origWidth': 410, 'origHeight': 411, 'width': 410, 'height': 411, 'widthPercent': 0.45, 'rescaleHeight': False, 'trialN': 81, 'loaded': True, 'loadedTime': 2768.5, 'positionName': 'RIGHT', 'positionCoords': [725.92, 187], 'bid': 3.39}]",155937.69999999925,1669831486093,salad w chicken,lox,2.44,3.39,0.9500000000000002,lox,1701.5,1701,1701.800000000745,True,i,158145.19999999925,2207.5,1669831488300,2207,HRV,HRV_0133,2022-11-30 18:07:23
82,"[{'imgObject': {}, 'id': 'tacos', 'src': '/static/foodstim60/tacos.jpg', 'key': 'u', 'origWidth': 411, 'origHeight': 411, 'width': 411, 'height': 411, 'widthPercent': 0.45, 'rescaleHeight': False, 'trialN': 82, 'loaded': True, 'loadedTime': 2830.599999997765, 'positionName': 'LEFT', 'positionCoords': [259.08, 187], 'bid': 4.36}, {'imgObject': {}, 'id': 'bagel and cc', 'src': '/static/foodstim60/bagel and cc.jpg', 'key': 'i', 'origWidth': 410, 'origHeight': 410, 'width': 410, 'height': 410, 'widthPercent': 0.45, 'rescaleHeight': False, 'trialN': 82, 'loaded': True, 'loadedTime': 2662.300000000745, 'positionName': 'RIGHT', 'positionCoords': [725.92, 187.5], 'bid': 6.7}]",158145.3999999985,1669831488300,tacos,bagel and cc,4.36,6.7,2.34,tacos,1414.199999999255,1415,1414.300000000745,True,u,160066.5,1921.1000000014901,1669831490221,1921,HRV,HRV_0133,2022-11-30 18:07:23
83,"[{'imgObject': {}, 'id': 'omelette', 'src': '/static/foodstim60/omelette.jpg', 'key': 'u', 'origWidth': 410, 'origHeight': 409, 'width': 410, 'height': 409, 'widthPercent': 0.45, 'rescaleHeight': False, 'trialN': 83, 'loaded': True, 'loadedTime': 2880.699999999255, 'positionName': 'LEFT', 'positionCoords': [260.08, 188], 'bid': 3.52}, {'imgObject': {}, 'id': 'blackbeanswithrice', 'src': '/static/foodstim60/blackbeanswithrice.jpg', 'key': 'i', 'origWidth': 410, 'origHeight': 410, 'width': 410, 'height': 410, 'widthPercent': 0.45, 'rescaleHeight': False, 'trialN': 83, 'loaded': True, 'loadedTime': 2866.800000000745, 'positionName': 'RIGHT', 'positionCoords': [725.92, 187.5], 'bid': 3.79}]",160066.69999999925,1669831490222,omelette,blackbeanswithrice,3.52,3.79,0.27,omelette,1468.800000000745,1469,1469.0,True,u,162040.80000000075,1974.1000000014901,1669831492196,1974,HRV,HRV_0133,2022-11-30 18:07:23
84,"[{'imgObject': {}, 'id': 'olives', 'src': '/static/foodstim60/olives.jpg', 'key': 'u', 'origWidth': 410, 'origHeight': 410, 'width': 410, 'height': 410, 'widthPercent': 0.45, 'rescaleHeight': False, 'trialN': 84, 'loaded': True, 'loadedTime': 2727.699999999255, 'positionName': 'LEFT', 'positionCoords': [260.08, 187.5], 'bid': 0.1}, {'imgObject': {}, 'id': 'mango', 'src': '/static/foodstim60/mango.jpg', 'key': 'i', 'origWidth': 411, 'origHeight': 411, 'width': 411, 'height': 411, 'widthPercent': 0.45, 'rescaleHeight': False, 'trialN': 84, 'loaded': True, 'loadedTime': 2877.099999997765, 'positionName': 'RIGHT', 'positionCoords': [725.92, 187], 'bid': 1.4}]",162040.8999999985,1669831492196,olives,mango,0.1,1.4,1.2999999999999998,mango,1056.1000000014901,1056,1056.6000000014901,True,i,163601.3999999985,1560.5,1669831493756,1560,HRV,HRV_0133,2022-11-30 18:07:23
85,"[{'imgObject': {}, 'id': 'cherry tomato', 'src': '/static/foodstim60/cherry tomato.jpg', 'key': 'u', 'origWidth': 410, 'origHeight': 410, 'width': 410, 'height': 410, 'widthPercent': 0.45, 'rescaleHeight': False, 'trialN': 85, 'loaded': True, 'loadedTime': 2687.89999999851, 'positionName': 'LEFT', 'positionCoords': [260.08, 187.5], 'bid': 1.8}, {'imgObject': {}, 'id': 'raspberries', 'src': '/static/foodstim60/raspberries.jpg', 'key': 'i', 'origWidth': 411, 'origHeight': 411, 'width': 411, 'height': 411, 'widthPercent': 0.45, 'rescaleHeight': False, 'trialN': 85, 'loaded': True, 'loadedTime': 2657.099999997765, 'positionName': 'RIGHT', 'positionCoords': [725.92, 187], 'bid': 3.33}]",163601.59999999776,1669831493756,cherry tomato,raspberries,1.8,3.33,1.53,raspberries,1807.2000000029802,1808,1807.9000000022352,True,i,165914.0,2312.400000002235,1669831496069,2313,HRV,HRV_0133,2022-11-30 18:07:23
86,"[{'imgObject': {}, 'id': 'raisin bran w milk', 'src': '/static/foodstim60/raisin bran w milk.jpg', 'key': 'u', 'origWidth': 411, 'origHeight': 411, 'width': 411, 'height': 411, 'widthPercent': 0.45, 'rescaleHeight': False, 'trialN': 86, 'loaded': True, 'loadedTime': 2860.699999999255, 'positionName': 'LEFT', 'positionCoords': [259.08, 187], 'bid': 3.95}, {'imgObject': {}, 'id': 'strawberries', 'src': '/static/foodstim60/strawberries.jpg', 'key': 'i', 'origWidth': 410, 'origHeight': 410, 'width': 410, 'height': 410, 'widthPercent': 0.45, 'rescaleHeight': False, 'trialN': 86, 'loaded': True, 'loadedTime': 2769.800000000745, 'positionName': 'RIGHT', 'positionCoords': [725.92, 187.5], 'bid': 9.67}]",165914.09999999776,1669831496069,raisin bran w milk,strawberries,3.95,9.67,5.72,strawberries,1077.7000000029802,1078,1077.9000000022352,True,i,167497.3999999985,1583.300000000745,1669831497652,1583,HRV,HRV_0133,2022-11-30 18:07:23
87,"[{'imgObject': {}, 'id': 'mac & cheese', 'src': '/static/foodstim60/mac & cheese.jpg', 'key': 'u', 'origWidth': 410, 'origHeight': 410, 'width': 410, 'height': 410, 'widthPercent': 0.45, 'rescaleHeight': False, 'trialN': 87, 'loaded': True, 'loadedTime': 2760.099999997765, 'positionName': 'LEFT', 'positionCoords': [260.08, 187.5], 'bid': 8.88}, {'imgObject': {}, 'id': 'lox', 'src': '/static/foodstim60/lox.jpg', 'key': 'i', 'origWidth': 410, 'origHeight': 411, 'width': 410, 'height': 411, 'widthPercent': 0.45, 'rescaleHeight': False, 'trialN': 87, 'loaded': True, 'loadedTime': 2768.39999999851, 'positionName': 'RIGHT', 'positionCoords': [725.92, 187], 'bid': 3.39}]",167497.69999999925,1669831497652,mac & cheese,lox,8.88,3.39,-5.49,mac & cheese,903.1000000014901,904,903.8000000007451,True,u,168906.19999999925,1408.5,1669831499061,1409,HRV,HRV_0133,2022-11-30 18:07:23
88,"[{'imgObject': {}, 'id': 'eggsalad', 'src': '/static/foodstim60/eggsalad.jpg', 'key': 'u', 'origWidth': 410, 'origHeight': 409, 'width': 410, 'height': 409, 'widthPercent': 0.45, 'rescaleHeight': False, 'trialN': 88, 'loaded': True, 'loadedTime': 2846.199999999255, 'positionName': 'LEFT', 'positionCoords': [260.08, 188], 'bid': 3.4}, {'imgObject': {}, 'id': 'mango', 'src': '/static/foodstim60/mango.jpg', 'key': 'i', 'origWidth': 411, 'origHeight': 411, 'width': 411, 'height': 411, 'widthPercent': 0.45, 'rescaleHeight': False, 'trialN': 88, 'loaded': True, 'loadedTime': 2876.099999997765, 'positionName': 'RIGHT', 'positionCoords': [725.92, 187], 'bid': 1.4}]",168906.5,1669831499061,eggsalad,mango,3.4,1.4,-2.0,eggsalad,2086.0,2087,2086.5,True,u,171497.8999999985,2591.39999999851,1669831501653,2592,HRV,HRV_0133,2022-11-30 18:07:23
89,"[{'imgObject': {}, 'id': 'eggsalad', 'src': '/static/foodstim60/eggsalad.jpg', 'key': 'u', 'origWidth': 410, 'origHeight': 409, 'width': 410, 'height': 409, 'widthPercent': 0.45, 'rescaleHeight': False, 'trialN': 89, 'loaded': True, 'loadedTime': 2848.099999997765, 'positionName': 'LEFT', 'positionCoords': [260.08, 188], 'bid': 3.4}, {'imgObject': {}, 'id': 'rigatoni and sauce', 'src': '/static/foodstim60/rigatoni and sauce.jpg', 'key': 'i', 'origWidth': 410, 'origHeight': 411, 'width': 410, 'height': 411, 'widthPercent': 0.45, 'rescaleHeight': False, 'trialN': 89, 'loaded': True, 'loadedTime': 2643.89999999851, 'positionName': 'RIGHT', 'positionCoords': [725.92, 187], 'bid': 8.98}]",171498.09999999776,1669831501653,eggsalad,rigatoni and sauce,3.4,8.98,5.58,rigatoni and sauce,894.8000000007451,895,895.2000000029802,True,i,172898.0,1399.9000000022352,1669831503053,1400,HRV,HRV_0133,2022-11-30 18:07:23
90,"[{'imgObject': {}, 'id': 'ice cream sundae 002', 'src': '/static/foodstim60/ice cream sundae 002.jpg', 'key': 'u', 'origWidth': 409, 'origHeight': 409, 'width': 409, 'height': 409, 'widthPercent': 0.45, 'rescaleHeight': False, 'trialN': 90, 'loaded': True, 'loadedTime': 2870.39999999851, 'positionName': 'LEFT', 'positionCoords': [261.08, 188], 'bid': 1.99}, {'imgObject': {}, 'id': 'eggs', 'src': '/static/foodstim60/eggs.jpg', 'key': 'i', 'origWidth': 409, 'origHeight': 409, 'width': 409, 'height': 409, 'widthPercent': 0.45, 'rescaleHeight': False, 'trialN': 90, 'loaded': True, 'loadedTime': 2690.699999999255, 'positionName': 'RIGHT', 'positionCoords': [725.92, 188], 'bid': 1.71}]",179201.8999999985,1669831509357,ice cream sundae 002,eggs,1.99,1.71,-0.28,eggs,1479.1000000014901,1479,1479.6000000014901,True,i,181185.59999999776,1983.699999999255,1669831511340,1983,HRV,HRV_0133,2022-11-30 18:07:23
91,"[{'imgObject': {}, 'id': 'avocado', 'src': '/static/foodstim60/avocado.jpg', 'key': 'u', 'origWidth': 409, 'origHeight': 409, 'width': 409, 'height': 409, 'widthPercent': 0.45, 'rescaleHeight': False, 'trialN': 91, 'loaded': True, 'loadedTime': 2856.800000000745, 'positionName': 'LEFT', 'positionCoords': [261.08, 188], 'bid': 1.03}, {'imgObject': {}, 'id': 'cherry tomato', 'src': '/static/foodstim60/cherry tomato.jpg', 'key': 'i', 'origWidth': 410, 'origHeight': 410, 'width': 410, 'height': 410, 'widthPercent': 0.45, 'rescaleHeight': False, 'trialN': 91, 'loaded': True, 'loadedTime': 2688.39999999851, 'positionName': 'RIGHT', 'positionCoords': [725.92, 187.5], 'bid': 1.8}]",181185.80000000075,1669831511341,avocado,cherry tomato,1.03,1.8,0.77,avocado,1151.0,1151,1151.5,True,u,182841.09999999776,1655.2999999970198,1669831512996,1655,HRV,HRV_0133,2022-11-30 18:07:23
92,"[{'imgObject': {}, 'id': 'popsicles', 'src': '/static/foodstim60/popsicles.jpg', 'key': 'u', 'origWidth': 410, 'origHeight': 410, 'width': 410, 'height': 410, 'widthPercent': 0.45, 'rescaleHeight': False, 'trialN': 92, 'loaded': True, 'loadedTime': 2693.89999999851, 'positionName': 'LEFT', 'positionCoords': [260.08, 187.5], 'bid': 1.07}, {'imgObject': {}, 'id': 'raspberries', 'src': '/static/foodstim60/raspberries.jpg', 'key': 'i', 'origWidth': 411, 'origHeight': 411, 'width': 411, 'height': 411, 'widthPercent': 0.45, 'rescaleHeight': False, 'trialN': 92, 'loaded': True, 'loadedTime': 2659.89999999851, 'positionName': 'RIGHT', 'positionCoords': [725.92, 187], 'bid': 3.33}]",182841.30000000075,1669831512996,popsicles,raspberries,1.07,3.33,2.26,popsicles,1247.5,1248,1248.0999999977648,True,u,184594.69999999925,1753.3999999985099,1669831514750,1754,HRV,HRV_0133,2022-11-30 18:07:23
93,"[{'imgObject': {}, 'id': 'shreddedwheatwithmilk', 'src': '/static/foodstim60/shreddedwheatwithmilk.jpg', 'key': 'u', 'origWidth': 410, 'origHeight': 410, 'width': 410, 'height': 410, 'widthPercent': 0.45, 'rescaleHeight': False, 'trialN': 93, 'loaded': True, 'loadedTime': 2874.199999999255, 'positionName': 'LEFT', 'positionCoords': [260.08, 187.5], 'bid': 2.67}, {'imgObject': {}, 'id': 'Tribe humus pita', 'src': '/static/foodstim60/Tribe humus pita.jpg', 'key': 'i', 'origWidth': 411, 'origHeight': 411, 'width': 411, 'height': 411, 'widthPercent': 0.45, 'rescaleHeight': False, 'trialN': 93, 'loaded': True, 'loadedTime': 2652.599999997765, 'positionName': 'RIGHT', 'positionCoords': [725.92, 187], 'bid': 2.79}]",184594.80000000075,1669831514750,shreddedwheatwithmilk,Tribe humus pita,2.67,2.79,0.1200000000000001,Tribe humus pita,1494.0999999977648,1494,1494.699999999255,True,i,186593.8999999985,1999.0999999977648,1669831516749,1999,HRV,HRV_0133,2022-11-30 18:07:23
94,"[{'imgObject': {}, 'id': 'tacos', 'src': '/static/foodstim60/tacos.jpg', 'key': 'u', 'origWidth': 411, 'origHeight': 411, 'width': 411, 'height': 411, 'widthPercent': 0.45, 'rescaleHeight': False, 'trialN': 94, 'loaded': True, 'loadedTime': 2830.199999999255, 'positionName': 'LEFT', 'positionCoords': [259.08, 187], 'bid': 4.36}, {'imgObject': {}, 'id': 'froot loops w milk', 'src': '/static/foodstim60/froot loops w milk.jpg', 'key': 'i', 'origWidth': 410, 'origHeight': 410, 'width': 410, 'height': 410, 'widthPercent': 0.45, 'rescaleHeight': False, 'trialN': 94, 'loaded': True, 'loadedTime': 2821.89999999851, 'positionName': 'RIGHT', 'positionCoords': [725.92, 187.5], 'bid': 4.34}]",186594.09999999776,1669831516749,tacos,froot loops w milk,4.36,4.34,-0.020000000000000462,tacos,1358.800000000745,1359,1359.300000000745,True,u,188458.30000000075,1864.2000000029802,1669831518613,1864,HRV,HRV_0133,2022-11-30 18:07:23
95,"[{'imgObject': {}, 'id': 'sweetpotato', 'src': '/static/foodstim60/sweetpotato.jpg', 'key': 'u', 'origWidth': 410, 'origHeight': 410, 'width': 410, 'height': 410, 'widthPercent': 0.45, 'rescaleHeight': False, 'trialN': 95, 'loaded': True, 'loadedTime': 2879.39999999851, 'positionName': 'LEFT', 'positionCoords': [260.08, 187.5], 'bid': 9.75}, {'imgObject': {}, 'id': 'turkey sandwich', 'src': '/static/foodstim60/turkey sandwich.jpg', 'key': 'i', 'origWidth': 409, 'origHeight': 409, 'width': 409, 'height': 409, 'widthPercent': 0.45, 'rescaleHeight': False, 'trialN': 95, 'loaded': True, 'loadedTime': 2839.39999999851, 'positionName': 'RIGHT', 'positionCoords': [725.92, 188], 'bid': 8.13}]",188458.59999999776,1669831518613,sweetpotato,turkey sandwich,9.75,8.13,-1.6199999999999992,turkey sandwich,1679.2000000029802,1680,1679.6000000014901,True,i,190642.0,2183.400000002235,1669831520797,2184,HRV,HRV_0133,2022-11-30 18:07:23
96,"[{'imgObject': {}, 'id': 'hashbrowns', 'src': '/static/foodstim60/hashbrowns.jpg', 'key': 'u', 'origWidth': 411, 'origHeight': 410, 'width': 411, 'height': 410, 'widthPercent': 0.45, 'rescaleHeight': False, 'trialN': 96, 'loaded': True, 'loadedTime': 2849, 'positionName': 'LEFT', 'positionCoords': [259.08, 187.5], 'bid': 5.83}, {'imgObject': {}, 'id': 'fried eggs', 'src': '/static/foodstim60/fried eggs.jpg', 'key': 'i', 'origWidth': 410, 'origHeight': 410, 'width': 410, 'height': 410, 'widthPercent': 0.45, 'rescaleHeight': False, 'trialN': 96, 'loaded': True, 'loadedTime': 2864.300000000745, 'positionName': 'RIGHT', 'positionCoords': [725.92, 187.5], 'bid': 0.5700000000000001}]",190642.0,1669831520797,hashbrowns,fried eggs,5.83,0.5700000000000001,-5.26,hashbrowns,1176.800000000745,1177,1177.199999999255,True,u,192321.80000000075,1679.800000000745,1669831522477,1680,HRV,HRV_0133,2022-11-30 18:07:23
97,"[{'imgObject': {}, 'id': 'blueberries', 'src': '/static/foodstim60/blueberries.jpg', 'key': 'u', 'origWidth': 411, 'origHeight': 411, 'width': 411, 'height': 411, 'widthPercent': 0.45, 'rescaleHeight': False, 'trialN': 97, 'loaded': True, 'loadedTime': 2672.800000000745, 'positionName': 'LEFT', 'positionCoords': [259.08, 187], 'bid': 1.4}, {'imgObject': {}, 'id': 'omelette', 'src': '/static/foodstim60/omelette.jpg', 'key': 'i', 'origWidth': 410, 'origHeight': 409, 'width': 410, 'height': 409, 'widthPercent': 0.45, 'rescaleHeight': False, 'trialN': 97, 'loaded': True, 'loadedTime': 2880.800000000745, 'positionName': 'RIGHT', 'positionCoords': [725.92, 188], 'bid': 3.52}]",192321.8999999985,1669831522477,blueberries,omelette,1.4,3.52,2.12,blueberries,1959.1000000014901,1959,1959.6000000014901,True,u,194785.59999999776,2463.699999999255,1669831524940,2463,HRV,HRV_0133,2022-11-30 18:07:23
98,"[{'imgObject': {}, 'id': 'grilled chicken strips', 'src': '/static/foodstim60/grilled chicken strips.jpg', 'key': 'u', 'origWidth': 410, 'origHeight': 411, 'width': 410, 'height': 411, 'widthPercent': 0.45, 'rescaleHeight': False, 'trialN': 98, 'loaded': True, 'loadedTime': 2863.099999997765, 'positionName': 'LEFT', 'positionCoords': [260.08, 187], 'bid': 6.21}, {'imgObject': {}, 'id': 'cocktailshrimp', 'src': '/static/foodstim60/cocktailshrimp.jpg', 'key': 'i', 'origWidth': 410, 'origHeight': 410, 'width': 410, 'height': 410, 'widthPercent': 0.45, 'rescaleHeight': False, 'trialN': 98, 'loaded': True, 'loadedTime': 2816.599999997765, 'positionName': 'RIGHT', 'positionCoords': [725.92, 187.5], 'bid': 6.03}]",194785.80000000075,1669831524941,grilled chicken strips,cocktailshrimp,6.21,6.03,-0.17999999999999972,cocktailshrimp,1381.5999999977648,1381,1381.8999999985099,True,i,196673.8999999985,1888.0999999977648,1669831526829,1888,HRV,HRV_0133,2022-11-30 18:07:23
99,"[{'imgObject': {}, 'id': 'sushi w_condiments', 'src': '/static/foodstim60/sushi w_condiments.jpg', 'key': 'u', 'origWidth': 410, 'origHeight': 410, 'width': 410, 'height': 410, 'widthPercent': 0.45, 'rescaleHeight': False, 'trialN': 99, 'loaded': True, 'loadedTime': 2802.5, 'positionName': 'LEFT', 'positionCoords': [260.08, 187.5], 'bid': 0.45}, {'imgObject': {}, 'id': 'blueberries', 'src': '/static/foodstim60/blueberries.jpg', 'key': 'i', 'origWidth': 411, 'origHeight': 411, 'width': 411, 'height': 411, 'widthPercent': 0.45, 'rescaleHeight': False, 'trialN': 99, 'loaded': True, 'loadedTime': 2680.39999999851, 'positionName': 'RIGHT', 'positionCoords': [725.92, 187], 'bid': 1.4}]",196674.09999999776,1669831526829,sushi w_condiments,blueberries,0.45,1.4,0.95,blueberries,974.8000000007451,975,975.3000000007451,True,i,198153.80000000075,1479.7000000029802,1669831528309,1480,HRV,HRV_0133,2022-11-30 18:07:23
100,"[{'imgObject': {}, 'id': 'seaweed', 'src': '/static/foodstim60/seaweed.jpg', 'key': 'u', 'origWidth': 410, 'origHeight': 410, 'width': 410, 'height': 410, 'widthPercent': 0.45, 'rescaleHeight': False, 'trialN': 100, 'loaded': True, 'loadedTime': 2672, 'positionName': 'LEFT', 'positionCoords': [260.08, 187.5], 'bid': 1.11}, {'imgObject': {}, 'id': 'popsicles', 'src': '/static/foodstim60/popsicles.jpg', 'key': 'i', 'origWidth': 410, 'origHeight': 410, 'width': 410, 'height': 410, 'widthPercent': 0.45, 'rescaleHeight': False, 'trialN': 100, 'loaded': True, 'loadedTime': 2693.89999999851, 'positionName': 'RIGHT', 'positionCoords': [725.92, 187.5], 'bid': 1.07}]",198154.09999999776,1669831528309,seaweed,popsicles,1.11,1.07,-0.040000000000000036,popsicles,1015.1000000014901,1016,1015.6000000014901,True,i,199674.59999999776,1520.5,1669831529829,1520,HRV,HRV_0133,2022-11-30 18:07:23
101,"[{'imgObject': {}, 'id': 'salmon', 'src': '/static/foodstim60/salmon.jpg', 'key': 'u', 'origWidth': 410, 'origHeight': 409, 'width': 410, 'height': 409, 'widthPercent': 0.45, 'rescaleHeight': False, 'trialN': 101, 'loaded': True, 'loadedTime': 2781.099999997765, 'positionName': 'LEFT', 'positionCoords': [260.08, 188], 'bid': 7.36}, {'imgObject': {}, 'id': 'cherries', 'src': '/static/foodstim60/cherries.jpg', 'key': 'i', 'origWidth': 410, 'origHeight': 411, 'width': 410, 'height': 411, 'widthPercent': 0.45, 'rescaleHeight': False, 'trialN': 101, 'loaded': True, 'loadedTime': 2668.199999999255, 'positionName': 'RIGHT', 'positionCoords': [725.92, 187], 'bid': 6.57}]",199674.80000000075,1669831529830,salmon,cherries,7.36,6.57,-0.79,salmon,1085.7999999970198,1086,1086.199999999255,True,u,201266.30000000075,1591.5,1669831531421,1591,HRV,HRV_0133,2022-11-30 18:07:23
102,"[{'imgObject': {}, 'id': 'turkey sandwich', 'src': '/static/foodstim60/turkey sandwich.jpg', 'key': 'u', 'origWidth': 409, 'origHeight': 409, 'width': 409, 'height': 409, 'widthPercent': 0.45, 'rescaleHeight': False, 'trialN': 102, 'loaded': True, 'loadedTime': 2831.39999999851, 'positionName': 'LEFT', 'positionCoords': [261.08, 188], 'bid': 8.13}, {'imgObject': {}, 'id': 'shreddedwheatwithmilk', 'src': '/static/foodstim60/shreddedwheatwithmilk.jpg', 'key': 'i', 'origWidth': 410, 'origHeight': 410, 'width': 410, 'height': 410, 'widthPercent': 0.45, 'rescaleHeight': False, 'trialN': 102, 'loaded': True, 'loadedTime': 2875.199999999255, 'positionName': 'RIGHT', 'positionCoords': [725.92, 187.5], 'bid': 2.67}]",201266.5,1669831531421,turkey sandwich,shreddedwheatwithmilk,8.13,2.67,-5.460000000000001,turkey sandwich,991.0,992,991.5,True,u,202761.19999999925,1494.699999999255,1669831532916,1495,HRV,HRV_0133,2022-11-30 18:07:23
103,"[{'imgObject': {}, 'id': 'bagel and cc', 'src': '/static/foodstim60/bagel and cc.jpg', 'key': 'u', 'origWidth': 410, 'origHeight': 410, 'width': 410, 'height': 410, 'widthPercent': 0.45, 'rescaleHeight': False, 'trialN': 103, 'loaded': True, 'loadedTime': 2662.89999999851, 'positionName': 'LEFT', 'positionCoords': [260.08, 187.5], 'bid': 6.7}, {'imgObject': {}, 'id': 'burrito', 'src': '/static/foodstim60/burrito.jpg', 'key': 'i', 'origWidth': 410, 'origHeight': 410, 'width': 410, 'height': 410, 'widthPercent': 0.45, 'rescaleHeight': False, 'trialN': 103, 'loaded': True, 'loadedTime': 2755.699999999255, 'positionName': 'RIGHT', 'positionCoords': [725.92, 187.5], 'bid': 7.63}]",202761.3999999985,1669831532916,bagel and cc,burrito,6.7,7.63,0.9299999999999997,bagel and cc,1407.4000000022352,1408,1407.9000000022352,True,u,204673.5,1912.1000000014901,1669831534828,1912,HRV,HRV_0133,2022-11-30 18:07:23
104,"[{'imgObject': {}, 'id': 'mac & cheese', 'src': '/static/foodstim60/mac & cheese.jpg', 'key': 'u', 'origWidth': 410, 'origHeight': 410, 'width': 410, 'height': 410, 'widthPercent': 0.45, 'rescaleHeight': False, 'trialN': 104, 'loaded': True, 'loadedTime': 2760.5, 'positionName': 'LEFT', 'positionCoords': [260.08, 187.5], 'bid': 8.88}, {'imgObject': {}, 'id': 'grilled chicken strips', 'src': '/static/foodstim60/grilled chicken strips.jpg', 'key': 'i', 'origWidth': 410, 'origHeight': 411, 'width': 410, 'height': 411, 'widthPercent': 0.45, 'rescaleHeight': False, 'trialN': 104, 'loaded': True, 'loadedTime': 2863.199999999255, 'positionName': 'RIGHT', 'positionCoords': [725.92, 187], 'bid': 6.21}]",204673.69999999925,1669831534829,mac & cheese,grilled chicken strips,8.88,6.21,-2.670000000000001,mac & cheese,847.1000000014901,847,847.8000000007451,True,u,206025.80000000075,1352.1000000014901,1669831536181,1352,HRV,HRV_0133,2022-11-30 18:07:23
105,"[{'imgObject': {}, 'id': 'raspberries', 'src': '/static/foodstim60/raspberries.jpg', 'key': 'u', 'origWidth': 411, 'origHeight': 411, 'width': 411, 'height': 411, 'widthPercent': 0.45, 'rescaleHeight': False, 'trialN': 105, 'loaded': True, 'loadedTime': 2659.199999999255, 'positionName': 'LEFT', 'positionCoords': [259.08, 187], 'bid': 3.33}, {'imgObject': {}, 'id': 'veggieswithdip', 'src': '/static/foodstim60/veggieswithdip.jpg', 'key': 'i', 'origWidth': 409, 'origHeight': 409, 'width': 409, 'height': 409, 'widthPercent': 0.45, 'rescaleHeight': False, 'trialN': 105, 'loaded': True, 'loadedTime': 2809.199999999255, 'positionName': 'RIGHT', 'positionCoords': [725.92, 188], 'bid': 2.89}]",206025.80000000075,1669831536181,raspberries,veggieswithdip,3.33,2.89,-0.43999999999999995,raspberries,1015.0,1015,1015.3999999985099,True,u,207545.09999999776,1519.2999999970198,1669831537700,1519,HRV,HRV_0133,2022-11-30 18:07:23
106,"[{'imgObject': {}, 'id': 'Tribe humus pita', 'src': '/static/foodstim60/Tribe humus pita.jpg', 'key': 'u', 'origWidth': 411, 'origHeight': 411, 'width': 411, 'height': 411, 'widthPercent': 0.45, 'rescaleHeight': False, 'trialN': 106, 'loaded': True, 'loadedTime': 2653.39999999851, 'positionName': 'LEFT', 'positionCoords': [259.08, 187], 'bid': 2.79}, {'imgObject': {}, 'id': 'fried eggs', 'src': '/static/foodstim60/fried eggs.jpg', 'key': 'i', 'origWidth': 410, 'origHeight': 410, 'width': 410, 'height': 410, 'widthPercent': 0.45, 'rescaleHeight': False, 'trialN': 106, 'loaded': True, 'loadedTime': 2863.39999999851, 'positionName': 'RIGHT', 'positionCoords': [725.92, 187.5], 'bid': 0.5700000000000001}]",207545.3999999985,1669831537700,Tribe humus pita,fried eggs,2.79,0.5700000000000001,-2.2199999999999998,Tribe humus pita,1247.4000000022352,1248,1248.199999999255,True,u,209297.19999999925,1751.800000000745,1669831539452,1752,HRV,HRV_0133,2022-11-30 18:07:23
107,"[{'imgObject': {}, 'id': 'grilled chicken strips', 'src': '/static/foodstim60/grilled chicken strips.jpg', 'key': 'u', 'origWidth': 410, 'origHeight': 411, 'width': 410, 'height': 411, 'widthPercent': 0.45, 'rescaleHeight': False, 'trialN': 107, 'loaded': True, 'loadedTime': 2863.099999997765, 'positionName': 'LEFT', 'positionCoords': [260.08, 187], 'bid': 6.21}, {'imgObject': {}, 'id': 'roastedpotatoes', 'src': '/static/foodstim60/roastedpotatoes.jpg', 'key': 'i', 'origWidth': 409, 'origHeight': 410, 'width': 409, 'height': 410, 'widthPercent': 0.45, 'rescaleHeight': False, 'trialN': 107, 'loaded': True, 'loadedTime': 2700.5, 'positionName': 'RIGHT', 'positionCoords': [725.92, 187.5], 'bid': 6.2}]",209297.3999999985,1669831539452,grilled chicken strips,roastedpotatoes,6.21,6.2,-0.009999999999999787,grilled chicken strips,1231.5,1233,1232.1000000014901,True,u,211034.19999999925,1736.800000000745,1669831541189,1737,HRV,HRV_0133,2022-11-30 18:07:23
108,"[{'imgObject': {}, 'id': 'cheerios', 'src': '/static/foodstim60/cheerios.jpg', 'key': 'u', 'origWidth': 409, 'origHeight': 410, 'width': 409, 'height': 410, 'widthPercent': 0.45, 'rescaleHeight': False, 'trialN': 108, 'loaded': True, 'loadedTime': 2859, 'positionName': 'LEFT', 'positionCoords': [261.08, 187.5], 'bid': 4.24}, {'imgObject': {}, 'id': 'yogurt no spoon', 'src': '/static/foodstim60/yogurt no spoon.jpg', 'key': 'i', 'origWidth': 411, 'origHeight': 410, 'width': 411, 'height': 410, 'widthPercent': 0.45, 'rescaleHeight': False, 'trialN': 108, 'loaded': True, 'loadedTime': 2852.199999999255, 'positionName': 'RIGHT', 'positionCoords': [725.92, 187.5], 'bid': 4.22}]",211034.5,1669831541190,cheerios,yogurt no spoon,4.24,4.22,-0.020000000000000462,yogurt no spoon,1935.3999999985099,1936,1936.0,True,i,213474.59999999776,2440.099999997765,1669831543630,2440,HRV,HRV_0133,2022-11-30 18:07:23
