success,trial_type,trial_index,time_elapsed,internal_node_id,Block,TrialNumber,TrialTime,trialTimeDiff,FPS_avg,FPS_med,FPS_mode,TrialDur,winResizeTime,rt,block,button_pressed,MotCoh,MotDir,ColCoh,Color,ChoiceKey,Choice,Accuracy,RT,nFrames,FPS,PPD,missTrial,missTrialMsg,onsetDelay,fullScreenExitTime,canvCenter,TrialType,Score,BlockTrial,stimulus,button_labels,exp,subjectId,date
True,fullscreen,0,4556,0.0-0.0,0.0,1.0,,,,,,,,,,,,,,,,,,,,,,,,,,,,,,,,HRV,HRV_0230,2022-11-30 19:26:16
,wl-check-fps,1,10449,0.0-1.0,0.0,2.0,"[6386.2, 6401.5, 6425.9, 6428.5, 6444.3, 6457.7, 6515.9, 6551.2, 6559.8, 6589.5, 6606.2, 6622.7, 6639.4, 6656.3, 6689.6, 6706.5, 6722.9, 6756.4, 6772.8, 6789.3, 6823.2, 6840.1, 6858, 6889.7, 6911.4, 6925, 6959.9, 6977.4, 6990.7, 7008.1, 7024.3, 7040.6, 7057.7, 7073.9, 7090.3, 7107.8, 7123.9, 7140.6, 7157.8, 7174, 7190.6, 7207.7, 7223.9, 7241.3, 7258, 7274.2, 7291.7, 7307.8, 7324, 7340.7, 7357.6, 7374.2, 7390.8, 7407.6, 7424.2, 7441, 7458.4, 7476.1, 7490.8, 7507.7, 7524.3, 7541, 7558.1, 7575.1, 7591.2, 7607.7, 7624.6, 7641.2, 7657.8, 7674.5, 7691.1, 7707.9, 7724.5, 7741.6, 7758, 7775.3, 7791.6, 7808.6, 7825.8, 7842.1, 7858.2, 7876, 7891.8, 7908.4, 7925.2, 7941.8, 7958.7, 7976.3, 7992, 8008.5, 8025.7, 8041.9, 8058.6, 8075.6, 8092.6, 8108.7, 8126.3, 8142.3, 8159.1, 8176.3, 8192.5, 8209.1, 8227.2, 8244, 8259.9, 8320.3, 8326.3, 8342.7, 8369.3, 8376.5, 8409.5, 8434.2, 8442.7, 8459.8, 8477.1, 8495.8, 8510.3, 8527, 8559.7, 8577, 8593, 8627.1, 8643.4, 8660.2, 8693.8, 8711.2, 8727.3, 8760, 8777.3, 8793.3, 8810, 8827.2, 8860.3, 8876.3, 8893.4, 8927.8, 8943.6, 8960.2, 8977.5, 9010.4, 9027.4, 9043.9, 9077.3, 9093.7, 9110.3, 9143.9, 9160.5, 9177.7, 9210.6, 9228, 9244.9, 9277.6, 9294.3, 9310.8, 9344.2, 9360.9, 9377.6, 9411, 9430, 9450.7, 9479.8, 9494.6, 9512.4, 9544.7, 9561.4, 9578.2, 9611.4, 9630.3, 9646.2, 9678.3, 9695.1, 9711.9, 9745.6, 9761.7, 9778.3, 9813.6, 9828.3, 9846.2, 9878.9, 9896.4, 9912, 9928.7, 9953.4, 9980.3, 10014.9, 10039, 10049.4, 10066.6, 10081.9, 10116.4, 10122.2, 10131.2, 10150.5, 10166.7, 10181.2, 10210.3, 10221.8, 10232.9, 10247.6, 10264.9, 10281.7, 10304.4, 10318.9, 10330.6, 10348.1, 10374.9, 10381.8, 10398.9, 10422.9, 10441.9, 10447.4, 10464.2, 10481.5, 10499.3, 10517.1, 10531.9, 10548.7, 10567.4, 10584, 10657.2, 10667.6, 10690, 10699.1, 10716.1, 10731.5, 10750.4, 10767.3, 10783.5, 10803.4, 10821.1, 10831.9, 10846.8, 10862.5, 10880.1, 10898.4, 10916, 10931.5, 10947.2, 10966.6, 10982.5, 10996.4, 11015.9, 11033, 11053.6, 11066.5, 11088.1, 11101.8, 11118.9, 11139.2, 11154.1, 11170.5, 11188, 11198.6, 11216.8, 11232.9, 11248.3, 11264.6, 11282.9, 11302.1, 11337.4, 11348.3, 11366.6, 11398.5, 11416.5, 11431.8, 11449.3, 11481.8, 11498.5, 11515.9, 11548.4, 11566, 11581.9, 11617.1, 11634.9, 11649.4, 11683.8, 11702.5, 11716.2, 11749.5, 11765.9, 11782, 11815.9, 11832.2, 11850.5, 11889.7, 11899.9, 11916.6, 11949.2, 11968.9, 11982.5, 12001.3, 12016.2, 12049.5, 12066.7, 12082.7, 12116.7, 12132.8, 12149.5, 12183, 12199.8]","[50.3, 15.3, 24.4, 2.6, 15.8, 13.4, 58.2, 35.3, 8.6, 29.7, 16.7, 16.5, 16.7, 16.9, 33.3, 16.9, 16.4, 33.5, 16.4, 16.5, 33.9, 16.9, 17.9, 31.7, 21.7, 13.6, 34.9, 17.5, 13.3, 17.4, 16.2, 16.3, 17.1, 16.2, 16.4, 17.5, 16.1, 16.7, 17.2, 16.2, 16.6, 17.1, 16.2, 17.4, 16.7, 16.2, 17.5, 16.1, 16.2, 16.7, 16.9, 16.6, 16.6, 16.8, 16.6, 16.8, 17.4, 17.7, 14.7, 16.9, 16.6, 16.7, 17.1, 17, 16.1, 16.5, 16.9, 16.6, 16.6, 16.7, 16.6, 16.8, 16.6, 17.1, 16.4, 17.3, 16.3, 17, 17.2, 16.3, 16.1, 17.8, 15.8, 16.6, 16.8, 16.6, 16.9, 17.6, 15.7, 16.5, 17.2, 16.2, 16.7, 17, 17, 16.1, 17.6, 16, 16.8, 17.2, 16.2, 16.6, 18.1, 16.8, 15.9, 60.4, 6, 16.4, 26.6, 7.2, 33, 24.7, 8.5, 17.1, 17.3, 18.7, 14.5, 16.7, 32.7, 17.3, 16, 34.1, 16.3, 16.8, 33.6, 17.4, 16.1, 32.7, 17.3, 16, 16.7, 17.2, 33.1, 16, 17.1, 34.4, 15.8, 16.6, 17.3, 32.9, 17, 16.5, 33.4, 16.4, 16.6, 33.6, 16.6, 17.2, 32.9, 17.4, 16.9, 32.7, 16.7, 16.5, 33.4, 16.7, 16.7, 33.4, 19, 20.7, 29.1, 14.8, 17.8, 32.3, 16.7, 16.8, 33.2, 18.9, 15.9, 32.1, 16.8, 16.8, 33.7, 16.1, 16.6, 35.3, 14.7, 17.9, 32.7, 17.5, 15.6, 16.7, 24.7, 26.9, 34.6, 24.1, 10.4, 17.2, 15.3, 34.5, 5.8, 9, 19.3, 16.2, 14.5, 29.1, 11.5, 11.1, 14.7, 17.3, 16.8, 22.7, 14.5, 11.7, 17.5, 26.8, 6.9, 17.1, 24, 19, 5.5, 16.8, 17.3, 17.8, 17.8, 14.8, 16.8, 18.7, 16.6, 73.2, 10.4, 22.4, 9.1, 17, 15.4, 18.9, 16.9, 16.2, 19.9, 17.7, 10.8, 14.9, 15.7, 17.6, 18.3, 17.6, 15.5, 15.7, 19.4, 15.9, 13.9, 19.5, 17.1, 20.6, 12.9, 21.6, 13.7, 17.1, 20.3, 14.9, 16.4, 17.5, 10.6, 18.2, 16.1, 15.4, 16.3, 18.3, 19.2, 35.3, 10.9, 18.3, 31.9, 18, 15.3, 17.5, 32.5, 16.7, 17.4, 32.5, 17.6, 15.9, 35.2, 17.8, 14.5, 34.4, 18.7, 13.7, 33.3, 16.4, 16.1, 33.9, 16.3, 18.3, 39.2, 10.2, 16.7, 32.6, 19.7, 13.6, 18.8, 14.9, 33.3, 17.2, 16, 34, 16.1, 16.7, 33.5, 16.8]",51.0,58.0,60.0,5881.1,[],,,,,,,,,,,,,,,,,,,,,,,,,HRV,HRV_0230,2022-11-30 19:26:16
,wl-html-keyboard-response,2,29531,0.0-2.0-0.0,0.0,3.0,,,,,,,,17068.19999998808,0.0,0,,,,,,,,,,,,,,,,,,,,,,HRV,HRV_0230,2022-11-30 19:26:16
,wl-rdm,3,37513,0.0-3.0-0.0,0.0,4.0,,,,,,,[],,,,0.0,0.0,87.9,0.0,u,0.0,True,2343.599999964237,141.0,60.0,40.0,False,,3000.0,[],"[720, 450]",ColorTask_Demo,,,,,HRV,HRV_0230,2022-11-30 19:26:16
,wl-rdm,4,42338,0.0-3.0-1.0,0.0,5.0,,,,,,,[],,,,0.0,0.0,87.9,1.0,i,1.0,True,768.4999999701977,46.0,60.0,40.0,False,,2000.0,[],"[720, 450]",ColorTask_Demo,,,,,HRV,HRV_0230,2022-11-30 19:26:16
,wl-html-keyboard-response,5,49697,0.0-3.0-2.0,0.0,6.0,,,,,,,,5349.0,0.0,1,,,,,,,,,,,,,,,,,,,,,,HRV,HRV_0230,2022-11-30 19:26:16
,wl-html-keyboard-response,6,63161,0.0-4.0-0.0,0.0,7.0,,,,,,,,11450.300000011921,0.0,0,,,,,,,,,,,,,,,,,,,,,,HRV,HRV_0230,2022-11-30 19:26:16
,wl-html-keyboard-response,7,79553,0.0-5.0-0.0,0.0,8.0,,,,,,,,14380.40000000596,0.0,0,,,,,,,,,,,,,,,,,,,,,,HRV,HRV_0230,2022-11-30 19:26:16
,wl-rdm,8,81962,0.0-6.0-0.0,0.0,9.0,,,,,,,[],,,,,,73.6,0.0,i,1.0,False,1064.800000011921,62.0,60.0,40.0,False,,283.8476081526277,[],"[720, 450]",ColorTask,-1.0,1.0,,,HRV,HRV_0230,2022-11-30 19:26:16
,wl-rdm,9,84634,0.0-6.1-0.1,0.0,10.0,,,,,,,[],,,,,,53.2,0.0,i,1.0,False,1399.4000000059605,84.0,60.0,40.0,False,,215.06275740554895,[],"[720, 450]",ColorTask,-2.0,2.0,,,HRV,HRV_0230,2022-11-30 19:26:16
,wl-rdm,10,87573,0.0-6.2-0.2,0.0,11.0,,,,,,,[],,,,,,62.5,0.0,i,1.0,False,1591.1000000238419,96.0,60.0,40.0,False,,278.7061145613293,[],"[720, 450]",ColorTask,-3.0,3.0,,,HRV,HRV_0230,2022-11-30 19:26:16
,wl-rdm,11,90212,0.0-6.3-0.3,0.0,12.0,,,,,,,[],,,,,,62.5,0.0,u,0.0,True,1228.0999999940395,72.0,60.0,40.0,False,,346.83658669585327,[],"[720, 450]",ColorTask,-2.0,4.0,,,HRV,HRV_0230,2022-11-30 19:26:16
,wl-rdm,12,92415,0.0-6.4-0.4,0.0,13.0,,,,,,,[],,,,,,87.9,0.0,u,0.0,True,905.0,52.0,60.0,40.0,False,,220.91779624007302,[],"[720, 450]",ColorTask,-1.0,5.0,,,HRV,HRV_0230,2022-11-30 19:26:16
,wl-rdm,13,94671,0.0-6.5-0.5,0.0,14.0,,,,,,,[],,,,,,62.5,0.0,u,0.0,True,789.2999999821186,48.0,60.0,40.0,False,,385.70765161074166,[],"[720, 450]",ColorTask,0.0,6.0,,,HRV,HRV_0230,2022-11-30 19:26:16
,wl-rdm,14,97141,0.0-6.6-0.6,0.0,15.0,,,,,,,[],,,,,,73.6,1.0,i,1.0,True,1096.0999999940395,64.0,60.0,40.0,False,,314.4939415750522,[],"[720, 450]",ColorTask,1.0,7.0,,,HRV,HRV_0230,2022-11-30 19:26:16
,wl-rdm,15,99245,0.0-6.7-0.7,0.0,16.0,,,,,,,[],,,,,,50.0,1.0,u,0.0,False,823.0999999940395,49.0,60.0,40.0,False,,206.94222361777494,[],"[720, 450]",ColorTask,0.0,8.0,,,HRV,HRV_0230,2022-11-30 19:26:16
,wl-rdm,16,101600,0.0-6.8-0.8,0.0,17.0,,,,,,,[],,,,,,87.9,1.0,i,1.0,True,1060.699999988079,64.0,60.0,40.0,False,,204.91874172863712,[],"[720, 450]",ColorTask,1.0,9.0,,,HRV,HRV_0230,2022-11-30 19:26:16
,wl-rdm,17,104087,0.0-6.9-0.9,0.0,18.0,,,,,,,[],,,,,,56.4,1.0,i,1.0,True,1060.5999999940395,62.0,60.0,40.0,False,,364.9000373623596,[],"[720, 450]",ColorTask,2.0,10.0,,,HRV,HRV_0230,2022-11-30 19:26:16
,wl-rdm,18,106376,0.0-6.10-0.10,0.0,19.0,,,,,,,[],,,,,,56.4,1.0,i,1.0,True,1006.6999999880791,61.0,60.0,40.0,False,,219.67281524306787,[],"[720, 450]",ColorTask,3.0,11.0,,,HRV,HRV_0230,2022-11-30 19:26:16
,wl-rdm,19,108846,0.0-6.11-0.11,0.0,20.0,,,,,,,[],,,,,,56.4,0.0,u,0.0,True,1048.8999999761581,61.0,60.0,40.0,False,,300.8520647866552,[],"[720, 450]",ColorTask,4.0,12.0,,,HRV,HRV_0230,2022-11-30 19:26:16
,wl-rdm,20,111083,0.0-6.12-0.12,0.0,21.0,,,,,,,[],,,,,,62.5,1.0,i,1.0,True,856.4000000059605,50.0,60.0,40.0,False,,314.6306230807107,[],"[720, 450]",ColorTask,5.0,13.0,,,HRV,HRV_0230,2022-11-30 19:26:16
,wl-rdm,21,113688,0.0-6.13-0.13,0.0,22.0,,,,,,,[],,,,,,53.2,0.0,i,1.0,False,1153.300000011921,69.0,60.0,40.0,False,,376.3875604363468,[],"[720, 450]",ColorTask,4.0,14.0,,,HRV,HRV_0230,2022-11-30 19:26:16
,wl-rdm,22,116427,0.0-6.14-0.14,0.0,23.0,,,,,,,[],,,,,,53.2,1.0,u,0.0,False,1331.5999999940395,80.0,60.0,40.0,False,,339.74208278479153,[],"[720, 450]",ColorTask,3.0,15.0,,,HRV,HRV_0230,2022-11-30 19:26:16
,wl-rdm,23,118850,0.0-6.15-0.15,0.0,24.0,,,,,,,[],,,,,,50.0,1.0,i,1.0,True,1128.5999999940395,67.0,60.0,40.0,False,,223.80374708601096,[],"[720, 450]",ColorTask,4.0,16.0,,,HRV,HRV_0230,2022-11-30 19:26:16
,wl-rdm,24,121571,0.0-6.16-0.16,0.0,25.0,,,,,,,[],,,,,,53.2,1.0,i,1.0,True,1273.9000000059605,67.0,60.0,40.0,False,,378.23541114940326,[],"[720, 450]",ColorTask,5.0,17.0,,,HRV,HRV_0230,2022-11-30 19:26:16
,wl-rdm,25,124025,0.0-6.17-0.17,0.0,26.0,,,,,,,[],,,,,,73.6,1.0,i,1.0,True,1009.5999999940395,61.0,60.0,40.0,False,,384.4802398585648,[],"[720, 450]",ColorTask,6.0,18.0,,,HRV,HRV_0230,2022-11-30 19:26:16
,wl-rdm,26,126497,0.0-6.18-0.18,0.0,27.0,,,,,,,[],,,,,,56.4,1.0,i,1.0,True,1185.3000000417233,71.0,60.0,40.0,False,,214.8611791954754,[],"[720, 450]",ColorTask,7.0,19.0,,,HRV,HRV_0230,2022-11-30 19:26:16
,wl-rdm,27,129036,0.0-6.19-0.19,0.0,28.0,,,,,,,[],,,,,,53.2,1.0,i,1.0,True,1184.5999999940395,69.0,60.0,40.0,False,,288.0517264427446,[],"[720, 450]",ColorTask,8.0,20.0,,,HRV,HRV_0230,2022-11-30 19:26:16
,wl-rdm,28,131756,0.0-6.20-0.20,0.0,29.0,,,,,,,[],,,,,,53.2,0.0,i,1.0,False,1314.800000011921,75.0,60.0,40.0,False,,348.35930742639925,[],"[720, 450]",ColorTask,7.0,21.0,,,HRV,HRV_0230,2022-11-30 19:26:16
,wl-rdm,29,134260,0.0-6.21-0.21,0.0,30.0,,,,,,,[],,,,,,62.5,1.0,i,1.0,True,1082.300000011921,65.0,60.0,40.0,False,,342.6797502678595,[],"[720, 450]",ColorTask,8.0,22.0,,,HRV,HRV_0230,2022-11-30 19:26:16
,wl-rdm,30,137220,0.0-6.22-0.22,0.0,31.0,,,,,,,[],,,,,,56.4,0.0,u,0.0,True,1576.300000011921,95.0,60.0,40.0,False,,328.53073813152116,[],"[720, 450]",ColorTask,9.0,23.0,,,HRV,HRV_0230,2022-11-30 19:26:16
,wl-rdm,31,139738,0.0-6.23-0.23,0.0,32.0,,,,,,,[],,,,,,73.6,1.0,i,1.0,True,1147.9000000059605,65.0,60.0,40.0,False,,302.61739673409295,[],"[720, 450]",ColorTask,10.0,24.0,,,HRV,HRV_0230,2022-11-30 19:26:16
,wl-rdm,32,142826,0.0-6.24-0.24,0.0,33.0,,,,,,,[],,,,,,73.6,0.0,u,0.0,True,1817.1000000238419,109.0,60.0,40.0,False,,201.79000146655724,[],"[720, 450]",ColorTask,11.0,25.0,,,HRV,HRV_0230,2022-11-30 19:26:16
,wl-rdm,33,145581,0.0-6.25-0.25,0.0,34.0,,,,,,,[],,,,,,62.5,1.0,i,1.0,True,1428.300000011921,84.0,60.0,40.0,False,,256.17820925015167,[],"[720, 450]",ColorTask,12.0,26.0,,,HRV,HRV_0230,2022-11-30 19:26:16
,wl-rdm,34,148520,0.0-6.26-0.26,0.0,35.0,,,,,,,[],,,,,,53.2,1.0,i,1.0,True,1659.9000000059605,96.0,60.0,40.0,False,,203.31419144832577,[],"[720, 450]",ColorTask,13.0,27.0,,,HRV,HRV_0230,2022-11-30 19:26:16
,wl-rdm,35,151210,0.0-6.27-0.27,0.0,36.0,,,,,,,[],,,,,,73.6,0.0,u,0.0,True,1234.2999999821186,74.0,60.0,40.0,False,,334.14730514089536,[],"[720, 450]",ColorTask,14.0,28.0,,,HRV,HRV_0230,2022-11-30 19:26:16
,wl-rdm,36,153530,0.0-6.28-0.28,0.0,37.0,,,,,,,[],,,,,,87.9,0.0,u,0.0,True,930.4000000357628,56.0,60.0,40.0,False,,323.19065951655125,[],"[720, 450]",ColorTask,15.0,29.0,,,HRV,HRV_0230,2022-11-30 19:26:16
,wl-rdm,37,155700,0.0-6.29-0.29,0.0,38.0,,,,,,,[],,,,,,73.6,1.0,i,1.0,True,856.7000000178814,52.0,60.0,40.0,False,,241.9774008700476,[],"[720, 450]",ColorTask,16.0,30.0,,,HRV,HRV_0230,2022-11-30 19:26:16
,wl-rdm,38,158806,0.0-6.30-0.30,0.0,39.0,,,,,,,[],,,,,,50.0,1.0,i,1.0,True,1739.199999988079,104.0,60.0,40.0,False,,285.06597354113785,[],"[720, 450]",ColorTask,17.0,31.0,,,HRV,HRV_0230,2022-11-30 19:26:16
,wl-rdm,39,161678,0.0-6.31-0.31,0.0,40.0,,,,,,,[],,,,,,73.6,1.0,i,1.0,True,1505.7000000178814,89.0,60.0,40.0,False,,298.02728622342164,[],"[720, 450]",ColorTask,18.0,32.0,,,HRV,HRV_0230,2022-11-30 19:26:16
,wl-rdm,40,165653,0.0-6.32-0.32,0.0,41.0,,,,,,,[],,,,,,50.0,1.0,u,0.0,False,2532.7999999821186,138.0,60.0,40.0,False,,371.22256052554417,[],"[720, 450]",ColorTask,17.0,33.0,,,HRV,HRV_0230,2022-11-30 19:26:16
,wl-rdm,41,168075,0.0-6.33-0.33,0.0,42.0,,,,,,,[],,,,,,62.5,1.0,i,1.0,True,1074.0,64.0,60.0,40.0,False,,269.9281947713443,[],"[720, 450]",ColorTask,18.0,34.0,,,HRV,HRV_0230,2022-11-30 19:26:16
,wl-rdm,42,170278,0.0-6.34-0.34,0.0,43.0,,,,,,,[],,,,,,87.9,1.0,i,1.0,True,861.3000000119209,52.0,60.0,40.0,False,,280.0021514125359,[],"[720, 450]",ColorTask,19.0,35.0,,,HRV,HRV_0230,2022-11-30 19:26:16
,wl-rdm,43,172682,0.0-6.35-0.35,0.0,44.0,,,,,,,[],,,,,,56.4,1.0,i,1.0,True,948.3000000119209,56.0,60.0,40.0,False,,396.3237411550318,[],"[720, 450]",ColorTask,20.0,36.0,,,HRV,HRV_0230,2022-11-30 19:26:16
,wl-rdm,44,175504,0.0-6.36-0.36,0.0,45.0,,,,,,,[],,,,,,56.4,1.0,i,1.0,True,1508.7999999821186,91.0,60.0,40.0,False,,244.92110043160835,[],"[720, 450]",ColorTask,21.0,37.0,,,HRV,HRV_0230,2022-11-30 19:26:16
,wl-rdm,45,179811,0.0-6.37-0.37,0.0,45.0,,,,,,,[],,,,,,50.0,0.0,i,,,3419.0999999940395,178.0,60.0,40.0,True,RT_timeout ,227.983890719742,[],"[720, 450]",ColorTask,20.0,38.0,,,HRV,HRV_0230,2022-11-30 19:26:16
,wl-rdm,46,182401,0.0-6.38-0.38,0.0,46.0,,,,,,,[],,,,,,62.5,1.0,i,1.0,True,1299.2999999821186,78.0,60.0,40.0,False,,205.70085158874002,[],"[720, 450]",ColorTask,21.0,39.0,,,HRV,HRV_0230,2022-11-30 19:26:16
,wl-rdm,47,184845,0.0-6.39-0.39,0.0,47.0,,,,,,,[],,,,,,53.2,1.0,i,1.0,True,1105.4000000357628,65.0,60.0,40.0,False,,206.25929116546018,[],"[720, 450]",ColorTask,22.0,40.0,,,HRV,HRV_0230,2022-11-30 19:26:16
,wl-rdm,48,187944,0.0-6.40-0.40,0.0,48.0,,,,,,,[],,,,,,53.2,0.0,i,1.0,False,1666.5,99.0,60.0,40.0,False,,368.5115131144662,[],"[720, 450]",ColorTask,21.0,41.0,,,HRV,HRV_0230,2022-11-30 19:26:16
,wl-rdm,49,190198,0.0-6.41-0.41,0.0,49.0,,,,,,,[],,,,,,87.9,1.0,i,1.0,True,960.5,54.0,60.0,40.0,False,,234.20337455275913,[],"[720, 450]",ColorTask,22.0,42.0,,,HRV,HRV_0230,2022-11-30 19:26:16
,wl-rdm,50,193421,0.0-6.42-0.42,0.0,50.0,,,,,,,[],,,,,,73.6,0.0,i,1.0,False,1891.6000000238419,111.0,60.0,40.0,False,,265.5999435074108,[],"[720, 450]",ColorTask,21.0,43.0,,,HRV,HRV_0230,2022-11-30 19:26:16
,wl-rdm,51,195675,0.0-6.43-0.43,0.0,51.0,,,,,,,[],,,,,,50.0,1.0,i,1.0,True,906.9000000059605,55.0,60.0,40.0,False,,271.9166935560917,[],"[720, 450]",ColorTask,22.0,44.0,,,HRV,HRV_0230,2022-11-30 19:26:16
,wl-rdm,52,198213,0.0-6.44-0.44,0.0,52.0,,,,,,,[],,,,,,53.2,1.0,i,1.0,True,1247.0,72.0,60.0,40.0,False,,230.07124447377672,[],"[720, 450]",ColorTask,23.0,45.0,,,HRV,HRV_0230,2022-11-30 19:26:16
,wl-rdm,53,200919,0.0-6.45-0.45,0.0,53.0,,,,,,,[],,,,,,50.0,0.0,i,1.0,False,1388.8000000417233,83.0,60.0,40.0,False,,247.94577567735436,[],"[720, 450]",ColorTask,22.0,46.0,,,HRV,HRV_0230,2022-11-30 19:26:16
,wl-rdm,54,204242,0.0-6.46-0.46,0.0,54.0,,,,,,,[],,,,,,50.0,1.0,i,1.0,True,1953.0999999940395,117.0,60.0,40.0,False,,300.1078766790803,[],"[720, 450]",ColorTask,23.0,47.0,,,HRV,HRV_0230,2022-11-30 19:26:16
,wl-rdm,55,207298,0.0-6.47-0.47,0.0,55.0,,,,,,,[],,,,,,50.0,0.0,u,0.0,True,1733.199999988079,104.0,60.0,40.0,False,,252.56532392229235,[],"[720, 450]",ColorTask,24.0,48.0,,,HRV,HRV_0230,2022-11-30 19:26:16
,wl-rdm,56,209568,0.0-6.48-0.48,0.0,56.0,,,,,,,[],,,,,,87.9,1.0,i,1.0,True,987.7000000178814,58.0,60.0,40.0,False,,202.22671316989212,[],"[720, 450]",ColorTask,25.0,49.0,,,HRV,HRV_0230,2022-11-30 19:26:16
,wl-rdm,57,212239,0.0-6.49-0.49,0.0,57.0,,,,,,,[],,,,,,62.5,0.0,u,0.0,True,1323.9000000059605,76.0,60.0,40.0,False,,272.5374952346001,[],"[720, 450]",ColorTask,26.0,50.0,,,HRV,HRV_0230,2022-11-30 19:26:16
,wl-rdm,58,214678,0.0-6.50-0.50,0.0,58.0,,,,,,,[],,,,,,56.4,1.0,i,1.0,True,1162.5,68.0,60.0,40.0,False,,202.40420156776997,[],"[720, 450]",ColorTask,27.0,51.0,,,HRV,HRV_0230,2022-11-30 19:26:16
,wl-rdm,59,218001,0.0-6.51-0.51,0.0,59.0,,,,,,,[],,,,,,56.4,0.0,u,0.0,True,1901.0,111.0,60.0,40.0,False,,354.54124045962976,[],"[720, 450]",ColorTask,28.0,52.0,,,HRV,HRV_0230,2022-11-30 19:26:16
,wl-rdm,60,221959,0.0-6.52-0.52,0.0,60.0,,,,,,,[],,,,,,53.2,1.0,i,1.0,True,2515.199999988079,141.0,60.0,40.0,False,,377.39905366249224,[],"[720, 450]",ColorTask,29.0,53.0,,,HRV,HRV_0230,2022-11-30 19:26:16
,wl-rdm,61,224496,0.0-6.53-0.53,0.0,61.0,,,,,,,[],,,,,,73.6,0.0,i,1.0,False,1209.0999999940395,73.0,60.0,40.0,False,,261.091032216354,[],"[720, 450]",ColorTask,28.0,54.0,,,HRV,HRV_0230,2022-11-30 19:26:16
,wl-rdm,62,228437,0.0-6.54-0.54,0.0,62.0,,,,,,,[],,,,,,56.4,0.0,u,0.0,True,2661.5999999940395,160.0,60.0,40.0,False,,218.22612660548253,[],"[720, 450]",ColorTask,29.0,55.0,,,HRV,HRV_0230,2022-11-30 19:26:16
,wl-rdm,63,231426,0.0-6.55-0.55,0.0,63.0,,,,,,,[],,,,,,53.2,0.0,i,1.0,False,1684.0000000298023,101.0,60.0,40.0,False,,235.17041168631977,[],"[720, 450]",ColorTask,28.0,56.0,,,HRV,HRV_0230,2022-11-30 19:26:16
,wl-rdm,64,234732,0.0-6.56-0.56,0.0,64.0,,,,,,,[],,,,,,50.0,0.0,u,0.0,True,1974.7999999821186,118.0,60.0,40.0,False,,255.37331064244717,[],"[720, 450]",ColorTask,29.0,57.0,,,HRV,HRV_0230,2022-11-30 19:26:16
,wl-rdm,65,237370,0.0-6.57-0.57,0.0,65.0,,,,,,,[],,,,,,73.6,0.0,u,0.0,True,1358.199999988079,81.0,60.0,40.0,False,,205.37942601856238,[],"[720, 450]",ColorTask,30.0,58.0,,,HRV,HRV_0230,2022-11-30 19:26:16
,wl-rdm,66,241060,0.0-6.58-0.58,0.0,66.0,,,,,,,[],,,,,,50.0,1.0,i,1.0,True,2282.5,137.0,60.0,40.0,False,,339.10550062619444,[],"[720, 450]",ColorTask,31.0,59.0,,,HRV,HRV_0230,2022-11-30 19:26:16
,wl-rdm,67,243465,0.0-6.59-0.59,0.0,67.0,,,,,,,[],,,,,,62.5,1.0,i,1.0,True,1125.9000000059605,62.0,60.0,40.0,False,,203.333615494032,[],"[720, 450]",ColorTask,32.0,60.0,,,HRV,HRV_0230,2022-11-30 19:26:16
,wl-rdm,68,246170,0.0-6.60-0.60,0.0,68.0,,,,,,,[],,,,,,73.6,0.0,u,0.0,True,1415.8000000417233,85.0,60.0,40.0,False,,219.67501559076078,[],"[720, 450]",ColorTask,33.0,61.0,,,HRV,HRV_0230,2022-11-30 19:26:16
,wl-rdm,69,249660,0.0-6.61-0.61,0.0,69.0,,,,,,,[],,,,,,53.2,0.0,u,0.0,True,2098.7999999821186,124.0,60.0,40.0,False,,323.53909912078717,[],"[720, 450]",ColorTask,34.0,62.0,,,HRV,HRV_0230,2022-11-30 19:26:16
,wl-rdm,70,251964,0.0-6.62-0.62,0.0,70.0,,,,,,,[],,,,,,73.6,0.0,u,0.0,True,939.7999999821186,57.0,60.0,40.0,False,,285.6997979290489,[],"[720, 450]",ColorTask,35.0,63.0,,,HRV,HRV_0230,2022-11-30 19:26:16
,wl-rdm,71,254536,0.0-6.63-0.63,0.0,71.0,,,,,,,[],,,,,,62.5,0.0,u,0.0,True,1284.2999999821186,74.0,60.0,40.0,False,,217.80544568214393,[],"[720, 450]",ColorTask,36.0,64.0,,,HRV,HRV_0230,2022-11-30 19:26:16
,wl-rdm,72,257041,0.0-6.64-0.64,0.0,72.0,,,,,,,[],,,,,,87.9,0.0,u,0.0,True,1125.800000011921,65.0,60.0,40.0,False,,308.3969657150948,[],"[720, 450]",ColorTask,37.0,65.0,,,HRV,HRV_0230,2022-11-30 19:26:16
,wl-rdm,73,259713,0.0-6.65-0.65,0.0,73.0,,,,,,,[],,,,,,62.5,0.0,u,0.0,True,1234.2000000476837,74.0,60.0,40.0,False,,376.5721058858347,[],"[720, 450]",ColorTask,38.0,66.0,,,HRV,HRV_0230,2022-11-30 19:26:16
,wl-rdm,74,261917,0.0-6.66-0.66,0.0,74.0,,,,,,,[],,,,,,73.6,0.0,u,0.0,True,913.5999999940395,50.0,60.0,40.0,False,,220.0772068963066,[],"[720, 450]",ColorTask,39.0,67.0,,,HRV,HRV_0230,2022-11-30 19:26:16
,wl-rdm,75,264454,0.0-6.67-0.67,0.0,75.0,,,,,,,[],,,,,,62.5,1.0,i,1.0,True,1127.9999999701977,68.0,60.0,40.0,False,,350.38377458559876,[],"[720, 450]",ColorTask,40.0,68.0,,,HRV,HRV_0230,2022-11-30 19:26:16
,wl-rdm,76,266692,0.0-6.68-0.68,0.0,76.0,,,,,,,[],,,,,,87.9,1.0,i,1.0,True,858.7999999821186,49.0,60.0,40.0,False,,307.6966067113418,[],"[720, 450]",ColorTask,41.0,69.0,,,HRV,HRV_0230,2022-11-30 19:26:16
,wl-rdm,77,268913,0.0-6.69-0.69,0.0,77.0,,,,,,,[],,,,,,87.9,0.0,u,0.0,True,842.1000000238419,49.0,60.0,40.0,False,,300.14365030658706,[],"[720, 450]",ColorTask,42.0,70.0,,,HRV,HRV_0230,2022-11-30 19:26:16
,wl-rdm,78,272153,0.0-6.70-0.70,0.0,78.0,,,,,,,[],,,,,,50.0,0.0,i,1.0,False,1952.3999999761581,115.0,60.0,40.0,False,,201.53211578080823,[],"[720, 450]",ColorTask,41.0,71.0,,,HRV,HRV_0230,2022-11-30 19:26:16
,wl-rdm,79,274757,0.0-6.71-0.71,0.0,79.0,,,,,,,[],,,,,,62.5,0.0,u,0.0,True,1277.4000000059605,77.0,60.0,40.0,False,,246.77298239518228,[],"[720, 450]",ColorTask,42.0,72.0,,,HRV,HRV_0230,2022-11-30 19:26:16
,wl-rdm,80,277145,0.0-6.72-0.72,0.0,80.0,,,,,,,[],,,,,,53.2,0.0,u,0.0,True,1070.3999999761581,62.0,60.0,40.0,False,,239.90315213487887,[],"[720, 450]",ColorTask,43.0,73.0,,,HRV,HRV_0230,2022-11-30 19:26:16
,wl-rdm,81,279584,0.0-6.73-0.73,0.0,81.0,,,,,,,[],,,,,,73.6,1.0,i,1.0,True,1121.199999988079,67.0,60.0,40.0,False,,256.96902360154877,[],"[720, 450]",ColorTask,44.0,74.0,,,HRV,HRV_0230,2022-11-30 19:26:16
,wl-rdm,82,282337,0.0-6.74-0.74,0.0,82.0,,,,,,,[],,,,,,56.4,0.0,i,1.0,False,1457.7999999821186,86.0,60.0,40.0,False,,219.99440520528387,[],"[720, 450]",ColorTask,43.0,75.0,,,HRV,HRV_0230,2022-11-30 19:26:16
,wl-rdm,83,285410,0.0-6.75-0.75,0.0,83.0,,,,,,,[],,,,,,62.5,1.0,i,1.0,True,1629.9000000357628,96.0,60.0,40.0,False,,377.072184022733,[],"[720, 450]",ColorTask,44.0,76.0,,,HRV,HRV_0230,2022-11-30 19:26:16
,wl-rdm,84,287932,0.0-6.76-0.76,0.0,84.0,,,,,,,[],,,,,,56.4,1.0,i,1.0,True,1197.5000000298023,70.0,60.0,40.0,False,,264.1149832607425,[],"[720, 450]",ColorTask,45.0,77.0,,,HRV,HRV_0230,2022-11-30 19:26:16
,wl-rdm,85,290119,0.0-6.77-0.77,0.0,85.0,,,,,,,[],,,,,,87.9,1.0,i,1.0,True,877.4000000059605,51.0,60.0,40.0,False,,241.84781806375142,[],"[720, 450]",ColorTask,46.0,78.0,,,HRV,HRV_0230,2022-11-30 19:26:16
,wl-rdm,86,293342,0.0-6.78-0.78,0.0,86.0,,,,,,,[],,,,,,50.0,0.0,i,1.0,False,1823.0,109.0,60.0,40.0,False,,326.5971413759952,[],"[720, 450]",ColorTask,45.0,79.0,,,HRV,HRV_0230,2022-11-30 19:26:16
,wl-rdm,87,297752,0.0-6.79-0.79,0.0,86.0,,,,,,,[],,,,,,53.2,0.0,,,,,178.0,60.0,40.0,True,RT_timeout ,325.47924464919936,[],"[720, 450]",ColorTask,44.0,80.0,,,HRV,HRV_0230,2022-11-30 19:26:16
,wl-rdm,88,299921,0.0-6.80-0.80,0.0,87.0,,,,,,,[],,,,,,87.9,1.0,i,1.0,True,846.2000000178814,51.0,60.0,40.0,False,,264.43613614161313,[],"[720, 450]",ColorTask,45.0,81.0,,,HRV,HRV_0230,2022-11-30 19:26:16
,wl-rdm,89,302025,0.0-6.81-0.81,0.0,88.0,,,,,,,[],,,,,,87.9,0.0,u,0.0,True,742.5999999940395,45.0,60.0,40.0,False,,289.6529930655183,[],"[720, 450]",ColorTask,46.0,82.0,,,HRV,HRV_0230,2022-11-30 19:26:16
,wl-rdm,90,304880,0.0-6.82-0.82,0.0,89.0,,,,,,,[],,,,,,50.0,0.0,u,0.0,True,1426.5999999940395,82.0,60.0,40.0,False,,355.7627572290131,[],"[720, 450]",ColorTask,47.0,83.0,,,HRV,HRV_0230,2022-11-30 19:26:16
,wl-rdm,91,307736,0.0-6.83-0.83,0.0,90.0,,,,,,,[],,,,,,50.0,1.0,u,0.0,False,1544.5999999940395,91.0,60.0,40.0,False,,241.33755286812797,[],"[720, 450]",ColorTask,46.0,84.0,,,HRV,HRV_0230,2022-11-30 19:26:16
,wl-rdm,92,310563,0.0-6.84-0.84,0.0,91.0,,,,,,,[],,,,,,53.2,0.0,u,0.0,True,1412.5,82.0,60.0,40.0,False,,354.1904792997816,[],"[720, 450]",ColorTask,47.0,85.0,,,HRV,HRV_0230,2022-11-30 19:26:16
,wl-rdm,93,312864,0.0-6.85-0.85,0.0,92.0,,,,,,,[],,,,,,87.9,1.0,i,1.0,True,1004.6999999880791,53.0,60.0,40.0,False,,216.6473499947758,[],"[720, 450]",ColorTask,48.0,86.0,,,HRV,HRV_0230,2022-11-30 19:26:16
,wl-rdm,94,315719,0.0-6.86-0.86,0.0,93.0,,,,,,,[],,,,,,62.5,0.0,i,1.0,False,1562.5999999940395,85.0,60.0,40.0,False,,212.67014582909897,[],"[720, 450]",ColorTask,47.0,87.0,,,HRV,HRV_0230,2022-11-30 19:26:16
,wl-rdm,95,317989,0.0-6.87-0.87,0.0,94.0,,,,,,,[],,,,,,87.9,0.0,u,0.0,True,790.9000000059605,47.0,60.0,40.0,False,,392.011586833323,[],"[720, 450]",ColorTask,48.0,88.0,,,HRV,HRV_0230,2022-11-30 19:26:16
,wl-rdm,96,320727,0.0-6.88-0.88,0.0,95.0,,,,,,,[],,,,,,62.5,0.0,u,0.0,True,1257.0,73.0,60.0,40.0,False,,397.9979822327977,[],"[720, 450]",ColorTask,49.0,89.0,,,HRV,HRV_0230,2022-11-30 19:26:16
,wl-rdm,97,323466,0.0-6.89-0.89,0.0,96.0,,,,,,,[],,,,,,53.2,0.0,u,0.0,True,1274.7999999821186,62.0,60.0,40.0,False,,390.0292969566319,[],"[720, 450]",ColorTask,50.0,90.0,,,HRV,HRV_0230,2022-11-30 19:26:16
,wl-rdm,98,326253,0.0-6.90-0.90,0.0,97.0,,,,,,,[],,,,,,53.2,1.0,u,0.0,False,1440.9000000357628,87.0,60.0,40.0,False,,278.31607981371883,[],"[720, 450]",ColorTask,49.0,91.0,,,HRV,HRV_0230,2022-11-30 19:26:16
,wl-rdm,99,328341,0.0-6.91-0.91,0.0,98.0,,,,,,,[],,,,,,73.6,1.0,i,1.0,True,756.0999999940395,44.0,60.0,40.0,False,,250.21498432702214,[],"[720, 450]",ColorTask,50.0,92.0,,,HRV,HRV_0230,2022-11-30 19:26:16
,wl-rdm,100,330678,0.0-6.92-0.92,0.0,99.0,,,,,,,[],,,,,,73.6,1.0,i,1.0,True,879.3999999761581,49.0,60.0,40.0,False,,399.90748941446634,[],"[720, 450]",ColorTask,51.0,93.0,,,HRV,HRV_0230,2022-11-30 19:26:16
,wl-rdm,101,332649,0.0-6.93-0.93,0.0,100.0,,,,,,,[],,,,,,87.9,0.0,u,0.0,True,699.2000000178814,42.0,60.0,40.0,False,,214.18192159000952,[],"[720, 450]",ColorTask,52.0,94.0,,,HRV,HRV_0230,2022-11-30 19:26:16
,wl-rdm,102,335371,0.0-6.94-0.94,0.0,101.0,,,,,,,[],,,,,,56.4,0.0,i,1.0,False,1263.1000000238419,71.0,60.0,40.0,False,,389.09112675018025,[],"[720, 450]",ColorTask,51.0,95.0,,,HRV,HRV_0230,2022-11-30 19:26:16
,wl-rdm,103,337859,0.0-6.95-0.95,0.0,102.0,,,,,,,[],,,,,,56.4,0.0,u,0.0,True,1181.0000000298023,66.0,60.0,40.0,False,,234.4237104571681,[],"[720, 450]",ColorTask,52.0,96.0,,,HRV,HRV_0230,2022-11-30 19:26:16
,wl-rdm,104,339996,0.0-6.96-0.96,0.0,103.0,,,,,,,[],,,,,,73.6,1.0,i,1.0,True,846.3000000119209,51.0,60.0,40.0,False,,232.28903381383014,[],"[720, 450]",ColorTask,53.0,97.0,,,HRV,HRV_0230,2022-11-30 19:26:16
,wl-rdm,105,342767,0.0-6.97-0.97,0.0,104.0,,,,,,,[],,,,,,56.4,0.0,i,1.0,False,1488.2999999821186,87.0,60.0,40.0,False,,203.46587529597713,[],"[720, 450]",ColorTask,52.0,98.0,,,HRV,HRV_0230,2022-11-30 19:26:16
,wl-rdm,106,345408,0.0-6.98-0.98,0.0,105.0,,,,,,,[],,,,,,53.2,1.0,u,0.0,False,1277.7000000476837,75.0,60.0,40.0,False,,286.49453732786316,[],"[720, 450]",ColorTask,51.0,99.0,,,HRV,HRV_0230,2022-11-30 19:26:16
,wl-rdm,107,347577,0.0-6.99-0.99,0.0,106.0,,,,,,,[],,,,,,87.9,0.0,u,0.0,True,807.5999999940395,49.0,60.0,40.0,False,,298.3787159795187,[],"[720, 450]",ColorTask,52.0,100.0,,,HRV,HRV_0230,2022-11-30 19:26:16
,wl-rdm,108,350214,0.0-6.100-0.100,0.0,107.0,,,,,,,[],,,,,,56.4,1.0,i,1.0,True,1294.300000011921,78.0,60.0,40.0,False,,234.33154625484548,[],"[720, 450]",ColorTask,53.0,101.0,,,HRV,HRV_0230,2022-11-30 19:26:16
,wl-rdm,109,352870,0.0-6.101-0.101,0.0,108.0,,,,,,,[],,,,,,62.5,1.0,i,1.0,True,1389.0,81.0,60.0,40.0,False,,213.68900439332555,[],"[720, 450]",ColorTask,54.0,102.0,,,HRV,HRV_0230,2022-11-30 19:26:16
,wl-rdm,110,355224,0.0-6.102-0.102,0.0,109.0,,,,,,,[],,,,,,56.4,0.0,u,0.0,True,999.4000000059605,58.0,60.0,40.0,False,,294.33707309286086,[],"[720, 450]",ColorTask,55.0,103.0,,,HRV,HRV_0230,2022-11-30 19:26:16
,wl-rdm,111,357729,0.0-6.103-0.103,0.0,110.0,,,,,,,[],,,,,,50.0,0.0,u,0.0,True,1114.3000000417233,67.0,60.0,40.0,False,,324.3666825790689,[],"[720, 450]",ColorTask,56.0,104.0,,,HRV,HRV_0230,2022-11-30 19:26:16
,wl-rdm,112,360100,0.0-6.104-0.104,0.0,111.0,,,,,,,[],,,,,,50.0,0.0,u,0.0,True,1090.699999988079,66.0,60.0,40.0,False,,208.11473672245583,[],"[720, 450]",ColorTask,57.0,105.0,,,HRV,HRV_0230,2022-11-30 19:26:16
,wl-rdm,113,363272,0.0-6.105-0.105,0.0,112.0,,,,,,,[],,,,,,50.0,0.0,u,0.0,True,1888.9999999701977,110.0,60.0,40.0,False,,206.35558120832184,[],"[720, 450]",ColorTask,58.0,106.0,,,HRV,HRV_0230,2022-11-30 19:26:16
,wl-rdm,114,365543,0.0-6.106-0.106,0.0,113.0,,,,,,,[],,,,,,87.9,1.0,i,1.0,True,871.0,53.0,60.0,40.0,False,,290.33315642141906,[],"[720, 450]",ColorTask,59.0,107.0,,,HRV,HRV_0230,2022-11-30 19:26:16
,wl-rdm,115,369150,0.0-6.107-0.107,0.0,114.0,,,,,,,[],,,,,,50.0,1.0,i,1.0,True,2223.0,133.0,60.0,40.0,False,,307.05992626385597,[],"[720, 450]",ColorTask,60.0,108.0,,,HRV,HRV_0230,2022-11-30 19:26:16
,wl-rdm,116,372907,0.0-6.108-0.108,0.0,115.0,,,,,,,[],,,,,,56.4,1.0,i,1.0,True,2342.4000000059605,140.0,60.0,40.0,False,,347.29808928409284,[],"[720, 450]",ColorTask,61.0,109.0,,,HRV,HRV_0230,2022-11-30 19:26:16
,wl-rdm,117,374961,0.0-6.109-0.109,0.0,116.0,,,,,,,[],,,,,,87.9,0.0,u,0.0,True,691.3000000119209,42.0,60.0,40.0,False,,284.08913090487374,[],"[720, 450]",ColorTask,62.0,110.0,,,HRV,HRV_0230,2022-11-30 19:26:16
,wl-html-keyboard-response,118,399661,0.0-7.0-0.0,1.0,117.0,,,,,,,,22683.5,1.0,0,,,,,,,,,,,,,,,,,,,,,,HRV,HRV_0230,2022-11-30 19:26:16
,wl-rdm,119,401829,0.0-8.0-0.0,1.0,118.0,,,,,,,[],,,,,,73.6,1.0,i,1.0,True,855.2999999821186,52.0,60.0,40.0,False,,247.70343551837846,[],"[720, 450]",ColorTask,63.0,1.0,,,HRV,HRV_0230,2022-11-30 19:26:16
,wl-rdm,120,404416,0.0-8.1-0.1,1.0,119.0,,,,,,,[],,,,,,56.4,1.0,i,1.0,True,1159.199999988079,70.0,60.0,40.0,False,,352.1296854790812,[],"[720, 450]",ColorTask,64.0,2.0,,,HRV,HRV_0230,2022-11-30 19:26:16
,wl-rdm,121,406504,0.0-8.2-0.2,1.0,120.0,,,,,,,[],,,,,,87.9,1.0,i,1.0,True,708.1999999880791,40.0,60.0,40.0,False,,303.32623865512414,[],"[720, 450]",ColorTask,65.0,3.0,,,HRV,HRV_0230,2022-11-30 19:26:16
,wl-rdm,122,408909,0.0-8.3-0.3,1.0,121.0,,,,,,,[],,,,,,53.2,0.0,i,1.0,False,1123.5999999642372,67.0,60.0,40.0,False,,213.10698055224555,[],"[720, 450]",ColorTask,64.0,4.0,,,HRV,HRV_0230,2022-11-30 19:26:16
,wl-rdm,123,411346,0.0-8.4-0.4,1.0,122.0,,,,,,,[],,,,,,73.6,1.0,i,1.0,True,1065.0,65.0,60.0,40.0,False,,286.3268555767233,[],"[720, 450]",ColorTask,65.0,5.0,,,HRV,HRV_0230,2022-11-30 19:26:16
,wl-rdm,124,414720,0.0-8.5-0.5,1.0,123.0,,,,,,,[],,,,,,62.5,0.0,i,1.0,False,1935.8999999761581,116.0,60.0,40.0,False,,381.48222095258313,[],"[720, 450]",ColorTask,64.0,6.0,,,HRV,HRV_0230,2022-11-30 19:26:16
,wl-rdm,125,416840,0.0-8.6-0.6,1.0,124.0,,,,,,,[],,,,,,62.5,1.0,i,1.0,True,834.5000000298023,49.0,60.0,40.0,False,,203.05895237528492,[],"[720, 450]",ColorTask,65.0,7.0,,,HRV,HRV_0230,2022-11-30 19:26:16
,wl-rdm,126,419712,0.0-8.7-0.7,1.0,125.0,,,,,,,[],,,,,,62.5,1.0,i,1.0,True,1594.5999999940395,92.0,60.0,40.0,False,,205.37414348416723,[],"[720, 450]",ColorTask,66.0,8.0,,,HRV,HRV_0230,2022-11-30 19:26:16
,wl-rdm,127,421901,0.0-8.8-0.8,1.0,126.0,,,,,,,[],,,,,,87.9,0.0,u,0.0,True,805.6999999880791,46.0,60.0,40.0,False,,311.49935814361186,[],"[720, 450]",ColorTask,67.0,9.0,,,HRV,HRV_0230,2022-11-30 19:26:16
,wl-rdm,128,424337,0.0-8.9-0.9,1.0,127.0,,,,,,,[],,,,,,62.5,1.0,i,1.0,True,1024.800000011921,62.0,60.0,40.0,False,,336.0355144427068,[],"[720, 450]",ColorTask,68.0,10.0,,,HRV,HRV_0230,2022-11-30 19:26:16
,wl-rdm,129,426408,0.0-8.10-0.10,1.0,128.0,,,,,,,[],,,,,,87.9,1.0,i,1.0,True,733.7999999821186,44.0,60.0,40.0,False,,253.33042352423428,[],"[720, 450]",ColorTask,69.0,11.0,,,HRV,HRV_0230,2022-11-30 19:26:16
,wl-rdm,130,429146,0.0-8.11-0.11,1.0,129.0,,,,,,,[],,,,,,50.0,0.0,i,1.0,False,1372.9999999701977,80.0,60.0,40.0,False,,286.4726423647137,[],"[720, 450]",ColorTask,68.0,12.0,,,HRV,HRV_0230,2022-11-30 19:26:16
,wl-rdm,131,431634,0.0-8.12-0.12,1.0,130.0,,,,,,,[],,,,,,73.6,1.0,i,1.0,True,1174.699999988079,71.0,60.0,40.0,False,,241.9325760000854,[],"[720, 450]",ColorTask,69.0,13.0,,,HRV,HRV_0230,2022-11-30 19:26:16
,wl-rdm,132,434539,0.0-8.13-0.13,1.0,131.0,,,,,,,[],,,,,,50.0,1.0,i,1.0,True,1625.0999999940395,94.0,60.0,40.0,False,,208.29521033560843,[],"[720, 450]",ColorTask,70.0,14.0,,,HRV,HRV_0230,2022-11-30 19:26:16
,wl-rdm,133,436560,0.0-8.14-0.14,1.0,132.0,,,,,,,[],,,,,,62.5,0.0,u,0.0,True,650.0000000298023,36.0,60.0,40.0,False,,305.6843649765497,[],"[720, 450]",ColorTask,71.0,15.0,,,HRV,HRV_0230,2022-11-30 19:26:16
,wl-rdm,134,439616,0.0-8.15-0.15,1.0,133.0,,,,,,,[],,,,,,53.2,0.0,i,1.0,False,1660.4000000059605,97.0,60.0,40.0,False,,330.58114156151345,[],"[720, 450]",ColorTask,70.0,16.0,,,HRV,HRV_0230,2022-11-30 19:26:16
,wl-rdm,135,441755,0.0-8.16-0.16,1.0,134.0,,,,,,,[],,,,,,87.9,1.0,i,1.0,True,693.1000000238419,42.0,60.0,40.0,False,,350.9062007493087,[],"[720, 450]",ColorTask,71.0,17.0,,,HRV,HRV_0230,2022-11-30 19:26:16
,wl-rdm,136,445211,0.0-8.17-0.17,1.0,135.0,,,,,,,[],,,,,,62.5,0.0,u,0.0,True,1980.300000011921,107.0,60.0,40.0,False,,358.240685939985,[],"[720, 450]",ColorTask,72.0,18.0,,,HRV,HRV_0230,2022-11-30 19:26:16
,wl-rdm,137,447700,0.0-8.18-0.18,1.0,136.0,,,,,,,[],,,,,,62.5,1.0,i,1.0,True,1164.2999999821186,56.0,60.0,40.0,False,,254.80477902644526,[],"[720, 450]",ColorTask,73.0,19.0,,,HRV,HRV_0230,2022-11-30 19:26:16
,wl-rdm,138,450154,0.0-8.19-0.19,1.0,137.0,,,,,,,[],,,,,,62.5,0.0,u,0.0,True,1041.5,49.0,60.0,40.0,False,,319.99030969481976,[],"[720, 450]",ColorTask,74.0,20.0,,,HRV,HRV_0230,2022-11-30 19:26:16
,wl-rdm,139,452542,0.0-8.20-0.20,1.0,138.0,,,,,,,[],,,,,,73.6,1.0,i,1.0,True,954.9000000059605,53.0,60.0,40.0,False,,355.5167668675167,[],"[720, 450]",ColorTask,75.0,21.0,,,HRV,HRV_0230,2022-11-30 19:26:16
,wl-rdm,140,455162,0.0-8.21-0.21,1.0,139.0,,,,,,,[],,,,,,62.5,1.0,i,1.0,True,1317.0999999940395,79.0,60.0,40.0,False,,237.42212449960024,[],"[720, 450]",ColorTask,76.0,22.0,,,HRV,HRV_0230,2022-11-30 19:26:16
,wl-rdm,141,457617,0.0-8.22-0.22,1.0,140.0,,,,,,,[],,,,,,56.4,1.0,i,1.0,True,1066.8999999761581,62.0,60.0,40.0,False,,322.13510503811415,[],"[720, 450]",ColorTask,77.0,23.0,,,HRV,HRV_0230,2022-11-30 19:26:16
,wl-rdm,142,459888,0.0-8.23-0.23,1.0,141.0,,,,,,,[],,,,,,50.0,0.0,i,1.0,False,877.5,53.0,60.0,40.0,False,,320.94462749647,[],"[720, 450]",ColorTask,76.0,24.0,,,HRV,HRV_0230,2022-11-30 19:26:16
,wl-rdm,143,461925,0.0-8.24-0.24,1.0,142.0,,,,,,,[],,,,,,56.4,1.0,u,0.0,False,679.1999999880791,41.0,60.0,40.0,False,,293.8139817853672,[],"[720, 450]",ColorTask,75.0,25.0,,,HRV,HRV_0230,2022-11-30 19:26:16
,wl-rdm,144,464847,0.0-8.25-0.25,1.0,143.0,,,,,,,[],,,,,,56.4,1.0,i,1.0,True,1640.800000011921,97.0,60.0,40.0,False,,206.55205819555056,[],"[720, 450]",ColorTask,76.0,26.0,,,HRV,HRV_0230,2022-11-30 19:26:16
,wl-rdm,145,467954,0.0-8.26-0.26,1.0,144.0,,,,,,,[],,,,,,53.2,1.0,i,1.0,True,1835.199999988079,88.0,60.0,40.0,False,,205.112374372727,[],"[720, 450]",ColorTask,77.0,27.0,,,HRV,HRV_0230,2022-11-30 19:26:16
,wl-rdm,146,471493,0.0-8.27-0.27,1.0,145.0,,,,,,,[],,,,,,56.4,1.0,i,1.0,True,2205.399999976158,132.0,60.0,40.0,False,,253.82091098407304,[],"[720, 450]",ColorTask,78.0,28.0,,,HRV,HRV_0230,2022-11-30 19:26:16
,wl-rdm,147,473664,0.0-8.28-0.28,1.0,146.0,,,,,,,[],,,,,,73.6,1.0,i,1.0,True,875.5,53.0,60.0,40.0,False,,228.4251239344112,[],"[720, 450]",ColorTask,79.0,29.0,,,HRV,HRV_0230,2022-11-30 19:26:16
,wl-rdm,148,477003,0.0-8.29-0.29,1.0,147.0,,,,,,,[],,,,,,53.2,1.0,i,1.0,True,2049.0999999940395,123.0,60.0,40.0,False,,223.22617202090208,[],"[720, 450]",ColorTask,80.0,30.0,,,HRV,HRV_0230,2022-11-30 19:26:16
,wl-rdm,149,479123,0.0-8.30-0.30,1.0,148.0,,,,,,,[],,,,,,56.4,0.0,u,0.0,True,820.7999999821186,50.0,60.0,40.0,False,,233.4383862525898,[],"[720, 450]",ColorTask,81.0,31.0,,,HRV,HRV_0230,2022-11-30 19:26:16
,wl-rdm,150,481113,0.0-8.31-0.31,1.0,149.0,,,,,,,[],,,,,,73.6,0.0,u,0.0,True,658.5000000298023,38.0,60.0,40.0,False,,254.72711046876594,[],"[720, 450]",ColorTask,82.0,32.0,,,HRV,HRV_0230,2022-11-30 19:26:16
,wl-rdm,151,483449,0.0-8.32-0.32,1.0,150.0,,,,,,,[],,,,,,50.0,1.0,u,0.0,False,1041.2999999821186,63.0,60.0,40.0,False,,232.57043328619002,[],"[720, 450]",ColorTask,81.0,33.0,,,HRV,HRV_0230,2022-11-30 19:26:16
,wl-rdm,152,485485,0.0-8.33-0.33,1.0,151.0,,,,,,,[],,,,,,87.9,1.0,i,1.0,True,727.7999999821186,44.0,60.0,40.0,False,,245.29172407863695,[],"[720, 450]",ColorTask,82.0,34.0,,,HRV,HRV_0230,2022-11-30 19:26:16
,wl-rdm,153,488057,0.0-8.34-0.34,1.0,152.0,,,,,,,[],,,,,,73.6,1.0,i,1.0,True,1258.800000011921,74.0,60.0,40.0,False,,233.87468033564605,[],"[720, 450]",ColorTask,83.0,35.0,,,HRV,HRV_0230,2022-11-30 19:26:16
,wl-rdm,154,491264,0.0-8.35-0.35,1.0,153.0,,,,,,,[],,,,,,53.2,1.0,i,1.0,True,1936.5,116.0,60.0,40.0,False,,200.86781805501616,[],"[720, 450]",ColorTask,84.0,36.0,,,HRV,HRV_0230,2022-11-30 19:26:16
,wl-rdm,155,494420,0.0-8.36-0.36,1.0,154.0,,,,,,,[],,,,,,53.2,0.0,i,1.0,False,1791.3999999761581,108.0,60.0,40.0,False,,300.42278365080097,[],"[720, 450]",ColorTask,83.0,37.0,,,HRV,HRV_0230,2022-11-30 19:26:16
,wl-rdm,156,496991,0.0-8.37-0.37,1.0,155.0,,,,,,,[],,,,,,73.6,0.0,u,0.0,True,1295.5999999940395,78.0,60.0,40.0,False,,211.54820258432625,[],"[720, 450]",ColorTask,84.0,38.0,,,HRV,HRV_0230,2022-11-30 19:26:16
,wl-rdm,157,499078,0.0-8.38-0.38,1.0,156.0,,,,,,,[],,,,,,73.6,0.0,u,0.0,True,688.2999999821186,41.0,60.0,40.0,False,,330.5203309766577,[],"[720, 450]",ColorTask,85.0,39.0,,,HRV,HRV_0230,2022-11-30 19:26:16
,wl-rdm,158,501632,0.0-8.39-0.39,1.0,157.0,,,,,,,[],,,,,,56.4,1.0,u,0.0,False,1159.5,67.0,60.0,40.0,False,,328.9914086727126,[],"[720, 450]",ColorTask,84.0,40.0,,,HRV,HRV_0230,2022-11-30 19:26:16
,wl-rdm,159,505088,0.0-8.40-0.40,1.0,158.0,,,,,,,[],,,,,,50.0,1.0,i,1.0,True,2044.3999999761581,120.0,60.0,40.0,False,,326.51126791284685,[],"[720, 450]",ColorTask,85.0,41.0,,,HRV,HRV_0230,2022-11-30 19:26:16
,wl-rdm,160,507961,0.0-8.41-0.41,1.0,159.0,,,,,,,[],,,,,,62.5,0.0,i,1.0,False,1516.3000000417233,91.0,60.0,40.0,False,,297.5735448903163,[],"[720, 450]",ColorTask,84.0,42.0,,,HRV,HRV_0230,2022-11-30 19:26:16
,wl-rdm,161,510549,0.0-8.42-0.42,1.0,160.0,,,,,,,[],,,,,,53.2,0.0,u,0.0,True,1155.800000011921,67.0,60.0,40.0,False,,352.65101553825457,[],"[720, 450]",ColorTask,85.0,43.0,,,HRV,HRV_0230,2022-11-30 19:26:16
,wl-rdm,162,512836,0.0-8.43-0.43,1.0,161.0,,,,,,,[],,,,,,56.4,0.0,u,0.0,True,889.5999999940395,54.0,60.0,40.0,False,,330.1913507312794,[],"[720, 450]",ColorTask,86.0,44.0,,,HRV,HRV_0230,2022-11-30 19:26:16
,wl-rdm,163,514924,0.0-8.44-0.44,1.0,162.0,,,,,,,[],,,,,,62.5,0.0,u,0.0,True,757.5999999940395,42.0,60.0,40.0,False,,259.8782096806228,[],"[720, 450]",ColorTask,87.0,45.0,,,HRV,HRV_0230,2022-11-30 19:26:16
,wl-rdm,164,517278,0.0-8.45-0.45,1.0,163.0,,,,,,,[],,,,,,53.2,1.0,u,0.0,False,994.3000000119209,58.0,60.0,40.0,False,,295.15231561701535,[],"[720, 450]",ColorTask,86.0,46.0,,,HRV,HRV_0230,2022-11-30 19:26:16
,wl-rdm,165,519516,0.0-8.46-0.46,1.0,164.0,,,,,,,[],,,,,,73.6,0.0,u,0.0,True,928.8000000119209,52.0,60.0,40.0,False,,249.0746792404914,[],"[720, 450]",ColorTask,87.0,47.0,,,HRV,HRV_0230,2022-11-30 19:26:16
,wl-rdm,166,522354,0.0-8.47-0.47,1.0,165.0,,,,,,,[],,,,,,56.4,1.0,u,0.0,False,1416.5,83.0,60.0,40.0,False,,357.99297179354267,[],"[720, 450]",ColorTask,86.0,48.0,,,HRV,HRV_0230,2022-11-30 19:26:16
,wl-rdm,167,524492,0.0-8.48-0.48,1.0,166.0,,,,,,,[],,,,,,87.9,1.0,i,1.0,True,804.0999999940395,49.0,60.0,40.0,False,,254.2488780063043,[],"[720, 450]",ColorTask,87.0,49.0,,,HRV,HRV_0230,2022-11-30 19:26:16
,wl-rdm,168,528201,0.0-8.49-0.49,1.0,167.0,,,,,,,[],,,,,,50.0,1.0,i,1.0,True,2396.0999999940395,142.0,60.0,40.0,False,,243.40145697742986,[],"[720, 450]",ColorTask,88.0,50.0,,,HRV,HRV_0230,2022-11-30 19:26:16
,wl-rdm,169,530519,0.0-8.50-0.50,1.0,168.0,,,,,,,[],,,,,,56.4,0.0,u,0.0,True,1009.5999999940395,61.0,60.0,40.0,False,,237.8889356797448,[],"[720, 450]",ColorTask,89.0,51.0,,,HRV,HRV_0230,2022-11-30 19:26:16
,wl-rdm,170,533258,0.0-8.51-0.51,1.0,169.0,,,,,,,[],,,,,,56.4,0.0,u,0.0,True,1291.699999988079,74.0,60.0,40.0,False,,372.96540783846973,[],"[720, 450]",ColorTask,90.0,52.0,,,HRV,HRV_0230,2022-11-30 19:26:16
,wl-rdm,171,535395,0.0-8.52-0.52,1.0,170.0,,,,,,,[],,,,,,62.5,0.0,u,0.0,True,755.1999999880791,45.0,60.0,40.0,False,,302.6979405948738,[],"[720, 450]",ColorTask,91.0,53.0,,,HRV,HRV_0230,2022-11-30 19:26:16
,wl-rdm,172,537583,0.0-8.53-0.53,1.0,171.0,,,,,,,[],,,,,,73.6,0.0,u,0.0,True,735.9000000059605,44.0,60.0,40.0,False,,375.1183998948917,[],"[720, 450]",ColorTask,92.0,54.0,,,HRV,HRV_0230,2022-11-30 19:26:16
,wl-rdm,173,539920,0.0-8.54-0.54,1.0,172.0,,,,,,,[],,,,,,56.4,0.0,u,0.0,True,982.5999999940395,59.0,60.0,40.0,False,,286.5712460075198,[],"[720, 450]",ColorTask,93.0,55.0,,,HRV,HRV_0230,2022-11-30 19:26:16
,wl-rdm,174,542225,0.0-8.55-0.55,1.0,173.0,,,,,,,[],,,,,,50.0,1.0,i,1.0,True,873.8999999761581,53.0,60.0,40.0,False,,356.8851035034196,[],"[720, 450]",ColorTask,94.0,56.0,,,HRV,HRV_0230,2022-11-30 19:26:16
,wl-rdm,175,544479,0.0-8.56-0.56,1.0,174.0,,,,,,,[],,,,,,50.0,0.0,i,1.0,False,921.0,53.0,60.0,40.0,False,,264.71082260042397,[],"[720, 450]",ColorTask,93.0,57.0,,,HRV,HRV_0230,2022-11-30 19:26:16
,wl-rdm,176,546984,0.0-8.57-0.57,1.0,175.0,,,,,,,[],,,,,,50.0,1.0,i,1.0,True,1202.300000011921,72.0,60.0,40.0,False,,222.66959200555252,[],"[720, 450]",ColorTask,94.0,58.0,,,HRV,HRV_0230,2022-11-30 19:26:16
,wl-rdm,177,548940,0.0-8.58-0.58,1.0,176.0,,,,,,,[],,,,,,87.9,0.0,u,0.0,True,681.9000000059605,39.0,60.0,40.0,False,,209.12083056781555,[],"[720, 450]",ColorTask,95.0,59.0,,,HRV,HRV_0230,2022-11-30 19:26:16
,wl-rdm,178,550975,0.0-8.59-0.59,1.0,177.0,,,,,,,[],,,,,,87.9,1.0,i,1.0,True,703.0,42.0,60.0,40.0,False,,264.38489602318975,[],"[720, 450]",ColorTask,96.0,60.0,,,HRV,HRV_0230,2022-11-30 19:26:16
,wl-rdm,179,553062,0.0-8.60-0.60,1.0,178.0,,,,,,,[],,,,,,73.6,1.0,i,1.0,True,743.5999999940395,45.0,60.0,40.0,False,,271.6974931324071,[],"[720, 450]",ColorTask,97.0,61.0,,,HRV,HRV_0230,2022-11-30 19:26:16
,wl-rdm,180,555082,0.0-8.61-0.61,1.0,179.0,,,,,,,[],,,,,,87.9,0.0,u,0.0,True,748.3999999761581,45.0,60.0,40.0,False,,204.4621331256759,[],"[720, 450]",ColorTask,98.0,62.0,,,HRV,HRV_0230,2022-11-30 19:26:16
,wl-rdm,181,557320,0.0-8.62-0.62,1.0,180.0,,,,,,,[],,,,,,50.0,0.0,i,1.0,False,959.1999999880791,58.0,60.0,40.0,False,,208.8301343936931,[],"[720, 450]",ColorTask,97.0,63.0,,,HRV,HRV_0230,2022-11-30 19:26:16
,wl-rdm,182,560092,0.0-8.63-0.63,1.0,181.0,,,,,,,[],,,,,,53.2,0.0,i,1.0,False,1474.300000011921,89.0,60.0,40.0,False,,219.4739344211754,[],"[720, 450]",ColorTask,96.0,64.0,,,HRV,HRV_0230,2022-11-30 19:26:16
,wl-rdm,183,563133,0.0-8.64-0.64,1.0,182.0,,,,,,,[],,,,,,53.2,0.0,i,1.0,False,1731.8999999761581,103.0,60.0,40.0,False,,243.2837241611175,[],"[720, 450]",ColorTask,95.0,65.0,,,HRV,HRV_0230,2022-11-30 19:26:16
,wl-rdm,184,565686,0.0-8.65-0.65,1.0,183.0,,,,,,,[],,,,,,50.0,0.0,i,1.0,False,1256.0999999940395,75.0,60.0,40.0,False,,221.49618044683137,[],"[720, 450]",ColorTask,94.0,66.0,,,HRV,HRV_0230,2022-11-30 19:26:16
,wl-rdm,185,569577,0.0-8.66-0.66,1.0,184.0,,,,,,,[],,,,,,50.0,0.0,i,1.0,False,2595.7000000178814,156.0,60.0,40.0,False,,227.5094168854365,[],"[720, 450]",ColorTask,93.0,67.0,,,HRV,HRV_0230,2022-11-30 19:26:16
,wl-rdm,186,572816,0.0-8.67-0.67,1.0,185.0,,,,,,,[],,,,,,53.2,0.0,i,1.0,False,1776.699999988079,107.0,60.0,40.0,False,,386.70759919867146,[],"[720, 450]",ColorTask,92.0,68.0,,,HRV,HRV_0230,2022-11-30 19:26:16
,wl-rdm,187,577174,0.0-8.68-0.68,1.0,186.0,,,,,,,[],,,,,,53.2,1.0,i,1.0,True,2982.5,179.0,60.0,40.0,False,,314.146843966985,[],"[720, 450]",ColorTask,93.0,69.0,,,HRV,HRV_0230,2022-11-30 19:26:16
,wl-rdm,188,580097,0.0-8.69-0.69,1.0,187.0,,,,,,,[],,,,,,62.5,0.0,u,0.0,True,1551.0999999940395,93.0,60.0,40.0,False,,308.65304768769136,[],"[720, 450]",ColorTask,94.0,70.0,,,HRV,HRV_0230,2022-11-30 19:26:16
,wl-rdm,189,582534,0.0-8.70-0.70,1.0,188.0,,,,,,,[],,,,,,73.6,0.0,u,0.0,True,986.4000000059605,57.0,60.0,40.0,False,,370.4256883582796,[],"[720, 450]",ColorTask,95.0,71.0,,,HRV,HRV_0230,2022-11-30 19:26:16
,wl-rdm,190,584788,0.0-8.71-0.71,1.0,189.0,,,,,,,[],,,,,,62.5,0.0,u,0.0,True,889.1000000238419,52.0,60.0,40.0,False,,299.4125770940508,[],"[720, 450]",ColorTask,96.0,72.0,,,HRV,HRV_0230,2022-11-30 19:26:16
,wl-rdm,191,588278,0.0-8.72-0.72,1.0,190.0,,,,,,,[],,,,,,53.2,1.0,i,1.0,True,2197.899999976158,132.0,60.0,40.0,False,,219.1321232422108,[],"[720, 450]",ColorTask,97.0,73.0,,,HRV,HRV_0230,2022-11-30 19:26:16
,wl-rdm,192,590599,0.0-8.73-0.73,1.0,191.0,,,,,,,[],,,,,,50.0,0.0,u,0.0,True,937.6999999880791,56.0,60.0,40.0,False,,277.8239308558575,[],"[720, 450]",ColorTask,98.0,74.0,,,HRV,HRV_0230,2022-11-30 19:26:16
,wl-rdm,193,593148,0.0-8.74-0.74,1.0,192.0,,,,,,,[],,,,,,56.4,0.0,u,0.0,True,1029.699999988079,55.0,60.0,40.0,False,,397.2418830857873,[],"[720, 450]",ColorTask,99.0,75.0,,,HRV,HRV_0230,2022-11-30 19:26:16
,wl-rdm,194,596027,0.0-8.75-0.75,1.0,193.0,,,,,,,[],,,,,,62.5,1.0,i,1.0,True,1492.3999999761581,89.0,60.0,40.0,False,,302.0760779957236,[],"[720, 450]",ColorTask,100.0,76.0,,,HRV,HRV_0230,2022-11-30 19:26:16
,wl-rdm,195,598147,0.0-8.76-0.76,1.0,194.0,,,,,,,[],,,,,,87.9,1.0,i,1.0,True,822.0000000298023,47.0,60.0,40.0,False,,226.08551521619233,[],"[720, 450]",ColorTask,101.0,77.0,,,HRV,HRV_0230,2022-11-30 19:26:16
,wl-rdm,196,600301,0.0-8.77-0.77,1.0,195.0,,,,,,,[],,,,,,56.4,1.0,i,1.0,True,757.2999999821186,46.0,60.0,40.0,False,,329.0917060990564,[],"[720, 450]",ColorTask,102.0,78.0,,,HRV,HRV_0230,2022-11-30 19:26:16
,wl-rdm,197,602472,0.0-8.78-0.78,1.0,196.0,,,,,,,[],,,,,,87.9,1.0,i,1.0,True,898.4000000059605,54.0,60.0,40.0,False,,202.21808086266117,[],"[720, 450]",ColorTask,103.0,79.0,,,HRV,HRV_0230,2022-11-30 19:26:16
,wl-rdm,198,604826,0.0-8.79-0.79,1.0,197.0,,,,,,,[],,,,,,73.6,0.0,u,0.0,True,998.5999999940395,59.0,60.0,40.0,False,,300.1955252859867,[],"[720, 450]",ColorTask,104.0,80.0,,,HRV,HRV_0230,2022-11-30 19:26:16
,wl-rdm,199,607716,0.0-8.80-0.80,1.0,198.0,,,,,,,[],,,,,,50.0,1.0,i,1.0,True,1558.300000011921,93.0,60.0,40.0,False,,251.35918464142003,[],"[720, 450]",ColorTask,105.0,81.0,,,HRV,HRV_0230,2022-11-30 19:26:16
,wl-rdm,200,609870,0.0-8.81-0.81,1.0,199.0,,,,,,,[],,,,,,87.9,0.0,u,0.0,True,827.5999999642372,43.0,60.0,40.0,False,,251.9102273147814,[],"[720, 450]",ColorTask,106.0,82.0,,,HRV,HRV_0230,2022-11-30 19:26:16
,wl-rdm,201,612173,0.0-8.82-0.82,1.0,200.0,,,,,,,[],,,,,,56.4,0.0,u,0.0,True,905.9000000059605,55.0,60.0,40.0,False,,324.20208456334626,[],"[720, 450]",ColorTask,107.0,83.0,,,HRV,HRV_0230,2022-11-30 19:26:16
,wl-rdm,202,614160,0.0-8.83-0.83,1.0,201.0,,,,,,,[],,,,,,87.9,0.0,u,0.0,True,495.30000001192093,30.0,60.0,40.0,False,,391.60288923636585,[],"[720, 450]",ColorTask,108.0,84.0,,,HRV,HRV_0230,2022-11-30 19:26:16
,wl-rdm,203,616047,0.0-8.84-0.84,1.0,202.0,,,,,,,[],,,,,,87.9,0.0,u,0.0,True,526.0000000298023,31.0,60.0,40.0,False,,281.965240060054,[],"[720, 450]",ColorTask,109.0,85.0,,,HRV,HRV_0230,2022-11-30 19:26:16
,wl-rdm,204,618034,0.0-8.85-0.85,1.0,203.0,,,,,,,[],,,,,,87.9,0.0,u,0.0,True,648.1000000238419,39.0,60.0,40.0,False,,277.45157647938186,[],"[720, 450]",ColorTask,110.0,86.0,,,HRV,HRV_0230,2022-11-30 19:26:16
,wl-rdm,205,620090,0.0-8.86-0.86,1.0,204.0,,,,,,,[],,,,,,53.2,1.0,u,0.0,False,732.6000000238419,43.0,60.0,40.0,False,,246.61242004112586,[],"[720, 450]",ColorTask,109.0,87.0,,,HRV,HRV_0230,2022-11-30 19:26:16
,wl-rdm,206,622209,0.0-8.87-0.87,1.0,205.0,,,,,,,[],,,,,,87.9,0.0,u,0.0,True,735.2999999821186,44.0,60.0,40.0,False,,302.8964506860048,[],"[720, 450]",ColorTask,110.0,88.0,,,HRV,HRV_0230,2022-11-30 19:26:16
,wl-rdm,207,626236,0.0-8.88-0.88,1.0,206.0,,,,,,,[],,,,,,50.0,1.0,u,0.0,False,2735.5999999940395,161.0,60.0,40.0,False,,211.00786745838033,[],"[720, 450]",ColorTask,109.0,89.0,,,HRV,HRV_0230,2022-11-30 19:26:16
,wl-rdm,208,628387,0.0-8.89-0.89,1.0,207.0,,,,,,,[],,,,,,73.6,1.0,i,1.0,True,846.5999999940395,51.0,60.0,40.0,False,,222.09228327465618,[],"[720, 450]",ColorTask,110.0,90.0,,,HRV,HRV_0230,2022-11-30 19:26:16
,wl-rdm,209,630808,0.0-8.90-0.90,1.0,208.0,,,,,,,[],,,,,,53.2,1.0,i,1.0,True,1025.0999999940395,61.0,60.0,40.0,False,,332.66137552537623,[],"[720, 450]",ColorTask,111.0,91.0,,,HRV,HRV_0230,2022-11-30 19:26:16
,wl-rdm,210,635084,0.0-8.91-0.91,1.0,209.0,,,,,,,[],,,,,,56.4,0.0,u,0.0,True,2869.100000023842,172.0,60.0,40.0,False,,328.8643254583882,[],"[720, 450]",ColorTask,112.0,92.0,,,HRV,HRV_0230,2022-11-30 19:26:16
,wl-rdm,211,638573,0.0-8.92-0.92,1.0,210.0,,,,,,,[],,,,,,53.2,0.0,u,0.0,True,2026.4000000059605,122.0,60.0,40.0,False,,386.3123973769432,[],"[720, 450]",ColorTask,113.0,93.0,,,HRV,HRV_0230,2022-11-30 19:26:16
,wl-rdm,212,641044,0.0-8.93-0.93,1.0,211.0,,,,,,,[],,,,,,62.5,1.0,u,0.0,False,1007.0,61.0,60.0,40.0,False,,390.31618720613255,[],"[720, 450]",ColorTask,112.0,94.0,,,HRV,HRV_0230,2022-11-30 19:26:16
,wl-rdm,213,643900,0.0-8.94-0.94,1.0,212.0,,,,,,,[],,,,,,56.4,0.0,i,1.0,False,1408.5999999940395,85.0,60.0,40.0,False,,362.708133211656,[],"[720, 450]",ColorTask,111.0,95.0,,,HRV,HRV_0230,2022-11-30 19:26:16
,wl-rdm,214,646205,0.0-8.95-0.95,1.0,213.0,,,,,,,[],,,,,,53.2,0.0,i,1.0,False,905.2000000178814,55.0,60.0,40.0,False,,330.29504360867827,[],"[720, 450]",ColorTask,110.0,96.0,,,HRV,HRV_0230,2022-11-30 19:26:16
,wl-rdm,215,648876,0.0-8.96-0.96,1.0,214.0,,,,,,,[],,,,,,50.0,0.0,i,1.0,False,1230.8999999761581,73.0,60.0,40.0,False,,378.7804479677103,[],"[720, 450]",ColorTask,109.0,97.0,,,HRV,HRV_0230,2022-11-30 19:26:16
,wl-rdm,216,652232,0.0-8.97-0.97,1.0,215.0,,,,,,,[],,,,,,73.6,1.0,i,1.0,True,2055.9000000059605,123.0,60.0,40.0,False,,219.46071249315517,[],"[720, 450]",ColorTask,110.0,98.0,,,HRV,HRV_0230,2022-11-30 19:26:16
,wl-rdm,217,654419,0.0-8.98-0.98,1.0,216.0,,,,,,,[],,,,,,87.9,1.0,i,1.0,True,755.9000000059605,46.0,60.0,40.0,False,,358.164480711271,[],"[720, 450]",ColorTask,111.0,99.0,,,HRV,HRV_0230,2022-11-30 19:26:16
,wl-rdm,218,656907,0.0-8.99-0.99,1.0,217.0,,,,,,,[],,,,,,73.6,0.0,u,0.0,True,1081.8999999761581,65.0,60.0,40.0,False,,344.7868912065209,[],"[720, 450]",ColorTask,112.0,100.0,,,HRV,HRV_0230,2022-11-30 19:26:16
,wl-rdm,219,659313,0.0-8.100-0.100,1.0,218.0,,,,,,,[],,,,,,73.6,0.0,u,0.0,True,967.1999999880791,58.0,60.0,40.0,False,,370.8099361566852,[],"[720, 450]",ColorTask,113.0,101.0,,,HRV,HRV_0230,2022-11-30 19:26:16
,wl-rdm,220,661967,0.0-8.101-0.101,1.0,219.0,,,,,,,[],,,,,,50.0,1.0,i,1.0,True,1273.9000000357628,77.0,60.0,40.0,False,,310.767531819763,[],"[720, 450]",ColorTask,114.0,102.0,,,HRV,HRV_0230,2022-11-30 19:26:16
,wl-rdm,221,664539,0.0-8.102-0.102,1.0,220.0,,,,,,,[],,,,,,62.5,1.0,i,1.0,True,1299.300000011921,78.0,60.0,40.0,False,,207.7303933675645,[],"[720, 450]",ColorTask,115.0,103.0,,,HRV,HRV_0230,2022-11-30 19:26:16
,wl-rdm,222,666709,0.0-8.103-0.103,1.0,221.0,,,,,,,[],,,,,,87.9,0.0,u,0.0,True,795.5,48.0,60.0,40.0,False,,309.2759872399727,[],"[720, 450]",ColorTask,116.0,104.0,,,HRV,HRV_0230,2022-11-30 19:26:16
,wl-rdm,223,669865,0.0-8.104-0.104,1.0,222.0,,,,,,,[],,,,,,50.0,0.0,u,0.0,True,1703.1000000238419,102.0,60.0,40.0,False,,376.1131357006233,[],"[720, 450]",ColorTask,117.0,105.0,,,HRV,HRV_0230,2022-11-30 19:26:16
,wl-rdm,224,672704,0.0-8.105-0.105,1.0,223.0,,,,,,,[],,,,,,53.2,1.0,u,0.0,False,1409.699999988079,85.0,60.0,40.0,False,,366.07753417329286,[],"[720, 450]",ColorTask,116.0,106.0,,,HRV,HRV_0230,2022-11-30 19:26:16
,wl-rdm,225,674725,0.0-8.106-0.106,1.0,224.0,,,,,,,[],,,,,,62.5,1.0,i,1.0,True,723.5999999940395,44.0,60.0,40.0,False,,220.74997312657433,[],"[720, 450]",ColorTask,117.0,107.0,,,HRV,HRV_0230,2022-11-30 19:26:16
,wl-rdm,226,677298,0.0-8.107-0.107,1.0,225.0,,,,,,,[],,,,,,56.4,1.0,i,1.0,True,1219.4999999701977,73.0,60.0,40.0,False,,285.1723058784792,[],"[720, 450]",ColorTask,118.0,108.0,,,HRV,HRV_0230,2022-11-30 19:26:16
,wl-html-button-response,227,683611,0.0-9.0-0.0,,,,,,,,,,6303.800000011921,,0,,,,,,,,,,,,,,,,,,,,<h3>End of this session. Thank you!</h3><br>,['Close window'],HRV,HRV_0230,2022-11-30 19:26:16
