trialN,stimuli,trialStartTime,trialStartTime_UNIX,stimulus1,stimulus2,stimulus1Bid,stimulus2Bid,delta,selected,rt,rt_UNIX,rt_perfnow,receivedResponse,rsp,trialEndTime,trialDuration,trialEndTime_UNIX,trialDuration_UNIX,exp,subjectId,date
0,"[{'imgObject': {}, 'id': 'tacos', 'src': '/static/foodstim60/tacos.jpg', 'key': 'u', 'origWidth': 411, 'origHeight': 411, 'width': 411, 'height': 411, 'widthPercent': 0.45, 'rescaleHeight': False, 'trialN': 0, 'loaded': True, 'loadedTime': 3807.5999999940395, 'positionName': 'LEFT', 'positionCoords': [280.2, 244.5], 'bid': 6.41}, {'imgObject': {}, 'id': 'mac & cheese', 'src': '/static/foodstim60/mac & cheese.jpg', 'key': 'i', 'origWidth': 410, 'origHeight': 410, 'width': 410, 'height': 410, 'widthPercent': 0.45, 'rescaleHeight': False, 'trialN': 0, 'loaded': True, 'loadedTime': 4191.0999999940395, 'positionName': 'RIGHT', 'positionCoords': [748.8, 245], 'bid': 0.88}]",8533.799999982119,1669834477546,tacos,mac & cheese,6.41,0.88,-5.53,mac & cheese,1298.5,1417,1417.1000000238419,True,i,10470.0,1936.2000000178814,1669834479482,1936,HRV,HRV_0230,2022-11-30 18:59:45
1,"[{'imgObject': {}, 'id': 'cherries', 'src': '/static/foodstim60/cherries.jpg', 'key': 'u', 'origWidth': 410, 'origHeight': 411, 'width': 410, 'height': 411, 'widthPercent': 0.45, 'rescaleHeight': False, 'trialN': 1, 'loaded': True, 'loadedTime': 4221.5, 'positionName': 'LEFT', 'positionCoords': [281.2, 244.5], 'bid': 7.13}, {'imgObject': {}, 'id': 'chickenfingers', 'src': '/static/foodstim60/chickenfingers.jpg', 'key': 'i', 'origWidth': 410, 'origHeight': 410, 'width': 410, 'height': 410, 'widthPercent': 0.45, 'rescaleHeight': False, 'trialN': 1, 'loaded': True, 'loadedTime': 4244, 'positionName': 'RIGHT', 'positionCoords': [748.8, 245], 'bid': 9.13}]",10470.5,1669834479483,cherries,chickenfingers,7.13,9.13,2.000000000000001,chickenfingers,807.7999999821186,809,808.7999999821186,True,i,11786.799999982119,1316.2999999821186,1669834480799,1316,HRV,HRV_0230,2022-11-30 18:59:45
2,"[{'imgObject': {}, 'id': 'blackbeanswithrice', 'src': '/static/foodstim60/blackbeanswithrice.jpg', 'key': 'u', 'origWidth': 410, 'origHeight': 410, 'width': 410, 'height': 410, 'widthPercent': 0.45, 'rescaleHeight': False, 'trialN': 2, 'loaded': True, 'loadedTime': 4330.199999988079, 'positionName': 'LEFT', 'positionCoords': [281.2, 245], 'bid': 9.11}, {'imgObject': {}, 'id': 'bagel plain', 'src': '/static/foodstim60/bagel plain.jpg', 'key': 'i', 'origWidth': 410, 'origHeight': 410, 'width': 410, 'height': 410, 'widthPercent': 0.45, 'rescaleHeight': False, 'trialN': 2, 'loaded': True, 'loadedTime': 4346.9000000059605, 'positionName': 'RIGHT', 'positionCoords': [748.8, 245], 'bid': 0.27}]",11787.199999988079,1669834480799,blackbeanswithrice,bagel plain,9.11,0.27,-8.84,blackbeanswithrice,970.0999999940395,971,971.0999999940395,True,u,13274.40000000596,1487.2000000178814,1669834482287,1488,HRV,HRV_0230,2022-11-30 18:59:45
3,"[{'imgObject': {}, 'id': 'turkey sandwich', 'src': '/static/foodstim60/turkey sandwich.jpg', 'key': 'u', 'origWidth': 409, 'origHeight': 409, 'width': 409, 'height': 409, 'widthPercent': 0.45, 'rescaleHeight': False, 'trialN': 3, 'loaded': True, 'loadedTime': 4366.199999988079, 'positionName': 'LEFT', 'positionCoords': [282.2, 245.5], 'bid': 0}, {'imgObject': {}, 'id': 'edamame', 'src': '/static/foodstim60/edamame.jpg', 'key': 'i', 'origWidth': 409, 'origHeight': 410, 'width': 409, 'height': 410, 'widthPercent': 0.45, 'rescaleHeight': False, 'trialN': 3, 'loaded': True, 'loadedTime': 4387.299999982119, 'positionName': 'RIGHT', 'positionCoords': [748.8, 245], 'bid': 0.15}]",13275.09999999404,1669834482287,turkey sandwich,edamame,0.0,0.15,0.15,turkey sandwich,890.0999999940395,893,892.3000000119209,True,u,14684.09999999404,1409.0,1669834483696,1409,HRV,HRV_0230,2022-11-30 18:59:45
4,"[{'imgObject': {}, 'id': 'turkey sandwich', 'src': '/static/foodstim60/turkey sandwich.jpg', 'key': 'u', 'origWidth': 409, 'origHeight': 409, 'width': 409, 'height': 409, 'widthPercent': 0.45, 'rescaleHeight': False, 'trialN': 4, 'loaded': True, 'loadedTime': 4354.5999999940395, 'positionName': 'LEFT', 'positionCoords': [282.2, 245.5], 'bid': 0}, {'imgObject': {}, 'id': 'burger', 'src': '/static/foodstim60/burger.jpg', 'key': 'i', 'origWidth': 409, 'origHeight': 409, 'width': 409, 'height': 409, 'widthPercent': 0.45, 'rescaleHeight': False, 'trialN': 4, 'loaded': True, 'loadedTime': 4682.0999999940395, 'positionName': 'RIGHT', 'positionCoords': [748.8, 245.5], 'bid': 0}]",14684.699999988079,1669834483697,turkey sandwich,burger,0.0,0.0,0.0,turkey sandwich,1264.5999999940395,1266,1265.7000000178814,True,u,16463.79999998212,1779.0999999940395,1669834485476,1779,HRV,HRV_0230,2022-11-30 18:59:45
5,"[{'imgObject': {}, 'id': 'cheerios', 'src': '/static/foodstim60/cheerios.jpg', 'key': 'u', 'origWidth': 409, 'origHeight': 410, 'width': 409, 'height': 410, 'widthPercent': 0.45, 'rescaleHeight': False, 'trialN': 5, 'loaded': True, 'loadedTime': 4707.0999999940395, 'positionName': 'LEFT', 'positionCoords': [282.2, 245], 'bid': 0.13}, {'imgObject': {}, 'id': 'bagel and cc', 'src': '/static/foodstim60/bagel and cc.jpg', 'key': 'i', 'origWidth': 410, 'origHeight': 410, 'width': 410, 'height': 410, 'widthPercent': 0.45, 'rescaleHeight': False, 'trialN': 5, 'loaded': True, 'loadedTime': 4843.0999999940395, 'positionName': 'RIGHT', 'positionCoords': [748.8, 245], 'bid': 0.01}]",16465.0,1669834485477,cheerios,bagel and cc,0.13,0.01,-0.12000000000000001,bagel and cc,1276.5999999940395,1278,1277.5999999940395,True,i,18255.40000000596,1790.4000000059605,1669834487268,1791,HRV,HRV_0230,2022-11-30 18:59:45
6,"[{'imgObject': {}, 'id': 'sweetpotato', 'src': '/static/foodstim60/sweetpotato.jpg', 'key': 'u', 'origWidth': 410, 'origHeight': 410, 'width': 410, 'height': 410, 'widthPercent': 0.45, 'rescaleHeight': False, 'trialN': 6, 'loaded': True, 'loadedTime': 4904.799999982119, 'positionName': 'LEFT', 'positionCoords': [281.2, 245], 'bid': 9.05}, {'imgObject': {}, 'id': 'sushi w_condiments', 'src': '/static/foodstim60/sushi w_condiments.jpg', 'key': 'i', 'origWidth': 410, 'origHeight': 410, 'width': 410, 'height': 410, 'widthPercent': 0.45, 'rescaleHeight': False, 'trialN': 6, 'loaded': True, 'loadedTime': 4912, 'positionName': 'RIGHT', 'positionCoords': [748.8, 245], 'bid': 10}]",18255.79999998212,1669834487268,sweetpotato,sushi w_condiments,9.05,10.0,0.9499999999999993,sushi w_condiments,933.4000000059605,935,934.8000000119209,True,i,19703.79999998212,1448.0,1669834488716,1448,HRV,HRV_0230,2022-11-30 18:59:45
7,"[{'imgObject': {}, 'id': 'turkey sandwich', 'src': '/static/foodstim60/turkey sandwich.jpg', 'key': 'u', 'origWidth': 409, 'origHeight': 409, 'width': 409, 'height': 409, 'widthPercent': 0.45, 'rescaleHeight': False, 'trialN': 7, 'loaded': True, 'loadedTime': 4361.699999988079, 'positionName': 'LEFT', 'positionCoords': [282.2, 245.5], 'bid': 0}, {'imgObject': {}, 'id': 'burrito', 'src': '/static/foodstim60/burrito.jpg', 'key': 'i', 'origWidth': 410, 'origHeight': 410, 'width': 410, 'height': 410, 'widthPercent': 0.45, 'rescaleHeight': False, 'trialN': 7, 'loaded': True, 'loadedTime': 4987.0999999940395, 'positionName': 'RIGHT', 'positionCoords': [748.8, 245], 'bid': 0.06}]",19704.40000000596,1669834488717,turkey sandwich,burrito,0.0,0.06,0.06,turkey sandwich,772.6999999880791,773,773.6999999880791,True,u,20989.09999999404,1284.699999988079,1669834490001,1284,HRV,HRV_0230,2022-11-30 18:59:45
8,"[{'imgObject': {}, 'id': 'salmon', 'src': '/static/foodstim60/salmon.jpg', 'key': 'u', 'origWidth': 410, 'origHeight': 409, 'width': 410, 'height': 409, 'widthPercent': 0.45, 'rescaleHeight': False, 'trialN': 8, 'loaded': True, 'loadedTime': 5117.799999982119, 'positionName': 'LEFT', 'positionCoords': [281.2, 245.5], 'bid': 8.26}, {'imgObject': {}, 'id': 'kiwi', 'src': '/static/foodstim60/kiwi.jpg', 'key': 'i', 'origWidth': 410, 'origHeight': 410, 'width': 410, 'height': 410, 'widthPercent': 0.45, 'rescaleHeight': False, 'trialN': 8, 'loaded': True, 'loadedTime': 5172.199999988079, 'positionName': 'RIGHT', 'positionCoords': [748.8, 245], 'bid': 7.87}]",20989.69999998808,1669834490002,salmon,kiwi,8.26,7.87,-0.3899999999999997,salmon,928.2000000178814,929,929.0999999940395,True,u,22425.59999999404,1435.9000000059605,1669834491438,1436,HRV,HRV_0230,2022-11-30 18:59:45
9,"[{'imgObject': {}, 'id': 'strawberries', 'src': '/static/foodstim60/strawberries.jpg', 'key': 'u', 'origWidth': 410, 'origHeight': 410, 'width': 410, 'height': 410, 'widthPercent': 0.45, 'rescaleHeight': False, 'trialN': 9, 'loaded': True, 'loadedTime': 5308.699999988079, 'positionName': 'LEFT', 'positionCoords': [281.2, 245], 'bid': 7.91}, {'imgObject': {}, 'id': 'grilled chicken strips', 'src': '/static/foodstim60/grilled chicken strips.jpg', 'key': 'i', 'origWidth': 410, 'origHeight': 411, 'width': 410, 'height': 411, 'widthPercent': 0.45, 'rescaleHeight': False, 'trialN': 9, 'loaded': True, 'loadedTime': 5364.299999982119, 'positionName': 'RIGHT', 'positionCoords': [748.8, 244.5], 'bid': 9.23}]",22426.0,1669834491438,strawberries,grilled chicken strips,7.91,9.23,1.3200000000000003,grilled chicken strips,924.0999999940395,927,927.1999999880791,True,i,23864.19999998808,1438.199999988079,1669834492876,1438,HRV,HRV_0230,2022-11-30 18:59:45
10,"[{'imgObject': {}, 'id': 'baked potato', 'src': '/static/foodstim60/baked potato.jpg', 'key': 'u', 'origWidth': 409, 'origHeight': 410, 'width': 409, 'height': 410, 'widthPercent': 0.45, 'rescaleHeight': False, 'trialN': 10, 'loaded': True, 'loadedTime': 5557.799999982119, 'positionName': 'LEFT', 'positionCoords': [282.2, 245], 'bid': 6.68}, {'imgObject': {}, 'id': 'sweetpotato', 'src': '/static/foodstim60/sweetpotato.jpg', 'key': 'i', 'origWidth': 410, 'origHeight': 410, 'width': 410, 'height': 410, 'widthPercent': 0.45, 'rescaleHeight': False, 'trialN': 10, 'loaded': True, 'loadedTime': 4895.5, 'positionName': 'RIGHT', 'positionCoords': [748.8, 245], 'bid': 9.05}]",23864.79999998212,1669834492877,baked potato,sweetpotato,6.68,9.05,2.370000000000001,sweetpotato,933.4000000059605,938,938.3000000119209,True,i,25313.29999998212,1448.5,1669834494325,1448,HRV,HRV_0230,2022-11-30 18:59:45
11,"[{'imgObject': {}, 'id': 'rigatoni and sauce', 'src': '/static/foodstim60/rigatoni and sauce.jpg', 'key': 'u', 'origWidth': 410, 'origHeight': 411, 'width': 410, 'height': 411, 'widthPercent': 0.45, 'rescaleHeight': False, 'trialN': 11, 'loaded': True, 'loadedTime': 5584.299999982119, 'positionName': 'LEFT', 'positionCoords': [281.2, 244.5], 'bid': 0}, {'imgObject': {}, 'id': 'granola w milk', 'src': '/static/foodstim60/granola w milk.jpg', 'key': 'i', 'origWidth': 410, 'origHeight': 410, 'width': 410, 'height': 410, 'widthPercent': 0.45, 'rescaleHeight': False, 'trialN': 11, 'loaded': True, 'loadedTime': 5733.799999982119, 'positionName': 'RIGHT', 'positionCoords': [748.8, 245], 'bid': 0}]",25314.29999998212,1669834494326,rigatoni and sauce,granola w milk,0.0,0.0,0.0,granola w milk,884.0,887,886.4000000059605,True,i,26718.69999998808,1404.4000000059605,1669834495731,1405,HRV,HRV_0230,2022-11-30 18:59:45
12,"[{'imgObject': {}, 'id': 'cocktailshrimp', 'src': '/static/foodstim60/cocktailshrimp.jpg', 'key': 'u', 'origWidth': 410, 'origHeight': 410, 'width': 410, 'height': 410, 'widthPercent': 0.45, 'rescaleHeight': False, 'trialN': 12, 'loaded': True, 'loadedTime': 5737.199999988079, 'positionName': 'LEFT', 'positionCoords': [281.2, 245], 'bid': 8.69}, {'imgObject': {}, 'id': 'seaweed', 'src': '/static/foodstim60/seaweed.jpg', 'key': 'i', 'origWidth': 410, 'origHeight': 410, 'width': 410, 'height': 410, 'widthPercent': 0.45, 'rescaleHeight': False, 'trialN': 12, 'loaded': True, 'loadedTime': 5751.799999982119, 'positionName': 'RIGHT', 'positionCoords': [748.8, 245], 'bid': 9.97}]",26719.40000000596,1669834495732,cocktailshrimp,seaweed,8.69,9.97,1.2800000000000011,seaweed,853.7999999821186,854,854.6999999880791,True,i,28087.29999998212,1367.8999999761581,1669834497099,1367,HRV,HRV_0230,2022-11-30 18:59:45
13,"[{'imgObject': {}, 'id': 'eggsalad', 'src': '/static/foodstim60/eggsalad.jpg', 'key': 'u', 'origWidth': 410, 'origHeight': 409, 'width': 410, 'height': 409, 'widthPercent': 0.45, 'rescaleHeight': False, 'trialN': 13, 'loaded': True, 'loadedTime': 6075.5999999940395, 'positionName': 'LEFT', 'positionCoords': [281.2, 245.5], 'bid': 8.86}, {'imgObject': {}, 'id': 'omelette', 'src': '/static/foodstim60/omelette.jpg', 'key': 'i', 'origWidth': 410, 'origHeight': 409, 'width': 410, 'height': 409, 'widthPercent': 0.45, 'rescaleHeight': False, 'trialN': 13, 'loaded': True, 'loadedTime': 5758.5, 'positionName': 'RIGHT', 'positionCoords': [748.8, 245.5], 'bid': 8.56}]",28087.79999998212,1669834497100,eggsalad,omelette,8.86,8.56,-0.29999999999999893,omelette,1086.1000000238419,1090,1089.7000000178814,True,i,29681.90000000596,1594.1000000238419,1669834498694,1594,HRV,HRV_0230,2022-11-30 18:59:45
14,"[{'imgObject': {}, 'id': 'hotdog w must', 'src': '/static/foodstim60/hotdog w must.jpg', 'key': 'u', 'origWidth': 409, 'origHeight': 409, 'width': 409, 'height': 409, 'widthPercent': 0.45, 'rescaleHeight': False, 'trialN': 14, 'loaded': True, 'loadedTime': 5356.5999999940395, 'positionName': 'LEFT', 'positionCoords': [282.2, 245.5], 'bid': 0}, {'imgObject': {}, 'id': 'granola w milk', 'src': '/static/foodstim60/granola w milk.jpg', 'key': 'i', 'origWidth': 410, 'origHeight': 410, 'width': 410, 'height': 410, 'widthPercent': 0.45, 'rescaleHeight': False, 'trialN': 14, 'loaded': True, 'loadedTime': 5734.0999999940395, 'positionName': 'RIGHT', 'positionCoords': [748.8, 245], 'bid': 0}]",29682.90000000596,1669834498695,hotdog w must,granola w milk,0.0,0.0,0.0,hotdog w must,1042.3999999761581,1043,1043.2999999821186,True,u,31233.69999998808,1550.7999999821186,1669834500246,1551,HRV,HRV_0230,2022-11-30 18:59:45
15,"[{'imgObject': {}, 'id': 'banana', 'src': '/static/foodstim60/banana.jpg', 'key': 'u', 'origWidth': 410, 'origHeight': 410, 'width': 410, 'height': 410, 'widthPercent': 0.45, 'rescaleHeight': False, 'trialN': 15, 'loaded': True, 'loadedTime': 6078.0999999940395, 'positionName': 'LEFT', 'positionCoords': [281.2, 245], 'bid': 4.98}, {'imgObject': {}, 'id': 'Tribe humus pita', 'src': '/static/foodstim60/Tribe humus pita.jpg', 'key': 'i', 'origWidth': 411, 'origHeight': 411, 'width': 411, 'height': 411, 'widthPercent': 0.45, 'rescaleHeight': False, 'trialN': 15, 'loaded': True, 'loadedTime': 6080.799999982119, 'positionName': 'RIGHT', 'positionCoords': [748.8, 244.5], 'bid': 7}]",31234.09999999404,1669834500246,banana,Tribe humus pita,4.98,7.0,2.0199999999999996,banana,1091.699999988079,1093,1092.5999999940395,True,u,32845.19999998808,1611.0999999940395,1669834501857,1611,HRV,HRV_0230,2022-11-30 18:59:45
16,"[{'imgObject': {}, 'id': 'rigatoni', 'src': '/static/foodstim60/rigatoni.jpg', 'key': 'u', 'origWidth': 411, 'origHeight': 411, 'width': 411, 'height': 411, 'widthPercent': 0.45, 'rescaleHeight': False, 'trialN': 16, 'loaded': True, 'loadedTime': 6093, 'positionName': 'LEFT', 'positionCoords': [280.2, 244.5], 'bid': 0}, {'imgObject': {}, 'id': 'ice cream sundae 002', 'src': '/static/foodstim60/ice cream sundae 002.jpg', 'key': 'i', 'origWidth': 409, 'origHeight': 409, 'width': 409, 'height': 409, 'widthPercent': 0.45, 'rescaleHeight': False, 'trialN': 16, 'loaded': True, 'loadedTime': 6099.5, 'positionName': 'RIGHT', 'positionCoords': [748.8, 245.5], 'bid': 0.06}]",32846.09999999404,1669834501858,rigatoni,ice cream sundae 002,0.0,0.06,0.06,rigatoni,991.9000000059605,994,993.9000000059605,True,u,34348.90000000596,1502.800000011921,1669834503361,1503,HRV,HRV_0230,2022-11-30 18:59:45
17,"[{'imgObject': {}, 'id': 'hotdog w must', 'src': '/static/foodstim60/hotdog w must.jpg', 'key': 'u', 'origWidth': 409, 'origHeight': 409, 'width': 409, 'height': 409, 'widthPercent': 0.45, 'rescaleHeight': False, 'trialN': 17, 'loaded': True, 'loadedTime': 5335.4000000059605, 'positionName': 'LEFT', 'positionCoords': [282.2, 245.5], 'bid': 0}, {'imgObject': {}, 'id': 'raisin bran w milk', 'src': '/static/foodstim60/raisin bran w milk.jpg', 'key': 'i', 'origWidth': 411, 'origHeight': 411, 'width': 411, 'height': 411, 'widthPercent': 0.45, 'rescaleHeight': False, 'trialN': 17, 'loaded': True, 'loadedTime': 6110.5999999940395, 'positionName': 'RIGHT', 'positionCoords': [748.8, 244.5], 'bid': 0}]",34349.90000000596,1669834503362,hotdog w must,raisin bran w milk,0.0,0.0,0.0,hotdog w must,1063.699999988079,1065,1064.5,True,u,35919.0,1569.0999999940395,1669834504931,1569,HRV,HRV_0230,2022-11-30 18:59:45
18,"[{'imgObject': {}, 'id': 'chickenfingers', 'src': '/static/foodstim60/chickenfingers.jpg', 'key': 'u', 'origWidth': 410, 'origHeight': 410, 'width': 410, 'height': 410, 'widthPercent': 0.45, 'rescaleHeight': False, 'trialN': 18, 'loaded': True, 'loadedTime': 4251.699999988079, 'positionName': 'LEFT', 'positionCoords': [281.2, 245], 'bid': 9.13}, {'imgObject': {}, 'id': 'blackbeanswithrice', 'src': '/static/foodstim60/blackbeanswithrice.jpg', 'key': 'i', 'origWidth': 410, 'origHeight': 410, 'width': 410, 'height': 410, 'widthPercent': 0.45, 'rescaleHeight': False, 'trialN': 18, 'loaded': True, 'loadedTime': 4253.5999999940395, 'positionName': 'RIGHT', 'positionCoords': [748.8, 245], 'bid': 9.11}]",35919.59999999404,1669834504932,chickenfingers,blackbeanswithrice,9.13,9.11,-0.02000000000000135,chickenfingers,1270.800000011921,1272,1272.699999988079,True,u,37706.19999998808,1786.5999999940395,1669834506718,1786,HRV,HRV_0230,2022-11-30 18:59:45
19,"[{'imgObject': {}, 'id': 'edamame', 'src': '/static/foodstim60/edamame.jpg', 'key': 'u', 'origWidth': 409, 'origHeight': 410, 'width': 409, 'height': 410, 'widthPercent': 0.45, 'rescaleHeight': False, 'trialN': 19, 'loaded': True, 'loadedTime': 4387.9000000059605, 'positionName': 'LEFT', 'positionCoords': [282.2, 245], 'bid': 0.15}, {'imgObject': {}, 'id': 'shreddedwheatwithmilk', 'src': '/static/foodstim60/shreddedwheatwithmilk.jpg', 'key': 'i', 'origWidth': 410, 'origHeight': 410, 'width': 410, 'height': 410, 'widthPercent': 0.45, 'rescaleHeight': False, 'trialN': 19, 'loaded': True, 'loadedTime': 6111.0999999940395, 'positionName': 'RIGHT', 'positionCoords': [748.8, 245], 'bid': 0.02}]",37706.40000000596,1669834506719,edamame,shreddedwheatwithmilk,0.15,0.02,-0.13,shreddedwheatwithmilk,898.6999999880791,900,900.2999999821186,True,i,39123.0,1416.5999999940395,1669834508135,1416,HRV,HRV_0230,2022-11-30 18:59:45
20,"[{'imgObject': {}, 'id': 'cocktailshrimp', 'src': '/static/foodstim60/cocktailshrimp.jpg', 'key': 'u', 'origWidth': 410, 'origHeight': 410, 'width': 410, 'height': 410, 'widthPercent': 0.45, 'rescaleHeight': False, 'trialN': 20, 'loaded': True, 'loadedTime': 5739.4000000059605, 'positionName': 'LEFT', 'positionCoords': [281.2, 245], 'bid': 8.69}, {'imgObject': {}, 'id': 'mango', 'src': '/static/foodstim60/mango.jpg', 'key': 'i', 'origWidth': 411, 'origHeight': 411, 'width': 411, 'height': 411, 'widthPercent': 0.45, 'rescaleHeight': False, 'trialN': 20, 'loaded': True, 'loadedTime': 6220.5999999940395, 'positionName': 'RIGHT', 'positionCoords': [748.8, 244.5], 'bid': 8.52}]",39123.59999999404,1669834508136,cocktailshrimp,mango,8.69,8.52,-0.16999999999999993,mango,1465.699999988079,1466,1466.5999999940395,True,i,41094.90000000596,1971.300000011921,1669834510107,1971,HRV,HRV_0230,2022-11-30 18:59:45
21,"[{'imgObject': {}, 'id': 'veggieswithdip', 'src': '/static/foodstim60/veggieswithdip.jpg', 'key': 'u', 'origWidth': 409, 'origHeight': 409, 'width': 409, 'height': 409, 'widthPercent': 0.45, 'rescaleHeight': False, 'trialN': 21, 'loaded': True, 'loadedTime': 6380.5999999940395, 'positionName': 'LEFT', 'positionCoords': [282.2, 245.5], 'bid': 6.66}, {'imgObject': {}, 'id': 'orange slices', 'src': '/static/foodstim60/orange slices.jpg', 'key': 'i', 'origWidth': 409, 'origHeight': 410, 'width': 409, 'height': 410, 'widthPercent': 0.45, 'rescaleHeight': False, 'trialN': 21, 'loaded': True, 'loadedTime': 6407.699999988079, 'positionName': 'RIGHT', 'positionCoords': [748.8, 245], 'bid': 6.5200000000000005}]",41095.40000000596,1669834510108,veggieswithdip,orange slices,6.66,6.5200000000000005,-0.13999999999999968,orange slices,1703.699999988079,1701,1705.5,True,i,43312.79999998212,2217.399999976158,1669834512321,2213,HRV,HRV_0230,2022-11-30 18:59:45
22,"[{'imgObject': {}, 'id': 'cocktailshrimp', 'src': '/static/foodstim60/cocktailshrimp.jpg', 'key': 'u', 'origWidth': 410, 'origHeight': 410, 'width': 410, 'height': 410, 'widthPercent': 0.45, 'rescaleHeight': False, 'trialN': 22, 'loaded': True, 'loadedTime': 5745.0999999940395, 'positionName': 'LEFT', 'positionCoords': [281.2, 245], 'bid': 8.69}, {'imgObject': {}, 'id': 'tacos', 'src': '/static/foodstim60/tacos.jpg', 'key': 'i', 'origWidth': 411, 'origHeight': 411, 'width': 411, 'height': 411, 'widthPercent': 0.45, 'rescaleHeight': False, 'trialN': 22, 'loaded': True, 'loadedTime': 4039.7999999821186, 'positionName': 'RIGHT', 'positionCoords': [748.8, 244.5], 'bid': 6.41}]",43313.19999998808,1669834512322,cocktailshrimp,tacos,8.69,6.41,-2.2799999999999994,cocktailshrimp,1012.2000000178814,1013,1013.0999999940395,True,u,44838.79999998212,1525.5999999940395,1669834513847,1525,HRV,HRV_0230,2022-11-30 18:59:45
23,"[{'imgObject': {}, 'id': 'mac & cheese', 'src': '/static/foodstim60/mac & cheese.jpg', 'key': 'u', 'origWidth': 410, 'origHeight': 410, 'width': 410, 'height': 410, 'widthPercent': 0.45, 'rescaleHeight': False, 'trialN': 23, 'loaded': True, 'loadedTime': 4103.799999982119, 'positionName': 'LEFT', 'positionCoords': [281.2, 245], 'bid': 0.88}, {'imgObject': {}, 'id': 'chickenfingers', 'src': '/static/foodstim60/chickenfingers.jpg', 'key': 'i', 'origWidth': 410, 'origHeight': 410, 'width': 410, 'height': 410, 'widthPercent': 0.45, 'rescaleHeight': False, 'trialN': 23, 'loaded': True, 'loadedTime': 4244.799999982119, 'positionName': 'RIGHT', 'positionCoords': [748.8, 245], 'bid': 9.13}]",44839.69999998808,1669834513848,mac & cheese,chickenfingers,0.88,9.13,8.25,chickenfingers,982.5,985,984.4000000059605,True,i,46333.19999998808,1493.5,1669834515342,1494,HRV,HRV_0230,2022-11-30 18:59:45
24,"[{'imgObject': {}, 'id': 'olives', 'src': '/static/foodstim60/olives.jpg', 'key': 'u', 'origWidth': 410, 'origHeight': 410, 'width': 410, 'height': 410, 'widthPercent': 0.45, 'rescaleHeight': False, 'trialN': 24, 'loaded': True, 'loadedTime': 6551.4000000059605, 'positionName': 'LEFT', 'positionCoords': [281.2, 245], 'bid': 9.77}, {'imgObject': {}, 'id': 'eggs', 'src': '/static/foodstim60/eggs.jpg', 'key': 'i', 'origWidth': 409, 'origHeight': 409, 'width': 409, 'height': 409, 'widthPercent': 0.45, 'rescaleHeight': False, 'trialN': 24, 'loaded': True, 'loadedTime': 6629.799999982119, 'positionName': 'RIGHT', 'positionCoords': [748.8, 245.5], 'bid': 9.02}]",46334.09999999404,1669834515343,olives,eggs,9.77,9.02,-0.75,eggs,1439.0999999940395,1442,1442.5,True,i,48282.79999998212,1948.699999988079,1669834517291,1948,HRV,HRV_0230,2022-11-30 18:59:45
25,"[{'imgObject': {}, 'id': 'raspberries', 'src': '/static/foodstim60/raspberries.jpg', 'key': 'u', 'origWidth': 411, 'origHeight': 411, 'width': 411, 'height': 411, 'widthPercent': 0.45, 'rescaleHeight': False, 'trialN': 25, 'loaded': True, 'loadedTime': 6646.299999982119, 'positionName': 'LEFT', 'positionCoords': [280.2, 244.5], 'bid': 5.93}, {'imgObject': {}, 'id': 'Grapes', 'src': '/static/foodstim60/Grapes.jpg', 'key': 'i', 'origWidth': 411, 'origHeight': 411, 'width': 411, 'height': 411, 'widthPercent': 0.45, 'rescaleHeight': False, 'trialN': 25, 'loaded': True, 'loadedTime': 6983.0999999940395, 'positionName': 'RIGHT', 'positionCoords': [748.8, 244.5], 'bid': 6.41}]",48283.59999999404,1669834517292,raspberries,Grapes,5.93,6.41,0.4800000000000004,Grapes,1089.5999999940395,1091,1090.5999999940395,True,i,49893.29999998212,1609.699999988079,1669834518902,1610,HRV,HRV_0230,2022-11-30 18:59:45
26,"[{'imgObject': {}, 'id': 'corn cob', 'src': '/static/foodstim60/corn cob.jpg', 'key': 'u', 'origWidth': 411, 'origHeight': 411, 'width': 411, 'height': 411, 'widthPercent': 0.45, 'rescaleHeight': False, 'trialN': 26, 'loaded': True, 'loadedTime': 7030.9000000059605, 'positionName': 'LEFT', 'positionCoords': [280.2, 244.5], 'bid': 5.34}, {'imgObject': {}, 'id': 'seaweed', 'src': '/static/foodstim60/seaweed.jpg', 'key': 'i', 'origWidth': 410, 'origHeight': 410, 'width': 410, 'height': 410, 'widthPercent': 0.45, 'rescaleHeight': False, 'trialN': 26, 'loaded': True, 'loadedTime': 5750.299999982119, 'positionName': 'RIGHT', 'positionCoords': [748.8, 245], 'bid': 9.97}]",49893.69999998808,1669834518902,corn cob,seaweed,5.34,9.97,4.630000000000001,seaweed,999.4000000059605,1001,1000.4000000059605,True,i,51413.19999998808,1519.5,1669834520422,1520,HRV,HRV_0230,2022-11-30 18:59:45
27,"[{'imgObject': {}, 'id': 'shreddedwheatwithmilk', 'src': '/static/foodstim60/shreddedwheatwithmilk.jpg', 'key': 'u', 'origWidth': 410, 'origHeight': 410, 'width': 410, 'height': 410, 'widthPercent': 0.45, 'rescaleHeight': False, 'trialN': 27, 'loaded': True, 'loadedTime': 6113, 'positionName': 'LEFT', 'positionCoords': [281.2, 245], 'bid': 0.02}, {'imgObject': {}, 'id': 'bagel and cc', 'src': '/static/foodstim60/bagel and cc.jpg', 'key': 'i', 'origWidth': 410, 'origHeight': 410, 'width': 410, 'height': 410, 'widthPercent': 0.45, 'rescaleHeight': False, 'trialN': 27, 'loaded': True, 'loadedTime': 4853.9000000059605, 'positionName': 'RIGHT', 'positionCoords': [748.8, 245], 'bid': 0.01}]",51413.40000000596,1669834520422,shreddedwheatwithmilk,bagel and cc,0.02,0.01,-0.01,shreddedwheatwithmilk,1144.7999999821186,1147,1147.5,True,u,53073.0,1659.5999999940395,1669834522081,1659,HRV,HRV_0230,2022-11-30 18:59:45
28,"[{'imgObject': {}, 'id': 'froot loops w milk', 'src': '/static/foodstim60/froot loops w milk.jpg', 'key': 'u', 'origWidth': 410, 'origHeight': 410, 'width': 410, 'height': 410, 'widthPercent': 0.45, 'rescaleHeight': False, 'trialN': 28, 'loaded': True, 'loadedTime': 7181.699999988079, 'positionName': 'LEFT', 'positionCoords': [281.2, 245], 'bid': 0}, {'imgObject': {}, 'id': 'mashed potato', 'src': '/static/foodstim60/mashed potato.jpg', 'key': 'i', 'origWidth': 409, 'origHeight': 409, 'width': 409, 'height': 409, 'widthPercent': 0.45, 'rescaleHeight': False, 'trialN': 28, 'loaded': True, 'loadedTime': 7706.5999999940395, 'positionName': 'RIGHT', 'positionCoords': [748.8, 245.5], 'bid': 0.11}]",53075.19999998808,1669834522084,froot loops w milk,mashed potato,0.0,0.11,0.11,mashed potato,980.8000000119209,983,983.2000000178814,True,i,54571.69999998808,1496.5,1669834523580,1496,HRV,HRV_0230,2022-11-30 18:59:45
29,"[{'imgObject': {}, 'id': 'burger', 'src': '/static/foodstim60/burger.jpg', 'key': 'u', 'origWidth': 409, 'origHeight': 409, 'width': 409, 'height': 409, 'widthPercent': 0.45, 'rescaleHeight': False, 'trialN': 29, 'loaded': True, 'loadedTime': 4615, 'positionName': 'LEFT', 'positionCoords': [282.2, 245.5], 'bid': 0}, {'imgObject': {}, 'id': 'mac & cheese', 'src': '/static/foodstim60/mac & cheese.jpg', 'key': 'i', 'origWidth': 410, 'origHeight': 410, 'width': 410, 'height': 410, 'widthPercent': 0.45, 'rescaleHeight': False, 'trialN': 29, 'loaded': True, 'loadedTime': 4136, 'positionName': 'RIGHT', 'positionCoords': [748.8, 245], 'bid': 0.88}]",54572.19999998808,1669834523581,burger,mac & cheese,0.0,0.88,0.88,mac & cheese,1073.5,1074,1074.4000000059605,True,i,56155.40000000596,1583.2000000178814,1669834525164,1583,HRV,HRV_0230,2022-11-30 18:59:45
30,"[{'imgObject': {}, 'id': 'froot loops w milk', 'src': '/static/foodstim60/froot loops w milk.jpg', 'key': 'u', 'origWidth': 410, 'origHeight': 410, 'width': 410, 'height': 410, 'widthPercent': 0.45, 'rescaleHeight': False, 'trialN': 30, 'loaded': True, 'loadedTime': 7152.4000000059605, 'positionName': 'LEFT', 'positionCoords': [281.2, 245], 'bid': 0}, {'imgObject': {}, 'id': 'rigatoni', 'src': '/static/foodstim60/rigatoni.jpg', 'key': 'i', 'origWidth': 411, 'origHeight': 411, 'width': 411, 'height': 411, 'widthPercent': 0.45, 'rescaleHeight': False, 'trialN': 30, 'loaded': True, 'loadedTime': 6096.5, 'positionName': 'RIGHT', 'positionCoords': [748.8, 244.5], 'bid': 0}]",56156.19999998808,1669834525165,froot loops w milk,rigatoni,0.0,0.0,0.0,froot loops w milk,1226.5999999940395,1229,1229.0,True,u,57893.5,1737.300000011921,1669834526902,1737,HRV,HRV_0230,2022-11-30 18:59:45
31,"[{'imgObject': {}, 'id': 'eggsalad', 'src': '/static/foodstim60/eggsalad.jpg', 'key': 'u', 'origWidth': 410, 'origHeight': 409, 'width': 410, 'height': 409, 'widthPercent': 0.45, 'rescaleHeight': False, 'trialN': 31, 'loaded': True, 'loadedTime': 6074.5999999940395, 'positionName': 'LEFT', 'positionCoords': [281.2, 245.5], 'bid': 8.86}, {'imgObject': {}, 'id': 'kiwi', 'src': '/static/foodstim60/kiwi.jpg', 'key': 'i', 'origWidth': 410, 'origHeight': 410, 'width': 410, 'height': 410, 'widthPercent': 0.45, 'rescaleHeight': False, 'trialN': 31, 'loaded': True, 'loadedTime': 5172.5999999940395, 'positionName': 'RIGHT', 'positionCoords': [748.8, 245], 'bid': 7.87}]",57894.59999999404,1669834526903,eggsalad,kiwi,8.86,7.87,-0.9899999999999993,eggsalad,1175.699999988079,1178,1177.699999988079,True,u,59578.90000000596,1684.300000011921,1669834528587,1684,HRV,HRV_0230,2022-11-30 18:59:45
32,"[{'imgObject': {}, 'id': 'mashed potato', 'src': '/static/foodstim60/mashed potato.jpg', 'key': 'u', 'origWidth': 409, 'origHeight': 409, 'width': 409, 'height': 409, 'widthPercent': 0.45, 'rescaleHeight': False, 'trialN': 32, 'loaded': True, 'loadedTime': 7575.799999982119, 'positionName': 'LEFT', 'positionCoords': [282.2, 245.5], 'bid': 0.11}, {'imgObject': {}, 'id': 'eggsalad', 'src': '/static/foodstim60/eggsalad.jpg', 'key': 'i', 'origWidth': 410, 'origHeight': 409, 'width': 410, 'height': 409, 'widthPercent': 0.45, 'rescaleHeight': False, 'trialN': 32, 'loaded': True, 'loadedTime': 5767.799999982119, 'positionName': 'RIGHT', 'positionCoords': [748.8, 245.5], 'bid': 8.86}]",59579.90000000596,1669834528588,mashed potato,eggsalad,0.11,8.86,8.75,eggsalad,1170.3999999761581,1173,1172.2999999821186,True,i,61265.59999999404,1685.699999988079,1669834530274,1686,HRV,HRV_0230,2022-11-30 18:59:45
33,"[{'imgObject': {}, 'id': 'omelette', 'src': '/static/foodstim60/omelette.jpg', 'key': 'u', 'origWidth': 410, 'origHeight': 409, 'width': 410, 'height': 409, 'widthPercent': 0.45, 'rescaleHeight': False, 'trialN': 33, 'loaded': True, 'loadedTime': 5762.299999982119, 'positionName': 'LEFT', 'positionCoords': [281.2, 245.5], 'bid': 8.56}, {'imgObject': {}, 'id': 'mango', 'src': '/static/foodstim60/mango.jpg', 'key': 'i', 'origWidth': 411, 'origHeight': 411, 'width': 411, 'height': 411, 'widthPercent': 0.45, 'rescaleHeight': False, 'trialN': 33, 'loaded': True, 'loadedTime': 6221, 'positionName': 'RIGHT', 'positionCoords': [748.8, 244.5], 'bid': 8.52}]",61266.40000000596,1669834530275,omelette,mango,8.56,8.52,-0.040000000000000924,omelette,1034.7999999821186,1036,1035.7999999821186,True,u,62818.59999999404,1552.199999988079,1669834531827,1552,HRV,HRV_0230,2022-11-30 18:59:45
34,"[{'imgObject': {}, 'id': 'granola w milk', 'src': '/static/foodstim60/granola w milk.jpg', 'key': 'u', 'origWidth': 410, 'origHeight': 410, 'width': 410, 'height': 410, 'widthPercent': 0.45, 'rescaleHeight': False, 'trialN': 34, 'loaded': True, 'loadedTime': 5723.699999988079, 'positionName': 'LEFT', 'positionCoords': [281.2, 245], 'bid': 0}, {'imgObject': {}, 'id': 'tacos', 'src': '/static/foodstim60/tacos.jpg', 'key': 'i', 'origWidth': 411, 'origHeight': 411, 'width': 411, 'height': 411, 'widthPercent': 0.45, 'rescaleHeight': False, 'trialN': 34, 'loaded': True, 'loadedTime': 3813.4000000059605, 'positionName': 'RIGHT', 'positionCoords': [748.8, 244.5], 'bid': 6.41}]",62818.79999998212,1669834531827,granola w milk,tacos,0.0,6.41,6.41,tacos,923.6000000238419,927,926.5,True,i,64253.09999999404,1434.300000011921,1669834533262,1435,HRV,HRV_0230,2022-11-30 18:59:45
35,"[{'imgObject': {}, 'id': 'froot loops w milk', 'src': '/static/foodstim60/froot loops w milk.jpg', 'key': 'u', 'origWidth': 410, 'origHeight': 410, 'width': 410, 'height': 410, 'widthPercent': 0.45, 'rescaleHeight': False, 'trialN': 35, 'loaded': True, 'loadedTime': 7070.799999982119, 'positionName': 'LEFT', 'positionCoords': [281.2, 245], 'bid': 0}, {'imgObject': {}, 'id': 'granola w milk', 'src': '/static/foodstim60/granola w milk.jpg', 'key': 'i', 'origWidth': 410, 'origHeight': 410, 'width': 410, 'height': 410, 'widthPercent': 0.45, 'rescaleHeight': False, 'trialN': 35, 'loaded': True, 'loadedTime': 5729, 'positionName': 'RIGHT', 'positionCoords': [748.8, 245], 'bid': 0}]",64253.5,1669834533262,froot loops w milk,granola w milk,0.0,0.0,0.0,granola w milk,978.6999999880791,983,982.6999999880791,True,i,65745.5,1492.0,1669834534754,1492,HRV,HRV_0230,2022-11-30 18:59:45
36,"[{'imgObject': {}, 'id': 'tacos', 'src': '/static/foodstim60/tacos.jpg', 'key': 'u', 'origWidth': 411, 'origHeight': 411, 'width': 411, 'height': 411, 'widthPercent': 0.45, 'rescaleHeight': False, 'trialN': 36, 'loaded': True, 'loadedTime': 3813.7999999821186, 'positionName': 'LEFT', 'positionCoords': [280.2, 244.5], 'bid': 6.41}, {'imgObject': {}, 'id': 'Grapes', 'src': '/static/foodstim60/Grapes.jpg', 'key': 'i', 'origWidth': 411, 'origHeight': 411, 'width': 411, 'height': 411, 'widthPercent': 0.45, 'rescaleHeight': False, 'trialN': 36, 'loaded': True, 'loadedTime': 6985.0999999940395, 'positionName': 'RIGHT', 'positionCoords': [748.8, 244.5], 'bid': 6.41}]",65746.0,1669834534754,tacos,Grapes,6.41,6.41,0.0,Grapes,1020.5,1025,1024.2999999821186,True,i,67279.09999999404,1533.0999999940395,1669834536288,1534,HRV,HRV_0230,2022-11-30 18:59:45
37,"[{'imgObject': {}, 'id': 'hashbrowns', 'src': '/static/foodstim60/hashbrowns.jpg', 'key': 'u', 'origWidth': 411, 'origHeight': 410, 'width': 411, 'height': 410, 'widthPercent': 0.45, 'rescaleHeight': False, 'trialN': 37, 'loaded': True, 'loadedTime': 7706.9000000059605, 'positionName': 'LEFT', 'positionCoords': [280.2, 245], 'bid': 0}, {'imgObject': {}, 'id': 'fried eggs', 'src': '/static/foodstim60/fried eggs.jpg', 'key': 'i', 'origWidth': 410, 'origHeight': 410, 'width': 410, 'height': 410, 'widthPercent': 0.45, 'rescaleHeight': False, 'trialN': 37, 'loaded': True, 'loadedTime': 7720.0999999940395, 'positionName': 'RIGHT', 'positionCoords': [748.8, 245], 'bid': 4.97}]",67279.90000000596,1669834536288,hashbrowns,fried eggs,0.0,4.97,4.97,fried eggs,821.3999999761581,823,822.8999999761581,True,i,68614.29999998212,1334.3999999761581,1669834537623,1335,HRV,HRV_0230,2022-11-30 18:59:45
38,"[{'imgObject': {}, 'id': 'kiwi', 'src': '/static/foodstim60/kiwi.jpg', 'key': 'u', 'origWidth': 410, 'origHeight': 410, 'width': 410, 'height': 410, 'widthPercent': 0.45, 'rescaleHeight': False, 'trialN': 38, 'loaded': True, 'loadedTime': 5162.5999999940395, 'positionName': 'LEFT', 'positionCoords': [281.2, 245], 'bid': 7.87}, {'imgObject': {}, 'id': 'pear', 'src': '/static/foodstim60/pear.jpg', 'key': 'i', 'origWidth': 411, 'origHeight': 410, 'width': 411, 'height': 410, 'widthPercent': 0.45, 'rescaleHeight': False, 'trialN': 38, 'loaded': True, 'loadedTime': 7720.699999988079, 'positionName': 'RIGHT', 'positionCoords': [748.8, 245], 'bid': 7.79}]",68614.69999998808,1669834537623,kiwi,pear,7.87,7.79,-0.08000000000000007,kiwi,1015.5999999940395,1018,1018.0999999940395,True,u,70149.40000000596,1534.7000000178814,1669834539158,1535,HRV,HRV_0230,2022-11-30 18:59:45
39,"[{'imgObject': {}, 'id': 'luckycharms', 'src': '/static/foodstim60/luckycharms.jpg', 'key': 'u', 'origWidth': 410, 'origHeight': 409, 'width': 410, 'height': 409, 'widthPercent': 0.45, 'rescaleHeight': False, 'trialN': 39, 'loaded': True, 'loadedTime': 7725.799999982119, 'positionName': 'LEFT', 'positionCoords': [281.2, 245.5], 'bid': 0.09}, {'imgObject': {}, 'id': 'cocktailshrimp', 'src': '/static/foodstim60/cocktailshrimp.jpg', 'key': 'i', 'origWidth': 410, 'origHeight': 410, 'width': 410, 'height': 410, 'widthPercent': 0.45, 'rescaleHeight': False, 'trialN': 39, 'loaded': True, 'loadedTime': 5744, 'positionName': 'RIGHT', 'positionCoords': [748.8, 245], 'bid': 8.69}]",70149.90000000596,1669834539158,luckycharms,cocktailshrimp,0.09,8.69,8.6,cocktailshrimp,831.1999999880791,832,832.0,True,i,71494.09999999404,1344.199999988079,1669834540503,1345,HRV,HRV_0230,2022-11-30 18:59:45
40,"[{'imgObject': {}, 'id': 'rigatoni and sauce', 'src': '/static/foodstim60/rigatoni and sauce.jpg', 'key': 'u', 'origWidth': 410, 'origHeight': 411, 'width': 410, 'height': 411, 'widthPercent': 0.45, 'rescaleHeight': False, 'trialN': 40, 'loaded': True, 'loadedTime': 5720.5999999940395, 'positionName': 'LEFT', 'positionCoords': [281.2, 244.5], 'bid': 0}, {'imgObject': {}, 'id': 'raisin bran w milk', 'src': '/static/foodstim60/raisin bran w milk.jpg', 'key': 'i', 'origWidth': 411, 'origHeight': 411, 'width': 411, 'height': 411, 'widthPercent': 0.45, 'rescaleHeight': False, 'trialN': 40, 'loaded': True, 'loadedTime': 6103.5, 'positionName': 'RIGHT', 'positionCoords': [748.8, 244.5], 'bid': 0}]",71494.59999999404,1669834540503,rigatoni and sauce,raisin bran w milk,0.0,0.0,0.0,raisin bran w milk,934.6999999880791,936,935.5999999940395,True,i,72954.79999998212,1460.199999988079,1669834541963,1460,HRV,HRV_0230,2022-11-30 18:59:45
41,"[{'imgObject': {}, 'id': 'cherries', 'src': '/static/foodstim60/cherries.jpg', 'key': 'u', 'origWidth': 410, 'origHeight': 411, 'width': 410, 'height': 411, 'widthPercent': 0.45, 'rescaleHeight': False, 'trialN': 41, 'loaded': True, 'loadedTime': 4207.799999982119, 'positionName': 'LEFT', 'positionCoords': [281.2, 244.5], 'bid': 7.13}, {'imgObject': {}, 'id': 'strawberries', 'src': '/static/foodstim60/strawberries.jpg', 'key': 'i', 'origWidth': 410, 'origHeight': 410, 'width': 410, 'height': 410, 'widthPercent': 0.45, 'rescaleHeight': False, 'trialN': 41, 'loaded': True, 'loadedTime': 5314.199999988079, 'positionName': 'RIGHT', 'positionCoords': [748.8, 245], 'bid': 7.91}]",72955.0,1669834541964,cherries,strawberries,7.13,7.91,0.7800000000000002,cherries,866.4000000059605,867,867.2999999821186,True,u,74340.19999998808,1385.199999988079,1669834543349,1385,HRV,HRV_0230,2022-11-30 18:59:45
42,"[{'imgObject': {}, 'id': 'Grapes', 'src': '/static/foodstim60/Grapes.jpg', 'key': 'u', 'origWidth': 411, 'origHeight': 411, 'width': 411, 'height': 411, 'widthPercent': 0.45, 'rescaleHeight': False, 'trialN': 42, 'loaded': True, 'loadedTime': 6997.299999982119, 'positionName': 'LEFT', 'positionCoords': [280.2, 244.5], 'bid': 6.41}, {'imgObject': {}, 'id': 'bagel plain', 'src': '/static/foodstim60/bagel plain.jpg', 'key': 'i', 'origWidth': 410, 'origHeight': 410, 'width': 410, 'height': 410, 'widthPercent': 0.45, 'rescaleHeight': False, 'trialN': 42, 'loaded': True, 'loadedTime': 4345.5999999940395, 'positionName': 'RIGHT', 'positionCoords': [748.8, 245], 'bid': 0.27}]",74341.09999999404,1669834543350,Grapes,bagel plain,6.41,0.27,-6.140000000000001,Grapes,962.5999999940395,966,966.5999999940395,True,u,75826.59999999404,1485.5,1669834544835,1485,HRV,HRV_0230,2022-11-30 18:59:45
43,"[{'imgObject': {}, 'id': 'omelette', 'src': '/static/foodstim60/omelette.jpg', 'key': 'u', 'origWidth': 410, 'origHeight': 409, 'width': 410, 'height': 409, 'widthPercent': 0.45, 'rescaleHeight': False, 'trialN': 43, 'loaded': True, 'loadedTime': 5761.0999999940395, 'positionName': 'LEFT', 'positionCoords': [281.2, 245.5], 'bid': 8.56}, {'imgObject': {}, 'id': 'steak', 'src': '/static/foodstim60/steak.jpg', 'key': 'i', 'origWidth': 410, 'origHeight': 410, 'width': 410, 'height': 410, 'widthPercent': 0.45, 'rescaleHeight': False, 'trialN': 43, 'loaded': True, 'loadedTime': 8172.0999999940395, 'positionName': 'RIGHT', 'positionCoords': [748.8, 245], 'bid': 9.93}]",75827.40000000596,1669834544836,omelette,steak,8.56,9.93,1.3699999999999992,steak,962.8999999761581,965,964.7999999821186,True,i,77299.90000000596,1472.5,1669834546308,1472,HRV,HRV_0230,2022-11-30 18:59:45
44,"[{'imgObject': {}, 'id': 'cherry tomato', 'src': '/static/foodstim60/cherry tomato.jpg', 'key': 'u', 'origWidth': 410, 'origHeight': 410, 'width': 410, 'height': 410, 'widthPercent': 0.45, 'rescaleHeight': False, 'trialN': 44, 'loaded': True, 'loadedTime': 8199.09999999404, 'positionName': 'LEFT', 'positionCoords': [281.2, 245], 'bid': 0}, {'imgObject': {}, 'id': 'mashed potato', 'src': '/static/foodstim60/mashed potato.jpg', 'key': 'i', 'origWidth': 409, 'origHeight': 409, 'width': 409, 'height': 409, 'widthPercent': 0.45, 'rescaleHeight': False, 'trialN': 44, 'loaded': True, 'loadedTime': 7704.0999999940395, 'positionName': 'RIGHT', 'positionCoords': [748.8, 245.5], 'bid': 0.11}]",77300.40000000596,1669834546309,cherry tomato,mashed potato,0.0,0.11,0.11,mashed potato,905.5,908,907.5999999940395,True,i,78713.29999998212,1412.8999999761581,1669834547722,1413,HRV,HRV_0230,2022-11-30 18:59:45
45,"[{'imgObject': {}, 'id': 'popsicles', 'src': '/static/foodstim60/popsicles.jpg', 'key': 'u', 'origWidth': 410, 'origHeight': 410, 'width': 410, 'height': 410, 'widthPercent': 0.45, 'rescaleHeight': False, 'trialN': 45, 'loaded': True, 'loadedTime': 8507.699999988079, 'positionName': 'LEFT', 'positionCoords': [281.2, 245], 'bid': 5.83}, {'imgObject': {}, 'id': 'veggieswithdip', 'src': '/static/foodstim60/veggieswithdip.jpg', 'key': 'i', 'origWidth': 409, 'origHeight': 409, 'width': 409, 'height': 409, 'widthPercent': 0.45, 'rescaleHeight': False, 'trialN': 45, 'loaded': True, 'loadedTime': 6382.299999982119, 'positionName': 'RIGHT', 'positionCoords': [748.8, 245.5], 'bid': 6.66}]",78713.5,1669834547722,popsicles,veggieswithdip,5.83,6.66,0.8300000000000001,veggieswithdip,1140.9000000059605,1143,1142.699999988079,True,i,80368.29999998212,1654.7999999821186,1669834549377,1655,HRV,HRV_0230,2022-11-30 18:59:45
46,"[{'imgObject': {}, 'id': 'strawberries', 'src': '/static/foodstim60/strawberries.jpg', 'key': 'u', 'origWidth': 410, 'origHeight': 410, 'width': 410, 'height': 410, 'widthPercent': 0.45, 'rescaleHeight': False, 'trialN': 46, 'loaded': True, 'loadedTime': 5176.5, 'positionName': 'LEFT', 'positionCoords': [281.2, 245], 'bid': 7.91}, {'imgObject': {}, 'id': 'bagel and cc', 'src': '/static/foodstim60/bagel and cc.jpg', 'key': 'i', 'origWidth': 410, 'origHeight': 410, 'width': 410, 'height': 410, 'widthPercent': 0.45, 'rescaleHeight': False, 'trialN': 46, 'loaded': True, 'loadedTime': 4873.5, 'positionName': 'RIGHT', 'positionCoords': [748.8, 245], 'bid': 0.01}]",80368.69999998808,1669834549377,strawberries,bagel and cc,7.91,0.01,-7.9,strawberries,877.5,881,880.8000000119209,True,u,81755.59999999404,1386.9000000059605,1669834550764,1387,HRV,HRV_0230,2022-11-30 18:59:45
47,"[{'imgObject': {}, 'id': 'mashed potato', 'src': '/static/foodstim60/mashed potato.jpg', 'key': 'u', 'origWidth': 409, 'origHeight': 409, 'width': 409, 'height': 409, 'widthPercent': 0.45, 'rescaleHeight': False, 'trialN': 47, 'loaded': True, 'loadedTime': 7456.199999988079, 'positionName': 'LEFT', 'positionCoords': [282.2, 245.5], 'bid': 0.11}, {'imgObject': {}, 'id': 'edamame', 'src': '/static/foodstim60/edamame.jpg', 'key': 'i', 'origWidth': 409, 'origHeight': 410, 'width': 409, 'height': 410, 'widthPercent': 0.45, 'rescaleHeight': False, 'trialN': 47, 'loaded': True, 'loadedTime': 4588.5999999940395, 'positionName': 'RIGHT', 'positionCoords': [748.8, 245], 'bid': 0.15}]",81756.5,1669834550765,mashed potato,edamame,0.11,0.15,0.039999999999999994,mashed potato,857.7999999821186,860,859.9000000059605,True,u,83124.0,1367.5,1669834552133,1368,HRV,HRV_0230,2022-11-30 18:59:45
48,"[{'imgObject': {}, 'id': 'apple slices', 'src': '/static/foodstim60/apple slices.jpg', 'key': 'u', 'origWidth': 409, 'origHeight': 410, 'width': 409, 'height': 410, 'widthPercent': 0.45, 'rescaleHeight': False, 'trialN': 48, 'loaded': True, 'loadedTime': 8209.699999988079, 'positionName': 'LEFT', 'positionCoords': [282.2, 245], 'bid': 7.55}, {'imgObject': {}, 'id': 'fruitsalad', 'src': '/static/foodstim60/fruitsalad.jpg', 'key': 'i', 'origWidth': 410, 'origHeight': 410, 'width': 410, 'height': 410, 'widthPercent': 0.45, 'rescaleHeight': False, 'trialN': 48, 'loaded': True, 'loadedTime': 8292, 'positionName': 'RIGHT', 'positionCoords': [748.8, 245], 'bid': 7.25}]",83124.79999998212,1669834552133,apple slices,fruitsalad,7.55,7.25,-0.2999999999999998,fruitsalad,872.9000000059605,874,873.8000000119209,True,i,84507.69999998808,1382.9000000059605,1669834553516,1383,HRV,HRV_0230,2022-11-30 18:59:45
49,"[{'imgObject': {}, 'id': 'ice cream sundae 002', 'src': '/static/foodstim60/ice cream sundae 002.jpg', 'key': 'u', 'origWidth': 409, 'origHeight': 409, 'width': 409, 'height': 409, 'widthPercent': 0.45, 'rescaleHeight': False, 'trialN': 49, 'loaded': True, 'loadedTime': 6100.4000000059605, 'positionName': 'LEFT', 'positionCoords': [282.2, 245.5], 'bid': 0.06}, {'imgObject': {}, 'id': 'shreddedwheatwithmilk', 'src': '/static/foodstim60/shreddedwheatwithmilk.jpg', 'key': 'i', 'origWidth': 410, 'origHeight': 410, 'width': 410, 'height': 410, 'widthPercent': 0.45, 'rescaleHeight': False, 'trialN': 49, 'loaded': True, 'loadedTime': 6115.199999988079, 'positionName': 'RIGHT', 'positionCoords': [748.8, 245], 'bid': 0.02}]",84508.19999998808,1669834553517,ice cream sundae 002,shreddedwheatwithmilk,0.06,0.02,-0.039999999999999994,ice cream sundae 002,947.4000000059605,949,949.3000000119209,True,u,85969.40000000596,1461.2000000178814,1669834554978,1461,HRV,HRV_0230,2022-11-30 18:59:45
50,"[{'imgObject': {}, 'id': 'salad w chicken', 'src': '/static/foodstim60/salad w chicken.jpg', 'key': 'u', 'origWidth': 411, 'origHeight': 411, 'width': 411, 'height': 411, 'widthPercent': 0.45, 'rescaleHeight': False, 'trialN': 50, 'loaded': True, 'loadedTime': 8295.59999999404, 'positionName': 'LEFT', 'positionCoords': [280.2, 244.5], 'bid': 10}, {'imgObject': {}, 'id': 'sushi w_condiments', 'src': '/static/foodstim60/sushi w_condiments.jpg', 'key': 'i', 'origWidth': 410, 'origHeight': 410, 'width': 410, 'height': 410, 'widthPercent': 0.45, 'rescaleHeight': False, 'trialN': 50, 'loaded': True, 'loadedTime': 4907.199999988079, 'positionName': 'RIGHT', 'positionCoords': [748.8, 245], 'bid': 10}]",85970.29999998212,1669834554979,salad w chicken,sushi w_condiments,10.0,10.0,0.0,sushi w_condiments,819.9000000059605,822,822.0,True,i,87299.79999998212,1329.5,1669834556308,1329,HRV,HRV_0230,2022-11-30 18:59:45
51,"[{'imgObject': {}, 'id': 'omelette', 'src': '/static/foodstim60/omelette.jpg', 'key': 'u', 'origWidth': 410, 'origHeight': 409, 'width': 410, 'height': 409, 'widthPercent': 0.45, 'rescaleHeight': False, 'trialN': 51, 'loaded': True, 'loadedTime': 5759.9000000059605, 'positionName': 'LEFT', 'positionCoords': [281.2, 245.5], 'bid': 8.56}, {'imgObject': {}, 'id': 'Grapes', 'src': '/static/foodstim60/Grapes.jpg', 'key': 'i', 'origWidth': 411, 'origHeight': 411, 'width': 411, 'height': 411, 'widthPercent': 0.45, 'rescaleHeight': False, 'trialN': 51, 'loaded': True, 'loadedTime': 6987, 'positionName': 'RIGHT', 'positionCoords': [748.8, 244.5], 'bid': 6.41}]",87300.29999998212,1669834556309,omelette,Grapes,8.56,6.41,-2.1500000000000004,omelette,889.9000000059605,892,892.0,True,u,88701.5,1401.2000000178814,1669834557710,1401,HRV,HRV_0230,2022-11-30 18:59:45
52,"[{'imgObject': {}, 'id': 'raisin bran w milk', 'src': '/static/foodstim60/raisin bran w milk.jpg', 'key': 'u', 'origWidth': 411, 'origHeight': 411, 'width': 411, 'height': 411, 'widthPercent': 0.45, 'rescaleHeight': False, 'trialN': 52, 'loaded': True, 'loadedTime': 6105.699999988079, 'positionName': 'LEFT', 'positionCoords': [280.2, 244.5], 'bid': 0}, {'imgObject': {}, 'id': 'turkey sandwich', 'src': '/static/foodstim60/turkey sandwich.jpg', 'key': 'i', 'origWidth': 409, 'origHeight': 409, 'width': 409, 'height': 409, 'widthPercent': 0.45, 'rescaleHeight': False, 'trialN': 52, 'loaded': True, 'loadedTime': 4364.799999982119, 'positionName': 'RIGHT', 'positionCoords': [748.8, 245.5], 'bid': 0}]",88702.40000000596,1669834557711,raisin bran w milk,turkey sandwich,0.0,0.0,0.0,turkey sandwich,871.7999999821186,874,873.7999999821186,True,i,90087.40000000596,1385.0,1669834559096,1385,HRV,HRV_0230,2022-11-30 18:59:45
53,"[{'imgObject': {}, 'id': 'apple slices', 'src': '/static/foodstim60/apple slices.jpg', 'key': 'u', 'origWidth': 409, 'origHeight': 410, 'width': 409, 'height': 410, 'widthPercent': 0.45, 'rescaleHeight': False, 'trialN': 53, 'loaded': True, 'loadedTime': 8209.299999982119, 'positionName': 'LEFT', 'positionCoords': [282.2, 245], 'bid': 7.55}, {'imgObject': {}, 'id': 'olives', 'src': '/static/foodstim60/olives.jpg', 'key': 'i', 'origWidth': 410, 'origHeight': 410, 'width': 410, 'height': 410, 'widthPercent': 0.45, 'rescaleHeight': False, 'trialN': 53, 'loaded': True, 'loadedTime': 6548.4000000059605, 'positionName': 'RIGHT', 'positionCoords': [748.8, 245], 'bid': 9.77}]",90087.90000000596,1669834559096,apple slices,olives,7.55,9.77,2.2199999999999998,apple slices,1062.3999999761581,1068,1068.0,True,u,91673.69999998808,1585.7999999821186,1669834560682,1586,HRV,HRV_0230,2022-11-30 18:59:45
54,"[{'imgObject': {}, 'id': 'banana', 'src': '/static/foodstim60/banana.jpg', 'key': 'u', 'origWidth': 410, 'origHeight': 410, 'width': 410, 'height': 410, 'widthPercent': 0.45, 'rescaleHeight': False, 'trialN': 54, 'loaded': True, 'loadedTime': 6077.299999982119, 'positionName': 'LEFT', 'positionCoords': [281.2, 245], 'bid': 4.98}, {'imgObject': {}, 'id': 'raisin bran w milk', 'src': '/static/foodstim60/raisin bran w milk.jpg', 'key': 'i', 'origWidth': 411, 'origHeight': 411, 'width': 411, 'height': 411, 'widthPercent': 0.45, 'rescaleHeight': False, 'trialN': 54, 'loaded': True, 'loadedTime': 6110.799999982119, 'positionName': 'RIGHT', 'positionCoords': [748.8, 244.5], 'bid': 0}]",91674.19999998808,1669834560683,banana,raisin bran w milk,4.98,0.0,-4.98,banana,908.2000000178814,910,910.0999999940395,True,u,93093.90000000596,1419.7000000178814,1669834562102,1419,HRV,HRV_0230,2022-11-30 18:59:45
55,"[{'imgObject': {}, 'id': 'tacos', 'src': '/static/foodstim60/tacos.jpg', 'key': 'u', 'origWidth': 411, 'origHeight': 411, 'width': 411, 'height': 411, 'widthPercent': 0.45, 'rescaleHeight': False, 'trialN': 55, 'loaded': True, 'loadedTime': 3812.699999988079, 'positionName': 'LEFT', 'positionCoords': [280.2, 244.5], 'bid': 6.41}, {'imgObject': {}, 'id': 'chicken nuggets2', 'src': '/static/foodstim60/chicken nuggets2.jpg', 'key': 'i', 'origWidth': 410, 'origHeight': 409, 'width': 410, 'height': 409, 'widthPercent': 0.45, 'rescaleHeight': False, 'trialN': 55, 'loaded': True, 'loadedTime': 8319.90000000596, 'positionName': 'RIGHT', 'positionCoords': [748.8, 245.5], 'bid': 6.25}]",93094.19999998808,1669834562103,tacos,chicken nuggets2,6.41,6.25,-0.16000000000000014,chicken nuggets2,1031.7000000178814,1034,1033.800000011921,True,i,94642.5,1548.300000011921,1669834563651,1548,HRV,HRV_0230,2022-11-30 18:59:45
56,"[{'imgObject': {}, 'id': 'sushi w_condiments', 'src': '/static/foodstim60/sushi w_condiments.jpg', 'key': 'u', 'origWidth': 410, 'origHeight': 410, 'width': 410, 'height': 410, 'widthPercent': 0.45, 'rescaleHeight': False, 'trialN': 56, 'loaded': True, 'loadedTime': 4921.5, 'positionName': 'LEFT', 'positionCoords': [281.2, 245], 'bid': 10}, {'imgObject': {}, 'id': 'chicken nuggets2', 'src': '/static/foodstim60/chicken nuggets2.jpg', 'key': 'i', 'origWidth': 410, 'origHeight': 409, 'width': 410, 'height': 409, 'widthPercent': 0.45, 'rescaleHeight': False, 'trialN': 56, 'loaded': True, 'loadedTime': 8330.699999988079, 'positionName': 'RIGHT', 'positionCoords': [748.8, 245.5], 'bid': 6.25}]",94642.90000000596,1669834563651,sushi w_condiments,chicken nuggets2,10.0,6.25,-3.75,sushi w_condiments,706.8999999761581,708,708.0,True,u,95861.90000000596,1219.0,1669834564870,1219,HRV,HRV_0230,2022-11-30 18:59:45
57,"[{'imgObject': {}, 'id': 'orange slices', 'src': '/static/foodstim60/orange slices.jpg', 'key': 'u', 'origWidth': 409, 'origHeight': 410, 'width': 409, 'height': 410, 'widthPercent': 0.45, 'rescaleHeight': False, 'trialN': 57, 'loaded': True, 'loadedTime': 6408, 'positionName': 'LEFT', 'positionCoords': [282.2, 245], 'bid': 6.5200000000000005}, {'imgObject': {}, 'id': 'eggsalad', 'src': '/static/foodstim60/eggsalad.jpg', 'key': 'i', 'origWidth': 410, 'origHeight': 409, 'width': 410, 'height': 409, 'widthPercent': 0.45, 'rescaleHeight': False, 'trialN': 57, 'loaded': True, 'loadedTime': 6073.5, 'positionName': 'RIGHT', 'positionCoords': [748.8, 245.5], 'bid': 8.86}]",95862.79999998212,1669834564871,orange slices,eggsalad,6.5200000000000005,8.86,2.339999999999999,eggsalad,1288.7000000178814,1291,1290.7000000178814,True,i,97666.29999998212,1803.5,1669834566675,1804,HRV,HRV_0230,2022-11-30 18:59:45
58,"[{'imgObject': {}, 'id': 'Tribe humus pita', 'src': '/static/foodstim60/Tribe humus pita.jpg', 'key': 'u', 'origWidth': 411, 'origHeight': 411, 'width': 411, 'height': 411, 'widthPercent': 0.45, 'rescaleHeight': False, 'trialN': 58, 'loaded': True, 'loadedTime': 6090.5999999940395, 'positionName': 'LEFT', 'positionCoords': [280.2, 244.5], 'bid': 7}, {'imgObject': {}, 'id': 'blackbeanswithrice', 'src': '/static/foodstim60/blackbeanswithrice.jpg', 'key': 'i', 'origWidth': 410, 'origHeight': 410, 'width': 410, 'height': 410, 'widthPercent': 0.45, 'rescaleHeight': False, 'trialN': 58, 'loaded': True, 'loadedTime': 4338, 'positionName': 'RIGHT', 'positionCoords': [748.8, 245], 'bid': 9.11}]",97667.29999998212,1669834566676,Tribe humus pita,blackbeanswithrice,7.0,9.11,2.1099999999999994,blackbeanswithrice,1147.0,1149,1149.0,True,i,99321.0,1653.7000000178814,1669834568330,1654,HRV,HRV_0230,2022-11-30 18:59:45
59,"[{'imgObject': {}, 'id': 'Tribe humus pita', 'src': '/static/foodstim60/Tribe humus pita.jpg', 'key': 'u', 'origWidth': 411, 'origHeight': 411, 'width': 411, 'height': 411, 'widthPercent': 0.45, 'rescaleHeight': False, 'trialN': 59, 'loaded': True, 'loadedTime': 6090.799999982119, 'positionName': 'LEFT', 'positionCoords': [280.2, 244.5], 'bid': 7}, {'imgObject': {}, 'id': 'veggieswithdip', 'src': '/static/foodstim60/veggieswithdip.jpg', 'key': 'i', 'origWidth': 409, 'origHeight': 409, 'width': 409, 'height': 409, 'widthPercent': 0.45, 'rescaleHeight': False, 'trialN': 59, 'loaded': True, 'loadedTime': 6379.5, 'positionName': 'RIGHT', 'positionCoords': [748.8, 245.5], 'bid': 6.66}]",99322.0,1669834568331,Tribe humus pita,veggieswithdip,7.0,6.66,-0.33999999999999986,veggieswithdip,1211.2999999821186,1212,1212.4000000059605,True,i,101041.19999998808,1719.199999988079,1669834570050,1719,HRV,HRV_0230,2022-11-30 18:59:45
60,"[{'imgObject': {}, 'id': 'cherry tomato', 'src': '/static/foodstim60/cherry tomato.jpg', 'key': 'u', 'origWidth': 410, 'origHeight': 410, 'width': 410, 'height': 410, 'widthPercent': 0.45, 'rescaleHeight': False, 'trialN': 60, 'loaded': True, 'loadedTime': 8173.799999982119, 'positionName': 'LEFT', 'positionCoords': [281.2, 245], 'bid': 0}, {'imgObject': {}, 'id': 'rigatoni and sauce', 'src': '/static/foodstim60/rigatoni and sauce.jpg', 'key': 'i', 'origWidth': 410, 'origHeight': 411, 'width': 410, 'height': 411, 'widthPercent': 0.45, 'rescaleHeight': False, 'trialN': 60, 'loaded': True, 'loadedTime': 5571.5999999940395, 'positionName': 'RIGHT', 'positionCoords': [748.8, 244.5], 'bid': 0}]",101043.19999998808,1669834570052,cherry tomato,rigatoni and sauce,0.0,0.0,0.0,rigatoni and sauce,1114.4000000059605,1115,1115.5,True,i,102663.0,1619.800000011921,1669834571672,1620,HRV,HRV_0230,2022-11-30 18:59:45
61,"[{'imgObject': {}, 'id': 'burrito', 'src': '/static/foodstim60/burrito.jpg', 'key': 'u', 'origWidth': 410, 'origHeight': 410, 'width': 410, 'height': 410, 'widthPercent': 0.45, 'rescaleHeight': False, 'trialN': 61, 'loaded': True, 'loadedTime': 4925.199999988079, 'positionName': 'LEFT', 'positionCoords': [281.2, 245], 'bid': 0.06}, {'imgObject': {}, 'id': 'chicken nuggets2', 'src': '/static/foodstim60/chicken nuggets2.jpg', 'key': 'i', 'origWidth': 410, 'origHeight': 409, 'width': 410, 'height': 409, 'widthPercent': 0.45, 'rescaleHeight': False, 'trialN': 61, 'loaded': True, 'loadedTime': 8331, 'positionName': 'RIGHT', 'positionCoords': [748.8, 245.5], 'bid': 6.25}]",102664.0,1669834571672,burrito,chicken nuggets2,0.06,6.25,6.19,chicken nuggets2,1110.199999988079,1120,1112.199999988079,True,i,104290.09999999404,1626.0999999940395,1669834573306,1634,HRV,HRV_0230,2022-11-30 18:59:45
62,"[{'imgObject': {}, 'id': 'apple slices', 'src': '/static/foodstim60/apple slices.jpg', 'key': 'u', 'origWidth': 409, 'origHeight': 410, 'width': 409, 'height': 410, 'widthPercent': 0.45, 'rescaleHeight': False, 'trialN': 62, 'loaded': True, 'loadedTime': 8211.199999988079, 'positionName': 'LEFT', 'positionCoords': [282.2, 245], 'bid': 7.55}, {'imgObject': {}, 'id': 'chicken nuggets2', 'src': '/static/foodstim60/chicken nuggets2.jpg', 'key': 'i', 'origWidth': 410, 'origHeight': 409, 'width': 410, 'height': 409, 'widthPercent': 0.45, 'rescaleHeight': False, 'trialN': 62, 'loaded': True, 'loadedTime': 8329.799999982119, 'positionName': 'RIGHT', 'positionCoords': [748.8, 245.5], 'bid': 6.25}]",104290.5,1669834573306,apple slices,chicken nuggets2,7.55,6.25,-1.2999999999999998,apple slices,915.7999999821186,918,917.7999999821186,True,u,105712.79999998212,1422.2999999821186,1669834574728,1422,HRV,HRV_0230,2022-11-30 18:59:45
63,"[{'imgObject': {}, 'id': 'blueberries', 'src': '/static/foodstim60/blueberries.jpg', 'key': 'u', 'origWidth': 411, 'origHeight': 411, 'width': 411, 'height': 411, 'widthPercent': 0.45, 'rescaleHeight': False, 'trialN': 63, 'loaded': True, 'loadedTime': 8335.5, 'positionName': 'LEFT', 'positionCoords': [280.2, 244.5], 'bid': 7.52}, {'imgObject': {}, 'id': 'mango', 'src': '/static/foodstim60/mango.jpg', 'key': 'i', 'origWidth': 411, 'origHeight': 411, 'width': 411, 'height': 411, 'widthPercent': 0.45, 'rescaleHeight': False, 'trialN': 63, 'loaded': True, 'loadedTime': 6231.5999999940395, 'positionName': 'RIGHT', 'positionCoords': [748.8, 244.5], 'bid': 8.52}]",105713.19999998808,1669834574729,blueberries,mango,7.52,8.52,1.0,blueberries,1308.0999999940395,1309,1309.0999999940395,True,u,107534.19999998808,1821.0,1669834576550,1821,HRV,HRV_0230,2022-11-30 18:59:45
64,"[{'imgObject': {}, 'id': 'turkeysandwich', 'src': '/static/foodstim60/turkeysandwich.jpg', 'key': 'u', 'origWidth': 409, 'origHeight': 409, 'width': 409, 'height': 409, 'widthPercent': 0.45, 'rescaleHeight': False, 'trialN': 64, 'loaded': True, 'loadedTime': 8372.90000000596, 'positionName': 'LEFT', 'positionCoords': [282.2, 245.5], 'bid': 0}, {'imgObject': {}, 'id': 'cheerios', 'src': '/static/foodstim60/cheerios.jpg', 'key': 'i', 'origWidth': 409, 'origHeight': 410, 'width': 409, 'height': 410, 'widthPercent': 0.45, 'rescaleHeight': False, 'trialN': 64, 'loaded': True, 'loadedTime': 4740.5, 'positionName': 'RIGHT', 'positionCoords': [748.8, 245], 'bid': 0.13}]",107535.09999999404,1669834576551,turkeysandwich,cheerios,0.0,0.13,0.13,turkeysandwich,1328.5,1330,1330.4000000059605,True,u,109381.29999998212,1846.199999988079,1669834578397,1846,HRV,HRV_0230,2022-11-30 18:59:45
65,"[{'imgObject': {}, 'id': 'blueberries', 'src': '/static/foodstim60/blueberries.jpg', 'key': 'u', 'origWidth': 411, 'origHeight': 411, 'width': 411, 'height': 411, 'widthPercent': 0.45, 'rescaleHeight': False, 'trialN': 65, 'loaded': True, 'loadedTime': 8334.799999982119, 'positionName': 'LEFT', 'positionCoords': [280.2, 244.5], 'bid': 7.52}, {'imgObject': {}, 'id': 'avocado', 'src': '/static/foodstim60/avocado.jpg', 'key': 'i', 'origWidth': 409, 'origHeight': 409, 'width': 409, 'height': 409, 'widthPercent': 0.45, 'rescaleHeight': False, 'trialN': 65, 'loaded': True, 'loadedTime': 8379.59999999404, 'positionName': 'RIGHT', 'positionCoords': [748.8, 245.5], 'bid': 9.75}]",109382.09999999404,1669834578398,blueberries,avocado,7.52,9.75,2.2300000000000004,avocado,1024.199999988079,1027,1027.699999988079,True,i,110918.0,1535.9000000059605,1669834579934,1536,HRV,HRV_0230,2022-11-30 18:59:45
66,"[{'imgObject': {}, 'id': 'sushi w_condiments', 'src': '/static/foodstim60/sushi w_condiments.jpg', 'key': 'u', 'origWidth': 410, 'origHeight': 410, 'width': 410, 'height': 410, 'widthPercent': 0.45, 'rescaleHeight': False, 'trialN': 66, 'loaded': True, 'loadedTime': 4919.699999988079, 'positionName': 'LEFT', 'positionCoords': [281.2, 245], 'bid': 10}, {'imgObject': {}, 'id': 'avocado', 'src': '/static/foodstim60/avocado.jpg', 'key': 'i', 'origWidth': 409, 'origHeight': 409, 'width': 409, 'height': 409, 'widthPercent': 0.45, 'rescaleHeight': False, 'trialN': 66, 'loaded': True, 'loadedTime': 8380.299999982119, 'positionName': 'RIGHT', 'positionCoords': [748.8, 245.5], 'bid': 9.75}]",110918.29999998212,1669834579934,sushi w_condiments,avocado,10.0,9.75,-0.25,sushi w_condiments,903.9000000059605,906,906.4000000059605,True,u,112331.40000000596,1413.1000000238419,1669834581347,1413,HRV,HRV_0230,2022-11-30 18:59:45
67,"[{'imgObject': {}, 'id': 'steak', 'src': '/static/foodstim60/steak.jpg', 'key': 'u', 'origWidth': 410, 'origHeight': 410, 'width': 410, 'height': 410, 'widthPercent': 0.45, 'rescaleHeight': False, 'trialN': 67, 'loaded': True, 'loadedTime': 8173.5, 'positionName': 'LEFT', 'positionCoords': [281.2, 245], 'bid': 9.93}, {'imgObject': {}, 'id': 'olives', 'src': '/static/foodstim60/olives.jpg', 'key': 'i', 'origWidth': 410, 'origHeight': 410, 'width': 410, 'height': 410, 'widthPercent': 0.45, 'rescaleHeight': False, 'trialN': 67, 'loaded': True, 'loadedTime': 6595, 'positionName': 'RIGHT', 'positionCoords': [748.8, 245], 'bid': 9.77}]",112331.79999998212,1669834581347,steak,olives,9.93,9.77,-0.16000000000000014,steak,922.5,925,924.8000000119209,True,u,113765.40000000596,1433.6000000238419,1669834582781,1434,HRV,HRV_0230,2022-11-30 18:59:45
68,"[{'imgObject': {}, 'id': 'cherries', 'src': '/static/foodstim60/cherries.jpg', 'key': 'u', 'origWidth': 410, 'origHeight': 411, 'width': 410, 'height': 411, 'widthPercent': 0.45, 'rescaleHeight': False, 'trialN': 68, 'loaded': True, 'loadedTime': 4220.4000000059605, 'positionName': 'LEFT', 'positionCoords': [281.2, 244.5], 'bid': 7.13}, {'imgObject': {}, 'id': 'fruitsalad', 'src': '/static/foodstim60/fruitsalad.jpg', 'key': 'i', 'origWidth': 410, 'origHeight': 410, 'width': 410, 'height': 410, 'widthPercent': 0.45, 'rescaleHeight': False, 'trialN': 68, 'loaded': True, 'loadedTime': 8294.799999982119, 'positionName': 'RIGHT', 'positionCoords': [748.8, 245], 'bid': 7.25}]",113765.90000000596,1669834582781,cherries,fruitsalad,7.13,7.25,0.1200000000000001,cherries,1343.2999999821186,1346,1345.199999988079,True,u,115620.69999998808,1854.7999999821186,1669834584636,1855,HRV,HRV_0230,2022-11-30 18:59:45
69,"[{'imgObject': {}, 'id': 'turkey sandwich', 'src': '/static/foodstim60/turkey sandwich.jpg', 'key': 'u', 'origWidth': 409, 'origHeight': 409, 'width': 409, 'height': 409, 'widthPercent': 0.45, 'rescaleHeight': False, 'trialN': 69, 'loaded': True, 'loadedTime': 4369.799999982119, 'positionName': 'LEFT', 'positionCoords': [282.2, 245.5], 'bid': 0}, {'imgObject': {}, 'id': 'baked potato', 'src': '/static/foodstim60/baked potato.jpg', 'key': 'i', 'origWidth': 409, 'origHeight': 410, 'width': 409, 'height': 410, 'widthPercent': 0.45, 'rescaleHeight': False, 'trialN': 69, 'loaded': True, 'loadedTime': 5381.4000000059605, 'positionName': 'RIGHT', 'positionCoords': [748.8, 245], 'bid': 6.68}]",115621.59999999404,1669834584637,turkey sandwich,baked potato,0.0,6.68,6.68,turkey sandwich,1360.0999999940395,1362,1362.0999999940395,True,u,117496.59999999404,1875.0,1669834586512,1875,HRV,HRV_0230,2022-11-30 18:59:45
70,"[{'imgObject': {}, 'id': 'cherry tomato', 'src': '/static/foodstim60/cherry tomato.jpg', 'key': 'u', 'origWidth': 410, 'origHeight': 410, 'width': 410, 'height': 410, 'widthPercent': 0.45, 'rescaleHeight': False, 'trialN': 70, 'loaded': True, 'loadedTime': 8201.5, 'positionName': 'LEFT', 'positionCoords': [281.2, 245], 'bid': 0}, {'imgObject': {}, 'id': 'turkeysandwich', 'src': '/static/foodstim60/turkeysandwich.jpg', 'key': 'i', 'origWidth': 409, 'origHeight': 409, 'width': 409, 'height': 409, 'widthPercent': 0.45, 'rescaleHeight': False, 'trialN': 70, 'loaded': True, 'loadedTime': 8373.299999982119, 'positionName': 'RIGHT', 'positionCoords': [748.8, 245.5], 'bid': 0}]",117497.59999999404,1669834586513,cherry tomato,turkeysandwich,0.0,0.0,0.0,turkeysandwich,1196.699999988079,1200,1199.699999988079,True,i,119207.09999999404,1709.5,1669834588223,1710,HRV,HRV_0230,2022-11-30 18:59:45
71,"[{'imgObject': {}, 'id': 'mashed potato', 'src': '/static/foodstim60/mashed potato.jpg', 'key': 'u', 'origWidth': 409, 'origHeight': 409, 'width': 409, 'height': 409, 'widthPercent': 0.45, 'rescaleHeight': False, 'trialN': 71, 'loaded': True, 'loadedTime': 7405.5999999940395, 'positionName': 'LEFT', 'positionCoords': [282.2, 245.5], 'bid': 0.11}, {'imgObject': {}, 'id': 'luckycharms', 'src': '/static/foodstim60/luckycharms.jpg', 'key': 'i', 'origWidth': 410, 'origHeight': 409, 'width': 410, 'height': 409, 'widthPercent': 0.45, 'rescaleHeight': False, 'trialN': 71, 'loaded': True, 'loadedTime': 7724, 'positionName': 'RIGHT', 'positionCoords': [748.8, 245.5], 'bid': 0.09}]",119207.59999999404,1669834588223,mashed potato,luckycharms,0.11,0.09,-0.020000000000000004,mashed potato,960.0,962,962.0999999940395,True,u,120677.5,1469.9000000059605,1669834589693,1470,HRV,HRV_0230,2022-11-30 18:59:45
72,"[{'imgObject': {}, 'id': 'strawberries', 'src': '/static/foodstim60/strawberries.jpg', 'key': 'u', 'origWidth': 410, 'origHeight': 410, 'width': 410, 'height': 410, 'widthPercent': 0.45, 'rescaleHeight': False, 'trialN': 72, 'loaded': True, 'loadedTime': 5304, 'positionName': 'LEFT', 'positionCoords': [281.2, 245], 'bid': 7.91}, {'imgObject': {}, 'id': 'pear', 'src': '/static/foodstim60/pear.jpg', 'key': 'i', 'origWidth': 411, 'origHeight': 410, 'width': 411, 'height': 410, 'widthPercent': 0.45, 'rescaleHeight': False, 'trialN': 72, 'loaded': True, 'loadedTime': 7723.299999982119, 'positionName': 'RIGHT', 'positionCoords': [748.8, 245], 'bid': 7.79}]",120678.40000000596,1669834589694,strawberries,pear,7.91,7.79,-0.1200000000000001,strawberries,1135.7999999821186,1138,1137.699999988079,True,u,122330.29999998212,1651.8999999761581,1669834591346,1652,HRV,HRV_0230,2022-11-30 18:59:45
73,"[{'imgObject': {}, 'id': 'bagel and cc', 'src': '/static/foodstim60/bagel and cc.jpg', 'key': 'u', 'origWidth': 410, 'origHeight': 410, 'width': 410, 'height': 410, 'widthPercent': 0.45, 'rescaleHeight': False, 'trialN': 73, 'loaded': True, 'loadedTime': 4769.5, 'positionName': 'LEFT', 'positionCoords': [281.2, 245], 'bid': 0.01}, {'imgObject': {}, 'id': 'popsicles', 'src': '/static/foodstim60/popsicles.jpg', 'key': 'i', 'origWidth': 410, 'origHeight': 410, 'width': 410, 'height': 410, 'widthPercent': 0.45, 'rescaleHeight': False, 'trialN': 73, 'loaded': True, 'loadedTime': 8504.799999982119, 'positionName': 'RIGHT', 'positionCoords': [748.8, 245], 'bid': 5.83}]",122331.29999998212,1669834591347,bagel and cc,popsicles,0.01,5.83,5.82,popsicles,1002.2000000178814,1004,1003.7000000178814,True,i,123849.90000000596,1518.6000000238419,1669834592865,1518,HRV,HRV_0230,2022-11-30 18:59:45
74,"[{'imgObject': {}, 'id': 'fried eggs', 'src': '/static/foodstim60/fried eggs.jpg', 'key': 'u', 'origWidth': 410, 'origHeight': 410, 'width': 410, 'height': 410, 'widthPercent': 0.45, 'rescaleHeight': False, 'trialN': 74, 'loaded': True, 'loadedTime': 7718, 'positionName': 'LEFT', 'positionCoords': [281.2, 245], 'bid': 4.97}, {'imgObject': {}, 'id': 'corn cob', 'src': '/static/foodstim60/corn cob.jpg', 'key': 'i', 'origWidth': 411, 'origHeight': 411, 'width': 411, 'height': 411, 'widthPercent': 0.45, 'rescaleHeight': False, 'trialN': 74, 'loaded': True, 'loadedTime': 7013.699999988079, 'positionName': 'RIGHT', 'positionCoords': [748.8, 244.5], 'bid': 5.34}]",123850.69999998808,1669834592866,fried eggs,corn cob,4.97,5.34,0.3700000000000001,fried eggs,866.4000000059605,868,867.4000000059605,True,u,125230.0,1379.300000011921,1669834594246,1380,HRV,HRV_0230,2022-11-30 18:59:45
75,"[{'imgObject': {}, 'id': 'cheerios', 'src': '/static/foodstim60/cheerios.jpg', 'key': 'u', 'origWidth': 409, 'origHeight': 410, 'width': 409, 'height': 410, 'widthPercent': 0.45, 'rescaleHeight': False, 'trialN': 75, 'loaded': True, 'loadedTime': 4756.299999982119, 'positionName': 'LEFT', 'positionCoords': [282.2, 245], 'bid': 0.13}, {'imgObject': {}, 'id': 'luckycharms', 'src': '/static/foodstim60/luckycharms.jpg', 'key': 'i', 'origWidth': 410, 'origHeight': 409, 'width': 410, 'height': 409, 'widthPercent': 0.45, 'rescaleHeight': False, 'trialN': 75, 'loaded': True, 'loadedTime': 7725.5999999940395, 'positionName': 'RIGHT', 'positionCoords': [748.8, 245.5], 'bid': 0.09}]",125230.59999999404,1669834594246,cheerios,luckycharms,0.13,0.09,-0.04000000000000001,cheerios,1223.699999988079,1226,1225.9000000059605,True,u,126959.5,1728.9000000059605,1669834595975,1729,HRV,HRV_0230,2022-11-30 18:59:45
76,"[{'imgObject': {}, 'id': 'pear', 'src': '/static/foodstim60/pear.jpg', 'key': 'u', 'origWidth': 411, 'origHeight': 410, 'width': 411, 'height': 410, 'widthPercent': 0.45, 'rescaleHeight': False, 'trialN': 76, 'loaded': True, 'loadedTime': 7722.0999999940395, 'positionName': 'LEFT', 'positionCoords': [280.2, 245], 'bid': 7.79}, {'imgObject': {}, 'id': 'steak', 'src': '/static/foodstim60/steak.jpg', 'key': 'i', 'origWidth': 410, 'origHeight': 410, 'width': 410, 'height': 410, 'widthPercent': 0.45, 'rescaleHeight': False, 'trialN': 76, 'loaded': True, 'loadedTime': 8150.199999988079, 'positionName': 'RIGHT', 'positionCoords': [748.8, 245], 'bid': 9.93}]",126959.69999998808,1669834595975,pear,steak,7.79,9.93,2.1399999999999997,steak,1038.9000000059605,1045,1044.7000000178814,True,i,128512.90000000596,1553.2000000178814,1669834597528,1553,HRV,HRV_0230,2022-11-30 18:59:45
77,"[{'imgObject': {}, 'id': 'bagel plain', 'src': '/static/foodstim60/bagel plain.jpg', 'key': 'u', 'origWidth': 410, 'origHeight': 410, 'width': 410, 'height': 410, 'widthPercent': 0.45, 'rescaleHeight': False, 'trialN': 77, 'loaded': True, 'loadedTime': 4350.799999982119, 'positionName': 'LEFT', 'positionCoords': [281.2, 245], 'bid': 0.27}, {'imgObject': {}, 'id': 'rigatoni', 'src': '/static/foodstim60/rigatoni.jpg', 'key': 'i', 'origWidth': 411, 'origHeight': 411, 'width': 411, 'height': 411, 'widthPercent': 0.45, 'rescaleHeight': False, 'trialN': 77, 'loaded': True, 'loadedTime': 6096.199999988079, 'positionName': 'RIGHT', 'positionCoords': [748.8, 244.5], 'bid': 0}]",128513.40000000596,1669834597529,bagel plain,rigatoni,0.27,0.0,-0.27,bagel plain,1340.7999999821186,1343,1342.8999999761581,True,u,130363.5,1850.0999999940395,1669834599379,1850,HRV,HRV_0230,2022-11-30 18:59:45
78,"[{'imgObject': {}, 'id': 'roastedpotatoes', 'src': '/static/foodstim60/roastedpotatoes.jpg', 'key': 'u', 'origWidth': 409, 'origHeight': 410, 'width': 409, 'height': 410, 'widthPercent': 0.45, 'rescaleHeight': False, 'trialN': 78, 'loaded': True, 'loadedTime': 8452, 'positionName': 'LEFT', 'positionCoords': [282.2, 245], 'bid': 4.33}, {'imgObject': {}, 'id': 'veggieswithdip', 'src': '/static/foodstim60/veggieswithdip.jpg', 'key': 'i', 'origWidth': 409, 'origHeight': 409, 'width': 409, 'height': 409, 'widthPercent': 0.45, 'rescaleHeight': False, 'trialN': 78, 'loaded': True, 'loadedTime': 6375.699999988079, 'positionName': 'RIGHT', 'positionCoords': [748.8, 245.5], 'bid': 6.66}]",130364.79999998212,1669834599380,roastedpotatoes,veggieswithdip,4.33,6.66,2.33,veggieswithdip,1275.4000000059605,1278,1277.5,True,i,132154.5,1789.7000000178814,1669834601170,1790,HRV,HRV_0230,2022-11-30 18:59:45
79,"[{'imgObject': {}, 'id': 'hashbrowns', 'src': '/static/foodstim60/hashbrowns.jpg', 'key': 'u', 'origWidth': 411, 'origHeight': 410, 'width': 411, 'height': 410, 'widthPercent': 0.45, 'rescaleHeight': False, 'trialN': 79, 'loaded': True, 'loadedTime': 7715.4000000059605, 'positionName': 'LEFT', 'positionCoords': [280.2, 245], 'bid': 0}, {'imgObject': {}, 'id': 'hotdog w must', 'src': '/static/foodstim60/hotdog w must.jpg', 'key': 'i', 'origWidth': 409, 'origHeight': 409, 'width': 409, 'height': 409, 'widthPercent': 0.45, 'rescaleHeight': False, 'trialN': 79, 'loaded': True, 'loadedTime': 5327.299999982119, 'positionName': 'RIGHT', 'positionCoords': [748.8, 245.5], 'bid': 0}]",132154.90000000596,1669834601170,hashbrowns,hotdog w must,0.0,0.0,0.0,hotdog w must,1003.2999999821186,1006,1005.2999999821186,True,i,133670.09999999404,1515.199999988079,1669834602686,1516,HRV,HRV_0230,2022-11-30 18:59:45
80,"[{'imgObject': {}, 'id': 'rigatoni', 'src': '/static/foodstim60/rigatoni.jpg', 'key': 'u', 'origWidth': 411, 'origHeight': 411, 'width': 411, 'height': 411, 'widthPercent': 0.45, 'rescaleHeight': False, 'trialN': 80, 'loaded': True, 'loadedTime': 6095.799999982119, 'positionName': 'LEFT', 'positionCoords': [280.2, 244.5], 'bid': 0}, {'imgObject': {}, 'id': 'Tribe humus pita', 'src': '/static/foodstim60/Tribe humus pita.jpg', 'key': 'i', 'origWidth': 411, 'origHeight': 411, 'width': 411, 'height': 411, 'widthPercent': 0.45, 'rescaleHeight': False, 'trialN': 80, 'loaded': True, 'loadedTime': 6091.5999999940395, 'positionName': 'RIGHT', 'positionCoords': [748.8, 244.5], 'bid': 7}]",133670.59999999404,1669834602686,rigatoni,Tribe humus pita,0.0,7.0,7.0,Tribe humus pita,1127.5999999940395,1130,1129.699999988079,True,i,135306.5,1635.9000000059605,1669834604322,1636,HRV,HRV_0230,2022-11-30 18:59:45
81,"[{'imgObject': {}, 'id': 'orange slices', 'src': '/static/foodstim60/orange slices.jpg', 'key': 'u', 'origWidth': 409, 'origHeight': 410, 'width': 409, 'height': 410, 'widthPercent': 0.45, 'rescaleHeight': False, 'trialN': 81, 'loaded': True, 'loadedTime': 6408.299999982119, 'positionName': 'LEFT', 'positionCoords': [282.2, 245], 'bid': 6.5200000000000005}, {'imgObject': {}, 'id': 'cherry tomato', 'src': '/static/foodstim60/cherry tomato.jpg', 'key': 'i', 'origWidth': 410, 'origHeight': 410, 'width': 410, 'height': 410, 'widthPercent': 0.45, 'rescaleHeight': False, 'trialN': 81, 'loaded': True, 'loadedTime': 8205.799999982119, 'positionName': 'RIGHT', 'positionCoords': [748.8, 245], 'bid': 0}]",135307.40000000596,1669834604323,orange slices,cherry tomato,6.5200000000000005,0.0,-6.5200000000000005,orange slices,970.8999999761581,973,972.7999999821186,True,u,136791.29999998212,1483.8999999761581,1669834605807,1484,HRV,HRV_0230,2022-11-30 18:59:45
82,"[{'imgObject': {}, 'id': 'turkeysandwich', 'src': '/static/foodstim60/turkeysandwich.jpg', 'key': 'u', 'origWidth': 409, 'origHeight': 409, 'width': 409, 'height': 409, 'widthPercent': 0.45, 'rescaleHeight': False, 'trialN': 82, 'loaded': True, 'loadedTime': 8370, 'positionName': 'LEFT', 'positionCoords': [282.2, 245.5], 'bid': 0}, {'imgObject': {}, 'id': 'shreddedwheatwithmilk', 'src': '/static/foodstim60/shreddedwheatwithmilk.jpg', 'key': 'i', 'origWidth': 410, 'origHeight': 410, 'width': 410, 'height': 410, 'widthPercent': 0.45, 'rescaleHeight': False, 'trialN': 82, 'loaded': True, 'loadedTime': 6113.4000000059605, 'positionName': 'RIGHT', 'positionCoords': [748.8, 245], 'bid': 0.02}]",136792.09999999404,1669834605808,turkeysandwich,shreddedwheatwithmilk,0.0,0.02,0.02,turkeysandwich,982.5,985,984.9000000059605,True,u,138286.69999998808,1494.5999999940395,1669834607302,1494,HRV,HRV_0230,2022-11-30 18:59:45
83,"[{'imgObject': {}, 'id': 'bagel and cc', 'src': '/static/foodstim60/bagel and cc.jpg', 'key': 'u', 'origWidth': 410, 'origHeight': 410, 'width': 410, 'height': 410, 'widthPercent': 0.45, 'rescaleHeight': False, 'trialN': 83, 'loaded': True, 'loadedTime': 4874.9000000059605, 'positionName': 'LEFT', 'positionCoords': [281.2, 245], 'bid': 0.01}, {'imgObject': {}, 'id': 'burrito', 'src': '/static/foodstim60/burrito.jpg', 'key': 'i', 'origWidth': 410, 'origHeight': 410, 'width': 410, 'height': 410, 'widthPercent': 0.45, 'rescaleHeight': False, 'trialN': 83, 'loaded': True, 'loadedTime': 5007.799999982119, 'positionName': 'RIGHT', 'positionCoords': [748.8, 245], 'bid': 0.06}]",138287.5,1669834607303,bagel and cc,burrito,0.01,0.06,0.049999999999999996,bagel and cc,1071.199999988079,1073,1073.0,True,u,139871.0,1583.5,1669834608887,1584,HRV,HRV_0230,2022-11-30 18:59:45
84,"[{'imgObject': {}, 'id': 'ice cream sundae 002', 'src': '/static/foodstim60/ice cream sundae 002.jpg', 'key': 'u', 'origWidth': 409, 'origHeight': 409, 'width': 409, 'height': 409, 'widthPercent': 0.45, 'rescaleHeight': False, 'trialN': 84, 'loaded': True, 'loadedTime': 6100.199999988079, 'positionName': 'LEFT', 'positionCoords': [282.2, 245.5], 'bid': 0.06}, {'imgObject': {}, 'id': 'mac & cheese', 'src': '/static/foodstim60/mac & cheese.jpg', 'key': 'i', 'origWidth': 410, 'origHeight': 410, 'width': 410, 'height': 410, 'widthPercent': 0.45, 'rescaleHeight': False, 'trialN': 84, 'loaded': True, 'loadedTime': 4142.4000000059605, 'positionName': 'RIGHT', 'positionCoords': [748.8, 245], 'bid': 0.88}]",139872.0,1669834608887,ice cream sundae 002,mac & cheese,0.06,0.88,0.8200000000000001,mac & cheese,1317.2999999821186,1320,1319.699999988079,True,i,141709.29999998212,1837.2999999821186,1669834610725,1838,HRV,HRV_0230,2022-11-30 18:59:45
85,"[{'imgObject': {}, 'id': 'chickenfingers', 'src': '/static/foodstim60/chickenfingers.jpg', 'key': 'u', 'origWidth': 410, 'origHeight': 410, 'width': 410, 'height': 410, 'widthPercent': 0.45, 'rescaleHeight': False, 'trialN': 85, 'loaded': True, 'loadedTime': 4237.4000000059605, 'positionName': 'LEFT', 'positionCoords': [281.2, 245], 'bid': 9.13}, {'imgObject': {}, 'id': 'kiwi', 'src': '/static/foodstim60/kiwi.jpg', 'key': 'i', 'origWidth': 410, 'origHeight': 410, 'width': 410, 'height': 410, 'widthPercent': 0.45, 'rescaleHeight': False, 'trialN': 85, 'loaded': True, 'loadedTime': 5171.5, 'positionName': 'RIGHT', 'positionCoords': [748.8, 245], 'bid': 7.87}]",141710.0,1669834610726,chickenfingers,kiwi,9.13,7.87,-1.2600000000000007,chickenfingers,808.0999999940395,809,809.0,True,u,143037.79999998212,1327.7999999821186,1669834612053,1327,HRV,HRV_0230,2022-11-30 18:59:45
86,"[{'imgObject': {}, 'id': 'apple slices', 'src': '/static/foodstim60/apple slices.jpg', 'key': 'u', 'origWidth': 409, 'origHeight': 410, 'width': 409, 'height': 410, 'widthPercent': 0.45, 'rescaleHeight': False, 'trialN': 86, 'loaded': True, 'loadedTime': 8206.09999999404, 'positionName': 'LEFT', 'positionCoords': [282.2, 245], 'bid': 7.55}, {'imgObject': {}, 'id': 'omelette', 'src': '/static/foodstim60/omelette.jpg', 'key': 'i', 'origWidth': 410, 'origHeight': 409, 'width': 410, 'height': 409, 'widthPercent': 0.45, 'rescaleHeight': False, 'trialN': 86, 'loaded': True, 'loadedTime': 5763.299999982119, 'positionName': 'RIGHT', 'positionCoords': [748.8, 245.5], 'bid': 8.56}]",143038.59999999404,1669834612054,apple slices,omelette,7.55,8.56,1.0100000000000007,omelette,863.4000000059605,866,865.5,True,i,144407.59999999404,1369.0,1669834613423,1369,HRV,HRV_0230,2022-11-30 18:59:45
87,"[{'imgObject': {}, 'id': 'luckycharms', 'src': '/static/foodstim60/luckycharms.jpg', 'key': 'u', 'origWidth': 410, 'origHeight': 409, 'width': 410, 'height': 409, 'widthPercent': 0.45, 'rescaleHeight': False, 'trialN': 87, 'loaded': True, 'loadedTime': 7726.5, 'positionName': 'LEFT', 'positionCoords': [281.2, 245.5], 'bid': 0.09}, {'imgObject': {}, 'id': 'granola w milk', 'src': '/static/foodstim60/granola w milk.jpg', 'key': 'i', 'origWidth': 410, 'origHeight': 410, 'width': 410, 'height': 410, 'widthPercent': 0.45, 'rescaleHeight': False, 'trialN': 87, 'loaded': True, 'loadedTime': 5736.199999988079, 'positionName': 'RIGHT', 'positionCoords': [748.8, 245], 'bid': 0}]",144408.5,1669834613424,luckycharms,granola w milk,0.09,0.0,-0.09,luckycharms,1389.5,1392,1391.4000000059605,True,u,146307.29999998212,1898.7999999821186,1669834615323,1899,HRV,HRV_0230,2022-11-30 18:59:45
88,"[{'imgObject': {}, 'id': 'steak', 'src': '/static/foodstim60/steak.jpg', 'key': 'u', 'origWidth': 410, 'origHeight': 410, 'width': 410, 'height': 410, 'widthPercent': 0.45, 'rescaleHeight': False, 'trialN': 88, 'loaded': True, 'loadedTime': 8173.199999988079, 'positionName': 'LEFT', 'positionCoords': [281.2, 245], 'bid': 9.93}, {'imgObject': {}, 'id': 'sweetpotato', 'src': '/static/foodstim60/sweetpotato.jpg', 'key': 'i', 'origWidth': 410, 'origHeight': 410, 'width': 410, 'height': 410, 'widthPercent': 0.45, 'rescaleHeight': False, 'trialN': 88, 'loaded': True, 'loadedTime': 4891.0999999940395, 'positionName': 'RIGHT', 'positionCoords': [748.8, 245], 'bid': 9.05}]",146308.29999998212,1669834615324,steak,sweetpotato,9.93,9.05,-0.879999999999999,steak,1178.0,1180,1180.300000011921,True,u,147998.09999999404,1689.800000011921,1669834617014,1690,HRV,HRV_0230,2022-11-30 18:59:45
89,"[{'imgObject': {}, 'id': 'popsicles', 'src': '/static/foodstim60/popsicles.jpg', 'key': 'u', 'origWidth': 410, 'origHeight': 410, 'width': 410, 'height': 410, 'widthPercent': 0.45, 'rescaleHeight': False, 'trialN': 89, 'loaded': True, 'loadedTime': 8501.90000000596, 'positionName': 'LEFT', 'positionCoords': [281.2, 245], 'bid': 5.83}, {'imgObject': {}, 'id': 'banana', 'src': '/static/foodstim60/banana.jpg', 'key': 'i', 'origWidth': 410, 'origHeight': 410, 'width': 410, 'height': 410, 'widthPercent': 0.45, 'rescaleHeight': False, 'trialN': 89, 'loaded': True, 'loadedTime': 6078.799999982119, 'positionName': 'RIGHT', 'positionCoords': [748.8, 245], 'bid': 4.98}]",147998.5,1669834617014,popsicles,banana,5.83,4.98,-0.8499999999999996,popsicles,1479.7999999821186,1482,1481.699999988079,True,u,149982.79999998212,1984.2999999821186,1669834618998,1984,HRV,HRV_0230,2022-11-30 18:59:45
90,"[{'imgObject': {}, 'id': 'blueberries', 'src': '/static/foodstim60/blueberries.jpg', 'key': 'u', 'origWidth': 411, 'origHeight': 411, 'width': 411, 'height': 411, 'widthPercent': 0.45, 'rescaleHeight': False, 'trialN': 90, 'loaded': True, 'loadedTime': 8333.699999988079, 'positionName': 'LEFT', 'positionCoords': [280.2, 244.5], 'bid': 7.52}, {'imgObject': {}, 'id': 'cherries', 'src': '/static/foodstim60/cherries.jpg', 'key': 'i', 'origWidth': 410, 'origHeight': 411, 'width': 410, 'height': 411, 'widthPercent': 0.45, 'rescaleHeight': False, 'trialN': 90, 'loaded': True, 'loadedTime': 4204.0999999940395, 'positionName': 'RIGHT', 'positionCoords': [748.8, 244.5], 'bid': 7.13}]",174095.19999998808,1669834643117,blueberries,cherries,7.52,7.13,-0.3899999999999997,cherries,1398.0,1399,1399.0,True,i,176012.69999998808,1917.5,1669834645035,1918,HRV,HRV_0230,2022-11-30 18:59:45
91,"[{'imgObject': {}, 'id': 'ice cream sundae 002', 'src': '/static/foodstim60/ice cream sundae 002.jpg', 'key': 'u', 'origWidth': 409, 'origHeight': 409, 'width': 409, 'height': 409, 'widthPercent': 0.45, 'rescaleHeight': False, 'trialN': 91, 'loaded': True, 'loadedTime': 6097.4000000059605, 'positionName': 'LEFT', 'positionCoords': [282.2, 245.5], 'bid': 0.06}, {'imgObject': {}, 'id': 'burrito', 'src': '/static/foodstim60/burrito.jpg', 'key': 'i', 'origWidth': 410, 'origHeight': 410, 'width': 410, 'height': 410, 'widthPercent': 0.45, 'rescaleHeight': False, 'trialN': 91, 'loaded': True, 'loadedTime': 4988.4000000059605, 'positionName': 'RIGHT', 'positionCoords': [748.8, 245], 'bid': 0.06}]",176013.09999999404,1669834645035,ice cream sundae 002,burrito,0.06,0.06,0.0,ice cream sundae 002,977.1999999880791,979,978.8000000119209,True,u,177503.0,1489.9000000059605,1669834646525,1490,HRV,HRV_0230,2022-11-30 18:59:45
92,"[{'imgObject': {}, 'id': 'corn cob', 'src': '/static/foodstim60/corn cob.jpg', 'key': 'u', 'origWidth': 411, 'origHeight': 411, 'width': 411, 'height': 411, 'widthPercent': 0.45, 'rescaleHeight': False, 'trialN': 92, 'loaded': True, 'loadedTime': 7010.799999982119, 'positionName': 'LEFT', 'positionCoords': [280.2, 244.5], 'bid': 5.34}, {'imgObject': {}, 'id': 'orange slices', 'src': '/static/foodstim60/orange slices.jpg', 'key': 'i', 'origWidth': 409, 'origHeight': 410, 'width': 409, 'height': 410, 'widthPercent': 0.45, 'rescaleHeight': False, 'trialN': 92, 'loaded': True, 'loadedTime': 6424, 'positionName': 'RIGHT', 'positionCoords': [748.8, 245], 'bid': 6.5200000000000005}]",177503.5,1669834646526,corn cob,orange slices,5.34,6.5200000000000005,1.1800000000000006,orange slices,774.1999999880791,775,775.0,True,i,178786.0,1282.5,1669834647808,1282,HRV,HRV_0230,2022-11-30 18:59:45
93,"[{'imgObject': {}, 'id': 'rigatoni', 'src': '/static/foodstim60/rigatoni.jpg', 'key': 'u', 'origWidth': 411, 'origHeight': 411, 'width': 411, 'height': 411, 'widthPercent': 0.45, 'rescaleHeight': False, 'trialN': 93, 'loaded': True, 'loadedTime': 6096, 'positionName': 'LEFT', 'positionCoords': [280.2, 244.5], 'bid': 0}, {'imgObject': {}, 'id': 'hotdog w must', 'src': '/static/foodstim60/hotdog w must.jpg', 'key': 'i', 'origWidth': 409, 'origHeight': 409, 'width': 409, 'height': 409, 'widthPercent': 0.45, 'rescaleHeight': False, 'trialN': 93, 'loaded': True, 'loadedTime': 5344.5999999940395, 'positionName': 'RIGHT', 'positionCoords': [748.8, 245.5], 'bid': 0}]",178786.40000000596,1669834647809,rigatoni,hotdog w must,0.0,0.0,0.0,hotdog w must,851.5999999940395,853,853.2999999821186,True,i,180156.59999999404,1370.199999988079,1669834649179,1370,HRV,HRV_0230,2022-11-30 18:59:45
94,"[{'imgObject': {}, 'id': 'raspberries', 'src': '/static/foodstim60/raspberries.jpg', 'key': 'u', 'origWidth': 411, 'origHeight': 411, 'width': 411, 'height': 411, 'widthPercent': 0.45, 'rescaleHeight': False, 'trialN': 94, 'loaded': True, 'loadedTime': 6767.5, 'positionName': 'LEFT', 'positionCoords': [280.2, 244.5], 'bid': 5.93}, {'imgObject': {}, 'id': 'shreddedwheatwithmilk', 'src': '/static/foodstim60/shreddedwheatwithmilk.jpg', 'key': 'i', 'origWidth': 410, 'origHeight': 410, 'width': 410, 'height': 410, 'widthPercent': 0.45, 'rescaleHeight': False, 'trialN': 94, 'loaded': True, 'loadedTime': 6114.4000000059605, 'positionName': 'RIGHT', 'positionCoords': [748.8, 245], 'bid': 0.02}]",180157.59999999404,1669834649180,raspberries,shreddedwheatwithmilk,5.93,0.02,-5.91,raspberries,1439.5999999940395,1603,1603.5,True,u,182265.59999999404,2108.0,1669834651288,2108,HRV,HRV_0230,2022-11-30 18:59:45
95,"[{'imgObject': {}, 'id': 'turkey sandwich', 'src': '/static/foodstim60/turkey sandwich.jpg', 'key': 'u', 'origWidth': 409, 'origHeight': 409, 'width': 409, 'height': 409, 'widthPercent': 0.45, 'rescaleHeight': False, 'trialN': 95, 'loaded': True, 'loadedTime': 4371.9000000059605, 'positionName': 'LEFT', 'positionCoords': [282.2, 245.5], 'bid': 0}, {'imgObject': {}, 'id': 'rigatoni', 'src': '/static/foodstim60/rigatoni.jpg', 'key': 'i', 'origWidth': 411, 'origHeight': 411, 'width': 411, 'height': 411, 'widthPercent': 0.45, 'rescaleHeight': False, 'trialN': 95, 'loaded': True, 'loadedTime': 6095.5999999940395, 'positionName': 'RIGHT', 'positionCoords': [748.8, 244.5], 'bid': 0}]",182266.5,1669834651289,turkey sandwich,rigatoni,0.0,0.0,0.0,turkey sandwich,914.6999999880791,917,917.6999999880791,True,u,183694.19999998808,1427.699999988079,1669834652716,1427,HRV,HRV_0230,2022-11-30 18:59:45
96,"[{'imgObject': {}, 'id': 'salad w chicken', 'src': '/static/foodstim60/salad w chicken.jpg', 'key': 'u', 'origWidth': 411, 'origHeight': 411, 'width': 411, 'height': 411, 'widthPercent': 0.45, 'rescaleHeight': False, 'trialN': 96, 'loaded': True, 'loadedTime': 8318.09999999404, 'positionName': 'LEFT', 'positionCoords': [280.2, 244.5], 'bid': 10}, {'imgObject': {}, 'id': 'eggs', 'src': '/static/foodstim60/eggs.jpg', 'key': 'i', 'origWidth': 409, 'origHeight': 409, 'width': 409, 'height': 409, 'widthPercent': 0.45, 'rescaleHeight': False, 'trialN': 96, 'loaded': True, 'loadedTime': 6630, 'positionName': 'RIGHT', 'positionCoords': [748.8, 245.5], 'bid': 9.02}]",183694.79999998212,1669834652717,salad w chicken,eggs,10.0,9.02,-0.9800000000000004,salad w chicken,766.9000000059605,768,767.7000000178814,True,u,184981.0,1286.2000000178814,1669834654003,1286,HRV,HRV_0230,2022-11-30 18:59:45
97,"[{'imgObject': {}, 'id': 'seaweed', 'src': '/static/foodstim60/seaweed.jpg', 'key': 'u', 'origWidth': 410, 'origHeight': 410, 'width': 410, 'height': 410, 'widthPercent': 0.45, 'rescaleHeight': False, 'trialN': 97, 'loaded': True, 'loadedTime': 5752, 'positionName': 'LEFT', 'positionCoords': [281.2, 245], 'bid': 9.97}, {'imgObject': {}, 'id': 'blackbeanswithrice', 'src': '/static/foodstim60/blackbeanswithrice.jpg', 'key': 'i', 'origWidth': 410, 'origHeight': 410, 'width': 410, 'height': 410, 'widthPercent': 0.45, 'rescaleHeight': False, 'trialN': 97, 'loaded': True, 'loadedTime': 4335.4000000059605, 'positionName': 'RIGHT', 'positionCoords': [748.8, 245], 'bid': 9.11}]",184981.69999998808,1669834654004,seaweed,blackbeanswithrice,9.97,9.11,-0.8600000000000012,seaweed,1088.7000000178814,1091,1090.800000011921,True,u,186588.29999998212,1606.5999999940395,1669834655610,1606,HRV,HRV_0230,2022-11-30 18:59:45
98,"[{'imgObject': {}, 'id': 'orange slices', 'src': '/static/foodstim60/orange slices.jpg', 'key': 'u', 'origWidth': 409, 'origHeight': 410, 'width': 409, 'height': 410, 'widthPercent': 0.45, 'rescaleHeight': False, 'trialN': 98, 'loaded': True, 'loadedTime': 6407.199999988079, 'positionName': 'LEFT', 'positionCoords': [282.2, 245], 'bid': 6.5200000000000005}, {'imgObject': {}, 'id': 'baked potato', 'src': '/static/foodstim60/baked potato.jpg', 'key': 'i', 'origWidth': 409, 'origHeight': 410, 'width': 409, 'height': 410, 'widthPercent': 0.45, 'rescaleHeight': False, 'trialN': 98, 'loaded': True, 'loadedTime': 5372.9000000059605, 'positionName': 'RIGHT', 'positionCoords': [748.8, 245], 'bid': 6.68}]",186589.19999998808,1669834655611,orange slices,baked potato,6.5200000000000005,6.68,0.15999999999999925,orange slices,1008.5999999940395,1011,1010.8000000119209,True,u,188105.40000000596,1516.2000000178814,1669834657127,1516,HRV,HRV_0230,2022-11-30 18:59:45
99,"[{'imgObject': {}, 'id': 'blackbeanswithrice', 'src': '/static/foodstim60/blackbeanswithrice.jpg', 'key': 'u', 'origWidth': 410, 'origHeight': 410, 'width': 410, 'height': 410, 'widthPercent': 0.45, 'rescaleHeight': False, 'trialN': 99, 'loaded': True, 'loadedTime': 4334, 'positionName': 'LEFT', 'positionCoords': [281.2, 245], 'bid': 9.11}, {'imgObject': {}, 'id': 'eggs', 'src': '/static/foodstim60/eggs.jpg', 'key': 'i', 'origWidth': 409, 'origHeight': 409, 'width': 409, 'height': 409, 'widthPercent': 0.45, 'rescaleHeight': False, 'trialN': 99, 'loaded': True, 'loadedTime': 6628.699999988079, 'positionName': 'RIGHT', 'positionCoords': [748.8, 245.5], 'bid': 9.02}]",188105.79999998212,1669834657128,blackbeanswithrice,eggs,9.11,9.02,-0.08999999999999986,eggs,1420.0,1422,1422.0,True,i,190042.29999998212,1936.5,1669834659064,1936,HRV,HRV_0230,2022-11-30 18:59:45
100,"[{'imgObject': {}, 'id': 'bagel plain', 'src': '/static/foodstim60/bagel plain.jpg', 'key': 'u', 'origWidth': 410, 'origHeight': 410, 'width': 410, 'height': 410, 'widthPercent': 0.45, 'rescaleHeight': False, 'trialN': 100, 'loaded': True, 'loadedTime': 4341.299999982119, 'positionName': 'LEFT', 'positionCoords': [281.2, 245], 'bid': 0.27}, {'imgObject': {}, 'id': 'burrito', 'src': '/static/foodstim60/burrito.jpg', 'key': 'i', 'origWidth': 410, 'origHeight': 410, 'width': 410, 'height': 410, 'widthPercent': 0.45, 'rescaleHeight': False, 'trialN': 100, 'loaded': True, 'loadedTime': 4999.0999999940395, 'positionName': 'RIGHT', 'positionCoords': [748.8, 245], 'bid': 0.06}]",190043.19999998808,1669834659065,bagel plain,burrito,0.27,0.06,-0.21000000000000002,bagel plain,850.0,851,851.0,True,u,191409.29999998212,1366.0999999940395,1669834660431,1366,HRV,HRV_0230,2022-11-30 18:59:45
101,"[{'imgObject': {}, 'id': 'rigatoni and sauce', 'src': '/static/foodstim60/rigatoni and sauce.jpg', 'key': 'u', 'origWidth': 410, 'origHeight': 411, 'width': 410, 'height': 411, 'widthPercent': 0.45, 'rescaleHeight': False, 'trialN': 101, 'loaded': True, 'loadedTime': 5585.199999988079, 'positionName': 'LEFT', 'positionCoords': [281.2, 244.5], 'bid': 0}, {'imgObject': {}, 'id': 'Grapes', 'src': '/static/foodstim60/Grapes.jpg', 'key': 'i', 'origWidth': 411, 'origHeight': 411, 'width': 411, 'height': 411, 'widthPercent': 0.45, 'rescaleHeight': False, 'trialN': 101, 'loaded': True, 'loadedTime': 6986.299999982119, 'positionName': 'RIGHT', 'positionCoords': [748.8, 244.5], 'bid': 6.41}]",191409.79999998212,1669834660432,rigatoni and sauce,Grapes,0.0,6.41,6.41,Grapes,836.5,838,838.6000000238419,True,i,192758.69999998808,1348.9000000059605,1669834661781,1349,HRV,HRV_0230,2022-11-30 18:59:45
102,"[{'imgObject': {}, 'id': 'shreddedwheatwithmilk', 'src': '/static/foodstim60/shreddedwheatwithmilk.jpg', 'key': 'u', 'origWidth': 410, 'origHeight': 410, 'width': 410, 'height': 410, 'widthPercent': 0.45, 'rescaleHeight': False, 'trialN': 102, 'loaded': True, 'loadedTime': 6113.199999988079, 'positionName': 'LEFT', 'positionCoords': [281.2, 245], 'bid': 0.02}, {'imgObject': {}, 'id': 'salmon', 'src': '/static/foodstim60/salmon.jpg', 'key': 'i', 'origWidth': 410, 'origHeight': 409, 'width': 410, 'height': 409, 'widthPercent': 0.45, 'rescaleHeight': False, 'trialN': 102, 'loaded': True, 'loadedTime': 5011.5, 'positionName': 'RIGHT', 'positionCoords': [748.8, 245.5], 'bid': 8.26}]",192759.59999999404,1669834661782,shreddedwheatwithmilk,salmon,0.02,8.26,8.24,salmon,901.6999999880791,902,902.5999999940395,True,i,194182.09999999404,1422.5,1669834663204,1422,HRV,HRV_0230,2022-11-30 18:59:45
103,"[{'imgObject': {}, 'id': 'eggs', 'src': '/static/foodstim60/eggs.jpg', 'key': 'u', 'origWidth': 409, 'origHeight': 409, 'width': 409, 'height': 409, 'widthPercent': 0.45, 'rescaleHeight': False, 'trialN': 103, 'loaded': True, 'loadedTime': 6624.199999988079, 'positionName': 'LEFT', 'positionCoords': [282.2, 245.5], 'bid': 9.02}, {'imgObject': {}, 'id': 'cheerios', 'src': '/static/foodstim60/cheerios.jpg', 'key': 'i', 'origWidth': 409, 'origHeight': 410, 'width': 409, 'height': 410, 'widthPercent': 0.45, 'rescaleHeight': False, 'trialN': 103, 'loaded': True, 'loadedTime': 4700, 'positionName': 'RIGHT', 'positionCoords': [748.8, 245], 'bid': 0.13}]",194182.59999999404,1669834663205,eggs,cheerios,9.02,0.13,-8.889999999999999,eggs,817.0999999940395,821,821.3000000119209,True,u,195518.79999998212,1336.199999988079,1669834664541,1336,HRV,HRV_0230,2022-11-30 18:59:45
104,"[{'imgObject': {}, 'id': 'hashbrowns', 'src': '/static/foodstim60/hashbrowns.jpg', 'key': 'u', 'origWidth': 411, 'origHeight': 410, 'width': 411, 'height': 410, 'widthPercent': 0.45, 'rescaleHeight': False, 'trialN': 104, 'loaded': True, 'loadedTime': 7715.699999988079, 'positionName': 'LEFT', 'positionCoords': [280.2, 245], 'bid': 0}, {'imgObject': {}, 'id': 'lox', 'src': '/static/foodstim60/lox.jpg', 'key': 'i', 'origWidth': 410, 'origHeight': 411, 'width': 410, 'height': 411, 'widthPercent': 0.45, 'rescaleHeight': False, 'trialN': 104, 'loaded': True, 'loadedTime': 8464.199999988079, 'positionName': 'RIGHT', 'positionCoords': [748.8, 244.5], 'bid': 0}]",195519.59999999404,1669834664542,hashbrowns,lox,0.0,0.0,0.0,lox,766.6999999880791,768,768.5999999940395,True,i,196791.40000000596,1271.800000011921,1669834665814,1272,HRV,HRV_0230,2022-11-30 18:59:45
105,"[{'imgObject': {}, 'id': 'raspberries', 'src': '/static/foodstim60/raspberries.jpg', 'key': 'u', 'origWidth': 411, 'origHeight': 411, 'width': 411, 'height': 411, 'widthPercent': 0.45, 'rescaleHeight': False, 'trialN': 105, 'loaded': True, 'loadedTime': 6668.5, 'positionName': 'LEFT', 'positionCoords': [280.2, 244.5], 'bid': 5.93}, {'imgObject': {}, 'id': 'chicken nuggets2', 'src': '/static/foodstim60/chicken nuggets2.jpg', 'key': 'i', 'origWidth': 410, 'origHeight': 409, 'width': 410, 'height': 409, 'widthPercent': 0.45, 'rescaleHeight': False, 'trialN': 105, 'loaded': True, 'loadedTime': 8329.40000000596, 'positionName': 'RIGHT', 'positionCoords': [748.8, 245.5], 'bid': 6.25}]",196791.90000000596,1669834665814,raspberries,chicken nuggets2,5.93,6.25,0.3200000000000003,chicken nuggets2,1125.2999999821186,1126,1126.199999988079,True,i,198427.19999998808,1635.2999999821186,1669834667449,1635,HRV,HRV_0230,2022-11-30 18:59:45
106,"[{'imgObject': {}, 'id': 'omelette', 'src': '/static/foodstim60/omelette.jpg', 'key': 'u', 'origWidth': 410, 'origHeight': 409, 'width': 410, 'height': 409, 'widthPercent': 0.45, 'rescaleHeight': False, 'trialN': 106, 'loaded': True, 'loadedTime': 5754.5, 'positionName': 'LEFT', 'positionCoords': [281.2, 245.5], 'bid': 8.56}, {'imgObject': {}, 'id': 'ice cream sundae 002', 'src': '/static/foodstim60/ice cream sundae 002.jpg', 'key': 'i', 'origWidth': 409, 'origHeight': 409, 'width': 409, 'height': 409, 'widthPercent': 0.45, 'rescaleHeight': False, 'trialN': 106, 'loaded': True, 'loadedTime': 6100, 'positionName': 'RIGHT', 'positionCoords': [748.8, 245.5], 'bid': 0.06}]",198428.19999998808,1669834667450,omelette,ice cream sundae 002,8.56,0.06,-8.5,omelette,1353.9000000059605,1358,1357.300000011921,True,u,200306.09999999404,1877.9000000059605,1669834669328,1878,HRV,HRV_0230,2022-11-30 18:59:45
107,"[{'imgObject': {}, 'id': 'popsicles', 'src': '/static/foodstim60/popsicles.jpg', 'key': 'u', 'origWidth': 410, 'origHeight': 410, 'width': 410, 'height': 410, 'widthPercent': 0.45, 'rescaleHeight': False, 'trialN': 107, 'loaded': True, 'loadedTime': 8499.90000000596, 'positionName': 'LEFT', 'positionCoords': [281.2, 245], 'bid': 5.83}, {'imgObject': {}, 'id': 'fruitsalad', 'src': '/static/foodstim60/fruitsalad.jpg', 'key': 'i', 'origWidth': 410, 'origHeight': 410, 'width': 410, 'height': 410, 'widthPercent': 0.45, 'rescaleHeight': False, 'trialN': 107, 'loaded': True, 'loadedTime': 8287.299999982119, 'positionName': 'RIGHT', 'positionCoords': [748.8, 245], 'bid': 7.25}]",200307.09999999404,1669834669329,popsicles,fruitsalad,5.83,7.25,1.42,fruitsalad,1123.199999988079,1125,1125.199999988079,True,i,201940.40000000596,1633.300000011921,1669834670962,1633,HRV,HRV_0230,2022-11-30 18:59:45
108,"[{'imgObject': {}, 'id': 'blueberries', 'src': '/static/foodstim60/blueberries.jpg', 'key': 'u', 'origWidth': 411, 'origHeight': 411, 'width': 411, 'height': 411, 'widthPercent': 0.45, 'rescaleHeight': False, 'trialN': 108, 'loaded': True, 'loadedTime': 8334.5, 'positionName': 'LEFT', 'positionCoords': [280.2, 244.5], 'bid': 7.52}, {'imgObject': {}, 'id': 'raspberries', 'src': '/static/foodstim60/raspberries.jpg', 'key': 'i', 'origWidth': 411, 'origHeight': 411, 'width': 411, 'height': 411, 'widthPercent': 0.45, 'rescaleHeight': False, 'trialN': 108, 'loaded': True, 'loadedTime': 6642, 'positionName': 'RIGHT', 'positionCoords': [748.8, 244.5], 'bid': 5.93}]",201941.29999998212,1669834670963,blueberries,raspberries,7.52,5.93,-1.5899999999999999,blueberries,1049.0,1051,1050.9000000059605,True,u,203508.59999999404,1567.300000011921,1669834672531,1568,HRV,HRV_0230,2022-11-30 18:59:45
109,"[{'imgObject': {}, 'id': 'baked potato', 'src': '/static/foodstim60/baked potato.jpg', 'key': 'u', 'origWidth': 409, 'origHeight': 410, 'width': 409, 'height': 410, 'widthPercent': 0.45, 'rescaleHeight': False, 'trialN': 109, 'loaded': True, 'loadedTime': 5557.0999999940395, 'positionName': 'LEFT', 'positionCoords': [282.2, 245], 'bid': 6.68}, {'imgObject': {}, 'id': 'raspberries', 'src': '/static/foodstim60/raspberries.jpg', 'key': 'i', 'origWidth': 411, 'origHeight': 411, 'width': 411, 'height': 411, 'widthPercent': 0.45, 'rescaleHeight': False, 'trialN': 109, 'loaded': True, 'loadedTime': 6633.9000000059605, 'positionName': 'RIGHT', 'positionCoords': [748.8, 244.5], 'bid': 5.93}]",203508.79999998212,1669834672531,baked potato,raspberries,6.68,5.93,-0.75,raspberries,1137.1000000238419,1139,1139.0,True,i,205156.19999998808,1647.4000000059605,1669834674178,1647,HRV,HRV_0230,2022-11-30 18:59:45
