trialN,stimuli,question,trialStartTime,trialStartTime_UNIX,stimulus1,rt,receivedResponse,rating,trialEndTime,trialDuration,stimulus1Loaded,exp,subjectId,date
0,"[{'imgObject': {}, 'id': 'olives', 'src': '/static/foodstim60/olives.jpg', 'key': 'NaN', 'origWidth': 410, 'origHeight': 410, 'width': 410, 'height': 410, 'widthPercent': 0.8, 'rescaleHeight': True, 'trialN': 0, 'loaded': True, 'loadedTime': 3377.7999999821186, 'positionName': 'CENTER', 'positionCoords': [515, 245]}]",Rate how much you want to eat this food from 0 (least) to 10 (most).,5399.899999976158,1669834223955,olives,6172.700000017881,True,9.77,11572.59999999404,6172.700000017881,True,HRV,HRV_0230,2022-11-30 18:53:15
1,"[{'imgObject': {}, 'id': 'bagel and cc', 'src': '/static/foodstim60/bagel and cc.jpg', 'key': 'NaN', 'origWidth': 410, 'origHeight': 410, 'width': 410, 'height': 410, 'widthPercent': 0.8, 'rescaleHeight': True, 'trialN': 1, 'loaded': True, 'loadedTime': 3385.2999999821186, 'positionName': 'CENTER', 'positionCoords': [515, 245]}]",Rate how much you want to eat this food from 0 (least) to 10 (most).,11579.899999976158,1669834230135,bagel and cc,2736.100000023842,True,0.01,14316.0,2736.100000023842,True,HRV,HRV_0230,2022-11-30 18:53:15
2,"[{'imgObject': {}, 'id': 'fried eggs', 'src': '/static/foodstim60/fried eggs.jpg', 'key': 'NaN', 'origWidth': 410, 'origHeight': 410, 'width': 410, 'height': 410, 'widthPercent': 0.8, 'rescaleHeight': True, 'trialN': 2, 'loaded': True, 'loadedTime': 3382.399999976158, 'positionName': 'CENTER', 'positionCoords': [515, 245]}]",Rate how much you want to eat this food from 0 (least) to 10 (most).,14322.5,1669834232878,fried eggs,2712.399999976158,True,4.97,17034.899999976158,2712.399999976158,True,HRV,HRV_0230,2022-11-30 18:53:15
3,"[{'imgObject': {}, 'id': 'Grapes', 'src': '/static/foodstim60/Grapes.jpg', 'key': 'NaN', 'origWidth': 411, 'origHeight': 411, 'width': 411, 'height': 411, 'widthPercent': 0.8, 'rescaleHeight': True, 'trialN': 3, 'loaded': True, 'loadedTime': 3388.399999976158, 'positionName': 'CENTER', 'positionCoords': [514.5, 244.5]}]",Rate how much you want to eat this food from 0 (least) to 10 (most).,17040.899999976158,1669834235596,Grapes,2491.7000000178814,True,6.41,19532.59999999404,2491.7000000178814,True,HRV,HRV_0230,2022-11-30 18:53:15
4,"[{'imgObject': {}, 'id': 'hashbrowns', 'src': '/static/foodstim60/hashbrowns.jpg', 'key': 'NaN', 'origWidth': 411, 'origHeight': 410, 'width': 411, 'height': 410, 'widthPercent': 0.8, 'rescaleHeight': True, 'trialN': 4, 'loaded': True, 'loadedTime': 3391.2999999821186, 'positionName': 'CENTER', 'positionCoords': [514.5, 245]}]",Rate how much you want to eat this food from 0 (least) to 10 (most).,19538.899999976158,1669834238094,hashbrowns,1902.9000000059605,True,0.0,21441.79999998212,1902.9000000059605,True,HRV,HRV_0230,2022-11-30 18:53:15
5,"[{'imgObject': {}, 'id': 'hotdog w must', 'src': '/static/foodstim60/hotdog w must.jpg', 'key': 'NaN', 'origWidth': 409, 'origHeight': 409, 'width': 409, 'height': 409, 'widthPercent': 0.8, 'rescaleHeight': True, 'trialN': 5, 'loaded': True, 'loadedTime': 3503.2999999821186, 'positionName': 'CENTER', 'positionCoords': [515.5, 245.5]}]",Rate how much you want to eat this food from 0 (least) to 10 (most).,21444.899999976158,1669834240000,hotdog w must,2383.4000000059605,True,0.0,23828.29999998212,2383.4000000059605,True,HRV,HRV_0230,2022-11-30 18:53:15
6,"[{'imgObject': {}, 'id': 'salmon', 'src': '/static/foodstim60/salmon.jpg', 'key': 'NaN', 'origWidth': 410, 'origHeight': 409, 'width': 410, 'height': 409, 'widthPercent': 0.8, 'rescaleHeight': True, 'trialN': 6, 'loaded': True, 'loadedTime': 3545.399999976158, 'positionName': 'CENTER', 'positionCoords': [515, 245.5]}]",Rate how much you want to eat this food from 0 (least) to 10 (most).,23835.79999998212,1669834242391,salmon,2372.9000000059605,True,8.26,26208.69999998808,2372.9000000059605,True,HRV,HRV_0230,2022-11-30 18:53:15
7,"[{'imgObject': {}, 'id': 'chicken nuggets2', 'src': '/static/foodstim60/chicken nuggets2.jpg', 'key': 'NaN', 'origWidth': 410, 'origHeight': 409, 'width': 410, 'height': 409, 'widthPercent': 0.8, 'rescaleHeight': True, 'trialN': 7, 'loaded': True, 'loadedTime': 3550.7999999821186, 'positionName': 'CENTER', 'positionCoords': [515, 245.5]}]",Rate how much you want to eat this food from 0 (least) to 10 (most).,26213.69999998808,1669834244769,chicken nuggets2,2666.9000000059605,True,6.25,28880.59999999404,2666.9000000059605,True,HRV,HRV_0230,2022-11-30 18:53:15
8,"[{'imgObject': {}, 'id': 'mac & cheese', 'src': '/static/foodstim60/mac & cheese.jpg', 'key': 'NaN', 'origWidth': 410, 'origHeight': 410, 'width': 410, 'height': 410, 'widthPercent': 0.8, 'rescaleHeight': True, 'trialN': 8, 'loaded': True, 'loadedTime': 3556.2999999821186, 'positionName': 'CENTER', 'positionCoords': [515, 245]}]",Rate how much you want to eat this food from 0 (least) to 10 (most).,28886.899999976158,1669834247442,mac & cheese,2827.9000000059605,True,0.88,31714.79999998212,2827.9000000059605,True,HRV,HRV_0230,2022-11-30 18:53:15
9,"[{'imgObject': {}, 'id': 'omelette', 'src': '/static/foodstim60/omelette.jpg', 'key': 'NaN', 'origWidth': 410, 'origHeight': 409, 'width': 410, 'height': 409, 'widthPercent': 0.8, 'rescaleHeight': True, 'trialN': 9, 'loaded': True, 'loadedTime': 3558.2999999821186, 'positionName': 'CENTER', 'positionCoords': [515, 245.5]}]",Rate how much you want to eat this food from 0 (least) to 10 (most).,31723.29999998212,1669834250279,omelette,2377.800000011921,True,8.56,34101.09999999404,2377.800000011921,True,HRV,HRV_0230,2022-11-30 18:53:15
10,"[{'imgObject': {}, 'id': 'baked potato', 'src': '/static/foodstim60/baked potato.jpg', 'key': 'NaN', 'origWidth': 409, 'origHeight': 410, 'width': 409, 'height': 410, 'widthPercent': 0.8, 'rescaleHeight': True, 'trialN': 10, 'loaded': True, 'loadedTime': 3562.0999999940395, 'positionName': 'CENTER', 'positionCoords': [515.5, 245]}]",Rate how much you want to eat this food from 0 (least) to 10 (most).,34108.39999997616,1669834252664,baked potato,2549.800000011921,True,6.68,36658.19999998808,2549.800000011921,True,HRV,HRV_0230,2022-11-30 18:53:15
11,"[{'imgObject': {}, 'id': 'seaweed', 'src': '/static/foodstim60/seaweed.jpg', 'key': 'NaN', 'origWidth': 410, 'origHeight': 410, 'width': 410, 'height': 410, 'widthPercent': 0.8, 'rescaleHeight': True, 'trialN': 11, 'loaded': True, 'loadedTime': 3570.5, 'positionName': 'CENTER', 'positionCoords': [515, 245]}]",Rate how much you want to eat this food from 0 (least) to 10 (most).,36667.09999999404,1669834255222,seaweed,3827.0999999940395,True,9.97,40494.19999998808,3827.0999999940395,True,HRV,HRV_0230,2022-11-30 18:53:15
12,"[{'imgObject': {}, 'id': 'veggieswithdip', 'src': '/static/foodstim60/veggieswithdip.jpg', 'key': 'NaN', 'origWidth': 409, 'origHeight': 409, 'width': 409, 'height': 409, 'widthPercent': 0.8, 'rescaleHeight': True, 'trialN': 12, 'loaded': True, 'loadedTime': 3576.699999988079, 'positionName': 'CENTER', 'positionCoords': [515.5, 245.5]}]",Rate how much you want to eat this food from 0 (least) to 10 (most).,40501.09999999404,1669834259056,veggieswithdip,6515.9000000059605,True,6.66,47017.0,6515.9000000059605,True,HRV,HRV_0230,2022-11-30 18:53:15
13,"[{'imgObject': {}, 'id': 'edamame', 'src': '/static/foodstim60/edamame.jpg', 'key': 'NaN', 'origWidth': 409, 'origHeight': 410, 'width': 409, 'height': 410, 'widthPercent': 0.8, 'rescaleHeight': True, 'trialN': 13, 'loaded': True, 'loadedTime': 3604.5, 'positionName': 'CENTER', 'positionCoords': [515.5, 245]}]",Rate how much you want to eat this food from 0 (least) to 10 (most).,47024.09999999404,1669834265579,edamame,2744.5,True,0.15,49768.59999999404,2744.5,True,HRV,HRV_0230,2022-11-30 18:53:15
14,"[{'imgObject': {}, 'id': 'burger', 'src': '/static/foodstim60/burger.jpg', 'key': 'NaN', 'origWidth': 409, 'origHeight': 409, 'width': 409, 'height': 409, 'widthPercent': 0.8, 'rescaleHeight': True, 'trialN': 14, 'loaded': True, 'loadedTime': 3611.5999999940395, 'positionName': 'CENTER', 'positionCoords': [515.5, 245.5]}]",Rate how much you want to eat this food from 0 (least) to 10 (most).,49778.09999999404,1669834268333,burger,1512.5,True,0.0,51290.59999999404,1512.5,True,HRV,HRV_0230,2022-11-30 18:53:15
15,"[{'imgObject': {}, 'id': 'kiwi', 'src': '/static/foodstim60/kiwi.jpg', 'key': 'NaN', 'origWidth': 410, 'origHeight': 410, 'width': 410, 'height': 410, 'widthPercent': 0.8, 'rescaleHeight': True, 'trialN': 15, 'loaded': True, 'loadedTime': 3628.2999999821186, 'positionName': 'CENTER', 'positionCoords': [515, 245]}]",Rate how much you want to eat this food from 0 (least) to 10 (most).,51297.79999998212,1669834269852,kiwi,2693.0,True,7.87,53990.79999998212,2693.0,True,HRV,HRV_0230,2022-11-30 18:53:15
16,"[{'imgObject': {}, 'id': 'rigatoni', 'src': '/static/foodstim60/rigatoni.jpg', 'key': 'NaN', 'origWidth': 411, 'origHeight': 411, 'width': 411, 'height': 411, 'widthPercent': 0.8, 'rescaleHeight': True, 'trialN': 16, 'loaded': True, 'loadedTime': 3630.5999999940395, 'positionName': 'CENTER', 'positionCoords': [514.5, 244.5]}]",Rate how much you want to eat this food from 0 (least) to 10 (most).,54000.59999999404,1669834272555,rigatoni,1734.0,True,0.0,55734.59999999404,1734.0,True,HRV,HRV_0230,2022-11-30 18:53:15
17,"[{'imgObject': {}, 'id': 'salad w chicken', 'src': '/static/foodstim60/salad w chicken.jpg', 'key': 'NaN', 'origWidth': 411, 'origHeight': 411, 'width': 411, 'height': 411, 'widthPercent': 0.8, 'rescaleHeight': True, 'trialN': 17, 'loaded': True, 'loadedTime': 3633.199999988079, 'positionName': 'CENTER', 'positionCoords': [514.5, 244.5]}]",Rate how much you want to eat this food from 0 (least) to 10 (most).,55741.79999998212,1669834274296,salad w chicken,2266.2000000178814,True,10.0,58008.0,2266.2000000178814,True,HRV,HRV_0230,2022-11-30 18:53:15
18,"[{'imgObject': {}, 'id': 'pear', 'src': '/static/foodstim60/pear.jpg', 'key': 'NaN', 'origWidth': 411, 'origHeight': 410, 'width': 411, 'height': 410, 'widthPercent': 0.8, 'rescaleHeight': True, 'trialN': 18, 'loaded': True, 'loadedTime': 3637.2999999821186, 'positionName': 'CENTER', 'positionCoords': [514.5, 245]}]",Rate how much you want to eat this food from 0 (least) to 10 (most).,58012.19999998808,1669834276567,pear,4634.4000000059605,True,7.79,62646.59999999404,4634.4000000059605,True,HRV,HRV_0230,2022-11-30 18:53:15
19,"[{'imgObject': {}, 'id': 'grilled chicken strips', 'src': '/static/foodstim60/grilled chicken strips.jpg', 'key': 'NaN', 'origWidth': 410, 'origHeight': 411, 'width': 410, 'height': 411, 'widthPercent': 0.8, 'rescaleHeight': True, 'trialN': 19, 'loaded': True, 'loadedTime': 3643.699999988079, 'positionName': 'CENTER', 'positionCoords': [515, 244.5]}]",Rate how much you want to eat this food from 0 (least) to 10 (most).,62652.79999998212,1669834281207,grilled chicken strips,1767.4000000059605,True,9.23,64420.19999998808,1767.4000000059605,True,HRV,HRV_0230,2022-11-30 18:53:15
20,"[{'imgObject': {}, 'id': 'popsicles', 'src': '/static/foodstim60/popsicles.jpg', 'key': 'NaN', 'origWidth': 410, 'origHeight': 410, 'width': 410, 'height': 410, 'widthPercent': 0.8, 'rescaleHeight': True, 'trialN': 20, 'loaded': True, 'loadedTime': 3674.7999999821186, 'positionName': 'CENTER', 'positionCoords': [515, 245]}]",Rate how much you want to eat this food from 0 (least) to 10 (most).,64425.0,1669834282980,popsicles,6423.5999999940395,True,5.83,70848.59999999404,6423.5999999940395,True,HRV,HRV_0230,2022-11-30 18:53:15
21,"[{'imgObject': {}, 'id': 'Tribe humus pita', 'src': '/static/foodstim60/Tribe humus pita.jpg', 'key': 'NaN', 'origWidth': 411, 'origHeight': 411, 'width': 411, 'height': 411, 'widthPercent': 0.8, 'rescaleHeight': True, 'trialN': 21, 'loaded': True, 'loadedTime': 3681.899999976158, 'positionName': 'CENTER', 'positionCoords': [514.5, 244.5]}]",Rate how much you want to eat this food from 0 (least) to 10 (most).,70855.79999998212,1669834289410,Tribe humus pita,2856.0999999940395,True,7.0,73711.89999997616,2856.0999999940395,True,HRV,HRV_0230,2022-11-30 18:53:15
22,"[{'imgObject': {}, 'id': 'turkeysandwich', 'src': '/static/foodstim60/turkeysandwich.jpg', 'key': 'NaN', 'origWidth': 409, 'origHeight': 409, 'width': 409, 'height': 409, 'widthPercent': 0.8, 'rescaleHeight': True, 'trialN': 22, 'loaded': True, 'loadedTime': 3685.5999999940395, 'positionName': 'CENTER', 'positionCoords': [515.5, 245.5]}]",Rate how much you want to eat this food from 0 (least) to 10 (most).,73716.0,1669834292271,turkeysandwich,2522.5,True,0.0,76238.5,2522.5,True,HRV,HRV_0230,2022-11-30 18:53:15
23,"[{'imgObject': {}, 'id': 'sweetpotato', 'src': '/static/foodstim60/sweetpotato.jpg', 'key': 'NaN', 'origWidth': 410, 'origHeight': 410, 'width': 410, 'height': 410, 'widthPercent': 0.8, 'rescaleHeight': True, 'trialN': 23, 'loaded': True, 'loadedTime': 3693.5, 'positionName': 'CENTER', 'positionCoords': [515, 245]}]",Rate how much you want to eat this food from 0 (least) to 10 (most).,76243.5,1669834294798,sweetpotato,1982.5999999940395,True,9.05,78226.09999999404,1982.5999999940395,True,HRV,HRV_0230,2022-11-30 18:53:15
24,"[{'imgObject': {}, 'id': 'apple slices', 'src': '/static/foodstim60/apple slices.jpg', 'key': 'NaN', 'origWidth': 409, 'origHeight': 410, 'width': 409, 'height': 410, 'widthPercent': 0.8, 'rescaleHeight': True, 'trialN': 24, 'loaded': True, 'loadedTime': 3702.199999988079, 'positionName': 'CENTER', 'positionCoords': [515.5, 245]}]",Rate how much you want to eat this food from 0 (least) to 10 (most).,78229.09999999404,1669834296784,apple slices,4251.199999988079,True,7.55,82480.29999998212,4251.199999988079,True,HRV,HRV_0230,2022-11-30 18:53:15
25,"[{'imgObject': {}, 'id': 'roastedpotatoes', 'src': '/static/foodstim60/roastedpotatoes.jpg', 'key': 'NaN', 'origWidth': 409, 'origHeight': 410, 'width': 409, 'height': 410, 'widthPercent': 0.8, 'rescaleHeight': True, 'trialN': 25, 'loaded': True, 'loadedTime': 3830.699999988079, 'positionName': 'CENTER', 'positionCoords': [515.5, 245]}]",Rate how much you want to eat this food from 0 (least) to 10 (most).,82484.19999998808,1669834301039,roastedpotatoes,4332.5999999940395,True,4.33,86816.79999998212,4332.5999999940395,True,HRV,HRV_0230,2022-11-30 18:53:15
26,"[{'imgObject': {}, 'id': 'bagel plain', 'src': '/static/foodstim60/bagel plain.jpg', 'key': 'NaN', 'origWidth': 410, 'origHeight': 410, 'width': 410, 'height': 410, 'widthPercent': 0.8, 'rescaleHeight': True, 'trialN': 26, 'loaded': True, 'loadedTime': 3847.7999999821186, 'positionName': 'CENTER', 'positionCoords': [515, 245]}]",Rate how much you want to eat this food from 0 (least) to 10 (most).,86822.09999999404,1669834305377,bagel plain,1680.2999999821186,True,0.27,88502.39999997616,1680.2999999821186,True,HRV,HRV_0230,2022-11-30 18:53:15
27,"[{'imgObject': {}, 'id': 'mango', 'src': '/static/foodstim60/mango.jpg', 'key': 'NaN', 'origWidth': 411, 'origHeight': 411, 'width': 411, 'height': 411, 'widthPercent': 0.8, 'rescaleHeight': True, 'trialN': 27, 'loaded': True, 'loadedTime': 3837.199999988079, 'positionName': 'CENTER', 'positionCoords': [514.5, 244.5]}]",Rate how much you want to eat this food from 0 (least) to 10 (most).,88505.79999998212,1669834307060,mango,2560.0999999940395,True,8.52,91065.89999997616,2560.0999999940395,True,HRV,HRV_0230,2022-11-30 18:53:15
28,"[{'imgObject': {}, 'id': 'granola w milk', 'src': '/static/foodstim60/granola w milk.jpg', 'key': 'NaN', 'origWidth': 410, 'origHeight': 410, 'width': 410, 'height': 410, 'widthPercent': 0.8, 'rescaleHeight': True, 'trialN': 28, 'loaded': True, 'loadedTime': 3828.899999976158, 'positionName': 'CENTER', 'positionCoords': [515, 245]}]",Rate how much you want to eat this food from 0 (least) to 10 (most).,91069.59999999404,1669834309624,granola w milk,2018.199999988079,True,0.0,93087.79999998212,2018.199999988079,True,HRV,HRV_0230,2022-11-30 18:53:15
29,"[{'imgObject': {}, 'id': 'orange slices', 'src': '/static/foodstim60/orange slices.jpg', 'key': 'NaN', 'origWidth': 409, 'origHeight': 410, 'width': 409, 'height': 410, 'widthPercent': 0.8, 'rescaleHeight': True, 'trialN': 29, 'loaded': True, 'loadedTime': 3842.699999988079, 'positionName': 'CENTER', 'positionCoords': [515.5, 245]}]",Rate how much you want to eat this food from 0 (least) to 10 (most).,93092.19999998808,1669834311647,orange slices,1987.699999988079,True,6.5200000000000005,95079.89999997616,1987.699999988079,True,HRV,HRV_0230,2022-11-30 18:53:15
30,"[{'imgObject': {}, 'id': 'shreddedwheatwithmilk', 'src': '/static/foodstim60/shreddedwheatwithmilk.jpg', 'key': 'NaN', 'origWidth': 410, 'origHeight': 410, 'width': 410, 'height': 410, 'widthPercent': 0.8, 'rescaleHeight': True, 'trialN': 30, 'loaded': True, 'loadedTime': 3952.5, 'positionName': 'CENTER', 'positionCoords': [515, 245]}]",Rate how much you want to eat this food from 0 (least) to 10 (most).,95083.89999997616,1669834313639,shreddedwheatwithmilk,2360.600000023842,True,0.02,97444.5,2360.600000023842,True,HRV,HRV_0230,2022-11-30 18:53:15
31,"[{'imgObject': {}, 'id': 'lox', 'src': '/static/foodstim60/lox.jpg', 'key': 'NaN', 'origWidth': 410, 'origHeight': 411, 'width': 410, 'height': 411, 'widthPercent': 0.8, 'rescaleHeight': True, 'trialN': 31, 'loaded': True, 'loadedTime': 3960.2999999821186, 'positionName': 'CENTER', 'positionCoords': [515, 244.5]}]",Rate how much you want to eat this food from 0 (least) to 10 (most).,97452.0,1669834316007,lox,1806.5999999940395,True,0.0,99258.59999999404,1806.5999999940395,True,HRV,HRV_0230,2022-11-30 18:53:15
32,"[{'imgObject': {}, 'id': 'ice cream sundae 002', 'src': '/static/foodstim60/ice cream sundae 002.jpg', 'key': 'NaN', 'origWidth': 409, 'origHeight': 409, 'width': 409, 'height': 409, 'widthPercent': 0.8, 'rescaleHeight': True, 'trialN': 32, 'loaded': True, 'loadedTime': 3993.699999988079, 'positionName': 'CENTER', 'positionCoords': [515.5, 245.5]}]",Rate how much you want to eat this food from 0 (least) to 10 (most).,99274.69999998808,1669834317829,ice cream sundae 002,2941.0999999940395,True,0.06,102215.79999998212,2941.0999999940395,True,HRV,HRV_0230,2022-11-30 18:53:15
33,"[{'imgObject': {}, 'id': 'banana', 'src': '/static/foodstim60/banana.jpg', 'key': 'NaN', 'origWidth': 410, 'origHeight': 410, 'width': 410, 'height': 410, 'widthPercent': 0.8, 'rescaleHeight': True, 'trialN': 33, 'loaded': True, 'loadedTime': 3999.199999988079, 'positionName': 'CENTER', 'positionCoords': [515, 245]}]",Rate how much you want to eat this food from 0 (least) to 10 (most).,102222.0,1669834320777,banana,2550.0,True,4.98,104772.0,2550.0,True,HRV,HRV_0230,2022-11-30 18:53:15
34,"[{'imgObject': {}, 'id': 'corn cob', 'src': '/static/foodstim60/corn cob.jpg', 'key': 'NaN', 'origWidth': 411, 'origHeight': 411, 'width': 411, 'height': 411, 'widthPercent': 0.8, 'rescaleHeight': True, 'trialN': 34, 'loaded': True, 'loadedTime': 4000.699999988079, 'positionName': 'CENTER', 'positionCoords': [514.5, 244.5]}]",Rate how much you want to eat this food from 0 (least) to 10 (most).,104776.59999999404,1669834323331,corn cob,4662.0,True,5.34,109438.59999999404,4662.0,True,HRV,HRV_0230,2022-11-30 18:53:15
35,"[{'imgObject': {}, 'id': 'fruitsalad', 'src': '/static/foodstim60/fruitsalad.jpg', 'key': 'NaN', 'origWidth': 410, 'origHeight': 410, 'width': 410, 'height': 410, 'widthPercent': 0.8, 'rescaleHeight': True, 'trialN': 35, 'loaded': True, 'loadedTime': 4084.899999976158, 'positionName': 'CENTER', 'positionCoords': [515, 245]}]",Rate how much you want to eat this food from 0 (least) to 10 (most).,109442.5,1669834327997,fruitsalad,2813.899999976158,True,7.25,112256.39999997616,2813.899999976158,True,HRV,HRV_0230,2022-11-30 18:53:15
36,"[{'imgObject': {}, 'id': 'steak', 'src': '/static/foodstim60/steak.jpg', 'key': 'NaN', 'origWidth': 410, 'origHeight': 410, 'width': 410, 'height': 410, 'widthPercent': 0.8, 'rescaleHeight': True, 'trialN': 36, 'loaded': True, 'loadedTime': 4092.699999988079, 'positionName': 'CENTER', 'positionCoords': [515, 245]}]",Rate how much you want to eat this food from 0 (least) to 10 (most).,112259.09999999404,1669834330814,steak,2380.7999999821186,True,9.93,114639.89999997616,2380.7999999821186,True,HRV,HRV_0230,2022-11-30 18:53:15
37,"[{'imgObject': {}, 'id': 'cherry tomato', 'src': '/static/foodstim60/cherry tomato.jpg', 'key': 'NaN', 'origWidth': 410, 'origHeight': 410, 'width': 410, 'height': 410, 'widthPercent': 0.8, 'rescaleHeight': True, 'trialN': 37, 'loaded': True, 'loadedTime': 4102.299999982119, 'positionName': 'CENTER', 'positionCoords': [515, 245]}]",Rate how much you want to eat this food from 0 (least) to 10 (most).,114644.5,1669834333200,cherry tomato,2576.0999999940395,True,0.0,117220.59999999404,2576.0999999940395,True,HRV,HRV_0230,2022-11-30 18:53:15
38,"[{'imgObject': {}, 'id': 'eggs', 'src': '/static/foodstim60/eggs.jpg', 'key': 'NaN', 'origWidth': 409, 'origHeight': 409, 'width': 409, 'height': 409, 'widthPercent': 0.8, 'rescaleHeight': True, 'trialN': 38, 'loaded': True, 'loadedTime': 4107.5999999940395, 'positionName': 'CENTER', 'positionCoords': [515.5, 245.5]}]",Rate how much you want to eat this food from 0 (least) to 10 (most).,117226.29999998212,1669834335782,eggs,1916.5,True,9.02,119142.79999998212,1916.5,True,HRV,HRV_0230,2022-11-30 18:53:15
39,"[{'imgObject': {}, 'id': 'cheerios', 'src': '/static/foodstim60/cheerios.jpg', 'key': 'NaN', 'origWidth': 409, 'origHeight': 410, 'width': 409, 'height': 410, 'widthPercent': 0.8, 'rescaleHeight': True, 'trialN': 39, 'loaded': True, 'loadedTime': 4114.5999999940395, 'positionName': 'CENTER', 'positionCoords': [515.5, 245]}]",Rate how much you want to eat this food from 0 (least) to 10 (most).,119147.39999997616,1669834337703,cheerios,2983.300000011921,True,0.13,122130.69999998808,2983.300000011921,True,HRV,HRV_0230,2022-11-30 18:53:15
40,"[{'imgObject': {}, 'id': 'turkey sandwich', 'src': '/static/foodstim60/turkey sandwich.jpg', 'key': 'NaN', 'origWidth': 409, 'origHeight': 409, 'width': 409, 'height': 409, 'widthPercent': 0.8, 'rescaleHeight': True, 'trialN': 40, 'loaded': True, 'loadedTime': 4223.799999982119, 'positionName': 'CENTER', 'positionCoords': [515.5, 245.5]}]",Rate how much you want to eat this food from 0 (least) to 10 (most).,122135.59999999404,1669834340691,turkey sandwich,3497.0,True,0.0,125632.59999999404,3497.0,True,HRV,HRV_0230,2022-11-30 18:53:15
41,"[{'imgObject': {}, 'id': 'luckycharms', 'src': '/static/foodstim60/luckycharms.jpg', 'key': 'NaN', 'origWidth': 410, 'origHeight': 409, 'width': 410, 'height': 409, 'widthPercent': 0.8, 'rescaleHeight': True, 'trialN': 41, 'loaded': True, 'loadedTime': 4225.5, 'positionName': 'CENTER', 'positionCoords': [515, 245.5]}]",Rate how much you want to eat this food from 0 (least) to 10 (most).,125637.59999999404,1669834344193,luckycharms,2613.0,True,0.09,128250.59999999404,2613.0,True,HRV,HRV_0230,2022-11-30 18:53:15
42,"[{'imgObject': {}, 'id': 'raspberries', 'src': '/static/foodstim60/raspberries.jpg', 'key': 'NaN', 'origWidth': 411, 'origHeight': 411, 'width': 411, 'height': 411, 'widthPercent': 0.8, 'rescaleHeight': True, 'trialN': 42, 'loaded': True, 'loadedTime': 4292.399999976158, 'positionName': 'CENTER', 'positionCoords': [514.5, 244.5]}]",Rate how much you want to eat this food from 0 (least) to 10 (most).,128255.39999997616,1669834346811,raspberries,3284.5,True,5.93,131539.89999997616,3284.5,True,HRV,HRV_0230,2022-11-30 18:53:15
43,"[{'imgObject': {}, 'id': 'rigatoni and sauce', 'src': '/static/foodstim60/rigatoni and sauce.jpg', 'key': 'NaN', 'origWidth': 410, 'origHeight': 411, 'width': 410, 'height': 411, 'widthPercent': 0.8, 'rescaleHeight': True, 'trialN': 43, 'loaded': True, 'loadedTime': 4317.0999999940395, 'positionName': 'CENTER', 'positionCoords': [515, 244.5]}]",Rate how much you want to eat this food from 0 (least) to 10 (most).,131543.0,1669834350098,rigatoni and sauce,3027.5999999940395,True,0.0,134570.59999999404,3027.5999999940395,True,HRV,HRV_0230,2022-11-30 18:53:15
44,"[{'imgObject': {}, 'id': 'chickenfingers', 'src': '/static/foodstim60/chickenfingers.jpg', 'key': 'NaN', 'origWidth': 410, 'origHeight': 410, 'width': 410, 'height': 410, 'widthPercent': 0.8, 'rescaleHeight': True, 'trialN': 44, 'loaded': True, 'loadedTime': 4228, 'positionName': 'CENTER', 'positionCoords': [515, 245]}]",Rate how much you want to eat this food from 0 (least) to 10 (most).,134576.89999997616,1669834353132,chickenfingers,2927.7000000178814,True,9.13,137504.59999999404,2927.7000000178814,True,HRV,HRV_0230,2022-11-30 18:53:15
45,"[{'imgObject': {}, 'id': 'avocado', 'src': '/static/foodstim60/avocado.jpg', 'key': 'NaN', 'origWidth': 409, 'origHeight': 409, 'width': 409, 'height': 409, 'widthPercent': 0.8, 'rescaleHeight': True, 'trialN': 45, 'loaded': True, 'loadedTime': 4465.799999982119, 'positionName': 'CENTER', 'positionCoords': [515.5, 245.5]}]",Rate how much you want to eat this food from 0 (least) to 10 (most).,137511.39999997616,1669834356067,avocado,2167.2000000178814,True,9.75,139678.59999999404,2167.2000000178814,True,HRV,HRV_0230,2022-11-30 18:53:15
46,"[{'imgObject': {}, 'id': 'cocktailshrimp', 'src': '/static/foodstim60/cocktailshrimp.jpg', 'key': 'NaN', 'origWidth': 410, 'origHeight': 410, 'width': 410, 'height': 410, 'widthPercent': 0.8, 'rescaleHeight': True, 'trialN': 46, 'loaded': True, 'loadedTime': 4483.199999988079, 'positionName': 'CENTER', 'positionCoords': [515, 245]}]",Rate how much you want to eat this food from 0 (least) to 10 (most).,139684.59999999404,1669834358240,cocktailshrimp,2110.0,True,8.69,141794.59999999404,2110.0,True,HRV,HRV_0230,2022-11-30 18:53:15
47,"[{'imgObject': {}, 'id': 'yogurt no spoon', 'src': '/static/foodstim60/yogurt no spoon.jpg', 'key': 'NaN', 'origWidth': 411, 'origHeight': 410, 'width': 411, 'height': 410, 'widthPercent': 0.8, 'rescaleHeight': True, 'trialN': 47, 'loaded': True, 'loadedTime': 4533.5999999940395, 'positionName': 'CENTER', 'positionCoords': [514.5, 245]}]",Rate how much you want to eat this food from 0 (least) to 10 (most).,141801.29999998212,1669834360357,yogurt no spoon,4151.200000017881,True,2.36,145952.5,4151.200000017881,True,HRV,HRV_0230,2022-11-30 18:53:15
48,"[{'imgObject': {}, 'id': 'cherries', 'src': '/static/foodstim60/cherries.jpg', 'key': 'NaN', 'origWidth': 410, 'origHeight': 411, 'width': 410, 'height': 411, 'widthPercent': 0.8, 'rescaleHeight': True, 'trialN': 48, 'loaded': True, 'loadedTime': 4555.299999982119, 'positionName': 'CENTER', 'positionCoords': [515, 244.5]}]",Rate how much you want to eat this food from 0 (least) to 10 (most).,145959.19999998808,1669834364514,cherries,2003.4000000059605,True,7.13,147962.59999999404,2003.4000000059605,True,HRV,HRV_0230,2022-11-30 18:53:15
49,"[{'imgObject': {}, 'id': 'froot loops w milk', 'src': '/static/foodstim60/froot loops w milk.jpg', 'key': 'NaN', 'origWidth': 410, 'origHeight': 410, 'width': 410, 'height': 410, 'widthPercent': 0.8, 'rescaleHeight': True, 'trialN': 49, 'loaded': True, 'loadedTime': 4583.299999982119, 'positionName': 'CENTER', 'positionCoords': [515, 245]}]",Rate how much you want to eat this food from 0 (least) to 10 (most).,147970.09999999404,1669834366525,froot loops w milk,2352.5,True,0.0,150322.59999999404,2352.5,True,HRV,HRV_0230,2022-11-30 18:53:15
50,"[{'imgObject': {}, 'id': 'eggsalad', 'src': '/static/foodstim60/eggsalad.jpg', 'key': 'NaN', 'origWidth': 410, 'origHeight': 409, 'width': 410, 'height': 409, 'widthPercent': 0.8, 'rescaleHeight': True, 'trialN': 50, 'loaded': True, 'loadedTime': 4829.5999999940395, 'positionName': 'CENTER', 'positionCoords': [515, 245.5]}]",Rate how much you want to eat this food from 0 (least) to 10 (most).,150327.19999998808,1669834368882,eggsalad,2773.300000011921,True,8.86,153100.5,2773.300000011921,True,HRV,HRV_0230,2022-11-30 18:53:15
51,"[{'imgObject': {}, 'id': 'blackbeanswithrice', 'src': '/static/foodstim60/blackbeanswithrice.jpg', 'key': 'NaN', 'origWidth': 410, 'origHeight': 410, 'width': 410, 'height': 410, 'widthPercent': 0.8, 'rescaleHeight': True, 'trialN': 51, 'loaded': True, 'loadedTime': 4855.199999988079, 'positionName': 'CENTER', 'positionCoords': [515, 245]}]",Rate how much you want to eat this food from 0 (least) to 10 (most).,153108.19999998808,1669834371664,blackbeanswithrice,2208.0,True,9.11,155316.19999998808,2208.0,True,HRV,HRV_0230,2022-11-30 18:53:15
52,"[{'imgObject': {}, 'id': 'cantaloupe', 'src': '/static/foodstim60/cantaloupe.jpg', 'key': 'NaN', 'origWidth': 409, 'origHeight': 409, 'width': 409, 'height': 409, 'widthPercent': 0.8, 'rescaleHeight': True, 'trialN': 52, 'loaded': True, 'loadedTime': 5239.899999976158, 'positionName': 'CENTER', 'positionCoords': [515.5, 245.5]}]",Rate how much you want to eat this food from 0 (least) to 10 (most).,155325.59999999404,1669834373881,cantaloupe,2291.0,True,10.0,157616.59999999404,2291.0,True,HRV,HRV_0230,2022-11-30 18:53:15
53,"[{'imgObject': {}, 'id': 'tacos', 'src': '/static/foodstim60/tacos.jpg', 'key': 'NaN', 'origWidth': 411, 'origHeight': 411, 'width': 411, 'height': 411, 'widthPercent': 0.8, 'rescaleHeight': True, 'trialN': 53, 'loaded': True, 'loadedTime': 4827.899999976158, 'positionName': 'CENTER', 'positionCoords': [514.5, 244.5]}]",Rate how much you want to eat this food from 0 (least) to 10 (most).,157620.69999998808,1669834376176,tacos,2783.0999999940395,True,6.41,160403.79999998212,2783.0999999940395,True,HRV,HRV_0230,2022-11-30 18:53:15
54,"[{'imgObject': {}, 'id': 'strawberries', 'src': '/static/foodstim60/strawberries.jpg', 'key': 'NaN', 'origWidth': 410, 'origHeight': 410, 'width': 410, 'height': 410, 'widthPercent': 0.8, 'rescaleHeight': True, 'trialN': 54, 'loaded': True, 'loadedTime': 4869.399999976158, 'positionName': 'CENTER', 'positionCoords': [515, 245]}]",Rate how much you want to eat this food from 0 (least) to 10 (most).,160407.29999998212,1669834378963,strawberries,1989.300000011921,True,7.91,162396.59999999404,1989.300000011921,True,HRV,HRV_0230,2022-11-30 18:53:15
55,"[{'imgObject': {}, 'id': 'mashed potato', 'src': '/static/foodstim60/mashed potato.jpg', 'key': 'NaN', 'origWidth': 409, 'origHeight': 409, 'width': 409, 'height': 409, 'widthPercent': 0.8, 'rescaleHeight': True, 'trialN': 55, 'loaded': True, 'loadedTime': 5254.5999999940395, 'positionName': 'CENTER', 'positionCoords': [515.5, 245.5]}]",Rate how much you want to eat this food from 0 (least) to 10 (most).,162404.0,1669834380959,mashed potato,3490.5999999940395,True,0.11,165894.59999999404,3490.5999999940395,True,HRV,HRV_0230,2022-11-30 18:53:15
56,"[{'imgObject': {}, 'id': 'raisin bran w milk', 'src': '/static/foodstim60/raisin bran w milk.jpg', 'key': 'NaN', 'origWidth': 411, 'origHeight': 411, 'width': 411, 'height': 411, 'widthPercent': 0.8, 'rescaleHeight': True, 'trialN': 56, 'loaded': True, 'loadedTime': 4845.899999976158, 'positionName': 'CENTER', 'positionCoords': [514.5, 244.5]}]",Rate how much you want to eat this food from 0 (least) to 10 (most).,165899.69999998808,1669834384455,raisin bran w milk,1612.5999999940395,True,0.0,167512.29999998212,1612.5999999940395,True,HRV,HRV_0230,2022-11-30 18:53:15
57,"[{'imgObject': {}, 'id': 'blueberries', 'src': '/static/foodstim60/blueberries.jpg', 'key': 'NaN', 'origWidth': 411, 'origHeight': 411, 'width': 411, 'height': 411, 'widthPercent': 0.8, 'rescaleHeight': True, 'trialN': 57, 'loaded': True, 'loadedTime': 5256.5, 'positionName': 'CENTER', 'positionCoords': [514.5, 244.5]}]",Rate how much you want to eat this food from 0 (least) to 10 (most).,167526.59999999404,1669834386082,blueberries,3045.4000000059605,True,7.5200000000000005,170572.0,3045.4000000059605,True,HRV,HRV_0230,2022-11-30 18:53:15
58,"[{'imgObject': {}, 'id': 'sushi w_condiments', 'src': '/static/foodstim60/sushi w_condiments.jpg', 'key': 'NaN', 'origWidth': 410, 'origHeight': 410, 'width': 410, 'height': 410, 'widthPercent': 0.8, 'rescaleHeight': True, 'trialN': 58, 'loaded': True, 'loadedTime': 5249.899999976158, 'positionName': 'CENTER', 'positionCoords': [515, 245]}]",Rate how much you want to eat this food from 0 (least) to 10 (most).,170575.39999997616,1669834389131,sushi w_condiments,2880.5,True,10.0,173455.89999997616,2880.5,True,HRV,HRV_0230,2022-11-30 18:53:15
59,"[{'imgObject': {}, 'id': 'burrito', 'src': '/static/foodstim60/burrito.jpg', 'key': 'NaN', 'origWidth': 410, 'origHeight': 410, 'width': 410, 'height': 410, 'widthPercent': 0.8, 'rescaleHeight': True, 'trialN': 59, 'loaded': True, 'loadedTime': 5258.5, 'positionName': 'CENTER', 'positionCoords': [515, 245]}]",Rate how much you want to eat this food from 0 (least) to 10 (most).,173459.19999998808,1669834392014,burrito,3214.9000000059605,True,0.06,176674.09999999404,3214.9000000059605,True,HRV,HRV_0230,2022-11-30 18:53:15
