trialN,stimuli,trialStartTime,trialStartTime_UNIX,stimulus1,stimulus2,stimulus1Bid,stimulus2Bid,delta,selected,rsp,rt,rt_UNIX,receivedResponse,trialEndTime,trialDuration,trialEndTime_UNIX,trialDuration_UNIX,rt_perfnow,exp,subjectId,date
0,"[{'imgObject': {}, 'id': 'strawberries', 'src': '/static/foodstim60/strawberries.jpg', 'key': 'u', 'origWidth': 410, 'origHeight': 410, 'width': 410, 'height': 410, 'widthPercent': 0.45, 'rescaleHeight': False, 'trialN': 0, 'loaded': True, 'loadedTime': 2506, 'positionName': 'LEFT', 'positionCoords': [560.08, 363], 'bid': 9.5}, {'imgObject': {}, 'id': 'burger', 'src': '/static/foodstim60/burger.jpg', 'key': 'i', 'origWidth': 409, 'origHeight': 409, 'width': 409, 'height': 409, 'widthPercent': 0.45, 'rescaleHeight': False, 'trialN': 0, 'loaded': True, 'loadedTime': 2520, 'positionName': 'RIGHT', 'positionCoords': [1050.92, 363.5], 'bid': 9.7}]",2841.4000000003725,1669830137494,strawberries,burger,9.5,9.7,0.1999999999999993,NaN,NaN,NaN,NaN,False,6879.299999998882,4037.89999999851,1669830141532,4038,,HRV,HRV_0041,2022-11-30 17:47:43
1,"[{'imgObject': {}, 'id': 'burrito', 'src': '/static/foodstim60/burrito.jpg', 'key': 'u', 'origWidth': 410, 'origHeight': 410, 'width': 410, 'height': 410, 'widthPercent': 0.45, 'rescaleHeight': False, 'trialN': 1, 'loaded': True, 'loadedTime': 2651.5, 'positionName': 'LEFT', 'positionCoords': [560.08, 363], 'bid': 7.07}, {'imgObject': {}, 'id': 'turkey sandwich', 'src': '/static/foodstim60/turkey sandwich.jpg', 'key': 'i', 'origWidth': 409, 'origHeight': 409, 'width': 409, 'height': 409, 'widthPercent': 0.45, 'rescaleHeight': False, 'trialN': 1, 'loaded': True, 'loadedTime': 2677.699999999255, 'positionName': 'RIGHT', 'positionCoords': [1050.92, 363.5], 'bid': 7.33}]",6879.5,1669830141532,burrito,turkey sandwich,7.07,7.33,0.2599999999999998,burrito,u,1835.0999999996275,1835,True,9226.900000000373,2347.4000000003725,1669830143879,2347,1835.4000000003725,HRV,HRV_0041,2022-11-30 17:47:43
2,"[{'imgObject': {}, 'id': 'popsicles', 'src': '/static/foodstim60/popsicles.jpg', 'key': 'u', 'origWidth': 410, 'origHeight': 410, 'width': 410, 'height': 410, 'widthPercent': 0.45, 'rescaleHeight': False, 'trialN': 2, 'loaded': True, 'loadedTime': 2687, 'positionName': 'LEFT', 'positionCoords': [560.08, 363], 'bid': 6.29}, {'imgObject': {}, 'id': 'corn cob', 'src': '/static/foodstim60/corn cob.jpg', 'key': 'i', 'origWidth': 411, 'origHeight': 411, 'width': 411, 'height': 411, 'widthPercent': 0.45, 'rescaleHeight': False, 'trialN': 2, 'loaded': True, 'loadedTime': 2703.9000000003725, 'positionName': 'RIGHT', 'positionCoords': [1050.92, 362.5], 'bid': 6.92}]",9227.099999999627,1669830143879,popsicles,corn cob,6.29,6.92,0.6299999999999999,corn cob,i,1149.5,1150,True,10882.599999999627,1655.5,1669830145535,1656,1149.9000000003725,HRV,HRV_0041,2022-11-30 17:47:43
3,"[{'imgObject': {}, 'id': 'orange slices', 'src': '/static/foodstim60/orange slices.jpg', 'key': 'u', 'origWidth': 409, 'origHeight': 410, 'width': 409, 'height': 410, 'widthPercent': 0.45, 'rescaleHeight': False, 'trialN': 3, 'loaded': True, 'loadedTime': 2725, 'positionName': 'LEFT', 'positionCoords': [561.08, 363], 'bid': 8.92}, {'imgObject': {}, 'id': 'grilled chicken strips', 'src': '/static/foodstim60/grilled chicken strips.jpg', 'key': 'i', 'origWidth': 410, 'origHeight': 411, 'width': 410, 'height': 411, 'widthPercent': 0.45, 'rescaleHeight': False, 'trialN': 3, 'loaded': True, 'loadedTime': 2731.4000000003725, 'positionName': 'RIGHT', 'positionCoords': [1050.92, 362.5], 'bid': 8.88}]",10882.699999999255,1669830145535,orange slices,grilled chicken strips,8.92,8.88,-0.03999999999999915,grilled chicken strips,i,1184,1184,True,12581.0,1698.300000000745,1669830147233,1698,1184.300000000745,HRV,HRV_0041,2022-11-30 17:47:43
4,"[{'imgObject': {}, 'id': 'chicken nuggets2', 'src': '/static/foodstim60/chicken nuggets2.jpg', 'key': 'u', 'origWidth': 410, 'origHeight': 409, 'width': 410, 'height': 409, 'widthPercent': 0.45, 'rescaleHeight': False, 'trialN': 4, 'loaded': True, 'loadedTime': 2736.2999999988824, 'positionName': 'LEFT', 'positionCoords': [560.08, 363.5], 'bid': 5.96}, {'imgObject': {}, 'id': 'mac & cheese', 'src': '/static/foodstim60/mac & cheese.jpg', 'key': 'i', 'origWidth': 410, 'origHeight': 410, 'width': 410, 'height': 410, 'widthPercent': 0.45, 'rescaleHeight': False, 'trialN': 4, 'loaded': True, 'loadedTime': 2542.4000000003725, 'positionName': 'RIGHT', 'positionCoords': [1050.92, 363], 'bid': 7.35}]",12581.199999999255,1669830147234,chicken nuggets2,mac & cheese,5.96,7.35,1.3899999999999997,mac & cheese,i,1309.5,1309,True,14413.299999998882,1832.0999999996275,1669830149066,1832,1309.7000000011176,HRV,HRV_0041,2022-11-30 17:47:43
5,"[{'imgObject': {}, 'id': 'orange slices', 'src': '/static/foodstim60/orange slices.jpg', 'key': 'u', 'origWidth': 409, 'origHeight': 410, 'width': 409, 'height': 410, 'widthPercent': 0.45, 'rescaleHeight': False, 'trialN': 5, 'loaded': True, 'loadedTime': 2724.9000000003725, 'positionName': 'LEFT', 'positionCoords': [561.08, 363], 'bid': 8.92}, {'imgObject': {}, 'id': 'rigatoni and sauce', 'src': '/static/foodstim60/rigatoni and sauce.jpg', 'key': 'i', 'origWidth': 410, 'origHeight': 411, 'width': 410, 'height': 411, 'widthPercent': 0.45, 'rescaleHeight': False, 'trialN': 5, 'loaded': True, 'loadedTime': 2639.5999999996275, 'positionName': 'RIGHT', 'positionCoords': [1050.92, 362.5], 'bid': 2.13}]",14413.5,1669830149066,orange slices,rigatoni and sauce,8.92,2.13,-6.79,rigatoni and sauce,i,1244.9000000003725,1245,True,16168.699999999255,1755.199999999255,1669830150821,1755,1245.0999999996275,HRV,HRV_0041,2022-11-30 17:47:43
6,"[{'imgObject': {}, 'id': 'salad w chicken', 'src': '/static/foodstim60/salad w chicken.jpg', 'key': 'u', 'origWidth': 411, 'origHeight': 411, 'width': 411, 'height': 411, 'widthPercent': 0.45, 'rescaleHeight': False, 'trialN': 6, 'loaded': True, 'loadedTime': 2647.9000000003725, 'positionName': 'LEFT', 'positionCoords': [559.08, 362.5], 'bid': 9.08}, {'imgObject': {}, 'id': 'Grapes', 'src': '/static/foodstim60/Grapes.jpg', 'key': 'i', 'origWidth': 411, 'origHeight': 411, 'width': 411, 'height': 411, 'widthPercent': 0.45, 'rescaleHeight': False, 'trialN': 6, 'loaded': True, 'loadedTime': 2656.0999999996275, 'positionName': 'RIGHT', 'positionCoords': [1050.92, 362.5], 'bid': 9.1}]",16169.0,1669830150821,salad w chicken,Grapes,9.08,9.1,0.019999999999999574,salad w chicken,u,1449.5,1450,True,18132.400000000373,1963.4000000003725,1669830152785,1964,1449.9000000003725,HRV,HRV_0041,2022-11-30 17:47:43
7,"[{'imgObject': {}, 'id': 'fruitsalad', 'src': '/static/foodstim60/fruitsalad.jpg', 'key': 'u', 'origWidth': 410, 'origHeight': 410, 'width': 410, 'height': 410, 'widthPercent': 0.45, 'rescaleHeight': False, 'trialN': 7, 'loaded': True, 'loadedTime': 2658, 'positionName': 'LEFT', 'positionCoords': [560.08, 363], 'bid': 9.9}, {'imgObject': {}, 'id': 'mashed potato', 'src': '/static/foodstim60/mashed potato.jpg', 'key': 'i', 'origWidth': 409, 'origHeight': 409, 'width': 409, 'height': 409, 'widthPercent': 0.45, 'rescaleHeight': False, 'trialN': 7, 'loaded': True, 'loadedTime': 2661.699999999255, 'positionName': 'RIGHT', 'positionCoords': [1050.92, 363.5], 'bid': 7.27}]",18132.599999999627,1669830152785,fruitsalad,mashed potato,9.9,7.27,-2.630000000000001,fruitsalad,u,1710,1710,True,20354.199999999255,2221.5999999996275,1669830155007,2222,1710.199999999255,HRV,HRV_0041,2022-11-30 17:47:43
8,"[{'imgObject': {}, 'id': 'turkey sandwich', 'src': '/static/foodstim60/turkey sandwich.jpg', 'key': 'u', 'origWidth': 409, 'origHeight': 409, 'width': 409, 'height': 409, 'widthPercent': 0.45, 'rescaleHeight': False, 'trialN': 8, 'loaded': True, 'loadedTime': 2677.7999999988824, 'positionName': 'LEFT', 'positionCoords': [561.08, 363.5], 'bid': 7.33}, {'imgObject': {}, 'id': 'salmon', 'src': '/static/foodstim60/salmon.jpg', 'key': 'i', 'origWidth': 410, 'origHeight': 409, 'width': 410, 'height': 409, 'widthPercent': 0.45, 'rescaleHeight': False, 'trialN': 8, 'loaded': True, 'loadedTime': 2665.5, 'positionName': 'RIGHT', 'positionCoords': [1050.92, 363.5], 'bid': 0.44}]",20354.400000000373,1669830155007,turkey sandwich,salmon,7.33,0.44,-6.89,turkey sandwich,u,1276.2999999988824,1276,True,22148.0,1793.5999999996275,1669830156800,1793,1276.5999999996275,HRV,HRV_0041,2022-11-30 17:47:43
9,"[{'imgObject': {}, 'id': 'sushi w_condiments', 'src': '/static/foodstim60/sushi w_condiments.jpg', 'key': 'u', 'origWidth': 410, 'origHeight': 410, 'width': 410, 'height': 410, 'widthPercent': 0.45, 'rescaleHeight': False, 'trialN': 9, 'loaded': True, 'loadedTime': 2666.699999999255, 'positionName': 'LEFT', 'positionCoords': [560.08, 363], 'bid': 9.61}, {'imgObject': {}, 'id': 'kiwi', 'src': '/static/foodstim60/kiwi.jpg', 'key': 'i', 'origWidth': 410, 'origHeight': 410, 'width': 410, 'height': 410, 'widthPercent': 0.45, 'rescaleHeight': False, 'trialN': 9, 'loaded': True, 'loadedTime': 2691.2999999988824, 'positionName': 'RIGHT', 'positionCoords': [1050.92, 363], 'bid': 9.31}]",22148.299999998882,1669830156801,sushi w_condiments,kiwi,9.61,9.31,-0.29999999999999893,sushi w_condiments,u,1142.1000000014901,1142,True,23804.199999999255,1655.9000000003725,1669830158457,1656,1142.4000000003725,HRV,HRV_0041,2022-11-30 17:47:43
10,"[{'imgObject': {}, 'id': 'Grapes', 'src': '/static/foodstim60/Grapes.jpg', 'key': 'u', 'origWidth': 411, 'origHeight': 411, 'width': 411, 'height': 411, 'widthPercent': 0.45, 'rescaleHeight': False, 'trialN': 10, 'loaded': True, 'loadedTime': 2656.0999999996275, 'positionName': 'LEFT', 'positionCoords': [559.08, 362.5], 'bid': 9.1}, {'imgObject': {}, 'id': 'ice cream sundae 002', 'src': '/static/foodstim60/ice cream sundae 002.jpg', 'key': 'i', 'origWidth': 409, 'origHeight': 409, 'width': 409, 'height': 409, 'widthPercent': 0.45, 'rescaleHeight': False, 'trialN': 10, 'loaded': True, 'loadedTime': 2691.4000000003725, 'positionName': 'RIGHT', 'positionCoords': [1050.92, 363.5], 'bid': 9.2}]",23804.400000000373,1669830158457,Grapes,ice cream sundae 002,9.1,9.2,0.09999999999999964,Grapes,u,1054.2999999988824,1054,True,25379.5,1575.0999999996275,1669830160032,1575,1054.5999999996275,HRV,HRV_0041,2022-11-30 17:47:43
11,"[{'imgObject': {}, 'id': 'seaweed', 'src': '/static/foodstim60/seaweed.jpg', 'key': 'u', 'origWidth': 410, 'origHeight': 410, 'width': 410, 'height': 410, 'widthPercent': 0.45, 'rescaleHeight': False, 'trialN': 11, 'loaded': True, 'loadedTime': 2695.699999999255, 'positionName': 'LEFT', 'positionCoords': [560.08, 363], 'bid': 0.91}, {'imgObject': {}, 'id': 'rigatoni and sauce', 'src': '/static/foodstim60/rigatoni and sauce.jpg', 'key': 'i', 'origWidth': 410, 'origHeight': 411, 'width': 410, 'height': 411, 'widthPercent': 0.45, 'rescaleHeight': False, 'trialN': 11, 'loaded': True, 'loadedTime': 2608.5, 'positionName': 'RIGHT', 'positionCoords': [1050.92, 362.5], 'bid': 2.13}]",25379.599999999627,1669830160032,seaweed,rigatoni and sauce,0.91,2.13,1.2199999999999998,rigatoni and sauce,i,959,959,True,26851.5,1471.9000000003725,1669830161504,1472,959.4000000003725,HRV,HRV_0041,2022-11-30 17:47:43
12,"[{'imgObject': {}, 'id': 'mashed potato', 'src': '/static/foodstim60/mashed potato.jpg', 'key': 'u', 'origWidth': 409, 'origHeight': 409, 'width': 409, 'height': 409, 'widthPercent': 0.45, 'rescaleHeight': False, 'trialN': 12, 'loaded': True, 'loadedTime': 2660.5999999996275, 'positionName': 'LEFT', 'positionCoords': [561.08, 363.5], 'bid': 7.27}, {'imgObject': {}, 'id': 'pear', 'src': '/static/foodstim60/pear.jpg', 'key': 'i', 'origWidth': 411, 'origHeight': 410, 'width': 411, 'height': 410, 'widthPercent': 0.45, 'rescaleHeight': False, 'trialN': 12, 'loaded': True, 'loadedTime': 2700.199999999255, 'positionName': 'RIGHT', 'positionCoords': [1050.92, 363], 'bid': 8.76}]",26851.699999999255,1669830161504,mashed potato,pear,7.27,8.76,1.4900000000000002,mashed potato,u,1678.9000000003725,1679,True,29052.299999998882,2200.5999999996275,1669830163705,2201,1679.300000000745,HRV,HRV_0041,2022-11-30 17:47:43
13,"[{'imgObject': {}, 'id': 'grilled chicken strips', 'src': '/static/foodstim60/grilled chicken strips.jpg', 'key': 'u', 'origWidth': 410, 'origHeight': 411, 'width': 410, 'height': 411, 'widthPercent': 0.45, 'rescaleHeight': False, 'trialN': 13, 'loaded': True, 'loadedTime': 2731.4000000003725, 'positionName': 'LEFT', 'positionCoords': [560.08, 362.5], 'bid': 8.88}, {'imgObject': {}, 'id': 'cantaloupe', 'src': '/static/foodstim60/cantaloupe.jpg', 'key': 'i', 'origWidth': 409, 'origHeight': 409, 'width': 409, 'height': 409, 'widthPercent': 0.45, 'rescaleHeight': False, 'trialN': 13, 'loaded': True, 'loadedTime': 2706.199999999255, 'positionName': 'RIGHT', 'positionCoords': [1050.92, 363.5], 'bid': 9.39}]",29052.5,1669830163705,grilled chicken strips,cantaloupe,8.88,9.39,0.5099999999999998,cantaloupe,i,1102.0999999996275,1102,True,30667.0,1614.5,1669830165319,1614,1102.4000000003725,HRV,HRV_0041,2022-11-30 17:47:43
14,"[{'imgObject': {}, 'id': 'bagel plain', 'src': '/static/foodstim60/bagel plain.jpg', 'key': 'u', 'origWidth': 410, 'origHeight': 410, 'width': 410, 'height': 410, 'widthPercent': 0.45, 'rescaleHeight': False, 'trialN': 14, 'loaded': True, 'loadedTime': 2709.0999999996275, 'positionName': 'LEFT', 'positionCoords': [560.08, 363], 'bid': 0.76}, {'imgObject': {}, 'id': 'yogurt no spoon', 'src': '/static/foodstim60/yogurt no spoon.jpg', 'key': 'i', 'origWidth': 411, 'origHeight': 410, 'width': 411, 'height': 410, 'widthPercent': 0.45, 'rescaleHeight': False, 'trialN': 14, 'loaded': True, 'loadedTime': 2711.2999999988824, 'positionName': 'RIGHT', 'positionCoords': [1050.92, 363], 'bid': 7.74}]",30667.099999999627,1669830165319,bagel plain,yogurt no spoon,0.76,7.74,6.98,yogurt no spoon,i,1022.0999999996275,1023,True,32202.799999998882,1535.699999999255,1669830166855,1536,1022.4000000003725,HRV,HRV_0041,2022-11-30 17:47:43
15,"[{'imgObject': {}, 'id': 'burger', 'src': '/static/foodstim60/burger.jpg', 'key': 'u', 'origWidth': 409, 'origHeight': 409, 'width': 409, 'height': 409, 'widthPercent': 0.45, 'rescaleHeight': False, 'trialN': 15, 'loaded': True, 'loadedTime': 2518.0999999996275, 'positionName': 'LEFT', 'positionCoords': [561.08, 363.5], 'bid': 9.7}, {'imgObject': {}, 'id': 'ice cream sundae 002', 'src': '/static/foodstim60/ice cream sundae 002.jpg', 'key': 'i', 'origWidth': 409, 'origHeight': 409, 'width': 409, 'height': 409, 'widthPercent': 0.45, 'rescaleHeight': False, 'trialN': 15, 'loaded': True, 'loadedTime': 2693.4000000003725, 'positionName': 'RIGHT', 'positionCoords': [1050.92, 363.5], 'bid': 9.2}]",32203.0,1669830166855,burger,ice cream sundae 002,9.7,9.2,-0.5,burger,u,1247.5999999996275,1248,True,33968.40000000037,1765.4000000003725,1669830168621,1766,1248.0,HRV,HRV_0041,2022-11-30 17:47:43
16,"[{'imgObject': {}, 'id': 'fruitsalad', 'src': '/static/foodstim60/fruitsalad.jpg', 'key': 'u', 'origWidth': 410, 'origHeight': 410, 'width': 410, 'height': 410, 'widthPercent': 0.45, 'rescaleHeight': False, 'trialN': 16, 'loaded': True, 'loadedTime': 2658.5, 'positionName': 'LEFT', 'positionCoords': [560.08, 363], 'bid': 9.9}, {'imgObject': {}, 'id': 'apple slices', 'src': '/static/foodstim60/apple slices.jpg', 'key': 'i', 'origWidth': 409, 'origHeight': 410, 'width': 409, 'height': 410, 'widthPercent': 0.45, 'rescaleHeight': False, 'trialN': 16, 'loaded': True, 'loadedTime': 2728.699999999255, 'positionName': 'RIGHT', 'positionCoords': [1050.92, 363], 'bid': 9.32}]",33968.59999999963,1669830168621,fruitsalad,apple slices,9.9,9.32,-0.5800000000000001,fruitsalad,u,1346.0999999996275,1346,True,35828.5,1859.9000000003725,1669830170481,1860,1346.5,HRV,HRV_0041,2022-11-30 17:47:43
17,"[{'imgObject': {}, 'id': 'seaweed', 'src': '/static/foodstim60/seaweed.jpg', 'key': 'u', 'origWidth': 410, 'origHeight': 410, 'width': 410, 'height': 410, 'widthPercent': 0.45, 'rescaleHeight': False, 'trialN': 17, 'loaded': True, 'loadedTime': 2695.7999999988824, 'positionName': 'LEFT', 'positionCoords': [560.08, 363], 'bid': 0.91}, {'imgObject': {}, 'id': 'shreddedwheatwithmilk', 'src': '/static/foodstim60/shreddedwheatwithmilk.jpg', 'key': 'i', 'origWidth': 410, 'origHeight': 410, 'width': 410, 'height': 410, 'widthPercent': 0.45, 'rescaleHeight': False, 'trialN': 17, 'loaded': True, 'loadedTime': 2731.9000000003725, 'positionName': 'RIGHT', 'positionCoords': [1050.92, 363], 'bid': 8.06}]",35828.79999999888,1669830170481,seaweed,shreddedwheatwithmilk,0.91,8.06,7.15,shreddedwheatwithmilk,i,1070.1000000014901,1071,True,37414.40000000037,1585.6000000014901,1669830172067,1586,1070.5,HRV,HRV_0041,2022-11-30 17:47:43
18,"[{'imgObject': {}, 'id': 'baked potato', 'src': '/static/foodstim60/baked potato.jpg', 'key': 'u', 'origWidth': 409, 'origHeight': 410, 'width': 409, 'height': 410, 'widthPercent': 0.45, 'rescaleHeight': False, 'trialN': 18, 'loaded': True, 'loadedTime': 2738.199999999255, 'positionName': 'LEFT', 'positionCoords': [561.08, 363], 'bid': 8.120000000000001}, {'imgObject': {}, 'id': 'strawberries', 'src': '/static/foodstim60/strawberries.jpg', 'key': 'i', 'origWidth': 410, 'origHeight': 410, 'width': 410, 'height': 410, 'widthPercent': 0.45, 'rescaleHeight': False, 'trialN': 18, 'loaded': True, 'loadedTime': 2510.699999999255, 'positionName': 'RIGHT', 'positionCoords': [1050.92, 363], 'bid': 9.5}]",37414.59999999963,1669830172067,baked potato,strawberries,8.120000000000001,9.5,1.379999999999999,baked potato,u,1252,1252,True,39175.59999999963,1761.0,1669830173828,1761,1252.4000000003725,HRV,HRV_0041,2022-11-30 17:47:43
19,"[{'imgObject': {}, 'id': 'blueberries', 'src': '/static/foodstim60/blueberries.jpg', 'key': 'u', 'origWidth': 411, 'origHeight': 411, 'width': 411, 'height': 411, 'widthPercent': 0.45, 'rescaleHeight': False, 'trialN': 19, 'loaded': True, 'loadedTime': 2741.7999999988824, 'positionName': 'LEFT', 'positionCoords': [559.08, 362.5], 'bid': 5.69}, {'imgObject': {}, 'id': 'mac & cheese', 'src': '/static/foodstim60/mac & cheese.jpg', 'key': 'i', 'origWidth': 410, 'origHeight': 410, 'width': 410, 'height': 410, 'widthPercent': 0.45, 'rescaleHeight': False, 'trialN': 19, 'loaded': True, 'loadedTime': 2578.0999999996275, 'positionName': 'RIGHT', 'positionCoords': [1050.92, 363], 'bid': 7.35}]",39175.79999999888,1669830173828,blueberries,mac & cheese,5.69,7.35,1.6599999999999993,mac & cheese,i,1042.800000000745,1043,True,40728.699999999255,1552.9000000003725,1669830175381,1553,1042.9000000003725,HRV,HRV_0041,2022-11-30 17:47:43
20,"[{'imgObject': {}, 'id': 'mango', 'src': '/static/foodstim60/mango.jpg', 'key': 'u', 'origWidth': 411, 'origHeight': 411, 'width': 411, 'height': 411, 'widthPercent': 0.45, 'rescaleHeight': False, 'trialN': 20, 'loaded': True, 'loadedTime': 2744.699999999255, 'positionName': 'LEFT', 'positionCoords': [559.08, 362.5], 'bid': 5.26}, {'imgObject': {}, 'id': 'kiwi', 'src': '/static/foodstim60/kiwi.jpg', 'key': 'i', 'origWidth': 410, 'origHeight': 410, 'width': 410, 'height': 410, 'widthPercent': 0.45, 'rescaleHeight': False, 'trialN': 20, 'loaded': True, 'loadedTime': 2689.7999999988824, 'positionName': 'RIGHT', 'positionCoords': [1050.92, 363], 'bid': 9.31}]",40728.79999999888,1669830175381,mango,kiwi,5.26,9.31,4.050000000000001,kiwi,i,1478,1478,True,42723.199999999255,1994.4000000003725,1669830177376,1995,1478.2000000011176,HRV,HRV_0041,2022-11-30 17:47:43
21,"[{'imgObject': {}, 'id': 'avocado', 'src': '/static/foodstim60/avocado.jpg', 'key': 'u', 'origWidth': 409, 'origHeight': 409, 'width': 409, 'height': 409, 'widthPercent': 0.45, 'rescaleHeight': False, 'trialN': 21, 'loaded': True, 'loadedTime': 2748.5999999996275, 'positionName': 'LEFT', 'positionCoords': [561.08, 363.5], 'bid': 1.85}, {'imgObject': {}, 'id': 'salmon', 'src': '/static/foodstim60/salmon.jpg', 'key': 'i', 'origWidth': 410, 'origHeight': 409, 'width': 410, 'height': 409, 'widthPercent': 0.45, 'rescaleHeight': False, 'trialN': 21, 'loaded': True, 'loadedTime': 2666.199999999255, 'positionName': 'RIGHT', 'positionCoords': [1050.92, 363.5], 'bid': 0.44}]",42723.40000000037,1669830177376,avocado,salmon,1.85,0.44,-1.4100000000000001,avocado,u,1063.3999999985099,1063,True,44305.79999999888,1582.3999999985099,1669830178958,1582,1063.5999999996275,HRV,HRV_0041,2022-11-30 17:47:43
22,"[{'imgObject': {}, 'id': 'sweetpotato', 'src': '/static/foodstim60/sweetpotato.jpg', 'key': 'u', 'origWidth': 410, 'origHeight': 410, 'width': 410, 'height': 410, 'widthPercent': 0.45, 'rescaleHeight': False, 'trialN': 22, 'loaded': True, 'loadedTime': 2751.9000000003725, 'positionName': 'LEFT', 'positionCoords': [560.08, 363], 'bid': 9.65}, {'imgObject': {}, 'id': 'chicken nuggets2', 'src': '/static/foodstim60/chicken nuggets2.jpg', 'key': 'i', 'origWidth': 410, 'origHeight': 409, 'width': 410, 'height': 409, 'widthPercent': 0.45, 'rescaleHeight': False, 'trialN': 22, 'loaded': True, 'loadedTime': 2735.4000000003725, 'positionName': 'RIGHT', 'positionCoords': [1050.92, 363.5], 'bid': 5.96}]",44306.0,1669830178958,sweetpotato,chicken nuggets2,9.65,5.96,-3.6900000000000004,sweetpotato,u,1048.4000000003725,1049,True,45870.40000000037,1564.4000000003725,1669830180523,1565,1048.7999999988824,HRV,HRV_0041,2022-11-30 17:47:43
23,"[{'imgObject': {}, 'id': 'rigatoni and sauce', 'src': '/static/foodstim60/rigatoni and sauce.jpg', 'key': 'u', 'origWidth': 410, 'origHeight': 411, 'width': 410, 'height': 411, 'widthPercent': 0.45, 'rescaleHeight': False, 'trialN': 23, 'loaded': True, 'loadedTime': 2609.2999999988824, 'positionName': 'LEFT', 'positionCoords': [560.08, 362.5], 'bid': 2.13}, {'imgObject': {}, 'id': 'cherry tomato', 'src': '/static/foodstim60/cherry tomato.jpg', 'key': 'i', 'origWidth': 410, 'origHeight': 410, 'width': 410, 'height': 410, 'widthPercent': 0.45, 'rescaleHeight': False, 'trialN': 23, 'loaded': True, 'loadedTime': 2757.4000000003725, 'positionName': 'RIGHT', 'positionCoords': [1050.92, 363], 'bid': 1.74}]",45870.59999999963,1669830180523,rigatoni and sauce,cherry tomato,2.13,1.74,-0.3899999999999999,rigatoni and sauce,u,1004,1004,True,47396.59999999963,1526.0,1669830182049,1526,1004.5,HRV,HRV_0041,2022-11-30 17:47:43
24,"[{'imgObject': {}, 'id': 'lox', 'src': '/static/foodstim60/lox.jpg', 'key': 'u', 'origWidth': 410, 'origHeight': 411, 'width': 410, 'height': 411, 'widthPercent': 0.45, 'rescaleHeight': False, 'trialN': 24, 'loaded': True, 'loadedTime': 2758.9000000003725, 'positionName': 'LEFT', 'positionCoords': [560.08, 362.5], 'bid': 0.66}, {'imgObject': {}, 'id': 'cocktailshrimp', 'src': '/static/foodstim60/cocktailshrimp.jpg', 'key': 'i', 'origWidth': 410, 'origHeight': 410, 'width': 410, 'height': 410, 'widthPercent': 0.45, 'rescaleHeight': False, 'trialN': 24, 'loaded': True, 'loadedTime': 2765.4000000003725, 'positionName': 'RIGHT', 'positionCoords': [1050.92, 363], 'bid': 1.4}]",47396.699999999255,1669830182049,lox,cocktailshrimp,0.66,1.4,0.7399999999999999,cocktailshrimp,i,949.5999999996275,950,True,48863.0,1466.300000000745,1669830183515,1466,949.8000000007451,HRV,HRV_0041,2022-11-30 17:47:43
25,"[{'imgObject': {}, 'id': 'olives', 'src': '/static/foodstim60/olives.jpg', 'key': 'u', 'origWidth': 410, 'origHeight': 410, 'width': 410, 'height': 410, 'widthPercent': 0.45, 'rescaleHeight': False, 'trialN': 25, 'loaded': True, 'loadedTime': 2768.199999999255, 'positionName': 'LEFT', 'positionCoords': [560.08, 363], 'bid': 1.19}, {'imgObject': {}, 'id': 'edamame', 'src': '/static/foodstim60/edamame.jpg', 'key': 'i', 'origWidth': 409, 'origHeight': 410, 'width': 409, 'height': 410, 'widthPercent': 0.45, 'rescaleHeight': False, 'trialN': 25, 'loaded': True, 'loadedTime': 2770.7999999988824, 'positionName': 'RIGHT', 'positionCoords': [1050.92, 363], 'bid': 4.24}]",48863.09999999963,1669830183516,olives,edamame,1.19,4.24,3.0500000000000003,edamame,i,1091.5,1091,True,50464.79999999888,1601.699999999255,1669830185117,1601,1091.800000000745,HRV,HRV_0041,2022-11-30 17:47:43
26,"[{'imgObject': {}, 'id': 'burger', 'src': '/static/foodstim60/burger.jpg', 'key': 'u', 'origWidth': 409, 'origHeight': 409, 'width': 409, 'height': 409, 'widthPercent': 0.45, 'rescaleHeight': False, 'trialN': 26, 'loaded': True, 'loadedTime': 2519.0999999996275, 'positionName': 'LEFT', 'positionCoords': [561.08, 363.5], 'bid': 9.7}, {'imgObject': {}, 'id': 'roastedpotatoes', 'src': '/static/foodstim60/roastedpotatoes.jpg', 'key': 'i', 'origWidth': 409, 'origHeight': 410, 'width': 409, 'height': 410, 'widthPercent': 0.45, 'rescaleHeight': False, 'trialN': 26, 'loaded': True, 'loadedTime': 2773.7999999988824, 'positionName': 'RIGHT', 'positionCoords': [1050.92, 363], 'bid': 8.950000000000001}]",50465.09999999963,1669830185117,burger,roastedpotatoes,9.7,8.950000000000001,-0.7499999999999982,roastedpotatoes,i,1529.699999999255,1530,True,52503.699999999255,2038.5999999996275,1669830187156,2039,1529.9000000003725,HRV,HRV_0041,2022-11-30 17:47:43
27,"[{'imgObject': {}, 'id': 'edamame', 'src': '/static/foodstim60/edamame.jpg', 'key': 'u', 'origWidth': 409, 'origHeight': 410, 'width': 409, 'height': 410, 'widthPercent': 0.45, 'rescaleHeight': False, 'trialN': 27, 'loaded': True, 'loadedTime': 2769.2999999988824, 'positionName': 'LEFT', 'positionCoords': [561.08, 363], 'bid': 4.24}, {'imgObject': {}, 'id': 'lox', 'src': '/static/foodstim60/lox.jpg', 'key': 'i', 'origWidth': 410, 'origHeight': 411, 'width': 410, 'height': 411, 'widthPercent': 0.45, 'rescaleHeight': False, 'trialN': 27, 'loaded': True, 'loadedTime': 2757.7999999988824, 'positionName': 'RIGHT', 'positionCoords': [1050.92, 362.5], 'bid': 0.66}]",52503.79999999888,1669830187156,edamame,lox,4.24,0.66,-3.58,edamame,u,944.6000000014901,945,True,53951.5,1447.7000000011176,1669830188604,1448,944.8000000007451,HRV,HRV_0041,2022-11-30 17:47:43
28,"[{'imgObject': {}, 'id': 'bagel and cc', 'src': '/static/foodstim60/bagel and cc.jpg', 'key': 'u', 'origWidth': 410, 'origHeight': 410, 'width': 410, 'height': 410, 'widthPercent': 0.45, 'rescaleHeight': False, 'trialN': 28, 'loaded': True, 'loadedTime': 2776.0999999996275, 'positionName': 'LEFT', 'positionCoords': [560.08, 363], 'bid': 0.6900000000000001}, {'imgObject': {}, 'id': 'rigatoni', 'src': '/static/foodstim60/rigatoni.jpg', 'key': 'i', 'origWidth': 411, 'origHeight': 411, 'width': 411, 'height': 411, 'widthPercent': 0.45, 'rescaleHeight': False, 'trialN': 28, 'loaded': True, 'loadedTime': 2779.7999999988824, 'positionName': 'RIGHT', 'positionCoords': [1050.92, 362.5], 'bid': 2.88}]",53951.699999999255,1669830188604,bagel and cc,rigatoni,0.6900000000000001,2.88,2.19,rigatoni,i,1146.9000000003725,1147,True,55611.09999999963,1659.4000000003725,1669830190264,1660,1147.0999999996275,HRV,HRV_0041,2022-11-30 17:47:43
29,"[{'imgObject': {}, 'id': 'fruitsalad', 'src': '/static/foodstim60/fruitsalad.jpg', 'key': 'u', 'origWidth': 410, 'origHeight': 410, 'width': 410, 'height': 410, 'widthPercent': 0.45, 'rescaleHeight': False, 'trialN': 29, 'loaded': True, 'loadedTime': 2657.9000000003725, 'positionName': 'LEFT', 'positionCoords': [560.08, 363], 'bid': 9.9}, {'imgObject': {}, 'id': 'salad w chicken', 'src': '/static/foodstim60/salad w chicken.jpg', 'key': 'i', 'origWidth': 411, 'origHeight': 411, 'width': 411, 'height': 411, 'widthPercent': 0.45, 'rescaleHeight': False, 'trialN': 29, 'loaded': True, 'loadedTime': 2648.4000000003725, 'positionName': 'RIGHT', 'positionCoords': [1050.92, 362.5], 'bid': 9.08}]",55611.29999999888,1669830190264,fruitsalad,salad w chicken,9.9,9.08,-0.8200000000000003,salad w chicken,i,1447.1000000014901,1447,True,57567.59999999963,1956.300000000745,1669830192220,1956,1447.5,HRV,HRV_0041,2022-11-30 17:47:43
30,"[{'imgObject': {}, 'id': 'corn cob', 'src': '/static/foodstim60/corn cob.jpg', 'key': 'u', 'origWidth': 411, 'origHeight': 411, 'width': 411, 'height': 411, 'widthPercent': 0.45, 'rescaleHeight': False, 'trialN': 30, 'loaded': True, 'loadedTime': 2703.2999999988824, 'positionName': 'LEFT', 'positionCoords': [559.08, 362.5], 'bid': 6.92}, {'imgObject': {}, 'id': 'chickenfingers', 'src': '/static/foodstim60/chickenfingers.jpg', 'key': 'i', 'origWidth': 410, 'origHeight': 410, 'width': 410, 'height': 410, 'widthPercent': 0.45, 'rescaleHeight': False, 'trialN': 30, 'loaded': True, 'loadedTime': 2782.0999999996275, 'positionName': 'RIGHT', 'positionCoords': [1050.92, 363], 'bid': 8.28}]",57567.699999999255,1669830192220,corn cob,chickenfingers,6.92,8.28,1.3599999999999994,chickenfingers,i,1298.800000000745,1299,True,59379.90000000037,1812.2000000011176,1669830194032,1812,1299.2000000011176,HRV,HRV_0041,2022-11-30 17:47:43
31,"[{'imgObject': {}, 'id': 'banana', 'src': '/static/foodstim60/banana.jpg', 'key': 'u', 'origWidth': 410, 'origHeight': 410, 'width': 410, 'height': 410, 'widthPercent': 0.45, 'rescaleHeight': False, 'trialN': 31, 'loaded': True, 'loadedTime': 2783.7999999988824, 'positionName': 'LEFT', 'positionCoords': [560.08, 363], 'bid': 9.89}, {'imgObject': {}, 'id': 'raisin bran w milk', 'src': '/static/foodstim60/raisin bran w milk.jpg', 'key': 'i', 'origWidth': 411, 'origHeight': 411, 'width': 411, 'height': 411, 'widthPercent': 0.45, 'rescaleHeight': False, 'trialN': 31, 'loaded': True, 'loadedTime': 2787.4000000003725, 'positionName': 'RIGHT', 'positionCoords': [1050.92, 362.5], 'bid': 9.52}]",59380.09999999963,1669830194033,banana,raisin bran w milk,9.89,9.52,-0.370000000000001,raisin bran w milk,i,1494.5999999996275,1494,True,61396.79999999888,2016.699999999255,1669830196049,2016,1494.9000000003725,HRV,HRV_0041,2022-11-30 17:47:43
32,"[{'imgObject': {}, 'id': 'cherries', 'src': '/static/foodstim60/cherries.jpg', 'key': 'u', 'origWidth': 410, 'origHeight': 411, 'width': 410, 'height': 411, 'widthPercent': 0.45, 'rescaleHeight': False, 'trialN': 32, 'loaded': True, 'loadedTime': 2789.699999999255, 'positionName': 'LEFT', 'positionCoords': [560.08, 362.5], 'bid': 5.3500000000000005}, {'imgObject': {}, 'id': 'Tribe humus pita', 'src': '/static/foodstim60/Tribe humus pita.jpg', 'key': 'i', 'origWidth': 411, 'origHeight': 411, 'width': 411, 'height': 411, 'widthPercent': 0.45, 'rescaleHeight': False, 'trialN': 32, 'loaded': True, 'loadedTime': 2795.0999999996275, 'positionName': 'RIGHT', 'positionCoords': [1050.92, 362.5], 'bid': 0.88}]",61396.90000000037,1669830196049,cherries,Tribe humus pita,5.3500000000000005,0.88,-4.470000000000001,cherries,u,1525.5999999996275,1526,True,63434.09999999963,2037.199999999255,1669830198087,2038,1526.0,HRV,HRV_0041,2022-11-30 17:47:43
33,"[{'imgObject': {}, 'id': 'eggsalad', 'src': '/static/foodstim60/eggsalad.jpg', 'key': 'u', 'origWidth': 410, 'origHeight': 409, 'width': 410, 'height': 409, 'widthPercent': 0.45, 'rescaleHeight': False, 'trialN': 33, 'loaded': True, 'loadedTime': 2797, 'positionName': 'LEFT', 'positionCoords': [560.08, 363.5], 'bid': 5.71}, {'imgObject': {}, 'id': 'turkeysandwich', 'src': '/static/foodstim60/turkeysandwich.jpg', 'key': 'i', 'origWidth': 409, 'origHeight': 409, 'width': 409, 'height': 409, 'widthPercent': 0.45, 'rescaleHeight': False, 'trialN': 33, 'loaded': True, 'loadedTime': 2804.5, 'positionName': 'RIGHT', 'positionCoords': [1050.92, 363.5], 'bid': 5.43}]",63434.199999999255,1669830198087,eggsalad,turkeysandwich,5.71,5.43,-0.28000000000000025,turkeysandwich,i,1246.5,1247,True,65185.29999999888,1751.0999999996275,1669830199838,1751,1246.800000000745,HRV,HRV_0041,2022-11-30 17:47:43
34,"[{'imgObject': {}, 'id': 'froot loops w milk', 'src': '/static/foodstim60/froot loops w milk.jpg', 'key': 'u', 'origWidth': 410, 'origHeight': 410, 'width': 410, 'height': 410, 'widthPercent': 0.45, 'rescaleHeight': False, 'trialN': 34, 'loaded': True, 'loadedTime': 2807.9000000003725, 'positionName': 'LEFT', 'positionCoords': [560.08, 363], 'bid': 8.540000000000001}, {'imgObject': {}, 'id': 'salad w chicken', 'src': '/static/foodstim60/salad w chicken.jpg', 'key': 'i', 'origWidth': 411, 'origHeight': 411, 'width': 411, 'height': 411, 'widthPercent': 0.45, 'rescaleHeight': False, 'trialN': 34, 'loaded': True, 'loadedTime': 2649.699999999255, 'positionName': 'RIGHT', 'positionCoords': [1050.92, 362.5], 'bid': 9.08}]",65185.5,1669830199838,froot loops w milk,salad w chicken,8.540000000000001,9.08,0.5399999999999991,salad w chicken,i,1305.2999999988824,1306,True,67007.59999999963,1822.0999999996275,1669830201660,1822,1305.699999999255,HRV,HRV_0041,2022-11-30 17:47:43
35,"[{'imgObject': {}, 'id': 'cheerios', 'src': '/static/foodstim60/cheerios.jpg', 'key': 'u', 'origWidth': 409, 'origHeight': 410, 'width': 409, 'height': 410, 'widthPercent': 0.45, 'rescaleHeight': False, 'trialN': 35, 'loaded': True, 'loadedTime': 2809.9000000003725, 'positionName': 'LEFT', 'positionCoords': [561.08, 363], 'bid': 9.19}, {'imgObject': {}, 'id': 'steak', 'src': '/static/foodstim60/steak.jpg', 'key': 'i', 'origWidth': 410, 'origHeight': 410, 'width': 410, 'height': 410, 'widthPercent': 0.45, 'rescaleHeight': False, 'trialN': 35, 'loaded': True, 'loadedTime': 2810.699999999255, 'positionName': 'RIGHT', 'positionCoords': [1050.92, 363], 'bid': 9.66}]",67007.79999999888,1669830201660,cheerios,steak,9.19,9.66,0.47000000000000064,steak,i,1042.800000000745,1043,True,68559.59999999963,1551.800000000745,1669830203212,1552,1043.2000000011176,HRV,HRV_0041,2022-11-30 17:47:43
36,"[{'imgObject': {}, 'id': 'turkey sandwich', 'src': '/static/foodstim60/turkey sandwich.jpg', 'key': 'u', 'origWidth': 409, 'origHeight': 409, 'width': 409, 'height': 409, 'widthPercent': 0.45, 'rescaleHeight': False, 'trialN': 36, 'loaded': True, 'loadedTime': 2677.9000000003725, 'positionName': 'LEFT', 'positionCoords': [561.08, 363.5], 'bid': 7.33}, {'imgObject': {}, 'id': 'mac & cheese', 'src': '/static/foodstim60/mac & cheese.jpg', 'key': 'i', 'origWidth': 410, 'origHeight': 410, 'width': 410, 'height': 410, 'widthPercent': 0.45, 'rescaleHeight': False, 'trialN': 36, 'loaded': True, 'loadedTime': 2578.5, 'positionName': 'RIGHT', 'positionCoords': [1050.92, 363], 'bid': 7.35}]",68559.79999999888,1669830203212,turkey sandwich,mac & cheese,7.33,7.35,0.019999999999999574,turkey sandwich,u,1203,1204,True,70280.29999999888,1720.5,1669830204933,1721,1203.2000000011176,HRV,HRV_0041,2022-11-30 17:47:43
37,"[{'imgObject': {}, 'id': 'turkeysandwich', 'src': '/static/foodstim60/turkeysandwich.jpg', 'key': 'u', 'origWidth': 409, 'origHeight': 409, 'width': 409, 'height': 409, 'widthPercent': 0.45, 'rescaleHeight': False, 'trialN': 37, 'loaded': True, 'loadedTime': 2806.199999999255, 'positionName': 'LEFT', 'positionCoords': [561.08, 363.5], 'bid': 5.43}, {'imgObject': {}, 'id': 'seaweed', 'src': '/static/foodstim60/seaweed.jpg', 'key': 'i', 'origWidth': 410, 'origHeight': 410, 'width': 410, 'height': 410, 'widthPercent': 0.45, 'rescaleHeight': False, 'trialN': 37, 'loaded': True, 'loadedTime': 2696.2999999988824, 'positionName': 'RIGHT', 'positionCoords': [1050.92, 363], 'bid': 0.91}]",70280.40000000037,1669830204933,turkeysandwich,seaweed,5.43,0.91,-4.52,turkeysandwich,u,922.1999999992549,922,True,71719.19999999925,1438.7999999988824,1669830206372,1439,922.5999999996275,HRV,HRV_0041,2022-11-30 17:47:43
38,"[{'imgObject': {}, 'id': 'cantaloupe', 'src': '/static/foodstim60/cantaloupe.jpg', 'key': 'u', 'origWidth': 409, 'origHeight': 409, 'width': 409, 'height': 409, 'widthPercent': 0.45, 'rescaleHeight': False, 'trialN': 38, 'loaded': True, 'loadedTime': 2705.699999999255, 'positionName': 'LEFT', 'positionCoords': [561.08, 363.5], 'bid': 9.39}, {'imgObject': {}, 'id': 'turkeysandwich', 'src': '/static/foodstim60/turkeysandwich.jpg', 'key': 'i', 'origWidth': 409, 'origHeight': 409, 'width': 409, 'height': 409, 'widthPercent': 0.45, 'rescaleHeight': False, 'trialN': 38, 'loaded': True, 'loadedTime': 2806.0999999996275, 'positionName': 'RIGHT', 'positionCoords': [1050.92, 363.5], 'bid': 5.43}]",71719.29999999888,1669830206372,cantaloupe,turkeysandwich,9.39,5.43,-3.960000000000001,cantaloupe,u,1035.300000000745,1035,True,73263.0,1543.7000000011176,1669830207915,1543,1035.5,HRV,HRV_0041,2022-11-30 17:47:43
39,"[{'imgObject': {}, 'id': 'raisin bran w milk', 'src': '/static/foodstim60/raisin bran w milk.jpg', 'key': 'u', 'origWidth': 411, 'origHeight': 411, 'width': 411, 'height': 411, 'widthPercent': 0.45, 'rescaleHeight': False, 'trialN': 39, 'loaded': True, 'loadedTime': 2786.7999999988824, 'positionName': 'LEFT', 'positionCoords': [559.08, 362.5], 'bid': 9.52}, {'imgObject': {}, 'id': 'sushi w_condiments', 'src': '/static/foodstim60/sushi w_condiments.jpg', 'key': 'i', 'origWidth': 410, 'origHeight': 410, 'width': 410, 'height': 410, 'widthPercent': 0.45, 'rescaleHeight': False, 'trialN': 39, 'loaded': True, 'loadedTime': 2669.199999999255, 'positionName': 'RIGHT', 'positionCoords': [1050.92, 363], 'bid': 9.61}]",73263.19999999925,1669830207916,raisin bran w milk,sushi w_condiments,9.52,9.61,0.08999999999999986,sushi w_condiments,i,963.3000000007451,963,True,74738.09999999963,1474.9000000003725,1669830209391,1475,963.5999999996275,HRV,HRV_0041,2022-11-30 17:47:43
40,"[{'imgObject': {}, 'id': 'luckycharms', 'src': '/static/foodstim60/luckycharms.jpg', 'key': 'u', 'origWidth': 410, 'origHeight': 409, 'width': 410, 'height': 409, 'widthPercent': 0.45, 'rescaleHeight': False, 'trialN': 40, 'loaded': True, 'loadedTime': 2812.9000000003725, 'positionName': 'LEFT', 'positionCoords': [560.08, 363.5], 'bid': 9.54}, {'imgObject': {}, 'id': 'fruitsalad', 'src': '/static/foodstim60/fruitsalad.jpg', 'key': 'i', 'origWidth': 410, 'origHeight': 410, 'width': 410, 'height': 410, 'widthPercent': 0.45, 'rescaleHeight': False, 'trialN': 40, 'loaded': True, 'loadedTime': 2659, 'positionName': 'RIGHT', 'positionCoords': [1050.92, 363], 'bid': 9.9}]",74738.29999999888,1669830209391,luckycharms,fruitsalad,9.54,9.9,0.3600000000000012,fruitsalad,i,1011.2000000011176,1011,True,76267.59999999963,1529.300000000745,1669830210920,1529,1011.6000000014901,HRV,HRV_0041,2022-11-30 17:47:43
41,"[{'imgObject': {}, 'id': 'tacos', 'src': '/static/foodstim60/tacos.jpg', 'key': 'u', 'origWidth': 411, 'origHeight': 411, 'width': 411, 'height': 411, 'widthPercent': 0.45, 'rescaleHeight': False, 'trialN': 41, 'loaded': True, 'loadedTime': 2817.0999999996275, 'positionName': 'LEFT', 'positionCoords': [559.08, 362.5], 'bid': 4.07}, {'imgObject': {}, 'id': 'rigatoni', 'src': '/static/foodstim60/rigatoni.jpg', 'key': 'i', 'origWidth': 411, 'origHeight': 411, 'width': 411, 'height': 411, 'widthPercent': 0.45, 'rescaleHeight': False, 'trialN': 41, 'loaded': True, 'loadedTime': 2777.9000000003725, 'positionName': 'RIGHT', 'positionCoords': [1050.92, 362.5], 'bid': 2.88}]",76267.79999999888,1669830210920,tacos,rigatoni,4.07,2.88,-1.1900000000000004,tacos,u,1478.7000000011176,1479,True,78267.09999999963,1999.300000000745,1669830212920,2000,1479.1000000014901,HRV,HRV_0041,2022-11-30 17:47:43
42,"[{'imgObject': {}, 'id': 'cheerios', 'src': '/static/foodstim60/cheerios.jpg', 'key': 'u', 'origWidth': 409, 'origHeight': 410, 'width': 409, 'height': 410, 'widthPercent': 0.45, 'rescaleHeight': False, 'trialN': 42, 'loaded': True, 'loadedTime': 2809.7999999988824, 'positionName': 'LEFT', 'positionCoords': [561.08, 363], 'bid': 9.19}, {'imgObject': {}, 'id': 'salad w chicken', 'src': '/static/foodstim60/salad w chicken.jpg', 'key': 'i', 'origWidth': 411, 'origHeight': 411, 'width': 411, 'height': 411, 'widthPercent': 0.45, 'rescaleHeight': False, 'trialN': 42, 'loaded': True, 'loadedTime': 2648.9000000003725, 'positionName': 'RIGHT', 'positionCoords': [1050.92, 362.5], 'bid': 9.08}]",78267.29999999888,1669830212920,cheerios,salad w chicken,9.19,9.08,-0.10999999999999943,salad w chicken,i,1047.2000000011176,1047,True,79828.79999999888,1561.5,1669830214481,1561,1047.5,HRV,HRV_0041,2022-11-30 17:47:43
43,"[{'imgObject': {}, 'id': 'pear', 'src': '/static/foodstim60/pear.jpg', 'key': 'u', 'origWidth': 411, 'origHeight': 410, 'width': 411, 'height': 410, 'widthPercent': 0.45, 'rescaleHeight': False, 'trialN': 43, 'loaded': True, 'loadedTime': 2700, 'positionName': 'LEFT', 'positionCoords': [559.08, 363], 'bid': 8.76}, {'imgObject': {}, 'id': 'sushi w_condiments', 'src': '/static/foodstim60/sushi w_condiments.jpg', 'key': 'i', 'origWidth': 410, 'origHeight': 410, 'width': 410, 'height': 410, 'widthPercent': 0.45, 'rescaleHeight': False, 'trialN': 43, 'loaded': True, 'loadedTime': 2667.9000000003725, 'positionName': 'RIGHT', 'positionCoords': [1050.92, 363], 'bid': 9.61}]",79829.0,1669830214481,pear,sushi w_condiments,8.76,9.61,0.8499999999999996,sushi w_condiments,i,1021.6999999992549,1023,True,81364.69999999925,1535.699999999255,1669830216017,1536,1022.0,HRV,HRV_0041,2022-11-30 17:47:43
44,"[{'imgObject': {}, 'id': 'grilled chicken strips', 'src': '/static/foodstim60/grilled chicken strips.jpg', 'key': 'u', 'origWidth': 410, 'origHeight': 411, 'width': 410, 'height': 411, 'widthPercent': 0.45, 'rescaleHeight': False, 'trialN': 44, 'loaded': True, 'loadedTime': 2730.5999999996275, 'positionName': 'LEFT', 'positionCoords': [560.08, 362.5], 'bid': 8.88}, {'imgObject': {}, 'id': 'roastedpotatoes', 'src': '/static/foodstim60/roastedpotatoes.jpg', 'key': 'i', 'origWidth': 409, 'origHeight': 410, 'width': 409, 'height': 410, 'widthPercent': 0.45, 'rescaleHeight': False, 'trialN': 44, 'loaded': True, 'loadedTime': 2773.9000000003725, 'positionName': 'RIGHT', 'positionCoords': [1050.92, 363], 'bid': 8.950000000000001}]",81364.79999999888,1669830216017,grilled chicken strips,roastedpotatoes,8.88,8.950000000000001,0.07000000000000028,roastedpotatoes,i,1253.9000000003725,1255,True,83123.0,1758.2000000011176,1669830217776,1759,1254.300000000745,HRV,HRV_0041,2022-11-30 17:47:43
45,"[{'imgObject': {}, 'id': 'tacos', 'src': '/static/foodstim60/tacos.jpg', 'key': 'u', 'origWidth': 411, 'origHeight': 411, 'width': 411, 'height': 411, 'widthPercent': 0.45, 'rescaleHeight': False, 'trialN': 45, 'loaded': True, 'loadedTime': 2815.199999999255, 'positionName': 'LEFT', 'positionCoords': [559.08, 362.5], 'bid': 4.07}, {'imgObject': {}, 'id': 'Tribe humus pita', 'src': '/static/foodstim60/Tribe humus pita.jpg', 'key': 'i', 'origWidth': 411, 'origHeight': 411, 'width': 411, 'height': 411, 'widthPercent': 0.45, 'rescaleHeight': False, 'trialN': 45, 'loaded': True, 'loadedTime': 2795.699999999255, 'positionName': 'RIGHT', 'positionCoords': [1050.92, 362.5], 'bid': 0.88}]",83123.19999999925,1669830217776,tacos,Tribe humus pita,4.07,0.88,-3.1900000000000004,tacos,u,1151.2000000011176,1151,True,84787.19999999925,1664.0,1669830219440,1664,1151.5999999996275,HRV,HRV_0041,2022-11-30 17:47:43
46,"[{'imgObject': {}, 'id': 'hotdog w must', 'src': '/static/foodstim60/hotdog w must.jpg', 'key': 'u', 'origWidth': 409, 'origHeight': 409, 'width': 409, 'height': 409, 'widthPercent': 0.45, 'rescaleHeight': False, 'trialN': 46, 'loaded': True, 'loadedTime': 2819.5, 'positionName': 'LEFT', 'positionCoords': [561.08, 363.5], 'bid': 3.86}, {'imgObject': {}, 'id': 'bagel plain', 'src': '/static/foodstim60/bagel plain.jpg', 'key': 'i', 'origWidth': 410, 'origHeight': 410, 'width': 410, 'height': 410, 'widthPercent': 0.45, 'rescaleHeight': False, 'trialN': 46, 'loaded': True, 'loadedTime': 2706.699999999255, 'positionName': 'RIGHT', 'positionCoords': [1050.92, 363], 'bid': 0.76}]",84787.40000000037,1669830219440,hotdog w must,bagel plain,3.86,0.76,-3.0999999999999996,hotdog w must,u,1181.0999999996275,1181,True,86476.5,1689.0999999996275,1669830221129,1689,1181.5,HRV,HRV_0041,2022-11-30 17:47:43
47,"[{'imgObject': {}, 'id': 'cherries', 'src': '/static/foodstim60/cherries.jpg', 'key': 'u', 'origWidth': 410, 'origHeight': 411, 'width': 410, 'height': 411, 'widthPercent': 0.45, 'rescaleHeight': False, 'trialN': 47, 'loaded': True, 'loadedTime': 2788.5999999996275, 'positionName': 'LEFT', 'positionCoords': [560.08, 362.5], 'bid': 5.3500000000000005}, {'imgObject': {}, 'id': 'cherry tomato', 'src': '/static/foodstim60/cherry tomato.jpg', 'key': 'i', 'origWidth': 410, 'origHeight': 410, 'width': 410, 'height': 410, 'widthPercent': 0.45, 'rescaleHeight': False, 'trialN': 47, 'loaded': True, 'loadedTime': 2752.9000000003725, 'positionName': 'RIGHT', 'positionCoords': [1050.92, 363], 'bid': 1.74}]",86476.69999999925,1669830221129,cherries,cherry tomato,5.3500000000000005,1.74,-3.6100000000000003,cherries,u,1173.9000000003725,1174,True,88169.90000000037,1693.2000000011176,1669830222822,1693,1174.2000000011176,HRV,HRV_0041,2022-11-30 17:47:43
48,"[{'imgObject': {}, 'id': 'kiwi', 'src': '/static/foodstim60/kiwi.jpg', 'key': 'u', 'origWidth': 410, 'origHeight': 410, 'width': 410, 'height': 410, 'widthPercent': 0.45, 'rescaleHeight': False, 'trialN': 48, 'loaded': True, 'loadedTime': 2691, 'positionName': 'LEFT', 'positionCoords': [560.08, 363], 'bid': 9.31}, {'imgObject': {}, 'id': 'cantaloupe', 'src': '/static/foodstim60/cantaloupe.jpg', 'key': 'i', 'origWidth': 409, 'origHeight': 409, 'width': 409, 'height': 409, 'widthPercent': 0.45, 'rescaleHeight': False, 'trialN': 48, 'loaded': True, 'loadedTime': 2706.5999999996275, 'positionName': 'RIGHT', 'positionCoords': [1050.92, 363.5], 'bid': 9.39}]",88170.0,1669830222822,kiwi,cantaloupe,9.31,9.39,0.08000000000000007,cantaloupe,i,1112.5999999996275,1113,True,89797.90000000037,1627.9000000003725,1669830224450,1628,1112.9000000003725,HRV,HRV_0041,2022-11-30 17:47:43
49,"[{'imgObject': {}, 'id': 'bagel and cc', 'src': '/static/foodstim60/bagel and cc.jpg', 'key': 'u', 'origWidth': 410, 'origHeight': 410, 'width': 410, 'height': 410, 'widthPercent': 0.45, 'rescaleHeight': False, 'trialN': 49, 'loaded': True, 'loadedTime': 2776.5, 'positionName': 'LEFT', 'positionCoords': [560.08, 363], 'bid': 0.6900000000000001}, {'imgObject': {}, 'id': 'blackbeanswithrice', 'src': '/static/foodstim60/blackbeanswithrice.jpg', 'key': 'i', 'origWidth': 410, 'origHeight': 410, 'width': 410, 'height': 410, 'widthPercent': 0.45, 'rescaleHeight': False, 'trialN': 49, 'loaded': True, 'loadedTime': 2820.7999999988824, 'positionName': 'RIGHT', 'positionCoords': [1050.92, 363], 'bid': 4.62}]",89798.09999999963,1669830224451,bagel and cc,blackbeanswithrice,0.6900000000000001,4.62,3.93,blackbeanswithrice,i,972.3000000007451,972,True,91291.09999999963,1493.0,1669830225944,1493,972.6999999992549,HRV,HRV_0041,2022-11-30 17:47:43
50,"[{'imgObject': {}, 'id': 'shreddedwheatwithmilk', 'src': '/static/foodstim60/shreddedwheatwithmilk.jpg', 'key': 'u', 'origWidth': 410, 'origHeight': 410, 'width': 410, 'height': 410, 'widthPercent': 0.45, 'rescaleHeight': False, 'trialN': 50, 'loaded': True, 'loadedTime': 2733.5999999996275, 'positionName': 'LEFT', 'positionCoords': [560.08, 363], 'bid': 8.06}, {'imgObject': {}, 'id': 'yogurt no spoon', 'src': '/static/foodstim60/yogurt no spoon.jpg', 'key': 'i', 'origWidth': 411, 'origHeight': 410, 'width': 411, 'height': 410, 'widthPercent': 0.45, 'rescaleHeight': False, 'trialN': 50, 'loaded': True, 'loadedTime': 2711.4000000003725, 'positionName': 'RIGHT', 'positionCoords': [1050.92, 363], 'bid': 7.74}]",91291.29999999888,1669830225944,shreddedwheatwithmilk,yogurt no spoon,8.06,7.74,-0.3200000000000003,yogurt no spoon,i,1279.4000000003725,1279,True,93090.79999999888,1799.5,1669830227743,1799,1279.7000000011176,HRV,HRV_0041,2022-11-30 17:47:43
51,"[{'imgObject': {}, 'id': 'avocado', 'src': '/static/foodstim60/avocado.jpg', 'key': 'u', 'origWidth': 409, 'origHeight': 409, 'width': 409, 'height': 409, 'widthPercent': 0.45, 'rescaleHeight': False, 'trialN': 51, 'loaded': True, 'loadedTime': 2748.0999999996275, 'positionName': 'LEFT', 'positionCoords': [561.08, 363.5], 'bid': 1.85}, {'imgObject': {}, 'id': 'raspberries', 'src': '/static/foodstim60/raspberries.jpg', 'key': 'i', 'origWidth': 411, 'origHeight': 411, 'width': 411, 'height': 411, 'widthPercent': 0.45, 'rescaleHeight': False, 'trialN': 51, 'loaded': True, 'loadedTime': 2822.7999999988824, 'positionName': 'RIGHT', 'positionCoords': [1050.92, 362.5], 'bid': 1.45}]",93090.90000000037,1669830227743,avocado,raspberries,1.85,1.45,-0.40000000000000013,avocado,u,1199.7999999988824,1200,True,94810.69999999925,1719.7999999988824,1669830229463,1720,1200.0999999996275,HRV,HRV_0041,2022-11-30 17:47:43
52,"[{'imgObject': {}, 'id': 'apple slices', 'src': '/static/foodstim60/apple slices.jpg', 'key': 'u', 'origWidth': 409, 'origHeight': 410, 'width': 409, 'height': 410, 'widthPercent': 0.45, 'rescaleHeight': False, 'trialN': 52, 'loaded': True, 'loadedTime': 2726.7999999988824, 'positionName': 'LEFT', 'positionCoords': [561.08, 363], 'bid': 9.32}, {'imgObject': {}, 'id': 'sweetpotato', 'src': '/static/foodstim60/sweetpotato.jpg', 'key': 'i', 'origWidth': 410, 'origHeight': 410, 'width': 410, 'height': 410, 'widthPercent': 0.45, 'rescaleHeight': False, 'trialN': 52, 'loaded': True, 'loadedTime': 2751.9000000003725, 'positionName': 'RIGHT', 'positionCoords': [1050.92, 363], 'bid': 9.65}]",94810.79999999888,1669830229463,apple slices,sweetpotato,9.32,9.65,0.33000000000000007,sweetpotato,i,999.6000000014901,1000,True,96316.40000000037,1505.6000000014901,1669830230969,1506,999.9000000003725,HRV,HRV_0041,2022-11-30 17:47:43
53,"[{'imgObject': {}, 'id': 'olives', 'src': '/static/foodstim60/olives.jpg', 'key': 'u', 'origWidth': 410, 'origHeight': 410, 'width': 410, 'height': 410, 'widthPercent': 0.45, 'rescaleHeight': False, 'trialN': 53, 'loaded': True, 'loadedTime': 2768.0999999996275, 'positionName': 'LEFT', 'positionCoords': [560.08, 363], 'bid': 1.19}, {'imgObject': {}, 'id': 'cocktailshrimp', 'src': '/static/foodstim60/cocktailshrimp.jpg', 'key': 'i', 'origWidth': 410, 'origHeight': 410, 'width': 410, 'height': 410, 'widthPercent': 0.45, 'rescaleHeight': False, 'trialN': 53, 'loaded': True, 'loadedTime': 2763.5999999996275, 'positionName': 'RIGHT', 'positionCoords': [1050.92, 363], 'bid': 1.4}]",96316.59999999963,1669830230969,olives,cocktailshrimp,1.19,1.4,0.20999999999999996,cocktailshrimp,i,1025.5999999996275,1026,True,97850.69999999925,1534.0999999996275,1669830232503,1534,1025.9000000003725,HRV,HRV_0041,2022-11-30 17:47:43
54,"[{'imgObject': {}, 'id': 'cheerios', 'src': '/static/foodstim60/cheerios.jpg', 'key': 'u', 'origWidth': 409, 'origHeight': 410, 'width': 409, 'height': 410, 'widthPercent': 0.45, 'rescaleHeight': False, 'trialN': 54, 'loaded': True, 'loadedTime': 2808.5999999996275, 'positionName': 'LEFT', 'positionCoords': [561.08, 363], 'bid': 9.19}, {'imgObject': {}, 'id': 'edamame', 'src': '/static/foodstim60/edamame.jpg', 'key': 'i', 'origWidth': 409, 'origHeight': 410, 'width': 409, 'height': 410, 'widthPercent': 0.45, 'rescaleHeight': False, 'trialN': 54, 'loaded': True, 'loadedTime': 2770.4000000003725, 'positionName': 'RIGHT', 'positionCoords': [1050.92, 363], 'bid': 4.24}]",97850.90000000037,1669830232503,cheerios,edamame,9.19,4.24,-4.949999999999999,edamame,i,1047.5,1048,True,99419.69999999925,1568.7999999988824,1669830234072,1569,1047.699999999255,HRV,HRV_0041,2022-11-30 17:47:43
55,"[{'imgObject': {}, 'id': 'orange slices', 'src': '/static/foodstim60/orange slices.jpg', 'key': 'u', 'origWidth': 409, 'origHeight': 410, 'width': 409, 'height': 410, 'widthPercent': 0.45, 'rescaleHeight': False, 'trialN': 55, 'loaded': True, 'loadedTime': 2724.2999999988824, 'positionName': 'LEFT', 'positionCoords': [561.08, 363], 'bid': 8.92}, {'imgObject': {}, 'id': 'steak', 'src': '/static/foodstim60/steak.jpg', 'key': 'i', 'origWidth': 410, 'origHeight': 410, 'width': 410, 'height': 410, 'widthPercent': 0.45, 'rescaleHeight': False, 'trialN': 55, 'loaded': True, 'loadedTime': 2812.7999999988824, 'positionName': 'RIGHT', 'positionCoords': [1050.92, 363], 'bid': 9.66}]",99419.79999999888,1669830234072,orange slices,steak,8.92,9.66,0.7400000000000002,steak,i,942.7000000011176,943,True,100883.19999999925,1463.4000000003725,1669830235536,1464,942.9000000003725,HRV,HRV_0041,2022-11-30 17:47:43
56,"[{'imgObject': {}, 'id': 'froot loops w milk', 'src': '/static/foodstim60/froot loops w milk.jpg', 'key': 'u', 'origWidth': 410, 'origHeight': 410, 'width': 410, 'height': 410, 'widthPercent': 0.45, 'rescaleHeight': False, 'trialN': 56, 'loaded': True, 'loadedTime': 2807.9000000003725, 'positionName': 'LEFT', 'positionCoords': [560.08, 363], 'bid': 8.540000000000001}, {'imgObject': {}, 'id': 'burrito', 'src': '/static/foodstim60/burrito.jpg', 'key': 'i', 'origWidth': 410, 'origHeight': 410, 'width': 410, 'height': 410, 'widthPercent': 0.45, 'rescaleHeight': False, 'trialN': 56, 'loaded': True, 'loadedTime': 2650.0999999996275, 'positionName': 'RIGHT', 'positionCoords': [1050.92, 363], 'bid': 7.07}]",100883.29999999888,1669830235536,froot loops w milk,burrito,8.540000000000001,7.07,-1.4700000000000006,burrito,i,1095.2000000011176,1095,True,102486.40000000037,1603.1000000014901,1669830237139,1603,1095.5,HRV,HRV_0041,2022-11-30 17:47:43
57,"[{'imgObject': {}, 'id': 'eggsalad', 'src': '/static/foodstim60/eggsalad.jpg', 'key': 'u', 'origWidth': 410, 'origHeight': 409, 'width': 410, 'height': 409, 'widthPercent': 0.45, 'rescaleHeight': False, 'trialN': 57, 'loaded': True, 'loadedTime': 2803.699999999255, 'positionName': 'LEFT', 'positionCoords': [560.08, 363.5], 'bid': 5.71}, {'imgObject': {}, 'id': 'hashbrowns', 'src': '/static/foodstim60/hashbrowns.jpg', 'key': 'i', 'origWidth': 411, 'origHeight': 410, 'width': 411, 'height': 410, 'widthPercent': 0.45, 'rescaleHeight': False, 'trialN': 57, 'loaded': True, 'loadedTime': 2833.699999999255, 'positionName': 'RIGHT', 'positionCoords': [1050.92, 363], 'bid': 5.72}]",102486.5,1669830237139,eggsalad,hashbrowns,5.71,5.72,0.009999999999999787,eggsalad,u,1492.0999999996275,1492,True,104493.29999999888,2006.7999999988824,1669830239146,2007,1492.4000000003725,HRV,HRV_0041,2022-11-30 17:47:43
58,"[{'imgObject': {}, 'id': 'avocado', 'src': '/static/foodstim60/avocado.jpg', 'key': 'u', 'origWidth': 409, 'origHeight': 409, 'width': 409, 'height': 409, 'widthPercent': 0.45, 'rescaleHeight': False, 'trialN': 58, 'loaded': True, 'loadedTime': 2748.9000000003725, 'positionName': 'LEFT', 'positionCoords': [561.08, 363.5], 'bid': 1.85}, {'imgObject': {}, 'id': 'chicken nuggets2', 'src': '/static/foodstim60/chicken nuggets2.jpg', 'key': 'i', 'origWidth': 410, 'origHeight': 409, 'width': 410, 'height': 409, 'widthPercent': 0.45, 'rescaleHeight': False, 'trialN': 58, 'loaded': True, 'loadedTime': 2735.7999999988824, 'positionName': 'RIGHT', 'positionCoords': [1050.92, 363.5], 'bid': 5.96}]",104493.29999999888,1669830239146,avocado,chicken nuggets2,1.85,5.96,4.109999999999999,chicken nuggets2,i,1477,1477,True,106474.79999999888,1981.5,1669830241127,1981,1477.300000000745,HRV,HRV_0041,2022-11-30 17:47:43
59,"[{'imgObject': {}, 'id': 'baked potato', 'src': '/static/foodstim60/baked potato.jpg', 'key': 'u', 'origWidth': 409, 'origHeight': 410, 'width': 409, 'height': 410, 'widthPercent': 0.45, 'rescaleHeight': False, 'trialN': 59, 'loaded': True, 'loadedTime': 2738.699999999255, 'positionName': 'LEFT', 'positionCoords': [561.08, 363], 'bid': 8.120000000000001}, {'imgObject': {}, 'id': 'chickenfingers', 'src': '/static/foodstim60/chickenfingers.jpg', 'key': 'i', 'origWidth': 410, 'origHeight': 410, 'width': 410, 'height': 410, 'widthPercent': 0.45, 'rescaleHeight': False, 'trialN': 59, 'loaded': True, 'loadedTime': 2782.199999999255, 'positionName': 'RIGHT', 'positionCoords': [1050.92, 363], 'bid': 8.28}]",106474.90000000037,1669830241127,baked potato,chickenfingers,8.120000000000001,8.28,0.15999999999999837,baked potato,u,1535,1536,True,108517.09999999963,2042.199999999255,1669830243170,2043,1535.3999999985099,HRV,HRV_0041,2022-11-30 17:47:43
60,"[{'imgObject': {}, 'id': 'raisin bran w milk', 'src': '/static/foodstim60/raisin bran w milk.jpg', 'key': 'u', 'origWidth': 411, 'origHeight': 411, 'width': 411, 'height': 411, 'widthPercent': 0.45, 'rescaleHeight': False, 'trialN': 60, 'loaded': True, 'loadedTime': 2787.4000000003725, 'positionName': 'LEFT', 'positionCoords': [559.08, 362.5], 'bid': 9.52}, {'imgObject': {}, 'id': 'chickenfingers', 'src': '/static/foodstim60/chickenfingers.jpg', 'key': 'i', 'origWidth': 410, 'origHeight': 410, 'width': 410, 'height': 410, 'widthPercent': 0.45, 'rescaleHeight': False, 'trialN': 60, 'loaded': True, 'loadedTime': 2780.5999999996275, 'positionName': 'RIGHT', 'positionCoords': [1050.92, 363], 'bid': 8.28}]",108517.19999999925,1669830243170,raisin bran w milk,chickenfingers,9.52,8.28,-1.2400000000000002,chickenfingers,i,1909.300000000745,1909,True,110945.5,2428.300000000745,1669830245598,2428,1909.5999999996275,HRV,HRV_0041,2022-11-30 17:47:43
61,"[{'imgObject': {}, 'id': 'sweetpotato', 'src': '/static/foodstim60/sweetpotato.jpg', 'key': 'u', 'origWidth': 410, 'origHeight': 410, 'width': 410, 'height': 410, 'widthPercent': 0.45, 'rescaleHeight': False, 'trialN': 61, 'loaded': True, 'loadedTime': 2749, 'positionName': 'LEFT', 'positionCoords': [560.08, 363], 'bid': 9.65}, {'imgObject': {}, 'id': 'sushi w_condiments', 'src': '/static/foodstim60/sushi w_condiments.jpg', 'key': 'i', 'origWidth': 410, 'origHeight': 410, 'width': 410, 'height': 410, 'widthPercent': 0.45, 'rescaleHeight': False, 'trialN': 61, 'loaded': True, 'loadedTime': 2668.4000000003725, 'positionName': 'RIGHT', 'positionCoords': [1050.92, 363], 'bid': 9.61}]",110945.59999999963,1669830245598,sweetpotato,sushi w_condiments,9.65,9.61,-0.040000000000000924,sweetpotato,u,1704.800000000745,1705,True,113160.59999999963,2215.0,1669830247813,2215,1705.0999999996275,HRV,HRV_0041,2022-11-30 17:47:43
62,"[{'imgObject': {}, 'id': 'tacos', 'src': '/static/foodstim60/tacos.jpg', 'key': 'u', 'origWidth': 411, 'origHeight': 411, 'width': 411, 'height': 411, 'widthPercent': 0.45, 'rescaleHeight': False, 'trialN': 62, 'loaded': True, 'loadedTime': 2816.5999999996275, 'positionName': 'LEFT', 'positionCoords': [559.08, 362.5], 'bid': 4.07}, {'imgObject': {}, 'id': 'eggs', 'src': '/static/foodstim60/eggs.jpg', 'key': 'i', 'origWidth': 409, 'origHeight': 409, 'width': 409, 'height': 409, 'widthPercent': 0.45, 'rescaleHeight': False, 'trialN': 62, 'loaded': True, 'loadedTime': 2834.7999999988824, 'positionName': 'RIGHT', 'positionCoords': [1050.92, 363.5], 'bid': 4.17}]",113160.79999999888,1669830247813,tacos,eggs,4.07,4.17,0.09999999999999964,tacos,u,1265.9000000003725,1266,True,114936.90000000037,1776.1000000014901,1669830249589,1776,1266.2000000011176,HRV,HRV_0041,2022-11-30 17:47:43
63,"[{'imgObject': {}, 'id': 'bagel plain', 'src': '/static/foodstim60/bagel plain.jpg', 'key': 'u', 'origWidth': 410, 'origHeight': 410, 'width': 410, 'height': 410, 'widthPercent': 0.45, 'rescaleHeight': False, 'trialN': 63, 'loaded': True, 'loadedTime': 2709.4000000003725, 'positionName': 'LEFT', 'positionCoords': [560.08, 363], 'bid': 0.76}, {'imgObject': {}, 'id': 'cherry tomato', 'src': '/static/foodstim60/cherry tomato.jpg', 'key': 'i', 'origWidth': 410, 'origHeight': 410, 'width': 410, 'height': 410, 'widthPercent': 0.45, 'rescaleHeight': False, 'trialN': 63, 'loaded': True, 'loadedTime': 2757.5999999996275, 'positionName': 'RIGHT', 'positionCoords': [1050.92, 363], 'bid': 1.74}]",114937.19999999925,1669830249590,bagel plain,cherry tomato,0.76,1.74,0.98,bagel plain,u,1177.300000000745,1176,True,116624.90000000037,1687.7000000011176,1669830251277,1687,1177.5,HRV,HRV_0041,2022-11-30 17:47:43
64,"[{'imgObject': {}, 'id': 'turkey sandwich', 'src': '/static/foodstim60/turkey sandwich.jpg', 'key': 'u', 'origWidth': 409, 'origHeight': 409, 'width': 409, 'height': 409, 'widthPercent': 0.45, 'rescaleHeight': False, 'trialN': 64, 'loaded': True, 'loadedTime': 2677.4000000003725, 'positionName': 'LEFT', 'positionCoords': [561.08, 363.5], 'bid': 7.33}, {'imgObject': {}, 'id': 'veggieswithdip', 'src': '/static/foodstim60/veggieswithdip.jpg', 'key': 'i', 'origWidth': 409, 'origHeight': 409, 'width': 409, 'height': 409, 'widthPercent': 0.45, 'rescaleHeight': False, 'trialN': 64, 'loaded': True, 'loadedTime': 2835.0999999996275, 'positionName': 'RIGHT', 'positionCoords': [1050.92, 363.5], 'bid': 5.94}]",116625.09999999963,1669830251277,turkey sandwich,veggieswithdip,7.33,5.94,-1.3899999999999997,turkey sandwich,u,1193.4000000003725,1193,True,118325.19999999925,1700.0999999996275,1669830252977,1700,1193.699999999255,HRV,HRV_0041,2022-11-30 17:47:43
65,"[{'imgObject': {}, 'id': 'omelette', 'src': '/static/foodstim60/omelette.jpg', 'key': 'u', 'origWidth': 410, 'origHeight': 409, 'width': 410, 'height': 409, 'widthPercent': 0.45, 'rescaleHeight': False, 'trialN': 65, 'loaded': True, 'loadedTime': 2836.199999999255, 'positionName': 'LEFT', 'positionCoords': [560.08, 363.5], 'bid': 8.02}, {'imgObject': {}, 'id': 'apple slices', 'src': '/static/foodstim60/apple slices.jpg', 'key': 'i', 'origWidth': 409, 'origHeight': 410, 'width': 409, 'height': 410, 'widthPercent': 0.45, 'rescaleHeight': False, 'trialN': 65, 'loaded': True, 'loadedTime': 2728.0999999996275, 'positionName': 'RIGHT', 'positionCoords': [1050.92, 363], 'bid': 9.32}]",118325.29999999888,1669830252977,omelette,apple slices,8.02,9.32,1.3000000000000007,omelette,u,1265,1265,True,120099.19999999925,1773.9000000003725,1669830254751,1774,1265.4000000003725,HRV,HRV_0041,2022-11-30 17:47:43
66,"[{'imgObject': {}, 'id': 'chickenfingers', 'src': '/static/foodstim60/chickenfingers.jpg', 'key': 'u', 'origWidth': 410, 'origHeight': 410, 'width': 410, 'height': 410, 'widthPercent': 0.45, 'rescaleHeight': False, 'trialN': 66, 'loaded': True, 'loadedTime': 2782, 'positionName': 'LEFT', 'positionCoords': [560.08, 363], 'bid': 8.28}, {'imgObject': {}, 'id': 'pear', 'src': '/static/foodstim60/pear.jpg', 'key': 'i', 'origWidth': 411, 'origHeight': 410, 'width': 411, 'height': 410, 'widthPercent': 0.45, 'rescaleHeight': False, 'trialN': 66, 'loaded': True, 'loadedTime': 2699.5, 'positionName': 'RIGHT', 'positionCoords': [1050.92, 363], 'bid': 8.76}]",120099.29999999888,1669830254751,chickenfingers,pear,8.28,8.76,0.4800000000000004,chickenfingers,u,1583.4000000003725,1584,True,122204.5,2105.2000000011176,1669830256856,2105,1583.7000000011176,HRV,HRV_0041,2022-11-30 17:47:43
67,"[{'imgObject': {}, 'id': 'chickenfingers', 'src': '/static/foodstim60/chickenfingers.jpg', 'key': 'u', 'origWidth': 410, 'origHeight': 410, 'width': 410, 'height': 410, 'widthPercent': 0.45, 'rescaleHeight': False, 'trialN': 67, 'loaded': True, 'loadedTime': 2782.2999999988824, 'positionName': 'LEFT', 'positionCoords': [560.08, 363], 'bid': 8.28}, {'imgObject': {}, 'id': 'granola w milk', 'src': '/static/foodstim60/granola w milk.jpg', 'key': 'i', 'origWidth': 410, 'origHeight': 410, 'width': 410, 'height': 410, 'widthPercent': 0.45, 'rescaleHeight': False, 'trialN': 67, 'loaded': True, 'loadedTime': 2837.7999999988824, 'positionName': 'RIGHT', 'positionCoords': [1050.92, 363], 'bid': 8.96}]",122204.59999999963,1669830256856,chickenfingers,granola w milk,8.28,8.96,0.6800000000000015,chickenfingers,u,1389.9000000003725,1390,True,124104.09999999963,1899.5,1669830258756,1900,1390.199999999255,HRV,HRV_0041,2022-11-30 17:47:43
68,"[{'imgObject': {}, 'id': 'granola w milk', 'src': '/static/foodstim60/granola w milk.jpg', 'key': 'u', 'origWidth': 410, 'origHeight': 410, 'width': 410, 'height': 410, 'widthPercent': 0.45, 'rescaleHeight': False, 'trialN': 68, 'loaded': True, 'loadedTime': 2837.7999999988824, 'positionName': 'LEFT', 'positionCoords': [560.08, 363], 'bid': 8.96}, {'imgObject': {}, 'id': 'hotdog w must', 'src': '/static/foodstim60/hotdog w must.jpg', 'key': 'i', 'origWidth': 409, 'origHeight': 409, 'width': 409, 'height': 409, 'widthPercent': 0.45, 'rescaleHeight': False, 'trialN': 68, 'loaded': True, 'loadedTime': 2818.5999999996275, 'positionName': 'RIGHT', 'positionCoords': [1050.92, 363.5], 'bid': 3.86}]",124104.29999999888,1669830258756,granola w milk,hotdog w must,8.96,3.86,-5.100000000000001,granola w milk,u,1850.5,1851,True,126475.09999999963,2370.800000000745,1669830261127,2371,1850.7000000011176,HRV,HRV_0041,2022-11-30 17:47:43
69,"[{'imgObject': {}, 'id': 'froot loops w milk', 'src': '/static/foodstim60/froot loops w milk.jpg', 'key': 'u', 'origWidth': 410, 'origHeight': 410, 'width': 410, 'height': 410, 'widthPercent': 0.45, 'rescaleHeight': False, 'trialN': 69, 'loaded': True, 'loadedTime': 2806.2999999988824, 'positionName': 'LEFT', 'positionCoords': [560.08, 363], 'bid': 8.540000000000001}, {'imgObject': {}, 'id': 'baked potato', 'src': '/static/foodstim60/baked potato.jpg', 'key': 'i', 'origWidth': 409, 'origHeight': 410, 'width': 409, 'height': 410, 'widthPercent': 0.45, 'rescaleHeight': False, 'trialN': 69, 'loaded': True, 'loadedTime': 2738.4000000003725, 'positionName': 'RIGHT', 'positionCoords': [1050.92, 363], 'bid': 8.120000000000001}]",126475.19999999925,1669830261127,froot loops w milk,baked potato,8.540000000000001,8.120000000000001,-0.41999999999999993,baked potato,i,1263.2000000011176,1263,True,128248.0,1772.800000000745,1669830262900,1773,1263.5999999996275,HRV,HRV_0041,2022-11-30 17:47:43
70,"[{'imgObject': {}, 'id': 'orange slices', 'src': '/static/foodstim60/orange slices.jpg', 'key': 'u', 'origWidth': 409, 'origHeight': 410, 'width': 409, 'height': 410, 'widthPercent': 0.45, 'rescaleHeight': False, 'trialN': 70, 'loaded': True, 'loadedTime': 2718.2999999988824, 'positionName': 'LEFT', 'positionCoords': [561.08, 363], 'bid': 8.92}, {'imgObject': {}, 'id': 'granola w milk', 'src': '/static/foodstim60/granola w milk.jpg', 'key': 'i', 'origWidth': 410, 'origHeight': 410, 'width': 410, 'height': 410, 'widthPercent': 0.45, 'rescaleHeight': False, 'trialN': 70, 'loaded': True, 'loadedTime': 2837.9000000003725, 'positionName': 'RIGHT', 'positionCoords': [1050.92, 363], 'bid': 8.96}]",128248.09999999963,1669830262900,orange slices,granola w milk,8.92,8.96,0.040000000000000924,granola w milk,i,1194.4000000003725,1194,True,129956.69999999925,1708.5999999996275,1669830264608,1708,1194.699999999255,HRV,HRV_0041,2022-11-30 17:47:43
71,"[{'imgObject': {}, 'id': 'sushi w_condiments', 'src': '/static/foodstim60/sushi w_condiments.jpg', 'key': 'u', 'origWidth': 410, 'origHeight': 410, 'width': 410, 'height': 410, 'widthPercent': 0.45, 'rescaleHeight': False, 'trialN': 71, 'loaded': True, 'loadedTime': 2668.9000000003725, 'positionName': 'LEFT', 'positionCoords': [560.08, 363], 'bid': 9.61}, {'imgObject': {}, 'id': 'veggieswithdip', 'src': '/static/foodstim60/veggieswithdip.jpg', 'key': 'i', 'origWidth': 409, 'origHeight': 409, 'width': 409, 'height': 409, 'widthPercent': 0.45, 'rescaleHeight': False, 'trialN': 71, 'loaded': True, 'loadedTime': 2835.9000000003725, 'positionName': 'RIGHT', 'positionCoords': [1050.92, 363.5], 'bid': 5.94}]",129956.79999999888,1669830264608,sushi w_condiments,veggieswithdip,9.61,5.94,-3.669999999999999,sushi w_condiments,u,1019.7000000011176,1020,True,131486.90000000037,1530.1000000014901,1669830266139,1531,1020.0,HRV,HRV_0041,2022-11-30 17:47:43
72,"[{'imgObject': {}, 'id': 'orange slices', 'src': '/static/foodstim60/orange slices.jpg', 'key': 'u', 'origWidth': 409, 'origHeight': 410, 'width': 409, 'height': 410, 'widthPercent': 0.45, 'rescaleHeight': False, 'trialN': 72, 'loaded': True, 'loadedTime': 2718.2999999988824, 'positionName': 'LEFT', 'positionCoords': [561.08, 363], 'bid': 8.92}, {'imgObject': {}, 'id': 'ice cream sundae 002', 'src': '/static/foodstim60/ice cream sundae 002.jpg', 'key': 'i', 'origWidth': 409, 'origHeight': 409, 'width': 409, 'height': 409, 'widthPercent': 0.45, 'rescaleHeight': False, 'trialN': 72, 'loaded': True, 'loadedTime': 2692.5, 'positionName': 'RIGHT', 'positionCoords': [1050.92, 363.5], 'bid': 9.2}]",131487.0,1669830266139,orange slices,ice cream sundae 002,8.92,9.2,0.27999999999999936,orange slices,u,1467.5999999996275,1468,True,133475.69999999925,1988.699999999255,1669830268127,1988,1467.7999999988824,HRV,HRV_0041,2022-11-30 17:47:43
73,"[{'imgObject': {}, 'id': 'Tribe humus pita', 'src': '/static/foodstim60/Tribe humus pita.jpg', 'key': 'u', 'origWidth': 411, 'origHeight': 411, 'width': 411, 'height': 411, 'widthPercent': 0.45, 'rescaleHeight': False, 'trialN': 73, 'loaded': True, 'loadedTime': 2790.2999999988824, 'positionName': 'LEFT', 'positionCoords': [559.08, 362.5], 'bid': 0.88}, {'imgObject': {}, 'id': 'avocado', 'src': '/static/foodstim60/avocado.jpg', 'key': 'i', 'origWidth': 409, 'origHeight': 409, 'width': 409, 'height': 409, 'widthPercent': 0.45, 'rescaleHeight': False, 'trialN': 73, 'loaded': True, 'loadedTime': 2746.4000000003725, 'positionName': 'RIGHT', 'positionCoords': [1050.92, 363.5], 'bid': 1.85}]",133475.90000000037,1669830268128,Tribe humus pita,avocado,0.88,1.85,0.9700000000000001,avocado,i,1038.3999999985099,1038,True,135021.29999999888,1545.3999999985099,1669830269673,1545,1038.5999999996275,HRV,HRV_0041,2022-11-30 17:47:43
74,"[{'imgObject': {}, 'id': 'seaweed', 'src': '/static/foodstim60/seaweed.jpg', 'key': 'u', 'origWidth': 410, 'origHeight': 410, 'width': 410, 'height': 410, 'widthPercent': 0.45, 'rescaleHeight': False, 'trialN': 74, 'loaded': True, 'loadedTime': 2697.2999999988824, 'positionName': 'LEFT', 'positionCoords': [560.08, 363], 'bid': 0.91}, {'imgObject': {}, 'id': 'cocktailshrimp', 'src': '/static/foodstim60/cocktailshrimp.jpg', 'key': 'i', 'origWidth': 410, 'origHeight': 410, 'width': 410, 'height': 410, 'widthPercent': 0.45, 'rescaleHeight': False, 'trialN': 74, 'loaded': True, 'loadedTime': 2766.5, 'positionName': 'RIGHT', 'positionCoords': [1050.92, 363], 'bid': 1.4}]",135021.40000000037,1669830269673,seaweed,cocktailshrimp,0.91,1.4,0.4899999999999999,cocktailshrimp,i,917.2999999988824,918,True,136458.90000000037,1437.5,1669830271111,1438,917.5999999996275,HRV,HRV_0041,2022-11-30 17:47:43
75,"[{'imgObject': {}, 'id': 'mashed potato', 'src': '/static/foodstim60/mashed potato.jpg', 'key': 'u', 'origWidth': 409, 'origHeight': 409, 'width': 409, 'height': 409, 'widthPercent': 0.45, 'rescaleHeight': False, 'trialN': 75, 'loaded': True, 'loadedTime': 2661.699999999255, 'positionName': 'LEFT', 'positionCoords': [561.08, 363.5], 'bid': 7.27}, {'imgObject': {}, 'id': 'mac & cheese', 'src': '/static/foodstim60/mac & cheese.jpg', 'key': 'i', 'origWidth': 410, 'origHeight': 410, 'width': 410, 'height': 410, 'widthPercent': 0.45, 'rescaleHeight': False, 'trialN': 75, 'loaded': True, 'loadedTime': 2548.0999999996275, 'positionName': 'RIGHT', 'positionCoords': [1050.92, 363], 'bid': 7.35}]",136459.0,1669830271111,mashed potato,mac & cheese,7.27,7.35,0.08000000000000007,mac & cheese,i,983.5,983,True,137957.29999999888,1498.2999999988824,1669830272609,1498,983.6999999992549,HRV,HRV_0041,2022-11-30 17:47:43
76,"[{'imgObject': {}, 'id': 'turkeysandwich', 'src': '/static/foodstim60/turkeysandwich.jpg', 'key': 'u', 'origWidth': 409, 'origHeight': 409, 'width': 409, 'height': 409, 'widthPercent': 0.45, 'rescaleHeight': False, 'trialN': 76, 'loaded': True, 'loadedTime': 2805.5, 'positionName': 'LEFT', 'positionCoords': [561.08, 363.5], 'bid': 5.43}, {'imgObject': {}, 'id': 'tacos', 'src': '/static/foodstim60/tacos.jpg', 'key': 'i', 'origWidth': 411, 'origHeight': 411, 'width': 411, 'height': 411, 'widthPercent': 0.45, 'rescaleHeight': False, 'trialN': 76, 'loaded': True, 'loadedTime': 2816.5, 'positionName': 'RIGHT', 'positionCoords': [1050.92, 362.5], 'bid': 4.07}]",137957.5,1669830272609,turkeysandwich,tacos,5.43,4.07,-1.3599999999999994,turkeysandwich,u,1877,1877,True,140342.79999999888,2385.2999999988824,1669830274994,2385,1877.4000000003725,HRV,HRV_0041,2022-11-30 17:47:43
77,"[{'imgObject': {}, 'id': 'bagel plain', 'src': '/static/foodstim60/bagel plain.jpg', 'key': 'u', 'origWidth': 410, 'origHeight': 410, 'width': 410, 'height': 410, 'widthPercent': 0.45, 'rescaleHeight': False, 'trialN': 77, 'loaded': True, 'loadedTime': 2709.5999999996275, 'positionName': 'LEFT', 'positionCoords': [560.08, 363], 'bid': 0.76}, {'imgObject': {}, 'id': 'bagel and cc', 'src': '/static/foodstim60/bagel and cc.jpg', 'key': 'i', 'origWidth': 410, 'origHeight': 410, 'width': 410, 'height': 410, 'widthPercent': 0.45, 'rescaleHeight': False, 'trialN': 77, 'loaded': True, 'loadedTime': 2774.5999999996275, 'positionName': 'RIGHT', 'positionCoords': [1050.92, 363], 'bid': 0.6900000000000001}]",140343.0,1669830274995,bagel plain,bagel and cc,0.76,0.6900000000000001,-0.06999999999999995,bagel and cc,i,1671.4000000003725,1671,True,142520.5,2177.5,1669830277172,2177,1671.699999999255,HRV,HRV_0041,2022-11-30 17:47:43
78,"[{'imgObject': {}, 'id': 'Grapes', 'src': '/static/foodstim60/Grapes.jpg', 'key': 'u', 'origWidth': 411, 'origHeight': 411, 'width': 411, 'height': 411, 'widthPercent': 0.45, 'rescaleHeight': False, 'trialN': 78, 'loaded': True, 'loadedTime': 2653.7999999988824, 'positionName': 'LEFT', 'positionCoords': [559.08, 362.5], 'bid': 9.1}, {'imgObject': {}, 'id': 'turkey sandwich', 'src': '/static/foodstim60/turkey sandwich.jpg', 'key': 'i', 'origWidth': 409, 'origHeight': 409, 'width': 409, 'height': 409, 'widthPercent': 0.45, 'rescaleHeight': False, 'trialN': 78, 'loaded': True, 'loadedTime': 2676.2999999988824, 'positionName': 'RIGHT', 'positionCoords': [1050.92, 363.5], 'bid': 7.33}]",142520.59999999963,1669830277172,Grapes,turkey sandwich,9.1,7.33,-1.7699999999999996,turkey sandwich,i,1617.800000000745,1618,True,144649.40000000037,2128.800000000745,1669830279301,2129,1618.0999999996275,HRV,HRV_0041,2022-11-30 17:47:43
79,"[{'imgObject': {}, 'id': 'popsicles', 'src': '/static/foodstim60/popsicles.jpg', 'key': 'u', 'origWidth': 410, 'origHeight': 410, 'width': 410, 'height': 410, 'widthPercent': 0.45, 'rescaleHeight': False, 'trialN': 79, 'loaded': True, 'loadedTime': 2687.699999999255, 'positionName': 'LEFT', 'positionCoords': [560.08, 363], 'bid': 6.29}, {'imgObject': {}, 'id': 'fried eggs', 'src': '/static/foodstim60/fried eggs.jpg', 'key': 'i', 'origWidth': 410, 'origHeight': 410, 'width': 410, 'height': 410, 'widthPercent': 0.45, 'rescaleHeight': False, 'trialN': 79, 'loaded': True, 'loadedTime': 2838.699999999255, 'positionName': 'RIGHT', 'positionCoords': [1050.92, 363], 'bid': 7.69}]",144649.59999999963,1669830279301,popsicles,fried eggs,6.29,7.69,1.4000000000000004,fried eggs,i,1040.800000000745,1041,True,146203.59999999963,1554.0,1669830280855,1554,1041.0999999996275,HRV,HRV_0041,2022-11-30 17:47:43
80,"[{'imgObject': {}, 'id': 'hotdog w must', 'src': '/static/foodstim60/hotdog w must.jpg', 'key': 'u', 'origWidth': 409, 'origHeight': 409, 'width': 409, 'height': 409, 'widthPercent': 0.45, 'rescaleHeight': False, 'trialN': 80, 'loaded': True, 'loadedTime': 2819.4000000003725, 'positionName': 'LEFT', 'positionCoords': [561.08, 363.5], 'bid': 3.86}, {'imgObject': {}, 'id': 'rigatoni', 'src': '/static/foodstim60/rigatoni.jpg', 'key': 'i', 'origWidth': 411, 'origHeight': 411, 'width': 411, 'height': 411, 'widthPercent': 0.45, 'rescaleHeight': False, 'trialN': 80, 'loaded': True, 'loadedTime': 2780, 'positionName': 'RIGHT', 'positionCoords': [1050.92, 362.5], 'bid': 2.88}]",146203.79999999888,1669830280855,hotdog w must,rigatoni,3.86,2.88,-0.98,hotdog w must,u,1054.4000000003725,1055,True,147770.19999999925,1566.4000000003725,1669830282422,1567,1054.7000000011176,HRV,HRV_0041,2022-11-30 17:47:43
81,"[{'imgObject': {}, 'id': 'corn cob', 'src': '/static/foodstim60/corn cob.jpg', 'key': 'u', 'origWidth': 411, 'origHeight': 411, 'width': 411, 'height': 411, 'widthPercent': 0.45, 'rescaleHeight': False, 'trialN': 81, 'loaded': True, 'loadedTime': 2702.5, 'positionName': 'LEFT', 'positionCoords': [559.08, 362.5], 'bid': 6.92}, {'imgObject': {}, 'id': 'chicken nuggets2', 'src': '/static/foodstim60/chicken nuggets2.jpg', 'key': 'i', 'origWidth': 410, 'origHeight': 409, 'width': 410, 'height': 409, 'widthPercent': 0.45, 'rescaleHeight': False, 'trialN': 81, 'loaded': True, 'loadedTime': 2735.2999999988824, 'positionName': 'RIGHT', 'positionCoords': [1050.92, 363.5], 'bid': 5.96}]",147770.40000000037,1669830282422,corn cob,chicken nuggets2,6.92,5.96,-0.96,chicken nuggets2,i,2216.199999999255,2217,True,150495.90000000037,2725.5,1669830285148,2726,2216.5,HRV,HRV_0041,2022-11-30 17:47:43
82,"[{'imgObject': {}, 'id': 'burger', 'src': '/static/foodstim60/burger.jpg', 'key': 'u', 'origWidth': 409, 'origHeight': 409, 'width': 409, 'height': 409, 'widthPercent': 0.45, 'rescaleHeight': False, 'trialN': 82, 'loaded': True, 'loadedTime': 2515.4000000003725, 'positionName': 'LEFT', 'positionCoords': [561.08, 363.5], 'bid': 9.7}, {'imgObject': {}, 'id': 'fruitsalad', 'src': '/static/foodstim60/fruitsalad.jpg', 'key': 'i', 'origWidth': 410, 'origHeight': 410, 'width': 410, 'height': 410, 'widthPercent': 0.45, 'rescaleHeight': False, 'trialN': 82, 'loaded': True, 'loadedTime': 2656.4000000003725, 'positionName': 'RIGHT', 'positionCoords': [1050.92, 363], 'bid': 9.9}]",150496.0,1669830285148,burger,fruitsalad,9.7,9.9,0.20000000000000107,burger,u,1002.4000000003725,1002,True,152004.29999999888,1508.2999999988824,1669830286656,1508,1002.6999999992549,HRV,HRV_0041,2022-11-30 17:47:43
83,"[{'imgObject': {}, 'id': 'omelette', 'src': '/static/foodstim60/omelette.jpg', 'key': 'u', 'origWidth': 410, 'origHeight': 409, 'width': 410, 'height': 409, 'widthPercent': 0.45, 'rescaleHeight': False, 'trialN': 83, 'loaded': True, 'loadedTime': 2836.9000000003725, 'positionName': 'LEFT', 'positionCoords': [560.08, 363.5], 'bid': 8.02}, {'imgObject': {}, 'id': 'Tribe humus pita', 'src': '/static/foodstim60/Tribe humus pita.jpg', 'key': 'i', 'origWidth': 411, 'origHeight': 411, 'width': 411, 'height': 411, 'widthPercent': 0.45, 'rescaleHeight': False, 'trialN': 83, 'loaded': True, 'loadedTime': 2795.4000000003725, 'positionName': 'RIGHT', 'positionCoords': [1050.92, 362.5], 'bid': 0.88}]",152004.5,1669830286656,omelette,Tribe humus pita,8.02,0.88,-7.14,omelette,u,953.7999999988824,954,True,153477.90000000037,1473.4000000003725,1669830288130,1474,954.0999999996275,HRV,HRV_0041,2022-11-30 17:47:43
84,"[{'imgObject': {}, 'id': 'bagel plain', 'src': '/static/foodstim60/bagel plain.jpg', 'key': 'u', 'origWidth': 410, 'origHeight': 410, 'width': 410, 'height': 410, 'widthPercent': 0.45, 'rescaleHeight': False, 'trialN': 84, 'loaded': True, 'loadedTime': 2708.699999999255, 'positionName': 'LEFT', 'positionCoords': [560.08, 363], 'bid': 0.76}, {'imgObject': {}, 'id': 'mango', 'src': '/static/foodstim60/mango.jpg', 'key': 'i', 'origWidth': 411, 'origHeight': 411, 'width': 411, 'height': 411, 'widthPercent': 0.45, 'rescaleHeight': False, 'trialN': 84, 'loaded': True, 'loadedTime': 2744.5999999996275, 'positionName': 'RIGHT', 'positionCoords': [1050.92, 362.5], 'bid': 5.26}]",153478.09999999963,1669830288130,bagel plain,mango,0.76,5.26,4.5,mango,i,2124.5999999996275,2125,True,156117.19999999925,2639.0999999996275,1669830290769,2639,2124.800000000745,HRV,HRV_0041,2022-11-30 17:47:43
85,"[{'imgObject': {}, 'id': 'eggsalad', 'src': '/static/foodstim60/eggsalad.jpg', 'key': 'u', 'origWidth': 410, 'origHeight': 409, 'width': 410, 'height': 409, 'widthPercent': 0.45, 'rescaleHeight': False, 'trialN': 85, 'loaded': True, 'loadedTime': 2795.9000000003725, 'positionName': 'LEFT', 'positionCoords': [560.08, 363.5], 'bid': 5.71}, {'imgObject': {}, 'id': 'cocktailshrimp', 'src': '/static/foodstim60/cocktailshrimp.jpg', 'key': 'i', 'origWidth': 410, 'origHeight': 410, 'width': 410, 'height': 410, 'widthPercent': 0.45, 'rescaleHeight': False, 'trialN': 85, 'loaded': True, 'loadedTime': 2765.5, 'positionName': 'RIGHT', 'positionCoords': [1050.92, 363], 'bid': 1.4}]",156117.29999999888,1669830290769,eggsalad,cocktailshrimp,5.71,1.4,-4.3100000000000005,cocktailshrimp,i,1285.1000000014901,1285,True,157921.5,1804.2000000011176,1669830292573,1804,1285.300000000745,HRV,HRV_0041,2022-11-30 17:47:43
86,"[{'imgObject': {}, 'id': 'Tribe humus pita', 'src': '/static/foodstim60/Tribe humus pita.jpg', 'key': 'u', 'origWidth': 411, 'origHeight': 411, 'width': 411, 'height': 411, 'widthPercent': 0.45, 'rescaleHeight': False, 'trialN': 86, 'loaded': True, 'loadedTime': 2795.4000000003725, 'positionName': 'LEFT', 'positionCoords': [559.08, 362.5], 'bid': 0.88}, {'imgObject': {}, 'id': 'seaweed', 'src': '/static/foodstim60/seaweed.jpg', 'key': 'i', 'origWidth': 410, 'origHeight': 410, 'width': 410, 'height': 410, 'widthPercent': 0.45, 'rescaleHeight': False, 'trialN': 86, 'loaded': True, 'loadedTime': 2696.7999999988824, 'positionName': 'RIGHT', 'positionCoords': [1050.92, 363], 'bid': 0.91}]",157921.69999999925,1669830292573,Tribe humus pita,seaweed,0.88,0.91,0.030000000000000027,Tribe humus pita,u,1344.5,1345,True,159784.0,1862.300000000745,1669830294436,1863,1344.9000000003725,HRV,HRV_0041,2022-11-30 17:47:43
87,"[{'imgObject': {}, 'id': 'hashbrowns', 'src': '/static/foodstim60/hashbrowns.jpg', 'key': 'u', 'origWidth': 411, 'origHeight': 410, 'width': 411, 'height': 410, 'widthPercent': 0.45, 'rescaleHeight': False, 'trialN': 87, 'loaded': True, 'loadedTime': 2823.7999999988824, 'positionName': 'LEFT', 'positionCoords': [559.08, 363], 'bid': 5.72}, {'imgObject': {}, 'id': 'raspberries', 'src': '/static/foodstim60/raspberries.jpg', 'key': 'i', 'origWidth': 411, 'origHeight': 411, 'width': 411, 'height': 411, 'widthPercent': 0.45, 'rescaleHeight': False, 'trialN': 87, 'loaded': True, 'loadedTime': 2821.4000000003725, 'positionName': 'RIGHT', 'positionCoords': [1050.92, 362.5], 'bid': 1.45}]",159784.09999999963,1669830294436,hashbrowns,raspberries,5.72,1.45,-4.27,hashbrowns,u,1650.5,1651,True,161957.29999999888,2173.199999999255,1669830296609,2173,1650.800000000745,HRV,HRV_0041,2022-11-30 17:47:43
88,"[{'imgObject': {}, 'id': 'luckycharms', 'src': '/static/foodstim60/luckycharms.jpg', 'key': 'u', 'origWidth': 410, 'origHeight': 409, 'width': 410, 'height': 409, 'widthPercent': 0.45, 'rescaleHeight': False, 'trialN': 88, 'loaded': True, 'loadedTime': 2813.7999999988824, 'positionName': 'LEFT', 'positionCoords': [560.08, 363.5], 'bid': 9.54}, {'imgObject': {}, 'id': 'raisin bran w milk', 'src': '/static/foodstim60/raisin bran w milk.jpg', 'key': 'i', 'origWidth': 411, 'origHeight': 411, 'width': 411, 'height': 411, 'widthPercent': 0.45, 'rescaleHeight': False, 'trialN': 88, 'loaded': True, 'loadedTime': 2786.9000000003725, 'positionName': 'RIGHT', 'positionCoords': [1050.92, 362.5], 'bid': 9.52}]",161957.5,1669830296609,luckycharms,raisin bran w milk,9.54,9.52,-0.019999999999999574,raisin bran w milk,i,1504.7999999988824,1505,True,163967.90000000037,2010.4000000003725,1669830298620,2011,1505.0,HRV,HRV_0041,2022-11-30 17:47:43
89,"[{'imgObject': {}, 'id': 'rigatoni and sauce', 'src': '/static/foodstim60/rigatoni and sauce.jpg', 'key': 'u', 'origWidth': 410, 'origHeight': 411, 'width': 410, 'height': 411, 'widthPercent': 0.45, 'rescaleHeight': False, 'trialN': 89, 'loaded': True, 'loadedTime': 2640.0999999996275, 'positionName': 'LEFT', 'positionCoords': [560.08, 362.5], 'bid': 2.13}, {'imgObject': {}, 'id': 'popsicles', 'src': '/static/foodstim60/popsicles.jpg', 'key': 'i', 'origWidth': 410, 'origHeight': 410, 'width': 410, 'height': 410, 'widthPercent': 0.45, 'rescaleHeight': False, 'trialN': 89, 'loaded': True, 'loadedTime': 2687.5999999996275, 'positionName': 'RIGHT', 'positionCoords': [1050.92, 363], 'bid': 6.29}]",163968.09999999963,1669830298620,rigatoni and sauce,popsicles,2.13,6.29,4.16,rigatoni and sauce,u,970.5,970,True,165461.79999999888,1493.699999999255,1669830300113,1493,970.6999999992549,HRV,HRV_0041,2022-11-30 17:47:43
90,"[{'imgObject': {}, 'id': 'cherry tomato', 'src': '/static/foodstim60/cherry tomato.jpg', 'key': 'u', 'origWidth': 410, 'origHeight': 410, 'width': 410, 'height': 410, 'widthPercent': 0.45, 'rescaleHeight': False, 'trialN': 90, 'loaded': True, 'loadedTime': 2757.699999999255, 'positionName': 'LEFT', 'positionCoords': [560.08, 363], 'bid': 1.74}, {'imgObject': {}, 'id': 'pear', 'src': '/static/foodstim60/pear.jpg', 'key': 'i', 'origWidth': 411, 'origHeight': 410, 'width': 411, 'height': 410, 'widthPercent': 0.45, 'rescaleHeight': False, 'trialN': 90, 'loaded': True, 'loadedTime': 2700.199999999255, 'positionName': 'RIGHT', 'positionCoords': [1050.92, 363], 'bid': 8.76}]",169650.40000000037,1669830304302,cherry tomato,pear,1.74,8.76,7.02,NaN,NaN,NaN,NaN,False,173654.19999999925,4003.7999999988824,1669830308306,4004,,HRV,HRV_0041,2022-11-30 17:47:43
91,"[{'imgObject': {}, 'id': 'cherries', 'src': '/static/foodstim60/cherries.jpg', 'key': 'u', 'origWidth': 410, 'origHeight': 411, 'width': 410, 'height': 411, 'widthPercent': 0.45, 'rescaleHeight': False, 'trialN': 91, 'loaded': True, 'loadedTime': 2787.5999999996275, 'positionName': 'LEFT', 'positionCoords': [560.08, 362.5], 'bid': 5.3500000000000005}, {'imgObject': {}, 'id': 'mango', 'src': '/static/foodstim60/mango.jpg', 'key': 'i', 'origWidth': 411, 'origHeight': 411, 'width': 411, 'height': 411, 'widthPercent': 0.45, 'rescaleHeight': False, 'trialN': 91, 'loaded': True, 'loadedTime': 2745.699999999255, 'positionName': 'RIGHT', 'positionCoords': [1050.92, 362.5], 'bid': 5.26}]",173654.40000000037,1669830308306,cherries,mango,5.3500000000000005,5.26,-0.09000000000000075,mango,i,1550.7999999988824,1551,True,175725.59999999963,2071.199999999255,1669830310377,2071,1551.0999999996275,HRV,HRV_0041,2022-11-30 17:47:43
92,"[{'imgObject': {}, 'id': 'rigatoni and sauce', 'src': '/static/foodstim60/rigatoni and sauce.jpg', 'key': 'u', 'origWidth': 410, 'origHeight': 411, 'width': 410, 'height': 411, 'widthPercent': 0.45, 'rescaleHeight': False, 'trialN': 92, 'loaded': True, 'loadedTime': 2645.2999999988824, 'positionName': 'LEFT', 'positionCoords': [560.08, 362.5], 'bid': 2.13}, {'imgObject': {}, 'id': 'lox', 'src': '/static/foodstim60/lox.jpg', 'key': 'i', 'origWidth': 410, 'origHeight': 411, 'width': 410, 'height': 411, 'widthPercent': 0.45, 'rescaleHeight': False, 'trialN': 92, 'loaded': True, 'loadedTime': 2758.5999999996275, 'positionName': 'RIGHT', 'positionCoords': [1050.92, 362.5], 'bid': 0.66}]",175725.69999999925,1669830310377,rigatoni and sauce,lox,2.13,0.66,-1.4699999999999998,rigatoni and sauce,u,908.7000000011176,909,True,177156.69999999925,1431.0,1669830311808,1431,908.8000000007451,HRV,HRV_0041,2022-11-30 17:47:43
93,"[{'imgObject': {}, 'id': 'mac & cheese', 'src': '/static/foodstim60/mac & cheese.jpg', 'key': 'u', 'origWidth': 410, 'origHeight': 410, 'width': 410, 'height': 410, 'widthPercent': 0.45, 'rescaleHeight': False, 'trialN': 93, 'loaded': True, 'loadedTime': 2547.9000000003725, 'positionName': 'LEFT', 'positionCoords': [560.08, 363], 'bid': 7.35}, {'imgObject': {}, 'id': 'cheerios', 'src': '/static/foodstim60/cheerios.jpg', 'key': 'i', 'origWidth': 409, 'origHeight': 410, 'width': 409, 'height': 410, 'widthPercent': 0.45, 'rescaleHeight': False, 'trialN': 93, 'loaded': True, 'loadedTime': 2809.7999999988824, 'positionName': 'RIGHT', 'positionCoords': [1050.92, 363], 'bid': 9.19}]",177156.79999999888,1669830311808,mac & cheese,cheerios,7.35,9.19,1.8399999999999999,mac & cheese,u,1157.9000000003725,1159,True,178820.69999999925,1663.9000000003725,1669830313472,1664,1158.2000000011176,HRV,HRV_0041,2022-11-30 17:47:43
94,"[{'imgObject': {}, 'id': 'turkeysandwich', 'src': '/static/foodstim60/turkeysandwich.jpg', 'key': 'u', 'origWidth': 409, 'origHeight': 409, 'width': 409, 'height': 409, 'widthPercent': 0.45, 'rescaleHeight': False, 'trialN': 94, 'loaded': True, 'loadedTime': 2805.2999999988824, 'positionName': 'LEFT', 'positionCoords': [561.08, 363.5], 'bid': 5.43}, {'imgObject': {}, 'id': 'turkey sandwich', 'src': '/static/foodstim60/turkey sandwich.jpg', 'key': 'i', 'origWidth': 409, 'origHeight': 409, 'width': 409, 'height': 409, 'widthPercent': 0.45, 'rescaleHeight': False, 'trialN': 94, 'loaded': True, 'loadedTime': 2677.7999999988824, 'positionName': 'RIGHT', 'positionCoords': [1050.92, 363.5], 'bid': 7.33}]",178820.90000000037,1669830313472,turkeysandwich,turkey sandwich,5.43,7.33,1.9000000000000004,turkeysandwich,u,1005.6999999992549,1006,True,180337.19999999925,1516.2999999988824,1669830314989,1517,1006.0,HRV,HRV_0041,2022-11-30 17:47:43
95,"[{'imgObject': {}, 'id': 'cherry tomato', 'src': '/static/foodstim60/cherry tomato.jpg', 'key': 'u', 'origWidth': 410, 'origHeight': 410, 'width': 410, 'height': 410, 'widthPercent': 0.45, 'rescaleHeight': False, 'trialN': 95, 'loaded': True, 'loadedTime': 2757.5, 'positionName': 'LEFT', 'positionCoords': [560.08, 363], 'bid': 1.74}, {'imgObject': {}, 'id': 'veggieswithdip', 'src': '/static/foodstim60/veggieswithdip.jpg', 'key': 'i', 'origWidth': 409, 'origHeight': 409, 'width': 409, 'height': 409, 'widthPercent': 0.45, 'rescaleHeight': False, 'trialN': 95, 'loaded': True, 'loadedTime': 2835.7999999988824, 'positionName': 'RIGHT', 'positionCoords': [1050.92, 363.5], 'bid': 5.94}]",180337.29999999888,1669830314989,cherry tomato,veggieswithdip,1.74,5.94,4.2,cherry tomato,u,985.2000000011176,985,True,181830.19999999925,1492.9000000003725,1669830316482,1493,985.5,HRV,HRV_0041,2022-11-30 17:47:43
96,"[{'imgObject': {}, 'id': 'yogurt no spoon', 'src': '/static/foodstim60/yogurt no spoon.jpg', 'key': 'u', 'origWidth': 411, 'origHeight': 410, 'width': 411, 'height': 410, 'widthPercent': 0.45, 'rescaleHeight': False, 'trialN': 96, 'loaded': True, 'loadedTime': 2717.199999999255, 'positionName': 'LEFT', 'positionCoords': [559.08, 363], 'bid': 7.74}, {'imgObject': {}, 'id': 'hashbrowns', 'src': '/static/foodstim60/hashbrowns.jpg', 'key': 'i', 'origWidth': 411, 'origHeight': 410, 'width': 411, 'height': 410, 'widthPercent': 0.45, 'rescaleHeight': False, 'trialN': 96, 'loaded': True, 'loadedTime': 2833.4000000003725, 'positionName': 'RIGHT', 'positionCoords': [1050.92, 363], 'bid': 5.72}]",181830.29999999888,1669830316482,yogurt no spoon,hashbrowns,7.74,5.72,-2.0200000000000005,yogurt no spoon,u,1028,1028,True,183370.0,1539.7000000011176,1669830318022,1540,1028.2000000011176,HRV,HRV_0041,2022-11-30 17:47:43
97,"[{'imgObject': {}, 'id': 'cherries', 'src': '/static/foodstim60/cherries.jpg', 'key': 'u', 'origWidth': 410, 'origHeight': 411, 'width': 410, 'height': 411, 'widthPercent': 0.45, 'rescaleHeight': False, 'trialN': 97, 'loaded': True, 'loadedTime': 2789.199999999255, 'positionName': 'LEFT', 'positionCoords': [560.08, 362.5], 'bid': 5.3500000000000005}, {'imgObject': {}, 'id': 'blackbeanswithrice', 'src': '/static/foodstim60/blackbeanswithrice.jpg', 'key': 'i', 'origWidth': 410, 'origHeight': 410, 'width': 410, 'height': 410, 'widthPercent': 0.45, 'rescaleHeight': False, 'trialN': 97, 'loaded': True, 'loadedTime': 2819.699999999255, 'positionName': 'RIGHT', 'positionCoords': [1050.92, 363], 'bid': 4.62}]",183370.19999999925,1669830318022,cherries,blackbeanswithrice,5.3500000000000005,4.62,-0.7300000000000004,blackbeanswithrice,i,736.0999999996275,736,True,184628.90000000037,1258.7000000011176,1669830319281,1259,736.5,HRV,HRV_0041,2022-11-30 17:47:43
98,"[{'imgObject': {}, 'id': 'popsicles', 'src': '/static/foodstim60/popsicles.jpg', 'key': 'u', 'origWidth': 410, 'origHeight': 410, 'width': 410, 'height': 410, 'widthPercent': 0.45, 'rescaleHeight': False, 'trialN': 98, 'loaded': True, 'loadedTime': 2686.699999999255, 'positionName': 'LEFT', 'positionCoords': [560.08, 363], 'bid': 6.29}, {'imgObject': {}, 'id': 'baked potato', 'src': '/static/foodstim60/baked potato.jpg', 'key': 'i', 'origWidth': 409, 'origHeight': 410, 'width': 409, 'height': 410, 'widthPercent': 0.45, 'rescaleHeight': False, 'trialN': 98, 'loaded': True, 'loadedTime': 2739.9000000003725, 'positionName': 'RIGHT', 'positionCoords': [1050.92, 363], 'bid': 8.120000000000001}]",184629.09999999963,1669830319281,popsicles,baked potato,6.29,8.120000000000001,1.830000000000001,baked potato,i,960.1999999992549,960,True,186094.69999999925,1465.5999999996275,1669830320746,1465,960.5999999996275,HRV,HRV_0041,2022-11-30 17:47:43
99,"[{'imgObject': {}, 'id': 'ice cream sundae 002', 'src': '/static/foodstim60/ice cream sundae 002.jpg', 'key': 'u', 'origWidth': 409, 'origHeight': 409, 'width': 409, 'height': 409, 'widthPercent': 0.45, 'rescaleHeight': False, 'trialN': 99, 'loaded': True, 'loadedTime': 2692.9000000003725, 'positionName': 'LEFT', 'positionCoords': [561.08, 363.5], 'bid': 9.2}, {'imgObject': {}, 'id': 'blackbeanswithrice', 'src': '/static/foodstim60/blackbeanswithrice.jpg', 'key': 'i', 'origWidth': 410, 'origHeight': 410, 'width': 410, 'height': 410, 'widthPercent': 0.45, 'rescaleHeight': False, 'trialN': 99, 'loaded': True, 'loadedTime': 2821.4000000003725, 'positionName': 'RIGHT', 'positionCoords': [1050.92, 363], 'bid': 4.62}]",186094.90000000037,1669830320746,ice cream sundae 002,blackbeanswithrice,9.2,4.62,-4.579999999999999,blackbeanswithrice,i,1083.5,1084,True,187691.69999999925,1596.7999999988824,1669830322343,1597,1083.8999999985099,HRV,HRV_0041,2022-11-30 17:47:43
100,"[{'imgObject': {}, 'id': 'olives', 'src': '/static/foodstim60/olives.jpg', 'key': 'u', 'origWidth': 410, 'origHeight': 410, 'width': 410, 'height': 410, 'widthPercent': 0.45, 'rescaleHeight': False, 'trialN': 100, 'loaded': True, 'loadedTime': 2768, 'positionName': 'LEFT', 'positionCoords': [560.08, 363], 'bid': 1.19}, {'imgObject': {}, 'id': 'blueberries', 'src': '/static/foodstim60/blueberries.jpg', 'key': 'i', 'origWidth': 411, 'origHeight': 411, 'width': 411, 'height': 411, 'widthPercent': 0.45, 'rescaleHeight': False, 'trialN': 100, 'loaded': True, 'loadedTime': 2739.9000000003725, 'positionName': 'RIGHT', 'positionCoords': [1050.92, 362.5], 'bid': 5.69}]",187691.90000000037,1669830322343,olives,blueberries,1.19,5.69,4.5,blueberries,i,1094.5,1095,True,189303.79999999888,1611.8999999985099,1669830323955,1612,1094.8999999985099,HRV,HRV_0041,2022-11-30 17:47:43
101,"[{'imgObject': {}, 'id': 'fried eggs', 'src': '/static/foodstim60/fried eggs.jpg', 'key': 'u', 'origWidth': 410, 'origHeight': 410, 'width': 410, 'height': 410, 'widthPercent': 0.45, 'rescaleHeight': False, 'trialN': 101, 'loaded': True, 'loadedTime': 2838.699999999255, 'positionName': 'LEFT', 'positionCoords': [560.08, 363], 'bid': 7.69}, {'imgObject': {}, 'id': 'eggsalad', 'src': '/static/foodstim60/eggsalad.jpg', 'key': 'i', 'origWidth': 410, 'origHeight': 409, 'width': 410, 'height': 409, 'widthPercent': 0.45, 'rescaleHeight': False, 'trialN': 101, 'loaded': True, 'loadedTime': 2803.0999999996275, 'positionName': 'RIGHT', 'positionCoords': [1050.92, 363.5], 'bid': 5.71}]",189304.0,1669830323956,fried eggs,eggsalad,7.69,5.71,-1.9800000000000004,fried eggs,u,922.5999999996275,922,True,190741.90000000037,1437.9000000003725,1669830325394,1438,922.7999999988824,HRV,HRV_0041,2022-11-30 17:47:43
102,"[{'imgObject': {}, 'id': 'blueberries', 'src': '/static/foodstim60/blueberries.jpg', 'key': 'u', 'origWidth': 411, 'origHeight': 411, 'width': 411, 'height': 411, 'widthPercent': 0.45, 'rescaleHeight': False, 'trialN': 102, 'loaded': True, 'loadedTime': 2741.9000000003725, 'positionName': 'LEFT', 'positionCoords': [559.08, 362.5], 'bid': 5.69}, {'imgObject': {}, 'id': 'turkeysandwich', 'src': '/static/foodstim60/turkeysandwich.jpg', 'key': 'i', 'origWidth': 409, 'origHeight': 409, 'width': 409, 'height': 409, 'widthPercent': 0.45, 'rescaleHeight': False, 'trialN': 102, 'loaded': True, 'loadedTime': 2806, 'positionName': 'RIGHT', 'positionCoords': [1050.92, 363.5], 'bid': 5.43}]",190742.0,1669830325394,blueberries,turkeysandwich,5.69,5.43,-0.2600000000000007,turkeysandwich,i,772.5,772,True,192016.0,1274.0,1669830326668,1274,772.7999999988824,HRV,HRV_0041,2022-11-30 17:47:43
103,"[{'imgObject': {}, 'id': 'banana', 'src': '/static/foodstim60/banana.jpg', 'key': 'u', 'origWidth': 410, 'origHeight': 410, 'width': 410, 'height': 410, 'widthPercent': 0.45, 'rescaleHeight': False, 'trialN': 103, 'loaded': True, 'loadedTime': 2784.7999999988824, 'positionName': 'LEFT', 'positionCoords': [560.08, 363], 'bid': 9.89}, {'imgObject': {}, 'id': 'steak', 'src': '/static/foodstim60/steak.jpg', 'key': 'i', 'origWidth': 410, 'origHeight': 410, 'width': 410, 'height': 410, 'widthPercent': 0.45, 'rescaleHeight': False, 'trialN': 103, 'loaded': True, 'loadedTime': 2812.5, 'positionName': 'RIGHT', 'positionCoords': [1050.92, 363], 'bid': 9.66}]",192016.19999999925,1669830326668,banana,steak,9.89,9.66,-0.23000000000000043,steak,i,810.3000000007451,810,True,193337.79999999888,1321.5999999996275,1669830327989,1321,810.5999999996275,HRV,HRV_0041,2022-11-30 17:47:43
104,"[{'imgObject': {}, 'id': 'fried eggs', 'src': '/static/foodstim60/fried eggs.jpg', 'key': 'u', 'origWidth': 410, 'origHeight': 410, 'width': 410, 'height': 410, 'widthPercent': 0.45, 'rescaleHeight': False, 'trialN': 104, 'loaded': True, 'loadedTime': 2837.9000000003725, 'positionName': 'LEFT', 'positionCoords': [560.08, 363], 'bid': 7.69}, {'imgObject': {}, 'id': 'ice cream sundae 002', 'src': '/static/foodstim60/ice cream sundae 002.jpg', 'key': 'i', 'origWidth': 409, 'origHeight': 409, 'width': 409, 'height': 409, 'widthPercent': 0.45, 'rescaleHeight': False, 'trialN': 104, 'loaded': True, 'loadedTime': 2692.0999999996275, 'positionName': 'RIGHT', 'positionCoords': [1050.92, 363.5], 'bid': 9.2}]",193337.90000000037,1669830327990,fried eggs,ice cream sundae 002,7.69,9.2,1.509999999999999,fried eggs,u,848.6999999992549,849,True,194699.40000000037,1361.5,1669830329351,1361,849.0,HRV,HRV_0041,2022-11-30 17:47:43
105,"[{'imgObject': {}, 'id': 'granola w milk', 'src': '/static/foodstim60/granola w milk.jpg', 'key': 'u', 'origWidth': 410, 'origHeight': 410, 'width': 410, 'height': 410, 'widthPercent': 0.45, 'rescaleHeight': False, 'trialN': 105, 'loaded': True, 'loadedTime': 2837.7999999988824, 'positionName': 'LEFT', 'positionCoords': [560.08, 363], 'bid': 8.96}, {'imgObject': {}, 'id': 'luckycharms', 'src': '/static/foodstim60/luckycharms.jpg', 'key': 'i', 'origWidth': 410, 'origHeight': 409, 'width': 410, 'height': 409, 'widthPercent': 0.45, 'rescaleHeight': False, 'trialN': 105, 'loaded': True, 'loadedTime': 2814.199999999255, 'positionName': 'RIGHT', 'positionCoords': [1050.92, 363.5], 'bid': 9.54}]",194699.59999999963,1669830329351,granola w milk,luckycharms,8.96,9.54,0.5799999999999983,granola w milk,u,1049.5999999996275,1050,True,196268.69999999925,1569.0999999996275,1669830330920,1569,1049.800000000745,HRV,HRV_0041,2022-11-30 17:47:43
106,"[{'imgObject': {}, 'id': 'eggs', 'src': '/static/foodstim60/eggs.jpg', 'key': 'u', 'origWidth': 409, 'origHeight': 409, 'width': 409, 'height': 409, 'widthPercent': 0.45, 'rescaleHeight': False, 'trialN': 106, 'loaded': True, 'loadedTime': 2835, 'positionName': 'LEFT', 'positionCoords': [561.08, 363.5], 'bid': 4.17}, {'imgObject': {}, 'id': 'salmon', 'src': '/static/foodstim60/salmon.jpg', 'key': 'i', 'origWidth': 410, 'origHeight': 409, 'width': 410, 'height': 409, 'widthPercent': 0.45, 'rescaleHeight': False, 'trialN': 106, 'loaded': True, 'loadedTime': 2665, 'positionName': 'RIGHT', 'positionCoords': [1050.92, 363.5], 'bid': 0.44}]",196268.90000000037,1669830330921,eggs,salmon,4.17,0.44,-3.73,eggs,u,1077.5999999996275,1077,True,197860.19999999925,1591.2999999988824,1669830332512,1591,1077.8999999985099,HRV,HRV_0041,2022-11-30 17:47:43
107,"[{'imgObject': {}, 'id': 'lox', 'src': '/static/foodstim60/lox.jpg', 'key': 'u', 'origWidth': 410, 'origHeight': 411, 'width': 410, 'height': 411, 'widthPercent': 0.45, 'rescaleHeight': False, 'trialN': 107, 'loaded': True, 'loadedTime': 2758.699999999255, 'positionName': 'LEFT', 'positionCoords': [560.08, 362.5], 'bid': 0.66}, {'imgObject': {}, 'id': 'bagel plain', 'src': '/static/foodstim60/bagel plain.jpg', 'key': 'i', 'origWidth': 410, 'origHeight': 410, 'width': 410, 'height': 410, 'widthPercent': 0.45, 'rescaleHeight': False, 'trialN': 107, 'loaded': True, 'loadedTime': 2708.199999999255, 'positionName': 'RIGHT', 'positionCoords': [1050.92, 363], 'bid': 0.76}]",197860.29999999888,1669830332512,lox,bagel plain,0.66,0.76,0.09999999999999998,bagel plain,i,782.4000000003725,783,True,199162.5,1302.2000000011176,1669830333814,1302,782.8000000007451,HRV,HRV_0041,2022-11-30 17:47:43
