trialN,stimuli,question,trialStartTime,trialStartTime_UNIX,stimulus1,rt,receivedResponse,rating,trialEndTime,trialDuration,stimulus1Loaded,exp,subjectId,date
0,"[{'imgObject': {}, 'id': 'Grapes', 'src': '/static/foodstim60/Grapes.jpg', 'key': 'NaN', 'origWidth': 411, 'origHeight': 411, 'width': 411, 'height': 411, 'widthPercent': 0.8, 'rescaleHeight': True, 'trialN': 0, 'loaded': True, 'loadedTime': 2532.0999999996275, 'positionName': 'CENTER', 'positionCoords': [805, 362.5]}]",Rate how much you want to eat this food from 0 (least) to 10 (most).,3212.5,1669829867394,Grapes,1743.0,True,7.68,4955.5,1743.0,True,HRV,HRV_0041,2022-11-30 17:39:33
1,"[{'imgObject': {}, 'id': 'apple slices', 'src': '/static/foodstim60/apple slices.jpg', 'key': 'NaN', 'origWidth': 409, 'origHeight': 410, 'width': 409, 'height': 410, 'widthPercent': 0.8, 'rescaleHeight': True, 'trialN': 1, 'loaded': True, 'loadedTime': 2495.5, 'positionName': 'CENTER', 'positionCoords': [806, 363]}]",Rate how much you want to eat this food from 0 (least) to 10 (most).,4957.4000000003725,1669829869139,apple slices,1326.199999999255,True,8.22,6283.5999999996275,1326.199999999255,True,HRV,HRV_0041,2022-11-30 17:39:33
2,"[{'imgObject': {}, 'id': 'olives', 'src': '/static/foodstim60/olives.jpg', 'key': 'NaN', 'origWidth': 410, 'origHeight': 410, 'width': 410, 'height': 410, 'widthPercent': 0.8, 'rescaleHeight': True, 'trialN': 2, 'loaded': True, 'loadedTime': 2505.699999999255, 'positionName': 'CENTER', 'positionCoords': [805.5, 363]}]",Rate how much you want to eat this food from 0 (least) to 10 (most).,6284.4000000003725,1669829870466,olives,1775.0999999996275,True,1.6300000000000001,8059.5,1775.0999999996275,True,HRV,HRV_0041,2022-11-30 17:39:33
3,"[{'imgObject': {}, 'id': 'blackbeanswithrice', 'src': '/static/foodstim60/blackbeanswithrice.jpg', 'key': 'NaN', 'origWidth': 410, 'origHeight': 410, 'width': 410, 'height': 410, 'widthPercent': 0.8, 'rescaleHeight': True, 'trialN': 3, 'loaded': True, 'loadedTime': 2537.5, 'positionName': 'CENTER', 'positionCoords': [805.5, 363]}]",Rate how much you want to eat this food from 0 (least) to 10 (most).,8060.799999998882,1669829872242,blackbeanswithrice,2294.800000000745,True,4.07,10355.599999999627,2294.800000000745,True,HRV,HRV_0041,2022-11-30 17:39:33
4,"[{'imgObject': {}, 'id': 'omelette', 'src': '/static/foodstim60/omelette.jpg', 'key': 'NaN', 'origWidth': 410, 'origHeight': 409, 'width': 410, 'height': 409, 'widthPercent': 0.8, 'rescaleHeight': True, 'trialN': 4, 'loaded': True, 'loadedTime': 2496.4000000003725, 'positionName': 'CENTER', 'positionCoords': [805.5, 363.5]}]",Rate how much you want to eat this food from 0 (least) to 10 (most).,10356.400000000373,1669829874538,omelette,1587.199999999255,True,5.38,11943.599999999627,1587.199999999255,True,HRV,HRV_0041,2022-11-30 17:39:33
5,"[{'imgObject': {}, 'id': 'fried eggs', 'src': '/static/foodstim60/fried eggs.jpg', 'key': 'NaN', 'origWidth': 410, 'origHeight': 410, 'width': 410, 'height': 410, 'widthPercent': 0.8, 'rescaleHeight': True, 'trialN': 5, 'loaded': True, 'loadedTime': 2531.0999999996275, 'positionName': 'CENTER', 'positionCoords': [805.5, 363]}]",Rate how much you want to eat this food from 0 (least) to 10 (most).,11944.299999998882,1669829876126,fried eggs,1399.300000000745,True,6.7,13343.599999999627,1399.300000000745,True,HRV,HRV_0041,2022-11-30 17:39:33
6,"[{'imgObject': {}, 'id': 'baked potato', 'src': '/static/foodstim60/baked potato.jpg', 'key': 'NaN', 'origWidth': 409, 'origHeight': 410, 'width': 409, 'height': 410, 'widthPercent': 0.8, 'rescaleHeight': True, 'trialN': 6, 'loaded': True, 'loadedTime': 2603.5999999996275, 'positionName': 'CENTER', 'positionCoords': [806, 363]}]",Rate how much you want to eat this food from 0 (least) to 10 (most).,13344.599999999627,1669829877526,baked potato,1421.199999999255,True,7.7700000000000005,14765.799999998882,1421.199999999255,True,HRV,HRV_0041,2022-11-30 17:39:33
7,"[{'imgObject': {}, 'id': 'strawberries', 'src': '/static/foodstim60/strawberries.jpg', 'key': 'NaN', 'origWidth': 410, 'origHeight': 410, 'width': 410, 'height': 410, 'widthPercent': 0.8, 'rescaleHeight': True, 'trialN': 7, 'loaded': True, 'loadedTime': 2605.5999999996275, 'positionName': 'CENTER', 'positionCoords': [805.5, 363]}]",Rate how much you want to eat this food from 0 (least) to 10 (most).,14766.599999999627,1669829878948,strawberries,1233.0,True,8.89,15999.599999999627,1233.0,True,HRV,HRV_0041,2022-11-30 17:39:33
8,"[{'imgObject': {}, 'id': 'cheerios', 'src': '/static/foodstim60/cheerios.jpg', 'key': 'NaN', 'origWidth': 409, 'origHeight': 410, 'width': 409, 'height': 410, 'widthPercent': 0.8, 'rescaleHeight': True, 'trialN': 8, 'loaded': True, 'loadedTime': 2659.5, 'positionName': 'CENTER', 'positionCoords': [806, 363]}]",Rate how much you want to eat this food from 0 (least) to 10 (most).,16000.599999999627,1669829880182,cheerios,1405.0999999996275,True,9.01,17405.699999999255,1405.0999999996275,True,HRV,HRV_0041,2022-11-30 17:39:33
9,"[{'imgObject': {}, 'id': 'popsicles', 'src': '/static/foodstim60/popsicles.jpg', 'key': 'NaN', 'origWidth': 410, 'origHeight': 410, 'width': 410, 'height': 410, 'widthPercent': 0.8, 'rescaleHeight': True, 'trialN': 9, 'loaded': True, 'loadedTime': 2567.5, 'positionName': 'CENTER', 'positionCoords': [805.5, 363]}]",Rate how much you want to eat this food from 0 (least) to 10 (most).,17406.599999999627,1669829881588,popsicles,1901.0,True,3.75,19307.599999999627,1901.0,True,HRV,HRV_0041,2022-11-30 17:39:33
10,"[{'imgObject': {}, 'id': 'cocktailshrimp', 'src': '/static/foodstim60/cocktailshrimp.jpg', 'key': 'NaN', 'origWidth': 410, 'origHeight': 410, 'width': 410, 'height': 410, 'widthPercent': 0.8, 'rescaleHeight': True, 'trialN': 10, 'loaded': True, 'loadedTime': 2574, 'positionName': 'CENTER', 'positionCoords': [805.5, 363]}]",Rate how much you want to eat this food from 0 (least) to 10 (most).,19308.699999999255,1669829883490,cocktailshrimp,1564.7000000011176,True,0.97,20873.400000000373,1564.7000000011176,True,HRV,HRV_0041,2022-11-30 17:39:33
11,"[{'imgObject': {}, 'id': 'sushi w_condiments', 'src': '/static/foodstim60/sushi w_condiments.jpg', 'key': 'NaN', 'origWidth': 410, 'origHeight': 410, 'width': 410, 'height': 410, 'widthPercent': 0.8, 'rescaleHeight': True, 'trialN': 11, 'loaded': True, 'loadedTime': 2572.5999999996275, 'positionName': 'CENTER', 'positionCoords': [805.5, 363]}]",Rate how much you want to eat this food from 0 (least) to 10 (most).,20874.199999999255,1669829885056,sushi w_condiments,1923.2000000011176,True,8.13,22797.400000000373,1923.2000000011176,True,HRV,HRV_0041,2022-11-30 17:39:33
12,"[{'imgObject': {}, 'id': 'kiwi', 'src': '/static/foodstim60/kiwi.jpg', 'key': 'NaN', 'origWidth': 410, 'origHeight': 410, 'width': 410, 'height': 410, 'widthPercent': 0.8, 'rescaleHeight': True, 'trialN': 12, 'loaded': True, 'loadedTime': 2634.199999999255, 'positionName': 'CENTER', 'positionCoords': [805.5, 363]}]",Rate how much you want to eat this food from 0 (least) to 10 (most).,22798.299999998882,1669829886980,kiwi,1455.2000000011176,True,8.94,24253.5,1455.2000000011176,True,HRV,HRV_0041,2022-11-30 17:39:33
13,"[{'imgObject': {}, 'id': 'salad w chicken', 'src': '/static/foodstim60/salad w chicken.jpg', 'key': 'NaN', 'origWidth': 411, 'origHeight': 411, 'width': 411, 'height': 411, 'widthPercent': 0.8, 'rescaleHeight': True, 'trialN': 13, 'loaded': True, 'loadedTime': 2661.199999999255, 'positionName': 'CENTER', 'positionCoords': [805, 362.5]}]",Rate how much you want to eat this food from 0 (least) to 10 (most).,24254.400000000373,1669829888436,salad w chicken,1523.0999999996275,True,9.35,25777.5,1523.0999999996275,True,HRV,HRV_0041,2022-11-30 17:39:33
14,"[{'imgObject': {}, 'id': 'steak', 'src': '/static/foodstim60/steak.jpg', 'key': 'NaN', 'origWidth': 410, 'origHeight': 410, 'width': 410, 'height': 410, 'widthPercent': 0.8, 'rescaleHeight': True, 'trialN': 14, 'loaded': True, 'loadedTime': 2660.5, 'positionName': 'CENTER', 'positionCoords': [805.5, 363]}]",Rate how much you want to eat this food from 0 (least) to 10 (most).,25778.5,1669829889960,steak,1539.0999999996275,True,9.65,27317.599999999627,1539.0999999996275,True,HRV,HRV_0041,2022-11-30 17:39:33
15,"[{'imgObject': {}, 'id': 'granola w milk', 'src': '/static/foodstim60/granola w milk.jpg', 'key': 'NaN', 'origWidth': 410, 'origHeight': 410, 'width': 410, 'height': 410, 'widthPercent': 0.8, 'rescaleHeight': True, 'trialN': 15, 'loaded': True, 'loadedTime': 2688.5999999996275, 'positionName': 'CENTER', 'positionCoords': [805.5, 363]}]",Rate how much you want to eat this food from 0 (least) to 10 (most).,27318.400000000373,1669829891500,granola w milk,1587.199999999255,True,7.97,28905.599999999627,1587.199999999255,True,HRV,HRV_0041,2022-11-30 17:39:33
16,"[{'imgObject': {}, 'id': 'Tribe humus pita', 'src': '/static/foodstim60/Tribe humus pita.jpg', 'key': 'NaN', 'origWidth': 411, 'origHeight': 411, 'width': 411, 'height': 411, 'widthPercent': 0.8, 'rescaleHeight': True, 'trialN': 16, 'loaded': True, 'loadedTime': 2687.5999999996275, 'positionName': 'CENTER', 'positionCoords': [805, 362.5]}]",Rate how much you want to eat this food from 0 (least) to 10 (most).,28906.400000000373,1669829893088,Tribe humus pita,2003.0999999996275,True,2.59,30909.5,2003.0999999996275,True,HRV,HRV_0041,2022-11-30 17:39:33
17,"[{'imgObject': {}, 'id': 'luckycharms', 'src': '/static/foodstim60/luckycharms.jpg', 'key': 'NaN', 'origWidth': 410, 'origHeight': 409, 'width': 410, 'height': 409, 'widthPercent': 0.8, 'rescaleHeight': True, 'trialN': 17, 'loaded': True, 'loadedTime': 2700.4000000003725, 'positionName': 'CENTER', 'positionCoords': [805.5, 363.5]}]",Rate how much you want to eat this food from 0 (least) to 10 (most).,30910.799999998882,1669829895092,luckycharms,1476.800000000745,True,8.02,32387.599999999627,1476.800000000745,True,HRV,HRV_0041,2022-11-30 17:39:33
18,"[{'imgObject': {}, 'id': 'yogurt no spoon', 'src': '/static/foodstim60/yogurt no spoon.jpg', 'key': 'NaN', 'origWidth': 411, 'origHeight': 410, 'width': 411, 'height': 410, 'widthPercent': 0.8, 'rescaleHeight': True, 'trialN': 18, 'loaded': True, 'loadedTime': 2723.5999999996275, 'positionName': 'CENTER', 'positionCoords': [805, 363]}]",Rate how much you want to eat this food from 0 (least) to 10 (most).,32388.599999999627,1669829896570,yogurt no spoon,1461.0,True,9.0,33849.59999999963,1461.0,True,HRV,HRV_0041,2022-11-30 17:39:33
19,"[{'imgObject': {}, 'id': 'turkeysandwich', 'src': '/static/foodstim60/turkeysandwich.jpg', 'key': 'NaN', 'origWidth': 409, 'origHeight': 409, 'width': 409, 'height': 409, 'widthPercent': 0.8, 'rescaleHeight': True, 'trialN': 19, 'loaded': True, 'loadedTime': 2724.5999999996275, 'positionName': 'CENTER', 'positionCoords': [806, 363.5]}]",Rate how much you want to eat this food from 0 (least) to 10 (most).,33850.59999999963,1669829898032,turkeysandwich,1383.0,True,7.2,35233.59999999963,1383.0,True,HRV,HRV_0041,2022-11-30 17:39:33
20,"[{'imgObject': {}, 'id': 'blueberries', 'src': '/static/foodstim60/blueberries.jpg', 'key': 'NaN', 'origWidth': 411, 'origHeight': 411, 'width': 411, 'height': 411, 'widthPercent': 0.8, 'rescaleHeight': True, 'trialN': 20, 'loaded': True, 'loadedTime': 2727.5999999996275, 'positionName': 'CENTER', 'positionCoords': [805, 362.5]}]",Rate how much you want to eat this food from 0 (least) to 10 (most).,35234.699999999255,1669829899416,blueberries,1428.800000000745,True,8.950000000000001,36663.5,1428.800000000745,True,HRV,HRV_0041,2022-11-30 17:39:33
21,"[{'imgObject': {}, 'id': 'pear', 'src': '/static/foodstim60/pear.jpg', 'key': 'NaN', 'origWidth': 411, 'origHeight': 410, 'width': 411, 'height': 410, 'widthPercent': 0.8, 'rescaleHeight': True, 'trialN': 21, 'loaded': True, 'loadedTime': 2751.5999999996275, 'positionName': 'CENTER', 'positionCoords': [805, 363]}]",Rate how much you want to eat this food from 0 (least) to 10 (most).,36664.699999999255,1669829900846,pear,1310.9000000003725,True,8.74,37975.59999999963,1310.9000000003725,True,HRV,HRV_0041,2022-11-30 17:39:33
22,"[{'imgObject': {}, 'id': 'turkey sandwich', 'src': '/static/foodstim60/turkey sandwich.jpg', 'key': 'NaN', 'origWidth': 409, 'origHeight': 409, 'width': 409, 'height': 409, 'widthPercent': 0.8, 'rescaleHeight': True, 'trialN': 22, 'loaded': True, 'loadedTime': 2752.4000000003725, 'positionName': 'CENTER', 'positionCoords': [806, 363.5]}]",Rate how much you want to eat this food from 0 (least) to 10 (most).,37976.5,1669829902158,turkey sandwich,1431.0,True,9.18,39407.5,1431.0,True,HRV,HRV_0041,2022-11-30 17:39:33
23,"[{'imgObject': {}, 'id': 'froot loops w milk', 'src': '/static/foodstim60/froot loops w milk.jpg', 'key': 'NaN', 'origWidth': 410, 'origHeight': 410, 'width': 410, 'height': 410, 'widthPercent': 0.8, 'rescaleHeight': True, 'trialN': 23, 'loaded': True, 'loadedTime': 2777.7999999988824, 'positionName': 'CENTER', 'positionCoords': [805.5, 363]}]",Rate how much you want to eat this food from 0 (least) to 10 (most).,39408.90000000037,1669829903590,froot loops w milk,1750.699999999255,True,9.02,41159.59999999963,1750.699999999255,True,HRV,HRV_0041,2022-11-30 17:39:33
24,"[{'imgObject': {}, 'id': 'shreddedwheatwithmilk', 'src': '/static/foodstim60/shreddedwheatwithmilk.jpg', 'key': 'NaN', 'origWidth': 410, 'origHeight': 410, 'width': 410, 'height': 410, 'widthPercent': 0.8, 'rescaleHeight': True, 'trialN': 24, 'loaded': True, 'loadedTime': 2779.7999999988824, 'positionName': 'CENTER', 'positionCoords': [805.5, 363]}]",Rate how much you want to eat this food from 0 (least) to 10 (most).,41160.5,1669829905342,shreddedwheatwithmilk,1933.0999999996275,True,9.370000000000001,43093.59999999963,1933.0999999996275,True,HRV,HRV_0041,2022-11-30 17:39:33
25,"[{'imgObject': {}, 'id': 'seaweed', 'src': '/static/foodstim60/seaweed.jpg', 'key': 'NaN', 'origWidth': 410, 'origHeight': 410, 'width': 410, 'height': 410, 'widthPercent': 0.8, 'rescaleHeight': True, 'trialN': 25, 'loaded': True, 'loadedTime': 2791.2999999988824, 'positionName': 'CENTER', 'positionCoords': [805.5, 363]}]",Rate how much you want to eat this food from 0 (least) to 10 (most).,43094.90000000037,1669829907276,seaweed,1594.5999999996275,True,1.87,44689.5,1594.5999999996275,True,HRV,HRV_0041,2022-11-30 17:39:33
26,"[{'imgObject': {}, 'id': 'rigatoni', 'src': '/static/foodstim60/rigatoni.jpg', 'key': 'NaN', 'origWidth': 411, 'origHeight': 411, 'width': 411, 'height': 411, 'widthPercent': 0.8, 'rescaleHeight': True, 'trialN': 26, 'loaded': True, 'loadedTime': 2804.199999999255, 'positionName': 'CENTER', 'positionCoords': [805, 362.5]}]",Rate how much you want to eat this food from 0 (least) to 10 (most).,44690.5,1669829908872,rigatoni,1681.199999999255,True,1.6600000000000001,46371.699999999255,1681.199999999255,True,HRV,HRV_0041,2022-11-30 17:39:33
27,"[{'imgObject': {}, 'id': 'lox', 'src': '/static/foodstim60/lox.jpg', 'key': 'NaN', 'origWidth': 410, 'origHeight': 411, 'width': 410, 'height': 411, 'widthPercent': 0.8, 'rescaleHeight': True, 'trialN': 27, 'loaded': True, 'loadedTime': 2815.2999999988824, 'positionName': 'CENTER', 'positionCoords': [805.5, 362.5]}]",Rate how much you want to eat this food from 0 (least) to 10 (most).,46372.699999999255,1669829910554,lox,2672.9000000003725,True,0.87,49045.59999999963,2672.9000000003725,True,HRV,HRV_0041,2022-11-30 17:39:33
28,"[{'imgObject': {}, 'id': 'cherries', 'src': '/static/foodstim60/cherries.jpg', 'key': 'NaN', 'origWidth': 410, 'origHeight': 411, 'width': 410, 'height': 411, 'widthPercent': 0.8, 'rescaleHeight': True, 'trialN': 28, 'loaded': True, 'loadedTime': 2823.5, 'positionName': 'CENTER', 'positionCoords': [805.5, 362.5]}]",Rate how much you want to eat this food from 0 (least) to 10 (most).,49046.699999999255,1669829913228,cherries,2938.800000000745,True,4.73,51985.5,2938.800000000745,True,HRV,HRV_0041,2022-11-30 17:39:33
29,"[{'imgObject': {}, 'id': 'hashbrowns', 'src': '/static/foodstim60/hashbrowns.jpg', 'key': 'NaN', 'origWidth': 411, 'origHeight': 410, 'width': 411, 'height': 410, 'widthPercent': 0.8, 'rescaleHeight': True, 'trialN': 29, 'loaded': True, 'loadedTime': 2833.7999999988824, 'positionName': 'CENTER', 'positionCoords': [805, 363]}]",Rate how much you want to eat this food from 0 (least) to 10 (most).,51986.5,1669829916168,hashbrowns,2271.0,True,5.84,54257.5,2271.0,True,HRV,HRV_0041,2022-11-30 17:39:33
30,"[{'imgObject': {}, 'id': 'eggs', 'src': '/static/foodstim60/eggs.jpg', 'key': 'NaN', 'origWidth': 409, 'origHeight': 409, 'width': 409, 'height': 409, 'widthPercent': 0.8, 'rescaleHeight': True, 'trialN': 30, 'loaded': True, 'loadedTime': 2857.5999999996275, 'positionName': 'CENTER', 'positionCoords': [806, 363.5]}]",Rate how much you want to eat this food from 0 (least) to 10 (most).,54258.5,1669829918440,eggs,2143.0,True,3.87,56401.5,2143.0,True,HRV,HRV_0041,2022-11-30 17:39:33
31,"[{'imgObject': {}, 'id': 'bagel and cc', 'src': '/static/foodstim60/bagel and cc.jpg', 'key': 'NaN', 'origWidth': 410, 'origHeight': 410, 'width': 410, 'height': 410, 'widthPercent': 0.8, 'rescaleHeight': True, 'trialN': 31, 'loaded': True, 'loadedTime': 2864.7999999988824, 'positionName': 'CENTER', 'positionCoords': [805.5, 363]}]",Rate how much you want to eat this food from 0 (least) to 10 (most).,56402.5,1669829920584,bagel and cc,1571.0,True,0.64,57973.5,1571.0,True,HRV,HRV_0041,2022-11-30 17:39:33
32,"[{'imgObject': {}, 'id': 'fruitsalad', 'src': '/static/foodstim60/fruitsalad.jpg', 'key': 'NaN', 'origWidth': 410, 'origHeight': 410, 'width': 410, 'height': 410, 'widthPercent': 0.8, 'rescaleHeight': True, 'trialN': 32, 'loaded': True, 'loadedTime': 2866.9000000003725, 'positionName': 'CENTER', 'positionCoords': [805.5, 363]}]",Rate how much you want to eat this food from 0 (least) to 10 (most).,57974.59999999963,1669829922156,fruitsalad,1602.9000000003725,True,9.11,59577.5,1602.9000000003725,True,HRV,HRV_0041,2022-11-30 17:39:33
33,"[{'imgObject': {}, 'id': 'eggsalad', 'src': '/static/foodstim60/eggsalad.jpg', 'key': 'NaN', 'origWidth': 410, 'origHeight': 409, 'width': 410, 'height': 409, 'widthPercent': 0.8, 'rescaleHeight': True, 'trialN': 33, 'loaded': True, 'loadedTime': 2892.5, 'positionName': 'CENTER', 'positionCoords': [805.5, 363.5]}]",Rate how much you want to eat this food from 0 (least) to 10 (most).,59578.79999999888,1669829923760,eggsalad,1744.800000000745,True,6.29,61323.59999999963,1744.800000000745,True,HRV,HRV_0041,2022-11-30 17:39:33
34,"[{'imgObject': {}, 'id': 'mac & cheese', 'src': '/static/foodstim60/mac & cheese.jpg', 'key': 'NaN', 'origWidth': 410, 'origHeight': 410, 'width': 410, 'height': 410, 'widthPercent': 0.8, 'rescaleHeight': True, 'trialN': 34, 'loaded': True, 'loadedTime': 2898, 'positionName': 'CENTER', 'positionCoords': [805.5, 363]}]",Rate how much you want to eat this food from 0 (least) to 10 (most).,61324.59999999963,1669829925506,mac & cheese,1587.0,True,7.71,62911.59999999963,1587.0,True,HRV,HRV_0041,2022-11-30 17:39:33
35,"[{'imgObject': {}, 'id': 'raisin bran w milk', 'src': '/static/foodstim60/raisin bran w milk.jpg', 'key': 'NaN', 'origWidth': 411, 'origHeight': 411, 'width': 411, 'height': 411, 'widthPercent': 0.8, 'rescaleHeight': True, 'trialN': 35, 'loaded': True, 'loadedTime': 2896.5, 'positionName': 'CENTER', 'positionCoords': [805, 362.5]}]",Rate how much you want to eat this food from 0 (least) to 10 (most).,62912.59999999963,1669829927094,raisin bran w milk,1326.9000000003725,True,8.68,64239.5,1326.9000000003725,True,HRV,HRV_0041,2022-11-30 17:39:33
36,"[{'imgObject': {}, 'id': 'banana', 'src': '/static/foodstim60/banana.jpg', 'key': 'NaN', 'origWidth': 410, 'origHeight': 410, 'width': 410, 'height': 410, 'widthPercent': 0.8, 'rescaleHeight': True, 'trialN': 36, 'loaded': True, 'loadedTime': 2923.2999999988824, 'positionName': 'CENTER', 'positionCoords': [805.5, 363]}]",Rate how much you want to eat this food from 0 (least) to 10 (most).,64240.699999999255,1669829928422,banana,1492.7000000011176,True,9.46,65733.40000000037,1492.7000000011176,True,HRV,HRV_0041,2022-11-30 17:39:33
37,"[{'imgObject': {}, 'id': 'edamame', 'src': '/static/foodstim60/edamame.jpg', 'key': 'NaN', 'origWidth': 409, 'origHeight': 410, 'width': 409, 'height': 410, 'widthPercent': 0.8, 'rescaleHeight': True, 'trialN': 37, 'loaded': True, 'loadedTime': 2932.199999999255, 'positionName': 'CENTER', 'positionCoords': [806, 363]}]",Rate how much you want to eat this food from 0 (least) to 10 (most).,65734.29999999888,1669829929916,edamame,1815.2000000011176,True,5.11,67549.5,1815.2000000011176,True,HRV,HRV_0041,2022-11-30 17:39:33
38,"[{'imgObject': {}, 'id': 'hotdog w must', 'src': '/static/foodstim60/hotdog w must.jpg', 'key': 'NaN', 'origWidth': 409, 'origHeight': 409, 'width': 409, 'height': 409, 'widthPercent': 0.8, 'rescaleHeight': True, 'trialN': 38, 'loaded': True, 'loadedTime': 2934.4000000003725, 'positionName': 'CENTER', 'positionCoords': [806, 363.5]}]",Rate how much you want to eat this food from 0 (least) to 10 (most).,67550.79999999888,1669829931732,hotdog w must,1640.7000000011176,True,6.12,69191.5,1640.7000000011176,True,HRV,HRV_0041,2022-11-30 17:39:33
39,"[{'imgObject': {}, 'id': 'grilled chicken strips', 'src': '/static/foodstim60/grilled chicken strips.jpg', 'key': 'NaN', 'origWidth': 410, 'origHeight': 411, 'width': 410, 'height': 411, 'widthPercent': 0.8, 'rescaleHeight': True, 'trialN': 39, 'loaded': True, 'loadedTime': 2957.7999999988824, 'positionName': 'CENTER', 'positionCoords': [805.5, 362.5]}]",Rate how much you want to eat this food from 0 (least) to 10 (most).,69192.59999999963,1669829933374,grilled chicken strips,1257.0,True,7.83,70449.59999999963,1257.0,True,HRV,HRV_0041,2022-11-30 17:39:33
40,"[{'imgObject': {}, 'id': 'veggieswithdip', 'src': '/static/foodstim60/veggieswithdip.jpg', 'key': 'NaN', 'origWidth': 409, 'origHeight': 409, 'width': 409, 'height': 409, 'widthPercent': 0.8, 'rescaleHeight': True, 'trialN': 40, 'loaded': True, 'loadedTime': 2964.4000000003725, 'positionName': 'CENTER', 'positionCoords': [806, 363.5]}]",Rate how much you want to eat this food from 0 (least) to 10 (most).,70450.59999999963,1669829934632,veggieswithdip,2302.9000000003725,True,6.78,72753.5,2302.9000000003725,True,HRV,HRV_0041,2022-11-30 17:39:33
41,"[{'imgObject': {}, 'id': 'tacos', 'src': '/static/foodstim60/tacos.jpg', 'key': 'NaN', 'origWidth': 411, 'origHeight': 411, 'width': 411, 'height': 411, 'widthPercent': 0.8, 'rescaleHeight': True, 'trialN': 41, 'loaded': True, 'loadedTime': 2965.4000000003725, 'positionName': 'CENTER', 'positionCoords': [805, 362.5]}]",Rate how much you want to eat this food from 0 (least) to 10 (most).,72754.5,1669829936936,tacos,2153.199999999255,True,8.0,74907.69999999925,2153.199999999255,True,HRV,HRV_0041,2022-11-30 17:39:33
42,"[{'imgObject': {}, 'id': 'corn cob', 'src': '/static/foodstim60/corn cob.jpg', 'key': 'NaN', 'origWidth': 411, 'origHeight': 411, 'width': 411, 'height': 411, 'widthPercent': 0.8, 'rescaleHeight': True, 'trialN': 42, 'loaded': True, 'loadedTime': 2988.4000000003725, 'positionName': 'CENTER', 'positionCoords': [805, 362.5]}]",Rate how much you want to eat this food from 0 (least) to 10 (most).,74909.0,1669829939091,corn cob,1540.5,True,8.53,76449.5,1540.5,True,HRV,HRV_0041,2022-11-30 17:39:33
43,"[{'imgObject': {}, 'id': 'chicken nuggets2', 'src': '/static/foodstim60/chicken nuggets2.jpg', 'key': 'NaN', 'origWidth': 410, 'origHeight': 409, 'width': 410, 'height': 409, 'widthPercent': 0.8, 'rescaleHeight': True, 'trialN': 43, 'loaded': True, 'loadedTime': 3002.199999999255, 'positionName': 'CENTER', 'positionCoords': [805.5, 363.5]}]",Rate how much you want to eat this food from 0 (least) to 10 (most).,76450.5,1669829940632,chicken nuggets2,1373.0999999996275,True,9.14,77823.59999999963,1373.0999999996275,True,HRV,HRV_0041,2022-11-30 17:39:33
44,"[{'imgObject': {}, 'id': 'burger', 'src': '/static/foodstim60/burger.jpg', 'key': 'NaN', 'origWidth': 409, 'origHeight': 409, 'width': 409, 'height': 409, 'widthPercent': 0.8, 'rescaleHeight': True, 'trialN': 44, 'loaded': True, 'loadedTime': 3001, 'positionName': 'CENTER', 'positionCoords': [806, 363.5]}]",Rate how much you want to eat this food from 0 (least) to 10 (most).,77824.40000000037,1669829942006,burger,1469.0999999996275,True,9.450000000000001,79293.5,1469.0999999996275,True,HRV,HRV_0041,2022-11-30 17:39:33
45,"[{'imgObject': {}, 'id': 'orange slices', 'src': '/static/foodstim60/orange slices.jpg', 'key': 'NaN', 'origWidth': 409, 'origHeight': 410, 'width': 409, 'height': 410, 'widthPercent': 0.8, 'rescaleHeight': True, 'trialN': 45, 'loaded': True, 'loadedTime': 3035.5, 'positionName': 'CENTER', 'positionCoords': [806, 363]}]",Rate how much you want to eat this food from 0 (least) to 10 (most).,79294.19999999925,1669829943476,orange slices,1689.300000000745,True,9.67,80983.5,1689.300000000745,True,HRV,HRV_0041,2022-11-30 17:39:33
46,"[{'imgObject': {}, 'id': 'mango', 'src': '/static/foodstim60/mango.jpg', 'key': 'NaN', 'origWidth': 411, 'origHeight': 411, 'width': 411, 'height': 411, 'widthPercent': 0.8, 'rescaleHeight': True, 'trialN': 46, 'loaded': True, 'loadedTime': 3025, 'positionName': 'CENTER', 'positionCoords': [805, 362.5]}]",Rate how much you want to eat this food from 0 (least) to 10 (most).,80984.29999999888,1669829945166,mango,2083.2000000011176,True,8.92,83067.5,2083.2000000011176,True,HRV,HRV_0041,2022-11-30 17:39:33
47,"[{'imgObject': {}, 'id': 'rigatoni and sauce', 'src': '/static/foodstim60/rigatoni and sauce.jpg', 'key': 'NaN', 'origWidth': 410, 'origHeight': 411, 'width': 410, 'height': 411, 'widthPercent': 0.8, 'rescaleHeight': True, 'trialN': 47, 'loaded': True, 'loadedTime': 3034.5, 'positionName': 'CENTER', 'positionCoords': [805.5, 362.5]}]",Rate how much you want to eat this food from 0 (least) to 10 (most).,83068.29999999888,1669829947250,rigatoni and sauce,1705.2000000011176,True,6.87,84773.5,1705.2000000011176,True,HRV,HRV_0041,2022-11-30 17:39:33
48,"[{'imgObject': {}, 'id': 'sweetpotato', 'src': '/static/foodstim60/sweetpotato.jpg', 'key': 'NaN', 'origWidth': 410, 'origHeight': 410, 'width': 410, 'height': 410, 'widthPercent': 0.8, 'rescaleHeight': True, 'trialN': 48, 'loaded': True, 'loadedTime': 3057.4000000003725, 'positionName': 'CENTER', 'positionCoords': [805.5, 363]}]",Rate how much you want to eat this food from 0 (least) to 10 (most).,84774.29999999888,1669829948956,sweetpotato,1429.2000000011176,True,9.19,86203.5,1429.2000000011176,True,HRV,HRV_0041,2022-11-30 17:39:33
49,"[{'imgObject': {}, 'id': 'burrito', 'src': '/static/foodstim60/burrito.jpg', 'key': 'NaN', 'origWidth': 410, 'origHeight': 410, 'width': 410, 'height': 410, 'widthPercent': 0.8, 'rescaleHeight': True, 'trialN': 49, 'loaded': True, 'loadedTime': 3078.199999999255, 'positionName': 'CENTER', 'positionCoords': [805.5, 363]}]",Rate how much you want to eat this food from 0 (least) to 10 (most).,86204.19999999925,1669829950386,burrito,1539.2000000011176,True,9.39,87743.40000000037,1539.2000000011176,True,HRV,HRV_0041,2022-11-30 17:39:33
50,"[{'imgObject': {}, 'id': 'avocado', 'src': '/static/foodstim60/avocado.jpg', 'key': 'NaN', 'origWidth': 409, 'origHeight': 409, 'width': 409, 'height': 409, 'widthPercent': 0.8, 'rescaleHeight': True, 'trialN': 50, 'loaded': True, 'loadedTime': 3075.7999999988824, 'positionName': 'CENTER', 'positionCoords': [806, 363.5]}]",Rate how much you want to eat this food from 0 (least) to 10 (most).,87744.19999999925,1669829951926,avocado,1517.300000000745,True,1.8,89261.5,1517.300000000745,True,HRV,HRV_0041,2022-11-30 17:39:33
51,"[{'imgObject': {}, 'id': 'chickenfingers', 'src': '/static/foodstim60/chickenfingers.jpg', 'key': 'NaN', 'origWidth': 410, 'origHeight': 410, 'width': 410, 'height': 410, 'widthPercent': 0.8, 'rescaleHeight': True, 'trialN': 51, 'loaded': True, 'loadedTime': 3105.2999999988824, 'positionName': 'CENTER', 'positionCoords': [805.5, 363]}]",Rate how much you want to eat this food from 0 (least) to 10 (most).,89262.59999999963,1669829953444,chickenfingers,1713.0,True,4.69,90975.59999999963,1713.0,True,HRV,HRV_0041,2022-11-30 17:39:33
52,"[{'imgObject': {}, 'id': 'ice cream sundae 002', 'src': '/static/foodstim60/ice cream sundae 002.jpg', 'key': 'NaN', 'origWidth': 409, 'origHeight': 409, 'width': 409, 'height': 409, 'widthPercent': 0.8, 'rescaleHeight': True, 'trialN': 52, 'loaded': True, 'loadedTime': 3107.5999999996275, 'positionName': 'CENTER', 'positionCoords': [806, 363.5]}]",Rate how much you want to eat this food from 0 (least) to 10 (most).,90976.40000000037,1669829955158,ice cream sundae 002,1357.2999999988824,True,6.25,92333.69999999925,1357.2999999988824,True,HRV,HRV_0041,2022-11-30 17:39:33
53,"[{'imgObject': {}, 'id': 'cherry tomato', 'src': '/static/foodstim60/cherry tomato.jpg', 'key': 'NaN', 'origWidth': 410, 'origHeight': 410, 'width': 410, 'height': 410, 'widthPercent': 0.8, 'rescaleHeight': True, 'trialN': 53, 'loaded': True, 'loadedTime': 3117.199999999255, 'positionName': 'CENTER', 'positionCoords': [805.5, 363]}]",Rate how much you want to eat this food from 0 (least) to 10 (most).,92334.69999999925,1669829956516,cherry tomato,2640.800000000745,True,2.44,94975.5,2640.800000000745,True,HRV,HRV_0041,2022-11-30 17:39:33
54,"[{'imgObject': {}, 'id': 'roastedpotatoes', 'src': '/static/foodstim60/roastedpotatoes.jpg', 'key': 'NaN', 'origWidth': 409, 'origHeight': 410, 'width': 409, 'height': 410, 'widthPercent': 0.8, 'rescaleHeight': True, 'trialN': 54, 'loaded': True, 'loadedTime': 3140.5, 'positionName': 'CENTER', 'positionCoords': [806, 363]}]",Rate how much you want to eat this food from 0 (least) to 10 (most).,94976.69999999925,1669829959158,roastedpotatoes,3094.9000000003725,True,9.1,98071.59999999963,3094.9000000003725,True,HRV,HRV_0041,2022-11-30 17:39:33
55,"[{'imgObject': {}, 'id': 'raspberries', 'src': '/static/foodstim60/raspberries.jpg', 'key': 'NaN', 'origWidth': 411, 'origHeight': 411, 'width': 411, 'height': 411, 'widthPercent': 0.8, 'rescaleHeight': True, 'trialN': 55, 'loaded': True, 'loadedTime': 3148.4000000003725, 'positionName': 'CENTER', 'positionCoords': [805, 362.5]}]",Rate how much you want to eat this food from 0 (least) to 10 (most).,98072.69999999925,1669829962254,raspberries,1540.9000000003725,True,2.74,99613.59999999963,1540.9000000003725,True,HRV,HRV_0041,2022-11-30 17:39:33
56,"[{'imgObject': {}, 'id': 'cantaloupe', 'src': '/static/foodstim60/cantaloupe.jpg', 'key': 'NaN', 'origWidth': 409, 'origHeight': 409, 'width': 409, 'height': 409, 'widthPercent': 0.8, 'rescaleHeight': True, 'trialN': 56, 'loaded': True, 'loadedTime': 3142.4000000003725, 'positionName': 'CENTER', 'positionCoords': [806, 363.5]}]",Rate how much you want to eat this food from 0 (least) to 10 (most).,99614.59999999963,1669829963796,cantaloupe,2268.800000000745,True,9.73,101883.40000000037,2268.800000000745,True,HRV,HRV_0041,2022-11-30 17:39:33
57,"[{'imgObject': {}, 'id': 'salmon', 'src': '/static/foodstim60/salmon.jpg', 'key': 'NaN', 'origWidth': 410, 'origHeight': 409, 'width': 410, 'height': 409, 'widthPercent': 0.8, 'rescaleHeight': True, 'trialN': 57, 'loaded': True, 'loadedTime': 3172, 'positionName': 'CENTER', 'positionCoords': [805.5, 363.5]}]",Rate how much you want to eat this food from 0 (least) to 10 (most).,101884.69999999925,1669829966066,salmon,1886.9000000003725,True,0.8,103771.59999999963,1886.9000000003725,True,HRV,HRV_0041,2022-11-30 17:39:33
58,"[{'imgObject': {}, 'id': 'bagel plain', 'src': '/static/foodstim60/bagel plain.jpg', 'key': 'NaN', 'origWidth': 410, 'origHeight': 410, 'width': 410, 'height': 410, 'widthPercent': 0.8, 'rescaleHeight': True, 'trialN': 58, 'loaded': True, 'loadedTime': 3190.2999999988824, 'positionName': 'CENTER', 'positionCoords': [805.5, 363]}]",Rate how much you want to eat this food from 0 (least) to 10 (most).,103772.40000000037,1669829967954,bagel plain,1727.0999999996275,True,0.31,105499.5,1727.0999999996275,True,HRV,HRV_0041,2022-11-30 17:39:33
59,"[{'imgObject': {}, 'id': 'mashed potato', 'src': '/static/foodstim60/mashed potato.jpg', 'key': 'NaN', 'origWidth': 409, 'origHeight': 409, 'width': 409, 'height': 409, 'widthPercent': 0.8, 'rescaleHeight': True, 'trialN': 59, 'loaded': True, 'loadedTime': 3184.5999999996275, 'positionName': 'CENTER', 'positionCoords': [806, 363.5]}]",Rate how much you want to eat this food from 0 (least) to 10 (most).,105500.40000000037,1669829969682,mashed potato,2885.0,True,8.49,108385.40000000037,2885.0,True,HRV,HRV_0041,2022-11-30 17:39:33
