success,trial_type,trial_index,time_elapsed,internal_node_id,Block,TrialNumber,TrialTime,trialTimeDiff,FPS_avg,FPS_med,FPS_mode,TrialDur,winResizeTime,rt,block,button_pressed,MotCoh,MotDir,ColCoh,Color,ChoiceKey,Choice,Accuracy,RT,nFrames,FPS,PPD,missTrial,missTrialMsg,onsetDelay,fullScreenExitTime,canvCenter,TrialType,Score,BlockTrial,stimulus,button_labels,exp,subjectId,date
True,fullscreen,0,2879,0.0-0.0,0.0,1.0,,,,,,,,,,,,,,,,,,,,,,,,,,,,,,,,HRV,HRV_0041,2022-11-30 17:57:09
,wl-check-fps,1,7869,0.0-1.0,0.0,2.0,"[3544.6, 3547.7, 3564.4, 3581.1, 3597.8, 3614.4, 3631.2, 3647.7, 3664.4, 3681.1, 3697.8, 3714.5, 3731.2, 3747.7, 3764.4, 3781, 3797.7, 3814.4, 3831.1, 3847.7, 3864.4, 3881.2, 3897.8, 3914.4, 3931, 3947.7, 3964.4, 3981.3, 3997.9, 4014.5, 4031.1, 4047.7, 4064.7, 4081.1, 4097.7, 4114.5, 4131.1, 4147.7, 4164.4, 4181.2, 4197.8, 4214.4, 4231, 4247.9, 4264.4, 4281.1, 4297.7, 4314.6, 4331.2, 4347.8, 4364.4, 4381.1, 4397.7, 4414.4, 4431.1, 4447.7, 4464.5, 4481.1, 4497.7, 4514.5, 4531.1, 4547.8, 4564.4, 4581.1, 4597.7, 4614.5, 4631.3, 4647.8, 4664.4, 4681.1, 4697.8, 4714.4, 4731.1, 4747.7, 4764.5, 4781.2, 4797.8, 4814.6, 4831.1, 4847.8, 4864.4, 4881.1, 4897.7, 4914.5, 4931.1, 4947.8, 4964.5, 4981.1, 4997.7, 5014.5, 5031.1, 5047.8, 5064.6, 5081.3, 5097.9, 5114.5, 5131.1, 5147.8, 5164.4, 5181.1, 5197.7, 5214.5, 5231.1, 5247.8, 5264.5, 5281.2, 5297.8, 5314.5, 5331.1, 5347.8, 5364.5, 5381.1, 5397.7, 5414.5, 5431.2, 5447.8, 5464.5, 5481.1, 5497.8, 5514.5, 5531.1, 5547.8, 5564.4, 5581.1, 5597.7, 5614.5, 5631.1, 5647.8, 5664.5, 5681.1, 5697.8, 5714.5, 5731.1, 5747.8, 5764.5, 5781.1, 5797.7, 5814.5, 5831.2, 5847.8, 5864.6, 5881.1, 5897.8, 5914.4, 5931.1, 5947.9, 5964.6, 5981.2, 5997.9, 6014.6, 6031.1, 6047.9, 6064.5, 6081.1, 6097.8, 6114.6, 6131.1, 6147.7, 6164.6, 6181.2, 6197.8, 6214.5, 6231.1, 6247.8, 6264.5, 6281.2, 6298, 6314.6, 6331.2, 6347.8, 6364.5, 6381.1, 6397.8, 6414.5, 6431.2, 6447.8, 6464.6, 6481.2, 6497.8, 6514.5, 6531.2, 6547.9, 6564.5, 6581.2, 6597.8, 6614.5, 6631.3, 6647.8, 6664.4, 6681.1, 6697.7, 6714.5, 6731.1, 6747.8, 6764.5, 6781.2, 6797.8, 6814.6, 6831.2, 6847.9, 6864.5, 6881.2, 6897.9, 6914.6, 6931.2, 6947.8, 6964.5, 6981.2, 6997.9, 7014.5, 7031.2, 7047.8, 7064.5, 7081.2, 7097.8, 7114.6, 7131.2, 7147.8, 7164.6, 7181.2, 7197.9, 7214.5, 7231.1, 7247.8, 7264.5, 7281.2, 7297.9, 7314.6, 7331.2, 7347.8, 7364.6, 7381.3, 7397.9, 7414.5, 7431.3, 7447.8, 7464.7, 7481.2, 7497.9, 7514.5, 7531.1, 7547.9, 7564.5, 7581.2, 7597.9, 7614.5, 7631.3, 7647.9, 7664.6, 7681.2, 7697.9, 7714.6, 7731.2, 7747.9, 7764.7, 7781.2, 7797.9, 7814.5, 7831.2, 7847.8, 7864.5, 7881.3, 7898, 7914.5, 7931.3, 7947.9, 7964.5, 7981.2, 7997.9, 8014.5, 8031.2, 8048, 8064.6, 8081.2, 8097.9, 8114.5, 8131.2, 8147.8, 8164.6, 8181.1, 8197.9, 8214.6, 8231.2, 8247.9, 8264.5, 8281.3, 8297.9, 8314.7, 8331.2, 8347.9, 8364.6, 8381.3, 8397.9, 8414.6, 8431.1, 8447.9, 8464.6, 8481.3, 8497.9, 8514.5]","[0.9, 3.1, 16.7, 16.7, 16.7, 16.6, 16.8, 16.5, 16.7, 16.7, 16.7, 16.7, 16.7, 16.5, 16.7, 16.6, 16.7, 16.7, 16.7, 16.6, 16.7, 16.8, 16.6, 16.6, 16.6, 16.7, 16.7, 16.9, 16.6, 16.6, 16.6, 16.6, 17, 16.4, 16.6, 16.8, 16.6, 16.6, 16.7, 16.8, 16.6, 16.6, 16.6, 16.9, 16.5, 16.7, 16.6, 16.9, 16.6, 16.6, 16.6, 16.7, 16.6, 16.7, 16.7, 16.6, 16.8, 16.6, 16.6, 16.8, 16.6, 16.7, 16.6, 16.7, 16.6, 16.8, 16.8, 16.5, 16.6, 16.7, 16.7, 16.6, 16.7, 16.6, 16.8, 16.7, 16.6, 16.8, 16.5, 16.7, 16.6, 16.7, 16.6, 16.8, 16.6, 16.7, 16.7, 16.6, 16.6, 16.8, 16.6, 16.7, 16.8, 16.7, 16.6, 16.6, 16.6, 16.7, 16.6, 16.7, 16.6, 16.8, 16.6, 16.7, 16.7, 16.7, 16.6, 16.7, 16.6, 16.7, 16.7, 16.6, 16.6, 16.8, 16.7, 16.6, 16.7, 16.6, 16.7, 16.7, 16.6, 16.7, 16.6, 16.7, 16.6, 16.8, 16.6, 16.7, 16.7, 16.6, 16.7, 16.7, 16.6, 16.7, 16.7, 16.6, 16.6, 16.8, 16.7, 16.6, 16.8, 16.5, 16.7, 16.6, 16.7, 16.8, 16.7, 16.6, 16.7, 16.7, 16.5, 16.8, 16.6, 16.6, 16.7, 16.8, 16.5, 16.6, 16.9, 16.6, 16.6, 16.7, 16.6, 16.7, 16.7, 16.7, 16.8, 16.6, 16.6, 16.6, 16.7, 16.6, 16.7, 16.7, 16.7, 16.6, 16.8, 16.6, 16.6, 16.7, 16.7, 16.7, 16.6, 16.7, 16.6, 16.7, 16.8, 16.5, 16.6, 16.7, 16.6, 16.8, 16.6, 16.7, 16.7, 16.7, 16.6, 16.8, 16.6, 16.7, 16.6, 16.7, 16.7, 16.7, 16.6, 16.6, 16.7, 16.7, 16.7, 16.6, 16.7, 16.6, 16.7, 16.7, 16.6, 16.8, 16.6, 16.6, 16.8, 16.6, 16.7, 16.6, 16.6, 16.7, 16.7, 16.7, 16.7, 16.7, 16.6, 16.6, 16.8, 16.7, 16.6, 16.6, 16.8, 16.5, 16.9, 16.5, 16.7, 16.6, 16.6, 16.8, 16.6, 16.7, 16.7, 16.6, 16.8, 16.6, 16.7, 16.6, 16.7, 16.7, 16.6, 16.7, 16.8, 16.5, 16.7, 16.6, 16.7, 16.6, 16.7, 16.8, 16.7, 16.5, 16.8, 16.6, 16.6, 16.7, 16.7, 16.6, 16.7, 16.8, 16.6, 16.6, 16.7, 16.6, 16.7, 16.6, 16.8, 16.5, 16.8, 16.7, 16.6, 16.7, 16.6, 16.8, 16.6, 16.8, 16.5, 16.7, 16.7, 16.7, 16.6, 16.7, 16.5, 16.8, 16.7, 16.7, 16.6, 16.6]",60.0,60.0,60.0,4987.6,[],,,,,,,,,,,,,,,,,,,,,,,,,HRV,HRV_0041,2022-11-30 17:57:09
,wl-html-keyboard-response,2,28250,0.0-2.0-0.0,0.0,3.0,,,,,,,,18367.099999999627,0.0,0,,,,,,,,,,,,,,,,,,,,,,HRV,HRV_0041,2022-11-30 17:57:09
,wl-rdm,3,37185,0.0-3.0-0.0,0.0,4.0,,,,,,,[],,,,0.0,0.0,87.9,0.0,u,0.0,True,858.2999999988824,52.0,60.0,40.0,False,too_early ,3000.0,[],"[1010.5, 568]",ColorTask_Demo,,,,,HRV,HRV_0041,2022-11-30 17:57:09
,wl-rdm,4,42052,0.0-3.0-1.0,0.0,5.0,,,,,,,[],,,,0.0,0.0,87.9,1.0,i,1.0,True,795.0999999996275,48.0,60.0,40.0,False,,2000.0,[],"[1010.5, 568]",ColorTask_Demo,,,,,HRV,HRV_0041,2022-11-30 17:57:09
,wl-html-keyboard-response,5,47091,0.0-3.0-2.0,0.0,6.0,,,,,,,,3033.9000000003725,0.0,1,,,,,,,,,,,,,,,,,,,,,,HRV,HRV_0041,2022-11-30 17:57:09
,wl-html-keyboard-response,6,54611,0.0-4.0-0.0,0.0,7.0,,,,,,,,5517.699999999255,0.0,0,,,,,,,,,,,,,,,,,,,,,,HRV,HRV_0041,2022-11-30 17:57:09
,wl-html-keyboard-response,7,65195,0.0-5.0-0.0,0.0,8.0,,,,,,,,8576.400000000373,0.0,0,,,,,,,,,,,,,,,,,,,,,,HRV,HRV_0041,2022-11-30 17:57:09
,wl-rdm,8,67986,0.0-6.0-0.0,0.0,9.0,,,,,,,[],,,,,,56.4,1.0,i,1.0,True,1385.699999999255,84.0,60.0,40.0,False,,337.19856861253504,[],"[1010.5, 568]",ColorTask,1.0,1.0,,,HRV,HRV_0041,2022-11-30 17:57:09
,wl-rdm,9,70020,0.0-6.1-0.1,0.0,10.0,,,,,,,[],,,,,,87.9,0.0,u,0.0,True,751.4000000003725,46.0,60.0,40.0,False,,212.628069341173,[],"[1010.5, 568]",ColorTask,2.0,2.0,,,HRV,HRV_0041,2022-11-30 17:57:09
,wl-rdm,10,72070,0.0-6.2-0.2,0.0,11.0,,,,,,,[],,,,,,56.4,1.0,i,1.0,True,740.0999999996275,45.0,60.0,40.0,False,,249.74433000579117,[],"[1010.5, 568]",ColorTask,3.0,3.0,,,HRV,HRV_0041,2022-11-30 17:57:09
,wl-rdm,11,74220,0.0-6.3-0.3,0.0,12.0,,,,,,,[],,,,,,62.5,1.0,i,1.0,True,773.6999999992549,47.0,60.0,40.0,False,,294.11490716979256,[],"[1010.5, 568]",ColorTask,4.0,4.0,,,HRV,HRV_0041,2022-11-30 17:57:09
,wl-rdm,12,76320,0.0-6.4-0.4,0.0,13.0,,,,,,,[],,,,,,73.6,1.0,i,1.0,True,763.6999999992549,46.0,60.0,40.0,False,,255.06789959542587,[],"[1010.5, 568]",ColorTask,5.0,5.0,,,HRV,HRV_0041,2022-11-30 17:57:09
,wl-rdm,13,78570,0.0-6.5-0.5,0.0,14.0,,,,,,,[],,,,,,50.0,1.0,i,1.0,True,911.0,55.0,60.0,40.0,False,,276.5581033703132,[],"[1010.5, 568]",ColorTask,6.0,6.0,,,HRV,HRV_0041,2022-11-30 17:57:09
,wl-rdm,14,80687,0.0-6.6-0.6,0.0,15.0,,,,,,,[],,,,,,50.0,1.0,i,1.0,True,656.7000000011176,40.0,60.0,40.0,False,,372.6432654615543,[],"[1010.5, 568]",ColorTask,7.0,7.0,,,HRV,HRV_0041,2022-11-30 17:57:09
,wl-rdm,15,82753,0.0-6.7-0.7,0.0,16.0,,,,,,,[],,,,,,53.2,1.0,i,1.0,True,653.1999999992549,40.0,60.0,40.0,False,,334.0385596216096,[],"[1010.5, 568]",ColorTask,8.0,8.0,,,HRV,HRV_0041,2022-11-30 17:57:09
,wl-rdm,16,84870,0.0-6.8-0.8,0.0,17.0,,,,,,,[],,,,,,53.2,0.0,i,1.0,False,704.4000000003725,43.0,60.0,40.0,False,,331.188001652852,[],"[1010.5, 568]",ColorTask,7.0,9.0,,,HRV,HRV_0041,2022-11-30 17:57:09
,wl-rdm,17,87086,0.0-6.9-0.9,0.0,18.0,,,,,,,[],,,,,,53.2,0.0,u,0.0,True,881.0999999996275,53.0,60.0,40.0,False,,253.43210677345442,[],"[1010.5, 568]",ColorTask,8.0,10.0,,,HRV,HRV_0041,2022-11-30 17:57:09
,wl-rdm,18,89736,0.0-6.10-0.10,0.0,19.0,,,,,,,[],,,,,,62.5,0.0,u,0.0,True,1329.0,80.0,60.0,40.0,False,,241.28882305968793,[],"[1010.5, 568]",ColorTask,9.0,11.0,,,HRV,HRV_0041,2022-11-30 17:57:09
,wl-rdm,19,91837,0.0-6.11-0.11,0.0,20.0,,,,,,,[],,,,,,62.5,0.0,u,0.0,True,767.3000000007451,47.0,60.0,40.0,False,,241.02676861551964,[],"[1010.5, 568]",ColorTask,10.0,12.0,,,HRV,HRV_0041,2022-11-30 17:57:09
,wl-rdm,20,93920,0.0-6.12-0.12,0.0,21.0,,,,,,,[],,,,,,73.6,1.0,i,1.0,True,705.1000000014901,43.0,60.0,40.0,False,,296.7298013526218,[],"[1010.5, 568]",ColorTask,11.0,13.0,,,HRV,HRV_0041,2022-11-30 17:57:09
,wl-rdm,21,95870,0.0-6.13-0.13,0.0,22.0,,,,,,,[],,,,,,73.6,1.0,i,1.0,True,611.0,37.0,60.0,40.0,False,,274.57709432267785,[],"[1010.5, 568]",ColorTask,12.0,14.0,,,HRV,HRV_0041,2022-11-30 17:57:09
,wl-rdm,22,98103,0.0-6.14-0.14,0.0,23.0,,,,,,,[],,,,,,73.6,1.0,i,1.0,True,812.5,49.0,60.0,40.0,False,,354.97251491370685,[],"[1010.5, 568]",ColorTask,13.0,15.0,,,HRV,HRV_0041,2022-11-30 17:57:09
,wl-rdm,23,100387,0.0-6.15-0.15,0.0,24.0,,,,,,,[],,,,,,56.4,0.0,u,0.0,True,943.3000000007451,57.0,60.0,40.0,False,,257.48987084879866,[],"[1010.5, 568]",ColorTask,14.0,16.0,,,HRV,HRV_0041,2022-11-30 17:57:09
,wl-rdm,24,102703,0.0-6.16-0.16,0.0,25.0,,,,,,,[],,,,,,56.4,0.0,i,1.0,False,1013.1999999992549,61.0,60.0,40.0,False,,221.0868686348561,[],"[1010.5, 568]",ColorTask,13.0,17.0,,,HRV,HRV_0041,2022-11-30 17:57:09
,wl-rdm,25,104804,0.0-6.17-0.17,0.0,26.0,,,,,,,[],,,,,,73.6,1.0,i,1.0,True,809.1999999992549,49.0,60.0,40.0,False,,212.77967051296733,[],"[1010.5, 568]",ColorTask,14.0,18.0,,,HRV,HRV_0041,2022-11-30 17:57:09
,wl-rdm,26,107087,0.0-6.18-0.18,0.0,27.0,,,,,,,[],,,,,,50.0,0.0,u,0.0,True,892.0,54.0,60.0,40.0,False,,305.1818902340841,[],"[1010.5, 568]",ColorTask,15.0,19.0,,,HRV,HRV_0041,2022-11-30 17:57:09
,wl-rdm,27,109220,0.0-6.19-0.19,0.0,28.0,,,,,,,[],,,,,,73.6,0.0,u,0.0,True,849.6999999992549,51.0,60.0,40.0,False,,205.4888453367996,[],"[1010.5, 568]",ColorTask,16.0,20.0,,,HRV,HRV_0041,2022-11-30 17:57:09
,wl-rdm,28,111421,0.0-6.20-0.20,0.0,29.0,,,,,,,[],,,,,,56.4,0.0,u,0.0,True,832.5,50.0,60.0,40.0,False,,304.272054550293,[],"[1010.5, 568]",ColorTask,17.0,21.0,,,HRV,HRV_0041,2022-11-30 17:57:09
,wl-rdm,29,113454,0.0-6.21-0.21,0.0,30.0,,,,,,,[],,,,,,87.9,1.0,i,1.0,True,580.9000000003725,35.0,60.0,40.0,False,,388.0060283142668,[],"[1010.5, 568]",ColorTask,18.0,22.0,,,HRV,HRV_0041,2022-11-30 17:57:09
,wl-rdm,30,115571,0.0-6.22-0.22,0.0,31.0,,,,,,,[],,,,,,53.2,1.0,u,0.0,False,735.5,45.0,60.0,40.0,False,,289.929581033106,[],"[1010.5, 568]",ColorTask,17.0,23.0,,,HRV,HRV_0041,2022-11-30 17:57:09
,wl-rdm,31,118104,0.0-6.23-0.23,0.0,32.0,,,,,,,[],,,,,,50.0,0.0,u,0.0,True,1059.0999999996275,64.0,60.0,40.0,False,,397.91749249128435,[],"[1010.5, 568]",ColorTask,18.0,24.0,,,HRV,HRV_0041,2022-11-30 17:57:09
,wl-rdm,32,120071,0.0-6.24-0.24,0.0,33.0,,,,,,,[],,,,,,56.4,1.0,i,1.0,True,679.9000000003725,41.0,60.0,40.0,False,,224.34392650964168,[],"[1010.5, 568]",ColorTask,19.0,25.0,,,HRV,HRV_0041,2022-11-30 17:57:09
,wl-rdm,33,122171,0.0-6.25-0.25,0.0,34.0,,,,,,,[],,,,,,73.6,0.0,u,0.0,True,710.0999999996275,43.0,60.0,40.0,False,,312.99335818312454,[],"[1010.5, 568]",ColorTask,20.0,26.0,,,HRV,HRV_0041,2022-11-30 17:57:09
,wl-rdm,34,124421,0.0-6.26-0.26,0.0,35.0,,,,,,,[],,,,,,62.5,0.0,u,0.0,True,832.6999999992549,50.0,60.0,40.0,False,,342.1751106417927,[],"[1010.5, 568]",ColorTask,21.0,27.0,,,HRV,HRV_0041,2022-11-30 17:57:09
,wl-rdm,35,126871,0.0-6.27-0.27,0.0,36.0,,,,,,,[],,,,,,53.2,1.0,u,0.0,False,1071.800000000745,65.0,60.0,40.0,False,,310.96433310643357,[],"[1010.5, 568]",ColorTask,20.0,28.0,,,HRV,HRV_0041,2022-11-30 17:57:09
,wl-rdm,36,128938,0.0-6.28-0.28,0.0,37.0,,,,,,,[],,,,,,87.9,0.0,u,0.0,True,783.4000000003725,47.0,60.0,40.0,False,,204.24575637330958,[],"[1010.5, 568]",ColorTask,21.0,29.0,,,HRV,HRV_0041,2022-11-30 17:57:09
,wl-rdm,37,131471,0.0-6.29-0.29,0.0,38.0,,,,,,,[],,,,,,56.4,0.0,u,0.0,True,1121.9000000003725,68.0,60.0,40.0,False,,339.70347837275347,[],"[1010.5, 568]",ColorTask,22.0,30.0,,,HRV,HRV_0041,2022-11-30 17:57:09
,wl-rdm,38,133821,0.0-6.30-0.30,0.0,39.0,,,,,,,[],,,,,,73.6,0.0,u,0.0,True,874.3000000007451,53.0,60.0,40.0,False,,389.7994199651197,[],"[1010.5, 568]",ColorTask,23.0,31.0,,,HRV,HRV_0041,2022-11-30 17:57:09
,wl-rdm,39,135838,0.0-6.31-0.31,0.0,40.0,,,,,,,[],,,,,,87.9,0.0,u,0.0,True,665.1999999992549,40.0,60.0,40.0,False,,279.774851499627,[],"[1010.5, 568]",ColorTask,24.0,32.0,,,HRV,HRV_0041,2022-11-30 17:57:09
,wl-rdm,40,138038,0.0-6.32-0.32,0.0,41.0,,,,,,,[],,,,,,73.6,0.0,u,0.0,True,790.0999999996275,48.0,60.0,40.0,False,,330.6074682464028,[],"[1010.5, 568]",ColorTask,25.0,33.0,,,HRV,HRV_0041,2022-11-30 17:57:09
,wl-rdm,41,140355,0.0-6.33-0.33,0.0,42.0,,,,,,,[],,,,,,53.2,1.0,i,1.0,True,880.1999999992549,53.0,60.0,40.0,False,,354.8166876297878,[],"[1010.5, 568]",ColorTask,26.0,34.0,,,HRV,HRV_0041,2022-11-30 17:57:09
,wl-rdm,42,142605,0.0-6.34-0.34,0.0,43.0,,,,,,,[],,,,,,53.2,0.0,i,1.0,False,917.2000000011176,56.0,60.0,40.0,False,,241.97615384175984,[],"[1010.5, 568]",ColorTask,25.0,35.0,,,HRV,HRV_0041,2022-11-30 17:57:09
,wl-rdm,43,144804,0.0-6.35-0.35,0.0,44.0,,,,,,,[],,,,,,50.0,0.0,i,1.0,False,874.0,53.0,60.0,40.0,False,,265.8895541573575,[],"[1010.5, 568]",ColorTask,24.0,36.0,,,HRV,HRV_0041,2022-11-30 17:57:09
,wl-rdm,44,146955,0.0-6.36-0.36,0.0,45.0,,,,,,,[],,,,,,73.6,0.0,u,0.0,True,843.3000000007451,51.0,60.0,40.0,False,,222.4064542817789,[],"[1010.5, 568]",ColorTask,25.0,37.0,,,HRV,HRV_0041,2022-11-30 17:57:09
,wl-rdm,45,149055,0.0-6.37-0.37,0.0,46.0,,,,,,,[],,,,,,53.2,1.0,i,1.0,True,772.5999999996275,47.0,60.0,40.0,False,,233.82254084153223,[],"[1010.5, 568]",ColorTask,26.0,38.0,,,HRV,HRV_0041,2022-11-30 17:57:09
,wl-rdm,46,151388,0.0-6.38-0.38,0.0,47.0,,,,,,,[],,,,,,56.4,0.0,u,0.0,True,921.0,56.0,60.0,40.0,False,,330.4185408842742,[],"[1010.5, 568]",ColorTask,27.0,39.0,,,HRV,HRV_0041,2022-11-30 17:57:09
,wl-rdm,47,153922,0.0-6.39-0.39,0.0,48.0,,,,,,,[],,,,,,50.0,1.0,u,0.0,False,1152.300000000745,70.0,60.0,40.0,False,,313.2428842675293,[],"[1010.5, 568]",ColorTask,26.0,40.0,,,HRV,HRV_0041,2022-11-30 17:57:09
,wl-rdm,48,156105,0.0-6.40-0.40,0.0,49.0,,,,,,,[],,,,,,53.2,0.0,i,1.0,False,853.1999999992549,52.0,60.0,40.0,False,,256.8549769170868,[],"[1010.5, 568]",ColorTask,25.0,41.0,,,HRV,HRV_0041,2022-11-30 17:57:09
,wl-rdm,49,158405,0.0-6.41-0.41,0.0,50.0,,,,,,,[],,,,,,56.4,1.0,i,1.0,True,998.4000000003725,60.0,60.0,40.0,False,,239.7849840580966,[],"[1010.5, 568]",ColorTask,26.0,42.0,,,HRV,HRV_0041,2022-11-30 17:57:09
,wl-rdm,50,160605,0.0-6.42-0.42,0.0,51.0,,,,,,,[],,,,,,62.5,1.0,i,1.0,True,790.8000000007451,48.0,60.0,40.0,False,,332.95089071117064,[],"[1010.5, 568]",ColorTask,27.0,43.0,,,HRV,HRV_0041,2022-11-30 17:57:09
,wl-rdm,51,162705,0.0-6.43-0.43,0.0,52.0,,,,,,,[],,,,,,87.9,0.0,u,0.0,True,742.3000000007451,45.0,60.0,40.0,False,,269.578889363001,[],"[1010.5, 568]",ColorTask,28.0,44.0,,,HRV,HRV_0041,2022-11-30 17:57:09
,wl-rdm,52,165105,0.0-6.44-0.44,0.0,53.0,,,,,,,[],,,,,,50.0,1.0,i,1.0,True,1010.8000000007451,61.0,60.0,40.0,False,,326.3314921869816,[],"[1010.5, 568]",ColorTask,29.0,45.0,,,HRV,HRV_0041,2022-11-30 17:57:09
,wl-rdm,53,167172,0.0-6.45-0.45,0.0,54.0,,,,,,,[],,,,,,87.9,1.0,i,1.0,True,749.1999999992549,45.0,60.0,40.0,False,,261.09404356636423,[],"[1010.5, 568]",ColorTask,30.0,46.0,,,HRV,HRV_0041,2022-11-30 17:57:09
,wl-rdm,54,169389,0.0-6.46-0.46,0.0,55.0,,,,,,,[],,,,,,53.2,1.0,u,0.0,False,849.0,51.0,60.0,40.0,False,,291.6601880476916,[],"[1010.5, 568]",ColorTask,29.0,47.0,,,HRV,HRV_0041,2022-11-30 17:57:09
,wl-rdm,55,172172,0.0-6.47-0.47,0.0,56.0,,,,,,,[],,,,,,53.2,0.0,i,1.0,False,1407.9000000003725,85.0,60.0,40.0,False,,304.95480367253685,[],"[1010.5, 568]",ColorTask,28.0,48.0,,,HRV,HRV_0041,2022-11-30 17:57:09
,wl-rdm,56,174456,0.0-6.48-0.48,0.0,57.0,,,,,,,[],,,,,,87.9,0.0,u,0.0,True,886.0999999996275,54.0,60.0,40.0,False,,313.16248519375074,[],"[1010.5, 568]",ColorTask,29.0,49.0,,,HRV,HRV_0041,2022-11-30 17:57:09
,wl-rdm,57,176922,0.0-6.49-0.49,0.0,58.0,,,,,,,[],,,,,,50.0,1.0,u,0.0,False,1127.199999999255,68.0,60.0,40.0,False,,252.15062627226513,[],"[1010.5, 568]",ColorTask,28.0,50.0,,,HRV,HRV_0041,2022-11-30 17:57:09
,wl-rdm,58,179356,0.0-6.50-0.50,0.0,59.0,,,,,,,[],,,,,,62.5,1.0,u,0.0,False,992.5,60.0,60.0,40.0,False,,359.4577739434038,[],"[1010.5, 568]",ColorTask,27.0,51.0,,,HRV,HRV_0041,2022-11-30 17:57:09
,wl-rdm,59,181689,0.0-6.51-0.51,0.0,60.0,,,,,,,[],,,,,,50.0,0.0,u,0.0,True,878.3000000007451,53.0,60.0,40.0,False,,372.8952627024486,[],"[1010.5, 568]",ColorTask,28.0,52.0,,,HRV,HRV_0041,2022-11-30 17:57:09
,wl-rdm,60,183956,0.0-6.52-0.52,0.0,61.0,,,,,,,[],,,,,,87.9,0.0,u,0.0,True,800.9000000003725,49.0,60.0,40.0,False,,373.5132782077784,[],"[1010.5, 568]",ColorTask,29.0,53.0,,,HRV,HRV_0041,2022-11-30 17:57:09
,wl-rdm,61,186089,0.0-6.53-0.53,0.0,62.0,,,,,,,[],,,,,,73.6,0.0,u,0.0,True,773.5,47.0,60.0,40.0,False,,276.00172789565846,[],"[1010.5, 568]",ColorTask,30.0,54.0,,,HRV,HRV_0041,2022-11-30 17:57:09
,wl-rdm,62,188806,0.0-6.54-0.54,0.0,63.0,,,,,,,[],,,,,,53.2,1.0,i,1.0,True,1273.5,77.0,60.0,40.0,False,,357.9876559939771,[],"[1010.5, 568]",ColorTask,31.0,55.0,,,HRV,HRV_0041,2022-11-30 17:57:09
,wl-rdm,63,191189,0.0-6.55-0.55,0.0,64.0,,,,,,,[],,,,,,50.0,0.0,i,1.0,False,1006.5999999996275,61.0,60.0,40.0,False,,306.7594756109347,[],"[1010.5, 568]",ColorTask,30.0,56.0,,,HRV,HRV_0041,2022-11-30 17:57:09
,wl-rdm,64,193556,0.0-6.56-0.56,0.0,65.0,,,,,,,[],,,,,,62.5,1.0,i,1.0,True,1016.5,61.0,60.0,40.0,False,,281.99340885340314,[],"[1010.5, 568]",ColorTask,31.0,57.0,,,HRV,HRV_0041,2022-11-30 17:57:09
,wl-rdm,65,196173,0.0-6.57-0.57,0.0,66.0,,,,,,,[],,,,,,53.2,0.0,i,1.0,False,1205.5,73.0,60.0,40.0,False,,323.6108153208,[],"[1010.5, 568]",ColorTask,30.0,58.0,,,HRV,HRV_0041,2022-11-30 17:57:09
,wl-rdm,66,198456,0.0-6.58-0.58,0.0,67.0,,,,,,,[],,,,,,87.9,1.0,i,1.0,True,979.0000000018626,59.0,60.0,40.0,False,,220.129966415672,[],"[1010.5, 568]",ColorTask,31.0,59.0,,,HRV,HRV_0041,2022-11-30 17:57:09
,wl-rdm,67,200856,0.0-6.59-0.59,0.0,68.0,,,,,,,[],,,,,,62.5,0.0,u,0.0,True,1103.5,67.0,60.0,40.0,False,,225.07062406852674,[],"[1010.5, 568]",ColorTask,32.0,60.0,,,HRV,HRV_0041,2022-11-30 17:57:09
,wl-rdm,68,203156,0.0-6.60-0.60,0.0,69.0,,,,,,,[],,,,,,62.5,0.0,u,0.0,True,849.6999999992549,51.0,60.0,40.0,False,,374.23747091045993,[],"[1010.5, 568]",ColorTask,33.0,61.0,,,HRV,HRV_0041,2022-11-30 17:57:09
,wl-rdm,69,205490,0.0-6.61-0.61,0.0,70.0,,,,,,,[],,,,,,53.2,1.0,u,0.0,False,936.2000000011176,57.0,60.0,40.0,False,,305.7161765417367,[],"[1010.5, 568]",ColorTask,32.0,62.0,,,HRV,HRV_0041,2022-11-30 17:57:09
,wl-rdm,70,207690,0.0-6.62-0.62,0.0,71.0,,,,,,,[],,,,,,73.6,1.0,i,1.0,True,722.0999999996275,44.0,60.0,40.0,False,,387.1835862866418,[],"[1010.5, 568]",ColorTask,33.0,63.0,,,HRV,HRV_0041,2022-11-30 17:57:09
,wl-rdm,71,209756,0.0-6.63-0.63,0.0,72.0,,,,,,,[],,,,,,62.5,1.0,i,1.0,True,732.7000000011176,44.0,60.0,40.0,False,,251.82738267134866,[],"[1010.5, 568]",ColorTask,34.0,64.0,,,HRV,HRV_0041,2022-11-30 17:57:09
,wl-rdm,72,211723,0.0-6.64-0.64,0.0,73.0,,,,,,,[],,,,,,62.5,1.0,i,1.0,True,675.4000000003725,41.0,60.0,40.0,False,,217.08287717181776,[],"[1010.5, 568]",ColorTask,35.0,65.0,,,HRV,HRV_0041,2022-11-30 17:57:09
,wl-rdm,73,213690,0.0-6.65-0.65,0.0,74.0,,,,,,,[],,,,,,73.6,1.0,i,1.0,True,610.5999999996275,37.0,60.0,40.0,False,,272.1010169116398,[],"[1010.5, 568]",ColorTask,36.0,66.0,,,HRV,HRV_0041,2022-11-30 17:57:09
,wl-rdm,74,215890,0.0-6.66-0.66,0.0,75.0,,,,,,,[],,,,,,53.2,0.0,u,0.0,True,851.9000000003725,52.0,60.0,40.0,False,,271.4321597732121,[],"[1010.5, 568]",ColorTask,37.0,67.0,,,HRV,HRV_0041,2022-11-30 17:57:09
,wl-rdm,75,217923,0.0-6.67-0.67,0.0,76.0,,,,,,,[],,,,,,73.6,0.0,u,0.0,True,721.3000000007451,44.0,60.0,40.0,False,,232.69535144561164,[],"[1010.5, 568]",ColorTask,38.0,68.0,,,HRV,HRV_0041,2022-11-30 17:57:09
,wl-rdm,76,219773,0.0-6.68-0.68,0.0,77.0,,,,,,,[],,,,,,62.5,0.0,u,0.0,True,465.2999999988824,28.0,60.0,40.0,False,,300.28986156077434,[],"[1010.5, 568]",ColorTask,39.0,69.0,,,HRV,HRV_0041,2022-11-30 17:57:09
,wl-rdm,77,221873,0.0-6.69-0.69,0.0,78.0,,,,,,,[],,,,,,50.0,0.0,i,1.0,False,726.9000000003725,44.0,60.0,40.0,False,,314.77226407483784,[],"[1010.5, 568]",ColorTask,38.0,70.0,,,HRV,HRV_0041,2022-11-30 17:57:09
,wl-rdm,78,223840,0.0-6.70-0.70,0.0,79.0,,,,,,,[],,,,,,87.9,0.0,u,0.0,True,662.2000000011176,40.0,60.0,40.0,False,,222.0242161485888,[],"[1010.5, 568]",ColorTask,39.0,71.0,,,HRV,HRV_0041,2022-11-30 17:57:09
,wl-rdm,79,226174,0.0-6.71-0.71,0.0,80.0,,,,,,,[],,,,,,50.0,0.0,u,0.0,True,939.5,57.0,60.0,40.0,False,,316.8914558168561,[],"[1010.5, 568]",ColorTask,40.0,72.0,,,HRV,HRV_0041,2022-11-30 17:57:09
,wl-rdm,80,228207,0.0-6.72-0.72,0.0,81.0,,,,,,,[],,,,,,87.9,1.0,i,1.0,True,757.5999999996275,46.0,60.0,40.0,False,,212.7075255646544,[],"[1010.5, 568]",ColorTask,41.0,73.0,,,HRV,HRV_0041,2022-11-30 17:57:09
,wl-rdm,81,230374,0.0-6.73-0.73,0.0,82.0,,,,,,,[],,,,,,50.0,1.0,i,1.0,True,814.5,49.0,60.0,40.0,False,,271.0431252203669,[],"[1010.5, 568]",ColorTask,42.0,74.0,,,HRV,HRV_0041,2022-11-30 17:57:09
,wl-rdm,82,232557,0.0-6.74-0.74,0.0,83.0,,,,,,,[],,,,,,53.2,0.0,u,0.0,True,831.9000000003725,50.0,60.0,40.0,False,,277.9374277019795,[],"[1010.5, 568]",ColorTask,43.0,75.0,,,HRV,HRV_0041,2022-11-30 17:57:09
,wl-rdm,83,234690,0.0-6.75-0.75,0.0,84.0,,,,,,,[],,,,,,56.4,0.0,u,0.0,True,834.7999999988824,51.0,60.0,40.0,False,,220.34810517335617,[],"[1010.5, 568]",ColorTask,44.0,76.0,,,HRV,HRV_0041,2022-11-30 17:57:09
,wl-rdm,84,236707,0.0-6.76-0.76,0.0,85.0,,,,,,,[],,,,,,87.9,0.0,u,0.0,True,733.9000000003725,45.0,60.0,40.0,False,,209.95706036544064,[],"[1010.5, 568]",ColorTask,45.0,77.0,,,HRV,HRV_0041,2022-11-30 17:57:09
,wl-rdm,85,238624,0.0-6.77-0.77,0.0,86.0,,,,,,,[],,,,,,87.9,0.0,u,0.0,True,589.9000000003725,36.0,60.0,40.0,False,,266.41359901807704,[],"[1010.5, 568]",ColorTask,46.0,78.0,,,HRV,HRV_0041,2022-11-30 17:57:09
,wl-rdm,86,241007,0.0-6.78-0.78,0.0,87.0,,,,,,,[],,,,,,50.0,1.0,i,1.0,True,921.7000000011176,56.0,60.0,40.0,False,,377.9527178611484,[],"[1010.5, 568]",ColorTask,47.0,79.0,,,HRV,HRV_0041,2022-11-30 17:57:09
,wl-rdm,87,243074,0.0-6.79-0.79,0.0,88.0,,,,,,,[],,,,,,53.2,1.0,i,1.0,True,710.5,43.0,60.0,40.0,False,,280.71660509598433,[],"[1010.5, 568]",ColorTask,48.0,80.0,,,HRV,HRV_0041,2022-11-30 17:57:09
,wl-rdm,88,244974,0.0-6.80-0.80,0.0,89.0,,,,,,,[],,,,,,62.5,1.0,i,1.0,True,605.5999999996275,37.0,60.0,40.0,False,,231.2476867637427,[],"[1010.5, 568]",ColorTask,49.0,81.0,,,HRV,HRV_0041,2022-11-30 17:57:09
,wl-rdm,89,247191,0.0-6.81-0.81,0.0,90.0,,,,,,,[],,,,,,73.6,0.0,u,0.0,True,747.0999999996275,45.0,60.0,40.0,False,,389.7438780859651,[],"[1010.5, 568]",ColorTask,50.0,82.0,,,HRV,HRV_0041,2022-11-30 17:57:09
,wl-rdm,90,249741,0.0-6.82-0.82,0.0,91.0,,,,,,,[],,,,,,53.2,0.0,i,1.0,False,1151.699999999255,70.0,60.0,40.0,False,,318.9575185481459,[],"[1010.5, 568]",ColorTask,49.0,83.0,,,HRV,HRV_0041,2022-11-30 17:57:09
,wl-rdm,91,252058,0.0-6.83-0.83,0.0,92.0,,,,,,,[],,,,,,50.0,0.0,u,0.0,True,903.0000000018626,55.0,60.0,40.0,False,,318.9178399927412,[],"[1010.5, 568]",ColorTask,50.0,84.0,,,HRV,HRV_0041,2022-11-30 17:57:09
,wl-rdm,92,254125,0.0-6.84-0.84,0.0,93.0,,,,,,,[],,,,,,62.5,0.0,u,0.0,True,715.4000000003725,43.0,60.0,40.0,False,,295.59238650210256,[],"[1010.5, 568]",ColorTask,51.0,85.0,,,HRV,HRV_0041,2022-11-30 17:57:09
,wl-rdm,93,256141,0.0-6.85-0.85,0.0,94.0,,,,,,,[],,,,,,87.9,1.0,i,1.0,True,715.3000000007451,43.0,60.0,40.0,False,,231.60198970005789,[],"[1010.5, 568]",ColorTask,52.0,86.0,,,HRV,HRV_0041,2022-11-30 17:57:09
,wl-rdm,94,258391,0.0-6.86-0.86,0.0,95.0,,,,,,,[],,,,,,56.4,0.0,i,1.0,False,872.0,53.0,60.0,40.0,False,,285.09494489467545,[],"[1010.5, 568]",ColorTask,51.0,87.0,,,HRV,HRV_0041,2022-11-30 17:57:09
,wl-rdm,95,260591,0.0-6.87-0.87,0.0,96.0,,,,,,,[],,,,,,56.4,1.0,i,1.0,True,799.2999999988824,48.0,60.0,40.0,False,,326.90172844482254,[],"[1010.5, 568]",ColorTask,52.0,88.0,,,HRV,HRV_0041,2022-11-30 17:57:09
,wl-rdm,96,262758,0.0-6.88-0.88,0.0,97.0,,,,,,,[],,,,,,56.4,1.0,u,0.0,False,855.7000000011176,52.0,60.0,40.0,False,,236.33667797809187,[],"[1010.5, 568]",ColorTask,51.0,89.0,,,HRV,HRV_0041,2022-11-30 17:57:09
,wl-rdm,97,264908,0.0-6.89-0.89,0.0,98.0,,,,,,,[],,,,,,56.4,1.0,i,1.0,True,800.8000000007451,49.0,60.0,40.0,False,,254.67433224736055,[],"[1010.5, 568]",ColorTask,52.0,90.0,,,HRV,HRV_0041,2022-11-30 17:57:09
,wl-rdm,98,267075,0.0-6.90-0.90,0.0,99.0,,,,,,,[],,,,,,62.5,1.0,i,1.0,True,775.6000000014901,47.0,60.0,40.0,False,,319.6005102919316,[],"[1010.5, 568]",ColorTask,53.0,91.0,,,HRV,HRV_0041,2022-11-30 17:57:09
,wl-rdm,99,269325,0.0-6.91-0.91,0.0,100.0,,,,,,,[],,,,,,56.4,0.0,i,1.0,False,907.0,55.0,60.0,40.0,False,,279.3508874064456,[],"[1010.5, 568]",ColorTask,52.0,92.0,,,HRV,HRV_0041,2022-11-30 17:57:09
,wl-rdm,100,271525,0.0-6.92-0.92,0.0,101.0,,,,,,,[],,,,,,73.6,1.0,i,1.0,True,886.3000000007451,54.0,60.0,40.0,False,,223.28123769196287,[],"[1010.5, 568]",ColorTask,53.0,93.0,,,HRV,HRV_0041,2022-11-30 17:57:09
,wl-rdm,101,273675,0.0-6.93-0.93,0.0,102.0,,,,,,,[],,,,,,62.5,0.0,u,0.0,True,800.7000000011176,49.0,60.0,40.0,False,,277.0435726238923,[],"[1010.5, 568]",ColorTask,54.0,94.0,,,HRV,HRV_0041,2022-11-30 17:57:09
,wl-rdm,102,275842,0.0-6.94-0.94,0.0,103.0,,,,,,,[],,,,,,87.9,1.0,i,1.0,True,802.0999999996275,49.0,60.0,40.0,False,,295.80769261039626,[],"[1010.5, 568]",ColorTask,55.0,95.0,,,HRV,HRV_0041,2022-11-30 17:57:09
,wl-rdm,103,277825,0.0-6.95-0.95,0.0,104.0,,,,,,,[],,,,,,87.9,1.0,i,1.0,True,610.7000000011176,37.0,60.0,40.0,False,,300.22834366459887,[],"[1010.5, 568]",ColorTask,56.0,96.0,,,HRV,HRV_0041,2022-11-30 17:57:09
,wl-rdm,104,279808,0.0-6.96-0.96,0.0,105.0,,,,,,,[],,,,,,62.5,1.0,i,1.0,True,653.4000000003725,40.0,60.0,40.0,False,,265.36232113842874,[],"[1010.5, 568]",ColorTask,57.0,97.0,,,HRV,HRV_0041,2022-11-30 17:57:09
,wl-rdm,105,281759,0.0-6.97-0.97,0.0,106.0,,,,,,,[],,,,,,73.6,0.0,u,0.0,True,541.1999999992549,33.0,60.0,40.0,False,,333.959493782143,[],"[1010.5, 568]",ColorTask,58.0,98.0,,,HRV,HRV_0041,2022-11-30 17:57:09
,wl-rdm,106,283859,0.0-6.98-0.98,0.0,107.0,,,,,,,[],,,,,,56.4,0.0,u,0.0,True,718.5,44.0,60.0,40.0,False,,283.47007012109003,[],"[1010.5, 568]",ColorTask,59.0,99.0,,,HRV,HRV_0041,2022-11-30 17:57:09
,wl-rdm,107,286009,0.0-6.99-0.99,0.0,108.0,,,,,,,[],,,,,,50.0,0.0,u,0.0,True,853.0999999996275,52.0,60.0,40.0,False,,229.34290003141075,[],"[1010.5, 568]",ColorTask,60.0,100.0,,,HRV,HRV_0041,2022-11-30 17:57:09
,wl-rdm,108,288075,0.0-6.100-0.100,0.0,109.0,,,,,,,[],,,,,,50.0,1.0,u,0.0,False,791.6000000014901,48.0,60.0,40.0,False,,201.43632907735574,[],"[1010.5, 568]",ColorTask,59.0,101.0,,,HRV,HRV_0041,2022-11-30 17:57:09
,wl-rdm,109,289909,0.0-6.101-0.101,0.0,110.0,,,,,,,[],,,,,,87.9,1.0,i,1.0,True,532.2000000011176,32.0,60.0,40.0,False,,225.86390322326497,[],"[1010.5, 568]",ColorTask,60.0,102.0,,,HRV,HRV_0041,2022-11-30 17:57:09
,wl-rdm,110,291892,0.0-6.102-0.102,0.0,111.0,,,,,,,[],,,,,,56.4,1.0,i,1.0,True,669.6999999992549,41.0,60.0,40.0,False,,244.77196647769603,[],"[1010.5, 568]",ColorTask,61.0,103.0,,,HRV,HRV_0041,2022-11-30 17:57:09
,wl-rdm,111,293959,0.0-6.103-0.103,0.0,112.0,,,,,,,[],,,,,,87.9,1.0,i,1.0,True,722.3000000007451,44.0,60.0,40.0,False,,261.84327228222776,[],"[1010.5, 568]",ColorTask,62.0,104.0,,,HRV,HRV_0041,2022-11-30 17:57:09
,wl-rdm,112,296192,0.0-6.104-0.104,0.0,113.0,,,,,,,[],,,,,,62.5,0.0,i,1.0,False,787.4000000003725,48.0,60.0,40.0,False,,359.8048209939354,[],"[1010.5, 568]",ColorTask,61.0,105.0,,,HRV,HRV_0041,2022-11-30 17:57:09
,wl-rdm,113,298409,0.0-6.105-0.105,0.0,114.0,,,,,,,[],,,,,,56.4,1.0,i,1.0,True,844.1999999992549,51.0,60.0,40.0,False,,293.1065487209197,[],"[1010.5, 568]",ColorTask,62.0,106.0,,,HRV,HRV_0041,2022-11-30 17:57:09
,wl-rdm,114,300593,0.0-6.106-0.106,0.0,115.0,,,,,,,[],,,,,,73.6,1.0,i,1.0,True,736.4000000003725,45.0,60.0,40.0,False,,382.73048495899866,[],"[1010.5, 568]",ColorTask,63.0,107.0,,,HRV,HRV_0041,2022-11-30 17:57:09
,wl-rdm,115,302709,0.0-6.107-0.107,0.0,116.0,,,,,,,[],,,,,,50.0,1.0,u,0.0,False,762.3000000007451,46.0,60.0,40.0,False,,289.3839012917714,[],"[1010.5, 568]",ColorTask,62.0,108.0,,,HRV,HRV_0041,2022-11-30 17:57:09
,wl-html-keyboard-response,116,316170,0.0-7.0-0.0,1.0,117.0,,,,,,,,11450.60000000149,1.0,0,,,,,,,,,,,,,,,,,,,,,,HRV,HRV_0041,2022-11-30 17:57:09
,wl-rdm,117,318360,0.0-8.0-0.0,1.0,118.0,,,,,,,[],,,,,,87.9,0.0,u,0.0,True,887.7000000011176,54.0,60.0,40.0,False,,242.66035100145825,[],"[1010.5, 568]",ColorTask,63.0,1.0,,,HRV,HRV_0041,2022-11-30 17:57:09
,wl-rdm,118,320976,0.0-8.1-0.1,1.0,119.0,,,,,,,[],,,,,,53.2,1.0,i,1.0,True,1245.300000000745,75.0,60.0,40.0,False,,294.5994197379412,[],"[1010.5, 568]",ColorTask,64.0,2.0,,,HRV,HRV_0041,2022-11-30 17:57:09
,wl-rdm,119,323476,0.0-8.2-0.2,1.0,120.0,,,,,,,[],,,,,,53.2,1.0,u,0.0,False,1058.0,64.0,60.0,40.0,False,,351.51540399311864,[],"[1010.5, 568]",ColorTask,63.0,3.0,,,HRV,HRV_0041,2022-11-30 17:57:09
,wl-rdm,120,325810,0.0-8.3-0.3,1.0,121.0,,,,,,,[],,,,,,56.4,0.0,u,0.0,True,901.4000000003725,55.0,60.0,40.0,False,,349.45952747326305,[],"[1010.5, 568]",ColorTask,64.0,4.0,,,HRV,HRV_0041,2022-11-30 17:57:09
,wl-rdm,121,328027,0.0-8.4-0.4,1.0,122.0,,,,,,,[],,,,,,56.4,0.0,u,0.0,True,876.6999999992549,53.0,60.0,40.0,False,,256.6649833951389,[],"[1010.5, 568]",ColorTask,65.0,5.0,,,HRV,HRV_0041,2022-11-30 17:57:09
,wl-rdm,122,330060,0.0-8.5-0.5,1.0,123.0,,,,,,,[],,,,,,62.5,1.0,i,1.0,True,701.2999999988824,43.0,60.0,40.0,False,,233.45014040975894,[],"[1010.5, 568]",ColorTask,66.0,6.0,,,HRV,HRV_0041,2022-11-30 17:57:09
,wl-rdm,123,332244,0.0-8.6-0.6,1.0,124.0,,,,,,,[],,,,,,53.2,1.0,i,1.0,True,834.8000000007451,51.0,60.0,40.0,False,,268.52509401478096,[],"[1010.5, 568]",ColorTask,67.0,7.0,,,HRV,HRV_0041,2022-11-30 17:57:09
,wl-rdm,124,334260,0.0-8.7-0.7,1.0,125.0,,,,,,,[],,,,,,87.9,0.0,u,0.0,True,717.9000000003725,44.0,60.0,40.0,False,,200.51813684614066,[],"[1010.5, 568]",ColorTask,68.0,8.0,,,HRV,HRV_0041,2022-11-30 17:57:09
,wl-rdm,125,336294,0.0-8.8-0.8,1.0,126.0,,,,,,,[],,,,,,56.4,1.0,i,1.0,True,719.0,44.0,60.0,40.0,False,,229.41065166128706,[],"[1010.5, 568]",ColorTask,69.0,9.0,,,HRV,HRV_0041,2022-11-30 17:57:09
,wl-rdm,126,338244,0.0-8.9-0.9,1.0,127.0,,,,,,,[],,,,,,87.9,1.0,i,1.0,True,666.2000000011176,40.0,60.0,40.0,False,,223.01487877017317,[],"[1010.5, 568]",ColorTask,70.0,10.0,,,HRV,HRV_0041,2022-11-30 17:57:09
,wl-rdm,127,340344,0.0-8.10-0.10,1.0,128.0,,,,,,,[],,,,,,62.5,0.0,i,1.0,False,796.0,48.0,60.0,40.0,False,,224.32429034040723,[],"[1010.5, 568]",ColorTask,69.0,11.0,,,HRV,HRV_0041,2022-11-30 17:57:09
,wl-rdm,128,342277,0.0-8.11-0.11,1.0,129.0,,,,,,,[],,,,,,87.9,0.0,u,0.0,True,614.9000000003725,37.0,60.0,40.0,False,,252.36393632793687,[],"[1010.5, 568]",ColorTask,70.0,12.0,,,HRV,HRV_0041,2022-11-30 17:57:09
,wl-rdm,129,344544,0.0-8.12-0.12,1.0,130.0,,,,,,,[],,,,,,53.2,0.0,i,1.0,False,804.0999999996275,49.0,60.0,40.0,False,,397.8721086758841,[],"[1010.5, 568]",ColorTask,69.0,13.0,,,HRV,HRV_0041,2022-11-30 17:57:09
,wl-rdm,130,346744,0.0-8.13-0.13,1.0,131.0,,,,,,,[],,,,,,87.9,1.0,i,1.0,True,749.5999999996275,45.0,60.0,40.0,False,,368.43256888482904,[],"[1010.5, 568]",ColorTask,70.0,14.0,,,HRV,HRV_0041,2022-11-30 17:57:09
,wl-rdm,131,348828,0.0-8.14-0.14,1.0,132.0,,,,,,,[],,,,,,50.0,0.0,i,1.0,False,791.5999999996275,48.0,60.0,40.0,False,,231.51826177403225,[],"[1010.5, 568]",ColorTask,69.0,15.0,,,HRV,HRV_0041,2022-11-30 17:57:09
,wl-rdm,132,351278,0.0-8.15-0.15,1.0,133.0,,,,,,,[],,,,,,50.0,1.0,u,0.0,False,1098.699999999255,66.0,60.0,40.0,False,,274.0175165921503,[],"[1010.5, 568]",ColorTask,68.0,16.0,,,HRV,HRV_0041,2022-11-30 17:57:09
,wl-rdm,133,353711,0.0-8.16-0.16,1.0,134.0,,,,,,,[],,,,,,50.0,1.0,u,0.0,False,1021.5999999996275,62.0,60.0,40.0,False,,343.10540213799453,[],"[1010.5, 568]",ColorTask,67.0,17.0,,,HRV,HRV_0041,2022-11-30 17:57:09
,wl-rdm,134,355628,0.0-8.17-0.17,1.0,135.0,,,,,,,[],,,,,,73.6,1.0,i,1.0,True,625.0,38.0,60.0,40.0,False,,219.05439432685912,[],"[1010.5, 568]",ColorTask,68.0,18.0,,,HRV,HRV_0041,2022-11-30 17:57:09
,wl-rdm,135,357894,0.0-8.18-0.18,1.0,136.0,,,,,,,[],,,,,,53.2,0.0,i,1.0,False,935.0,57.0,60.0,40.0,False,,265.6104270854762,[],"[1010.5, 568]",ColorTask,67.0,19.0,,,HRV,HRV_0041,2022-11-30 17:57:09
,wl-rdm,136,360011,0.0-8.19-0.19,1.0,137.0,,,,,,,[],,,,,,56.4,0.0,i,1.0,False,776.0999999996275,47.0,60.0,40.0,False,,251.64641103187355,[],"[1010.5, 568]",ColorTask,66.0,20.0,,,HRV,HRV_0041,2022-11-30 17:57:09
,wl-rdm,137,362045,0.0-8.20-0.20,1.0,138.0,,,,,,,[],,,,,,87.9,0.0,u,0.0,True,741.5,45.0,60.0,40.0,False,,216.34364612116607,[],"[1010.5, 568]",ColorTask,67.0,21.0,,,HRV,HRV_0041,2022-11-30 17:57:09
,wl-rdm,138,364445,0.0-8.21-0.21,1.0,139.0,,,,,,,[],,,,,,62.5,1.0,u,0.0,False,1000.6999999992549,61.0,60.0,40.0,False,,300.4787854448952,[],"[1010.5, 568]",ColorTask,66.0,22.0,,,HRV,HRV_0041,2022-11-30 17:57:09
,wl-rdm,139,366895,0.0-8.22-0.22,1.0,140.0,,,,,,,[],,,,,,53.2,0.0,i,1.0,False,1171.8999999985099,71.0,60.0,40.0,False,,213.5630119219063,[],"[1010.5, 568]",ColorTask,65.0,23.0,,,HRV,HRV_0041,2022-11-30 17:57:09
,wl-rdm,140,369011,0.0-8.23-0.23,1.0,141.0,,,,,,,[],,,,,,73.6,0.0,u,0.0,True,820.8999999985099,50.0,60.0,40.0,False,,204.86612871820893,[],"[1010.5, 568]",ColorTask,66.0,24.0,,,HRV,HRV_0041,2022-11-30 17:57:09
,wl-rdm,141,371228,0.0-8.24-0.24,1.0,142.0,,,,,,,[],,,,,,53.2,1.0,u,0.0,False,891.5999999996275,54.0,60.0,40.0,False,,236.79595920599368,[],"[1010.5, 568]",ColorTask,65.0,25.0,,,HRV,HRV_0041,2022-11-30 17:57:09
,wl-rdm,142,373662,0.0-8.25-0.25,1.0,143.0,,,,,,,[],,,,,,73.6,0.0,u,0.0,True,981.6999999992549,59.0,60.0,40.0,False,,379.2106832144086,[],"[1010.5, 568]",ColorTask,66.0,26.0,,,HRV,HRV_0041,2022-11-30 17:57:09
,wl-rdm,143,375595,0.0-8.26-0.26,1.0,144.0,,,,,,,[],,,,,,87.9,1.0,i,1.0,True,634.8999999985099,39.0,60.0,40.0,False,,203.18075195117905,[],"[1010.5, 568]",ColorTask,67.0,27.0,,,HRV,HRV_0041,2022-11-30 17:57:09
,wl-rdm,144,377528,0.0-8.27-0.27,1.0,145.0,,,,,,,[],,,,,,73.6,1.0,i,1.0,True,520.1999999992549,32.0,60.0,40.0,False,,348.03955394750824,[],"[1010.5, 568]",ColorTask,68.0,28.0,,,HRV,HRV_0041,2022-11-30 17:57:09
,wl-rdm,145,380078,0.0-8.28-0.28,1.0,146.0,,,,,,,[],,,,,,50.0,0.0,i,1.0,False,1108.3999999985099,67.0,60.0,40.0,False,,367.97740871653525,[],"[1010.5, 568]",ColorTask,67.0,29.0,,,HRV,HRV_0041,2022-11-30 17:57:09
,wl-rdm,146,382228,0.0-8.29-0.29,1.0,147.0,,,,,,,[],,,,,,56.4,1.0,u,0.0,False,850.4000000003725,52.0,60.0,40.0,False,,208.5721844893813,[],"[1010.5, 568]",ColorTask,66.0,30.0,,,HRV,HRV_0041,2022-11-30 17:57:09
,wl-rdm,147,384663,0.0-8.30-0.30,1.0,148.0,,,,,,,[],,,,,,50.0,1.0,u,0.0,False,1106.9000000003725,67.0,60.0,40.0,False,,243.71530632448912,[],"[1010.5, 568]",ColorTask,65.0,31.0,,,HRV,HRV_0041,2022-11-30 17:57:09
,wl-rdm,148,386829,0.0-8.31-0.31,1.0,149.0,,,,,,,[],,,,,,62.5,1.0,i,1.0,True,774.8000000007451,47.0,60.0,40.0,False,,315.477540881829,[],"[1010.5, 568]",ColorTask,66.0,32.0,,,HRV,HRV_0041,2022-11-30 17:57:09
,wl-rdm,149,388829,0.0-8.32-0.32,1.0,150.0,,,,,,,[],,,,,,50.0,1.0,i,1.0,True,716.0,43.0,60.0,40.0,False,,215.11752069283958,[],"[1010.5, 568]",ColorTask,67.0,33.0,,,HRV,HRV_0041,2022-11-30 17:57:09
,wl-rdm,150,390946,0.0-8.33-0.33,1.0,151.0,,,,,,,[],,,,,,73.6,1.0,i,1.0,True,764.2999999988824,46.0,60.0,40.0,False,,267.3309957583227,[],"[1010.5, 568]",ColorTask,68.0,34.0,,,HRV,HRV_0041,2022-11-30 17:57:09
,wl-rdm,151,393129,0.0-8.34-0.34,1.0,152.0,,,,,,,[],,,,,,73.6,0.0,u,0.0,True,828.0,50.0,60.0,40.0,False,,297.77193558652203,[],"[1010.5, 568]",ColorTask,69.0,35.0,,,HRV,HRV_0041,2022-11-30 17:57:09
,wl-rdm,152,395229,0.0-8.35-0.35,1.0,153.0,,,,,,,[],,,,,,87.9,0.0,u,0.0,True,823.7999999988824,50.0,60.0,40.0,False,,204.31499092109095,[],"[1010.5, 568]",ColorTask,70.0,36.0,,,HRV,HRV_0041,2022-11-30 17:57:09
,wl-rdm,153,397229,0.0-8.36-0.36,1.0,154.0,,,,,,,[],,,,,,73.6,1.0,i,1.0,True,707.8000000007451,43.0,60.0,40.0,False,,207.06794272970117,[],"[1010.5, 568]",ColorTask,71.0,37.0,,,HRV,HRV_0041,2022-11-30 17:57:09
,wl-rdm,154,399346,0.0-8.37-0.37,1.0,155.0,,,,,,,[],,,,,,62.5,0.0,u,0.0,True,794.3000000007451,48.0,60.0,40.0,False,,246.73941061100277,[],"[1010.5, 568]",ColorTask,72.0,38.0,,,HRV,HRV_0041,2022-11-30 17:57:09
,wl-rdm,155,401746,0.0-8.38-0.38,1.0,156.0,,,,,,,[],,,,,,62.5,0.0,u,0.0,True,968.0,59.0,60.0,40.0,False,,360.89280085555515,[],"[1010.5, 568]",ColorTask,73.0,39.0,,,HRV,HRV_0041,2022-11-30 17:57:09
,wl-rdm,156,403930,0.0-8.39-0.39,1.0,157.0,,,,,,,[],,,,,,73.6,0.0,u,0.0,True,769.5,47.0,60.0,40.0,False,,341.58862507763394,[],"[1010.5, 568]",ColorTask,74.0,40.0,,,HRV,HRV_0041,2022-11-30 17:57:09
,wl-rdm,157,406130,0.0-8.40-0.40,1.0,158.0,,,,,,,[],,,,,,56.4,0.0,u,0.0,True,753.3999999985099,46.0,60.0,40.0,False,,358.8598915303503,[],"[1010.5, 568]",ColorTask,75.0,41.0,,,HRV,HRV_0041,2022-11-30 17:57:09
,wl-rdm,158,408263,0.0-8.41-0.41,1.0,159.0,,,,,,,[],,,,,,87.9,1.0,i,1.0,True,780.8000000007451,47.0,60.0,40.0,False,,277.8570093117325,[],"[1010.5, 568]",ColorTask,76.0,42.0,,,HRV,HRV_0041,2022-11-30 17:57:09
,wl-rdm,159,410297,0.0-8.42-0.42,1.0,160.0,,,,,,,[],,,,,,53.2,0.0,i,1.0,False,596.0,36.0,60.0,40.0,False,,355.7186142475298,[],"[1010.5, 568]",ColorTask,75.0,43.0,,,HRV,HRV_0041,2022-11-30 17:57:09
,wl-rdm,160,412597,0.0-8.43-0.43,1.0,161.0,,,,,,,[],,,,,,50.0,0.0,i,1.0,False,846.4000000003725,51.0,60.0,40.0,False,,397.1015361467273,[],"[1010.5, 568]",ColorTask,74.0,44.0,,,HRV,HRV_0041,2022-11-30 17:57:09
,wl-rdm,161,415097,0.0-8.44-0.44,1.0,162.0,,,,,,,[],,,,,,73.6,1.0,i,1.0,True,1137.9000000003725,69.0,60.0,40.0,False,,278.8375519832609,[],"[1010.5, 568]",ColorTask,75.0,45.0,,,HRV,HRV_0041,2022-11-30 17:57:09
,wl-rdm,162,417180,0.0-8.45-0.45,1.0,163.0,,,,,,,[],,,,,,56.4,1.0,u,0.0,False,791.8000000007451,48.0,60.0,40.0,False,,219.7473963945564,[],"[1010.5, 568]",ColorTask,74.0,46.0,,,HRV,HRV_0041,2022-11-30 17:57:09
,wl-rdm,163,419264,0.0-8.46-0.46,1.0,164.0,,,,,,,[],,,,,,87.9,1.0,i,1.0,True,655.0999999996275,40.0,60.0,40.0,False,,358.82805367945355,[],"[1010.5, 568]",ColorTask,75.0,47.0,,,HRV,HRV_0041,2022-11-30 17:57:09
,wl-rdm,164,421313,0.0-8.47-0.47,1.0,165.0,,,,,,,[],,,,,,53.2,1.0,i,1.0,True,753.5999999996275,46.0,60.0,40.0,False,,210.8470641242903,[],"[1010.5, 568]",ColorTask,76.0,48.0,,,HRV,HRV_0041,2022-11-30 17:57:09
,wl-rdm,165,423264,0.0-8.48-0.48,1.0,166.0,,,,,,,[],,,,,,62.5,1.0,i,1.0,True,654.3999999985099,40.0,60.0,40.0,False,,223.46591476936806,[],"[1010.5, 568]",ColorTask,77.0,49.0,,,HRV,HRV_0041,2022-11-30 17:57:09
,wl-rdm,166,425080,0.0-8.49-0.49,1.0,167.0,,,,,,,[],,,,,,56.4,1.0,i,1.0,True,496.0,30.0,60.0,40.0,False,,246.83638935122858,[],"[1010.5, 568]",ColorTask,78.0,50.0,,,HRV,HRV_0041,2022-11-30 17:57:09
,wl-rdm,167,427280,0.0-8.50-0.50,1.0,168.0,,,,,,,[],,,,,,56.4,1.0,i,1.0,True,828.6999999992549,50.0,60.0,40.0,False,,304.3931806774773,[],"[1010.5, 568]",ColorTask,79.0,51.0,,,HRV,HRV_0041,2022-11-30 17:57:09
,wl-rdm,168,429397,0.0-8.51-0.51,1.0,169.0,,,,,,,[],,,,,,87.9,0.0,u,0.0,True,633.7999999988824,39.0,60.0,40.0,False,,396.2146921110803,[],"[1010.5, 568]",ColorTask,80.0,52.0,,,HRV,HRV_0041,2022-11-30 17:57:09
,wl-rdm,169,431747,0.0-8.52-0.52,1.0,170.0,,,,,,,[],,,,,,50.0,0.0,i,1.0,False,942.5999999996275,57.0,60.0,40.0,False,,345.0958655041057,[],"[1010.5, 568]",ColorTask,79.0,53.0,,,HRV,HRV_0041,2022-11-30 17:57:09
,wl-rdm,170,434214,0.0-8.53-0.53,1.0,171.0,,,,,,,[],,,,,,53.2,1.0,i,1.0,True,1126.0,68.0,60.0,40.0,False,,269.80211616506847,[],"[1010.5, 568]",ColorTask,80.0,54.0,,,HRV,HRV_0041,2022-11-30 17:57:09
,wl-rdm,171,436314,0.0-8.54-0.54,1.0,172.0,,,,,,,[],,,,,,62.5,1.0,i,1.0,True,826.9000000003725,50.0,60.0,40.0,False,,211.33778059373458,[],"[1010.5, 568]",ColorTask,81.0,55.0,,,HRV,HRV_0041,2022-11-30 17:57:09
,wl-rdm,172,438697,0.0-8.55-0.55,1.0,173.0,,,,,,,[],,,,,,53.2,0.0,u,0.0,True,978.5,59.0,60.0,40.0,False,,325.89645939194486,[],"[1010.5, 568]",ColorTask,82.0,56.0,,,HRV,HRV_0041,2022-11-30 17:57:09
,wl-rdm,173,440964,0.0-8.56-0.56,1.0,174.0,,,,,,,[],,,,,,50.0,1.0,u,0.0,False,825.6999999992549,50.0,60.0,40.0,False,,360.5137126722377,[],"[1010.5, 568]",ColorTask,81.0,57.0,,,HRV,HRV_0041,2022-11-30 17:57:09
,wl-rdm,174,443014,0.0-8.57-0.57,1.0,175.0,,,,,,,[],,,,,,53.2,1.0,i,1.0,True,780.9000000003725,47.0,60.0,40.0,False,,202.86124934874107,[],"[1010.5, 568]",ColorTask,82.0,58.0,,,HRV,HRV_0041,2022-11-30 17:57:09
,wl-rdm,175,445147,0.0-8.58-0.58,1.0,176.0,,,,,,,[],,,,,,73.6,0.0,u,0.0,True,745.6999999992549,45.0,60.0,40.0,False,,303.37122689515104,[],"[1010.5, 568]",ColorTask,83.0,59.0,,,HRV,HRV_0041,2022-11-30 17:57:09
,wl-rdm,176,447364,0.0-8.59-0.59,1.0,177.0,,,,,,,[],,,,,,56.4,1.0,i,1.0,True,841.3999999985099,51.0,60.0,40.0,False,,311.1132181701287,[],"[1010.5, 568]",ColorTask,84.0,60.0,,,HRV,HRV_0041,2022-11-30 17:57:09
,wl-rdm,177,449381,0.0-8.60-0.60,1.0,178.0,,,,,,,[],,,,,,87.9,0.0,u,0.0,True,698.7999999988824,42.0,60.0,40.0,False,,258.8492853784121,[],"[1010.5, 568]",ColorTask,85.0,61.0,,,HRV,HRV_0041,2022-11-30 17:57:09
,wl-rdm,178,451581,0.0-8.61-0.61,1.0,179.0,,,,,,,[],,,,,,56.4,1.0,i,1.0,True,890.7999999988824,54.0,60.0,40.0,False,,238.88271761967107,[],"[1010.5, 568]",ColorTask,86.0,62.0,,,HRV,HRV_0041,2022-11-30 17:57:09
,wl-rdm,179,453798,0.0-8.62-0.62,1.0,180.0,,,,,,,[],,,,,,50.0,0.0,u,0.0,True,814.6000000014901,49.0,60.0,40.0,False,,345.5725179065775,[],"[1010.5, 568]",ColorTask,87.0,63.0,,,HRV,HRV_0041,2022-11-30 17:57:09
,wl-rdm,180,455848,0.0-8.63-0.63,1.0,181.0,,,,,,,[],,,,,,73.6,0.0,u,0.0,True,736.1000000014901,45.0,60.0,40.0,False,,225.2956106169182,[],"[1010.5, 568]",ColorTask,88.0,64.0,,,HRV,HRV_0041,2022-11-30 17:57:09
,wl-rdm,181,458048,0.0-8.64-0.64,1.0,182.0,,,,,,,[],,,,,,56.4,0.0,i,1.0,False,796.5,48.0,60.0,40.0,False,,320.4473643394842,[],"[1010.5, 568]",ColorTask,87.0,65.0,,,HRV,HRV_0041,2022-11-30 17:57:09
,wl-rdm,182,460115,0.0-8.65-0.65,1.0,183.0,,,,,,,[],,,,,,73.6,1.0,i,1.0,True,709.6999999992549,43.0,60.0,40.0,False,,299.77046718505267,[],"[1010.5, 568]",ColorTask,88.0,66.0,,,HRV,HRV_0041,2022-11-30 17:57:09
,wl-rdm,183,462248,0.0-8.66-0.66,1.0,184.0,,,,,,,[],,,,,,87.9,0.0,u,0.0,True,721.0,44.0,60.0,40.0,False,,335.8787554128618,[],"[1010.5, 568]",ColorTask,89.0,67.0,,,HRV,HRV_0041,2022-11-30 17:57:09
,wl-rdm,184,464631,0.0-8.67-0.67,1.0,185.0,,,,,,,[],,,,,,50.0,1.0,i,1.0,True,1079.800000000745,65.0,60.0,40.0,False,,234.5250507117264,[],"[1010.5, 568]",ColorTask,90.0,68.0,,,HRV,HRV_0041,2022-11-30 17:57:09
,wl-rdm,185,466865,0.0-8.68-0.68,1.0,186.0,,,,,,,[],,,,,,62.5,0.0,i,1.0,False,894.4000000003725,54.0,60.0,40.0,False,,261.72135661990563,[],"[1010.5, 568]",ColorTask,89.0,69.0,,,HRV,HRV_0041,2022-11-30 17:57:09
,wl-rdm,186,469265,0.0-8.69-0.69,1.0,187.0,,,,,,,[],,,,,,62.5,0.0,i,1.0,False,1071.0,65.0,60.0,40.0,False,,245.38823136274908,[],"[1010.5, 568]",ColorTask,88.0,70.0,,,HRV,HRV_0041,2022-11-30 17:57:09
,wl-rdm,187,472065,0.0-8.70-0.70,1.0,188.0,,,,,,,[],,,,,,50.0,1.0,u,0.0,False,1378.8999999985099,83.0,60.0,40.0,False,,333.36135254888904,[],"[1010.5, 568]",ColorTask,87.0,71.0,,,HRV,HRV_0041,2022-11-30 17:57:09
,wl-rdm,188,474381,0.0-8.71-0.71,1.0,189.0,,,,,,,[],,,,,,73.6,0.0,u,0.0,True,914.4000000003725,55.0,60.0,40.0,False,,334.5007192687434,[],"[1010.5, 568]",ColorTask,88.0,72.0,,,HRV,HRV_0041,2022-11-30 17:57:09
,wl-rdm,189,477082,0.0-8.72-0.72,1.0,190.0,,,,,,,[],,,,,,50.0,0.0,i,1.0,False,1301.0,79.0,60.0,40.0,False,,312.0754260658206,[],"[1010.5, 568]",ColorTask,87.0,73.0,,,HRV,HRV_0041,2022-11-30 17:57:09
,wl-rdm,190,479265,0.0-8.73-0.73,1.0,191.0,,,,,,,[],,,,,,87.9,1.0,i,1.0,True,853.8000000007451,52.0,60.0,40.0,False,,240.28004267125561,[],"[1010.5, 568]",ColorTask,88.0,74.0,,,HRV,HRV_0041,2022-11-30 17:57:09
,wl-rdm,191,481532,0.0-8.74-0.74,1.0,192.0,,,,,,,[],,,,,,87.9,1.0,i,1.0,True,809.0999999996275,49.0,60.0,40.0,False,,379.2902178483095,[],"[1010.5, 568]",ColorTask,89.0,75.0,,,HRV,HRV_0041,2022-11-30 17:57:09
,wl-rdm,192,483715,0.0-8.75-0.75,1.0,193.0,,,,,,,[],,,,,,56.4,0.0,i,1.0,False,884.9000000003725,54.0,60.0,40.0,False,,211.72467690663308,[],"[1010.5, 568]",ColorTask,88.0,76.0,,,HRV,HRV_0041,2022-11-30 17:57:09
,wl-rdm,193,485899,0.0-8.76-0.76,1.0,194.0,,,,,,,[],,,,,,87.9,1.0,i,1.0,True,843.0,51.0,60.0,40.0,False,,276.10380625738827,[],"[1010.5, 568]",ColorTask,89.0,77.0,,,HRV,HRV_0041,2022-11-30 17:57:09
,wl-rdm,194,487982,0.0-8.77-0.77,1.0,195.0,,,,,,,[],,,,,,73.6,0.0,u,0.0,True,753.3000000026077,46.0,60.0,40.0,False,,234.9945984468696,[],"[1010.5, 568]",ColorTask,90.0,78.0,,,HRV,HRV_0041,2022-11-30 17:57:09
,wl-rdm,195,489915,0.0-8.78-0.78,1.0,196.0,,,,,,,[],,,,,,87.9,0.0,u,0.0,True,609.5999999996275,37.0,60.0,40.0,False,,244.01911931164662,[],"[1010.5, 568]",ColorTask,91.0,79.0,,,HRV,HRV_0041,2022-11-30 17:57:09
,wl-rdm,196,492082,0.0-8.79-0.79,1.0,197.0,,,,,,,[],,,,,,56.4,1.0,i,1.0,True,827.6000000014901,50.0,60.0,40.0,False,,257.1648674597257,[],"[1010.5, 568]",ColorTask,92.0,80.0,,,HRV,HRV_0041,2022-11-30 17:57:09
,wl-rdm,197,494482,0.0-8.80-0.80,1.0,198.0,,,,,,,[],,,,,,53.2,0.0,i,1.0,False,1036.2000000011176,63.0,60.0,40.0,False,,269.7076439268826,[],"[1010.5, 568]",ColorTask,91.0,81.0,,,HRV,HRV_0041,2022-11-30 17:57:09
,wl-rdm,198,496982,0.0-8.81-0.81,1.0,199.0,,,,,,,[],,,,,,53.2,0.0,i,1.0,False,1065.0000000018626,64.0,60.0,40.0,False,,352.99481336939147,[],"[1010.5, 568]",ColorTask,90.0,82.0,,,HRV,HRV_0041,2022-11-30 17:57:09
,wl-rdm,199,499166,0.0-8.82-0.82,1.0,200.0,,,,,,,[],,,,,,87.9,1.0,i,1.0,True,877.7999999988824,53.0,60.0,40.0,False,,219.4453528197391,[],"[1010.5, 568]",ColorTask,91.0,83.0,,,HRV,HRV_0041,2022-11-30 17:57:09
,wl-rdm,200,501366,0.0-8.83-0.83,1.0,201.0,,,,,,,[],,,,,,62.5,0.0,u,0.0,True,831.8999999985099,50.0,60.0,40.0,False,,285.0525684998769,[],"[1010.5, 568]",ColorTask,92.0,84.0,,,HRV,HRV_0041,2022-11-30 17:57:09
,wl-rdm,201,503616,0.0-8.84-0.84,1.0,202.0,,,,,,,[],,,,,,56.4,0.0,u,0.0,True,905.1999999992549,55.0,60.0,40.0,False,,264.07559643072875,[],"[1010.5, 568]",ColorTask,93.0,85.0,,,HRV,HRV_0041,2022-11-30 17:57:09
,wl-rdm,202,506166,0.0-8.85-0.85,1.0,203.0,,,,,,,[],,,,,,62.5,0.0,u,0.0,True,1123.699999999255,68.0,60.0,40.0,False,,335.3860489748796,[],"[1010.5, 568]",ColorTask,94.0,86.0,,,HRV,HRV_0041,2022-11-30 17:57:09
,wl-rdm,203,508315,0.0-8.86-0.86,1.0,204.0,,,,,,,[],,,,,,73.6,1.0,i,1.0,True,817.8999999985099,50.0,60.0,40.0,False,,241.7717222084991,[],"[1010.5, 568]",ColorTask,95.0,87.0,,,HRV,HRV_0041,2022-11-30 17:57:09
,wl-rdm,204,510599,0.0-8.87-0.87,1.0,205.0,,,,,,,[],,,,,,56.4,1.0,i,1.0,True,999.5999999996275,60.0,60.0,40.0,False,,216.08924457506214,[],"[1010.5, 568]",ColorTask,96.0,88.0,,,HRV,HRV_0041,2022-11-30 17:57:09
,wl-rdm,205,512665,0.0-8.88-0.88,1.0,206.0,,,,,,,[],,,,,,62.5,1.0,i,1.0,True,768.5999999996275,47.0,60.0,40.0,False,,218.26466096185376,[],"[1010.5, 568]",ColorTask,97.0,89.0,,,HRV,HRV_0041,2022-11-30 17:57:09
,wl-rdm,206,515182,0.0-8.89-0.89,1.0,207.0,,,,,,,[],,,,,,53.2,1.0,u,0.0,False,1080.0999999996275,65.0,60.0,40.0,False,,376.6068456948851,[],"[1010.5, 568]",ColorTask,96.0,90.0,,,HRV,HRV_0041,2022-11-30 17:57:09
,wl-rdm,207,517632,0.0-8.90-0.90,1.0,208.0,,,,,,,[],,,,,,62.5,1.0,i,1.0,True,1119.800000000745,68.0,60.0,40.0,False,,251.47840410589842,[],"[1010.5, 568]",ColorTask,97.0,91.0,,,HRV,HRV_0041,2022-11-30 17:57:09
,wl-rdm,208,519749,0.0-8.91-0.91,1.0,209.0,,,,,,,[],,,,,,73.6,1.0,i,1.0,True,681.8000000007451,41.0,60.0,40.0,False,,366.25230100520866,[],"[1010.5, 568]",ColorTask,98.0,92.0,,,HRV,HRV_0041,2022-11-30 17:57:09
,wl-rdm,209,522099,0.0-8.92-0.92,1.0,210.0,,,,,,,[],,,,,,50.0,0.0,i,1.0,False,923.1999999992549,56.0,60.0,40.0,False,,344.6481464116633,[],"[1010.5, 568]",ColorTask,97.0,93.0,,,HRV,HRV_0041,2022-11-30 17:57:09
,wl-rdm,210,524282,0.0-8.93-0.93,1.0,211.0,,,,,,,[],,,,,,73.6,1.0,i,1.0,True,768.5999999996275,47.0,60.0,40.0,False,,326.93566887762836,[],"[1010.5, 568]",ColorTask,98.0,94.0,,,HRV,HRV_0041,2022-11-30 17:57:09
,wl-rdm,211,526632,0.0-8.94-0.94,1.0,212.0,,,,,,,[],,,,,,62.5,1.0,i,1.0,True,986.9000000003725,60.0,60.0,40.0,False,,282.9662893593307,[],"[1010.5, 568]",ColorTask,99.0,95.0,,,HRV,HRV_0041,2022-11-30 17:57:09
,wl-rdm,212,528899,0.0-8.95-0.95,1.0,213.0,,,,,,,[],,,,,,53.2,0.0,u,0.0,True,951.0,58.0,60.0,40.0,False,,222.69832899778123,[],"[1010.5, 568]",ColorTask,100.0,96.0,,,HRV,HRV_0041,2022-11-30 17:57:09
,wl-rdm,213,531066,0.0-8.96-0.96,1.0,214.0,,,,,,,[],,,,,,62.5,0.0,u,0.0,True,743.5999999996275,45.0,60.0,40.0,False,,349.40151164360964,[],"[1010.5, 568]",ColorTask,101.0,97.0,,,HRV,HRV_0041,2022-11-30 17:57:09
,wl-rdm,214,533550,0.0-8.97-0.97,1.0,215.0,,,,,,,[],,,,,,50.0,1.0,u,0.0,False,1112.2999999988824,67.0,60.0,40.0,False,,298.00343057194107,[],"[1010.5, 568]",ColorTask,100.0,98.0,,,HRV,HRV_0041,2022-11-30 17:57:09
,wl-rdm,215,535883,0.0-8.98-0.98,1.0,216.0,,,,,,,[],,,,,,73.6,0.0,u,0.0,True,1034.5999999996275,63.0,60.0,40.0,False,,224.9667508952152,[],"[1010.5, 568]",ColorTask,101.0,99.0,,,HRV,HRV_0041,2022-11-30 17:57:09
,wl-rdm,216,538633,0.0-8.99-0.99,1.0,217.0,,,,,,,[],,,,,,53.2,0.0,i,1.0,False,1336.9999999981374,81.0,60.0,40.0,False,,319.52298576251053,[],"[1010.5, 568]",ColorTask,100.0,100.0,,,HRV,HRV_0041,2022-11-30 17:57:09
,wl-rdm,217,541050,0.0-8.100-0.100,1.0,218.0,,,,,,,[],,,,,,50.0,1.0,u,0.0,False,1027.199999999255,62.0,60.0,40.0,False,,302.66654872844015,[],"[1010.5, 568]",ColorTask,99.0,101.0,,,HRV,HRV_0041,2022-11-30 17:57:09
,wl-rdm,218,543416,0.0-8.101-0.101,1.0,219.0,,,,,,,[],,,,,,62.5,0.0,u,0.0,True,977.8000000007451,59.0,60.0,40.0,False,,325.25770085628744,[],"[1010.5, 568]",ColorTask,100.0,102.0,,,HRV,HRV_0041,2022-11-30 17:57:09
,wl-rdm,219,546016,0.0-8.102-0.102,1.0,220.0,,,,,,,[],,,,,,56.4,0.0,u,0.0,True,1175.9000000003725,71.0,60.0,40.0,False,,345.2139213331278,[],"[1010.5, 568]",ColorTask,101.0,103.0,,,HRV,HRV_0041,2022-11-30 17:57:09
,wl-rdm,220,548233,0.0-8.103-0.103,1.0,221.0,,,,,,,[],,,,,,50.0,0.0,u,0.0,True,943.8999999985099,57.0,60.0,40.0,False,,211.58930033395387,[],"[1010.5, 568]",ColorTask,102.0,104.0,,,HRV,HRV_0041,2022-11-30 17:57:09
,wl-rdm,221,550283,0.0-8.104-0.104,1.0,222.0,,,,,,,[],,,,,,56.4,0.0,u,0.0,True,766.4000000003725,46.0,60.0,40.0,False,,233.0907339178624,[],"[1010.5, 568]",ColorTask,103.0,105.0,,,HRV,HRV_0041,2022-11-30 17:57:09
,wl-rdm,222,552433,0.0-8.105-0.105,1.0,223.0,,,,,,,[],,,,,,62.5,1.0,u,0.0,False,802.9000000003725,49.0,60.0,40.0,False,,256.5710005614162,[],"[1010.5, 568]",ColorTask,102.0,106.0,,,HRV,HRV_0041,2022-11-30 17:57:09
,wl-rdm,223,554833,0.0-8.106-0.106,1.0,224.0,,,,,,,[],,,,,,50.0,0.0,u,0.0,True,927.5000000018626,56.0,60.0,40.0,False,,392.6775467170336,[],"[1010.5, 568]",ColorTask,103.0,107.0,,,HRV,HRV_0041,2022-11-30 17:57:09
,wl-rdm,224,557050,0.0-8.107-0.107,1.0,225.0,,,,,,,[],,,,,,53.2,1.0,u,0.0,False,933.0,56.0,60.0,40.0,False,,210.35003255915464,[],"[1010.5, 568]",ColorTask,102.0,108.0,,,HRV,HRV_0041,2022-11-30 17:57:09
,wl-html-button-response,225,560426,0.0-9.0-0.0,,,,,,,,,,3373.5,,0,,,,,,,,,,,,,,,,,,,,<h3>End of this session. Thank you!</h3><br>,['Close window'],HRV,HRV_0041,2022-11-30 17:57:09
