success,trial_type,trial_index,time_elapsed,internal_node_id,Block,TrialNumber,TrialTime,trialTimeDiff,FPS_avg,FPS_med,FPS_mode,TrialDur,winResizeTime,rt,block,button_pressed,MotCoh,MotDir,ColCoh,Color,ChoiceKey,Choice,Accuracy,RT,nFrames,FPS,PPD,missTrial,missTrialMsg,onsetDelay,fullScreenExitTime,canvCenter,TrialType,Score,BlockTrial,stimulus,button_labels,exp,subjectId,date
True,fullscreen,0,3169,0.0-0.0,0.0,1.0,,,,,,,,,,,,,,,,,,,,,,,,,,,,,,,,HRV,HRV_0288,2022-11-30 22:11:12
,wl-check-fps,1,8177,0.0-1.0,0.0,2.0,"[3563.1, 3563.9, 3578.3, 3597.6, 3611.5, 3627.6, 3644.5, 3663.4, 3680.1, 3694.6, 3711.4, 3727.9, 3745, 3761.4, 3778.2, 3794.4, 3811.4, 3828.3, 3844.3, 3861.4, 3878.3, 3894.3, 3911.4, 3927.5, 3944.5, 3961.6, 3978.8, 3994.5, 4011.5, 4027.5, 4044.5, 4061.6, 4078.3, 4094.7, 4111.6, 4128.6, 4144.6, 4161.6, 4177.8, 4194.5, 4211.6, 4227.5, 4244.5, 4261.8, 4277.9, 4294.8, 4311.6, 4328.5, 4345, 4361.8, 4377.6, 4395.6, 4411.6, 4428.7, 4444.6, 4461.9, 4478.6, 4494.7, 4511.6, 4528, 4544.6, 4561.6, 4577.7, 4594.5, 4611.5, 4628.6, 4644.5, 4661.5, 4677.7, 4695, 4711.6, 4728.6, 4744.6, 4761.7, 4778.9, 4812.9, 4828.6, 4844.5, 4861.4, 4877.3, 4894.5, 4911.3, 4928.7, 4944.5, 4963.5, 4977.7, 4994.7, 5011.7, 5027.6, 5044.9, 5061.7, 5077.6, 5094.7, 5111.6, 5127.6, 5144.5, 5161.6, 5178.4, 5194.5, 5211.7, 5227.7, 5244.6, 5261.6, 5278, 5294.7, 5311.6, 5328.6, 5344.5, 5361.5, 5377.4, 5395.7, 5411.7, 5427.8, 5444.6, 5461.8, 5478, 5494.5, 5511.5, 5527.5, 5544.6, 5561.4, 5577.6, 5594.6, 5611.4, 5627.4, 5644.4, 5661.6, 5677.5, 5694.3, 5711.2, 5727.4, 5744.4, 5761.7, 5777.4, 5794.6, 5811.2, 5827.4, 5844.5, 5861.5, 5877.4, 5894.3, 5911.3, 5927.4, 5944.5, 5961.6, 5977.6, 5994.5, 6012.4, 6028.5, 6044.5, 6061.6, 6077.5, 6094.5, 6110.8, 6127.5, 6144.7, 6161.7, 6177.3, 6194.5, 6211.4, 6227.5, 6244.3, 6261.5, 6277.3, 6294.4, 6311.4, 6327.5, 6344.5, 6361.3, 6377.3, 6394.5, 6411.4, 6427.8, 6444.5, 6461.5, 6477.4, 6494.4, 6511.3, 6527.6, 6544.5, 6561.5, 6577.5, 6594.5, 6611.4, 6627.7, 6644.5, 6661.4, 6677.5, 6694.5, 6711.5, 6727.5, 6744.5, 6761.5, 6777.6, 6794.5, 6811.5, 6827.5, 6844.4, 6861.4, 6877.5, 6894.6, 6911.6, 6927.6, 6944.4, 6961.5, 6977.5, 6994.5, 7011.6, 7027.5, 7044.5, 7061.5, 7077.6, 7094.5, 7111.4, 7127.5, 7144.5, 7161.6, 7177.6, 7194.5, 7211.5, 7227.5, 7244.5, 7261.5, 7277.5, 7294.6, 7311.5, 7327.7, 7344.5, 7361.7, 7377.6, 7394.6, 7411.5, 7427.6, 7444.6, 7461.4, 7477.6, 7494.7, 7511.9, 7527.6, 7544.5, 7561.7, 7578, 7594.5, 7611.4, 7627.6, 7644.4, 7661.4, 7678.6, 7694.8, 7711.5, 7727.5, 7744.8, 7761.5, 7777.7, 7794.4, 7811.5, 7827.4, 7844.5, 7861.4, 7877.7, 7894.5, 7911.4, 7927.4, 7944.4, 7961.6, 7977.5, 7994.6, 8011.5, 8027.5, 8044.5, 8061.5, 8078.1, 8094.5, 8111.5, 8127.5, 8144.4, 8161.6, 8177.5, 8194.6, 8211.5, 8227.6, 8244.4, 8261.4, 8277.5, 8294.5, 8311.6, 8327.5, 8344.4, 8361.4, 8377.4, 8394.4, 8411.5, 8427.5, 8444.5, 8461.5, 8477.5, 8494.5, 8511.5, 8527.5, 8544.6]","[6.1, 0.8, 14.4, 19.3, 13.9, 16.1, 16.9, 18.9, 16.7, 14.5, 16.8, 16.5, 17.1, 16.4, 16.8, 16.2, 17, 16.9, 16, 17.1, 16.9, 16, 17.1, 16.1, 17, 17.1, 17.2, 15.7, 17, 16, 17, 17.1, 16.7, 16.4, 16.9, 17, 16, 17, 16.2, 16.7, 17.1, 15.9, 17, 17.3, 16.1, 16.9, 16.8, 16.9, 16.5, 16.8, 15.8, 18, 16, 17.1, 15.9, 17.3, 16.7, 16.1, 16.9, 16.4, 16.6, 17, 16.1, 16.8, 17, 17.1, 15.9, 17, 16.2, 17.3, 16.6, 17, 16, 17.1, 17.2, 34, 15.7, 15.9, 16.9, 15.9, 17.2, 16.8, 17.4, 15.8, 19, 14.2, 17, 17, 15.9, 17.3, 16.8, 15.9, 17.1, 16.9, 16, 16.9, 17.1, 16.8, 16.1, 17.2, 16, 16.9, 17, 16.4, 16.7, 16.9, 17, 15.9, 17, 15.9, 18.3, 16, 16.1, 16.8, 17.2, 16.2, 16.5, 17, 16, 17.1, 16.8, 16.2, 17, 16.8, 16, 17, 17.2, 15.9, 16.8, 16.9, 16.2, 17, 17.3, 15.7, 17.2, 16.6, 16.2, 17.1, 17, 15.9, 16.9, 17, 16.1, 17.1, 17.1, 16, 16.9, 17.9, 16.1, 16, 17.1, 15.9, 17, 16.3, 16.7, 17.2, 17, 15.6, 17.2, 16.9, 16.1, 16.8, 17.2, 15.8, 17.1, 17, 16.1, 17, 16.8, 16, 17.2, 16.9, 16.4, 16.7, 17, 15.9, 17, 16.9, 16.3, 16.9, 17, 16, 17, 16.9, 16.3, 16.8, 16.9, 16.1, 17, 17, 16, 17, 17, 16.1, 16.9, 17, 16, 16.9, 17, 16.1, 17.1, 17, 16, 16.8, 17.1, 16, 17, 17.1, 15.9, 17, 17, 16.1, 16.9, 16.9, 16.1, 17, 17.1, 16, 16.9, 17, 16, 17, 17, 16, 17.1, 16.9, 16.2, 16.8, 17.2, 15.9, 17, 16.9, 16.1, 17, 16.8, 16.2, 17.1, 17.2, 15.7, 16.9, 17.2, 16.3, 16.5, 16.9, 16.2, 16.8, 17, 17.2, 16.2, 16.7, 16, 17.3, 16.7, 16.2, 16.7, 17.1, 15.9, 17.1, 16.9, 16.3, 16.8, 16.9, 16, 17, 17.2, 15.9, 17.1, 16.9, 16, 17, 17, 16.6, 16.4, 17, 16, 16.9, 17.2, 15.9, 17.1, 16.9, 16.1, 16.8, 17, 16.1, 17, 17.1, 15.9, 16.9, 17, 16, 17, 17.1, 16, 17, 17, 16, 17, 17, 16, 17.1]",60.0,60.0,59.0,5004.5,[],,,,,,,,,,,,,,,,,,,,,,,,,HRV,HRV_0288,2022-11-30 22:11:12
,wl-html-keyboard-response,2,30033,0.0-2.0-0.0,0.0,3.0,,,,,,,,19845.700000047684,0.0,0,,,,,,,,,,,,,,,,,,,,,,HRV,HRV_0288,2022-11-30 22:11:12
,wl-rdm,3,36727,0.0-3.0-0.0,0.0,4.0,,,,,,,[],,,,0.0,0.0,87.9,0.0,u,0.0,True,1102.7000000476837,66.0,59.0,40.0,False,,3000.0,[],"[640, 360]",ColorTask_Demo,,,,,HRV,HRV_0288,2022-11-30 22:11:12
,wl-rdm,4,41426,0.0-3.0-1.0,0.0,5.0,,,,,,,[],,,,0.0,0.0,87.9,1.0,i,1.0,True,645.0000002384186,39.0,59.0,40.0,False,,2000.0,[],"[640, 360]",ColorTask_Demo,,,,,HRV,HRV_0288,2022-11-30 22:11:12
,wl-html-keyboard-response,5,47169,0.0-3.0-2.0,0.0,6.0,,,,,,,,3739.7000000476837,0.0,1,,,,,,,,,,,,,,,,,,,,,,HRV,HRV_0288,2022-11-30 22:11:12
,wl-html-keyboard-response,6,60297,0.0-4.0-0.0,0.0,7.0,,,,,,,,11124.199999809265,0.0,0,,,,,,,,,,,,,,,,,,,,,,HRV,HRV_0288,2022-11-30 22:11:12
,wl-html-keyboard-response,7,68321,0.0-5.0-0.0,0.0,8.0,,,,,,,,6020.399999856949,0.0,0,,,,,,,,,,,,,,,,,,,,,,HRV,HRV_0288,2022-11-30 22:11:12
,wl-rdm,8,70293,0.0-6.0-0.0,0.0,9.0,,,,,,,[],,,,,,73.6,0.0,u,0.0,True,642.1000001430511,39.0,59.0,40.0,False,,241.8408336519198,[],"[640, 360]",ColorTask,1.0,1.0,,,HRV,HRV_0288,2022-11-30 22:11:12
,wl-rdm,9,72643,0.0-6.1-0.1,0.0,10.0,,,,,,,[],,,,,,56.4,0.0,u,0.0,True,943.1000001430511,57.0,59.0,40.0,False,,332.8891286271193,[],"[640, 360]",ColorTask,2.0,2.0,,,HRV,HRV_0288,2022-11-30 22:11:12
,wl-rdm,10,75229,0.0-6.2-0.2,0.0,11.0,,,,,,,[],,,,,,73.6,0.0,u,0.0,True,1152.1999998092651,70.0,59.0,40.0,False,,364.0055789449323,[],"[640, 360]",ColorTask,3.0,3.0,,,HRV,HRV_0288,2022-11-30 22:11:12
,wl-rdm,11,77862,0.0-6.3-0.3,0.0,12.0,,,,,,,[],,,,,,53.2,0.0,u,0.0,True,1225.3000001907349,74.0,59.0,40.0,False,,331.9148045251655,[],"[640, 360]",ColorTask,4.0,4.0,,,HRV,HRV_0288,2022-11-30 22:11:12
,wl-rdm,12,80262,0.0-6.4-0.4,0.0,13.0,,,,,,,[],,,,,,73.6,0.0,u,0.0,True,991.9000000953674,60.0,59.0,40.0,False,,340.43217505293205,[],"[640, 360]",ColorTask,5.0,5.0,,,HRV,HRV_0288,2022-11-30 22:11:12
,wl-rdm,13,82578,0.0-6.5-0.5,0.0,14.0,,,,,,,[],,,,,,50.0,0.0,i,1.0,False,854.0999999046326,52.0,59.0,40.0,False,,367.6743029199571,[],"[640, 360]",ColorTask,4.0,6.0,,,HRV,HRV_0288,2022-11-30 22:11:12
,wl-rdm,14,84895,0.0-6.6-0.6,0.0,15.0,,,,,,,[],,,,,,53.2,1.0,i,1.0,True,990.5,60.0,59.0,40.0,False,,248.06213618076086,[],"[640, 360]",ColorTask,5.0,7.0,,,HRV,HRV_0288,2022-11-30 22:11:12
,wl-rdm,15,87195,0.0-6.7-0.7,0.0,16.0,,,,,,,[],,,,,,56.4,0.0,i,1.0,False,994.0,60.0,59.0,40.0,False,,231.03723622102248,[],"[640, 360]",ColorTask,4.0,8.0,,,HRV,HRV_0288,2022-11-30 22:11:12
,wl-rdm,16,89511,0.0-6.8-0.8,0.0,17.0,,,,,,,[],,,,,,56.4,0.0,u,0.0,True,980.2000000476837,59.0,59.0,40.0,False,,267.12933126374935,[],"[640, 360]",ColorTask,5.0,9.0,,,HRV,HRV_0288,2022-11-30 22:11:12
,wl-rdm,17,92095,0.0-6.9-0.9,0.0,18.0,,,,,,,[],,,,,,62.5,1.0,i,1.0,True,1290.0,78.0,59.0,40.0,False,,208.1312988189102,[],"[640, 360]",ColorTask,6.0,10.0,,,HRV,HRV_0288,2022-11-30 22:11:12
,wl-rdm,18,94462,0.0-6.10-0.10,0.0,19.0,,,,,,,[],,,,,,62.5,0.0,u,0.0,True,983.5,60.0,59.0,40.0,False,,300.1927896788155,[],"[640, 360]",ColorTask,7.0,11.0,,,HRV,HRV_0288,2022-11-30 22:11:12
,wl-rdm,19,96646,0.0-6.11-0.11,0.0,20.0,,,,,,,[],,,,,,56.4,1.0,i,1.0,True,825.5,50.0,59.0,40.0,False,,273.94426696534106,[],"[640, 360]",ColorTask,8.0,12.0,,,HRV,HRV_0288,2022-11-30 22:11:12
,wl-rdm,20,99395,0.0-6.12-0.12,0.0,21.0,,,,,,,[],,,,,,62.5,0.0,i,1.0,False,1352.6000001430511,82.0,59.0,40.0,False,,309.3625207665129,[],"[640, 360]",ColorTask,7.0,13.0,,,HRV,HRV_0288,2022-11-30 22:11:12
,wl-rdm,21,101445,0.0-6.13-0.13,0.0,22.0,,,,,,,[],,,,,,50.0,1.0,i,1.0,True,725.2999999523163,44.0,59.0,40.0,False,,265.4273301437405,[],"[640, 360]",ColorTask,8.0,14.0,,,HRV,HRV_0288,2022-11-30 22:11:12
,wl-rdm,22,103712,0.0-6.14-0.14,0.0,23.0,,,,,,,[],,,,,,53.2,1.0,i,1.0,True,873.2000000476837,53.0,59.0,40.0,False,,306.15345229811237,[],"[640, 360]",ColorTask,9.0,15.0,,,HRV,HRV_0288,2022-11-30 22:11:12
,wl-rdm,23,106195,0.0-6.15-0.15,0.0,24.0,,,,,,,[],,,,,,53.2,0.0,i,1.0,False,1044.6999998092651,63.0,59.0,40.0,False,,352.18957741258396,[],"[640, 360]",ColorTask,8.0,16.0,,,HRV,HRV_0288,2022-11-30 22:11:12
,wl-rdm,24,108279,0.0-6.16-0.16,0.0,25.0,,,,,,,[],,,,,,87.9,1.0,i,1.0,True,773.7000000476837,47.0,59.0,40.0,False,,247.62563760232004,[],"[640, 360]",ColorTask,9.0,17.0,,,HRV,HRV_0288,2022-11-30 22:11:12
,wl-rdm,25,110445,0.0-6.17-0.17,0.0,26.0,,,,,,,[],,,,,,87.9,1.0,i,1.0,True,765.3999998569489,46.0,59.0,40.0,False,,347.29877462367773,[],"[640, 360]",ColorTask,10.0,18.0,,,HRV,HRV_0288,2022-11-30 22:11:12
,wl-rdm,26,112712,0.0-6.18-0.18,0.0,27.0,,,,,,,[],,,,,,50.0,1.0,u,0.0,False,896.6000001430511,54.0,59.0,40.0,False,,302.78047205015594,[],"[640, 360]",ColorTask,9.0,19.0,,,HRV,HRV_0288,2022-11-30 22:11:12
,wl-rdm,27,114745,0.0-6.19-0.19,0.0,28.0,,,,,,,[],,,,,,87.9,0.0,u,0.0,True,720.4000000953674,44.0,59.0,40.0,False,,243.5016175716242,[],"[640, 360]",ColorTask,10.0,20.0,,,HRV,HRV_0288,2022-11-30 22:11:12
,wl-rdm,28,117228,0.0-6.20-0.20,0.0,29.0,,,,,,,[],,,,,,73.6,0.0,u,0.0,True,1068.5000002384186,65.0,59.0,40.0,False,,336.62052671601793,[],"[640, 360]",ColorTask,11.0,21.0,,,HRV,HRV_0288,2022-11-30 22:11:12
,wl-rdm,29,119378,0.0-6.21-0.21,0.0,30.0,,,,,,,[],,,,,,50.0,0.0,i,1.0,False,852.2999999523163,52.0,59.0,40.0,False,,232.8734619282265,[],"[640, 360]",ColorTask,10.0,22.0,,,HRV,HRV_0288,2022-11-30 22:11:12
,wl-rdm,30,121796,0.0-6.22-0.22,0.0,31.0,,,,,,,[],,,,,,73.6,1.0,u,0.0,False,1027.0,62.0,59.0,40.0,False,,305.4573258060175,[],"[640, 360]",ColorTask,9.0,23.0,,,HRV,HRV_0288,2022-11-30 22:11:12
,wl-rdm,31,124446,0.0-6.23-0.23,0.0,32.0,,,,,,,[],,,,,,73.6,1.0,i,1.0,True,1298.9000000953674,78.0,59.0,40.0,False,,296.8100603136909,[],"[640, 360]",ColorTask,10.0,24.0,,,HRV,HRV_0288,2022-11-30 22:11:12
,wl-rdm,32,127379,0.0-6.24-0.24,0.0,33.0,,,,,,,[],,,,,,50.0,0.0,i,1.0,False,1536.3000001907349,93.0,59.0,40.0,False,,319.2557045345299,[],"[640, 360]",ColorTask,9.0,25.0,,,HRV,HRV_0288,2022-11-30 22:11:12
,wl-rdm,33,129745,0.0-6.25-0.25,0.0,34.0,,,,,,,[],,,,,,53.2,1.0,i,1.0,True,994.6000001430511,60.0,59.0,40.0,False,,304.54789451788565,[],"[640, 360]",ColorTask,10.0,26.0,,,HRV,HRV_0288,2022-11-30 22:11:12
,wl-rdm,34,131795,0.0-6.26-0.26,0.0,35.0,,,,,,,[],,,,,,87.9,1.0,i,1.0,True,759.3999998569489,46.0,59.0,40.0,False,,217.8693437494194,[],"[640, 360]",ColorTask,11.0,27.0,,,HRV,HRV_0288,2022-11-30 22:11:12
,wl-rdm,35,134012,0.0-6.27-0.27,0.0,36.0,,,,,,,[],,,,,,73.6,1.0,i,1.0,True,825.0,50.0,59.0,40.0,False,,329.4688554802762,[],"[640, 360]",ColorTask,12.0,28.0,,,HRV,HRV_0288,2022-11-30 22:11:12
,wl-rdm,36,136413,0.0-6.28-0.28,0.0,37.0,,,,,,,[],,,,,,56.4,0.0,u,0.0,True,985.3000001907349,60.0,59.0,40.0,False,,329.08480522991124,[],"[640, 360]",ColorTask,13.0,29.0,,,HRV,HRV_0288,2022-11-30 22:11:12
,wl-rdm,37,138946,0.0-6.29-0.29,0.0,38.0,,,,,,,[],,,,,,73.6,1.0,i,1.0,True,1103.5999999046326,67.0,59.0,40.0,False,,363.63709555573064,[],"[640, 360]",ColorTask,14.0,30.0,,,HRV,HRV_0288,2022-11-30 22:11:12
,wl-rdm,38,141230,0.0-6.30-0.30,0.0,39.0,,,,,,,[],,,,,,56.4,1.0,i,1.0,True,965.7999999523163,58.0,59.0,40.0,False,,264.7457414770407,[],"[640, 360]",ColorTask,15.0,31.0,,,HRV,HRV_0288,2022-11-30 22:11:12
,wl-rdm,39,143646,0.0-6.31-0.31,0.0,40.0,,,,,,,[],,,,,,56.4,0.0,u,0.0,True,1056.3000001907349,64.0,59.0,40.0,False,,284.89772170555875,[],"[640, 360]",ColorTask,16.0,32.0,,,HRV,HRV_0288,2022-11-30 22:11:12
,wl-rdm,40,145763,0.0-6.32-0.32,0.0,41.0,,,,,,,[],,,,,,73.6,0.0,u,0.0,True,694.5,42.0,59.0,40.0,False,,346.97454923467154,[],"[640, 360]",ColorTask,17.0,33.0,,,HRV,HRV_0288,2022-11-30 22:11:12
,wl-rdm,41,147812,0.0-6.33-0.33,0.0,42.0,,,,,,,[],,,,,,87.9,0.0,u,0.0,True,599.2999999523163,36.0,59.0,40.0,False,,395.0342502177619,[],"[640, 360]",ColorTask,18.0,34.0,,,HRV,HRV_0288,2022-11-30 22:11:12
,wl-rdm,42,150413,0.0-6.34-0.34,0.0,43.0,,,,,,,[],,,,,,56.4,1.0,u,0.0,False,1118.6000001430511,68.0,59.0,40.0,False,,394.8059259555963,[],"[640, 360]",ColorTask,17.0,35.0,,,HRV,HRV_0288,2022-11-30 22:11:12
,wl-rdm,43,153363,0.0-6.35-0.35,0.0,44.0,,,,,,,[],,,,,,62.5,0.0,i,1.0,False,1626.0999999046326,98.0,59.0,40.0,False,,250.94204760680208,[],"[640, 360]",ColorTask,16.0,36.0,,,HRV,HRV_0288,2022-11-30 22:11:12
,wl-rdm,44,155647,0.0-6.36-0.36,0.0,45.0,,,,,,,[],,,,,,50.0,0.0,i,1.0,False,989.7999999523163,60.0,59.0,40.0,False,,228.51763003646798,[],"[640, 360]",ColorTask,15.0,37.0,,,HRV,HRV_0288,2022-11-30 22:11:12
,wl-rdm,45,158246,0.0-6.37-0.37,0.0,46.0,,,,,,,[],,,,,,62.5,1.0,i,1.0,True,1306.4000000953674,79.0,59.0,40.0,False,,210.1713456799458,[],"[640, 360]",ColorTask,16.0,38.0,,,HRV,HRV_0288,2022-11-30 22:11:12
,wl-rdm,46,160596,0.0-6.38-0.38,0.0,47.0,,,,,,,[],,,,,,56.4,0.0,u,0.0,True,901.8999998569489,55.0,59.0,40.0,False,,374.4321182209186,[],"[640, 360]",ColorTask,17.0,39.0,,,HRV,HRV_0288,2022-11-30 22:11:12
,wl-rdm,47,162863,0.0-6.39-0.39,0.0,48.0,,,,,,,[],,,,,,56.4,0.0,i,1.0,False,830.5000002384186,50.0,59.0,40.0,False,,381.2096658975074,[],"[640, 360]",ColorTask,16.0,40.0,,,HRV,HRV_0288,2022-11-30 22:11:12
,wl-rdm,48,164980,0.0-6.40-0.40,0.0,49.0,,,,,,,[],,,,,,87.9,0.0,u,0.0,True,801.3000001907349,49.0,59.0,40.0,False,,229.90937944947981,[],"[640, 360]",ColorTask,17.0,41.0,,,HRV,HRV_0288,2022-11-30 22:11:12
,wl-rdm,49,167663,0.0-6.41-0.41,0.0,50.0,,,,,,,[],,,,,,53.2,0.0,i,1.0,False,1339.1999998092651,81.0,59.0,40.0,False,,281.72062423348353,[],"[640, 360]",ColorTask,16.0,42.0,,,HRV,HRV_0288,2022-11-30 22:11:12
,wl-rdm,50,169796,0.0-6.42-0.42,0.0,51.0,,,,,,,[],,,,,,73.6,1.0,i,1.0,True,818.5999999046326,50.0,59.0,40.0,False,,229.4353276438466,[],"[640, 360]",ColorTask,17.0,43.0,,,HRV,HRV_0288,2022-11-30 22:11:12
,wl-rdm,51,172096,0.0-6.43-0.43,0.0,52.0,,,,,,,[],,,,,,62.5,1.0,i,1.0,True,953.7000000476837,58.0,59.0,40.0,False,,273.29755129069275,[],"[640, 360]",ColorTask,18.0,44.0,,,HRV,HRV_0288,2022-11-30 22:11:12
,wl-rdm,52,174779,0.0-6.44-0.44,0.0,53.0,,,,,,,[],,,,,,56.4,1.0,i,1.0,True,1316.5999999046326,79.0,59.0,40.0,False,,310.6200338380841,[],"[640, 360]",ColorTask,19.0,45.0,,,HRV,HRV_0288,2022-11-30 22:11:12
,wl-rdm,53,177379,0.0-6.45-0.45,0.0,54.0,,,,,,,[],,,,,,50.0,1.0,u,0.0,False,1259.2999999523163,76.0,59.0,40.0,False,,254.9114890113787,[],"[640, 360]",ColorTask,18.0,46.0,,,HRV,HRV_0288,2022-11-30 22:11:12
,wl-rdm,54,179680,0.0-6.46-0.46,0.0,55.0,,,,,,,[],,,,,,50.0,1.0,i,1.0,True,938.3000001907349,57.0,59.0,40.0,False,,267.11908750125787,[],"[640, 360]",ColorTask,19.0,47.0,,,HRV,HRV_0288,2022-11-30 22:11:12
,wl-rdm,55,182530,0.0-6.47-0.47,0.0,56.0,,,,,,,[],,,,,,56.4,0.0,u,0.0,True,1527.7000000476837,92.0,59.0,40.0,False,,261.45513557100486,[],"[640, 360]",ColorTask,20.0,48.0,,,HRV,HRV_0288,2022-11-30 22:11:12
,wl-rdm,56,184847,0.0-6.48-0.48,0.0,57.0,,,,,,,[],,,,,,56.4,1.0,i,1.0,True,989.0,60.0,59.0,40.0,False,,263.59762129935996,[],"[640, 360]",ColorTask,21.0,49.0,,,HRV,HRV_0288,2022-11-30 22:11:12
,wl-rdm,57,187130,0.0-6.49-0.49,0.0,58.0,,,,,,,[],,,,,,73.6,0.0,u,0.0,True,818.4000000953674,50.0,59.0,40.0,False,,389.63981567344865,[],"[640, 360]",ColorTask,22.0,50.0,,,HRV,HRV_0288,2022-11-30 22:11:12
,wl-rdm,58,189846,0.0-6.50-0.50,0.0,59.0,,,,,,,[],,,,,,50.0,1.0,u,0.0,False,1279.5,77.0,59.0,40.0,False,,378.6814075847499,[],"[640, 360]",ColorTask,21.0,51.0,,,HRV,HRV_0288,2022-11-30 22:11:12
,wl-rdm,59,192846,0.0-6.51-0.51,0.0,60.0,,,,,,,[],,,,,,53.2,0.0,i,1.0,False,1631.0999999046326,98.0,59.0,40.0,False,,291.30955011742327,[],"[640, 360]",ColorTask,20.0,52.0,,,HRV,HRV_0288,2022-11-30 22:11:12
,wl-rdm,60,194980,0.0-6.52-0.52,0.0,61.0,,,,,,,[],,,,,,87.9,0.0,u,0.0,True,818.5,50.0,59.0,40.0,False,,223.84412305479623,[],"[640, 360]",ColorTask,21.0,53.0,,,HRV,HRV_0288,2022-11-30 22:11:12
,wl-rdm,61,197365,0.0-6.53-0.53,0.0,62.0,,,,,,,[],,,,,,73.6,0.0,u,0.0,True,1057.8000001907349,64.0,59.0,40.0,False,,258.92570264558157,[],"[640, 360]",ColorTask,22.0,54.0,,,HRV,HRV_0288,2022-11-30 22:11:12
,wl-rdm,62,199865,0.0-6.54-0.54,0.0,63.0,,,,,,,[],,,,,,50.0,0.0,u,0.0,True,1046.0,63.0,59.0,40.0,False,,388.98270238593585,[],"[640, 360]",ColorTask,23.0,55.0,,,HRV,HRV_0288,2022-11-30 22:11:12
,wl-rdm,63,202032,0.0-6.55-0.55,0.0,64.0,,,,,,,[],,,,,,73.6,1.0,i,1.0,True,780.7999999523163,47.0,59.0,40.0,False,,331.11742602251604,[],"[640, 360]",ColorTask,24.0,56.0,,,HRV,HRV_0288,2022-11-30 22:11:12
,wl-rdm,64,204115,0.0-6.56-0.56,0.0,65.0,,,,,,,[],,,,,,73.6,0.0,u,0.0,True,669.1999998092651,41.0,59.0,40.0,False,,329.4073074077178,[],"[640, 360]",ColorTask,25.0,57.0,,,HRV,HRV_0288,2022-11-30 22:11:12
,wl-rdm,65,206265,0.0-6.57-0.57,0.0,66.0,,,,,,,[],,,,,,53.2,0.0,i,1.0,False,846.5999999046326,51.0,59.0,40.0,False,,226.87809032869026,[],"[640, 360]",ColorTask,24.0,58.0,,,HRV,HRV_0288,2022-11-30 22:11:12
,wl-rdm,66,208581,0.0-6.58-0.58,0.0,67.0,,,,,,,[],,,,,,62.5,1.0,i,1.0,True,1008.5,61.0,59.0,40.0,False,,217.8418627584493,[],"[640, 360]",ColorTask,25.0,59.0,,,HRV,HRV_0288,2022-11-30 22:11:12
,wl-rdm,67,210515,0.0-6.59-0.59,0.0,68.0,,,,,,,[],,,,,,87.9,1.0,i,1.0,True,627.2999999523163,38.0,59.0,40.0,False,,224.25414647002057,[],"[640, 360]",ColorTask,26.0,60.0,,,HRV,HRV_0288,2022-11-30 22:11:12
,wl-rdm,68,213065,0.0-6.60-0.60,0.0,69.0,,,,,,,[],,,,,,53.2,1.0,u,0.0,False,1178.0999999046326,71.0,59.0,40.0,False,,317.01672895711334,[],"[640, 360]",ColorTask,25.0,61.0,,,HRV,HRV_0288,2022-11-30 22:11:12
,wl-rdm,69,215664,0.0-6.61-0.61,0.0,70.0,,,,,,,[],,,,,,53.2,1.0,i,1.0,True,1279.2999999523163,77.0,59.0,40.0,False,,246.8914116128749,[],"[640, 360]",ColorTask,26.0,62.0,,,HRV,HRV_0288,2022-11-30 22:11:12
,wl-rdm,70,217914,0.0-6.62-0.62,0.0,71.0,,,,,,,[],,,,,,73.6,0.0,u,0.0,True,959.7000000476837,58.0,59.0,40.0,False,,226.34552171004734,[],"[640, 360]",ColorTask,27.0,63.0,,,HRV,HRV_0288,2022-11-30 22:11:12
,wl-rdm,71,221082,0.0-6.63-0.63,0.0,72.0,,,,,,,[],,,,,,56.4,1.0,i,1.0,True,1803.7999999523163,109.0,59.0,40.0,False,,272.20517346182083,[],"[640, 360]",ColorTask,28.0,64.0,,,HRV,HRV_0288,2022-11-30 22:11:12
,wl-rdm,72,223082,0.0-6.64-0.64,0.0,73.0,,,,,,,[],,,,,,87.9,0.0,u,0.0,True,653.1000001430511,40.0,59.0,40.0,False,,271.2337447348353,[],"[640, 360]",ColorTask,29.0,65.0,,,HRV,HRV_0288,2022-11-30 22:11:12
,wl-rdm,73,225148,0.0-6.65-0.65,0.0,74.0,,,,,,,[],,,,,,56.4,1.0,u,0.0,False,683.6000001430511,41.0,59.0,40.0,False,,329.41314146795094,[],"[640, 360]",ColorTask,28.0,66.0,,,HRV,HRV_0288,2022-11-30 22:11:12
,wl-rdm,74,228348,0.0-6.66-0.66,0.0,75.0,,,,,,,[],,,,,,50.0,1.0,i,1.0,True,1742.7999999523163,105.0,59.0,40.0,False,,372.4769987763709,[],"[640, 360]",ColorTask,29.0,67.0,,,HRV,HRV_0288,2022-11-30 22:11:12
,wl-rdm,75,230332,0.0-6.67-0.67,0.0,76.0,,,,,,,[],,,,,,87.9,1.0,i,1.0,True,610.0999999046326,37.0,59.0,40.0,False,,293.2701086916697,[],"[640, 360]",ColorTask,30.0,68.0,,,HRV,HRV_0288,2022-11-30 22:11:12
,wl-rdm,76,232715,0.0-6.68-0.68,0.0,77.0,,,,,,,[],,,,,,62.5,0.0,u,0.0,True,1060.1000001430511,64.0,59.0,40.0,False,,236.85601880031015,[],"[640, 360]",ColorTask,31.0,69.0,,,HRV,HRV_0288,2022-11-30 22:11:12
,wl-rdm,77,234798,0.0-6.69-0.69,0.0,78.0,,,,,,,[],,,,,,87.9,0.0,u,0.0,True,657.0,40.0,59.0,40.0,False,,348.5094815424054,[],"[640, 360]",ColorTask,32.0,70.0,,,HRV,HRV_0288,2022-11-30 22:11:12
,wl-rdm,78,237415,0.0-6.70-0.70,0.0,79.0,,,,,,,[],,,,,,56.4,1.0,i,1.0,True,1322.3999998569489,80.0,59.0,40.0,False,,213.92041005046292,[],"[640, 360]",ColorTask,33.0,71.0,,,HRV,HRV_0288,2022-11-30 22:11:12
,wl-rdm,79,239964,0.0-6.71-0.71,0.0,80.0,,,,,,,[],,,,,,50.0,0.0,i,1.0,False,1191.6000001430511,72.0,59.0,40.0,False,,281.875968989447,[],"[640, 360]",ColorTask,32.0,72.0,,,HRV,HRV_0288,2022-11-30 22:11:12
,wl-rdm,80,242349,0.0-6.72-0.72,0.0,81.0,,,,,,,[],,,,,,62.5,0.0,i,1.0,False,1051.4000000953674,64.0,59.0,40.0,False,,251.4256523040798,[],"[640, 360]",ColorTask,31.0,73.0,,,HRV,HRV_0288,2022-11-30 22:11:12
,wl-rdm,81,245132,0.0-6.73-0.73,0.0,82.0,,,,,,,[],,,,,,50.0,1.0,u,0.0,False,1352.0999999046326,82.0,59.0,40.0,False,,342.33466509614505,[],"[640, 360]",ColorTask,30.0,74.0,,,HRV,HRV_0288,2022-11-30 22:11:12
,wl-rdm,82,248099,0.0-6.74-0.74,0.0,83.0,,,,,,,[],,,,,,62.5,0.0,u,0.0,True,1535.5,93.0,59.0,40.0,False,,364.1317426022215,[],"[640, 360]",ColorTask,31.0,75.0,,,HRV,HRV_0288,2022-11-30 22:11:12
,wl-rdm,83,250432,0.0-6.75-0.75,0.0,84.0,,,,,,,[],,,,,,62.5,1.0,i,1.0,True,989.2000000476837,60.0,59.0,40.0,False,,260.235431880766,[],"[640, 360]",ColorTask,32.0,76.0,,,HRV,HRV_0288,2022-11-30 22:11:12
,wl-rdm,84,253232,0.0-6.76-0.76,0.0,85.0,,,,,,,[],,,,,,62.5,1.0,i,1.0,True,1512.5999999046326,91.0,59.0,40.0,False,,220.79251757335723,[],"[640, 360]",ColorTask,33.0,77.0,,,HRV,HRV_0288,2022-11-30 22:11:12
,wl-rdm,85,256616,0.0-6.77-0.77,0.0,86.0,,,,,,,[],,,,,,53.2,0.0,i,1.0,False,1988.3000001907349,120.0,59.0,40.0,False,,318.60541380414134,[],"[640, 360]",ColorTask,32.0,78.0,,,HRV,HRV_0288,2022-11-30 22:11:12
,wl-rdm,86,258766,0.0-6.78-0.78,0.0,87.0,,,,,,,[],,,,,,87.9,0.0,u,0.0,True,798.2999999523163,48.0,59.0,40.0,False,,276.46772624844596,[],"[640, 360]",ColorTask,33.0,79.0,,,HRV,HRV_0288,2022-11-30 22:11:12
,wl-rdm,87,261266,0.0-6.79-0.79,0.0,88.0,,,,,,,[],,,,,,87.9,1.0,i,1.0,True,1053.5,64.0,59.0,40.0,False,,374.56821069133815,[],"[640, 360]",ColorTask,34.0,80.0,,,HRV,HRV_0288,2022-11-30 22:11:12
,wl-rdm,88,263332,0.0-6.80-0.80,0.0,89.0,,,,,,,[],,,,,,87.9,1.0,i,1.0,True,609.0,37.0,59.0,40.0,False,,375.0017404423401,[],"[640, 360]",ColorTask,35.0,81.0,,,HRV,HRV_0288,2022-11-30 22:11:12
,wl-rdm,89,265532,0.0-6.81-0.81,0.0,90.0,,,,,,,[],,,,,,50.0,0.0,i,1.0,False,932.7000000476837,56.0,59.0,40.0,False,,211.81127507120652,[],"[640, 360]",ColorTask,34.0,82.0,,,HRV,HRV_0288,2022-11-30 22:11:12
,wl-rdm,90,268216,0.0-6.82-0.82,0.0,91.0,,,,,,,[],,,,,,62.5,0.0,u,0.0,True,1271.7000000476837,77.0,59.0,40.0,False,,320.05064654873297,[],"[640, 360]",ColorTask,35.0,83.0,,,HRV,HRV_0288,2022-11-30 22:11:12
,wl-rdm,91,270583,0.0-6.83-0.83,0.0,92.0,,,,,,,[],,,,,,50.0,0.0,i,1.0,False,1072.5,65.0,59.0,40.0,False,,226.90631705939285,[],"[640, 360]",ColorTask,34.0,84.0,,,HRV,HRV_0288,2022-11-30 22:11:12
,wl-rdm,92,272683,0.0-6.84-0.84,0.0,93.0,,,,,,,[],,,,,,73.6,1.0,i,1.0,True,786.0,48.0,59.0,40.0,False,,233.31837869082503,[],"[640, 360]",ColorTask,35.0,85.0,,,HRV,HRV_0288,2022-11-30 22:11:12
,wl-rdm,93,275333,0.0-6.85-0.85,0.0,94.0,,,,,,,[],,,,,,53.2,1.0,i,1.0,True,1357.2999997138977,82.0,59.0,40.0,False,,232.17050550722126,[],"[640, 360]",ColorTask,36.0,86.0,,,HRV,HRV_0288,2022-11-30 22:11:12
,wl-rdm,94,277250,0.0-6.86-0.86,0.0,95.0,,,,,,,[],,,,,,87.9,0.0,u,0.0,True,561.0,34.0,59.0,40.0,False,,285.4009467571166,[],"[640, 360]",ColorTask,37.0,87.0,,,HRV,HRV_0288,2022-11-30 22:11:12
,wl-rdm,95,280216,0.0-6.87-0.87,0.0,96.0,,,,,,,[],,,,,,56.4,0.0,u,0.0,True,1620.8999998569489,98.0,59.0,40.0,False,,250.92211700303915,[],"[640, 360]",ColorTask,38.0,88.0,,,HRV,HRV_0288,2022-11-30 22:11:12
,wl-rdm,96,282449,0.0-6.88-0.88,0.0,97.0,,,,,,,[],,,,,,53.2,0.0,u,0.0,True,960.7000000476837,58.0,59.0,40.0,False,,211.93654487685035,[],"[640, 360]",ColorTask,39.0,89.0,,,HRV,HRV_0288,2022-11-30 22:11:12
,wl-rdm,97,284699,0.0-6.89-0.89,0.0,98.0,,,,,,,[],,,,,,50.0,0.0,u,0.0,True,926.1999998092651,56.0,59.0,40.0,False,,247.13981745923613,[],"[640, 360]",ColorTask,40.0,90.0,,,HRV,HRV_0288,2022-11-30 22:11:12
,wl-rdm,98,286999,0.0-6.90-0.90,0.0,99.0,,,,,,,[],,,,,,53.2,1.0,u,0.0,False,1005.5,61.0,59.0,40.0,False,,201.9456676332338,[],"[640, 360]",ColorTask,39.0,91.0,,,HRV,HRV_0288,2022-11-30 22:11:12
,wl-rdm,99,289299,0.0-6.91-0.91,0.0,100.0,,,,,,,[],,,,,,53.2,1.0,u,0.0,False,974.9000000953674,59.0,59.0,40.0,False,,244.3448476642113,[],"[640, 360]",ColorTask,38.0,92.0,,,HRV,HRV_0288,2022-11-30 22:11:12
,wl-rdm,100,291349,0.0-6.92-0.92,0.0,101.0,,,,,,,[],,,,,,87.9,0.0,u,0.0,True,689.1999998092651,42.0,59.0,40.0,False,,298.4880670493732,[],"[640, 360]",ColorTask,39.0,93.0,,,HRV,HRV_0288,2022-11-30 22:11:12
,wl-rdm,101,293717,0.0-6.93-0.93,0.0,102.0,,,,,,,[],,,,,,53.2,1.0,i,1.0,True,1081.8000001907349,65.0,59.0,40.0,False,,221.75035575883572,[],"[640, 360]",ColorTask,40.0,94.0,,,HRV,HRV_0288,2022-11-30 22:11:12
,wl-rdm,102,295816,0.0-6.94-0.94,0.0,103.0,,,,,,,[],,,,,,62.5,1.0,i,1.0,True,803.8999998569489,49.0,59.0,40.0,False,,201.25484659752766,[],"[640, 360]",ColorTask,41.0,95.0,,,HRV,HRV_0288,2022-11-30 22:11:12
,wl-rdm,103,298799,0.0-6.95-0.95,0.0,104.0,,,,,,,[],,,,,,50.0,1.0,u,0.0,False,1629.9000000953674,98.0,59.0,40.0,False,,281.0307216978346,[],"[640, 360]",ColorTask,40.0,96.0,,,HRV,HRV_0288,2022-11-30 22:11:12
,wl-rdm,104,300766,0.0-6.96-0.96,0.0,105.0,,,,,,,[],,,,,,53.2,0.0,u,0.0,True,622.3000001907349,38.0,59.0,40.0,False,,252.1872753473993,[],"[640, 360]",ColorTask,41.0,97.0,,,HRV,HRV_0288,2022-11-30 22:11:12
,wl-rdm,105,303283,0.0-6.97-0.97,0.0,106.0,,,,,,,[],,,,,,50.0,1.0,u,0.0,False,1134.5,68.0,59.0,40.0,False,,315.1044963540515,[],"[640, 360]",ColorTask,40.0,98.0,,,HRV,HRV_0288,2022-11-30 22:11:12
,wl-rdm,106,305550,0.0-6.98-0.98,0.0,107.0,,,,,,,[],,,,,,87.9,1.0,i,1.0,True,806.2999999523163,49.0,59.0,40.0,False,,381.7596512549512,[],"[640, 360]",ColorTask,41.0,99.0,,,HRV,HRV_0288,2022-11-30 22:11:12
,wl-rdm,107,307983,0.0-6.99-0.99,0.0,108.0,,,,,,,[],,,,,,73.6,1.0,i,1.0,True,1137.8999998569489,69.0,59.0,40.0,False,,215.63703071186052,[],"[640, 360]",ColorTask,42.0,100.0,,,HRV,HRV_0288,2022-11-30 22:11:12
,wl-rdm,108,310249,0.0-6.100-0.100,0.0,109.0,,,,,,,[],,,,,,62.5,0.0,u,0.0,True,984.8000001907349,60.0,59.0,40.0,False,,216.92922830613787,[],"[640, 360]",ColorTask,43.0,101.0,,,HRV,HRV_0288,2022-11-30 22:11:12
,wl-rdm,109,313249,0.0-6.101-0.101,0.0,110.0,,,,,,,[],,,,,,62.5,1.0,i,1.0,True,1718.5999999046326,104.0,59.0,40.0,False,,204.1645495827024,[],"[640, 360]",ColorTask,44.0,102.0,,,HRV,HRV_0288,2022-11-30 22:11:12
,wl-rdm,110,315700,0.0-6.102-0.102,0.0,111.0,,,,,,,[],,,,,,62.5,0.0,u,0.0,True,1167.2000000476837,70.0,59.0,40.0,False,,207.5017101216296,[],"[640, 360]",ColorTask,45.0,103.0,,,HRV,HRV_0288,2022-11-30 22:11:12
,wl-rdm,111,318434,0.0-6.103-0.103,0.0,112.0,,,,,,,[],,,,,,56.4,1.0,i,1.0,True,1419.1999998092651,86.0,59.0,40.0,False,,236.2144154872239,[],"[640, 360]",ColorTask,46.0,104.0,,,HRV,HRV_0288,2022-11-30 22:11:12
,wl-rdm,112,320568,0.0-6.104-0.104,0.0,113.0,,,,,,,[],,,,,,62.5,1.0,i,1.0,True,839.1000001430511,51.0,59.0,40.0,False,,208.36403761630942,[],"[640, 360]",ColorTask,47.0,105.0,,,HRV,HRV_0288,2022-11-30 22:11:12
,wl-rdm,113,322868,0.0-6.105-0.105,0.0,114.0,,,,,,,[],,,,,,73.6,1.0,i,1.0,True,909.0999999046326,55.0,59.0,40.0,False,,314.43465916428295,[],"[640, 360]",ColorTask,48.0,106.0,,,HRV,HRV_0288,2022-11-30 22:11:12
,wl-rdm,114,325084,0.0-6.106-0.106,0.0,115.0,,,,,,,[],,,,,,87.9,1.0,i,1.0,True,824.8000001907349,50.0,59.0,40.0,False,,302.5992168392539,[],"[640, 360]",ColorTask,49.0,107.0,,,HRV,HRV_0288,2022-11-30 22:11:12
,wl-rdm,115,327901,0.0-6.107-0.107,0.0,116.0,,,,,,,[],,,,,,53.2,0.0,u,0.0,True,1490.7000002861023,90.0,59.0,40.0,False,,247.56816413664714,[],"[640, 360]",ColorTask,50.0,108.0,,,HRV,HRV_0288,2022-11-30 22:11:12
,wl-html-keyboard-response,116,359210,0.0-7.0-0.0,1.0,117.0,,,,,,,,29301.5,1.0,0,,,,,,,,,,,,,,,,,,,,,,HRV,HRV_0288,2022-11-30 22:11:12
,wl-rdm,117,361217,0.0-8.0-0.0,1.0,118.0,,,,,,,[],,,,,,73.6,0.0,u,0.0,True,609.7999999523163,37.0,59.0,40.0,False,,325.49233231525466,[],"[640, 360]",ColorTask,51.0,1.0,,,HRV,HRV_0288,2022-11-30 22:11:12
,wl-rdm,118,363184,0.0-8.1-0.1,1.0,119.0,,,,,,,[],,,,,,62.5,1.0,i,1.0,True,610.4000000953674,37.0,59.0,40.0,False,,291.1123491998842,[],"[640, 360]",ColorTask,52.0,2.0,,,HRV,HRV_0288,2022-11-30 22:11:12
,wl-rdm,119,365134,0.0-8.2-0.2,1.0,120.0,,,,,,,[],,,,,,73.6,1.0,i,1.0,True,646.4999997615814,39.0,59.0,40.0,False,,218.55308413365483,[],"[640, 360]",ColorTask,53.0,3.0,,,HRV,HRV_0288,2022-11-30 22:11:12
,wl-rdm,120,366967,0.0-8.3-0.3,1.0,121.0,,,,,,,[],,,,,,50.0,1.0,i,1.0,True,462.39999985694885,28.0,59.0,40.0,False,,287.9833674869526,[],"[640, 360]",ColorTask,54.0,4.0,,,HRV,HRV_0288,2022-11-30 22:11:12
,wl-rdm,121,368917,0.0-8.4-0.4,1.0,122.0,,,,,,,[],,,,,,87.9,1.0,i,1.0,True,580.3999998569489,35.0,59.0,40.0,False,,307.84928459924595,[],"[640, 360]",ColorTask,55.0,5.0,,,HRV,HRV_0288,2022-11-30 22:11:12
,wl-rdm,122,371117,0.0-8.5-0.5,1.0,123.0,,,,,,,[],,,,,,56.4,1.0,u,0.0,False,863.7999999523163,52.0,59.0,40.0,False,,263.09829641150975,[],"[640, 360]",ColorTask,54.0,6.0,,,HRV,HRV_0288,2022-11-30 22:11:12
,wl-rdm,123,373284,0.0-8.6-0.6,1.0,124.0,,,,,,,[],,,,,,56.4,0.0,i,1.0,False,807.0,49.0,59.0,40.0,False,,281.8480245909194,[],"[640, 360]",ColorTask,53.0,7.0,,,HRV,HRV_0288,2022-11-30 22:11:12
,wl-rdm,124,375486,0.0-8.7-0.7,1.0,125.0,,,,,,,[],,,,,,56.4,0.0,u,0.0,True,856.9999997615814,52.0,59.0,40.0,False,,277.7649095886618,[],"[640, 360]",ColorTask,54.0,8.0,,,HRV,HRV_0288,2022-11-30 22:11:12
,wl-rdm,125,377452,0.0-8.8-0.8,1.0,126.0,,,,,,,[],,,,,,73.6,0.0,u,0.0,True,565.5999999046326,34.0,59.0,40.0,False,,349.5384952383955,[],"[640, 360]",ColorTask,55.0,9.0,,,HRV,HRV_0288,2022-11-30 22:11:12
,wl-rdm,126,379585,0.0-8.9-0.9,1.0,127.0,,,,,,,[],,,,,,50.0,1.0,i,1.0,True,768.9000000953674,47.0,59.0,40.0,False,,283.6407588366338,[],"[640, 360]",ColorTask,56.0,10.0,,,HRV,HRV_0288,2022-11-30 22:11:12
,wl-rdm,127,382052,0.0-8.10-0.10,1.0,128.0,,,,,,,[],,,,,,53.2,0.0,u,0.0,True,1002.0,61.0,59.0,40.0,False,,375.69727607717607,[],"[640, 360]",ColorTask,57.0,11.0,,,HRV,HRV_0288,2022-11-30 22:11:12
,wl-rdm,128,384169,0.0-8.11-0.11,1.0,129.0,,,,,,,[],,,,,,87.9,1.0,i,1.0,True,736.1999998092651,45.0,59.0,40.0,False,,309.5132673310318,[],"[640, 360]",ColorTask,58.0,12.0,,,HRV,HRV_0288,2022-11-30 22:11:12
,wl-rdm,129,386053,0.0-8.12-0.12,1.0,130.0,,,,,,,[],,,,,,73.6,1.0,i,1.0,True,599.8999998569489,36.0,59.0,40.0,False,,206.8315146374893,[],"[640, 360]",ColorTask,59.0,13.0,,,HRV,HRV_0288,2022-11-30 22:11:12
,wl-rdm,130,388335,0.0-8.13-0.13,1.0,131.0,,,,,,,[],,,,,,53.2,1.0,u,0.0,False,954.8999998569489,58.0,59.0,40.0,False,,243.09806161478343,[],"[640, 360]",ColorTask,58.0,14.0,,,HRV,HRV_0288,2022-11-30 22:11:12
,wl-rdm,131,390735,0.0-8.14-0.14,1.0,132.0,,,,,,,[],,,,,,53.2,0.0,u,0.0,True,1120.9000000953674,68.0,59.0,40.0,False,,205.99429876493875,[],"[640, 360]",ColorTask,59.0,15.0,,,HRV,HRV_0288,2022-11-30 22:11:12
,wl-rdm,132,392819,0.0-8.15-0.15,1.0,133.0,,,,,,,[],,,,,,62.5,0.0,u,0.0,True,767.8999998569489,47.0,59.0,40.0,False,,225.28290870621134,[],"[640, 360]",ColorTask,60.0,16.0,,,HRV,HRV_0288,2022-11-30 22:11:12
,wl-rdm,133,394753,0.0-8.16-0.16,1.0,134.0,,,,,,,[],,,,,,73.6,0.0,u,0.0,True,528.5000002384186,32.0,59.0,40.0,False,,321.87356494236417,[],"[640, 360]",ColorTask,61.0,17.0,,,HRV,HRV_0288,2022-11-30 22:11:12
,wl-rdm,134,396803,0.0-8.17-0.17,1.0,135.0,,,,,,,[],,,,,,62.5,0.0,u,0.0,True,668.1000001430511,41.0,59.0,40.0,False,,295.2536392975072,[],"[640, 360]",ColorTask,62.0,18.0,,,HRV,HRV_0288,2022-11-30 22:11:12
,wl-rdm,135,398819,0.0-8.18-0.18,1.0,136.0,,,,,,,[],,,,,,50.0,1.0,u,0.0,False,592.0999999046326,36.0,59.0,40.0,False,,341.3389380197783,[],"[640, 360]",ColorTask,61.0,19.0,,,HRV,HRV_0288,2022-11-30 22:11:12
,wl-rdm,136,401286,0.0-8.19-0.19,1.0,137.0,,,,,,,[],,,,,,56.4,0.0,i,1.0,False,1147.7000000476837,69.0,59.0,40.0,False,,253.07002423913676,[],"[640, 360]",ColorTask,60.0,20.0,,,HRV,HRV_0288,2022-11-30 22:11:12
,wl-rdm,137,403469,0.0-8.20-0.20,1.0,138.0,,,,,,,[],,,,,,50.0,0.0,u,0.0,True,722.9000000953674,44.0,59.0,40.0,False,,389.91536549207746,[],"[640, 360]",ColorTask,61.0,21.0,,,HRV,HRV_0288,2022-11-30 22:11:12
,wl-rdm,138,405352,0.0-8.21-0.21,1.0,139.0,,,,,,,[],,,,,,73.6,0.0,u,0.0,True,602.5999999046326,37.0,59.0,40.0,False,,207.34058488633832,[],"[640, 360]",ColorTask,62.0,22.0,,,HRV,HRV_0288,2022-11-30 22:11:12
,wl-rdm,139,407486,0.0-8.22-0.22,1.0,140.0,,,,,,,[],,,,,,87.9,1.0,i,1.0,True,813.6999998092651,49.0,59.0,40.0,False,,264.69319301910457,[],"[640, 360]",ColorTask,63.0,23.0,,,HRV,HRV_0288,2022-11-30 22:11:12
,wl-rdm,140,410035,0.0-8.23-0.23,1.0,141.0,,,,,,,[],,,,,,56.4,0.0,u,0.0,True,1107.5999999046326,67.0,59.0,40.0,False,,355.3002119567288,[],"[640, 360]",ColorTask,64.0,24.0,,,HRV,HRV_0288,2022-11-30 22:11:12
,wl-rdm,141,412169,0.0-8.24-0.24,1.0,142.0,,,,,,,[],,,,,,62.5,0.0,u,0.0,True,826.8999998569489,50.0,59.0,40.0,False,,235.47022400785855,[],"[640, 360]",ColorTask,65.0,25.0,,,HRV,HRV_0288,2022-11-30 22:11:12
,wl-rdm,142,413935,0.0-8.25-0.25,1.0,143.0,,,,,,,[],,,,,,87.9,0.0,u,0.0,True,469.400000333786,29.0,59.0,40.0,False,,225.64253599024264,[],"[640, 360]",ColorTask,66.0,26.0,,,HRV,HRV_0288,2022-11-30 22:11:12
,wl-rdm,143,415919,0.0-8.26-0.26,1.0,144.0,,,,,,,[],,,,,,73.6,1.0,i,1.0,True,621.0999999046326,38.0,59.0,40.0,False,,270.84108723125433,[],"[640, 360]",ColorTask,67.0,27.0,,,HRV,HRV_0288,2022-11-30 22:11:12
,wl-rdm,144,417935,0.0-8.27-0.27,1.0,145.0,,,,,,,[],,,,,,50.0,0.0,i,1.0,False,660.5,40.0,59.0,40.0,False,,294.0635052636592,[],"[640, 360]",ColorTask,66.0,28.0,,,HRV,HRV_0288,2022-11-30 22:11:12
,wl-rdm,145,420003,0.0-8.28-0.28,1.0,146.0,,,,,,,[],,,,,,73.6,0.0,u,0.0,True,741.5999999046326,45.0,59.0,40.0,False,,246.59139844453404,[],"[640, 360]",ColorTask,67.0,29.0,,,HRV,HRV_0288,2022-11-30 22:11:12
,wl-rdm,146,421902,0.0-8.29-0.29,1.0,147.0,,,,,,,[],,,,,,62.5,1.0,i,1.0,True,520.5999999046326,32.0,59.0,40.0,False,,308.54716816861037,[],"[640, 360]",ColorTask,68.0,30.0,,,HRV,HRV_0288,2022-11-30 22:11:12
,wl-rdm,147,424403,0.0-8.30-0.30,1.0,148.0,,,,,,,[],,,,,,62.5,1.0,u,0.0,False,1035.5,63.0,59.0,40.0,False,,382.57155512860993,[],"[640, 360]",ColorTask,67.0,31.0,,,HRV,HRV_0288,2022-11-30 22:11:12
,wl-rdm,148,426719,0.0-8.31-0.31,1.0,149.0,,,,,,,[],,,,,,73.6,1.0,i,1.0,True,1028.4000000953674,62.0,59.0,40.0,False,,207.41019857204859,[],"[640, 360]",ColorTask,68.0,32.0,,,HRV,HRV_0288,2022-11-30 22:11:12
,wl-rdm,149,429119,0.0-8.32-0.32,1.0,150.0,,,,,,,[],,,,,,56.4,1.0,i,1.0,True,1037.0999999046326,63.0,59.0,40.0,False,,277.8763395602315,[],"[640, 360]",ColorTask,69.0,33.0,,,HRV,HRV_0288,2022-11-30 22:11:12
,wl-rdm,150,431086,0.0-8.33-0.33,1.0,151.0,,,,,,,[],,,,,,73.6,1.0,i,1.0,True,646.0999999046326,39.0,59.0,40.0,False,,241.6262011901446,[],"[640, 360]",ColorTask,70.0,34.0,,,HRV,HRV_0288,2022-11-30 22:11:12
,wl-rdm,151,432886,0.0-8.34-0.34,1.0,152.0,,,,,,,[],,,,,,50.0,0.0,i,1.0,False,528.5,32.0,59.0,40.0,False,,207.2697424734053,[],"[640, 360]",ColorTask,69.0,35.0,,,HRV,HRV_0288,2022-11-30 22:11:12
,wl-rdm,152,435770,0.0-8.35-0.35,1.0,153.0,,,,,,,[],,,,,,53.2,1.0,u,0.0,False,1510.2999997138977,91.0,59.0,40.0,False,,291.8877984397977,[],"[640, 360]",ColorTask,68.0,36.0,,,HRV,HRV_0288,2022-11-30 22:11:12
,wl-rdm,153,438203,0.0-8.36-0.36,1.0,154.0,,,,,,,[],,,,,,62.5,0.0,u,0.0,True,1148.5999999046326,69.0,59.0,40.0,False,,217.3361373443408,[],"[640, 360]",ColorTask,69.0,37.0,,,HRV,HRV_0288,2022-11-30 22:11:12
,wl-rdm,154,440353,0.0-8.37-0.37,1.0,155.0,,,,,,,[],,,,,,50.0,1.0,u,0.0,False,802.5999999046326,49.0,59.0,40.0,False,,254.7628405521705,[],"[640, 360]",ColorTask,68.0,38.0,,,HRV,HRV_0288,2022-11-30 22:11:12
,wl-rdm,155,442820,0.0-8.38-0.38,1.0,156.0,,,,,,,[],,,,,,73.6,1.0,i,1.0,True,1115.2999999523163,67.0,59.0,40.0,False,,284.7639730128135,[],"[640, 360]",ColorTask,69.0,39.0,,,HRV,HRV_0288,2022-11-30 22:11:12
,wl-rdm,156,444787,0.0-8.39-0.39,1.0,157.0,,,,,,,[],,,,,,62.5,1.0,i,1.0,True,651.5999999046326,40.0,59.0,40.0,False,,231.11513513200717,[],"[640, 360]",ColorTask,70.0,40.0,,,HRV,HRV_0288,2022-11-30 22:11:12
,wl-rdm,157,447204,0.0-8.40-0.40,1.0,158.0,,,,,,,[],,,,,,56.4,1.0,u,0.0,False,1099.5,66.0,59.0,40.0,False,,243.62415519779094,[],"[640, 360]",ColorTask,69.0,41.0,,,HRV,HRV_0288,2022-11-30 22:11:12
,wl-rdm,158,449271,0.0-8.41-0.41,1.0,159.0,,,,,,,[],,,,,,87.9,1.0,u,0.0,False,588.7000000476837,36.0,59.0,40.0,False,,384.06201806308934,[],"[640, 360]",ColorTask,68.0,42.0,,,HRV,HRV_0288,2022-11-30 22:11:12
,wl-rdm,159,451671,0.0-8.42-0.42,1.0,160.0,,,,,,,[],,,,,,53.2,1.0,u,0.0,False,1088.6999998092651,66.0,59.0,40.0,False,,224.5062924019011,[],"[640, 360]",ColorTask,67.0,43.0,,,HRV,HRV_0288,2022-11-30 22:11:12
,wl-rdm,160,454170,0.0-8.43-0.43,1.0,161.0,,,,,,,[],,,,,,50.0,1.0,i,1.0,True,1199.6999998092651,72.0,59.0,40.0,False,,235.06580012832313,[],"[640, 360]",ColorTask,68.0,44.0,,,HRV,HRV_0288,2022-11-30 22:11:12
,wl-rdm,161,456637,0.0-8.44-0.44,1.0,162.0,,,,,,,[],,,,,,73.6,0.0,u,0.0,True,1073.5,65.0,59.0,40.0,False,,303.07451667431803,[],"[640, 360]",ColorTask,69.0,45.0,,,HRV,HRV_0288,2022-11-30 22:11:12
,wl-rdm,162,458770,0.0-8.45-0.45,1.0,163.0,,,,,,,[],,,,,,53.2,1.0,i,1.0,True,818.2000000476837,50.0,59.0,40.0,False,,237.13650556549408,[],"[640, 360]",ColorTask,70.0,46.0,,,HRV,HRV_0288,2022-11-30 22:11:12
,wl-rdm,163,460787,0.0-8.46-0.46,1.0,164.0,,,,,,,[],,,,,,73.6,1.0,i,1.0,True,666.599999666214,40.0,59.0,40.0,False,,271.3951725587088,[],"[640, 360]",ColorTask,71.0,47.0,,,HRV,HRV_0288,2022-11-30 22:11:12
,wl-rdm,164,463270,0.0-8.47-0.47,1.0,165.0,,,,,,,[],,,,,,53.2,1.0,u,0.0,False,1096.0999999046326,66.0,59.0,40.0,False,,315.1457181463468,[],"[640, 360]",ColorTask,70.0,48.0,,,HRV,HRV_0288,2022-11-30 22:11:12
,wl-rdm,165,465204,0.0-8.48-0.48,1.0,166.0,,,,,,,[],,,,,,87.9,0.0,u,0.0,True,524.0000002384186,32.0,59.0,40.0,False,,332.9936668879186,[],"[640, 360]",ColorTask,71.0,49.0,,,HRV,HRV_0288,2022-11-30 22:11:12
,wl-rdm,166,467487,0.0-8.49-0.49,1.0,167.0,,,,,,,[],,,,,,56.4,0.0,i,1.0,False,894.4000000953674,54.0,59.0,40.0,False,,332.25447121427425,[],"[640, 360]",ColorTask,70.0,50.0,,,HRV,HRV_0288,2022-11-30 22:11:12
,wl-rdm,167,469688,0.0-8.50-0.50,1.0,168.0,,,,,,,[],,,,,,53.2,0.0,i,1.0,False,729.3000001907349,44.0,59.0,40.0,False,,391.3828106881415,[],"[640, 360]",ColorTask,69.0,51.0,,,HRV,HRV_0288,2022-11-30 22:11:12
,wl-rdm,168,472271,0.0-8.51-0.51,1.0,169.0,,,,,,,[],,,,,,50.0,0.0,u,0.0,True,1228.5,74.0,59.0,40.0,False,,291.0569663771372,[],"[640, 360]",ColorTask,70.0,52.0,,,HRV,HRV_0288,2022-11-30 22:11:12
,wl-rdm,169,474487,0.0-8.52-0.52,1.0,170.0,,,,,,,[],,,,,,87.9,1.0,i,1.0,True,828.4999997615814,50.0,59.0,40.0,False,,304.1159964109447,[],"[640, 360]",ColorTask,71.0,53.0,,,HRV,HRV_0288,2022-11-30 22:11:12
,wl-rdm,170,477304,0.0-8.53-0.53,1.0,171.0,,,,,,,[],,,,,,53.2,1.0,u,0.0,False,1544.0,93.0,59.0,40.0,False,,200.02139366394022,[],"[640, 360]",ColorTask,70.0,54.0,,,HRV,HRV_0288,2022-11-30 22:11:12
,wl-rdm,171,479671,0.0-8.54-0.54,1.0,172.0,,,,,,,[],,,,,,87.9,0.0,u,0.0,True,1029.1000001430511,62.0,59.0,40.0,False,,264.5350438078868,[],"[640, 360]",ColorTask,71.0,55.0,,,HRV,HRV_0288,2022-11-30 22:11:12
,wl-rdm,172,482737,0.0-8.55-0.55,1.0,173.0,,,,,,,[],,,,,,56.4,1.0,u,0.0,False,1734.4000000953674,105.0,59.0,40.0,False,,259.61527311752644,[],"[640, 360]",ColorTask,70.0,56.0,,,HRV,HRV_0288,2022-11-30 22:11:12
,wl-rdm,173,484954,0.0-8.56-0.56,1.0,174.0,,,,,,,[],,,,,,53.2,0.0,i,1.0,False,901.0,55.0,59.0,40.0,False,,232.60034761970587,[],"[640, 360]",ColorTask,69.0,57.0,,,HRV,HRV_0288,2022-11-30 22:11:12
,wl-rdm,174,487520,0.0-8.57-0.57,1.0,175.0,,,,,,,[],,,,,,53.2,0.0,u,0.0,True,1209.7000000476837,73.0,59.0,40.0,False,,295.4494538979393,[],"[640, 360]",ColorTask,70.0,58.0,,,HRV,HRV_0288,2022-11-30 22:11:12
,wl-rdm,175,489554,0.0-8.58-0.58,1.0,176.0,,,,,,,[],,,,,,73.6,0.0,u,0.0,True,692.4999997615814,42.0,59.0,40.0,False,,257.9566021444631,[],"[640, 360]",ColorTask,71.0,59.0,,,HRV,HRV_0288,2022-11-30 22:11:12
,wl-rdm,176,492820,0.0-8.59-0.59,1.0,177.0,,,,,,,[],,,,,,53.2,0.0,u,0.0,True,1947.7999999523163,117.0,59.0,40.0,False,,259.9232275709744,[],"[640, 360]",ColorTask,72.0,60.0,,,HRV,HRV_0288,2022-11-30 22:11:12
,wl-rdm,177,495305,0.0-8.60-0.60,1.0,178.0,,,,,,,[],,,,,,50.0,0.0,u,0.0,True,1052.0999999046326,64.0,59.0,40.0,False,,364.76573390096246,[],"[640, 360]",ColorTask,73.0,61.0,,,HRV,HRV_0288,2022-11-30 22:11:12
,wl-rdm,178,497505,0.0-8.61-0.61,1.0,179.0,,,,,,,[],,,,,,73.6,1.0,i,1.0,True,785.0,48.0,59.0,40.0,False,,341.33846971611035,[],"[640, 360]",ColorTask,74.0,62.0,,,HRV,HRV_0288,2022-11-30 22:11:12
,wl-rdm,179,500222,0.0-8.62-0.62,1.0,180.0,,,,,,,[],,,,,,50.0,0.0,u,0.0,True,1322.7999999523163,80.0,59.0,40.0,False,,301.403917262981,[],"[640, 360]",ColorTask,75.0,63.0,,,HRV,HRV_0288,2022-11-30 22:11:12
,wl-rdm,180,502188,0.0-8.63-0.63,1.0,181.0,,,,,,,[],,,,,,62.5,0.0,u,0.0,True,622.2000000476837,38.0,59.0,40.0,False,,276.76772553627313,[],"[640, 360]",ColorTask,76.0,64.0,,,HRV,HRV_0288,2022-11-30 22:11:12
,wl-rdm,181,504555,0.0-8.64-0.64,1.0,182.0,,,,,,,[],,,,,,62.5,1.0,u,0.0,False,941.5999999046326,57.0,59.0,40.0,False,,353.880019697653,[],"[640, 360]",ColorTask,75.0,65.0,,,HRV,HRV_0288,2022-11-30 22:11:12
,wl-rdm,182,507405,0.0-8.65-0.65,1.0,183.0,,,,,,,[],,,,,,53.2,0.0,u,0.0,True,1513.2000000476837,91.0,59.0,40.0,False,,280.26676684078296,[],"[640, 360]",ColorTask,76.0,66.0,,,HRV,HRV_0288,2022-11-30 22:11:12
,wl-rdm,183,509938,0.0-8.66-0.66,1.0,184.0,,,,,,,[],,,,,,50.0,1.0,u,0.0,False,1216.1999998092651,73.0,59.0,40.0,False,,261.62071293477027,[],"[640, 360]",ColorTask,75.0,67.0,,,HRV,HRV_0288,2022-11-30 22:11:12
,wl-rdm,184,513173,0.0-8.67-0.67,1.0,185.0,,,,,,,[],,,,,,62.5,0.0,u,0.0,True,1897.2000000476837,114.0,59.0,40.0,False,,273.230629889405,[],"[640, 360]",ColorTask,76.0,68.0,,,HRV,HRV_0288,2022-11-30 22:11:12
,wl-rdm,185,516540,0.0-8.68-0.68,1.0,186.0,,,,,,,[],,,,,,50.0,1.0,i,1.0,True,1950.7000000476837,117.0,59.0,40.0,False,,349.1076022323344,[],"[640, 360]",ColorTask,77.0,69.0,,,HRV,HRV_0288,2022-11-30 22:11:12
,wl-rdm,186,518772,0.0-8.69-0.69,1.0,187.0,,,,,,,[],,,,,,50.0,1.0,i,1.0,True,797.3000001907349,48.0,59.0,40.0,False,,351.81497336936246,[],"[640, 360]",ColorTask,78.0,70.0,,,HRV,HRV_0288,2022-11-30 22:11:12
,wl-rdm,187,521489,0.0-8.70-0.70,1.0,188.0,,,,,,,[],,,,,,56.4,1.0,i,1.0,True,1392.7000000476837,84.0,59.0,40.0,False,,245.1636995873895,[],"[640, 360]",ColorTask,79.0,71.0,,,HRV,HRV_0288,2022-11-30 22:11:12
,wl-rdm,188,523690,0.0-8.71-0.71,1.0,189.0,,,,,,,[],,,,,,56.4,1.0,i,1.0,True,909.3999998569489,55.0,59.0,40.0,False,,207.10841240528694,[],"[640, 360]",ColorTask,80.0,72.0,,,HRV,HRV_0288,2022-11-30 22:11:12
,wl-rdm,189,527640,0.0-8.72-0.72,1.0,190.0,,,,,,,[],,,,,,62.5,0.0,u,0.0,True,2519.899999856949,152.0,59.0,40.0,False,,352.6848763352484,[],"[640, 360]",ColorTask,81.0,73.0,,,HRV,HRV_0288,2022-11-30 22:11:12
,wl-rdm,190,529772,0.0-8.73-0.73,1.0,191.0,,,,,,,[],,,,,,87.9,1.0,i,1.0,True,839.2000000476837,51.0,59.0,40.0,False,,206.50410893294472,[],"[640, 360]",ColorTask,82.0,74.0,,,HRV,HRV_0288,2022-11-30 22:11:12
,wl-rdm,191,532489,0.0-8.74-0.74,1.0,192.0,,,,,,,[],,,,,,53.2,0.0,i,1.0,False,1408.5000002384186,85.0,59.0,40.0,False,,245.8629373043403,[],"[640, 360]",ColorTask,81.0,75.0,,,HRV,HRV_0288,2022-11-30 22:11:12
,wl-rdm,192,535139,0.0-8.75-0.75,1.0,193.0,,,,,,,[],,,,,,62.5,1.0,i,1.0,True,1198.5999999046326,72.0,59.0,40.0,False,,369.2437897279401,[],"[640, 360]",ColorTask,82.0,76.0,,,HRV,HRV_0288,2022-11-30 22:11:12
,wl-rdm,193,537273,0.0-8.76-0.76,1.0,194.0,,,,,,,[],,,,,,87.9,0.0,u,0.0,True,792.5999999046326,48.0,59.0,40.0,False,,277.62265450900486,[],"[640, 360]",ColorTask,83.0,77.0,,,HRV,HRV_0288,2022-11-30 22:11:12
,wl-rdm,194,540957,0.0-8.77-0.77,1.0,195.0,,,,,,,[],,,,,,50.0,0.0,u,0.0,True,2314.0,139.0,59.0,40.0,False,,315.84310678438334,[],"[640, 360]",ColorTask,84.0,78.0,,,HRV,HRV_0288,2022-11-30 22:11:12
,wl-rdm,195,543573,0.0-8.78-0.78,1.0,196.0,,,,,,,[],,,,,,56.4,1.0,u,0.0,False,1255.0000002384186,76.0,59.0,40.0,False,,299.3757008492727,[],"[640, 360]",ColorTask,83.0,79.0,,,HRV,HRV_0288,2022-11-30 22:11:12
,wl-rdm,196,545956,0.0-8.79-0.79,1.0,197.0,,,,,,,[],,,,,,87.9,1.0,i,1.0,True,954.7999999523163,58.0,59.0,40.0,False,,359.1514561210913,[],"[640, 360]",ColorTask,84.0,80.0,,,HRV,HRV_0288,2022-11-30 22:11:12
,wl-rdm,197,548206,0.0-8.80-0.80,1.0,198.0,,,,,,,[],,,,,,87.9,1.0,i,1.0,True,836.5,51.0,59.0,40.0,False,,333.91578004519715,[],"[640, 360]",ColorTask,85.0,81.0,,,HRV,HRV_0288,2022-11-30 22:11:12
,wl-rdm,198,550090,0.0-8.81-0.81,1.0,199.0,,,,,,,[],,,,,,73.6,1.0,i,1.0,True,591.0000002384186,36.0,59.0,40.0,False,,222.25438187746244,[],"[640, 360]",ColorTask,86.0,82.0,,,HRV,HRV_0288,2022-11-30 22:11:12
,wl-rdm,199,552506,0.0-8.82-0.82,1.0,200.0,,,,,,,[],,,,,,62.5,0.0,u,0.0,True,1040.3999998569489,63.0,59.0,40.0,False,,314.0613360869513,[],"[640, 360]",ColorTask,87.0,83.0,,,HRV,HRV_0288,2022-11-30 22:11:12
,wl-rdm,200,554989,0.0-8.83-0.83,1.0,201.0,,,,,,,[],,,,,,53.2,0.0,u,0.0,True,1103.4999997615814,67.0,59.0,40.0,False,,310.2217640630226,[],"[640, 360]",ColorTask,88.0,84.0,,,HRV,HRV_0288,2022-11-30 22:11:12
,wl-rdm,201,557141,0.0-8.84-0.84,1.0,202.0,,,,,,,[],,,,,,50.0,0.0,i,1.0,False,823.6999998092651,50.0,59.0,40.0,False,,245.53980369780004,[],"[640, 360]",ColorTask,87.0,85.0,,,HRV,HRV_0288,2022-11-30 22:11:12
,wl-rdm,202,559357,0.0-8.85-0.85,1.0,203.0,,,,,,,[],,,,,,53.2,1.0,u,0.0,False,813.7999999523163,49.0,59.0,40.0,False,,320.9313726875034,[],"[640, 360]",ColorTask,86.0,86.0,,,HRV,HRV_0288,2022-11-30 22:11:12
,wl-rdm,203,561740,0.0-8.86-0.86,1.0,204.0,,,,,,,[],,,,,,53.2,1.0,u,0.0,False,956.5999999046326,58.0,59.0,40.0,False,,344.1985007971973,[],"[640, 360]",ColorTask,85.0,87.0,,,HRV,HRV_0288,2022-11-30 22:11:12
,wl-rdm,204,563741,0.0-8.87-0.87,1.0,205.0,,,,,,,[],,,,,,87.9,0.0,u,0.0,True,541.0999999046326,33.0,59.0,40.0,False,,382.48870882650124,[],"[640, 360]",ColorTask,86.0,88.0,,,HRV,HRV_0288,2022-11-30 22:11:12
,wl-rdm,205,565774,0.0-8.88-0.88,1.0,206.0,,,,,,,[],,,,,,73.6,0.0,u,0.0,True,663.5,40.0,59.0,40.0,False,,290.3800435059469,[],"[640, 360]",ColorTask,87.0,89.0,,,HRV,HRV_0288,2022-11-30 22:11:12
,wl-rdm,206,568174,0.0-8.89-0.89,1.0,207.0,,,,,,,[],,,,,,50.0,0.0,i,1.0,False,1022.4000000953674,62.0,59.0,40.0,False,,298.6786142025851,[],"[640, 360]",ColorTask,86.0,90.0,,,HRV,HRV_0288,2022-11-30 22:11:12
,wl-rdm,207,570540,0.0-8.90-0.90,1.0,208.0,,,,,,,[],,,,,,62.5,1.0,i,1.0,True,940.2000000476837,57.0,59.0,40.0,False,,335.6348166845115,[],"[640, 360]",ColorTask,87.0,91.0,,,HRV,HRV_0288,2022-11-30 22:11:12
,wl-rdm,208,572624,0.0-8.91-0.91,1.0,209.0,,,,,,,[],,,,,,87.9,0.0,u,0.0,True,770.2000002861023,47.0,59.0,40.0,False,,232.90908255774437,[],"[640, 360]",ColorTask,88.0,92.0,,,HRV,HRV_0288,2022-11-30 22:11:12
,wl-rdm,209,574907,0.0-8.92-0.92,1.0,210.0,,,,,,,[],,,,,,53.2,1.0,u,0.0,False,858.3999998569489,52.0,59.0,40.0,False,,340.47907010013944,[],"[640, 360]",ColorTask,87.0,93.0,,,HRV,HRV_0288,2022-11-30 22:11:12
,wl-rdm,210,578273,0.0-8.93-0.93,1.0,211.0,,,,,,,[],,,,,,56.4,1.0,i,1.0,True,1967.2000000476837,119.0,59.0,40.0,False,,300.84768953443455,[],"[640, 360]",ColorTask,88.0,94.0,,,HRV,HRV_0288,2022-11-30 22:11:12
,wl-rdm,211,580390,0.0-8.94-0.94,1.0,212.0,,,,,,,[],,,,,,87.9,0.0,u,0.0,True,687.5,42.0,59.0,40.0,False,,346.06546815533943,[],"[640, 360]",ColorTask,89.0,95.0,,,HRV,HRV_0288,2022-11-30 22:11:12
,wl-rdm,212,582608,0.0-8.95-0.95,1.0,213.0,,,,,,,[],,,,,,62.5,1.0,i,1.0,True,761.7000000476837,46.0,59.0,40.0,False,,367.76174633910136,[],"[640, 360]",ColorTask,90.0,96.0,,,HRV,HRV_0288,2022-11-30 22:11:12
,wl-rdm,213,585706,0.0-8.96-0.96,1.0,214.0,,,,,,,[],,,,,,62.5,0.0,u,0.0,True,1732.8999998569489,104.0,59.0,40.0,False,,302.3634996419968,[],"[640, 360]",ColorTask,91.0,97.0,,,HRV,HRV_0288,2022-11-30 22:11:12
,wl-rdm,214,587741,0.0-8.97-0.97,1.0,215.0,,,,,,,[],,,,,,87.9,1.0,i,1.0,True,681.0999999046326,41.0,59.0,40.0,False,,277.0215654312527,[],"[640, 360]",ColorTask,92.0,98.0,,,HRV,HRV_0288,2022-11-30 22:11:12
,wl-rdm,215,589907,0.0-8.98-0.98,1.0,216.0,,,,,,,[],,,,,,56.4,0.0,u,0.0,True,808.0999999046326,49.0,59.0,40.0,False,,272.5005241137831,[],"[640, 360]",ColorTask,93.0,99.0,,,HRV,HRV_0288,2022-11-30 22:11:12
,wl-rdm,216,591907,0.0-8.99-0.99,1.0,217.0,,,,,,,[],,,,,,56.4,0.0,u,0.0,True,714.9000000953674,43.0,59.0,40.0,False,,221.07168755227846,[],"[640, 360]",ColorTask,94.0,100.0,,,HRV,HRV_0288,2022-11-30 22:11:12
,wl-rdm,217,594157,0.0-8.100-0.100,1.0,218.0,,,,,,,[],,,,,,62.5,1.0,u,0.0,False,855.6999998092651,52.0,59.0,40.0,False,,311.64838801428016,[],"[640, 360]",ColorTask,93.0,101.0,,,HRV,HRV_0288,2022-11-30 22:11:12
,wl-rdm,218,596374,0.0-8.101-0.101,1.0,219.0,,,,,,,[],,,,,,73.6,0.0,u,0.0,True,938.1999998092651,57.0,59.0,40.0,False,,202.46924920315533,[],"[640, 360]",ColorTask,94.0,102.0,,,HRV,HRV_0288,2022-11-30 22:11:12
,wl-rdm,219,598657,0.0-8.102-0.102,1.0,220.0,,,,,,,[],,,,,,56.4,0.0,i,1.0,False,968.5,59.0,59.0,40.0,False,,249.32277158027063,[],"[640, 360]",ColorTask,93.0,103.0,,,HRV,HRV_0288,2022-11-30 22:11:12
,wl-rdm,220,600674,0.0-8.103-0.103,1.0,221.0,,,,,,,[],,,,,,87.9,0.0,u,0.0,True,708.2000000476837,43.0,59.0,40.0,False,,222.62397176395945,[],"[640, 360]",ColorTask,94.0,104.0,,,HRV,HRV_0288,2022-11-30 22:11:12
,wl-rdm,221,602990,0.0-8.104-0.104,1.0,222.0,,,,,,,[],,,,,,87.9,0.0,u,0.0,True,961.1000001430511,58.0,59.0,40.0,False,,291.1709995105622,[],"[640, 360]",ColorTask,95.0,105.0,,,HRV,HRV_0288,2022-11-30 22:11:12
,wl-rdm,222,606490,0.0-8.105-0.105,1.0,223.0,,,,,,,[],,,,,,50.0,1.0,i,1.0,True,2099.4999997615814,126.0,59.0,40.0,False,,321.6299372210573,[],"[640, 360]",ColorTask,96.0,106.0,,,HRV,HRV_0288,2022-11-30 22:11:12
,wl-rdm,223,609690,0.0-8.106-0.106,1.0,224.0,,,,,,,[],,,,,,56.4,0.0,i,1.0,False,1840.6999998092651,111.0,59.0,40.0,False,,294.5130208334335,[],"[640, 360]",ColorTask,95.0,107.0,,,HRV,HRV_0288,2022-11-30 22:11:12
,wl-rdm,224,611940,0.0-8.107-0.107,1.0,225.0,,,,,,,[],,,,,,56.4,1.0,i,1.0,True,905.5999999046326,55.0,59.0,40.0,False,,251.76732511707007,[],"[640, 360]",ColorTask,96.0,108.0,,,HRV,HRV_0288,2022-11-30 22:11:12
,wl-html-button-response,225,614516,0.0-9.0-0.0,,,,,,,,,,2571.5999999046326,,0,,,,,,,,,,,,,,,,,,,,<h3>End of this session. Thank you!</h3><br>,['Close window'],HRV,HRV_0288,2022-11-30 22:11:12
