trialN,stimuli,trialStartTime,trialStartTime_UNIX,stimulus1,stimulus2,stimulus1Bid,stimulus2Bid,delta,selected,rt,rt_UNIX,rt_perfnow,receivedResponse,rsp,trialEndTime,trialDuration,trialEndTime_UNIX,trialDuration_UNIX,exp,subjectId,date
0,"[{'imgObject': {}, 'id': 'burger', 'src': '/static/foodstim60/burger.jpg', 'key': 'u', 'origWidth': 409, 'origHeight': 409, 'width': 409, 'height': 409, 'widthPercent': 0.45, 'rescaleHeight': False, 'trialN': 0, 'loaded': True, 'loadedTime': 2814, 'positionName': 'LEFT', 'positionCoords': [205.4, 155.5], 'bid': 8.35}, {'imgObject': {}, 'id': 'bagel plain', 'src': '/static/foodstim60/bagel plain.jpg', 'key': 'i', 'origWidth': 410, 'origHeight': 410, 'width': 410, 'height': 410, 'widthPercent': 0.45, 'rescaleHeight': False, 'trialN': 0, 'loaded': True, 'loadedTime': 2815, 'positionName': 'RIGHT', 'positionCoords': [665.6, 155], 'bid': 1.28}]",2901,1669844386289,burger,bagel plain,8.35,1.28,-7.069999999999999,burger,1249,1267,1268,True,u,4671,1770,1669844388059,1770,HRV,HRV_0288,2022-11-30 21:46:15
1,"[{'imgObject': {}, 'id': 'raisin bran w milk', 'src': '/static/foodstim60/raisin bran w milk.jpg', 'key': 'u', 'origWidth': 411, 'origHeight': 411, 'width': 411, 'height': 411, 'widthPercent': 0.45, 'rescaleHeight': False, 'trialN': 1, 'loaded': True, 'loadedTime': 2818, 'positionName': 'LEFT', 'positionCoords': [203.4, 154.5], 'bid': 5.95}, {'imgObject': {}, 'id': 'lox', 'src': '/static/foodstim60/lox.jpg', 'key': 'i', 'origWidth': 410, 'origHeight': 411, 'width': 410, 'height': 411, 'widthPercent': 0.45, 'rescaleHeight': False, 'trialN': 1, 'loaded': True, 'loadedTime': 2820, 'positionName': 'RIGHT', 'positionCoords': [665.6, 154.5], 'bid': 0.18}]",4672,1669844388059,raisin bran w milk,lox,5.95,0.18,-5.7700000000000005,raisin bran w milk,1317,1320,1320,True,u,6501,1829,1669844389888,1829,HRV,HRV_0288,2022-11-30 21:46:15
2,"[{'imgObject': {}, 'id': 'chicken nuggets2', 'src': '/static/foodstim60/chicken nuggets2.jpg', 'key': 'u', 'origWidth': 410, 'origHeight': 409, 'width': 410, 'height': 409, 'widthPercent': 0.45, 'rescaleHeight': False, 'trialN': 2, 'loaded': True, 'loadedTime': 2820, 'positionName': 'LEFT', 'positionCoords': [204.4, 155.5], 'bid': 8.03}, {'imgObject': {}, 'id': 'orange slices', 'src': '/static/foodstim60/orange slices.jpg', 'key': 'i', 'origWidth': 409, 'origHeight': 410, 'width': 409, 'height': 410, 'widthPercent': 0.45, 'rescaleHeight': False, 'trialN': 2, 'loaded': True, 'loadedTime': 2822, 'positionName': 'RIGHT', 'positionCoords': [665.6, 155], 'bid': 7.92}]",6502,1669844389888,chicken nuggets2,orange slices,8.03,7.92,-0.10999999999999943,chicken nuggets2,1407,1412,1411,True,u,8421,1919,1669844391808,1920,HRV,HRV_0288,2022-11-30 21:46:15
3,"[{'imgObject': {}, 'id': 'Tribe humus pita', 'src': '/static/foodstim60/Tribe humus pita.jpg', 'key': 'u', 'origWidth': 411, 'origHeight': 411, 'width': 411, 'height': 411, 'widthPercent': 0.45, 'rescaleHeight': False, 'trialN': 3, 'loaded': True, 'loadedTime': 2824, 'positionName': 'LEFT', 'positionCoords': [203.4, 154.5], 'bid': 0.1}, {'imgObject': {}, 'id': 'sweetpotato', 'src': '/static/foodstim60/sweetpotato.jpg', 'key': 'i', 'origWidth': 410, 'origHeight': 410, 'width': 410, 'height': 410, 'widthPercent': 0.45, 'rescaleHeight': False, 'trialN': 3, 'loaded': True, 'loadedTime': 2827, 'positionName': 'RIGHT', 'positionCoords': [665.6, 155], 'bid': 7.32}]",8421,1669844391809,Tribe humus pita,sweetpotato,0.1,7.32,7.220000000000001,sweetpotato,1360,1363,1364,True,i,10292,1871,1669844393678,1869,HRV,HRV_0288,2022-11-30 21:46:15
4,"[{'imgObject': {}, 'id': 'burrito', 'src': '/static/foodstim60/burrito.jpg', 'key': 'u', 'origWidth': 410, 'origHeight': 410, 'width': 410, 'height': 410, 'widthPercent': 0.45, 'rescaleHeight': False, 'trialN': 4, 'loaded': True, 'loadedTime': 2828, 'positionName': 'LEFT', 'positionCoords': [204.4, 155], 'bid': 9.5}, {'imgObject': {}, 'id': 'cantaloupe', 'src': '/static/foodstim60/cantaloupe.jpg', 'key': 'i', 'origWidth': 409, 'origHeight': 409, 'width': 409, 'height': 409, 'widthPercent': 0.45, 'rescaleHeight': False, 'trialN': 4, 'loaded': True, 'loadedTime': 2830, 'positionName': 'RIGHT', 'positionCoords': [665.6, 155.5], 'bid': 9.37}]",10292,1669844393678,burrito,cantaloupe,9.5,9.37,-0.13000000000000078,burrito,1767,1774,1772,True,u,12571,2279,1669844395958,2280,HRV,HRV_0288,2022-11-30 21:46:15
5,"[{'imgObject': {}, 'id': 'Grapes', 'src': '/static/foodstim60/Grapes.jpg', 'key': 'u', 'origWidth': 411, 'origHeight': 411, 'width': 411, 'height': 411, 'widthPercent': 0.45, 'rescaleHeight': False, 'trialN': 5, 'loaded': True, 'loadedTime': 2831, 'positionName': 'LEFT', 'positionCoords': [203.4, 154.5], 'bid': 7.82}, {'imgObject': {}, 'id': 'mac & cheese', 'src': '/static/foodstim60/mac & cheese.jpg', 'key': 'i', 'origWidth': 410, 'origHeight': 410, 'width': 410, 'height': 410, 'widthPercent': 0.45, 'rescaleHeight': False, 'trialN': 5, 'loaded': True, 'loadedTime': 2832, 'positionName': 'RIGHT', 'positionCoords': [665.6, 155], 'bid': 7.140000000000001}]",12572,1669844395959,Grapes,mac & cheese,7.82,7.140000000000001,-0.6799999999999997,Grapes,1889,1909,1909,True,u,14981,2409,1669844398368,2409,HRV,HRV_0288,2022-11-30 21:46:15
6,"[{'imgObject': {}, 'id': 'luckycharms', 'src': '/static/foodstim60/luckycharms.jpg', 'key': 'u', 'origWidth': 410, 'origHeight': 409, 'width': 410, 'height': 409, 'widthPercent': 0.45, 'rescaleHeight': False, 'trialN': 6, 'loaded': True, 'loadedTime': 2834, 'positionName': 'LEFT', 'positionCoords': [204.4, 155.5], 'bid': 4.2}, {'imgObject': {}, 'id': 'turkey sandwich', 'src': '/static/foodstim60/turkey sandwich.jpg', 'key': 'i', 'origWidth': 409, 'origHeight': 409, 'width': 409, 'height': 409, 'widthPercent': 0.45, 'rescaleHeight': False, 'trialN': 6, 'loaded': True, 'loadedTime': 2835, 'positionName': 'RIGHT', 'positionCoords': [665.6, 155.5], 'bid': 8.67}]",14982,1669844398369,luckycharms,turkey sandwich,4.2,8.67,4.47,turkey sandwich,1179,1194,1195,True,i,16684,1702,1669844400072,1703,HRV,HRV_0288,2022-11-30 21:46:15
7,"[{'imgObject': {}, 'id': 'granola w milk', 'src': '/static/foodstim60/granola w milk.jpg', 'key': 'u', 'origWidth': 410, 'origHeight': 410, 'width': 410, 'height': 410, 'widthPercent': 0.45, 'rescaleHeight': False, 'trialN': 7, 'loaded': True, 'loadedTime': 2837, 'positionName': 'LEFT', 'positionCoords': [204.4, 155], 'bid': 5.98}, {'imgObject': {}, 'id': 'banana', 'src': '/static/foodstim60/banana.jpg', 'key': 'i', 'origWidth': 410, 'origHeight': 410, 'width': 410, 'height': 410, 'widthPercent': 0.45, 'rescaleHeight': False, 'trialN': 7, 'loaded': True, 'loadedTime': 2838, 'positionName': 'RIGHT', 'positionCoords': [665.6, 155], 'bid': 6.09}]",16685,1669844400072,granola w milk,banana,5.98,6.09,0.10999999999999943,granola w milk,1270,1283,1284,True,u,18474,1789,1669844401862,1790,HRV,HRV_0288,2022-11-30 21:46:15
8,"[{'imgObject': {}, 'id': 'ice cream sundae 002', 'src': '/static/foodstim60/ice cream sundae 002.jpg', 'key': 'u', 'origWidth': 409, 'origHeight': 409, 'width': 409, 'height': 409, 'widthPercent': 0.45, 'rescaleHeight': False, 'trialN': 8, 'loaded': True, 'loadedTime': 2839, 'positionName': 'LEFT', 'positionCoords': [205.4, 155.5], 'bid': 9.64}, {'imgObject': {}, 'id': 'burger', 'src': '/static/foodstim60/burger.jpg', 'key': 'i', 'origWidth': 409, 'origHeight': 409, 'width': 409, 'height': 409, 'widthPercent': 0.45, 'rescaleHeight': False, 'trialN': 8, 'loaded': True, 'loadedTime': 2815, 'positionName': 'RIGHT', 'positionCoords': [665.6, 155.5], 'bid': 8.35}]",18474,1669844401862,ice cream sundae 002,burger,9.64,8.35,-1.290000000000001,ice cream sundae 002,1510,1525,1526,True,u,20504,2030,1669844403891,2029,HRV,HRV_0288,2022-11-30 21:46:15
9,"[{'imgObject': {}, 'id': 'luckycharms', 'src': '/static/foodstim60/luckycharms.jpg', 'key': 'u', 'origWidth': 410, 'origHeight': 409, 'width': 410, 'height': 409, 'widthPercent': 0.45, 'rescaleHeight': False, 'trialN': 9, 'loaded': True, 'loadedTime': 2835, 'positionName': 'LEFT', 'positionCoords': [204.4, 155.5], 'bid': 4.2}, {'imgObject': {}, 'id': 'blackbeanswithrice', 'src': '/static/foodstim60/blackbeanswithrice.jpg', 'key': 'i', 'origWidth': 410, 'origHeight': 410, 'width': 410, 'height': 410, 'widthPercent': 0.45, 'rescaleHeight': False, 'trialN': 9, 'loaded': True, 'loadedTime': 2840, 'positionName': 'RIGHT', 'positionCoords': [665.6, 155], 'bid': 0.21}]",20505,1669844403891,luckycharms,blackbeanswithrice,4.2,0.21,-3.99,luckycharms,1507,1513,1511,True,u,22524,2019,1669844405912,2021,HRV,HRV_0288,2022-11-30 21:46:15
10,"[{'imgObject': {}, 'id': 'Grapes', 'src': '/static/foodstim60/Grapes.jpg', 'key': 'u', 'origWidth': 411, 'origHeight': 411, 'width': 411, 'height': 411, 'widthPercent': 0.45, 'rescaleHeight': False, 'trialN': 10, 'loaded': True, 'loadedTime': 2832, 'positionName': 'LEFT', 'positionCoords': [203.4, 154.5], 'bid': 7.82}, {'imgObject': {}, 'id': 'cherries', 'src': '/static/foodstim60/cherries.jpg', 'key': 'i', 'origWidth': 410, 'origHeight': 411, 'width': 410, 'height': 411, 'widthPercent': 0.45, 'rescaleHeight': False, 'trialN': 10, 'loaded': True, 'loadedTime': 2842, 'positionName': 'RIGHT', 'positionCoords': [665.6, 154.5], 'bid': 8.540000000000001}]",22524,1669844405912,Grapes,cherries,7.82,8.540000000000001,0.7200000000000006,cherries,1187,1203,1204,True,i,24229,1705,1669844407616,1704,HRV,HRV_0288,2022-11-30 21:46:15
11,"[{'imgObject': {}, 'id': 'eggsalad', 'src': '/static/foodstim60/eggsalad.jpg', 'key': 'u', 'origWidth': 410, 'origHeight': 409, 'width': 410, 'height': 409, 'widthPercent': 0.45, 'rescaleHeight': False, 'trialN': 11, 'loaded': True, 'loadedTime': 2843, 'positionName': 'LEFT', 'positionCoords': [204.4, 155.5], 'bid': 0.96}, {'imgObject': {}, 'id': 'froot loops w milk', 'src': '/static/foodstim60/froot loops w milk.jpg', 'key': 'i', 'origWidth': 410, 'origHeight': 410, 'width': 410, 'height': 410, 'widthPercent': 0.45, 'rescaleHeight': False, 'trialN': 11, 'loaded': True, 'loadedTime': 2845, 'positionName': 'RIGHT', 'positionCoords': [665.6, 155], 'bid': 6.23}]",24230,1669844407616,eggsalad,froot loops w milk,0.96,6.23,5.2700000000000005,froot loops w milk,1760,1779,1779,True,i,26515,2285,1669844409901,2285,HRV,HRV_0288,2022-11-30 21:46:15
12,"[{'imgObject': {}, 'id': 'tacos', 'src': '/static/foodstim60/tacos.jpg', 'key': 'u', 'origWidth': 411, 'origHeight': 411, 'width': 411, 'height': 411, 'widthPercent': 0.45, 'rescaleHeight': False, 'trialN': 12, 'loaded': True, 'loadedTime': 2846, 'positionName': 'LEFT', 'positionCoords': [203.4, 154.5], 'bid': 9.23}, {'imgObject': {}, 'id': 'pear', 'src': '/static/foodstim60/pear.jpg', 'key': 'i', 'origWidth': 411, 'origHeight': 410, 'width': 411, 'height': 410, 'widthPercent': 0.45, 'rescaleHeight': False, 'trialN': 12, 'loaded': True, 'loadedTime': 2847, 'positionName': 'RIGHT', 'positionCoords': [665.6, 155], 'bid': 7.79}]",26515,1669844409902,tacos,pear,9.23,7.79,-1.4400000000000004,tacos,1019,1070,1029,True,u,28055,1540,1669844411473,1571,HRV,HRV_0288,2022-11-30 21:46:15
13,"[{'imgObject': {}, 'id': 'mac & cheese', 'src': '/static/foodstim60/mac & cheese.jpg', 'key': 'u', 'origWidth': 410, 'origHeight': 410, 'width': 410, 'height': 410, 'widthPercent': 0.45, 'rescaleHeight': False, 'trialN': 13, 'loaded': True, 'loadedTime': 2834, 'positionName': 'LEFT', 'positionCoords': [204.4, 155], 'bid': 7.140000000000001}, {'imgObject': {}, 'id': 'apple slices', 'src': '/static/foodstim60/apple slices.jpg', 'key': 'i', 'origWidth': 409, 'origHeight': 410, 'width': 409, 'height': 410, 'widthPercent': 0.45, 'rescaleHeight': False, 'trialN': 13, 'loaded': True, 'loadedTime': 2849, 'positionName': 'RIGHT', 'positionCoords': [665.6, 155], 'bid': 7.26}]",28055,1669844411473,mac & cheese,apple slices,7.140000000000001,7.26,0.11999999999999922,apple slices,2083,2097,2097,True,i,30653,2598,1669844414073,2600,HRV,HRV_0288,2022-11-30 21:46:15
14,"[{'imgObject': {}, 'id': 'yogurt no spoon', 'src': '/static/foodstim60/yogurt no spoon.jpg', 'key': 'u', 'origWidth': 411, 'origHeight': 410, 'width': 411, 'height': 410, 'widthPercent': 0.45, 'rescaleHeight': False, 'trialN': 14, 'loaded': True, 'loadedTime': 2851, 'positionName': 'LEFT', 'positionCoords': [203.4, 155], 'bid': 9.26}, {'imgObject': {}, 'id': 'Grapes', 'src': '/static/foodstim60/Grapes.jpg', 'key': 'i', 'origWidth': 411, 'origHeight': 411, 'width': 411, 'height': 411, 'widthPercent': 0.45, 'rescaleHeight': False, 'trialN': 14, 'loaded': True, 'loadedTime': 2832, 'positionName': 'RIGHT', 'positionCoords': [665.6, 154.5], 'bid': 7.82}]",30653,1669844414073,yogurt no spoon,Grapes,9.26,7.82,-1.4399999999999995,yogurt no spoon,1872,1889,1891,True,u,33045,2392,1669844416463,2390,HRV,HRV_0288,2022-11-30 21:46:15
15,"[{'imgObject': {}, 'id': 'tacos', 'src': '/static/foodstim60/tacos.jpg', 'key': 'u', 'origWidth': 411, 'origHeight': 411, 'width': 411, 'height': 411, 'widthPercent': 0.45, 'rescaleHeight': False, 'trialN': 15, 'loaded': True, 'loadedTime': 2847, 'positionName': 'LEFT', 'positionCoords': [203.4, 154.5], 'bid': 9.23}, {'imgObject': {}, 'id': 'chickenfingers', 'src': '/static/foodstim60/chickenfingers.jpg', 'key': 'i', 'origWidth': 410, 'origHeight': 410, 'width': 410, 'height': 410, 'widthPercent': 0.45, 'rescaleHeight': False, 'trialN': 15, 'loaded': True, 'loadedTime': 2852, 'positionName': 'RIGHT', 'positionCoords': [665.6, 155], 'bid': 9.35}]",33045,1669844416463,tacos,chickenfingers,9.23,9.35,0.11999999999999922,tacos,2180,2187,2187,True,u,35735,2690,1669844419153,2690,HRV,HRV_0288,2022-11-30 21:46:15
16,"[{'imgObject': {}, 'id': 'roastedpotatoes', 'src': '/static/foodstim60/roastedpotatoes.jpg', 'key': 'u', 'origWidth': 409, 'origHeight': 410, 'width': 409, 'height': 410, 'widthPercent': 0.45, 'rescaleHeight': False, 'trialN': 16, 'loaded': True, 'loadedTime': 2853, 'positionName': 'LEFT', 'positionCoords': [205.4, 155], 'bid': 9.2}, {'imgObject': {}, 'id': 'granola w milk', 'src': '/static/foodstim60/granola w milk.jpg', 'key': 'i', 'origWidth': 410, 'origHeight': 410, 'width': 410, 'height': 410, 'widthPercent': 0.45, 'rescaleHeight': False, 'trialN': 16, 'loaded': True, 'loadedTime': 2838, 'positionName': 'RIGHT', 'positionCoords': [665.6, 155], 'bid': 5.98}]",35735,1669844419154,roastedpotatoes,granola w milk,9.2,5.98,-3.219999999999999,roastedpotatoes,1409,1424,1425,True,u,37665,1930,1669844421083,1929,HRV,HRV_0288,2022-11-30 21:46:15
17,"[{'imgObject': {}, 'id': 'pear', 'src': '/static/foodstim60/pear.jpg', 'key': 'u', 'origWidth': 411, 'origHeight': 410, 'width': 411, 'height': 410, 'widthPercent': 0.45, 'rescaleHeight': False, 'trialN': 17, 'loaded': True, 'loadedTime': 2849, 'positionName': 'LEFT', 'positionCoords': [203.4, 155], 'bid': 7.79}, {'imgObject': {}, 'id': 'avocado', 'src': '/static/foodstim60/avocado.jpg', 'key': 'i', 'origWidth': 409, 'origHeight': 409, 'width': 409, 'height': 409, 'widthPercent': 0.45, 'rescaleHeight': False, 'trialN': 17, 'loaded': True, 'loadedTime': 2855, 'positionName': 'RIGHT', 'positionCoords': [665.6, 155.5], 'bid': 0.28}]",37665,1669844421083,pear,avocado,7.79,0.28,-7.51,pear,1413,1423,1423,True,u,39594,1929,1669844423013,1930,HRV,HRV_0288,2022-11-30 21:46:15
18,"[{'imgObject': {}, 'id': 'hashbrowns', 'src': '/static/foodstim60/hashbrowns.jpg', 'key': 'u', 'origWidth': 411, 'origHeight': 410, 'width': 411, 'height': 410, 'widthPercent': 0.45, 'rescaleHeight': False, 'trialN': 18, 'loaded': True, 'loadedTime': 2856, 'positionName': 'LEFT', 'positionCoords': [203.4, 155], 'bid': 1.25}, {'imgObject': {}, 'id': 'shreddedwheatwithmilk', 'src': '/static/foodstim60/shreddedwheatwithmilk.jpg', 'key': 'i', 'origWidth': 410, 'origHeight': 410, 'width': 410, 'height': 410, 'widthPercent': 0.45, 'rescaleHeight': False, 'trialN': 18, 'loaded': True, 'loadedTime': 2857, 'positionName': 'RIGHT', 'positionCoords': [665.6, 155], 'bid': 1.45}]",39595,1669844423014,hashbrowns,shreddedwheatwithmilk,1.25,1.45,0.19999999999999996,shreddedwheatwithmilk,1853,1868,1869,True,i,41965,2370,1669844425383,2369,HRV,HRV_0288,2022-11-30 21:46:15
19,"[{'imgObject': {}, 'id': 'baked potato', 'src': '/static/foodstim60/baked potato.jpg', 'key': 'u', 'origWidth': 409, 'origHeight': 410, 'width': 409, 'height': 410, 'widthPercent': 0.45, 'rescaleHeight': False, 'trialN': 19, 'loaded': True, 'loadedTime': 2859, 'positionName': 'LEFT', 'positionCoords': [205.4, 155], 'bid': 7.31}, {'imgObject': {}, 'id': 'seaweed', 'src': '/static/foodstim60/seaweed.jpg', 'key': 'i', 'origWidth': 410, 'origHeight': 410, 'width': 410, 'height': 410, 'widthPercent': 0.45, 'rescaleHeight': False, 'trialN': 19, 'loaded': True, 'loadedTime': 2860, 'positionName': 'RIGHT', 'positionCoords': [665.6, 155], 'bid': 6.8100000000000005}]",41965,1669844425384,baked potato,seaweed,7.31,6.8100000000000005,-0.4999999999999991,seaweed,2339,2354,2355,True,i,44824,2859,1669844428243,2859,HRV,HRV_0288,2022-11-30 21:46:15
20,"[{'imgObject': {}, 'id': 'kiwi', 'src': '/static/foodstim60/kiwi.jpg', 'key': 'u', 'origWidth': 410, 'origHeight': 410, 'width': 410, 'height': 410, 'widthPercent': 0.45, 'rescaleHeight': False, 'trialN': 20, 'loaded': True, 'loadedTime': 2861, 'positionName': 'LEFT', 'positionCoords': [204.4, 155], 'bid': 6.12}, {'imgObject': {}, 'id': 'raspberries', 'src': '/static/foodstim60/raspberries.jpg', 'key': 'i', 'origWidth': 411, 'origHeight': 411, 'width': 411, 'height': 411, 'widthPercent': 0.45, 'rescaleHeight': False, 'trialN': 20, 'loaded': True, 'loadedTime': 2864, 'positionName': 'RIGHT', 'positionCoords': [665.6, 154.5], 'bid': 7.32}]",44824,1669844428243,kiwi,raspberries,6.12,7.32,1.2000000000000002,raspberries,2163,2175,2176,True,i,47504,2680,1669844430923,2680,HRV,HRV_0288,2022-11-30 21:46:15
21,"[{'imgObject': {}, 'id': 'ice cream sundae 002', 'src': '/static/foodstim60/ice cream sundae 002.jpg', 'key': 'u', 'origWidth': 409, 'origHeight': 409, 'width': 409, 'height': 409, 'widthPercent': 0.45, 'rescaleHeight': False, 'trialN': 21, 'loaded': True, 'loadedTime': 2840, 'positionName': 'LEFT', 'positionCoords': [205.4, 155.5], 'bid': 9.64}, {'imgObject': {}, 'id': 'grilled chicken strips', 'src': '/static/foodstim60/grilled chicken strips.jpg', 'key': 'i', 'origWidth': 410, 'origHeight': 411, 'width': 410, 'height': 411, 'widthPercent': 0.45, 'rescaleHeight': False, 'trialN': 21, 'loaded': True, 'loadedTime': 2865, 'positionName': 'RIGHT', 'positionCoords': [665.6, 154.5], 'bid': 8.85}]",47505,1669844430923,ice cream sundae 002,grilled chicken strips,9.64,8.85,-0.7900000000000009,ice cream sundae 002,1854,1871,1871,True,u,49884,2379,1669844433303,2380,HRV,HRV_0288,2022-11-30 21:46:15
22,"[{'imgObject': {}, 'id': 'bagel plain', 'src': '/static/foodstim60/bagel plain.jpg', 'key': 'u', 'origWidth': 410, 'origHeight': 410, 'width': 410, 'height': 410, 'widthPercent': 0.45, 'rescaleHeight': False, 'trialN': 22, 'loaded': True, 'loadedTime': 2817, 'positionName': 'LEFT', 'positionCoords': [204.4, 155], 'bid': 1.28}, {'imgObject': {}, 'id': 'eggs', 'src': '/static/foodstim60/eggs.jpg', 'key': 'i', 'origWidth': 409, 'origHeight': 409, 'width': 409, 'height': 409, 'widthPercent': 0.45, 'rescaleHeight': False, 'trialN': 22, 'loaded': True, 'loadedTime': 2866, 'positionName': 'RIGHT', 'positionCoords': [665.6, 155.5], 'bid': 3.93}]",49884,1669844433303,bagel plain,eggs,1.28,3.93,2.6500000000000004,eggs,1924,1939,1940,True,i,52324,2440,1669844435742,2439,HRV,HRV_0288,2022-11-30 21:46:15
23,"[{'imgObject': {}, 'id': 'cherries', 'src': '/static/foodstim60/cherries.jpg', 'key': 'u', 'origWidth': 410, 'origHeight': 411, 'width': 410, 'height': 411, 'widthPercent': 0.45, 'rescaleHeight': False, 'trialN': 23, 'loaded': True, 'loadedTime': 2843, 'positionName': 'LEFT', 'positionCoords': [204.4, 154.5], 'bid': 8.540000000000001}, {'imgObject': {}, 'id': 'turkeysandwich', 'src': '/static/foodstim60/turkeysandwich.jpg', 'key': 'i', 'origWidth': 409, 'origHeight': 409, 'width': 409, 'height': 409, 'widthPercent': 0.45, 'rescaleHeight': False, 'trialN': 23, 'loaded': True, 'loadedTime': 2867, 'positionName': 'RIGHT', 'positionCoords': [665.6, 155.5], 'bid': 8.5}]",52325,1669844435743,cherries,turkeysandwich,8.540000000000001,8.5,-0.040000000000000924,cherries,1714,1730,1731,True,u,54565,2240,1669844437983,2240,HRV,HRV_0288,2022-11-30 21:46:15
24,"[{'imgObject': {}, 'id': 'burger', 'src': '/static/foodstim60/burger.jpg', 'key': 'u', 'origWidth': 409, 'origHeight': 409, 'width': 409, 'height': 409, 'widthPercent': 0.45, 'rescaleHeight': False, 'trialN': 24, 'loaded': True, 'loadedTime': 2815, 'positionName': 'LEFT', 'positionCoords': [205.4, 155.5], 'bid': 8.35}, {'imgObject': {}, 'id': 'tacos', 'src': '/static/foodstim60/tacos.jpg', 'key': 'i', 'origWidth': 411, 'origHeight': 411, 'width': 411, 'height': 411, 'widthPercent': 0.45, 'rescaleHeight': False, 'trialN': 24, 'loaded': True, 'loadedTime': 2847, 'positionName': 'RIGHT', 'positionCoords': [665.6, 154.5], 'bid': 9.23}]",54565,1669844437983,burger,tacos,8.35,9.23,0.8800000000000008,tacos,1283,1299,1298,True,i,56365,1800,1669844439783,1800,HRV,HRV_0288,2022-11-30 21:46:15
25,"[{'imgObject': {}, 'id': 'grilled chicken strips', 'src': '/static/foodstim60/grilled chicken strips.jpg', 'key': 'u', 'origWidth': 410, 'origHeight': 411, 'width': 410, 'height': 411, 'widthPercent': 0.45, 'rescaleHeight': False, 'trialN': 25, 'loaded': True, 'loadedTime': 2866, 'positionName': 'LEFT', 'positionCoords': [204.4, 154.5], 'bid': 8.85}, {'imgObject': {}, 'id': 'sweetpotato', 'src': '/static/foodstim60/sweetpotato.jpg', 'key': 'i', 'origWidth': 410, 'origHeight': 410, 'width': 410, 'height': 410, 'widthPercent': 0.45, 'rescaleHeight': False, 'trialN': 25, 'loaded': True, 'loadedTime': 2828, 'positionName': 'RIGHT', 'positionCoords': [665.6, 155], 'bid': 7.32}]",56365,1669844439783,grilled chicken strips,sweetpotato,8.85,7.32,-1.5299999999999994,grilled chicken strips,980,994,994,True,u,57864,1499,1669844441282,1499,HRV,HRV_0288,2022-11-30 21:46:15
26,"[{'imgObject': {}, 'id': 'Tribe humus pita', 'src': '/static/foodstim60/Tribe humus pita.jpg', 'key': 'u', 'origWidth': 411, 'origHeight': 411, 'width': 411, 'height': 411, 'widthPercent': 0.45, 'rescaleHeight': False, 'trialN': 26, 'loaded': True, 'loadedTime': 2827, 'positionName': 'LEFT', 'positionCoords': [203.4, 154.5], 'bid': 0.1}, {'imgObject': {}, 'id': 'rigatoni', 'src': '/static/foodstim60/rigatoni.jpg', 'key': 'i', 'origWidth': 411, 'origHeight': 411, 'width': 411, 'height': 411, 'widthPercent': 0.45, 'rescaleHeight': False, 'trialN': 26, 'loaded': True, 'loadedTime': 2869, 'positionName': 'RIGHT', 'positionCoords': [665.6, 154.5], 'bid': 0.07}]",57864,1669844441282,Tribe humus pita,rigatoni,0.1,0.07,-0.03,rigatoni,1728,1736,1735,True,i,60105,2241,1669844443522,2240,HRV,HRV_0288,2022-11-30 21:46:15
27,"[{'imgObject': {}, 'id': 'edamame', 'src': '/static/foodstim60/edamame.jpg', 'key': 'u', 'origWidth': 409, 'origHeight': 410, 'width': 409, 'height': 410, 'widthPercent': 0.45, 'rescaleHeight': False, 'trialN': 27, 'loaded': True, 'loadedTime': 2871, 'positionName': 'LEFT', 'positionCoords': [205.4, 155], 'bid': 1.2}, {'imgObject': {}, 'id': 'olives', 'src': '/static/foodstim60/olives.jpg', 'key': 'i', 'origWidth': 410, 'origHeight': 410, 'width': 410, 'height': 410, 'widthPercent': 0.45, 'rescaleHeight': False, 'trialN': 27, 'loaded': True, 'loadedTime': 2873, 'positionName': 'RIGHT', 'positionCoords': [665.6, 155], 'bid': 0.4}]",60105,1669844443523,edamame,olives,1.2,0.4,-0.7999999999999999,edamame,1391,1406,1406,True,u,62017,1912,1669844445436,1913,HRV,HRV_0288,2022-11-30 21:46:15
28,"[{'imgObject': {}, 'id': 'edamame', 'src': '/static/foodstim60/edamame.jpg', 'key': 'u', 'origWidth': 409, 'origHeight': 410, 'width': 409, 'height': 410, 'widthPercent': 0.45, 'rescaleHeight': False, 'trialN': 28, 'loaded': True, 'loadedTime': 2873, 'positionName': 'LEFT', 'positionCoords': [205.4, 155], 'bid': 1.2}, {'imgObject': {}, 'id': 'sushi w_condiments', 'src': '/static/foodstim60/sushi w_condiments.jpg', 'key': 'i', 'origWidth': 410, 'origHeight': 410, 'width': 410, 'height': 410, 'widthPercent': 0.45, 'rescaleHeight': False, 'trialN': 28, 'loaded': True, 'loadedTime': 2874, 'positionName': 'RIGHT', 'positionCoords': [665.6, 155], 'bid': 0.07}]",62017,1669844445436,edamame,sushi w_condiments,1.2,0.07,-1.13,edamame,1132,1150,1151,True,u,63677,1660,1669844447096,1660,HRV,HRV_0288,2022-11-30 21:46:15
29,"[{'imgObject': {}, 'id': 'sweetpotato', 'src': '/static/foodstim60/sweetpotato.jpg', 'key': 'u', 'origWidth': 410, 'origHeight': 410, 'width': 410, 'height': 410, 'widthPercent': 0.45, 'rescaleHeight': False, 'trialN': 29, 'loaded': True, 'loadedTime': 2828, 'positionName': 'LEFT', 'positionCoords': [204.4, 155], 'bid': 7.32}, {'imgObject': {}, 'id': 'baked potato', 'src': '/static/foodstim60/baked potato.jpg', 'key': 'i', 'origWidth': 409, 'origHeight': 410, 'width': 409, 'height': 410, 'widthPercent': 0.45, 'rescaleHeight': False, 'trialN': 29, 'loaded': True, 'loadedTime': 2860, 'positionName': 'RIGHT', 'positionCoords': [665.6, 155], 'bid': 7.31}]",63678,1669844447096,sweetpotato,baked potato,7.32,7.31,-0.010000000000000675,sweetpotato,1218,1234,1233,True,u,65417,1739,1669844448836,1740,HRV,HRV_0288,2022-11-30 21:46:15
30,"[{'imgObject': {}, 'id': 'strawberries', 'src': '/static/foodstim60/strawberries.jpg', 'key': 'u', 'origWidth': 410, 'origHeight': 410, 'width': 410, 'height': 410, 'widthPercent': 0.45, 'rescaleHeight': False, 'trialN': 30, 'loaded': True, 'loadedTime': 2876, 'positionName': 'LEFT', 'positionCoords': [204.4, 155], 'bid': 6.93}, {'imgObject': {}, 'id': 'seaweed', 'src': '/static/foodstim60/seaweed.jpg', 'key': 'i', 'origWidth': 410, 'origHeight': 410, 'width': 410, 'height': 410, 'widthPercent': 0.45, 'rescaleHeight': False, 'trialN': 30, 'loaded': True, 'loadedTime': 2861, 'positionName': 'RIGHT', 'positionCoords': [665.6, 155], 'bid': 6.8100000000000005}]",65417,1669844448836,strawberries,seaweed,6.93,6.8100000000000005,-0.11999999999999922,strawberries,2037,2053,2054,True,u,67977,2560,1669844451396,2560,HRV,HRV_0288,2022-11-30 21:46:15
31,"[{'imgObject': {}, 'id': 'raspberries', 'src': '/static/foodstim60/raspberries.jpg', 'key': 'u', 'origWidth': 411, 'origHeight': 411, 'width': 411, 'height': 411, 'widthPercent': 0.45, 'rescaleHeight': False, 'trialN': 31, 'loaded': True, 'loadedTime': 2865, 'positionName': 'LEFT', 'positionCoords': [203.4, 154.5], 'bid': 7.32}, {'imgObject': {}, 'id': 'bagel and cc', 'src': '/static/foodstim60/bagel and cc.jpg', 'key': 'i', 'origWidth': 410, 'origHeight': 410, 'width': 410, 'height': 410, 'widthPercent': 0.45, 'rescaleHeight': False, 'trialN': 31, 'loaded': True, 'loadedTime': 2877, 'positionName': 'RIGHT', 'positionCoords': [665.6, 155], 'bid': 6.98}]",67977,1669844451396,raspberries,bagel and cc,7.32,6.98,-0.33999999999999986,raspberries,1099,1118,1118,True,u,69597,1620,1669844453016,1620,HRV,HRV_0288,2022-11-30 21:46:15
32,"[{'imgObject': {}, 'id': 'corn cob', 'src': '/static/foodstim60/corn cob.jpg', 'key': 'u', 'origWidth': 411, 'origHeight': 411, 'width': 411, 'height': 411, 'widthPercent': 0.45, 'rescaleHeight': False, 'trialN': 32, 'loaded': True, 'loadedTime': 2879, 'positionName': 'LEFT', 'positionCoords': [203.4, 154.5], 'bid': 7.76}, {'imgObject': {}, 'id': 'Grapes', 'src': '/static/foodstim60/Grapes.jpg', 'key': 'i', 'origWidth': 411, 'origHeight': 411, 'width': 411, 'height': 411, 'widthPercent': 0.45, 'rescaleHeight': False, 'trialN': 32, 'loaded': True, 'loadedTime': 2832, 'positionName': 'RIGHT', 'positionCoords': [665.6, 154.5], 'bid': 7.82}]",69597,1669844453016,corn cob,Grapes,7.76,7.82,0.0600000000000005,Grapes,2522,2537,2538,True,i,72637,3040,1669844456055,3039,HRV,HRV_0288,2022-11-30 21:46:15
33,"[{'imgObject': {}, 'id': 'salmon', 'src': '/static/foodstim60/salmon.jpg', 'key': 'u', 'origWidth': 410, 'origHeight': 409, 'width': 410, 'height': 409, 'widthPercent': 0.45, 'rescaleHeight': False, 'trialN': 33, 'loaded': True, 'loadedTime': 2880, 'positionName': 'LEFT', 'positionCoords': [204.4, 155.5], 'bid': 7.25}, {'imgObject': {}, 'id': 'apple slices', 'src': '/static/foodstim60/apple slices.jpg', 'key': 'i', 'origWidth': 409, 'origHeight': 410, 'width': 409, 'height': 410, 'widthPercent': 0.45, 'rescaleHeight': False, 'trialN': 33, 'loaded': True, 'loadedTime': 2850, 'positionName': 'RIGHT', 'positionCoords': [665.6, 155], 'bid': 7.26}]",72637,1669844456055,salmon,apple slices,7.25,7.26,0.009999999999999787,apple slices,1401,1402,1402,True,i,74547,1910,1669844457966,1911,HRV,HRV_0288,2022-11-30 21:46:15
34,"[{'imgObject': {}, 'id': 'luckycharms', 'src': '/static/foodstim60/luckycharms.jpg', 'key': 'u', 'origWidth': 410, 'origHeight': 409, 'width': 410, 'height': 409, 'widthPercent': 0.45, 'rescaleHeight': False, 'trialN': 34, 'loaded': True, 'loadedTime': 2835, 'positionName': 'LEFT', 'positionCoords': [204.4, 155.5], 'bid': 4.2}, {'imgObject': {}, 'id': 'rigatoni and sauce', 'src': '/static/foodstim60/rigatoni and sauce.jpg', 'key': 'i', 'origWidth': 410, 'origHeight': 411, 'width': 410, 'height': 411, 'widthPercent': 0.45, 'rescaleHeight': False, 'trialN': 34, 'loaded': True, 'loadedTime': 2881, 'positionName': 'RIGHT', 'positionCoords': [665.6, 154.5], 'bid': 4.98}]",74547,1669844457966,luckycharms,rigatoni and sauce,4.2,4.98,0.7800000000000002,luckycharms,1207,1211,1211,True,u,76265,1718,1669844459684,1718,HRV,HRV_0288,2022-11-30 21:46:15
35,"[{'imgObject': {}, 'id': 'yogurt no spoon', 'src': '/static/foodstim60/yogurt no spoon.jpg', 'key': 'u', 'origWidth': 411, 'origHeight': 410, 'width': 411, 'height': 410, 'widthPercent': 0.45, 'rescaleHeight': False, 'trialN': 35, 'loaded': True, 'loadedTime': 2851, 'positionName': 'LEFT', 'positionCoords': [203.4, 155], 'bid': 9.26}, {'imgObject': {}, 'id': 'grilled chicken strips', 'src': '/static/foodstim60/grilled chicken strips.jpg', 'key': 'i', 'origWidth': 410, 'origHeight': 411, 'width': 410, 'height': 411, 'widthPercent': 0.45, 'rescaleHeight': False, 'trialN': 35, 'loaded': True, 'loadedTime': 2866, 'positionName': 'RIGHT', 'positionCoords': [665.6, 154.5], 'bid': 8.85}]",76265,1669844459684,yogurt no spoon,grilled chicken strips,9.26,8.85,-0.41000000000000014,grilled chicken strips,2499,2510,2510,True,i,79278,3013,1669844462697,3013,HRV,HRV_0288,2022-11-30 21:46:15
36,"[{'imgObject': {}, 'id': 'granola w milk', 'src': '/static/foodstim60/granola w milk.jpg', 'key': 'u', 'origWidth': 410, 'origHeight': 410, 'width': 410, 'height': 410, 'widthPercent': 0.45, 'rescaleHeight': False, 'trialN': 36, 'loaded': True, 'loadedTime': 2838, 'positionName': 'LEFT', 'positionCoords': [204.4, 155], 'bid': 5.98}, {'imgObject': {}, 'id': 'raisin bran w milk', 'src': '/static/foodstim60/raisin bran w milk.jpg', 'key': 'i', 'origWidth': 411, 'origHeight': 411, 'width': 411, 'height': 411, 'widthPercent': 0.45, 'rescaleHeight': False, 'trialN': 36, 'loaded': True, 'loadedTime': 2819, 'positionName': 'RIGHT', 'positionCoords': [665.6, 154.5], 'bid': 5.95}]",79278,1669844462697,granola w milk,raisin bran w milk,5.98,5.95,-0.03000000000000025,raisin bran w milk,2029,2047,2048,True,i,81827,2549,1669844465245,2548,HRV,HRV_0288,2022-11-30 21:46:15
37,"[{'imgObject': {}, 'id': 'rigatoni', 'src': '/static/foodstim60/rigatoni.jpg', 'key': 'u', 'origWidth': 411, 'origHeight': 411, 'width': 411, 'height': 411, 'widthPercent': 0.45, 'rescaleHeight': False, 'trialN': 37, 'loaded': True, 'loadedTime': 2871, 'positionName': 'LEFT', 'positionCoords': [203.4, 154.5], 'bid': 0.07}, {'imgObject': {}, 'id': 'cherry tomato', 'src': '/static/foodstim60/cherry tomato.jpg', 'key': 'i', 'origWidth': 410, 'origHeight': 410, 'width': 410, 'height': 410, 'widthPercent': 0.45, 'rescaleHeight': False, 'trialN': 37, 'loaded': True, 'loadedTime': 2882, 'positionName': 'RIGHT', 'positionCoords': [665.6, 155], 'bid': 0.04}]",81827,1669844465246,rigatoni,cherry tomato,0.07,0.04,-0.030000000000000006,rigatoni,1945,1955,1955,True,u,84287,2460,1669844467705,2459,HRV,HRV_0288,2022-11-30 21:46:15
38,"[{'imgObject': {}, 'id': 'chicken nuggets2', 'src': '/static/foodstim60/chicken nuggets2.jpg', 'key': 'u', 'origWidth': 410, 'origHeight': 409, 'width': 410, 'height': 409, 'widthPercent': 0.45, 'rescaleHeight': False, 'trialN': 38, 'loaded': True, 'loadedTime': 2822, 'positionName': 'LEFT', 'positionCoords': [204.4, 155.5], 'bid': 8.03}, {'imgObject': {}, 'id': 'mashed potato', 'src': '/static/foodstim60/mashed potato.jpg', 'key': 'i', 'origWidth': 409, 'origHeight': 409, 'width': 409, 'height': 409, 'widthPercent': 0.45, 'rescaleHeight': False, 'trialN': 38, 'loaded': True, 'loadedTime': 2884, 'positionName': 'RIGHT', 'positionCoords': [665.6, 155.5], 'bid': 9}]",84287,1669844467705,chicken nuggets2,mashed potato,8.03,9.0,0.9700000000000006,mashed potato,2340,2359,2359,True,i,87147,2860,1669844470566,2861,HRV,HRV_0288,2022-11-30 21:46:15
39,"[{'imgObject': {}, 'id': 'sweetpotato', 'src': '/static/foodstim60/sweetpotato.jpg', 'key': 'u', 'origWidth': 410, 'origHeight': 410, 'width': 410, 'height': 410, 'widthPercent': 0.45, 'rescaleHeight': False, 'trialN': 39, 'loaded': True, 'loadedTime': 2828, 'positionName': 'LEFT', 'positionCoords': [204.4, 155], 'bid': 7.32}, {'imgObject': {}, 'id': 'strawberries', 'src': '/static/foodstim60/strawberries.jpg', 'key': 'i', 'origWidth': 410, 'origHeight': 410, 'width': 410, 'height': 410, 'widthPercent': 0.45, 'rescaleHeight': False, 'trialN': 39, 'loaded': True, 'loadedTime': 2877, 'positionName': 'RIGHT', 'positionCoords': [665.6, 155], 'bid': 6.93}]",87147,1669844470566,sweetpotato,strawberries,7.32,6.93,-0.39000000000000057,strawberries,1945,1955,1956,True,i,89607,2460,1669844473025,2459,HRV,HRV_0288,2022-11-30 21:46:15
40,"[{'imgObject': {}, 'id': 'pear', 'src': '/static/foodstim60/pear.jpg', 'key': 'u', 'origWidth': 411, 'origHeight': 410, 'width': 411, 'height': 410, 'widthPercent': 0.45, 'rescaleHeight': False, 'trialN': 40, 'loaded': True, 'loadedTime': 2849, 'positionName': 'LEFT', 'positionCoords': [203.4, 155], 'bid': 7.79}, {'imgObject': {}, 'id': 'blueberries', 'src': '/static/foodstim60/blueberries.jpg', 'key': 'i', 'origWidth': 411, 'origHeight': 411, 'width': 411, 'height': 411, 'widthPercent': 0.45, 'rescaleHeight': False, 'trialN': 40, 'loaded': True, 'loadedTime': 2885, 'positionName': 'RIGHT', 'positionCoords': [665.6, 154.5], 'bid': 7.65}]",89607,1669844473025,pear,blueberries,7.79,7.65,-0.13999999999999968,pear,2682,2695,2696,True,u,92802,3195,1669844476220,3195,HRV,HRV_0288,2022-11-30 21:46:15
41,"[{'imgObject': {}, 'id': 'roastedpotatoes', 'src': '/static/foodstim60/roastedpotatoes.jpg', 'key': 'u', 'origWidth': 409, 'origHeight': 410, 'width': 409, 'height': 410, 'widthPercent': 0.45, 'rescaleHeight': False, 'trialN': 41, 'loaded': True, 'loadedTime': 2855, 'positionName': 'LEFT', 'positionCoords': [205.4, 155], 'bid': 9.2}, {'imgObject': {}, 'id': 'veggieswithdip', 'src': '/static/foodstim60/veggieswithdip.jpg', 'key': 'i', 'origWidth': 409, 'origHeight': 409, 'width': 409, 'height': 409, 'widthPercent': 0.45, 'rescaleHeight': False, 'trialN': 41, 'loaded': True, 'loadedTime': 2887, 'positionName': 'RIGHT', 'positionCoords': [665.6, 155.5], 'bid': 8.07}]",92802,1669844476222,roastedpotatoes,veggieswithdip,9.2,8.07,-1.129999999999999,roastedpotatoes,1111,1122,1124,True,u,94433,1631,1669844477851,1629,HRV,HRV_0288,2022-11-30 21:46:15
42,"[{'imgObject': {}, 'id': 'luckycharms', 'src': '/static/foodstim60/luckycharms.jpg', 'key': 'u', 'origWidth': 410, 'origHeight': 409, 'width': 410, 'height': 409, 'widthPercent': 0.45, 'rescaleHeight': False, 'trialN': 42, 'loaded': True, 'loadedTime': 2835, 'positionName': 'LEFT', 'positionCoords': [204.4, 155.5], 'bid': 4.2}, {'imgObject': {}, 'id': 'cheerios', 'src': '/static/foodstim60/cheerios.jpg', 'key': 'i', 'origWidth': 409, 'origHeight': 410, 'width': 409, 'height': 410, 'widthPercent': 0.45, 'rescaleHeight': False, 'trialN': 42, 'loaded': True, 'loadedTime': 2888, 'positionName': 'RIGHT', 'positionCoords': [665.6, 155], 'bid': 5.04}]",94433,1669844477851,luckycharms,cheerios,4.2,5.04,0.8399999999999999,cheerios,1461,1478,1478,True,i,96414,1981,1669844479833,1982,HRV,HRV_0288,2022-11-30 21:46:15
43,"[{'imgObject': {}, 'id': 'seaweed', 'src': '/static/foodstim60/seaweed.jpg', 'key': 'u', 'origWidth': 410, 'origHeight': 410, 'width': 410, 'height': 410, 'widthPercent': 0.45, 'rescaleHeight': False, 'trialN': 43, 'loaded': True, 'loadedTime': 2861, 'positionName': 'LEFT', 'positionCoords': [204.4, 155], 'bid': 6.8100000000000005}, {'imgObject': {}, 'id': 'kiwi', 'src': '/static/foodstim60/kiwi.jpg', 'key': 'i', 'origWidth': 410, 'origHeight': 410, 'width': 410, 'height': 410, 'widthPercent': 0.45, 'rescaleHeight': False, 'trialN': 43, 'loaded': True, 'loadedTime': 2864, 'positionName': 'RIGHT', 'positionCoords': [665.6, 155], 'bid': 6.12}]",96414,1669844479833,seaweed,kiwi,6.8100000000000005,6.12,-0.6900000000000004,seaweed,2552,2568,2568,True,u,99486,3072,1669844482905,3072,HRV,HRV_0288,2022-11-30 21:46:15
44,"[{'imgObject': {}, 'id': 'eggs', 'src': '/static/foodstim60/eggs.jpg', 'key': 'u', 'origWidth': 409, 'origHeight': 409, 'width': 409, 'height': 409, 'widthPercent': 0.45, 'rescaleHeight': False, 'trialN': 44, 'loaded': True, 'loadedTime': 2867, 'positionName': 'LEFT', 'positionCoords': [205.4, 155.5], 'bid': 3.93}, {'imgObject': {}, 'id': 'cherries', 'src': '/static/foodstim60/cherries.jpg', 'key': 'i', 'origWidth': 410, 'origHeight': 411, 'width': 410, 'height': 411, 'widthPercent': 0.45, 'rescaleHeight': False, 'trialN': 44, 'loaded': True, 'loadedTime': 2843, 'positionName': 'RIGHT', 'positionCoords': [665.6, 154.5], 'bid': 8.540000000000001}]",99486,1669844482905,eggs,cherries,3.93,8.540000000000001,4.610000000000001,cherries,1024,1040,1040,True,i,101027,1541,1669844484445,1540,HRV,HRV_0288,2022-11-30 21:46:15
45,"[{'imgObject': {}, 'id': 'veggieswithdip', 'src': '/static/foodstim60/veggieswithdip.jpg', 'key': 'u', 'origWidth': 409, 'origHeight': 409, 'width': 409, 'height': 409, 'widthPercent': 0.45, 'rescaleHeight': False, 'trialN': 45, 'loaded': True, 'loadedTime': 2888, 'positionName': 'LEFT', 'positionCoords': [205.4, 155.5], 'bid': 8.07}, {'imgObject': {}, 'id': 'orange slices', 'src': '/static/foodstim60/orange slices.jpg', 'key': 'i', 'origWidth': 409, 'origHeight': 410, 'width': 409, 'height': 410, 'widthPercent': 0.45, 'rescaleHeight': False, 'trialN': 45, 'loaded': True, 'loadedTime': 2823, 'positionName': 'RIGHT', 'positionCoords': [665.6, 155], 'bid': 7.92}]",101027,1669844484445,veggieswithdip,orange slices,8.07,7.92,-0.15000000000000036,orange slices,920,931,931,True,i,102466,1439,1669844485885,1440,HRV,HRV_0288,2022-11-30 21:46:15
46,"[{'imgObject': {}, 'id': 'mac & cheese', 'src': '/static/foodstim60/mac & cheese.jpg', 'key': 'u', 'origWidth': 410, 'origHeight': 410, 'width': 410, 'height': 410, 'widthPercent': 0.45, 'rescaleHeight': False, 'trialN': 46, 'loaded': True, 'loadedTime': 2834, 'positionName': 'LEFT', 'positionCoords': [204.4, 155], 'bid': 7.140000000000001}, {'imgObject': {}, 'id': 'popsicles', 'src': '/static/foodstim60/popsicles.jpg', 'key': 'i', 'origWidth': 410, 'origHeight': 410, 'width': 410, 'height': 410, 'widthPercent': 0.45, 'rescaleHeight': False, 'trialN': 46, 'loaded': True, 'loadedTime': 2889, 'positionName': 'RIGHT', 'positionCoords': [665.6, 155], 'bid': 7.390000000000001}]",102466,1669844485885,mac & cheese,popsicles,7.140000000000001,7.390000000000001,0.25,popsicles,1680,1691,1691,True,i,104666,2200,1669844488085,2200,HRV,HRV_0288,2022-11-30 21:46:15
47,"[{'imgObject': {}, 'id': 'blueberries', 'src': '/static/foodstim60/blueberries.jpg', 'key': 'u', 'origWidth': 411, 'origHeight': 411, 'width': 411, 'height': 411, 'widthPercent': 0.45, 'rescaleHeight': False, 'trialN': 47, 'loaded': True, 'loadedTime': 2887, 'positionName': 'LEFT', 'positionCoords': [203.4, 154.5], 'bid': 7.65}, {'imgObject': {}, 'id': 'mashed potato', 'src': '/static/foodstim60/mashed potato.jpg', 'key': 'i', 'origWidth': 409, 'origHeight': 409, 'width': 409, 'height': 409, 'widthPercent': 0.45, 'rescaleHeight': False, 'trialN': 47, 'loaded': True, 'loadedTime': 2885, 'positionName': 'RIGHT', 'positionCoords': [665.6, 155.5], 'bid': 9}]",104666,1669844488085,blueberries,mashed potato,7.65,9.0,1.3499999999999996,mashed potato,1274,1284,1284,True,i,106459,1793,1669844489878,1793,HRV,HRV_0288,2022-11-30 21:46:15
48,"[{'imgObject': {}, 'id': 'hashbrowns', 'src': '/static/foodstim60/hashbrowns.jpg', 'key': 'u', 'origWidth': 411, 'origHeight': 410, 'width': 411, 'height': 410, 'widthPercent': 0.45, 'rescaleHeight': False, 'trialN': 48, 'loaded': True, 'loadedTime': 2857, 'positionName': 'LEFT', 'positionCoords': [203.4, 155], 'bid': 1.25}, {'imgObject': {}, 'id': 'strawberries', 'src': '/static/foodstim60/strawberries.jpg', 'key': 'i', 'origWidth': 410, 'origHeight': 410, 'width': 410, 'height': 410, 'widthPercent': 0.45, 'rescaleHeight': False, 'trialN': 48, 'loaded': True, 'loadedTime': 2877, 'positionName': 'RIGHT', 'positionCoords': [665.6, 155], 'bid': 6.93}]",106460,1669844489878,hashbrowns,strawberries,1.25,6.93,5.68,strawberries,1118,1138,1137,True,i,108099,1639,1669844491517,1639,HRV,HRV_0288,2022-11-30 21:46:15
49,"[{'imgObject': {}, 'id': 'fruitsalad', 'src': '/static/foodstim60/fruitsalad.jpg', 'key': 'u', 'origWidth': 410, 'origHeight': 410, 'width': 410, 'height': 410, 'widthPercent': 0.45, 'rescaleHeight': False, 'trialN': 49, 'loaded': True, 'loadedTime': 2890, 'positionName': 'LEFT', 'positionCoords': [204.4, 155], 'bid': 8.93}, {'imgObject': {}, 'id': 'popsicles', 'src': '/static/foodstim60/popsicles.jpg', 'key': 'i', 'origWidth': 410, 'origHeight': 410, 'width': 410, 'height': 410, 'widthPercent': 0.45, 'rescaleHeight': False, 'trialN': 49, 'loaded': True, 'loadedTime': 2890, 'positionName': 'RIGHT', 'positionCoords': [665.6, 155], 'bid': 7.390000000000001}]",108099,1669844491517,fruitsalad,popsicles,8.93,7.390000000000001,-1.5399999999999991,fruitsalad,1460,1475,1474,True,u,110079,1980,1669844493497,1980,HRV,HRV_0288,2022-11-30 21:46:15
50,"[{'imgObject': {}, 'id': 'Tribe humus pita', 'src': '/static/foodstim60/Tribe humus pita.jpg', 'key': 'u', 'origWidth': 411, 'origHeight': 411, 'width': 411, 'height': 411, 'widthPercent': 0.45, 'rescaleHeight': False, 'trialN': 50, 'loaded': True, 'loadedTime': 2827, 'positionName': 'LEFT', 'positionCoords': [203.4, 154.5], 'bid': 0.1}, {'imgObject': {}, 'id': 'olives', 'src': '/static/foodstim60/olives.jpg', 'key': 'i', 'origWidth': 410, 'origHeight': 410, 'width': 410, 'height': 410, 'widthPercent': 0.45, 'rescaleHeight': False, 'trialN': 50, 'loaded': True, 'loadedTime': 2874, 'positionName': 'RIGHT', 'positionCoords': [665.6, 155], 'bid': 0.4}]",110080,1669844493497,Tribe humus pita,olives,0.1,0.4,0.30000000000000004,olives,1960,1967,1965,True,i,112551,2471,1669844495969,2472,HRV,HRV_0288,2022-11-30 21:46:15
51,"[{'imgObject': {}, 'id': 'lox', 'src': '/static/foodstim60/lox.jpg', 'key': 'u', 'origWidth': 410, 'origHeight': 411, 'width': 410, 'height': 411, 'widthPercent': 0.45, 'rescaleHeight': False, 'trialN': 51, 'loaded': True, 'loadedTime': 2820, 'positionName': 'LEFT', 'positionCoords': [204.4, 154.5], 'bid': 0.18}, {'imgObject': {}, 'id': 'edamame', 'src': '/static/foodstim60/edamame.jpg', 'key': 'i', 'origWidth': 409, 'origHeight': 410, 'width': 409, 'height': 410, 'widthPercent': 0.45, 'rescaleHeight': False, 'trialN': 51, 'loaded': True, 'loadedTime': 2873, 'positionName': 'RIGHT', 'positionCoords': [665.6, 155], 'bid': 1.2}]",112551,1669844495969,lox,edamame,0.18,1.2,1.02,edamame,1298,1311,1310,True,i,114370,1819,1669844497788,1819,HRV,HRV_0288,2022-11-30 21:46:15
52,"[{'imgObject': {}, 'id': 'cheerios', 'src': '/static/foodstim60/cheerios.jpg', 'key': 'u', 'origWidth': 409, 'origHeight': 410, 'width': 409, 'height': 410, 'widthPercent': 0.45, 'rescaleHeight': False, 'trialN': 52, 'loaded': True, 'loadedTime': 2889, 'positionName': 'LEFT', 'positionCoords': [205.4, 155], 'bid': 5.04}, {'imgObject': {}, 'id': 'avocado', 'src': '/static/foodstim60/avocado.jpg', 'key': 'i', 'origWidth': 409, 'origHeight': 409, 'width': 409, 'height': 409, 'widthPercent': 0.45, 'rescaleHeight': False, 'trialN': 52, 'loaded': True, 'loadedTime': 2856, 'positionName': 'RIGHT', 'positionCoords': [665.6, 155.5], 'bid': 0.28}]",114370,1669844497788,cheerios,avocado,5.04,0.28,-4.76,cheerios,1445,1459,1459,True,u,116330,1960,1669844499748,1960,HRV,HRV_0288,2022-11-30 21:46:15
53,"[{'imgObject': {}, 'id': 'rigatoni', 'src': '/static/foodstim60/rigatoni.jpg', 'key': 'u', 'origWidth': 411, 'origHeight': 411, 'width': 411, 'height': 411, 'widthPercent': 0.45, 'rescaleHeight': False, 'trialN': 53, 'loaded': True, 'loadedTime': 2871, 'positionName': 'LEFT', 'positionCoords': [203.4, 154.5], 'bid': 0.07}, {'imgObject': {}, 'id': 'hashbrowns', 'src': '/static/foodstim60/hashbrowns.jpg', 'key': 'i', 'origWidth': 411, 'origHeight': 410, 'width': 411, 'height': 410, 'widthPercent': 0.45, 'rescaleHeight': False, 'trialN': 53, 'loaded': True, 'loadedTime': 2857, 'positionName': 'RIGHT', 'positionCoords': [665.6, 155], 'bid': 1.25}]",116330,1669844499748,rigatoni,hashbrowns,0.07,1.25,1.18,hashbrowns,1638,1643,1643,True,i,118480,2150,1669844501899,2151,HRV,HRV_0288,2022-11-30 21:46:15
54,"[{'imgObject': {}, 'id': 'turkeysandwich', 'src': '/static/foodstim60/turkeysandwich.jpg', 'key': 'u', 'origWidth': 409, 'origHeight': 409, 'width': 409, 'height': 409, 'widthPercent': 0.45, 'rescaleHeight': False, 'trialN': 54, 'loaded': True, 'loadedTime': 2868, 'positionName': 'LEFT', 'positionCoords': [205.4, 155.5], 'bid': 8.5}, {'imgObject': {}, 'id': 'pear', 'src': '/static/foodstim60/pear.jpg', 'key': 'i', 'origWidth': 411, 'origHeight': 410, 'width': 411, 'height': 410, 'widthPercent': 0.45, 'rescaleHeight': False, 'trialN': 54, 'loaded': True, 'loadedTime': 2849, 'positionName': 'RIGHT', 'positionCoords': [665.6, 155], 'bid': 7.79}]",118480,1669844501899,turkeysandwich,pear,8.5,7.79,-0.71,turkeysandwich,1701,1701,1702,True,u,120691,2211,1669844504110,2211,HRV,HRV_0288,2022-11-30 21:46:15
55,"[{'imgObject': {}, 'id': 'eggs', 'src': '/static/foodstim60/eggs.jpg', 'key': 'u', 'origWidth': 409, 'origHeight': 409, 'width': 409, 'height': 409, 'widthPercent': 0.45, 'rescaleHeight': False, 'trialN': 55, 'loaded': True, 'loadedTime': 2867, 'positionName': 'LEFT', 'positionCoords': [205.4, 155.5], 'bid': 3.93}, {'imgObject': {}, 'id': 'cherry tomato', 'src': '/static/foodstim60/cherry tomato.jpg', 'key': 'i', 'origWidth': 410, 'origHeight': 410, 'width': 410, 'height': 410, 'widthPercent': 0.45, 'rescaleHeight': False, 'trialN': 55, 'loaded': True, 'loadedTime': 2883, 'positionName': 'RIGHT', 'positionCoords': [665.6, 155], 'bid': 0.04}]",120691,1669844504110,eggs,cherry tomato,3.93,0.04,-3.89,eggs,1065,1074,1075,True,u,122271,1580,1669844505689,1579,HRV,HRV_0288,2022-11-30 21:46:15
56,"[{'imgObject': {}, 'id': 'chickenfingers', 'src': '/static/foodstim60/chickenfingers.jpg', 'key': 'u', 'origWidth': 410, 'origHeight': 410, 'width': 410, 'height': 410, 'widthPercent': 0.45, 'rescaleHeight': False, 'trialN': 56, 'loaded': True, 'loadedTime': 2853, 'positionName': 'LEFT', 'positionCoords': [204.4, 155], 'bid': 9.35}, {'imgObject': {}, 'id': 'mango', 'src': '/static/foodstim60/mango.jpg', 'key': 'i', 'origWidth': 411, 'origHeight': 411, 'width': 411, 'height': 411, 'widthPercent': 0.45, 'rescaleHeight': False, 'trialN': 56, 'loaded': True, 'loadedTime': 2893, 'positionName': 'RIGHT', 'positionCoords': [665.6, 154.5], 'bid': 8.89}]",122272,1669844505690,chickenfingers,mango,9.35,8.89,-0.4599999999999991,chickenfingers,2432,2445,2445,True,u,125221,2949,1669844508639,2949,HRV,HRV_0288,2022-11-30 21:46:15
57,"[{'imgObject': {}, 'id': 'lox', 'src': '/static/foodstim60/lox.jpg', 'key': 'u', 'origWidth': 410, 'origHeight': 411, 'width': 410, 'height': 411, 'widthPercent': 0.45, 'rescaleHeight': False, 'trialN': 57, 'loaded': True, 'loadedTime': 2820, 'positionName': 'LEFT', 'positionCoords': [204.4, 154.5], 'bid': 0.18}, {'imgObject': {}, 'id': 'cocktailshrimp', 'src': '/static/foodstim60/cocktailshrimp.jpg', 'key': 'i', 'origWidth': 410, 'origHeight': 410, 'width': 410, 'height': 410, 'widthPercent': 0.45, 'rescaleHeight': False, 'trialN': 57, 'loaded': True, 'loadedTime': 2894, 'positionName': 'RIGHT', 'positionCoords': [665.6, 155], 'bid': 0.12}]",125221,1669844508639,lox,cocktailshrimp,0.18,0.12,-0.06,lox,2120,2129,2128,True,u,127852,2631,1669844511270,2631,HRV,HRV_0288,2022-11-30 21:46:15
58,"[{'imgObject': {}, 'id': 'cocktailshrimp', 'src': '/static/foodstim60/cocktailshrimp.jpg', 'key': 'u', 'origWidth': 410, 'origHeight': 410, 'width': 410, 'height': 410, 'widthPercent': 0.45, 'rescaleHeight': False, 'trialN': 58, 'loaded': True, 'loadedTime': 2895, 'positionName': 'LEFT', 'positionCoords': [204.4, 155], 'bid': 0.12}, {'imgObject': {}, 'id': 'blackbeanswithrice', 'src': '/static/foodstim60/blackbeanswithrice.jpg', 'key': 'i', 'origWidth': 410, 'origHeight': 410, 'width': 410, 'height': 410, 'widthPercent': 0.45, 'rescaleHeight': False, 'trialN': 58, 'loaded': True, 'loadedTime': 2841, 'positionName': 'RIGHT', 'positionCoords': [665.6, 155], 'bid': 0.21}]",127852,1669844511270,cocktailshrimp,blackbeanswithrice,0.12,0.21,0.09,cocktailshrimp,1485,1506,1506,True,u,129860,2008,1669844513279,2009,HRV,HRV_0288,2022-11-30 21:46:15
59,"[{'imgObject': {}, 'id': 'sushi w_condiments', 'src': '/static/foodstim60/sushi w_condiments.jpg', 'key': 'u', 'origWidth': 410, 'origHeight': 410, 'width': 410, 'height': 410, 'widthPercent': 0.45, 'rescaleHeight': False, 'trialN': 59, 'loaded': True, 'loadedTime': 2876, 'positionName': 'LEFT', 'positionCoords': [204.4, 155], 'bid': 0.07}, {'imgObject': {}, 'id': 'apple slices', 'src': '/static/foodstim60/apple slices.jpg', 'key': 'i', 'origWidth': 409, 'origHeight': 410, 'width': 409, 'height': 410, 'widthPercent': 0.45, 'rescaleHeight': False, 'trialN': 59, 'loaded': True, 'loadedTime': 2850, 'positionName': 'RIGHT', 'positionCoords': [665.6, 155], 'bid': 7.26}]",129861,1669844513279,sushi w_condiments,apple slices,0.07,7.26,7.1899999999999995,apple slices,1598,1609,1608,True,i,131971,2110,1669844515389,2110,HRV,HRV_0288,2022-11-30 21:46:15
60,"[{'imgObject': {}, 'id': 'avocado', 'src': '/static/foodstim60/avocado.jpg', 'key': 'u', 'origWidth': 409, 'origHeight': 409, 'width': 409, 'height': 409, 'widthPercent': 0.45, 'rescaleHeight': False, 'trialN': 60, 'loaded': True, 'loadedTime': 2856, 'positionName': 'LEFT', 'positionCoords': [205.4, 155.5], 'bid': 0.28}, {'imgObject': {}, 'id': 'olives', 'src': '/static/foodstim60/olives.jpg', 'key': 'i', 'origWidth': 410, 'origHeight': 410, 'width': 410, 'height': 410, 'widthPercent': 0.45, 'rescaleHeight': False, 'trialN': 60, 'loaded': True, 'loadedTime': 2874, 'positionName': 'RIGHT', 'positionCoords': [665.6, 155], 'bid': 0.4}]",131971,1669844515389,avocado,olives,0.28,0.4,0.12,olives,1095,1114,1114,True,i,133591,1620,1669844517009,1620,HRV,HRV_0288,2022-11-30 21:46:15
61,"[{'imgObject': {}, 'id': 'rigatoni and sauce', 'src': '/static/foodstim60/rigatoni and sauce.jpg', 'key': 'u', 'origWidth': 410, 'origHeight': 411, 'width': 410, 'height': 411, 'widthPercent': 0.45, 'rescaleHeight': False, 'trialN': 61, 'loaded': True, 'loadedTime': 2882, 'positionName': 'LEFT', 'positionCoords': [204.4, 154.5], 'bid': 4.98}, {'imgObject': {}, 'id': 'hotdog w must', 'src': '/static/foodstim60/hotdog w must.jpg', 'key': 'i', 'origWidth': 409, 'origHeight': 409, 'width': 409, 'height': 409, 'widthPercent': 0.45, 'rescaleHeight': False, 'trialN': 61, 'loaded': True, 'loadedTime': 2895, 'positionName': 'RIGHT', 'positionCoords': [665.6, 155.5], 'bid': 0.26}]",133591,1669844517009,rigatoni and sauce,hotdog w must,4.98,0.26,-4.720000000000001,rigatoni and sauce,2721,2726,2726,True,u,136821,3230,1669844520239,3230,HRV,HRV_0288,2022-11-30 21:46:15
62,"[{'imgObject': {}, 'id': 'bagel and cc', 'src': '/static/foodstim60/bagel and cc.jpg', 'key': 'u', 'origWidth': 410, 'origHeight': 410, 'width': 410, 'height': 410, 'widthPercent': 0.45, 'rescaleHeight': False, 'trialN': 62, 'loaded': True, 'loadedTime': 2878, 'positionName': 'LEFT', 'positionCoords': [204.4, 155], 'bid': 6.98}, {'imgObject': {}, 'id': 'pear', 'src': '/static/foodstim60/pear.jpg', 'key': 'i', 'origWidth': 411, 'origHeight': 410, 'width': 411, 'height': 410, 'widthPercent': 0.45, 'rescaleHeight': False, 'trialN': 62, 'loaded': True, 'loadedTime': 2849, 'positionName': 'RIGHT', 'positionCoords': [665.6, 155], 'bid': 7.79}]",136821,1669844520239,bagel and cc,pear,6.98,7.79,0.8099999999999996,pear,1954,1968,1968,True,i,139294,2473,1669844522713,2474,HRV,HRV_0288,2022-11-30 21:46:15
63,"[{'imgObject': {}, 'id': 'sushi w_condiments', 'src': '/static/foodstim60/sushi w_condiments.jpg', 'key': 'u', 'origWidth': 410, 'origHeight': 410, 'width': 410, 'height': 410, 'widthPercent': 0.45, 'rescaleHeight': False, 'trialN': 63, 'loaded': True, 'loadedTime': 2876, 'positionName': 'LEFT', 'positionCoords': [204.4, 155], 'bid': 0.07}, {'imgObject': {}, 'id': 'cherry tomato', 'src': '/static/foodstim60/cherry tomato.jpg', 'key': 'i', 'origWidth': 410, 'origHeight': 410, 'width': 410, 'height': 410, 'widthPercent': 0.45, 'rescaleHeight': False, 'trialN': 63, 'loaded': True, 'loadedTime': 2884, 'positionName': 'RIGHT', 'positionCoords': [665.6, 155], 'bid': 0.04}]",139294,1669844522713,sushi w_condiments,cherry tomato,0.07,0.04,-0.030000000000000006,sushi w_condiments,1962,1974,1975,True,u,141774,2480,1669844525193,2480,HRV,HRV_0288,2022-11-30 21:46:15
64,"[{'imgObject': {}, 'id': 'blueberries', 'src': '/static/foodstim60/blueberries.jpg', 'key': 'u', 'origWidth': 411, 'origHeight': 411, 'width': 411, 'height': 411, 'widthPercent': 0.45, 'rescaleHeight': False, 'trialN': 64, 'loaded': True, 'loadedTime': 2887, 'positionName': 'LEFT', 'positionCoords': [203.4, 154.5], 'bid': 7.65}, {'imgObject': {}, 'id': 'veggieswithdip', 'src': '/static/foodstim60/veggieswithdip.jpg', 'key': 'i', 'origWidth': 409, 'origHeight': 409, 'width': 409, 'height': 409, 'widthPercent': 0.45, 'rescaleHeight': False, 'trialN': 64, 'loaded': True, 'loadedTime': 2888, 'positionName': 'RIGHT', 'positionCoords': [665.6, 155.5], 'bid': 8.07}]",141775,1669844525193,blueberries,veggieswithdip,7.65,8.07,0.41999999999999993,veggieswithdip,2055,2070,2070,True,i,144355,2580,1669844527773,2580,HRV,HRV_0288,2022-11-30 21:46:15
65,"[{'imgObject': {}, 'id': 'olives', 'src': '/static/foodstim60/olives.jpg', 'key': 'u', 'origWidth': 410, 'origHeight': 410, 'width': 410, 'height': 410, 'widthPercent': 0.45, 'rescaleHeight': False, 'trialN': 65, 'loaded': True, 'loadedTime': 2874, 'positionName': 'LEFT', 'positionCoords': [204.4, 155], 'bid': 0.4}, {'imgObject': {}, 'id': 'kiwi', 'src': '/static/foodstim60/kiwi.jpg', 'key': 'i', 'origWidth': 410, 'origHeight': 410, 'width': 410, 'height': 410, 'widthPercent': 0.45, 'rescaleHeight': False, 'trialN': 65, 'loaded': True, 'loadedTime': 2864, 'positionName': 'RIGHT', 'positionCoords': [665.6, 155], 'bid': 6.12}]",144355,1669844527773,olives,kiwi,0.4,6.12,5.72,kiwi,1972,1987,1986,True,i,146845,2490,1669844530263,2490,HRV,HRV_0288,2022-11-30 21:46:15
66,"[{'imgObject': {}, 'id': 'steak', 'src': '/static/foodstim60/steak.jpg', 'key': 'u', 'origWidth': 410, 'origHeight': 410, 'width': 410, 'height': 410, 'widthPercent': 0.45, 'rescaleHeight': False, 'trialN': 66, 'loaded': True, 'loadedTime': 2896, 'positionName': 'LEFT', 'positionCoords': [204.4, 155], 'bid': 9.79}, {'imgObject': {}, 'id': 'tacos', 'src': '/static/foodstim60/tacos.jpg', 'key': 'i', 'origWidth': 411, 'origHeight': 411, 'width': 411, 'height': 411, 'widthPercent': 0.45, 'rescaleHeight': False, 'trialN': 66, 'loaded': True, 'loadedTime': 2847, 'positionName': 'RIGHT', 'positionCoords': [665.6, 154.5], 'bid': 9.23}]",146845,1669844530263,steak,tacos,9.79,9.23,-0.5599999999999987,steak,1634,1639,1640,True,u,148994,2149,1669844532412,2149,HRV,HRV_0288,2022-11-30 21:46:15
67,"[{'imgObject': {}, 'id': 'burrito', 'src': '/static/foodstim60/burrito.jpg', 'key': 'u', 'origWidth': 410, 'origHeight': 410, 'width': 410, 'height': 410, 'widthPercent': 0.45, 'rescaleHeight': False, 'trialN': 67, 'loaded': True, 'loadedTime': 2829, 'positionName': 'LEFT', 'positionCoords': [204.4, 155], 'bid': 9.5}, {'imgObject': {}, 'id': 'mashed potato', 'src': '/static/foodstim60/mashed potato.jpg', 'key': 'i', 'origWidth': 409, 'origHeight': 409, 'width': 409, 'height': 409, 'widthPercent': 0.45, 'rescaleHeight': False, 'trialN': 67, 'loaded': True, 'loadedTime': 2885, 'positionName': 'RIGHT', 'positionCoords': [665.6, 155.5], 'bid': 9}]",148994,1669844532412,burrito,mashed potato,9.5,9.0,-0.5,burrito,1591,1602,1603,True,u,151107,2113,1669844534524,2112,HRV,HRV_0288,2022-11-30 21:46:15
68,"[{'imgObject': {}, 'id': 'mango', 'src': '/static/foodstim60/mango.jpg', 'key': 'u', 'origWidth': 411, 'origHeight': 411, 'width': 411, 'height': 411, 'widthPercent': 0.45, 'rescaleHeight': False, 'trialN': 68, 'loaded': True, 'loadedTime': 2894, 'positionName': 'LEFT', 'positionCoords': [203.4, 154.5], 'bid': 8.89}, {'imgObject': {}, 'id': 'steak', 'src': '/static/foodstim60/steak.jpg', 'key': 'i', 'origWidth': 410, 'origHeight': 410, 'width': 410, 'height': 410, 'widthPercent': 0.45, 'rescaleHeight': False, 'trialN': 68, 'loaded': True, 'loadedTime': 2897, 'positionName': 'RIGHT', 'positionCoords': [665.6, 155], 'bid': 9.79}]",151107,1669844534525,mango,steak,8.89,9.79,0.8999999999999986,steak,1397,1402,1402,True,i,153016,1909,1669844536435,1910,HRV,HRV_0288,2022-11-30 21:46:15
69,"[{'imgObject': {}, 'id': 'fruitsalad', 'src': '/static/foodstim60/fruitsalad.jpg', 'key': 'u', 'origWidth': 410, 'origHeight': 410, 'width': 410, 'height': 410, 'widthPercent': 0.45, 'rescaleHeight': False, 'trialN': 69, 'loaded': True, 'loadedTime': 2891, 'positionName': 'LEFT', 'positionCoords': [204.4, 155], 'bid': 8.93}, {'imgObject': {}, 'id': 'raisin bran w milk', 'src': '/static/foodstim60/raisin bran w milk.jpg', 'key': 'i', 'origWidth': 411, 'origHeight': 411, 'width': 411, 'height': 411, 'widthPercent': 0.45, 'rescaleHeight': False, 'trialN': 69, 'loaded': True, 'loadedTime': 2819, 'positionName': 'RIGHT', 'positionCoords': [665.6, 154.5], 'bid': 5.95}]",153016,1669844536435,fruitsalad,raisin bran w milk,8.93,5.95,-2.9799999999999995,fruitsalad,1640,1652,1653,True,u,155176,2160,1669844538595,2160,HRV,HRV_0288,2022-11-30 21:46:15
70,"[{'imgObject': {}, 'id': 'burger', 'src': '/static/foodstim60/burger.jpg', 'key': 'u', 'origWidth': 409, 'origHeight': 409, 'width': 409, 'height': 409, 'widthPercent': 0.45, 'rescaleHeight': False, 'trialN': 70, 'loaded': True, 'loadedTime': 2815, 'positionName': 'LEFT', 'positionCoords': [205.4, 155.5], 'bid': 8.35}, {'imgObject': {}, 'id': 'veggieswithdip', 'src': '/static/foodstim60/veggieswithdip.jpg', 'key': 'i', 'origWidth': 409, 'origHeight': 409, 'width': 409, 'height': 409, 'widthPercent': 0.45, 'rescaleHeight': False, 'trialN': 70, 'loaded': True, 'loadedTime': 2888, 'positionName': 'RIGHT', 'positionCoords': [665.6, 155.5], 'bid': 8.07}]",155177,1669844538595,burger,veggieswithdip,8.35,8.07,-0.27999999999999936,veggieswithdip,1617,1627,1626,True,i,157309,2132,1669844540727,2132,HRV,HRV_0288,2022-11-30 21:46:15
71,"[{'imgObject': {}, 'id': 'salad w chicken', 'src': '/static/foodstim60/salad w chicken.jpg', 'key': 'u', 'origWidth': 411, 'origHeight': 411, 'width': 411, 'height': 411, 'widthPercent': 0.45, 'rescaleHeight': False, 'trialN': 71, 'loaded': True, 'loadedTime': 2897, 'positionName': 'LEFT', 'positionCoords': [203.4, 154.5], 'bid': 8.73}, {'imgObject': {}, 'id': 'cherries', 'src': '/static/foodstim60/cherries.jpg', 'key': 'i', 'origWidth': 410, 'origHeight': 411, 'width': 410, 'height': 411, 'widthPercent': 0.45, 'rescaleHeight': False, 'trialN': 71, 'loaded': True, 'loadedTime': 2843, 'positionName': 'RIGHT', 'positionCoords': [665.6, 154.5], 'bid': 8.540000000000001}]",157309,1669844540728,salad w chicken,cherries,8.73,8.540000000000001,-0.1899999999999995,salad w chicken,1435,1447,1447,True,u,159259,1950,1669844542677,1949,HRV,HRV_0288,2022-11-30 21:46:15
72,"[{'imgObject': {}, 'id': 'blueberries', 'src': '/static/foodstim60/blueberries.jpg', 'key': 'u', 'origWidth': 411, 'origHeight': 411, 'width': 411, 'height': 411, 'widthPercent': 0.45, 'rescaleHeight': False, 'trialN': 72, 'loaded': True, 'loadedTime': 2887, 'positionName': 'LEFT', 'positionCoords': [203.4, 154.5], 'bid': 7.65}, {'imgObject': {}, 'id': 'seaweed', 'src': '/static/foodstim60/seaweed.jpg', 'key': 'i', 'origWidth': 410, 'origHeight': 410, 'width': 410, 'height': 410, 'widthPercent': 0.45, 'rescaleHeight': False, 'trialN': 72, 'loaded': True, 'loadedTime': 2861, 'positionName': 'RIGHT', 'positionCoords': [665.6, 155], 'bid': 6.8100000000000005}]",159259,1669844542677,blueberries,seaweed,7.65,6.8100000000000005,-0.8399999999999999,blueberries,2573,2586,2585,True,u,162349,3090,1669844545767,3090,HRV,HRV_0288,2022-11-30 21:46:15
73,"[{'imgObject': {}, 'id': 'roastedpotatoes', 'src': '/static/foodstim60/roastedpotatoes.jpg', 'key': 'u', 'origWidth': 409, 'origHeight': 410, 'width': 409, 'height': 410, 'widthPercent': 0.45, 'rescaleHeight': False, 'trialN': 73, 'loaded': True, 'loadedTime': 2855, 'positionName': 'LEFT', 'positionCoords': [205.4, 155], 'bid': 9.2}, {'imgObject': {}, 'id': 'tacos', 'src': '/static/foodstim60/tacos.jpg', 'key': 'i', 'origWidth': 411, 'origHeight': 411, 'width': 411, 'height': 411, 'widthPercent': 0.45, 'rescaleHeight': False, 'trialN': 73, 'loaded': True, 'loadedTime': 2847, 'positionName': 'RIGHT', 'positionCoords': [665.6, 154.5], 'bid': 9.23}]",162349,1669844545767,roastedpotatoes,tacos,9.2,9.23,0.030000000000001137,tacos,1340,1359,1359,True,i,164211,1862,1669844547629,1862,HRV,HRV_0288,2022-11-30 21:46:15
74,"[{'imgObject': {}, 'id': 'cantaloupe', 'src': '/static/foodstim60/cantaloupe.jpg', 'key': 'u', 'origWidth': 409, 'origHeight': 409, 'width': 409, 'height': 409, 'widthPercent': 0.45, 'rescaleHeight': False, 'trialN': 74, 'loaded': True, 'loadedTime': 2831, 'positionName': 'LEFT', 'positionCoords': [205.4, 155.5], 'bid': 9.37}, {'imgObject': {}, 'id': 'seaweed', 'src': '/static/foodstim60/seaweed.jpg', 'key': 'i', 'origWidth': 410, 'origHeight': 410, 'width': 410, 'height': 410, 'widthPercent': 0.45, 'rescaleHeight': False, 'trialN': 74, 'loaded': True, 'loadedTime': 2861, 'positionName': 'RIGHT', 'positionCoords': [665.6, 155], 'bid': 6.8100000000000005}]",164212,1669844547629,cantaloupe,seaweed,9.37,6.8100000000000005,-2.5599999999999987,cantaloupe,1271,1281,1280,True,u,166002,1790,1669844549421,1792,HRV,HRV_0288,2022-11-30 21:46:15
75,"[{'imgObject': {}, 'id': 'mashed potato', 'src': '/static/foodstim60/mashed potato.jpg', 'key': 'u', 'origWidth': 409, 'origHeight': 409, 'width': 409, 'height': 409, 'widthPercent': 0.45, 'rescaleHeight': False, 'trialN': 75, 'loaded': True, 'loadedTime': 2885, 'positionName': 'LEFT', 'positionCoords': [205.4, 155.5], 'bid': 9}, {'imgObject': {}, 'id': 'mango', 'src': '/static/foodstim60/mango.jpg', 'key': 'i', 'origWidth': 411, 'origHeight': 411, 'width': 411, 'height': 411, 'widthPercent': 0.45, 'rescaleHeight': False, 'trialN': 75, 'loaded': True, 'loadedTime': 2894, 'positionName': 'RIGHT', 'positionCoords': [665.6, 154.5], 'bid': 8.89}]",166002,1669844549421,mashed potato,mango,9.0,8.89,-0.10999999999999943,mashed potato,2242,2257,2258,True,u,168762,2760,1669844552180,2759,HRV,HRV_0288,2022-11-30 21:46:15
76,"[{'imgObject': {}, 'id': 'avocado', 'src': '/static/foodstim60/avocado.jpg', 'key': 'u', 'origWidth': 409, 'origHeight': 409, 'width': 409, 'height': 409, 'widthPercent': 0.45, 'rescaleHeight': False, 'trialN': 76, 'loaded': True, 'loadedTime': 2856, 'positionName': 'LEFT', 'positionCoords': [205.4, 155.5], 'bid': 0.28}, {'imgObject': {}, 'id': 'rigatoni', 'src': '/static/foodstim60/rigatoni.jpg', 'key': 'i', 'origWidth': 411, 'origHeight': 411, 'width': 411, 'height': 411, 'widthPercent': 0.45, 'rescaleHeight': False, 'trialN': 76, 'loaded': True, 'loadedTime': 2871, 'positionName': 'RIGHT', 'positionCoords': [665.6, 154.5], 'bid': 0.07}]",168762,1669844552180,avocado,rigatoni,0.28,0.07,-0.21000000000000002,rigatoni,1292,1306,1306,True,i,170572,1810,1669844553990,1810,HRV,HRV_0288,2022-11-30 21:46:15
77,"[{'imgObject': {}, 'id': 'raspberries', 'src': '/static/foodstim60/raspberries.jpg', 'key': 'u', 'origWidth': 411, 'origHeight': 411, 'width': 411, 'height': 411, 'widthPercent': 0.45, 'rescaleHeight': False, 'trialN': 77, 'loaded': True, 'loadedTime': 2865, 'positionName': 'LEFT', 'positionCoords': [203.4, 154.5], 'bid': 7.32}, {'imgObject': {}, 'id': 'baked potato', 'src': '/static/foodstim60/baked potato.jpg', 'key': 'i', 'origWidth': 409, 'origHeight': 410, 'width': 409, 'height': 410, 'widthPercent': 0.45, 'rescaleHeight': False, 'trialN': 77, 'loaded': True, 'loadedTime': 2860, 'positionName': 'RIGHT', 'positionCoords': [665.6, 155], 'bid': 7.31}]",170572,1669844553990,raspberries,baked potato,7.32,7.31,-0.010000000000000675,raspberries,1822,1832,1831,True,u,172905,2333,1669844556323,2333,HRV,HRV_0288,2022-11-30 21:46:15
78,"[{'imgObject': {}, 'id': 'eggsalad', 'src': '/static/foodstim60/eggsalad.jpg', 'key': 'u', 'origWidth': 410, 'origHeight': 409, 'width': 410, 'height': 409, 'widthPercent': 0.45, 'rescaleHeight': False, 'trialN': 78, 'loaded': True, 'loadedTime': 2845, 'positionName': 'LEFT', 'positionCoords': [204.4, 155.5], 'bid': 0.96}, {'imgObject': {}, 'id': 'cocktailshrimp', 'src': '/static/foodstim60/cocktailshrimp.jpg', 'key': 'i', 'origWidth': 410, 'origHeight': 410, 'width': 410, 'height': 410, 'widthPercent': 0.45, 'rescaleHeight': False, 'trialN': 78, 'loaded': True, 'loadedTime': 2895, 'positionName': 'RIGHT', 'positionCoords': [665.6, 155], 'bid': 0.12}]",172905,1669844556323,eggsalad,cocktailshrimp,0.96,0.12,-0.84,eggsalad,1049,1059,1058,True,u,174464,1559,1669844557883,1560,HRV,HRV_0288,2022-11-30 21:46:15
79,"[{'imgObject': {}, 'id': 'mac & cheese', 'src': '/static/foodstim60/mac & cheese.jpg', 'key': 'u', 'origWidth': 410, 'origHeight': 410, 'width': 410, 'height': 410, 'widthPercent': 0.45, 'rescaleHeight': False, 'trialN': 79, 'loaded': True, 'loadedTime': 2834, 'positionName': 'LEFT', 'positionCoords': [204.4, 155], 'bid': 7.140000000000001}, {'imgObject': {}, 'id': 'bagel and cc', 'src': '/static/foodstim60/bagel and cc.jpg', 'key': 'i', 'origWidth': 410, 'origHeight': 410, 'width': 410, 'height': 410, 'widthPercent': 0.45, 'rescaleHeight': False, 'trialN': 79, 'loaded': True, 'loadedTime': 2878, 'positionName': 'RIGHT', 'positionCoords': [665.6, 155], 'bid': 6.98}]",174465,1669844557883,mac & cheese,bagel and cc,7.140000000000001,6.98,-0.16000000000000014,bagel and cc,2219,2227,2227,True,i,177196,2731,1669844560614,2731,HRV,HRV_0288,2022-11-30 21:46:15
80,"[{'imgObject': {}, 'id': 'corn cob', 'src': '/static/foodstim60/corn cob.jpg', 'key': 'u', 'origWidth': 411, 'origHeight': 411, 'width': 411, 'height': 411, 'widthPercent': 0.45, 'rescaleHeight': False, 'trialN': 80, 'loaded': True, 'loadedTime': 2880, 'positionName': 'LEFT', 'positionCoords': [203.4, 154.5], 'bid': 7.76}, {'imgObject': {}, 'id': 'hotdog w must', 'src': '/static/foodstim60/hotdog w must.jpg', 'key': 'i', 'origWidth': 409, 'origHeight': 409, 'width': 409, 'height': 409, 'widthPercent': 0.45, 'rescaleHeight': False, 'trialN': 80, 'loaded': True, 'loadedTime': 2896, 'positionName': 'RIGHT', 'positionCoords': [665.6, 155.5], 'bid': 0.26}]",177196,1669844560614,corn cob,hotdog w must,7.76,0.26,-7.5,corn cob,1250,1264,1264,True,u,178965,1769,1669844562383,1769,HRV,HRV_0288,2022-11-30 21:46:15
81,"[{'imgObject': {}, 'id': 'corn cob', 'src': '/static/foodstim60/corn cob.jpg', 'key': 'u', 'origWidth': 411, 'origHeight': 411, 'width': 411, 'height': 411, 'widthPercent': 0.45, 'rescaleHeight': False, 'trialN': 81, 'loaded': True, 'loadedTime': 2880, 'positionName': 'LEFT', 'positionCoords': [203.4, 154.5], 'bid': 7.76}, {'imgObject': {}, 'id': 'strawberries', 'src': '/static/foodstim60/strawberries.jpg', 'key': 'i', 'origWidth': 410, 'origHeight': 410, 'width': 410, 'height': 410, 'widthPercent': 0.45, 'rescaleHeight': False, 'trialN': 81, 'loaded': True, 'loadedTime': 2877, 'positionName': 'RIGHT', 'positionCoords': [665.6, 155], 'bid': 6.93}]",178965,1669844562383,corn cob,strawberries,7.76,6.93,-0.8300000000000001,corn cob,2290,2311,2310,True,u,181785,2820,1669844565203,2820,HRV,HRV_0288,2022-11-30 21:46:15
82,"[{'imgObject': {}, 'id': 'edamame', 'src': '/static/foodstim60/edamame.jpg', 'key': 'u', 'origWidth': 409, 'origHeight': 410, 'width': 409, 'height': 410, 'widthPercent': 0.45, 'rescaleHeight': False, 'trialN': 82, 'loaded': True, 'loadedTime': 2873, 'positionName': 'LEFT', 'positionCoords': [205.4, 155], 'bid': 1.2}, {'imgObject': {}, 'id': 'seaweed', 'src': '/static/foodstim60/seaweed.jpg', 'key': 'i', 'origWidth': 410, 'origHeight': 410, 'width': 410, 'height': 410, 'widthPercent': 0.45, 'rescaleHeight': False, 'trialN': 82, 'loaded': True, 'loadedTime': 2861, 'positionName': 'RIGHT', 'positionCoords': [665.6, 155], 'bid': 6.8100000000000005}]",181785,1669844565203,edamame,seaweed,1.2,6.8100000000000005,5.61,seaweed,1108,1123,1123,True,i,183415,1630,1669844566833,1630,HRV,HRV_0288,2022-11-30 21:46:15
83,"[{'imgObject': {}, 'id': 'ice cream sundae 002', 'src': '/static/foodstim60/ice cream sundae 002.jpg', 'key': 'u', 'origWidth': 409, 'origHeight': 409, 'width': 409, 'height': 409, 'widthPercent': 0.45, 'rescaleHeight': False, 'trialN': 83, 'loaded': True, 'loadedTime': 2840, 'positionName': 'LEFT', 'positionCoords': [205.4, 155.5], 'bid': 9.64}, {'imgObject': {}, 'id': 'roastedpotatoes', 'src': '/static/foodstim60/roastedpotatoes.jpg', 'key': 'i', 'origWidth': 409, 'origHeight': 410, 'width': 409, 'height': 410, 'widthPercent': 0.45, 'rescaleHeight': False, 'trialN': 83, 'loaded': True, 'loadedTime': 2855, 'positionName': 'RIGHT', 'positionCoords': [665.6, 155], 'bid': 9.2}]",183415,1669844566833,ice cream sundae 002,roastedpotatoes,9.64,9.2,-0.4400000000000013,ice cream sundae 002,1429,1436,1437,True,u,185354,1939,1669844568773,1940,HRV,HRV_0288,2022-11-30 21:46:15
84,"[{'imgObject': {}, 'id': 'shreddedwheatwithmilk', 'src': '/static/foodstim60/shreddedwheatwithmilk.jpg', 'key': 'u', 'origWidth': 410, 'origHeight': 410, 'width': 410, 'height': 410, 'widthPercent': 0.45, 'rescaleHeight': False, 'trialN': 84, 'loaded': True, 'loadedTime': 2858, 'positionName': 'LEFT', 'positionCoords': [204.4, 155], 'bid': 1.45}, {'imgObject': {}, 'id': 'raisin bran w milk', 'src': '/static/foodstim60/raisin bran w milk.jpg', 'key': 'i', 'origWidth': 411, 'origHeight': 411, 'width': 411, 'height': 411, 'widthPercent': 0.45, 'rescaleHeight': False, 'trialN': 84, 'loaded': True, 'loadedTime': 2819, 'positionName': 'RIGHT', 'positionCoords': [665.6, 154.5], 'bid': 5.95}]",185355,1669844568773,shreddedwheatwithmilk,raisin bran w milk,1.45,5.95,4.5,raisin bran w milk,1297,1304,1305,True,i,187164,1809,1669844570583,1810,HRV,HRV_0288,2022-11-30 21:46:15
85,"[{'imgObject': {}, 'id': 'salad w chicken', 'src': '/static/foodstim60/salad w chicken.jpg', 'key': 'u', 'origWidth': 411, 'origHeight': 411, 'width': 411, 'height': 411, 'widthPercent': 0.45, 'rescaleHeight': False, 'trialN': 85, 'loaded': True, 'loadedTime': 2899, 'positionName': 'LEFT', 'positionCoords': [203.4, 154.5], 'bid': 8.73}, {'imgObject': {}, 'id': 'burrito', 'src': '/static/foodstim60/burrito.jpg', 'key': 'i', 'origWidth': 410, 'origHeight': 410, 'width': 410, 'height': 410, 'widthPercent': 0.45, 'rescaleHeight': False, 'trialN': 85, 'loaded': True, 'loadedTime': 2829, 'positionName': 'RIGHT', 'positionCoords': [665.6, 155], 'bid': 9.5}]",187164,1669844570583,salad w chicken,burrito,8.73,9.5,0.7699999999999996,burrito,1501,1519,1519,True,i,189185,2021,1669844572603,2020,HRV,HRV_0288,2022-11-30 21:46:15
86,"[{'imgObject': {}, 'id': 'raspberries', 'src': '/static/foodstim60/raspberries.jpg', 'key': 'u', 'origWidth': 411, 'origHeight': 411, 'width': 411, 'height': 411, 'widthPercent': 0.45, 'rescaleHeight': False, 'trialN': 86, 'loaded': True, 'loadedTime': 2865, 'positionName': 'LEFT', 'positionCoords': [203.4, 154.5], 'bid': 7.32}, {'imgObject': {}, 'id': 'mango', 'src': '/static/foodstim60/mango.jpg', 'key': 'i', 'origWidth': 411, 'origHeight': 411, 'width': 411, 'height': 411, 'widthPercent': 0.45, 'rescaleHeight': False, 'trialN': 86, 'loaded': True, 'loadedTime': 2894, 'positionName': 'RIGHT', 'positionCoords': [665.6, 154.5], 'bid': 8.89}]",189185,1669844572603,raspberries,mango,7.32,8.89,1.5700000000000003,mango,1601,1611,1610,True,i,191305,2120,1669844574723,2120,HRV,HRV_0288,2022-11-30 21:46:15
87,"[{'imgObject': {}, 'id': 'banana', 'src': '/static/foodstim60/banana.jpg', 'key': 'u', 'origWidth': 410, 'origHeight': 410, 'width': 410, 'height': 410, 'widthPercent': 0.45, 'rescaleHeight': False, 'trialN': 87, 'loaded': True, 'loadedTime': 2839, 'positionName': 'LEFT', 'positionCoords': [204.4, 155], 'bid': 6.09}, {'imgObject': {}, 'id': 'sweetpotato', 'src': '/static/foodstim60/sweetpotato.jpg', 'key': 'i', 'origWidth': 410, 'origHeight': 410, 'width': 410, 'height': 410, 'widthPercent': 0.45, 'rescaleHeight': False, 'trialN': 87, 'loaded': True, 'loadedTime': 2828, 'positionName': 'RIGHT', 'positionCoords': [665.6, 155], 'bid': 7.32}]",191305,1669844574723,banana,sweetpotato,6.09,7.32,1.2300000000000004,sweetpotato,1540,1555,1554,True,i,193365,2060,1669844576783,2060,HRV,HRV_0288,2022-11-30 21:46:15
88,"[{'imgObject': {}, 'id': 'banana', 'src': '/static/foodstim60/banana.jpg', 'key': 'u', 'origWidth': 410, 'origHeight': 410, 'width': 410, 'height': 410, 'widthPercent': 0.45, 'rescaleHeight': False, 'trialN': 88, 'loaded': True, 'loadedTime': 2839, 'positionName': 'LEFT', 'positionCoords': [204.4, 155], 'bid': 6.09}, {'imgObject': {}, 'id': 'fried eggs', 'src': '/static/foodstim60/fried eggs.jpg', 'key': 'i', 'origWidth': 410, 'origHeight': 410, 'width': 410, 'height': 410, 'widthPercent': 0.45, 'rescaleHeight': False, 'trialN': 88, 'loaded': True, 'loadedTime': 2899, 'positionName': 'RIGHT', 'positionCoords': [665.6, 155], 'bid': 5.98}]",193365,1669844576783,banana,fried eggs,6.09,5.98,-0.10999999999999943,fried eggs,1930,1943,1943,True,i,195808,2443,1669844579226,2443,HRV,HRV_0288,2022-11-30 21:46:15
89,"[{'imgObject': {}, 'id': 'turkeysandwich', 'src': '/static/foodstim60/turkeysandwich.jpg', 'key': 'u', 'origWidth': 409, 'origHeight': 409, 'width': 409, 'height': 409, 'widthPercent': 0.45, 'rescaleHeight': False, 'trialN': 89, 'loaded': True, 'loadedTime': 2868, 'positionName': 'LEFT', 'positionCoords': [205.4, 155.5], 'bid': 8.5}, {'imgObject': {}, 'id': 'yogurt no spoon', 'src': '/static/foodstim60/yogurt no spoon.jpg', 'key': 'i', 'origWidth': 411, 'origHeight': 410, 'width': 411, 'height': 410, 'widthPercent': 0.45, 'rescaleHeight': False, 'trialN': 89, 'loaded': True, 'loadedTime': 2852, 'positionName': 'RIGHT', 'positionCoords': [665.6, 155], 'bid': 9.26}]",195808,1669844579226,turkeysandwich,yogurt no spoon,8.5,9.26,0.7599999999999998,turkeysandwich,2076,2083,2083,True,u,198398,2590,1669844581816,2590,HRV,HRV_0288,2022-11-30 21:46:15
90,"[{'imgObject': {}, 'id': 'cocktailshrimp', 'src': '/static/foodstim60/cocktailshrimp.jpg', 'key': 'u', 'origWidth': 410, 'origHeight': 410, 'width': 410, 'height': 410, 'widthPercent': 0.45, 'rescaleHeight': False, 'trialN': 90, 'loaded': True, 'loadedTime': 2895, 'positionName': 'LEFT', 'positionCoords': [204.4, 155], 'bid': 0.12}, {'imgObject': {}, 'id': 'shreddedwheatwithmilk', 'src': '/static/foodstim60/shreddedwheatwithmilk.jpg', 'key': 'i', 'origWidth': 410, 'origHeight': 410, 'width': 410, 'height': 410, 'widthPercent': 0.45, 'rescaleHeight': False, 'trialN': 90, 'loaded': True, 'loadedTime': 2859, 'positionName': 'RIGHT', 'positionCoords': [665.6, 155], 'bid': 1.45}]",202737,1669844586156,cocktailshrimp,shreddedwheatwithmilk,0.12,1.45,1.33,shreddedwheatwithmilk,1573,1584,1585,True,i,204828,2091,1669844588245,2089,HRV,HRV_0288,2022-11-30 21:46:15
91,"[{'imgObject': {}, 'id': 'chickenfingers', 'src': '/static/foodstim60/chickenfingers.jpg', 'key': 'u', 'origWidth': 410, 'origHeight': 410, 'width': 410, 'height': 410, 'widthPercent': 0.45, 'rescaleHeight': False, 'trialN': 91, 'loaded': True, 'loadedTime': 2853, 'positionName': 'LEFT', 'positionCoords': [204.4, 155], 'bid': 9.35}, {'imgObject': {}, 'id': 'orange slices', 'src': '/static/foodstim60/orange slices.jpg', 'key': 'i', 'origWidth': 409, 'origHeight': 410, 'width': 409, 'height': 410, 'widthPercent': 0.45, 'rescaleHeight': False, 'trialN': 91, 'loaded': True, 'loadedTime': 2823, 'positionName': 'RIGHT', 'positionCoords': [665.6, 155], 'bid': 7.92}]",204828,1669844588246,chickenfingers,orange slices,9.35,7.92,-1.4299999999999997,chickenfingers,1339,1359,1358,True,u,206687,1859,1669844590105,1859,HRV,HRV_0288,2022-11-30 21:46:15
92,"[{'imgObject': {}, 'id': 'apple slices', 'src': '/static/foodstim60/apple slices.jpg', 'key': 'u', 'origWidth': 409, 'origHeight': 410, 'width': 409, 'height': 410, 'widthPercent': 0.45, 'rescaleHeight': False, 'trialN': 92, 'loaded': True, 'loadedTime': 2851, 'positionName': 'LEFT', 'positionCoords': [205.4, 155], 'bid': 7.26}, {'imgObject': {}, 'id': 'turkey sandwich', 'src': '/static/foodstim60/turkey sandwich.jpg', 'key': 'i', 'origWidth': 409, 'origHeight': 409, 'width': 409, 'height': 409, 'widthPercent': 0.45, 'rescaleHeight': False, 'trialN': 92, 'loaded': True, 'loadedTime': 2836, 'positionName': 'RIGHT', 'positionCoords': [665.6, 155.5], 'bid': 8.67}]",206687,1669844590105,apple slices,turkey sandwich,7.26,8.67,1.4100000000000001,turkey sandwich,1211,1212,1212,True,i,208407,1720,1669844591826,1721,HRV,HRV_0288,2022-11-30 21:46:15
93,"[{'imgObject': {}, 'id': 'orange slices', 'src': '/static/foodstim60/orange slices.jpg', 'key': 'u', 'origWidth': 409, 'origHeight': 410, 'width': 409, 'height': 410, 'widthPercent': 0.45, 'rescaleHeight': False, 'trialN': 93, 'loaded': True, 'loadedTime': 2823, 'positionName': 'LEFT', 'positionCoords': [205.4, 155], 'bid': 7.92}, {'imgObject': {}, 'id': 'eggsalad', 'src': '/static/foodstim60/eggsalad.jpg', 'key': 'i', 'origWidth': 410, 'origHeight': 409, 'width': 410, 'height': 409, 'widthPercent': 0.45, 'rescaleHeight': False, 'trialN': 93, 'loaded': True, 'loadedTime': 2845, 'positionName': 'RIGHT', 'positionCoords': [665.6, 155.5], 'bid': 0.96}]",208407,1669844591826,orange slices,eggsalad,7.92,0.96,-6.96,eggsalad,1051,1067,1068,True,i,209977,1570,1669844593395,1569,HRV,HRV_0288,2022-11-30 21:46:15
94,"[{'imgObject': {}, 'id': 'salad w chicken', 'src': '/static/foodstim60/salad w chicken.jpg', 'key': 'u', 'origWidth': 411, 'origHeight': 411, 'width': 411, 'height': 411, 'widthPercent': 0.45, 'rescaleHeight': False, 'trialN': 94, 'loaded': True, 'loadedTime': 2899, 'positionName': 'LEFT', 'positionCoords': [203.4, 154.5], 'bid': 8.73}, {'imgObject': {}, 'id': 'turkey sandwich', 'src': '/static/foodstim60/turkey sandwich.jpg', 'key': 'i', 'origWidth': 409, 'origHeight': 409, 'width': 409, 'height': 409, 'widthPercent': 0.45, 'rescaleHeight': False, 'trialN': 94, 'loaded': True, 'loadedTime': 2837, 'positionName': 'RIGHT', 'positionCoords': [665.6, 155.5], 'bid': 8.67}]",209977,1669844593395,salad w chicken,turkey sandwich,8.73,8.67,-0.0600000000000005,salad w chicken,3038,3050,3050,True,u,213529,3552,1669844596947,3552,HRV,HRV_0288,2022-11-30 21:46:15
95,"[{'imgObject': {}, 'id': 'froot loops w milk', 'src': '/static/foodstim60/froot loops w milk.jpg', 'key': 'u', 'origWidth': 410, 'origHeight': 410, 'width': 410, 'height': 410, 'widthPercent': 0.45, 'rescaleHeight': False, 'trialN': 95, 'loaded': True, 'loadedTime': 2846, 'positionName': 'LEFT', 'positionCoords': [204.4, 155], 'bid': 6.23}, {'imgObject': {}, 'id': 'kiwi', 'src': '/static/foodstim60/kiwi.jpg', 'key': 'i', 'origWidth': 410, 'origHeight': 410, 'width': 410, 'height': 410, 'widthPercent': 0.45, 'rescaleHeight': False, 'trialN': 95, 'loaded': True, 'loadedTime': 2864, 'positionName': 'RIGHT', 'positionCoords': [665.6, 155], 'bid': 6.12}]",213529,1669844596947,froot loops w milk,kiwi,6.23,6.12,-0.11000000000000032,kiwi,2371,2386,2385,True,i,216419,2890,1669844599837,2890,HRV,HRV_0288,2022-11-30 21:46:15
96,"[{'imgObject': {}, 'id': 'baked potato', 'src': '/static/foodstim60/baked potato.jpg', 'key': 'u', 'origWidth': 409, 'origHeight': 410, 'width': 409, 'height': 410, 'widthPercent': 0.45, 'rescaleHeight': False, 'trialN': 96, 'loaded': True, 'loadedTime': 2860, 'positionName': 'LEFT', 'positionCoords': [205.4, 155], 'bid': 7.31}, {'imgObject': {}, 'id': 'salad w chicken', 'src': '/static/foodstim60/salad w chicken.jpg', 'key': 'i', 'origWidth': 411, 'origHeight': 411, 'width': 411, 'height': 411, 'widthPercent': 0.45, 'rescaleHeight': False, 'trialN': 96, 'loaded': True, 'loadedTime': 2899, 'positionName': 'RIGHT', 'positionCoords': [665.6, 154.5], 'bid': 8.73}]",216419,1669844599837,baked potato,salad w chicken,7.31,8.73,1.4200000000000008,salad w chicken,2899,2911,2912,True,i,219831,3412,1669844603249,3412,HRV,HRV_0288,2022-11-30 21:46:15
97,"[{'imgObject': {}, 'id': 'apple slices', 'src': '/static/foodstim60/apple slices.jpg', 'key': 'u', 'origWidth': 409, 'origHeight': 410, 'width': 409, 'height': 410, 'widthPercent': 0.45, 'rescaleHeight': False, 'trialN': 97, 'loaded': True, 'loadedTime': 2851, 'positionName': 'LEFT', 'positionCoords': [205.4, 155], 'bid': 7.26}, {'imgObject': {}, 'id': 'froot loops w milk', 'src': '/static/foodstim60/froot loops w milk.jpg', 'key': 'i', 'origWidth': 410, 'origHeight': 410, 'width': 410, 'height': 410, 'widthPercent': 0.45, 'rescaleHeight': False, 'trialN': 97, 'loaded': True, 'loadedTime': 2846, 'positionName': 'RIGHT', 'positionCoords': [665.6, 155], 'bid': 6.23}]",219831,1669844603250,apple slices,froot loops w milk,7.26,6.23,-1.0299999999999994,apple slices,1654,1658,1659,True,u,221994,2163,1669844605413,2163,HRV,HRV_0288,2022-11-30 21:46:15
98,"[{'imgObject': {}, 'id': 'salad w chicken', 'src': '/static/foodstim60/salad w chicken.jpg', 'key': 'u', 'origWidth': 411, 'origHeight': 411, 'width': 411, 'height': 411, 'widthPercent': 0.45, 'rescaleHeight': False, 'trialN': 98, 'loaded': True, 'loadedTime': 2899, 'positionName': 'LEFT', 'positionCoords': [203.4, 154.5], 'bid': 8.73}, {'imgObject': {}, 'id': 'rigatoni and sauce', 'src': '/static/foodstim60/rigatoni and sauce.jpg', 'key': 'i', 'origWidth': 410, 'origHeight': 411, 'width': 410, 'height': 411, 'widthPercent': 0.45, 'rescaleHeight': False, 'trialN': 98, 'loaded': True, 'loadedTime': 2882, 'positionName': 'RIGHT', 'positionCoords': [665.6, 154.5], 'bid': 4.98}]",221996,1669844605414,salad w chicken,rigatoni and sauce,8.73,4.98,-3.75,salad w chicken,1595,1606,1607,True,u,224105,2109,1669844607523,2109,HRV,HRV_0288,2022-11-30 21:46:15
99,"[{'imgObject': {}, 'id': 'burger', 'src': '/static/foodstim60/burger.jpg', 'key': 'u', 'origWidth': 409, 'origHeight': 409, 'width': 409, 'height': 409, 'widthPercent': 0.45, 'rescaleHeight': False, 'trialN': 99, 'loaded': True, 'loadedTime': 2815, 'positionName': 'LEFT', 'positionCoords': [205.4, 155.5], 'bid': 8.35}, {'imgObject': {}, 'id': 'chicken nuggets2', 'src': '/static/foodstim60/chicken nuggets2.jpg', 'key': 'i', 'origWidth': 410, 'origHeight': 409, 'width': 410, 'height': 409, 'widthPercent': 0.45, 'rescaleHeight': False, 'trialN': 99, 'loaded': True, 'loadedTime': 2822, 'positionName': 'RIGHT', 'positionCoords': [665.6, 155.5], 'bid': 8.03}]",224105,1669844607523,burger,chicken nuggets2,8.35,8.03,-0.3200000000000003,chicken nuggets2,1483,1498,1497,True,i,226112,2007,1669844609531,2008,HRV,HRV_0288,2022-11-30 21:46:15
100,"[{'imgObject': {}, 'id': 'cherry tomato', 'src': '/static/foodstim60/cherry tomato.jpg', 'key': 'u', 'origWidth': 410, 'origHeight': 410, 'width': 410, 'height': 410, 'widthPercent': 0.45, 'rescaleHeight': False, 'trialN': 100, 'loaded': True, 'loadedTime': 2884, 'positionName': 'LEFT', 'positionCoords': [204.4, 155], 'bid': 0.04}, {'imgObject': {}, 'id': 'blackbeanswithrice', 'src': '/static/foodstim60/blackbeanswithrice.jpg', 'key': 'i', 'origWidth': 410, 'origHeight': 410, 'width': 410, 'height': 410, 'widthPercent': 0.45, 'rescaleHeight': False, 'trialN': 100, 'loaded': True, 'loadedTime': 2841, 'positionName': 'RIGHT', 'positionCoords': [665.6, 155], 'bid': 0.21}]",226112,1669844609531,cherry tomato,blackbeanswithrice,0.04,0.21,0.16999999999999998,blackbeanswithrice,2160,2178,2179,True,i,228795,2683,1669844612213,2682,HRV,HRV_0288,2022-11-30 21:46:15
101,"[{'imgObject': {}, 'id': 'steak', 'src': '/static/foodstim60/steak.jpg', 'key': 'u', 'origWidth': 410, 'origHeight': 410, 'width': 410, 'height': 410, 'widthPercent': 0.45, 'rescaleHeight': False, 'trialN': 101, 'loaded': True, 'loadedTime': 2897, 'positionName': 'LEFT', 'positionCoords': [204.4, 155], 'bid': 9.79}, {'imgObject': {}, 'id': 'turkeysandwich', 'src': '/static/foodstim60/turkeysandwich.jpg', 'key': 'i', 'origWidth': 409, 'origHeight': 409, 'width': 409, 'height': 409, 'widthPercent': 0.45, 'rescaleHeight': False, 'trialN': 101, 'loaded': True, 'loadedTime': 2869, 'positionName': 'RIGHT', 'positionCoords': [665.6, 155.5], 'bid': 8.5}]",228795,1669844612214,steak,turkeysandwich,9.79,8.5,-1.2899999999999991,steak,2020,2022,2023,True,u,231325,2530,1669844614743,2529,HRV,HRV_0288,2022-11-30 21:46:15
102,"[{'imgObject': {}, 'id': 'Grapes', 'src': '/static/foodstim60/Grapes.jpg', 'key': 'u', 'origWidth': 411, 'origHeight': 411, 'width': 411, 'height': 411, 'widthPercent': 0.45, 'rescaleHeight': False, 'trialN': 102, 'loaded': True, 'loadedTime': 2832, 'positionName': 'LEFT', 'positionCoords': [203.4, 154.5], 'bid': 7.82}, {'imgObject': {}, 'id': 'pear', 'src': '/static/foodstim60/pear.jpg', 'key': 'i', 'origWidth': 411, 'origHeight': 410, 'width': 411, 'height': 410, 'widthPercent': 0.45, 'rescaleHeight': False, 'trialN': 102, 'loaded': True, 'loadedTime': 2849, 'positionName': 'RIGHT', 'positionCoords': [665.6, 155], 'bid': 7.79}]",231325,1669844614743,Grapes,pear,7.82,7.79,-0.03000000000000025,pear,2329,2342,2341,True,i,234174,2849,1669844617593,2850,HRV,HRV_0288,2022-11-30 21:46:15
103,"[{'imgObject': {}, 'id': 'rigatoni', 'src': '/static/foodstim60/rigatoni.jpg', 'key': 'u', 'origWidth': 411, 'origHeight': 411, 'width': 411, 'height': 411, 'widthPercent': 0.45, 'rescaleHeight': False, 'trialN': 103, 'loaded': True, 'loadedTime': 2871, 'positionName': 'LEFT', 'positionCoords': [203.4, 154.5], 'bid': 0.07}, {'imgObject': {}, 'id': 'baked potato', 'src': '/static/foodstim60/baked potato.jpg', 'key': 'i', 'origWidth': 409, 'origHeight': 410, 'width': 409, 'height': 410, 'widthPercent': 0.45, 'rescaleHeight': False, 'trialN': 103, 'loaded': True, 'loadedTime': 2860, 'positionName': 'RIGHT', 'positionCoords': [665.6, 155], 'bid': 7.31}]",234174,1669844617593,rigatoni,baked potato,0.07,7.31,7.239999999999999,baked potato,1039,1043,1044,True,i,235725,1551,1669844619143,1550,HRV,HRV_0288,2022-11-30 21:46:15
104,"[{'imgObject': {}, 'id': 'hotdog w must', 'src': '/static/foodstim60/hotdog w must.jpg', 'key': 'u', 'origWidth': 409, 'origHeight': 409, 'width': 409, 'height': 409, 'widthPercent': 0.45, 'rescaleHeight': False, 'trialN': 104, 'loaded': True, 'loadedTime': 2896, 'positionName': 'LEFT', 'positionCoords': [205.4, 155.5], 'bid': 0.26}, {'imgObject': {}, 'id': 'sushi w_condiments', 'src': '/static/foodstim60/sushi w_condiments.jpg', 'key': 'i', 'origWidth': 410, 'origHeight': 410, 'width': 410, 'height': 410, 'widthPercent': 0.45, 'rescaleHeight': False, 'trialN': 104, 'loaded': True, 'loadedTime': 2876, 'positionName': 'RIGHT', 'positionCoords': [665.6, 155], 'bid': 0.07}]",235725,1669844619143,hotdog w must,sushi w_condiments,0.26,0.07,-0.19,hotdog w must,1689,1701,1701,True,u,237935,2210,1669844621353,2210,HRV,HRV_0288,2022-11-30 21:46:15
105,"[{'imgObject': {}, 'id': 'cherry tomato', 'src': '/static/foodstim60/cherry tomato.jpg', 'key': 'u', 'origWidth': 410, 'origHeight': 410, 'width': 410, 'height': 410, 'widthPercent': 0.45, 'rescaleHeight': False, 'trialN': 105, 'loaded': True, 'loadedTime': 2884, 'positionName': 'LEFT', 'positionCoords': [204.4, 155], 'bid': 0.04}, {'imgObject': {}, 'id': 'salmon', 'src': '/static/foodstim60/salmon.jpg', 'key': 'i', 'origWidth': 410, 'origHeight': 409, 'width': 410, 'height': 409, 'widthPercent': 0.45, 'rescaleHeight': False, 'trialN': 105, 'loaded': True, 'loadedTime': 2881, 'positionName': 'RIGHT', 'positionCoords': [665.6, 155.5], 'bid': 7.25}]",237935,1669844621353,cherry tomato,salmon,0.04,7.25,7.21,salmon,1116,1139,1139,True,i,239575,1640,1669844622993,1640,HRV,HRV_0288,2022-11-30 21:46:15
106,"[{'imgObject': {}, 'id': 'yogurt no spoon', 'src': '/static/foodstim60/yogurt no spoon.jpg', 'key': 'u', 'origWidth': 411, 'origHeight': 410, 'width': 411, 'height': 410, 'widthPercent': 0.45, 'rescaleHeight': False, 'trialN': 106, 'loaded': True, 'loadedTime': 2852, 'positionName': 'LEFT', 'positionCoords': [203.4, 155], 'bid': 9.26}, {'imgObject': {}, 'id': 'kiwi', 'src': '/static/foodstim60/kiwi.jpg', 'key': 'i', 'origWidth': 410, 'origHeight': 410, 'width': 410, 'height': 410, 'widthPercent': 0.45, 'rescaleHeight': False, 'trialN': 106, 'loaded': True, 'loadedTime': 2864, 'positionName': 'RIGHT', 'positionCoords': [665.6, 155], 'bid': 6.12}]",239575,1669844622993,yogurt no spoon,kiwi,9.26,6.12,-3.1399999999999997,yogurt no spoon,1067,1091,1091,True,u,241167,1592,1669844624585,1592,HRV,HRV_0288,2022-11-30 21:46:15
107,"[{'imgObject': {}, 'id': 'turkey sandwich', 'src': '/static/foodstim60/turkey sandwich.jpg', 'key': 'u', 'origWidth': 409, 'origHeight': 409, 'width': 409, 'height': 409, 'widthPercent': 0.45, 'rescaleHeight': False, 'trialN': 107, 'loaded': True, 'loadedTime': 2837, 'positionName': 'LEFT', 'positionCoords': [205.4, 155.5], 'bid': 8.67}, {'imgObject': {}, 'id': 'cantaloupe', 'src': '/static/foodstim60/cantaloupe.jpg', 'key': 'i', 'origWidth': 409, 'origHeight': 409, 'width': 409, 'height': 409, 'widthPercent': 0.45, 'rescaleHeight': False, 'trialN': 107, 'loaded': True, 'loadedTime': 2831, 'positionName': 'RIGHT', 'positionCoords': [665.6, 155.5], 'bid': 9.37}]",241167,1669844624585,turkey sandwich,cantaloupe,8.67,9.37,0.6999999999999993,turkey sandwich,1208,1227,1226,True,u,242896,1729,1669844626315,1730,HRV,HRV_0288,2022-11-30 21:46:15
108,"[{'imgObject': {}, 'id': 'cantaloupe', 'src': '/static/foodstim60/cantaloupe.jpg', 'key': 'u', 'origWidth': 409, 'origHeight': 409, 'width': 409, 'height': 409, 'widthPercent': 0.45, 'rescaleHeight': False, 'trialN': 108, 'loaded': True, 'loadedTime': 2831, 'positionName': 'LEFT', 'positionCoords': [205.4, 155.5], 'bid': 9.37}, {'imgObject': {}, 'id': 'fruitsalad', 'src': '/static/foodstim60/fruitsalad.jpg', 'key': 'i', 'origWidth': 410, 'origHeight': 410, 'width': 410, 'height': 410, 'widthPercent': 0.45, 'rescaleHeight': False, 'trialN': 108, 'loaded': True, 'loadedTime': 2892, 'positionName': 'RIGHT', 'positionCoords': [665.6, 155], 'bid': 8.93}]",242896,1669844626315,cantaloupe,fruitsalad,9.37,8.93,-0.4399999999999995,cantaloupe,1117,1121,1122,True,u,244526,1630,1669844627945,1630,HRV,HRV_0288,2022-11-30 21:46:15
109,"[{'imgObject': {}, 'id': 'fried eggs', 'src': '/static/foodstim60/fried eggs.jpg', 'key': 'u', 'origWidth': 410, 'origHeight': 410, 'width': 410, 'height': 410, 'widthPercent': 0.45, 'rescaleHeight': False, 'trialN': 109, 'loaded': True, 'loadedTime': 2900, 'positionName': 'LEFT', 'positionCoords': [204.4, 155], 'bid': 5.98}, {'imgObject': {}, 'id': 'eggs', 'src': '/static/foodstim60/eggs.jpg', 'key': 'i', 'origWidth': 409, 'origHeight': 409, 'width': 409, 'height': 409, 'widthPercent': 0.45, 'rescaleHeight': False, 'trialN': 109, 'loaded': True, 'loadedTime': 2867, 'positionName': 'RIGHT', 'positionCoords': [665.6, 155.5], 'bid': 3.93}]",244527,1669844627945,fried eggs,eggs,5.98,3.93,-2.0500000000000003,fried eggs,1449,1450,1450,True,u,246486,1959,1669844629905,1960,HRV,HRV_0288,2022-11-30 21:46:15
110,"[{'imgObject': {}, 'id': 'veggieswithdip', 'src': '/static/foodstim60/veggieswithdip.jpg', 'key': 'u', 'origWidth': 409, 'origHeight': 409, 'width': 409, 'height': 409, 'widthPercent': 0.45, 'rescaleHeight': False, 'trialN': 110, 'loaded': True, 'loadedTime': 2888, 'positionName': 'LEFT', 'positionCoords': [205.4, 155.5], 'bid': 8.07}, {'imgObject': {}, 'id': 'hashbrowns', 'src': '/static/foodstim60/hashbrowns.jpg', 'key': 'i', 'origWidth': 411, 'origHeight': 410, 'width': 411, 'height': 410, 'widthPercent': 0.45, 'rescaleHeight': False, 'trialN': 110, 'loaded': True, 'loadedTime': 2857, 'positionName': 'RIGHT', 'positionCoords': [665.6, 155], 'bid': 1.25}]",246486,1669844629905,veggieswithdip,hashbrowns,8.07,1.25,-6.82,veggieswithdip,1332,1347,1348,True,u,248336,1850,1669844631755,1850,HRV,HRV_0288,2022-11-30 21:46:15
111,"[{'imgObject': {}, 'id': 'blackbeanswithrice', 'src': '/static/foodstim60/blackbeanswithrice.jpg', 'key': 'u', 'origWidth': 410, 'origHeight': 410, 'width': 410, 'height': 410, 'widthPercent': 0.45, 'rescaleHeight': False, 'trialN': 111, 'loaded': True, 'loadedTime': 2841, 'positionName': 'LEFT', 'positionCoords': [204.4, 155], 'bid': 0.21}, {'imgObject': {}, 'id': 'hotdog w must', 'src': '/static/foodstim60/hotdog w must.jpg', 'key': 'i', 'origWidth': 409, 'origHeight': 409, 'width': 409, 'height': 409, 'widthPercent': 0.45, 'rescaleHeight': False, 'trialN': 111, 'loaded': True, 'loadedTime': 2896, 'positionName': 'RIGHT', 'positionCoords': [665.6, 155.5], 'bid': 0.26}]",248336,1669844631755,blackbeanswithrice,hotdog w must,0.21,0.26,0.05000000000000002,blackbeanswithrice,2196,2209,2210,True,u,251046,2710,1669844634464,2709,HRV,HRV_0288,2022-11-30 21:46:15
112,"[{'imgObject': {}, 'id': 'raisin bran w milk', 'src': '/static/foodstim60/raisin bran w milk.jpg', 'key': 'u', 'origWidth': 411, 'origHeight': 411, 'width': 411, 'height': 411, 'widthPercent': 0.45, 'rescaleHeight': False, 'trialN': 112, 'loaded': True, 'loadedTime': 2819, 'positionName': 'LEFT', 'positionCoords': [203.4, 154.5], 'bid': 5.95}, {'imgObject': {}, 'id': 'fried eggs', 'src': '/static/foodstim60/fried eggs.jpg', 'key': 'i', 'origWidth': 410, 'origHeight': 410, 'width': 410, 'height': 410, 'widthPercent': 0.45, 'rescaleHeight': False, 'trialN': 112, 'loaded': True, 'loadedTime': 2900, 'positionName': 'RIGHT', 'positionCoords': [665.6, 155], 'bid': 5.98}]",251046,1669844634464,raisin bran w milk,fried eggs,5.95,5.98,0.03000000000000025,raisin bran w milk,3136,3155,3155,True,u,254706,3660,1669844638125,3661,HRV,HRV_0288,2022-11-30 21:46:15
113,"[{'imgObject': {}, 'id': 'ice cream sundae 002', 'src': '/static/foodstim60/ice cream sundae 002.jpg', 'key': 'u', 'origWidth': 409, 'origHeight': 409, 'width': 409, 'height': 409, 'widthPercent': 0.45, 'rescaleHeight': False, 'trialN': 113, 'loaded': True, 'loadedTime': 2840, 'positionName': 'LEFT', 'positionCoords': [205.4, 155.5], 'bid': 9.64}, {'imgObject': {}, 'id': 'cantaloupe', 'src': '/static/foodstim60/cantaloupe.jpg', 'key': 'i', 'origWidth': 409, 'origHeight': 409, 'width': 409, 'height': 409, 'widthPercent': 0.45, 'rescaleHeight': False, 'trialN': 113, 'loaded': True, 'loadedTime': 2831, 'positionName': 'RIGHT', 'positionCoords': [665.6, 155.5], 'bid': 9.37}]",254706,1669844638125,ice cream sundae 002,cantaloupe,9.64,9.37,-0.27000000000000135,ice cream sundae 002,1833,1847,1847,True,u,257058,2352,1669844640476,2351,HRV,HRV_0288,2022-11-30 21:46:15
114,"[{'imgObject': {}, 'id': 'popsicles', 'src': '/static/foodstim60/popsicles.jpg', 'key': 'u', 'origWidth': 410, 'origHeight': 410, 'width': 410, 'height': 410, 'widthPercent': 0.45, 'rescaleHeight': False, 'trialN': 114, 'loaded': True, 'loadedTime': 2890, 'positionName': 'LEFT', 'positionCoords': [204.4, 155], 'bid': 7.390000000000001}, {'imgObject': {}, 'id': 'raspberries', 'src': '/static/foodstim60/raspberries.jpg', 'key': 'i', 'origWidth': 411, 'origHeight': 411, 'width': 411, 'height': 411, 'widthPercent': 0.45, 'rescaleHeight': False, 'trialN': 114, 'loaded': True, 'loadedTime': 2865, 'positionName': 'RIGHT', 'positionCoords': [665.6, 154.5], 'bid': 7.32}]",257058,1669844640476,popsicles,raspberries,7.390000000000001,7.32,-0.07000000000000028,popsicles,3052,3056,3055,True,u,260620,3562,1669844644038,3562,HRV,HRV_0288,2022-11-30 21:46:15
115,"[{'imgObject': {}, 'id': 'salmon', 'src': '/static/foodstim60/salmon.jpg', 'key': 'u', 'origWidth': 410, 'origHeight': 409, 'width': 410, 'height': 409, 'widthPercent': 0.45, 'rescaleHeight': False, 'trialN': 115, 'loaded': True, 'loadedTime': 2881, 'positionName': 'LEFT', 'positionCoords': [204.4, 155.5], 'bid': 7.25}, {'imgObject': {}, 'id': 'kiwi', 'src': '/static/foodstim60/kiwi.jpg', 'key': 'i', 'origWidth': 410, 'origHeight': 410, 'width': 410, 'height': 410, 'widthPercent': 0.45, 'rescaleHeight': False, 'trialN': 115, 'loaded': True, 'loadedTime': 2864, 'positionName': 'RIGHT', 'positionCoords': [665.6, 155], 'bid': 6.12}]",260620,1669844644039,salmon,kiwi,7.25,6.12,-1.13,salmon,2860,2861,2861,True,u,263990,3370,1669844647408,3369,HRV,HRV_0288,2022-11-30 21:46:15
116,"[{'imgObject': {}, 'id': 'corn cob', 'src': '/static/foodstim60/corn cob.jpg', 'key': 'u', 'origWidth': 411, 'origHeight': 411, 'width': 411, 'height': 411, 'widthPercent': 0.45, 'rescaleHeight': False, 'trialN': 116, 'loaded': True, 'loadedTime': 2880, 'positionName': 'LEFT', 'positionCoords': [203.4, 154.5], 'bid': 7.76}, {'imgObject': {}, 'id': 'roastedpotatoes', 'src': '/static/foodstim60/roastedpotatoes.jpg', 'key': 'i', 'origWidth': 409, 'origHeight': 410, 'width': 409, 'height': 410, 'widthPercent': 0.45, 'rescaleHeight': False, 'trialN': 116, 'loaded': True, 'loadedTime': 2855, 'positionName': 'RIGHT', 'positionCoords': [665.6, 155], 'bid': 9.2}]",263990,1669844647409,corn cob,roastedpotatoes,7.76,9.2,1.4399999999999995,roastedpotatoes,1050,1067,1067,True,i,265563,1573,1669844648981,1572,HRV,HRV_0288,2022-11-30 21:46:15
117,"[{'imgObject': {}, 'id': 'shreddedwheatwithmilk', 'src': '/static/foodstim60/shreddedwheatwithmilk.jpg', 'key': 'u', 'origWidth': 410, 'origHeight': 410, 'width': 410, 'height': 410, 'widthPercent': 0.45, 'rescaleHeight': False, 'trialN': 117, 'loaded': True, 'loadedTime': 2859, 'positionName': 'LEFT', 'positionCoords': [204.4, 155], 'bid': 1.45}, {'imgObject': {}, 'id': 'turkeysandwich', 'src': '/static/foodstim60/turkeysandwich.jpg', 'key': 'i', 'origWidth': 409, 'origHeight': 409, 'width': 409, 'height': 409, 'widthPercent': 0.45, 'rescaleHeight': False, 'trialN': 117, 'loaded': True, 'loadedTime': 2869, 'positionName': 'RIGHT', 'positionCoords': [665.6, 155.5], 'bid': 8.5}]",265563,1669844648981,shreddedwheatwithmilk,turkeysandwich,1.45,8.5,7.05,turkeysandwich,1177,1189,1189,True,i,267253,1690,1669844650671,1690,HRV,HRV_0288,2022-11-30 21:46:15
118,"[{'imgObject': {}, 'id': 'sushi w_condiments', 'src': '/static/foodstim60/sushi w_condiments.jpg', 'key': 'u', 'origWidth': 410, 'origHeight': 410, 'width': 410, 'height': 410, 'widthPercent': 0.45, 'rescaleHeight': False, 'trialN': 118, 'loaded': True, 'loadedTime': 2876, 'positionName': 'LEFT', 'positionCoords': [204.4, 155], 'bid': 0.07}, {'imgObject': {}, 'id': 'Tribe humus pita', 'src': '/static/foodstim60/Tribe humus pita.jpg', 'key': 'i', 'origWidth': 411, 'origHeight': 411, 'width': 411, 'height': 411, 'widthPercent': 0.45, 'rescaleHeight': False, 'trialN': 118, 'loaded': True, 'loadedTime': 2827, 'positionName': 'RIGHT', 'positionCoords': [665.6, 154.5], 'bid': 0.1}]",267253,1669844650671,sushi w_condiments,Tribe humus pita,0.07,0.1,0.03,sushi w_condiments,1952,1964,1964,True,u,269723,2470,1669844653142,2471,HRV,HRV_0288,2022-11-30 21:46:15
