trialN,stimuli,question,trialStartTime,trialStartTime_UNIX,stimulus1,rt,receivedResponse,rating,trialEndTime,trialDuration,stimulus1Loaded,exp,subjectId,date
0,"[{'imgObject': {}, 'id': 'granola w milk', 'src': '/static/foodstim60/granola w milk.jpg', 'key': 'NaN', 'origWidth': 410, 'origHeight': 410, 'width': 410, 'height': 410, 'widthPercent': 0.8, 'rescaleHeight': True, 'trialN': 0, 'loaded': True, 'loadedTime': 1865, 'positionName': 'CENTER', 'positionCoords': [435, 155]}]",Rate how much you want to eat this food from 0 (least) to 10 (most).,1937,1669843906274,granola w milk,4036,True,5.98,5973,4036,True,HRV,HRV_0288,2022-11-30 21:34:42
1,"[{'imgObject': {}, 'id': 'omelette', 'src': '/static/foodstim60/omelette.jpg', 'key': 'NaN', 'origWidth': 410, 'origHeight': 409, 'width': 410, 'height': 409, 'widthPercent': 0.8, 'rescaleHeight': True, 'trialN': 1, 'loaded': True, 'loadedTime': 1867, 'positionName': 'CENTER', 'positionCoords': [435, 155.5]}]",Rate how much you want to eat this food from 0 (least) to 10 (most).,5983,1669843910319,omelette,2018,True,5.8500000000000005,8001,2018,True,HRV,HRV_0288,2022-11-30 21:34:42
2,"[{'imgObject': {}, 'id': 'olives', 'src': '/static/foodstim60/olives.jpg', 'key': 'NaN', 'origWidth': 410, 'origHeight': 410, 'width': 410, 'height': 410, 'widthPercent': 0.8, 'rescaleHeight': True, 'trialN': 2, 'loaded': True, 'loadedTime': 1868, 'positionName': 'CENTER', 'positionCoords': [435, 155]}]",Rate how much you want to eat this food from 0 (least) to 10 (most).,8016,1669843912351,olives,2310,True,0.4,10326,2310,True,HRV,HRV_0288,2022-11-30 21:34:42
3,"[{'imgObject': {}, 'id': 'strawberries', 'src': '/static/foodstim60/strawberries.jpg', 'key': 'NaN', 'origWidth': 410, 'origHeight': 410, 'width': 410, 'height': 410, 'widthPercent': 0.8, 'rescaleHeight': True, 'trialN': 3, 'loaded': True, 'loadedTime': 1869, 'positionName': 'CENTER', 'positionCoords': [435, 155]}]",Rate how much you want to eat this food from 0 (least) to 10 (most).,10336,1669843914671,strawberries,3609,True,6.93,13945,3609,True,HRV,HRV_0288,2022-11-30 21:34:42
4,"[{'imgObject': {}, 'id': 'sushi w_condiments', 'src': '/static/foodstim60/sushi w_condiments.jpg', 'key': 'NaN', 'origWidth': 410, 'origHeight': 410, 'width': 410, 'height': 410, 'widthPercent': 0.8, 'rescaleHeight': True, 'trialN': 4, 'loaded': True, 'loadedTime': 1871, 'positionName': 'CENTER', 'positionCoords': [435, 155]}]",Rate how much you want to eat this food from 0 (least) to 10 (most).,13968,1669843918304,sushi w_condiments,2161,True,0.07,16129,2161,True,HRV,HRV_0288,2022-11-30 21:34:42
5,"[{'imgObject': {}, 'id': 'avocado', 'src': '/static/foodstim60/avocado.jpg', 'key': 'NaN', 'origWidth': 409, 'origHeight': 409, 'width': 409, 'height': 409, 'widthPercent': 0.8, 'rescaleHeight': True, 'trialN': 5, 'loaded': True, 'loadedTime': 1872, 'positionName': 'CENTER', 'positionCoords': [435.5, 155.5]}]",Rate how much you want to eat this food from 0 (least) to 10 (most).,16151,1669843920487,avocado,1304,True,0.28,17455,1304,True,HRV,HRV_0288,2022-11-30 21:34:42
6,"[{'imgObject': {}, 'id': 'kiwi', 'src': '/static/foodstim60/kiwi.jpg', 'key': 'NaN', 'origWidth': 410, 'origHeight': 410, 'width': 410, 'height': 410, 'widthPercent': 0.8, 'rescaleHeight': True, 'trialN': 6, 'loaded': True, 'loadedTime': 1873, 'positionName': 'CENTER', 'positionCoords': [435, 155]}]",Rate how much you want to eat this food from 0 (least) to 10 (most).,17470,1669843921806,kiwi,2699,True,6.12,20169,2699,True,HRV,HRV_0288,2022-11-30 21:34:42
7,"[{'imgObject': {}, 'id': 'Tribe humus pita', 'src': '/static/foodstim60/Tribe humus pita.jpg', 'key': 'NaN', 'origWidth': 411, 'origHeight': 411, 'width': 411, 'height': 411, 'widthPercent': 0.8, 'rescaleHeight': True, 'trialN': 7, 'loaded': True, 'loadedTime': 1874, 'positionName': 'CENTER', 'positionCoords': [434.5, 154.5]}]",Rate how much you want to eat this food from 0 (least) to 10 (most).,20191,1669843924527,Tribe humus pita,2381,True,0.1,22572,2381,True,HRV,HRV_0288,2022-11-30 21:34:42
8,"[{'imgObject': {}, 'id': 'hotdog w must', 'src': '/static/foodstim60/hotdog w must.jpg', 'key': 'NaN', 'origWidth': 409, 'origHeight': 409, 'width': 409, 'height': 409, 'widthPercent': 0.8, 'rescaleHeight': True, 'trialN': 8, 'loaded': True, 'loadedTime': 1876, 'positionName': 'CENTER', 'positionCoords': [435.5, 155.5]}]",Rate how much you want to eat this food from 0 (least) to 10 (most).,22582,1669843926917,hotdog w must,2360,True,0.26,24942,2360,True,HRV,HRV_0288,2022-11-30 21:34:42
9,"[{'imgObject': {}, 'id': 'burrito', 'src': '/static/foodstim60/burrito.jpg', 'key': 'NaN', 'origWidth': 410, 'origHeight': 410, 'width': 410, 'height': 410, 'widthPercent': 0.8, 'rescaleHeight': True, 'trialN': 9, 'loaded': True, 'loadedTime': 1878, 'positionName': 'CENTER', 'positionCoords': [435, 155]}]",Rate how much you want to eat this food from 0 (least) to 10 (most).,24967,1669843929302,burrito,2378,True,9.5,27345,2378,True,HRV,HRV_0288,2022-11-30 21:34:42
10,"[{'imgObject': {}, 'id': 'roastedpotatoes', 'src': '/static/foodstim60/roastedpotatoes.jpg', 'key': 'NaN', 'origWidth': 409, 'origHeight': 410, 'width': 409, 'height': 410, 'widthPercent': 0.8, 'rescaleHeight': True, 'trialN': 10, 'loaded': True, 'loadedTime': 1878, 'positionName': 'CENTER', 'positionCoords': [435.5, 155]}]",Rate how much you want to eat this food from 0 (least) to 10 (most).,27367,1669843931703,roastedpotatoes,1289,True,9.200000000000001,28656,1289,True,HRV,HRV_0288,2022-11-30 21:34:42
11,"[{'imgObject': {}, 'id': 'blackbeanswithrice', 'src': '/static/foodstim60/blackbeanswithrice.jpg', 'key': 'NaN', 'origWidth': 410, 'origHeight': 410, 'width': 410, 'height': 410, 'widthPercent': 0.8, 'rescaleHeight': True, 'trialN': 11, 'loaded': True, 'loadedTime': 1880, 'positionName': 'CENTER', 'positionCoords': [435, 155]}]",Rate how much you want to eat this food from 0 (least) to 10 (most).,28663,1669843932998,blackbeanswithrice,1801,True,0.21,30464,1801,True,HRV,HRV_0288,2022-11-30 21:34:42
12,"[{'imgObject': {}, 'id': 'yogurt no spoon', 'src': '/static/foodstim60/yogurt no spoon.jpg', 'key': 'NaN', 'origWidth': 411, 'origHeight': 410, 'width': 411, 'height': 410, 'widthPercent': 0.8, 'rescaleHeight': True, 'trialN': 12, 'loaded': True, 'loadedTime': 1881, 'positionName': 'CENTER', 'positionCoords': [434.5, 155]}]",Rate how much you want to eat this food from 0 (least) to 10 (most).,30470,1669843934806,yogurt no spoon,1944,True,9.26,32414,1944,True,HRV,HRV_0288,2022-11-30 21:34:42
13,"[{'imgObject': {}, 'id': 'turkey sandwich', 'src': '/static/foodstim60/turkey sandwich.jpg', 'key': 'NaN', 'origWidth': 409, 'origHeight': 409, 'width': 409, 'height': 409, 'widthPercent': 0.8, 'rescaleHeight': True, 'trialN': 13, 'loaded': True, 'loadedTime': 1882, 'positionName': 'CENTER', 'positionCoords': [435.5, 155.5]}]",Rate how much you want to eat this food from 0 (least) to 10 (most).,32430,1669843936765,turkey sandwich,3059,True,8.67,35489,3059,True,HRV,HRV_0288,2022-11-30 21:34:42
14,"[{'imgObject': {}, 'id': 'banana', 'src': '/static/foodstim60/banana.jpg', 'key': 'NaN', 'origWidth': 410, 'origHeight': 410, 'width': 410, 'height': 410, 'widthPercent': 0.8, 'rescaleHeight': True, 'trialN': 14, 'loaded': True, 'loadedTime': 1883, 'positionName': 'CENTER', 'positionCoords': [435, 155]}]",Rate how much you want to eat this food from 0 (least) to 10 (most).,35494,1669843939829,banana,2646,True,6.09,38140,2646,True,HRV,HRV_0288,2022-11-30 21:34:42
15,"[{'imgObject': {}, 'id': 'sweetpotato', 'src': '/static/foodstim60/sweetpotato.jpg', 'key': 'NaN', 'origWidth': 410, 'origHeight': 410, 'width': 410, 'height': 410, 'widthPercent': 0.8, 'rescaleHeight': True, 'trialN': 15, 'loaded': True, 'loadedTime': 1884, 'positionName': 'CENTER', 'positionCoords': [435, 155]}]",Rate how much you want to eat this food from 0 (least) to 10 (most).,38158,1669843942494,sweetpotato,2181,True,7.32,40339,2181,True,HRV,HRV_0288,2022-11-30 21:34:42
16,"[{'imgObject': {}, 'id': 'corn cob', 'src': '/static/foodstim60/corn cob.jpg', 'key': 'NaN', 'origWidth': 411, 'origHeight': 411, 'width': 411, 'height': 411, 'widthPercent': 0.8, 'rescaleHeight': True, 'trialN': 16, 'loaded': True, 'loadedTime': 1885, 'positionName': 'CENTER', 'positionCoords': [434.5, 154.5]}]",Rate how much you want to eat this food from 0 (least) to 10 (most).,40349,1669843944684,corn cob,1925,True,7.76,42274,1925,True,HRV,HRV_0288,2022-11-30 21:34:42
17,"[{'imgObject': {}, 'id': 'eggsalad', 'src': '/static/foodstim60/eggsalad.jpg', 'key': 'NaN', 'origWidth': 410, 'origHeight': 409, 'width': 410, 'height': 409, 'widthPercent': 0.8, 'rescaleHeight': True, 'trialN': 17, 'loaded': True, 'loadedTime': 1887, 'positionName': 'CENTER', 'positionCoords': [435, 155.5]}]",Rate how much you want to eat this food from 0 (least) to 10 (most).,42286,1669843946622,eggsalad,4886,True,0.96,47172,4886,True,HRV,HRV_0288,2022-11-30 21:34:42
18,"[{'imgObject': {}, 'id': 'cantaloupe', 'src': '/static/foodstim60/cantaloupe.jpg', 'key': 'NaN', 'origWidth': 409, 'origHeight': 409, 'width': 409, 'height': 409, 'widthPercent': 0.8, 'rescaleHeight': True, 'trialN': 18, 'loaded': True, 'loadedTime': 1888, 'positionName': 'CENTER', 'positionCoords': [435.5, 155.5]}]",Rate how much you want to eat this food from 0 (least) to 10 (most).,47182,1669843951518,cantaloupe,3531,True,9.370000000000001,50713,3531,True,HRV,HRV_0288,2022-11-30 21:34:42
19,"[{'imgObject': {}, 'id': 'shreddedwheatwithmilk', 'src': '/static/foodstim60/shreddedwheatwithmilk.jpg', 'key': 'NaN', 'origWidth': 410, 'origHeight': 410, 'width': 410, 'height': 410, 'widthPercent': 0.8, 'rescaleHeight': True, 'trialN': 19, 'loaded': True, 'loadedTime': 1889, 'positionName': 'CENTER', 'positionCoords': [435, 155]}]",Rate how much you want to eat this food from 0 (least) to 10 (most).,50725,1669843955061,shreddedwheatwithmilk,3062,True,1.45,53787,3062,True,HRV,HRV_0288,2022-11-30 21:34:42
20,"[{'imgObject': {}, 'id': 'seaweed', 'src': '/static/foodstim60/seaweed.jpg', 'key': 'NaN', 'origWidth': 410, 'origHeight': 410, 'width': 410, 'height': 410, 'widthPercent': 0.8, 'rescaleHeight': True, 'trialN': 20, 'loaded': True, 'loadedTime': 1890, 'positionName': 'CENTER', 'positionCoords': [435, 155]}]",Rate how much you want to eat this food from 0 (least) to 10 (most).,53806,1669843958141,seaweed,2742,True,6.8100000000000005,56548,2742,True,HRV,HRV_0288,2022-11-30 21:34:42
21,"[{'imgObject': {}, 'id': 'grilled chicken strips', 'src': '/static/foodstim60/grilled chicken strips.jpg', 'key': 'NaN', 'origWidth': 410, 'origHeight': 411, 'width': 410, 'height': 411, 'widthPercent': 0.8, 'rescaleHeight': True, 'trialN': 21, 'loaded': True, 'loadedTime': 1891, 'positionName': 'CENTER', 'positionCoords': [435, 154.5]}]",Rate how much you want to eat this food from 0 (least) to 10 (most).,56565,1669843960901,grilled chicken strips,2931,True,8.85,59496,2931,True,HRV,HRV_0288,2022-11-30 21:34:42
22,"[{'imgObject': {}, 'id': 'cheerios', 'src': '/static/foodstim60/cheerios.jpg', 'key': 'NaN', 'origWidth': 409, 'origHeight': 410, 'width': 409, 'height': 410, 'widthPercent': 0.8, 'rescaleHeight': True, 'trialN': 22, 'loaded': True, 'loadedTime': 1892, 'positionName': 'CENTER', 'positionCoords': [435.5, 155]}]",Rate how much you want to eat this food from 0 (least) to 10 (most).,59510,1669843963845,cheerios,2045,True,5.04,61555,2045,True,HRV,HRV_0288,2022-11-30 21:34:42
23,"[{'imgObject': {}, 'id': 'luckycharms', 'src': '/static/foodstim60/luckycharms.jpg', 'key': 'NaN', 'origWidth': 410, 'origHeight': 409, 'width': 410, 'height': 409, 'widthPercent': 0.8, 'rescaleHeight': True, 'trialN': 23, 'loaded': True, 'loadedTime': 1894, 'positionName': 'CENTER', 'positionCoords': [435, 155.5]}]",Rate how much you want to eat this food from 0 (least) to 10 (most).,61565,1669843965901,luckycharms,2393,True,4.2,63958,2393,True,HRV,HRV_0288,2022-11-30 21:34:42
24,"[{'imgObject': {}, 'id': 'chicken nuggets2', 'src': '/static/foodstim60/chicken nuggets2.jpg', 'key': 'NaN', 'origWidth': 410, 'origHeight': 409, 'width': 410, 'height': 409, 'widthPercent': 0.8, 'rescaleHeight': True, 'trialN': 24, 'loaded': True, 'loadedTime': 1895, 'positionName': 'CENTER', 'positionCoords': [435, 155.5]}]",Rate how much you want to eat this food from 0 (least) to 10 (most).,63966,1669843968301,chicken nuggets2,5124,True,8.03,69090,5124,True,HRV,HRV_0288,2022-11-30 21:34:42
25,"[{'imgObject': {}, 'id': 'bagel and cc', 'src': '/static/foodstim60/bagel and cc.jpg', 'key': 'NaN', 'origWidth': 410, 'origHeight': 410, 'width': 410, 'height': 410, 'widthPercent': 0.8, 'rescaleHeight': True, 'trialN': 25, 'loaded': True, 'loadedTime': 1896, 'positionName': 'CENTER', 'positionCoords': [435, 155]}]",Rate how much you want to eat this food from 0 (least) to 10 (most).,69109,1669843973445,bagel and cc,2665,True,6.98,71774,2665,True,HRV,HRV_0288,2022-11-30 21:34:42
26,"[{'imgObject': {}, 'id': 'pear', 'src': '/static/foodstim60/pear.jpg', 'key': 'NaN', 'origWidth': 411, 'origHeight': 410, 'width': 411, 'height': 410, 'widthPercent': 0.8, 'rescaleHeight': True, 'trialN': 26, 'loaded': True, 'loadedTime': 1897, 'positionName': 'CENTER', 'positionCoords': [434.5, 155]}]",Rate how much you want to eat this food from 0 (least) to 10 (most).,71782,1669843976117,pear,1973,True,7.79,73755,1973,True,HRV,HRV_0288,2022-11-30 21:34:42
27,"[{'imgObject': {}, 'id': 'veggieswithdip', 'src': '/static/foodstim60/veggieswithdip.jpg', 'key': 'NaN', 'origWidth': 409, 'origHeight': 409, 'width': 409, 'height': 409, 'widthPercent': 0.8, 'rescaleHeight': True, 'trialN': 27, 'loaded': True, 'loadedTime': 1898, 'positionName': 'CENTER', 'positionCoords': [435.5, 155.5]}]",Rate how much you want to eat this food from 0 (least) to 10 (most).,73766,1669843978101,veggieswithdip,2656,True,8.07,76422,2656,True,HRV,HRV_0288,2022-11-30 21:34:42
28,"[{'imgObject': {}, 'id': 'lox', 'src': '/static/foodstim60/lox.jpg', 'key': 'NaN', 'origWidth': 410, 'origHeight': 411, 'width': 410, 'height': 411, 'widthPercent': 0.8, 'rescaleHeight': True, 'trialN': 28, 'loaded': True, 'loadedTime': 1900, 'positionName': 'CENTER', 'positionCoords': [435, 154.5]}]",Rate how much you want to eat this food from 0 (least) to 10 (most).,76429,1669843980765,lox,3176,True,0.18,79605,3176,True,HRV,HRV_0288,2022-11-30 21:34:42
29,"[{'imgObject': {}, 'id': 'hashbrowns', 'src': '/static/foodstim60/hashbrowns.jpg', 'key': 'NaN', 'origWidth': 411, 'origHeight': 410, 'width': 411, 'height': 410, 'widthPercent': 0.8, 'rescaleHeight': True, 'trialN': 29, 'loaded': True, 'loadedTime': 1901, 'positionName': 'CENTER', 'positionCoords': [434.5, 155]}]",Rate how much you want to eat this food from 0 (least) to 10 (most).,79620,1669843983956,hashbrowns,5273,True,1.25,84893,5273,True,HRV,HRV_0288,2022-11-30 21:34:42
30,"[{'imgObject': {}, 'id': 'apple slices', 'src': '/static/foodstim60/apple slices.jpg', 'key': 'NaN', 'origWidth': 409, 'origHeight': 410, 'width': 409, 'height': 410, 'widthPercent': 0.8, 'rescaleHeight': True, 'trialN': 30, 'loaded': True, 'loadedTime': 1902, 'positionName': 'CENTER', 'positionCoords': [435.5, 155]}]",Rate how much you want to eat this food from 0 (least) to 10 (most).,84900,1669843989236,apple slices,4190,True,7.26,89090,4190,True,HRV,HRV_0288,2022-11-30 21:34:42
31,"[{'imgObject': {}, 'id': 'fried eggs', 'src': '/static/foodstim60/fried eggs.jpg', 'key': 'NaN', 'origWidth': 410, 'origHeight': 410, 'width': 410, 'height': 410, 'widthPercent': 0.8, 'rescaleHeight': True, 'trialN': 31, 'loaded': True, 'loadedTime': 1903, 'positionName': 'CENTER', 'positionCoords': [435, 155]}]",Rate how much you want to eat this food from 0 (least) to 10 (most).,89101,1669843993437,fried eggs,2641,True,5.98,91742,2641,True,HRV,HRV_0288,2022-11-30 21:34:42
32,"[{'imgObject': {}, 'id': 'cocktailshrimp', 'src': '/static/foodstim60/cocktailshrimp.jpg', 'key': 'NaN', 'origWidth': 410, 'origHeight': 410, 'width': 410, 'height': 410, 'widthPercent': 0.8, 'rescaleHeight': True, 'trialN': 32, 'loaded': True, 'loadedTime': 1904, 'positionName': 'CENTER', 'positionCoords': [435, 155]}]",Rate how much you want to eat this food from 0 (least) to 10 (most).,91749,1669843996085,cocktailshrimp,1723,True,0.12,93472,1723,True,HRV,HRV_0288,2022-11-30 21:34:42
33,"[{'imgObject': {}, 'id': 'tacos', 'src': '/static/foodstim60/tacos.jpg', 'key': 'NaN', 'origWidth': 411, 'origHeight': 411, 'width': 411, 'height': 411, 'widthPercent': 0.8, 'rescaleHeight': True, 'trialN': 33, 'loaded': True, 'loadedTime': 1906, 'positionName': 'CENTER', 'positionCoords': [434.5, 154.5]}]",Rate how much you want to eat this food from 0 (least) to 10 (most).,93493,1669843997828,tacos,2102,True,9.23,95595,2102,True,HRV,HRV_0288,2022-11-30 21:34:42
34,"[{'imgObject': {}, 'id': 'bagel plain', 'src': '/static/foodstim60/bagel plain.jpg', 'key': 'NaN', 'origWidth': 410, 'origHeight': 410, 'width': 410, 'height': 410, 'widthPercent': 0.8, 'rescaleHeight': True, 'trialN': 34, 'loaded': True, 'loadedTime': 1907, 'positionName': 'CENTER', 'positionCoords': [435, 155]}]",Rate how much you want to eat this food from 0 (least) to 10 (most).,95604,1669843999940,bagel plain,3860,True,1.28,99464,3860,True,HRV,HRV_0288,2022-11-30 21:34:42
35,"[{'imgObject': {}, 'id': 'edamame', 'src': '/static/foodstim60/edamame.jpg', 'key': 'NaN', 'origWidth': 409, 'origHeight': 410, 'width': 409, 'height': 410, 'widthPercent': 0.8, 'rescaleHeight': True, 'trialN': 35, 'loaded': True, 'loadedTime': 1908, 'positionName': 'CENTER', 'positionCoords': [435.5, 155]}]",Rate how much you want to eat this food from 0 (least) to 10 (most).,99468,1669844003804,edamame,2475,True,1.2,101943,2475,True,HRV,HRV_0288,2022-11-30 21:34:42
36,"[{'imgObject': {}, 'id': 'steak', 'src': '/static/foodstim60/steak.jpg', 'key': 'NaN', 'origWidth': 410, 'origHeight': 410, 'width': 410, 'height': 410, 'widthPercent': 0.8, 'rescaleHeight': True, 'trialN': 36, 'loaded': True, 'loadedTime': 1909, 'positionName': 'CENTER', 'positionCoords': [435, 155]}]",Rate how much you want to eat this food from 0 (least) to 10 (most).,101949,1669844006285,steak,2008,True,9.790000000000001,103957,2008,True,HRV,HRV_0288,2022-11-30 21:34:42
37,"[{'imgObject': {}, 'id': 'chickenfingers', 'src': '/static/foodstim60/chickenfingers.jpg', 'key': 'NaN', 'origWidth': 410, 'origHeight': 410, 'width': 410, 'height': 410, 'widthPercent': 0.8, 'rescaleHeight': True, 'trialN': 37, 'loaded': True, 'loadedTime': 1911, 'positionName': 'CENTER', 'positionCoords': [435, 155]}]",Rate how much you want to eat this food from 0 (least) to 10 (most).,103963,1669844008299,chickenfingers,3690,True,9.35,107653,3690,True,HRV,HRV_0288,2022-11-30 21:34:42
38,"[{'imgObject': {}, 'id': 'mashed potato', 'src': '/static/foodstim60/mashed potato.jpg', 'key': 'NaN', 'origWidth': 409, 'origHeight': 409, 'width': 409, 'height': 409, 'widthPercent': 0.8, 'rescaleHeight': True, 'trialN': 38, 'loaded': True, 'loadedTime': 1912, 'positionName': 'CENTER', 'positionCoords': [435.5, 155.5]}]",Rate how much you want to eat this food from 0 (least) to 10 (most).,107668,1669844012003,mashed potato,2060,True,9.0,109728,2060,True,HRV,HRV_0288,2022-11-30 21:34:42
39,"[{'imgObject': {}, 'id': 'baked potato', 'src': '/static/foodstim60/baked potato.jpg', 'key': 'NaN', 'origWidth': 409, 'origHeight': 410, 'width': 409, 'height': 410, 'widthPercent': 0.8, 'rescaleHeight': True, 'trialN': 39, 'loaded': True, 'loadedTime': 1913, 'positionName': 'CENTER', 'positionCoords': [435.5, 155]}]",Rate how much you want to eat this food from 0 (least) to 10 (most).,109748,1669844014084,baked potato,3023,True,7.3100000000000005,112771,3023,True,HRV,HRV_0288,2022-11-30 21:34:42
40,"[{'imgObject': {}, 'id': 'turkeysandwich', 'src': '/static/foodstim60/turkeysandwich.jpg', 'key': 'NaN', 'origWidth': 409, 'origHeight': 409, 'width': 409, 'height': 409, 'widthPercent': 0.8, 'rescaleHeight': True, 'trialN': 40, 'loaded': True, 'loadedTime': 1914, 'positionName': 'CENTER', 'positionCoords': [435.5, 155.5]}]",Rate how much you want to eat this food from 0 (least) to 10 (most).,112779,1669844017114,turkeysandwich,2549,True,8.5,115328,2549,True,HRV,HRV_0288,2022-11-30 21:34:42
41,"[{'imgObject': {}, 'id': 'burger', 'src': '/static/foodstim60/burger.jpg', 'key': 'NaN', 'origWidth': 409, 'origHeight': 409, 'width': 409, 'height': 409, 'widthPercent': 0.8, 'rescaleHeight': True, 'trialN': 41, 'loaded': True, 'loadedTime': 1915, 'positionName': 'CENTER', 'positionCoords': [435.5, 155.5]}]",Rate how much you want to eat this food from 0 (least) to 10 (most).,115339,1669844019675,burger,2189,True,8.35,117528,2189,True,HRV,HRV_0288,2022-11-30 21:34:42
42,"[{'imgObject': {}, 'id': 'cherries', 'src': '/static/foodstim60/cherries.jpg', 'key': 'NaN', 'origWidth': 410, 'origHeight': 411, 'width': 410, 'height': 411, 'widthPercent': 0.8, 'rescaleHeight': True, 'trialN': 42, 'loaded': True, 'loadedTime': 1916, 'positionName': 'CENTER', 'positionCoords': [435, 154.5]}]",Rate how much you want to eat this food from 0 (least) to 10 (most).,117540,1669844021876,cherries,2421,True,8.540000000000001,119961,2421,True,HRV,HRV_0288,2022-11-30 21:34:42
43,"[{'imgObject': {}, 'id': 'salmon', 'src': '/static/foodstim60/salmon.jpg', 'key': 'NaN', 'origWidth': 410, 'origHeight': 409, 'width': 410, 'height': 409, 'widthPercent': 0.8, 'rescaleHeight': True, 'trialN': 43, 'loaded': True, 'loadedTime': 1917, 'positionName': 'CENTER', 'positionCoords': [435, 155.5]}]",Rate how much you want to eat this food from 0 (least) to 10 (most).,119979,1669844024315,salmon,2603,True,7.25,122582,2603,True,HRV,HRV_0288,2022-11-30 21:34:42
44,"[{'imgObject': {}, 'id': 'rigatoni and sauce', 'src': '/static/foodstim60/rigatoni and sauce.jpg', 'key': 'NaN', 'origWidth': 410, 'origHeight': 411, 'width': 410, 'height': 411, 'widthPercent': 0.8, 'rescaleHeight': True, 'trialN': 44, 'loaded': True, 'loadedTime': 1918, 'positionName': 'CENTER', 'positionCoords': [435, 154.5]}]",Rate how much you want to eat this food from 0 (least) to 10 (most).,122588,1669844026923,rigatoni and sauce,2084,True,4.98,124672,2084,True,HRV,HRV_0288,2022-11-30 21:34:42
45,"[{'imgObject': {}, 'id': 'salad w chicken', 'src': '/static/foodstim60/salad w chicken.jpg', 'key': 'NaN', 'origWidth': 411, 'origHeight': 411, 'width': 411, 'height': 411, 'widthPercent': 0.8, 'rescaleHeight': True, 'trialN': 45, 'loaded': True, 'loadedTime': 1920, 'positionName': 'CENTER', 'positionCoords': [434.5, 154.5]}]",Rate how much you want to eat this food from 0 (least) to 10 (most).,124692,1669844029027,salad w chicken,4317,True,8.73,129009,4317,True,HRV,HRV_0288,2022-11-30 21:34:42
46,"[{'imgObject': {}, 'id': 'mango', 'src': '/static/foodstim60/mango.jpg', 'key': 'NaN', 'origWidth': 411, 'origHeight': 411, 'width': 411, 'height': 411, 'widthPercent': 0.8, 'rescaleHeight': True, 'trialN': 46, 'loaded': True, 'loadedTime': 1921, 'positionName': 'CENTER', 'positionCoords': [434.5, 154.5]}]",Rate how much you want to eat this food from 0 (least) to 10 (most).,129019,1669844033355,mango,1738,True,8.89,130757,1738,True,HRV,HRV_0288,2022-11-30 21:34:42
47,"[{'imgObject': {}, 'id': 'cherry tomato', 'src': '/static/foodstim60/cherry tomato.jpg', 'key': 'NaN', 'origWidth': 410, 'origHeight': 410, 'width': 410, 'height': 410, 'widthPercent': 0.8, 'rescaleHeight': True, 'trialN': 47, 'loaded': True, 'loadedTime': 1922, 'positionName': 'CENTER', 'positionCoords': [435, 155]}]",Rate how much you want to eat this food from 0 (least) to 10 (most).,130763,1669844035098,cherry tomato,2022,True,0.04,132785,2022,True,HRV,HRV_0288,2022-11-30 21:34:42
48,"[{'imgObject': {}, 'id': 'froot loops w milk', 'src': '/static/foodstim60/froot loops w milk.jpg', 'key': 'NaN', 'origWidth': 410, 'origHeight': 410, 'width': 410, 'height': 410, 'widthPercent': 0.8, 'rescaleHeight': True, 'trialN': 48, 'loaded': True, 'loadedTime': 1923, 'positionName': 'CENTER', 'positionCoords': [435, 155]}]",Rate how much you want to eat this food from 0 (least) to 10 (most).,132803,1669844037139,froot loops w milk,5597,True,6.23,138400,5597,True,HRV,HRV_0288,2022-11-30 21:34:42
49,"[{'imgObject': {}, 'id': 'eggs', 'src': '/static/foodstim60/eggs.jpg', 'key': 'NaN', 'origWidth': 409, 'origHeight': 409, 'width': 409, 'height': 409, 'widthPercent': 0.8, 'rescaleHeight': True, 'trialN': 49, 'loaded': True, 'loadedTime': 1924, 'positionName': 'CENTER', 'positionCoords': [435.5, 155.5]}]",Rate how much you want to eat this food from 0 (least) to 10 (most).,138403,1669844042738,eggs,3162,True,3.93,141565,3162,True,HRV,HRV_0288,2022-11-30 21:34:42
50,"[{'imgObject': {}, 'id': 'blueberries', 'src': '/static/foodstim60/blueberries.jpg', 'key': 'NaN', 'origWidth': 411, 'origHeight': 411, 'width': 411, 'height': 411, 'widthPercent': 0.8, 'rescaleHeight': True, 'trialN': 50, 'loaded': True, 'loadedTime': 1926, 'positionName': 'CENTER', 'positionCoords': [434.5, 154.5]}]",Rate how much you want to eat this food from 0 (least) to 10 (most).,141588,1669844045923,blueberries,2130,True,7.65,143718,2130,True,HRV,HRV_0288,2022-11-30 21:34:42
51,"[{'imgObject': {}, 'id': 'raspberries', 'src': '/static/foodstim60/raspberries.jpg', 'key': 'NaN', 'origWidth': 411, 'origHeight': 411, 'width': 411, 'height': 411, 'widthPercent': 0.8, 'rescaleHeight': True, 'trialN': 51, 'loaded': True, 'loadedTime': 1927, 'positionName': 'CENTER', 'positionCoords': [434.5, 154.5]}]",Rate how much you want to eat this food from 0 (least) to 10 (most).,143731,1669844048067,raspberries,11375,True,7.32,155106,11375,True,HRV,HRV_0288,2022-11-30 21:34:42
52,"[{'imgObject': {}, 'id': 'ice cream sundae 002', 'src': '/static/foodstim60/ice cream sundae 002.jpg', 'key': 'NaN', 'origWidth': 409, 'origHeight': 409, 'width': 409, 'height': 409, 'widthPercent': 0.8, 'rescaleHeight': True, 'trialN': 52, 'loaded': True, 'loadedTime': 1928, 'positionName': 'CENTER', 'positionCoords': [435.5, 155.5]}]",Rate how much you want to eat this food from 0 (least) to 10 (most).,155122,1669844059458,ice cream sundae 002,2511,True,9.64,157633,2511,True,HRV,HRV_0288,2022-11-30 21:34:42
53,"[{'imgObject': {}, 'id': 'fruitsalad', 'src': '/static/foodstim60/fruitsalad.jpg', 'key': 'NaN', 'origWidth': 410, 'origHeight': 410, 'width': 410, 'height': 410, 'widthPercent': 0.8, 'rescaleHeight': True, 'trialN': 53, 'loaded': True, 'loadedTime': 1929, 'positionName': 'CENTER', 'positionCoords': [435, 155]}]",Rate how much you want to eat this food from 0 (least) to 10 (most).,157651,1669844061986,fruitsalad,3071,True,8.93,160722,3071,True,HRV,HRV_0288,2022-11-30 21:34:42
54,"[{'imgObject': {}, 'id': 'mac & cheese', 'src': '/static/foodstim60/mac & cheese.jpg', 'key': 'NaN', 'origWidth': 410, 'origHeight': 410, 'width': 410, 'height': 410, 'widthPercent': 0.8, 'rescaleHeight': True, 'trialN': 54, 'loaded': True, 'loadedTime': 1931, 'positionName': 'CENTER', 'positionCoords': [435, 155]}]",Rate how much you want to eat this food from 0 (least) to 10 (most).,160739,1669844065074,mac & cheese,2557,True,7.140000000000001,163296,2557,True,HRV,HRV_0288,2022-11-30 21:34:42
55,"[{'imgObject': {}, 'id': 'rigatoni', 'src': '/static/foodstim60/rigatoni.jpg', 'key': 'NaN', 'origWidth': 411, 'origHeight': 411, 'width': 411, 'height': 411, 'widthPercent': 0.8, 'rescaleHeight': True, 'trialN': 55, 'loaded': True, 'loadedTime': 1932, 'positionName': 'CENTER', 'positionCoords': [434.5, 154.5]}]",Rate how much you want to eat this food from 0 (least) to 10 (most).,163314,1669844067650,rigatoni,3820,True,0.07,167134,3820,True,HRV,HRV_0288,2022-11-30 21:34:42
56,"[{'imgObject': {}, 'id': 'raisin bran w milk', 'src': '/static/foodstim60/raisin bran w milk.jpg', 'key': 'NaN', 'origWidth': 411, 'origHeight': 411, 'width': 411, 'height': 411, 'widthPercent': 0.8, 'rescaleHeight': True, 'trialN': 56, 'loaded': True, 'loadedTime': 1933, 'positionName': 'CENTER', 'positionCoords': [434.5, 154.5]}]",Rate how much you want to eat this food from 0 (least) to 10 (most).,167154,1669844071489,raisin bran w milk,3209,True,5.95,170363,3209,True,HRV,HRV_0288,2022-11-30 21:34:42
57,"[{'imgObject': {}, 'id': 'popsicles', 'src': '/static/foodstim60/popsicles.jpg', 'key': 'NaN', 'origWidth': 410, 'origHeight': 410, 'width': 410, 'height': 410, 'widthPercent': 0.8, 'rescaleHeight': True, 'trialN': 57, 'loaded': True, 'loadedTime': 1934, 'positionName': 'CENTER', 'positionCoords': [435, 155]}]",Rate how much you want to eat this food from 0 (least) to 10 (most).,170378,1669844074714,popsicles,2278,True,7.390000000000001,172656,2278,True,HRV,HRV_0288,2022-11-30 21:34:42
58,"[{'imgObject': {}, 'id': 'orange slices', 'src': '/static/foodstim60/orange slices.jpg', 'key': 'NaN', 'origWidth': 409, 'origHeight': 410, 'width': 409, 'height': 410, 'widthPercent': 0.8, 'rescaleHeight': True, 'trialN': 58, 'loaded': True, 'loadedTime': 1936, 'positionName': 'CENTER', 'positionCoords': [435.5, 155]}]",Rate how much you want to eat this food from 0 (least) to 10 (most).,172674,1669844077009,orange slices,3040,True,7.92,175714,3040,True,HRV,HRV_0288,2022-11-30 21:34:42
59,"[{'imgObject': {}, 'id': 'Grapes', 'src': '/static/foodstim60/Grapes.jpg', 'key': 'NaN', 'origWidth': 411, 'origHeight': 411, 'width': 411, 'height': 411, 'widthPercent': 0.8, 'rescaleHeight': True, 'trialN': 59, 'loaded': True, 'loadedTime': 1937, 'positionName': 'CENTER', 'positionCoords': [434.5, 154.5]}]",Rate how much you want to eat this food from 0 (least) to 10 (most).,175731,1669844080066,Grapes,1949,True,7.82,177680,1949,True,HRV,HRV_0288,2022-11-30 21:34:42
