trialN,stimuli,question,trialStartTime,trialStartTime_UNIX,stimulus1,rt,receivedResponse,rating,trialEndTime,trialDuration,stimulus1Loaded,exp,subjectId,date
0,"[{'imgObject': {}, 'id': 'fruitsalad', 'src': '/static/foodstim60/fruitsalad.jpg', 'key': 'NaN', 'origWidth': 410, 'origHeight': 410, 'width': 410, 'height': 410, 'widthPercent': 0.8, 'rescaleHeight': True, 'trialN': 0, 'loaded': True, 'loadedTime': 2528, 'positionName': 'CENTER', 'positionCoords': [435, 155]}]",Rate how much you want to eat this food from 0 (least) to 10 (most).,3032,1669843657936,fruitsalad,8612,True,8.6,11644,8612,True,HRV,HRV_0288,2022-11-30 21:31:04
1,"[{'imgObject': {}, 'id': 'bagel and cc', 'src': '/static/foodstim60/bagel and cc.jpg', 'key': 'NaN', 'origWidth': 410, 'origHeight': 410, 'width': 410, 'height': 410, 'widthPercent': 0.8, 'rescaleHeight': True, 'trialN': 1, 'loaded': True, 'loadedTime': 2526, 'positionName': 'CENTER', 'positionCoords': [435, 155]}]",Rate how much you want to eat this food from 0 (least) to 10 (most).,11663,1669843666566,bagel and cc,6392,True,6.8500000000000005,18055,6392,True,HRV,HRV_0288,2022-11-30 21:31:04
2,"[{'imgObject': {}, 'id': 'luckycharms', 'src': '/static/foodstim60/luckycharms.jpg', 'key': 'NaN', 'origWidth': 410, 'origHeight': 409, 'width': 410, 'height': 409, 'widthPercent': 0.8, 'rescaleHeight': True, 'trialN': 2, 'loaded': True, 'loadedTime': 2552, 'positionName': 'CENTER', 'positionCoords': [435, 155.5]}]",Rate how much you want to eat this food from 0 (least) to 10 (most).,18071,1669843672975,luckycharms,2574,True,4.29,20645,2574,True,HRV,HRV_0288,2022-11-30 21:31:04
3,"[{'imgObject': {}, 'id': 'cheerios', 'src': '/static/foodstim60/cheerios.jpg', 'key': 'NaN', 'origWidth': 409, 'origHeight': 410, 'width': 409, 'height': 410, 'widthPercent': 0.8, 'rescaleHeight': True, 'trialN': 3, 'loaded': True, 'loadedTime': 2549, 'positionName': 'CENTER', 'positionCoords': [435.5, 155]}]",Rate how much you want to eat this food from 0 (least) to 10 (most).,20663,1669843675566,cheerios,1557,True,4.89,22220,1557,True,HRV,HRV_0288,2022-11-30 21:31:04
4,"[{'imgObject': {}, 'id': 'turkey sandwich', 'src': '/static/foodstim60/turkey sandwich.jpg', 'key': 'NaN', 'origWidth': 409, 'origHeight': 409, 'width': 409, 'height': 409, 'widthPercent': 0.8, 'rescaleHeight': True, 'trialN': 4, 'loaded': True, 'loadedTime': 2551, 'positionName': 'CENTER', 'positionCoords': [435.5, 155.5]}]",Rate how much you want to eat this food from 0 (least) to 10 (most).,22230,1669843677133,turkey sandwich,4405,True,8.17,26635,4405,True,HRV,HRV_0288,2022-11-30 21:31:04
5,"[{'imgObject': {}, 'id': 'salad w chicken', 'src': '/static/foodstim60/salad w chicken.jpg', 'key': 'NaN', 'origWidth': 411, 'origHeight': 411, 'width': 411, 'height': 411, 'widthPercent': 0.8, 'rescaleHeight': True, 'trialN': 5, 'loaded': True, 'loadedTime': 2593, 'positionName': 'CENTER', 'positionCoords': [434.5, 154.5]}]",Rate how much you want to eat this food from 0 (least) to 10 (most).,26646,1669843681550,salad w chicken,2641,True,8.85,29287,2641,True,HRV,HRV_0288,2022-11-30 21:31:04
6,"[{'imgObject': {}, 'id': 'Grapes', 'src': '/static/foodstim60/Grapes.jpg', 'key': 'NaN', 'origWidth': 411, 'origHeight': 411, 'width': 411, 'height': 411, 'widthPercent': 0.8, 'rescaleHeight': True, 'trialN': 6, 'loaded': True, 'loadedTime': 2575, 'positionName': 'CENTER', 'positionCoords': [434.5, 154.5]}]",Rate how much you want to eat this food from 0 (least) to 10 (most).,29303,1669843684205,Grapes,2230,True,8.040000000000001,31533,2230,True,HRV,HRV_0288,2022-11-30 21:31:04
7,"[{'imgObject': {}, 'id': 'kiwi', 'src': '/static/foodstim60/kiwi.jpg', 'key': 'NaN', 'origWidth': 410, 'origHeight': 410, 'width': 410, 'height': 410, 'widthPercent': 0.8, 'rescaleHeight': True, 'trialN': 7, 'loaded': True, 'loadedTime': 2582, 'positionName': 'CENTER', 'positionCoords': [435, 155]}]",Rate how much you want to eat this food from 0 (least) to 10 (most).,31549,1669843686452,kiwi,3213,True,6.46,34762,3213,True,HRV,HRV_0288,2022-11-30 21:31:04
8,"[{'imgObject': {}, 'id': 'raspberries', 'src': '/static/foodstim60/raspberries.jpg', 'key': 'NaN', 'origWidth': 411, 'origHeight': 411, 'width': 411, 'height': 411, 'widthPercent': 0.8, 'rescaleHeight': True, 'trialN': 8, 'loaded': True, 'loadedTime': 2606, 'positionName': 'CENTER', 'positionCoords': [434.5, 154.5]}]",Rate how much you want to eat this food from 0 (least) to 10 (most).,34774,1669843689677,raspberries,1985,True,7.03,36759,1985,True,HRV,HRV_0288,2022-11-30 21:31:04
9,"[{'imgObject': {}, 'id': 'corn cob', 'src': '/static/foodstim60/corn cob.jpg', 'key': 'NaN', 'origWidth': 411, 'origHeight': 411, 'width': 411, 'height': 411, 'widthPercent': 0.8, 'rescaleHeight': True, 'trialN': 9, 'loaded': True, 'loadedTime': 2602, 'positionName': 'CENTER', 'positionCoords': [434.5, 154.5]}]",Rate how much you want to eat this food from 0 (least) to 10 (most).,36774,1669843691678,corn cob,1748,True,7.76,38522,1748,True,HRV,HRV_0288,2022-11-30 21:31:04
10,"[{'imgObject': {}, 'id': 'eggs', 'src': '/static/foodstim60/eggs.jpg', 'key': 'NaN', 'origWidth': 409, 'origHeight': 409, 'width': 409, 'height': 409, 'widthPercent': 0.8, 'rescaleHeight': True, 'trialN': 10, 'loaded': True, 'loadedTime': 2605, 'positionName': 'CENTER', 'positionCoords': [435.5, 155.5]}]",Rate how much you want to eat this food from 0 (least) to 10 (most).,38542,1669843693446,eggs,3209,True,3.81,41751,3209,True,HRV,HRV_0288,2022-11-30 21:31:04
11,"[{'imgObject': {}, 'id': 'blackbeanswithrice', 'src': '/static/foodstim60/blackbeanswithrice.jpg', 'key': 'NaN', 'origWidth': 410, 'origHeight': 410, 'width': 410, 'height': 410, 'widthPercent': 0.8, 'rescaleHeight': True, 'trialN': 11, 'loaded': True, 'loadedTime': 2630, 'positionName': 'CENTER', 'positionCoords': [435, 155]}]",Rate how much you want to eat this food from 0 (least) to 10 (most).,41757,1669843696662,blackbeanswithrice,2756,True,0.1,44513,2756,True,HRV,HRV_0288,2022-11-30 21:31:04
12,"[{'imgObject': {}, 'id': 'shreddedwheatwithmilk', 'src': '/static/foodstim60/shreddedwheatwithmilk.jpg', 'key': 'NaN', 'origWidth': 410, 'origHeight': 410, 'width': 410, 'height': 410, 'widthPercent': 0.8, 'rescaleHeight': True, 'trialN': 12, 'loaded': True, 'loadedTime': 2639, 'positionName': 'CENTER', 'positionCoords': [435, 155]}]",Rate how much you want to eat this food from 0 (least) to 10 (most).,44526,1669843699429,shreddedwheatwithmilk,2934,True,0.84,47460,2934,True,HRV,HRV_0288,2022-11-30 21:31:04
13,"[{'imgObject': {}, 'id': 'hashbrowns', 'src': '/static/foodstim60/hashbrowns.jpg', 'key': 'NaN', 'origWidth': 411, 'origHeight': 410, 'width': 411, 'height': 410, 'widthPercent': 0.8, 'rescaleHeight': True, 'trialN': 13, 'loaded': True, 'loadedTime': 2641, 'positionName': 'CENTER', 'positionCoords': [434.5, 155]}]",Rate how much you want to eat this food from 0 (least) to 10 (most).,47469,1669843702373,hashbrowns,4313,True,2.23,51782,4313,True,HRV,HRV_0288,2022-11-30 21:31:04
14,"[{'imgObject': {}, 'id': 'sushi w_condiments', 'src': '/static/foodstim60/sushi w_condiments.jpg', 'key': 'NaN', 'origWidth': 410, 'origHeight': 410, 'width': 410, 'height': 410, 'widthPercent': 0.8, 'rescaleHeight': True, 'trialN': 14, 'loaded': True, 'loadedTime': 2650, 'positionName': 'CENTER', 'positionCoords': [435, 155]}]",Rate how much you want to eat this food from 0 (least) to 10 (most).,51790,1669843706693,sushi w_condiments,3064,True,0.15,54854,3064,True,HRV,HRV_0288,2022-11-30 21:31:04
15,"[{'imgObject': {}, 'id': 'chickenfingers', 'src': '/static/foodstim60/chickenfingers.jpg', 'key': 'NaN', 'origWidth': 410, 'origHeight': 410, 'width': 410, 'height': 410, 'widthPercent': 0.8, 'rescaleHeight': True, 'trialN': 15, 'loaded': True, 'loadedTime': 2654, 'positionName': 'CENTER', 'positionCoords': [435, 155]}]",Rate how much you want to eat this food from 0 (least) to 10 (most).,54877,1669843709781,chickenfingers,8340,True,8.82,63217,8340,True,HRV,HRV_0288,2022-11-30 21:31:04
16,"[{'imgObject': {}, 'id': 'mashed potato', 'src': '/static/foodstim60/mashed potato.jpg', 'key': 'NaN', 'origWidth': 409, 'origHeight': 409, 'width': 409, 'height': 409, 'widthPercent': 0.8, 'rescaleHeight': True, 'trialN': 16, 'loaded': True, 'loadedTime': 2661, 'positionName': 'CENTER', 'positionCoords': [435.5, 155.5]}]",Rate how much you want to eat this food from 0 (least) to 10 (most).,63228,1669843718133,mashed potato,6370,True,8.67,69598,6370,True,HRV,HRV_0288,2022-11-30 21:31:04
17,"[{'imgObject': {}, 'id': 'steak', 'src': '/static/foodstim60/steak.jpg', 'key': 'NaN', 'origWidth': 410, 'origHeight': 410, 'width': 410, 'height': 410, 'widthPercent': 0.8, 'rescaleHeight': True, 'trialN': 17, 'loaded': True, 'loadedTime': 2689, 'positionName': 'CENTER', 'positionCoords': [435, 155]}]",Rate how much you want to eat this food from 0 (least) to 10 (most).,69613,1669843724516,steak,1887,True,9.76,71500,1887,True,HRV,HRV_0288,2022-11-30 21:31:04
18,"[{'imgObject': {}, 'id': 'mango', 'src': '/static/foodstim60/mango.jpg', 'key': 'NaN', 'origWidth': 411, 'origHeight': 411, 'width': 411, 'height': 411, 'widthPercent': 0.8, 'rescaleHeight': True, 'trialN': 18, 'loaded': True, 'loadedTime': 2705, 'positionName': 'CENTER', 'positionCoords': [434.5, 154.5]}]",Rate how much you want to eat this food from 0 (least) to 10 (most).,71516,1669843726419,mango,1700,True,9.39,73216,1700,True,HRV,HRV_0288,2022-11-30 21:31:04
19,"[{'imgObject': {}, 'id': 'hotdog w must', 'src': '/static/foodstim60/hotdog w must.jpg', 'key': 'NaN', 'origWidth': 409, 'origHeight': 409, 'width': 409, 'height': 409, 'widthPercent': 0.8, 'rescaleHeight': True, 'trialN': 19, 'loaded': True, 'loadedTime': 2705, 'positionName': 'CENTER', 'positionCoords': [435.5, 155.5]}]",Rate how much you want to eat this food from 0 (least) to 10 (most).,73237,1669843728140,hotdog w must,2771,True,0.14,76008,2771,True,HRV,HRV_0288,2022-11-30 21:31:04
20,"[{'imgObject': {}, 'id': 'seaweed', 'src': '/static/foodstim60/seaweed.jpg', 'key': 'NaN', 'origWidth': 410, 'origHeight': 410, 'width': 410, 'height': 410, 'widthPercent': 0.8, 'rescaleHeight': True, 'trialN': 20, 'loaded': True, 'loadedTime': 2707, 'positionName': 'CENTER', 'positionCoords': [435, 155]}]",Rate how much you want to eat this food from 0 (least) to 10 (most).,76020,1669843730924,seaweed,2860,True,6.51,78880,2860,True,HRV,HRV_0288,2022-11-30 21:31:04
21,"[{'imgObject': {}, 'id': 'cherries', 'src': '/static/foodstim60/cherries.jpg', 'key': 'NaN', 'origWidth': 410, 'origHeight': 411, 'width': 410, 'height': 411, 'widthPercent': 0.8, 'rescaleHeight': True, 'trialN': 21, 'loaded': True, 'loadedTime': 2712, 'positionName': 'CENTER', 'positionCoords': [435, 154.5]}]",Rate how much you want to eat this food from 0 (least) to 10 (most).,78884,1669843733788,cherries,1913,True,8.35,80797,1913,True,HRV,HRV_0288,2022-11-30 21:31:04
22,"[{'imgObject': {}, 'id': 'cocktailshrimp', 'src': '/static/foodstim60/cocktailshrimp.jpg', 'key': 'NaN', 'origWidth': 410, 'origHeight': 410, 'width': 410, 'height': 410, 'widthPercent': 0.8, 'rescaleHeight': True, 'trialN': 22, 'loaded': True, 'loadedTime': 2714, 'positionName': 'CENTER', 'positionCoords': [435, 155]}]",Rate how much you want to eat this food from 0 (least) to 10 (most).,80820,1669843735723,cocktailshrimp,2272,True,0.14,83092,2272,True,HRV,HRV_0288,2022-11-30 21:31:04
23,"[{'imgObject': {}, 'id': 'fried eggs', 'src': '/static/foodstim60/fried eggs.jpg', 'key': 'NaN', 'origWidth': 410, 'origHeight': 410, 'width': 410, 'height': 410, 'widthPercent': 0.8, 'rescaleHeight': True, 'trialN': 23, 'loaded': True, 'loadedTime': 2736, 'positionName': 'CENTER', 'positionCoords': [435, 155]}]",Rate how much you want to eat this food from 0 (least) to 10 (most).,83108,1669843738012,fried eggs,2681,True,6.03,85789,2681,True,HRV,HRV_0288,2022-11-30 21:31:04
24,"[{'imgObject': {}, 'id': 'lox', 'src': '/static/foodstim60/lox.jpg', 'key': 'NaN', 'origWidth': 410, 'origHeight': 411, 'width': 410, 'height': 411, 'widthPercent': 0.8, 'rescaleHeight': True, 'trialN': 24, 'loaded': True, 'loadedTime': 2753, 'positionName': 'CENTER', 'positionCoords': [435, 154.5]}]",Rate how much you want to eat this food from 0 (least) to 10 (most).,85795,1669843740700,lox,3006,True,0.07,88801,3006,True,HRV,HRV_0288,2022-11-30 21:31:04
25,"[{'imgObject': {}, 'id': 'granola w milk', 'src': '/static/foodstim60/granola w milk.jpg', 'key': 'NaN', 'origWidth': 410, 'origHeight': 410, 'width': 410, 'height': 410, 'widthPercent': 0.8, 'rescaleHeight': True, 'trialN': 25, 'loaded': True, 'loadedTime': 2760, 'positionName': 'CENTER', 'positionCoords': [435, 155]}]",Rate how much you want to eat this food from 0 (least) to 10 (most).,88820,1669843743724,granola w milk,5300,True,6.04,94120,5300,True,HRV,HRV_0288,2022-11-30 21:31:04
26,"[{'imgObject': {}, 'id': 'olives', 'src': '/static/foodstim60/olives.jpg', 'key': 'NaN', 'origWidth': 410, 'origHeight': 410, 'width': 410, 'height': 410, 'widthPercent': 0.8, 'rescaleHeight': True, 'trialN': 26, 'loaded': True, 'loadedTime': 2755, 'positionName': 'CENTER', 'positionCoords': [435, 155]}]",Rate how much you want to eat this food from 0 (least) to 10 (most).,94140,1669843749043,olives,1930,True,0.03,96070,1930,True,HRV,HRV_0288,2022-11-30 21:31:04
27,"[{'imgObject': {}, 'id': 'cherry tomato', 'src': '/static/foodstim60/cherry tomato.jpg', 'key': 'NaN', 'origWidth': 410, 'origHeight': 410, 'width': 410, 'height': 410, 'widthPercent': 0.8, 'rescaleHeight': True, 'trialN': 27, 'loaded': True, 'loadedTime': 2760, 'positionName': 'CENTER', 'positionCoords': [435, 155]}]",Rate how much you want to eat this food from 0 (least) to 10 (most).,96083,1669843750987,cherry tomato,1672,True,0.0,97755,1672,True,HRV,HRV_0288,2022-11-30 21:31:04
28,"[{'imgObject': {}, 'id': 'strawberries', 'src': '/static/foodstim60/strawberries.jpg', 'key': 'NaN', 'origWidth': 410, 'origHeight': 410, 'width': 410, 'height': 410, 'widthPercent': 0.8, 'rescaleHeight': True, 'trialN': 28, 'loaded': True, 'loadedTime': 2764, 'positionName': 'CENTER', 'positionCoords': [435, 155]}]",Rate how much you want to eat this food from 0 (least) to 10 (most).,97779,1669843752684,strawberries,3330,True,6.76,101109,3330,True,HRV,HRV_0288,2022-11-30 21:31:04
29,"[{'imgObject': {}, 'id': 'roastedpotatoes', 'src': '/static/foodstim60/roastedpotatoes.jpg', 'key': 'NaN', 'origWidth': 409, 'origHeight': 410, 'width': 409, 'height': 410, 'widthPercent': 0.8, 'rescaleHeight': True, 'trialN': 29, 'loaded': True, 'loadedTime': 2788, 'positionName': 'CENTER', 'positionCoords': [435.5, 155]}]",Rate how much you want to eat this food from 0 (least) to 10 (most).,101124,1669843756027,roastedpotatoes,2200,True,8.53,103324,2200,True,HRV,HRV_0288,2022-11-30 21:31:04
30,"[{'imgObject': {}, 'id': 'sweetpotato', 'src': '/static/foodstim60/sweetpotato.jpg', 'key': 'NaN', 'origWidth': 410, 'origHeight': 410, 'width': 410, 'height': 410, 'widthPercent': 0.8, 'rescaleHeight': True, 'trialN': 30, 'loaded': True, 'loadedTime': 2807, 'positionName': 'CENTER', 'positionCoords': [435, 155]}]",Rate how much you want to eat this food from 0 (least) to 10 (most).,103340,1669843758243,sweetpotato,3369,True,7.45,106709,3369,True,HRV,HRV_0288,2022-11-30 21:31:04
31,"[{'imgObject': {}, 'id': 'raisin bran w milk', 'src': '/static/foodstim60/raisin bran w milk.jpg', 'key': 'NaN', 'origWidth': 411, 'origHeight': 411, 'width': 411, 'height': 411, 'widthPercent': 0.8, 'rescaleHeight': True, 'trialN': 31, 'loaded': True, 'loadedTime': 2811, 'positionName': 'CENTER', 'positionCoords': [434.5, 154.5]}]",Rate how much you want to eat this food from 0 (least) to 10 (most).,106731,1669843761635,raisin bran w milk,2490,True,6.5600000000000005,109221,2490,True,HRV,HRV_0288,2022-11-30 21:31:04
32,"[{'imgObject': {}, 'id': 'grilled chicken strips', 'src': '/static/foodstim60/grilled chicken strips.jpg', 'key': 'NaN', 'origWidth': 410, 'origHeight': 411, 'width': 410, 'height': 411, 'widthPercent': 0.8, 'rescaleHeight': True, 'trialN': 32, 'loaded': True, 'loadedTime': 2809, 'positionName': 'CENTER', 'positionCoords': [435, 154.5]}]",Rate how much you want to eat this food from 0 (least) to 10 (most).,109227,1669843764131,grilled chicken strips,2895,True,9.200000000000001,112122,2895,True,HRV,HRV_0288,2022-11-30 21:31:04
33,"[{'imgObject': {}, 'id': 'burger', 'src': '/static/foodstim60/burger.jpg', 'key': 'NaN', 'origWidth': 409, 'origHeight': 409, 'width': 409, 'height': 409, 'widthPercent': 0.8, 'rescaleHeight': True, 'trialN': 33, 'loaded': True, 'loadedTime': 2814, 'positionName': 'CENTER', 'positionCoords': [435.5, 155.5]}]",Rate how much you want to eat this food from 0 (least) to 10 (most).,112140,1669843767043,burger,3243,True,8.18,115383,3243,True,HRV,HRV_0288,2022-11-30 21:31:04
34,"[{'imgObject': {}, 'id': 'apple slices', 'src': '/static/foodstim60/apple slices.jpg', 'key': 'NaN', 'origWidth': 409, 'origHeight': 410, 'width': 409, 'height': 410, 'widthPercent': 0.8, 'rescaleHeight': True, 'trialN': 34, 'loaded': True, 'loadedTime': 2817, 'positionName': 'CENTER', 'positionCoords': [435.5, 155]}]",Rate how much you want to eat this food from 0 (least) to 10 (most).,115395,1669843770299,apple slices,2031,True,8.07,117426,2031,True,HRV,HRV_0288,2022-11-30 21:31:04
35,"[{'imgObject': {}, 'id': 'chicken nuggets2', 'src': '/static/foodstim60/chicken nuggets2.jpg', 'key': 'NaN', 'origWidth': 410, 'origHeight': 409, 'width': 410, 'height': 409, 'widthPercent': 0.8, 'rescaleHeight': True, 'trialN': 35, 'loaded': True, 'loadedTime': 2836, 'positionName': 'CENTER', 'positionCoords': [435, 155.5]}]",Rate how much you want to eat this food from 0 (least) to 10 (most).,117435,1669843772339,chicken nuggets2,2035,True,8.09,119470,2035,True,HRV,HRV_0288,2022-11-30 21:31:04
36,"[{'imgObject': {}, 'id': 'rigatoni and sauce', 'src': '/static/foodstim60/rigatoni and sauce.jpg', 'key': 'NaN', 'origWidth': 410, 'origHeight': 411, 'width': 410, 'height': 411, 'widthPercent': 0.8, 'rescaleHeight': True, 'trialN': 36, 'loaded': True, 'loadedTime': 2862, 'positionName': 'CENTER', 'positionCoords': [435, 154.5]}]",Rate how much you want to eat this food from 0 (least) to 10 (most).,119482,1669843774385,rigatoni and sauce,4012,True,5.04,123494,4012,True,HRV,HRV_0288,2022-11-30 21:31:04
37,"[{'imgObject': {}, 'id': 'froot loops w milk', 'src': '/static/foodstim60/froot loops w milk.jpg', 'key': 'NaN', 'origWidth': 410, 'origHeight': 410, 'width': 410, 'height': 410, 'widthPercent': 0.8, 'rescaleHeight': True, 'trialN': 37, 'loaded': True, 'loadedTime': 2866, 'positionName': 'CENTER', 'positionCoords': [435, 155]}]",Rate how much you want to eat this food from 0 (least) to 10 (most).,123507,1669843778411,froot loops w milk,2264,True,6.07,125771,2264,True,HRV,HRV_0288,2022-11-30 21:31:04
38,"[{'imgObject': {}, 'id': 'orange slices', 'src': '/static/foodstim60/orange slices.jpg', 'key': 'NaN', 'origWidth': 409, 'origHeight': 410, 'width': 409, 'height': 410, 'widthPercent': 0.8, 'rescaleHeight': True, 'trialN': 38, 'loaded': True, 'loadedTime': 2869, 'positionName': 'CENTER', 'positionCoords': [435.5, 155]}]",Rate how much you want to eat this food from 0 (least) to 10 (most).,125786,1669843780690,orange slices,16053,True,7.54,141839,16053,True,HRV,HRV_0288,2022-11-30 21:31:04
39,"[{'imgObject': {}, 'id': 'Tribe humus pita', 'src': '/static/foodstim60/Tribe humus pita.jpg', 'key': 'NaN', 'origWidth': 411, 'origHeight': 411, 'width': 411, 'height': 411, 'widthPercent': 0.8, 'rescaleHeight': True, 'trialN': 39, 'loaded': True, 'loadedTime': 2874, 'positionName': 'CENTER', 'positionCoords': [434.5, 154.5]}]",Rate how much you want to eat this food from 0 (least) to 10 (most).,141850,1669843796754,Tribe humus pita,2751,True,0.07,144601,2751,True,HRV,HRV_0288,2022-11-30 21:31:04
40,"[{'imgObject': {}, 'id': 'pear', 'src': '/static/foodstim60/pear.jpg', 'key': 'NaN', 'origWidth': 411, 'origHeight': 410, 'width': 411, 'height': 410, 'widthPercent': 0.8, 'rescaleHeight': True, 'trialN': 40, 'loaded': True, 'loadedTime': 2876, 'positionName': 'CENTER', 'positionCoords': [434.5, 155]}]",Rate how much you want to eat this food from 0 (least) to 10 (most).,144609,1669843799514,pear,2394,True,7.8500000000000005,147003,2394,True,HRV,HRV_0288,2022-11-30 21:31:04
41,"[{'imgObject': {}, 'id': 'yogurt no spoon', 'src': '/static/foodstim60/yogurt no spoon.jpg', 'key': 'NaN', 'origWidth': 411, 'origHeight': 410, 'width': 411, 'height': 410, 'widthPercent': 0.8, 'rescaleHeight': True, 'trialN': 41, 'loaded': True, 'loadedTime': 2885, 'positionName': 'CENTER', 'positionCoords': [434.5, 155]}]",Rate how much you want to eat this food from 0 (least) to 10 (most).,147017,1669843801921,yogurt no spoon,2185,True,9.01,149202,2185,True,HRV,HRV_0288,2022-11-30 21:31:04
42,"[{'imgObject': {}, 'id': 'burrito', 'src': '/static/foodstim60/burrito.jpg', 'key': 'NaN', 'origWidth': 410, 'origHeight': 410, 'width': 410, 'height': 410, 'widthPercent': 0.8, 'rescaleHeight': True, 'trialN': 42, 'loaded': True, 'loadedTime': 2914, 'positionName': 'CENTER', 'positionCoords': [435, 155]}]",Rate how much you want to eat this food from 0 (least) to 10 (most).,149210,1669843804113,burrito,3565,True,9.64,152775,3565,True,HRV,HRV_0288,2022-11-30 21:31:04
43,"[{'imgObject': {}, 'id': 'turkeysandwich', 'src': '/static/foodstim60/turkeysandwich.jpg', 'key': 'NaN', 'origWidth': 409, 'origHeight': 409, 'width': 409, 'height': 409, 'widthPercent': 0.8, 'rescaleHeight': True, 'trialN': 43, 'loaded': True, 'loadedTime': 2911, 'positionName': 'CENTER', 'positionCoords': [435.5, 155.5]}]",Rate how much you want to eat this food from 0 (least) to 10 (most).,152786,1669843807689,turkeysandwich,3265,True,8.51,156051,3265,True,HRV,HRV_0288,2022-11-30 21:31:04
44,"[{'imgObject': {}, 'id': 'salmon', 'src': '/static/foodstim60/salmon.jpg', 'key': 'NaN', 'origWidth': 410, 'origHeight': 409, 'width': 410, 'height': 409, 'widthPercent': 0.8, 'rescaleHeight': True, 'trialN': 44, 'loaded': True, 'loadedTime': 2917, 'positionName': 'CENTER', 'positionCoords': [435, 155.5]}]",Rate how much you want to eat this food from 0 (least) to 10 (most).,156074,1669843810977,salmon,3456,True,6.8100000000000005,159530,3456,True,HRV,HRV_0288,2022-11-30 21:31:04
45,"[{'imgObject': {}, 'id': 'eggsalad', 'src': '/static/foodstim60/eggsalad.jpg', 'key': 'NaN', 'origWidth': 410, 'origHeight': 409, 'width': 410, 'height': 409, 'widthPercent': 0.8, 'rescaleHeight': True, 'trialN': 45, 'loaded': True, 'loadedTime': 2921, 'positionName': 'CENTER', 'positionCoords': [435, 155.5]}]",Rate how much you want to eat this food from 0 (least) to 10 (most).,159546,1669843814449,eggsalad,6643,True,1.1,166189,6643,True,HRV,HRV_0288,2022-11-30 21:31:04
46,"[{'imgObject': {}, 'id': 'tacos', 'src': '/static/foodstim60/tacos.jpg', 'key': 'NaN', 'origWidth': 411, 'origHeight': 411, 'width': 411, 'height': 411, 'widthPercent': 0.8, 'rescaleHeight': True, 'trialN': 46, 'loaded': True, 'loadedTime': 2932, 'positionName': 'CENTER', 'positionCoords': [434.5, 154.5]}]",Rate how much you want to eat this food from 0 (least) to 10 (most).,166202,1669843821105,tacos,3576,True,9.26,169778,3576,True,HRV,HRV_0288,2022-11-30 21:31:04
47,"[{'imgObject': {}, 'id': 'banana', 'src': '/static/foodstim60/banana.jpg', 'key': 'NaN', 'origWidth': 410, 'origHeight': 410, 'width': 410, 'height': 410, 'widthPercent': 0.8, 'rescaleHeight': True, 'trialN': 47, 'loaded': True, 'loadedTime': 2935, 'positionName': 'CENTER', 'positionCoords': [435, 155]}]",Rate how much you want to eat this food from 0 (least) to 10 (most).,169794,1669843824697,banana,3198,True,5.8100000000000005,172992,3198,True,HRV,HRV_0288,2022-11-30 21:31:04
48,"[{'imgObject': {}, 'id': 'popsicles', 'src': '/static/foodstim60/popsicles.jpg', 'key': 'NaN', 'origWidth': 410, 'origHeight': 410, 'width': 410, 'height': 410, 'widthPercent': 0.8, 'rescaleHeight': True, 'trialN': 48, 'loaded': True, 'loadedTime': 2962, 'positionName': 'CENTER', 'positionCoords': [435, 155]}]",Rate how much you want to eat this food from 0 (least) to 10 (most).,173017,1669843827921,popsicles,1925,True,7.5,174942,1925,True,HRV,HRV_0288,2022-11-30 21:31:04
49,"[{'imgObject': {}, 'id': 'edamame', 'src': '/static/foodstim60/edamame.jpg', 'key': 'NaN', 'origWidth': 409, 'origHeight': 410, 'width': 409, 'height': 410, 'widthPercent': 0.8, 'rescaleHeight': True, 'trialN': 49, 'loaded': True, 'loadedTime': 2960, 'positionName': 'CENTER', 'positionCoords': [435.5, 155]}]",Rate how much you want to eat this food from 0 (least) to 10 (most).,174962,1669843829865,edamame,2211,True,1.43,177173,2211,True,HRV,HRV_0288,2022-11-30 21:31:04
50,"[{'imgObject': {}, 'id': 'rigatoni', 'src': '/static/foodstim60/rigatoni.jpg', 'key': 'NaN', 'origWidth': 411, 'origHeight': 411, 'width': 411, 'height': 411, 'widthPercent': 0.8, 'rescaleHeight': True, 'trialN': 50, 'loaded': True, 'loadedTime': 2965, 'positionName': 'CENTER', 'positionCoords': [434.5, 154.5]}]",Rate how much you want to eat this food from 0 (least) to 10 (most).,177185,1669843832089,rigatoni,2421,True,0.17,179606,2421,True,HRV,HRV_0288,2022-11-30 21:31:04
51,"[{'imgObject': {}, 'id': 'baked potato', 'src': '/static/foodstim60/baked potato.jpg', 'key': 'NaN', 'origWidth': 409, 'origHeight': 410, 'width': 409, 'height': 410, 'widthPercent': 0.8, 'rescaleHeight': True, 'trialN': 51, 'loaded': True, 'loadedTime': 2969, 'positionName': 'CENTER', 'positionCoords': [435.5, 155]}]",Rate how much you want to eat this food from 0 (least) to 10 (most).,179624,1669843834528,baked potato,3446,True,6.7,183070,3446,True,HRV,HRV_0288,2022-11-30 21:31:04
52,"[{'imgObject': {}, 'id': 'avocado', 'src': '/static/foodstim60/avocado.jpg', 'key': 'NaN', 'origWidth': 409, 'origHeight': 409, 'width': 409, 'height': 409, 'widthPercent': 0.8, 'rescaleHeight': True, 'trialN': 52, 'loaded': True, 'loadedTime': 2981, 'positionName': 'CENTER', 'positionCoords': [435.5, 155.5]}]",Rate how much you want to eat this food from 0 (least) to 10 (most).,183089,1669843837993,avocado,3849,True,0.46,186938,3849,True,HRV,HRV_0288,2022-11-30 21:31:04
53,"[{'imgObject': {}, 'id': 'mac & cheese', 'src': '/static/foodstim60/mac & cheese.jpg', 'key': 'NaN', 'origWidth': 410, 'origHeight': 410, 'width': 410, 'height': 410, 'widthPercent': 0.8, 'rescaleHeight': True, 'trialN': 53, 'loaded': True, 'loadedTime': 2976, 'positionName': 'CENTER', 'positionCoords': [435, 155]}]",Rate how much you want to eat this food from 0 (least) to 10 (most).,186961,1669843841865,mac & cheese,2910,True,6.48,189871,2910,True,HRV,HRV_0288,2022-11-30 21:31:04
54,"[{'imgObject': {}, 'id': 'bagel plain', 'src': '/static/foodstim60/bagel plain.jpg', 'key': 'NaN', 'origWidth': 410, 'origHeight': 410, 'width': 410, 'height': 410, 'widthPercent': 0.8, 'rescaleHeight': True, 'trialN': 54, 'loaded': True, 'loadedTime': 3011, 'positionName': 'CENTER', 'positionCoords': [435, 155]}]",Rate how much you want to eat this food from 0 (least) to 10 (most).,189889,1669843844792,bagel plain,4600,True,1.06,194489,4600,True,HRV,HRV_0288,2022-11-30 21:31:04
55,"[{'imgObject': {}, 'id': 'cantaloupe', 'src': '/static/foodstim60/cantaloupe.jpg', 'key': 'NaN', 'origWidth': 409, 'origHeight': 409, 'width': 409, 'height': 409, 'widthPercent': 0.8, 'rescaleHeight': True, 'trialN': 55, 'loaded': True, 'loadedTime': 3016, 'positionName': 'CENTER', 'positionCoords': [435.5, 155.5]}]",Rate how much you want to eat this food from 0 (least) to 10 (most).,194504,1669843849408,cantaloupe,2403,True,8.76,196907,2403,True,HRV,HRV_0288,2022-11-30 21:31:04
56,"[{'imgObject': {}, 'id': 'veggieswithdip', 'src': '/static/foodstim60/veggieswithdip.jpg', 'key': 'NaN', 'origWidth': 409, 'origHeight': 409, 'width': 409, 'height': 409, 'widthPercent': 0.8, 'rescaleHeight': True, 'trialN': 56, 'loaded': True, 'loadedTime': 3018, 'positionName': 'CENTER', 'positionCoords': [435.5, 155.5]}]",Rate how much you want to eat this food from 0 (least) to 10 (most).,196921,1669843851825,veggieswithdip,2794,True,8.01,199715,2794,True,HRV,HRV_0288,2022-11-30 21:31:04
57,"[{'imgObject': {}, 'id': 'omelette', 'src': '/static/foodstim60/omelette.jpg', 'key': 'NaN', 'origWidth': 410, 'origHeight': 409, 'width': 410, 'height': 409, 'widthPercent': 0.8, 'rescaleHeight': True, 'trialN': 57, 'loaded': True, 'loadedTime': 3021, 'positionName': 'CENTER', 'positionCoords': [435, 155.5]}]",Rate how much you want to eat this food from 0 (least) to 10 (most).,199729,1669843854632,omelette,3543,True,6.04,203272,3543,True,HRV,HRV_0288,2022-11-30 21:31:04
58,"[{'imgObject': {}, 'id': 'blueberries', 'src': '/static/foodstim60/blueberries.jpg', 'key': 'NaN', 'origWidth': 411, 'origHeight': 411, 'width': 411, 'height': 411, 'widthPercent': 0.8, 'rescaleHeight': True, 'trialN': 58, 'loaded': True, 'loadedTime': 3025, 'positionName': 'CENTER', 'positionCoords': [434.5, 154.5]}]",Rate how much you want to eat this food from 0 (least) to 10 (most).,203280,1669843858185,blueberries,1942,True,7.46,205222,1942,True,HRV,HRV_0288,2022-11-30 21:31:04
59,"[{'imgObject': {}, 'id': 'ice cream sundae 002', 'src': '/static/foodstim60/ice cream sundae 002.jpg', 'key': 'NaN', 'origWidth': 409, 'origHeight': 409, 'width': 409, 'height': 409, 'widthPercent': 0.8, 'rescaleHeight': True, 'trialN': 59, 'loaded': True, 'loadedTime': 3031, 'positionName': 'CENTER', 'positionCoords': [435.5, 155.5]}]",Rate how much you want to eat this food from 0 (least) to 10 (most).,205233,1669843860136,ice cream sundae 002,3577,True,9.23,208810,3577,True,HRV,HRV_0288,2022-11-30 21:31:04
