trialN,stimuli,trialStartTime,trialStartTime_UNIX,stimulus1,stimulus2,stimulus1Bid,stimulus2Bid,delta,selected,rt,rt_UNIX,rt_perfnow,receivedResponse,rsp,trialEndTime,trialDuration,trialEndTime_UNIX,trialDuration_UNIX,exp,subjectId,date
0,"[{'imgObject': {}, 'id': 'turkeysandwich', 'src': '/static/foodstim60/turkeysandwich.jpg', 'key': 'u', 'origWidth': 409, 'origHeight': 409, 'width': 409, 'height': 409, 'widthPercent': 0.45, 'rescaleHeight': False, 'trialN': 0, 'loaded': True, 'loadedTime': 3308, 'positionName': 'LEFT', 'positionCoords': [108.44, 683.5], 'bid': 8.46}, {'imgObject': {}, 'id': 'luckycharms', 'src': '/static/foodstim60/luckycharms.jpg', 'key': 'i', 'origWidth': 410, 'origHeight': 409, 'width': 410, 'height': 409, 'widthPercent': 0.45, 'rescaleHeight': False, 'trialN': 0, 'loaded': True, 'loadedTime': 3378.2000000178814, 'positionName': 'RIGHT', 'positionCoords': [560.56, 683.5], 'bid': 8.48}]",4855.700000017881,1669833146510,turkeysandwich,luckycharms,8.46,8.48,0.019999999999999574,luckycharms,1643.5999999940395,1644,1644.199999988079,True,i,7003.0999999940395,2147.399999976158,1669833148657,2147,HRV,HRV_0193,2022-11-30 18:38:19
1,"[{'imgObject': {}, 'id': 'tacos', 'src': '/static/foodstim60/tacos.jpg', 'key': 'u', 'origWidth': 411, 'origHeight': 411, 'width': 411, 'height': 411, 'widthPercent': 0.45, 'rescaleHeight': False, 'trialN': 1, 'loaded': True, 'loadedTime': 3378.5999999940395, 'positionName': 'LEFT', 'positionCoords': [106.44, 682.5], 'bid': 5.76}, {'imgObject': {}, 'id': 'shreddedwheatwithmilk', 'src': '/static/foodstim60/shreddedwheatwithmilk.jpg', 'key': 'i', 'origWidth': 410, 'origHeight': 410, 'width': 410, 'height': 410, 'widthPercent': 0.45, 'rescaleHeight': False, 'trialN': 1, 'loaded': True, 'loadedTime': 3465.4000000059605, 'positionName': 'RIGHT', 'positionCoords': [560.56, 683], 'bid': 5.57}]",7003.700000017881,1669833148658,tacos,shreddedwheatwithmilk,5.76,5.57,-0.1899999999999995,tacos,1390.699999988079,1391,1391.0,True,u,8898.5,1894.7999999821186,1669833150553,1895,HRV,HRV_0193,2022-11-30 18:38:19
2,"[{'imgObject': {}, 'id': 'yogurt no spoon', 'src': '/static/foodstim60/yogurt no spoon.jpg', 'key': 'u', 'origWidth': 411, 'origHeight': 410, 'width': 411, 'height': 410, 'widthPercent': 0.45, 'rescaleHeight': False, 'trialN': 2, 'loaded': True, 'loadedTime': 3465.800000011921, 'positionName': 'LEFT', 'positionCoords': [106.44, 683], 'bid': 1.92}, {'imgObject': {}, 'id': 'bagel and cc', 'src': '/static/foodstim60/bagel and cc.jpg', 'key': 'i', 'origWidth': 410, 'origHeight': 410, 'width': 410, 'height': 410, 'widthPercent': 0.45, 'rescaleHeight': False, 'trialN': 2, 'loaded': True, 'loadedTime': 3514, 'positionName': 'RIGHT', 'positionCoords': [560.56, 683], 'bid': 6.53}]",8898.90000000596,1669833150553,yogurt no spoon,bagel and cc,1.92,6.53,4.61,yogurt no spoon,1393.9000000059605,1395,1394.300000011921,True,u,10793.800000011921,1894.9000000059605,1669833152448,1895,HRV,HRV_0193,2022-11-30 18:38:19
3,"[{'imgObject': {}, 'id': 'turkey sandwich', 'src': '/static/foodstim60/turkey sandwich.jpg', 'key': 'u', 'origWidth': 409, 'origHeight': 409, 'width': 409, 'height': 409, 'widthPercent': 0.45, 'rescaleHeight': False, 'trialN': 3, 'loaded': True, 'loadedTime': 3546, 'positionName': 'LEFT', 'positionCoords': [108.44, 683.5], 'bid': 7.52}, {'imgObject': {}, 'id': 'roastedpotatoes', 'src': '/static/foodstim60/roastedpotatoes.jpg', 'key': 'i', 'origWidth': 409, 'origHeight': 410, 'width': 409, 'height': 410, 'widthPercent': 0.45, 'rescaleHeight': False, 'trialN': 3, 'loaded': True, 'loadedTime': 3648.2000000178814, 'positionName': 'RIGHT', 'positionCoords': [560.56, 683], 'bid': 8.15}]",10794.300000011921,1669833152449,turkey sandwich,roastedpotatoes,7.52,8.15,0.6300000000000008,roastedpotatoes,1409.4000000059605,1409,1409.7999999821186,True,i,12706.300000011921,1912.0,1669833154361,1912,HRV,HRV_0193,2022-11-30 18:38:19
4,"[{'imgObject': {}, 'id': 'blueberries', 'src': '/static/foodstim60/blueberries.jpg', 'key': 'u', 'origWidth': 411, 'origHeight': 411, 'width': 411, 'height': 411, 'widthPercent': 0.45, 'rescaleHeight': False, 'trialN': 4, 'loaded': True, 'loadedTime': 3707.800000011921, 'positionName': 'LEFT', 'positionCoords': [106.44, 682.5], 'bid': 6.66}, {'imgObject': {}, 'id': 'rigatoni and sauce', 'src': '/static/foodstim60/rigatoni and sauce.jpg', 'key': 'i', 'origWidth': 410, 'origHeight': 411, 'width': 410, 'height': 411, 'widthPercent': 0.45, 'rescaleHeight': False, 'trialN': 4, 'loaded': True, 'loadedTime': 3728.7000000178814, 'positionName': 'RIGHT', 'positionCoords': [560.56, 682.5], 'bid': 7.26}]",12706.59999999404,1669833154361,blueberries,rigatoni and sauce,6.66,7.26,0.5999999999999996,blueberries,1289.7000000178814,1290,1290.2000000178814,True,u,14499.5,1792.9000000059605,1669833156154,1793,HRV,HRV_0193,2022-11-30 18:38:19
5,"[{'imgObject': {}, 'id': 'corn cob', 'src': '/static/foodstim60/corn cob.jpg', 'key': 'u', 'origWidth': 411, 'origHeight': 411, 'width': 411, 'height': 411, 'widthPercent': 0.45, 'rescaleHeight': False, 'trialN': 5, 'loaded': True, 'loadedTime': 3769.2000000178814, 'positionName': 'LEFT', 'positionCoords': [106.44, 682.5], 'bid': 8.06}, {'imgObject': {}, 'id': 'eggs', 'src': '/static/foodstim60/eggs.jpg', 'key': 'i', 'origWidth': 409, 'origHeight': 409, 'width': 409, 'height': 409, 'widthPercent': 0.45, 'rescaleHeight': False, 'trialN': 5, 'loaded': True, 'loadedTime': 3834.2000000178814, 'positionName': 'RIGHT', 'positionCoords': [560.56, 683.5], 'bid': 7.65}]",14499.90000000596,1669833156154,corn cob,eggs,8.06,7.65,-0.41000000000000014,eggs,2097.300000011921,2098,2097.699999988079,True,i,17106.70000001788,2606.800000011921,1669833158761,2607,HRV,HRV_0193,2022-11-30 18:38:19
6,"[{'imgObject': {}, 'id': 'fried eggs', 'src': '/static/foodstim60/fried eggs.jpg', 'key': 'u', 'origWidth': 410, 'origHeight': 410, 'width': 410, 'height': 410, 'widthPercent': 0.45, 'rescaleHeight': False, 'trialN': 6, 'loaded': True, 'loadedTime': 3872.2000000178814, 'positionName': 'LEFT', 'positionCoords': [107.44, 683], 'bid': 6.91}, {'imgObject': {}, 'id': 'popsicles', 'src': '/static/foodstim60/popsicles.jpg', 'key': 'i', 'origWidth': 410, 'origHeight': 410, 'width': 410, 'height': 410, 'widthPercent': 0.45, 'rescaleHeight': False, 'trialN': 6, 'loaded': True, 'loadedTime': 4847.5, 'positionName': 'RIGHT', 'positionCoords': [560.56, 683], 'bid': 6.48}]",17107.0,1669833158761,fried eggs,popsicles,6.91,6.48,-0.4299999999999997,fried eggs,1352.5999999940395,1353,1352.9000000059605,True,u,18962.80000001192,1855.800000011921,1669833160617,1856,HRV,HRV_0193,2022-11-30 18:38:19
7,"[{'imgObject': {}, 'id': 'raspberries', 'src': '/static/foodstim60/raspberries.jpg', 'key': 'u', 'origWidth': 411, 'origHeight': 411, 'width': 411, 'height': 411, 'widthPercent': 0.45, 'rescaleHeight': False, 'trialN': 7, 'loaded': True, 'loadedTime': 3909.5, 'positionName': 'LEFT', 'positionCoords': [106.44, 682.5], 'bid': 6.74}, {'imgObject': {}, 'id': 'orange slices', 'src': '/static/foodstim60/orange slices.jpg', 'key': 'i', 'origWidth': 409, 'origHeight': 410, 'width': 409, 'height': 410, 'widthPercent': 0.45, 'rescaleHeight': False, 'trialN': 7, 'loaded': True, 'loadedTime': 3941, 'positionName': 'RIGHT', 'positionCoords': [560.56, 683], 'bid': 6.76}]",18963.09999999404,1669833160617,raspberries,orange slices,6.74,6.76,0.019999999999999574,orange slices,1666.4000000059605,1667,1666.800000011921,True,i,21139.0,2175.9000000059605,1669833162793,2176,HRV,HRV_0193,2022-11-30 18:38:19
8,"[{'imgObject': {}, 'id': 'mac & cheese', 'src': '/static/foodstim60/mac & cheese.jpg', 'key': 'u', 'origWidth': 410, 'origHeight': 410, 'width': 410, 'height': 410, 'widthPercent': 0.45, 'rescaleHeight': False, 'trialN': 8, 'loaded': True, 'loadedTime': 3980.7000000178814, 'positionName': 'LEFT', 'positionCoords': [107.44, 683], 'bid': 7.33}, {'imgObject': {}, 'id': 'edamame', 'src': '/static/foodstim60/edamame.jpg', 'key': 'i', 'origWidth': 409, 'origHeight': 410, 'width': 409, 'height': 410, 'widthPercent': 0.45, 'rescaleHeight': False, 'trialN': 8, 'loaded': True, 'loadedTime': 4038.5, 'positionName': 'RIGHT', 'positionCoords': [560.56, 683], 'bid': 7.890000000000001}]",21139.40000000596,1669833162794,mac & cheese,edamame,7.33,7.890000000000001,0.5600000000000005,edamame,2290.9000000059605,2291,2291.300000011921,True,i,23938.59999999404,2799.199999988079,1669833165593,2799,HRV,HRV_0193,2022-11-30 18:38:19
9,"[{'imgObject': {}, 'id': 'chickenfingers', 'src': '/static/foodstim60/chickenfingers.jpg', 'key': 'u', 'origWidth': 410, 'origHeight': 410, 'width': 410, 'height': 410, 'widthPercent': 0.45, 'rescaleHeight': False, 'trialN': 9, 'loaded': True, 'loadedTime': 4104.5999999940395, 'positionName': 'LEFT', 'positionCoords': [107.44, 683], 'bid': 8.2}, {'imgObject': {}, 'id': 'roastedpotatoes', 'src': '/static/foodstim60/roastedpotatoes.jpg', 'key': 'i', 'origWidth': 409, 'origHeight': 410, 'width': 409, 'height': 410, 'widthPercent': 0.45, 'rescaleHeight': False, 'trialN': 9, 'loaded': True, 'loadedTime': 3655.2000000178814, 'positionName': 'RIGHT', 'positionCoords': [560.56, 683], 'bid': 8.15}]",23939.0,1669833165593,chickenfingers,roastedpotatoes,8.2,8.15,-0.049999999999998934,roastedpotatoes,1835.2000000178814,1836,1835.7000000178814,True,i,26283.40000000596,2344.4000000059605,1669833167938,2345,HRV,HRV_0193,2022-11-30 18:38:19
10,"[{'imgObject': {}, 'id': 'banana', 'src': '/static/foodstim60/banana.jpg', 'key': 'u', 'origWidth': 410, 'origHeight': 410, 'width': 410, 'height': 410, 'widthPercent': 0.45, 'rescaleHeight': False, 'trialN': 10, 'loaded': True, 'loadedTime': 4144.800000011921, 'positionName': 'LEFT', 'positionCoords': [107.44, 683], 'bid': 7.2}, {'imgObject': {}, 'id': 'cantaloupe', 'src': '/static/foodstim60/cantaloupe.jpg', 'key': 'i', 'origWidth': 409, 'origHeight': 409, 'width': 409, 'height': 409, 'widthPercent': 0.45, 'rescaleHeight': False, 'trialN': 10, 'loaded': True, 'loadedTime': 4188.4000000059605, 'positionName': 'RIGHT', 'positionCoords': [560.56, 683.5], 'bid': 7.15}]",26283.90000000596,1669833167938,banana,cantaloupe,7.2,7.15,-0.04999999999999982,cantaloupe,2081.5,2082,2082.0,True,i,28874.5,2590.5999999940395,1669833170529,2591,HRV,HRV_0193,2022-11-30 18:38:19
11,"[{'imgObject': {}, 'id': 'strawberries', 'src': '/static/foodstim60/strawberries.jpg', 'key': 'u', 'origWidth': 410, 'origHeight': 410, 'width': 410, 'height': 410, 'widthPercent': 0.45, 'rescaleHeight': False, 'trialN': 11, 'loaded': True, 'loadedTime': 4203.9000000059605, 'positionName': 'LEFT', 'positionCoords': [107.44, 683], 'bid': 7.69}, {'imgObject': {}, 'id': 'mango', 'src': '/static/foodstim60/mango.jpg', 'key': 'i', 'origWidth': 411, 'origHeight': 411, 'width': 411, 'height': 411, 'widthPercent': 0.45, 'rescaleHeight': False, 'trialN': 11, 'loaded': True, 'loadedTime': 4269.700000017881, 'positionName': 'RIGHT', 'positionCoords': [560.56, 682.5], 'bid': 7.52}]",28874.90000000596,1669833170529,strawberries,mango,7.69,7.52,-0.17000000000000082,strawberries,1402.9000000059605,1404,1403.4000000059605,True,u,30786.59999999404,1911.699999988079,1669833172441,1912,HRV,HRV_0193,2022-11-30 18:38:19
12,"[{'imgObject': {}, 'id': 'burger', 'src': '/static/foodstim60/burger.jpg', 'key': 'u', 'origWidth': 409, 'origHeight': 409, 'width': 409, 'height': 409, 'widthPercent': 0.45, 'rescaleHeight': False, 'trialN': 12, 'loaded': True, 'loadedTime': 4306.300000011921, 'positionName': 'LEFT', 'positionCoords': [108.44, 683.5], 'bid': 7.74}, {'imgObject': {}, 'id': 'seaweed', 'src': '/static/foodstim60/seaweed.jpg', 'key': 'i', 'origWidth': 410, 'origHeight': 410, 'width': 410, 'height': 410, 'widthPercent': 0.45, 'rescaleHeight': False, 'trialN': 12, 'loaded': True, 'loadedTime': 3787.2000000178814, 'positionName': 'RIGHT', 'positionCoords': [560.56, 683], 'bid': 6.66}]",30787.0,1669833172441,burger,seaweed,7.74,6.66,-1.08,seaweed,1891,1892,1891.5,True,i,33186.59999999404,2399.5999999940395,1669833174841,2400,HRV,HRV_0193,2022-11-30 18:38:19
13,"[{'imgObject': {}, 'id': 'veggieswithdip', 'src': '/static/foodstim60/veggieswithdip.jpg', 'key': 'u', 'origWidth': 409, 'origHeight': 409, 'width': 409, 'height': 409, 'widthPercent': 0.45, 'rescaleHeight': False, 'trialN': 13, 'loaded': True, 'loadedTime': 3974.2000000178814, 'positionName': 'LEFT', 'positionCoords': [108.44, 683.5], 'bid': 7.57}, {'imgObject': {}, 'id': 'cheerios', 'src': '/static/foodstim60/cheerios.jpg', 'key': 'i', 'origWidth': 409, 'origHeight': 410, 'width': 409, 'height': 410, 'widthPercent': 0.45, 'rescaleHeight': False, 'trialN': 13, 'loaded': True, 'loadedTime': 4066.0999999940395, 'positionName': 'RIGHT', 'positionCoords': [560.56, 683], 'bid': 7.82}]",33186.90000000596,1669833174841,veggieswithdip,cheerios,7.57,7.82,0.25,veggieswithdip,1363.5,1364,1363.9000000059605,True,u,35058.59999999404,1871.699999988079,1669833176713,1872,HRV,HRV_0193,2022-11-30 18:38:19
14,"[{'imgObject': {}, 'id': 'apple slices', 'src': '/static/foodstim60/apple slices.jpg', 'key': 'u', 'origWidth': 409, 'origHeight': 410, 'width': 409, 'height': 410, 'widthPercent': 0.45, 'rescaleHeight': False, 'trialN': 14, 'loaded': True, 'loadedTime': 4118.800000011921, 'positionName': 'LEFT', 'positionCoords': [108.44, 683], 'bid': 7.96}, {'imgObject': {}, 'id': 'salmon', 'src': '/static/foodstim60/salmon.jpg', 'key': 'i', 'origWidth': 410, 'origHeight': 409, 'width': 410, 'height': 409, 'widthPercent': 0.45, 'rescaleHeight': False, 'trialN': 14, 'loaded': True, 'loadedTime': 4243.800000011921, 'positionName': 'RIGHT', 'positionCoords': [560.56, 683.5], 'bid': 6.98}]",35059.0,1669833176713,apple slices,salmon,7.96,6.98,-0.9799999999999995,apple slices,1538.9000000059605,1540,1539.300000011921,True,u,37106.70000001788,2047.7000000178814,1669833178761,2048,HRV,HRV_0193,2022-11-30 18:38:19
15,"[{'imgObject': {}, 'id': 'yogurt no spoon', 'src': '/static/foodstim60/yogurt no spoon.jpg', 'key': 'u', 'origWidth': 411, 'origHeight': 410, 'width': 411, 'height': 410, 'widthPercent': 0.45, 'rescaleHeight': False, 'trialN': 15, 'loaded': True, 'loadedTime': 3496.9000000059605, 'positionName': 'LEFT', 'positionCoords': [106.44, 683], 'bid': 1.92}, {'imgObject': {}, 'id': 'shreddedwheatwithmilk', 'src': '/static/foodstim60/shreddedwheatwithmilk.jpg', 'key': 'i', 'origWidth': 410, 'origHeight': 410, 'width': 410, 'height': 410, 'widthPercent': 0.45, 'rescaleHeight': False, 'trialN': 15, 'loaded': True, 'loadedTime': 3438.5, 'positionName': 'RIGHT', 'positionCoords': [560.56, 683], 'bid': 5.57}]",37107.09999999404,1669833178761,yogurt no spoon,shreddedwheatwithmilk,1.92,5.57,3.6500000000000004,yogurt no spoon,1939.7000000178814,1940,1940.0,True,u,39554.90000000596,2447.800000011921,1669833181209,2448,HRV,HRV_0193,2022-11-30 18:38:19
16,"[{'imgObject': {}, 'id': 'ice cream sundae 002', 'src': '/static/foodstim60/ice cream sundae 002.jpg', 'key': 'u', 'origWidth': 409, 'origHeight': 409, 'width': 409, 'height': 409, 'widthPercent': 0.45, 'rescaleHeight': False, 'trialN': 16, 'loaded': True, 'loadedTime': 4334.0999999940395, 'positionName': 'LEFT', 'positionCoords': [108.44, 683.5], 'bid': 7.17}, {'imgObject': {}, 'id': 'mac & cheese', 'src': '/static/foodstim60/mac & cheese.jpg', 'key': 'i', 'origWidth': 410, 'origHeight': 410, 'width': 410, 'height': 410, 'widthPercent': 0.45, 'rescaleHeight': False, 'trialN': 16, 'loaded': True, 'loadedTime': 3995.2000000178814, 'positionName': 'RIGHT', 'positionCoords': [560.56, 683], 'bid': 7.33}]",39555.20000001788,1669833181209,ice cream sundae 002,mac & cheese,7.17,7.33,0.16000000000000014,mac & cheese,1716.3999999761581,1718,1717.199999988079,True,i,41779.5,2224.2999999821186,1669833183434,2225,HRV,HRV_0193,2022-11-30 18:38:19
17,"[{'imgObject': {}, 'id': 'cherries', 'src': '/static/foodstim60/cherries.jpg', 'key': 'u', 'origWidth': 410, 'origHeight': 411, 'width': 410, 'height': 411, 'widthPercent': 0.45, 'rescaleHeight': False, 'trialN': 17, 'loaded': True, 'loadedTime': 4341.5999999940395, 'positionName': 'LEFT', 'positionCoords': [107.44, 682.5], 'bid': 7.94}, {'imgObject': {}, 'id': 'avocado', 'src': '/static/foodstim60/avocado.jpg', 'key': 'i', 'origWidth': 409, 'origHeight': 409, 'width': 409, 'height': 409, 'widthPercent': 0.45, 'rescaleHeight': False, 'trialN': 17, 'loaded': True, 'loadedTime': 4384.300000011921, 'positionName': 'RIGHT', 'positionCoords': [560.56, 683.5], 'bid': 8.28}]",41779.80000001192,1669833183434,cherries,avocado,7.94,8.28,0.33999999999999897,avocado,1395.5999999940395,1396,1395.7999999821186,True,i,43682.59999999404,1902.7999999821186,1669833185337,1903,HRV,HRV_0193,2022-11-30 18:38:19
18,"[{'imgObject': {}, 'id': 'popsicles', 'src': '/static/foodstim60/popsicles.jpg', 'key': 'u', 'origWidth': 410, 'origHeight': 410, 'width': 410, 'height': 410, 'widthPercent': 0.45, 'rescaleHeight': False, 'trialN': 18, 'loaded': True, 'loadedTime': 4847, 'positionName': 'LEFT', 'positionCoords': [107.44, 683], 'bid': 6.48}, {'imgObject': {}, 'id': 'shreddedwheatwithmilk', 'src': '/static/foodstim60/shreddedwheatwithmilk.jpg', 'key': 'i', 'origWidth': 410, 'origHeight': 410, 'width': 410, 'height': 410, 'widthPercent': 0.45, 'rescaleHeight': False, 'trialN': 18, 'loaded': True, 'loadedTime': 3445.7000000178814, 'positionName': 'RIGHT', 'positionCoords': [560.56, 683], 'bid': 5.57}]",43683.09999999404,1669833185337,popsicles,shreddedwheatwithmilk,6.48,5.57,-0.9100000000000001,shreddedwheatwithmilk,1525.5,1527,1526.300000011921,True,i,45714.40000000596,2031.300000011921,1669833187369,2032,HRV,HRV_0193,2022-11-30 18:38:19
19,"[{'imgObject': {}, 'id': 'hashbrowns', 'src': '/static/foodstim60/hashbrowns.jpg', 'key': 'u', 'origWidth': 411, 'origHeight': 410, 'width': 411, 'height': 410, 'widthPercent': 0.45, 'rescaleHeight': False, 'trialN': 19, 'loaded': True, 'loadedTime': 4396.5999999940395, 'positionName': 'LEFT', 'positionCoords': [106.44, 683], 'bid': 7.67}, {'imgObject': {}, 'id': 'omelette', 'src': '/static/foodstim60/omelette.jpg', 'key': 'i', 'origWidth': 410, 'origHeight': 409, 'width': 410, 'height': 409, 'widthPercent': 0.45, 'rescaleHeight': False, 'trialN': 19, 'loaded': True, 'loadedTime': 4416.5999999940395, 'positionName': 'RIGHT', 'positionCoords': [560.56, 683.5], 'bid': 8.33}]",45714.59999999404,1669833187369,hashbrowns,omelette,7.67,8.33,0.6600000000000001,omelette,2030.1000000238419,2030,2030.5,True,i,48250.90000000596,2536.300000011921,1669833189905,2536,HRV,HRV_0193,2022-11-30 18:38:19
20,"[{'imgObject': {}, 'id': 'cherry tomato', 'src': '/static/foodstim60/cherry tomato.jpg', 'key': 'u', 'origWidth': 410, 'origHeight': 410, 'width': 410, 'height': 410, 'widthPercent': 0.45, 'rescaleHeight': False, 'trialN': 20, 'loaded': True, 'loadedTime': 4437.700000017881, 'positionName': 'LEFT', 'positionCoords': [107.44, 683], 'bid': 7.11}, {'imgObject': {}, 'id': 'kiwi', 'src': '/static/foodstim60/kiwi.jpg', 'key': 'i', 'origWidth': 410, 'origHeight': 410, 'width': 410, 'height': 410, 'widthPercent': 0.45, 'rescaleHeight': False, 'trialN': 20, 'loaded': True, 'loadedTime': 4479, 'positionName': 'RIGHT', 'positionCoords': [560.56, 683], 'bid': 7.33}]",48251.20000001788,1669833189905,cherry tomato,kiwi,7.11,7.33,0.21999999999999975,cherry tomato,1396.7999999821186,1398,1397.5,True,u,50155.09999999404,1903.8999999761581,1669833191809,1904,HRV,HRV_0193,2022-11-30 18:38:19
21,"[{'imgObject': {}, 'id': 'cocktailshrimp', 'src': '/static/foodstim60/cocktailshrimp.jpg', 'key': 'u', 'origWidth': 410, 'origHeight': 410, 'width': 410, 'height': 410, 'widthPercent': 0.45, 'rescaleHeight': False, 'trialN': 21, 'loaded': True, 'loadedTime': 4480.200000017881, 'positionName': 'LEFT', 'positionCoords': [107.44, 683], 'bid': 7.54}, {'imgObject': {}, 'id': 'mango', 'src': '/static/foodstim60/mango.jpg', 'key': 'i', 'origWidth': 411, 'origHeight': 411, 'width': 411, 'height': 411, 'widthPercent': 0.45, 'rescaleHeight': False, 'trialN': 21, 'loaded': True, 'loadedTime': 4263.9000000059605, 'positionName': 'RIGHT', 'positionCoords': [560.56, 682.5], 'bid': 7.52}]",50155.30000001192,1669833191810,cocktailshrimp,mango,7.54,7.52,-0.020000000000000462,cocktailshrimp,1645.5999999940395,1645,1645.9000000059605,True,u,52306.30000001192,2151.0,1669833193961,2151,HRV,HRV_0193,2022-11-30 18:38:19
22,"[{'imgObject': {}, 'id': 'fruitsalad', 'src': '/static/foodstim60/fruitsalad.jpg', 'key': 'u', 'origWidth': 410, 'origHeight': 410, 'width': 410, 'height': 410, 'widthPercent': 0.45, 'rescaleHeight': False, 'trialN': 22, 'loaded': True, 'loadedTime': 4520.4000000059605, 'positionName': 'LEFT', 'positionCoords': [107.44, 683], 'bid': 8.26}, {'imgObject': {}, 'id': 'avocado', 'src': '/static/foodstim60/avocado.jpg', 'key': 'i', 'origWidth': 409, 'origHeight': 409, 'width': 409, 'height': 409, 'widthPercent': 0.45, 'rescaleHeight': False, 'trialN': 22, 'loaded': True, 'loadedTime': 4374.0999999940395, 'positionName': 'RIGHT', 'positionCoords': [560.56, 683.5], 'bid': 8.28}]",52306.5,1669833193961,fruitsalad,avocado,8.26,8.28,0.019999999999999574,avocado,1582.7000000178814,1583,1583.0999999940395,True,i,54394.5,2088.0,1669833196049,2088,HRV,HRV_0193,2022-11-30 18:38:19
23,"[{'imgObject': {}, 'id': 'grilled chicken strips', 'src': '/static/foodstim60/grilled chicken strips.jpg', 'key': 'u', 'origWidth': 410, 'origHeight': 411, 'width': 410, 'height': 411, 'widthPercent': 0.45, 'rescaleHeight': False, 'trialN': 23, 'loaded': True, 'loadedTime': 4530.5999999940395, 'positionName': 'LEFT', 'positionCoords': [107.44, 682.5], 'bid': 7.09}, {'imgObject': {}, 'id': 'mac & cheese', 'src': '/static/foodstim60/mac & cheese.jpg', 'key': 'i', 'origWidth': 410, 'origHeight': 410, 'width': 410, 'height': 410, 'widthPercent': 0.45, 'rescaleHeight': False, 'trialN': 23, 'loaded': True, 'loadedTime': 3988.800000011921, 'positionName': 'RIGHT', 'positionCoords': [560.56, 683], 'bid': 7.33}]",54394.90000000596,1669833196049,grilled chicken strips,mac & cheese,7.09,7.33,0.2400000000000002,grilled chicken strips,1382.5999999940395,1383,1383.0,True,u,56282.30000001192,1887.4000000059605,1669833197937,1888,HRV,HRV_0193,2022-11-30 18:38:19
24,"[{'imgObject': {}, 'id': 'rigatoni', 'src': '/static/foodstim60/rigatoni.jpg', 'key': 'u', 'origWidth': 411, 'origHeight': 411, 'width': 411, 'height': 411, 'widthPercent': 0.45, 'rescaleHeight': False, 'trialN': 24, 'loaded': True, 'loadedTime': 4531.5, 'positionName': 'LEFT', 'positionCoords': [106.44, 682.5], 'bid': 6.09}, {'imgObject': {}, 'id': 'Tribe humus pita', 'src': '/static/foodstim60/Tribe humus pita.jpg', 'key': 'i', 'origWidth': 411, 'origHeight': 411, 'width': 411, 'height': 411, 'widthPercent': 0.45, 'rescaleHeight': False, 'trialN': 24, 'loaded': True, 'loadedTime': 4573.4000000059605, 'positionName': 'RIGHT', 'positionCoords': [560.56, 682.5], 'bid': 6.92}]",56282.80000001192,1669833197938,rigatoni,Tribe humus pita,6.09,6.92,0.8300000000000001,rigatoni,1551.9000000059605,1552,1552.4000000059605,True,u,58338.59999999404,2055.7999999821186,1669833199994,2056,HRV,HRV_0193,2022-11-30 18:38:19
25,"[{'imgObject': {}, 'id': 'rigatoni and sauce', 'src': '/static/foodstim60/rigatoni and sauce.jpg', 'key': 'u', 'origWidth': 410, 'origHeight': 411, 'width': 410, 'height': 411, 'widthPercent': 0.45, 'rescaleHeight': False, 'trialN': 25, 'loaded': True, 'loadedTime': 3728.300000011921, 'positionName': 'LEFT', 'positionCoords': [107.44, 682.5], 'bid': 7.26}, {'imgObject': {}, 'id': 'luckycharms', 'src': '/static/foodstim60/luckycharms.jpg', 'key': 'i', 'origWidth': 410, 'origHeight': 409, 'width': 410, 'height': 409, 'widthPercent': 0.45, 'rescaleHeight': False, 'trialN': 25, 'loaded': True, 'loadedTime': 3330.9000000059605, 'positionName': 'RIGHT', 'positionCoords': [560.56, 683.5], 'bid': 8.48}]",58338.90000000596,1669833199994,rigatoni and sauce,luckycharms,7.26,8.48,1.2200000000000006,luckycharms,1182.300000011921,1183,1182.5999999940395,True,i,60027.20000001788,1688.300000011921,1669833201682,1688,HRV,HRV_0193,2022-11-30 18:38:19
26,"[{'imgObject': {}, 'id': 'cocktailshrimp', 'src': '/static/foodstim60/cocktailshrimp.jpg', 'key': 'u', 'origWidth': 410, 'origHeight': 410, 'width': 410, 'height': 410, 'widthPercent': 0.45, 'rescaleHeight': False, 'trialN': 26, 'loaded': True, 'loadedTime': 4482.4000000059605, 'positionName': 'LEFT', 'positionCoords': [107.44, 683], 'bid': 7.54}, {'imgObject': {}, 'id': 'salad w chicken', 'src': '/static/foodstim60/salad w chicken.jpg', 'key': 'i', 'origWidth': 411, 'origHeight': 411, 'width': 411, 'height': 411, 'widthPercent': 0.45, 'rescaleHeight': False, 'trialN': 26, 'loaded': True, 'loadedTime': 4607.9000000059605, 'positionName': 'RIGHT', 'positionCoords': [560.56, 682.5], 'bid': 6.5200000000000005}]",60027.59999999404,1669833201683,cocktailshrimp,salad w chicken,7.54,6.5200000000000005,-1.0199999999999996,salad w chicken,1454.4000000059605,1455,1454.9000000059605,True,i,61986.30000001192,1958.7000000178814,1669833203641,1958,HRV,HRV_0193,2022-11-30 18:38:19
27,"[{'imgObject': {}, 'id': 'hashbrowns', 'src': '/static/foodstim60/hashbrowns.jpg', 'key': 'u', 'origWidth': 411, 'origHeight': 410, 'width': 411, 'height': 410, 'widthPercent': 0.45, 'rescaleHeight': False, 'trialN': 27, 'loaded': True, 'loadedTime': 4389.5999999940395, 'positionName': 'LEFT', 'positionCoords': [106.44, 683], 'bid': 7.67}, {'imgObject': {}, 'id': 'burrito', 'src': '/static/foodstim60/burrito.jpg', 'key': 'i', 'origWidth': 410, 'origHeight': 410, 'width': 410, 'height': 410, 'widthPercent': 0.45, 'rescaleHeight': False, 'trialN': 27, 'loaded': True, 'loadedTime': 4620.800000011921, 'positionName': 'RIGHT', 'positionCoords': [560.56, 683], 'bid': 6.59}]",61986.59999999404,1669833203642,hashbrowns,burrito,7.67,6.59,-1.08,burrito,1870.7000000178814,1871,1871.1000000238419,True,i,64362.40000000596,2375.800000011921,1669833206017,2375,HRV,HRV_0193,2022-11-30 18:38:19
28,"[{'imgObject': {}, 'id': 'cherry tomato', 'src': '/static/foodstim60/cherry tomato.jpg', 'key': 'u', 'origWidth': 410, 'origHeight': 410, 'width': 410, 'height': 410, 'widthPercent': 0.45, 'rescaleHeight': False, 'trialN': 28, 'loaded': True, 'loadedTime': 4457.4000000059605, 'positionName': 'LEFT', 'positionCoords': [107.44, 683], 'bid': 7.11}, {'imgObject': {}, 'id': 'popsicles', 'src': '/static/foodstim60/popsicles.jpg', 'key': 'i', 'origWidth': 410, 'origHeight': 410, 'width': 410, 'height': 410, 'widthPercent': 0.45, 'rescaleHeight': False, 'trialN': 28, 'loaded': True, 'loadedTime': 4848.300000011921, 'positionName': 'RIGHT', 'positionCoords': [560.56, 683], 'bid': 6.48}]",64363.5,1669833206019,cherry tomato,popsicles,7.11,6.48,-0.6299999999999999,NaN,NaN,NaN,,False,NaN,68370.09999999404,4006.5999999940395,1669833210025,4006,HRV,HRV_0193,2022-11-30 18:38:19
29,"[{'imgObject': {}, 'id': 'strawberries', 'src': '/static/foodstim60/strawberries.jpg', 'key': 'u', 'origWidth': 410, 'origHeight': 410, 'width': 410, 'height': 410, 'widthPercent': 0.45, 'rescaleHeight': False, 'trialN': 29, 'loaded': True, 'loadedTime': 4209.4000000059605, 'positionName': 'LEFT', 'positionCoords': [107.44, 683], 'bid': 7.69}, {'imgObject': {}, 'id': 'cheerios', 'src': '/static/foodstim60/cheerios.jpg', 'key': 'i', 'origWidth': 409, 'origHeight': 410, 'width': 409, 'height': 410, 'widthPercent': 0.45, 'rescaleHeight': False, 'trialN': 29, 'loaded': True, 'loadedTime': 4066.4000000059605, 'positionName': 'RIGHT', 'positionCoords': [560.56, 683], 'bid': 7.82}]",68370.30000001192,1669833210025,strawberries,cheerios,7.69,7.82,0.1299999999999999,cheerios,96.90000000596046,98,97.19999998807907,True,i,68970.80000001192,600.5,1669833210626,601,HRV,HRV_0193,2022-11-30 18:38:19
30,"[{'imgObject': {}, 'id': 'bagel and cc', 'src': '/static/foodstim60/bagel and cc.jpg', 'key': 'u', 'origWidth': 410, 'origHeight': 410, 'width': 410, 'height': 410, 'widthPercent': 0.45, 'rescaleHeight': False, 'trialN': 30, 'loaded': True, 'loadedTime': 3534.5, 'positionName': 'LEFT', 'positionCoords': [107.44, 683], 'bid': 6.53}, {'imgObject': {}, 'id': 'veggieswithdip', 'src': '/static/foodstim60/veggieswithdip.jpg', 'key': 'i', 'origWidth': 409, 'origHeight': 409, 'width': 409, 'height': 409, 'widthPercent': 0.45, 'rescaleHeight': False, 'trialN': 30, 'loaded': True, 'loadedTime': 3980, 'positionName': 'RIGHT', 'positionCoords': [560.56, 683.5], 'bid': 7.57}]",68971.0,1669833210626,bagel and cc,veggieswithdip,6.53,7.57,1.04,veggieswithdip,1463.5,1464,1464.300000011921,True,i,70938.90000000596,1967.9000000059605,1669833212594,1968,HRV,HRV_0193,2022-11-30 18:38:19
31,"[{'imgObject': {}, 'id': 'fried eggs', 'src': '/static/foodstim60/fried eggs.jpg', 'key': 'u', 'origWidth': 410, 'origHeight': 410, 'width': 410, 'height': 410, 'widthPercent': 0.45, 'rescaleHeight': False, 'trialN': 31, 'loaded': True, 'loadedTime': 3865.300000011921, 'positionName': 'LEFT', 'positionCoords': [107.44, 683], 'bid': 6.91}, {'imgObject': {}, 'id': 'tacos', 'src': '/static/foodstim60/tacos.jpg', 'key': 'i', 'origWidth': 411, 'origHeight': 411, 'width': 411, 'height': 411, 'widthPercent': 0.45, 'rescaleHeight': False, 'trialN': 31, 'loaded': True, 'loadedTime': 3401.0999999940395, 'positionName': 'RIGHT', 'positionCoords': [560.56, 682.5], 'bid': 5.76}]",70939.09999999404,1669833212594,fried eggs,tacos,6.91,5.76,-1.1500000000000004,fried eggs,1344,1345,1344.4000000059605,True,u,72786.90000000596,1847.800000011921,1669833214442,1848,HRV,HRV_0193,2022-11-30 18:38:19
32,"[{'imgObject': {}, 'id': 'chickenfingers', 'src': '/static/foodstim60/chickenfingers.jpg', 'key': 'u', 'origWidth': 410, 'origHeight': 410, 'width': 410, 'height': 410, 'widthPercent': 0.45, 'rescaleHeight': False, 'trialN': 32, 'loaded': True, 'loadedTime': 4079.9000000059605, 'positionName': 'LEFT', 'positionCoords': [107.44, 683], 'bid': 8.2}, {'imgObject': {}, 'id': 'cherry tomato', 'src': '/static/foodstim60/cherry tomato.jpg', 'key': 'i', 'origWidth': 410, 'origHeight': 410, 'width': 410, 'height': 410, 'widthPercent': 0.45, 'rescaleHeight': False, 'trialN': 32, 'loaded': True, 'loadedTime': 4450.5, 'positionName': 'RIGHT', 'positionCoords': [560.56, 683], 'bid': 7.11}]",72787.0,1669833214442,chickenfingers,cherry tomato,8.2,7.11,-1.089999999999999,cherry tomato,1527.5,1528,1527.9000000059605,True,i,74818.59999999404,2031.5999999940395,1669833216474,2032,HRV,HRV_0193,2022-11-30 18:38:19
33,"[{'imgObject': {}, 'id': 'roastedpotatoes', 'src': '/static/foodstim60/roastedpotatoes.jpg', 'key': 'u', 'origWidth': 409, 'origHeight': 410, 'width': 409, 'height': 410, 'widthPercent': 0.45, 'rescaleHeight': False, 'trialN': 33, 'loaded': True, 'loadedTime': 3648.5999999940395, 'positionName': 'LEFT', 'positionCoords': [108.44, 683], 'bid': 8.15}, {'imgObject': {}, 'id': 'grilled chicken strips', 'src': '/static/foodstim60/grilled chicken strips.jpg', 'key': 'i', 'origWidth': 410, 'origHeight': 411, 'width': 410, 'height': 411, 'widthPercent': 0.45, 'rescaleHeight': False, 'trialN': 33, 'loaded': True, 'loadedTime': 4529.200000017881, 'positionName': 'RIGHT', 'positionCoords': [560.56, 682.5], 'bid': 7.09}]",74818.90000000596,1669833216474,roastedpotatoes,grilled chicken strips,8.15,7.09,-1.0600000000000005,grilled chicken strips,1345.5,1346,1345.9000000059605,True,i,76666.5,1847.5999999940395,1669833218322,1848,HRV,HRV_0193,2022-11-30 18:38:19
34,"[{'imgObject': {}, 'id': 'raspberries', 'src': '/static/foodstim60/raspberries.jpg', 'key': 'u', 'origWidth': 411, 'origHeight': 411, 'width': 411, 'height': 411, 'widthPercent': 0.45, 'rescaleHeight': False, 'trialN': 34, 'loaded': True, 'loadedTime': 3915.5, 'positionName': 'LEFT', 'positionCoords': [106.44, 682.5], 'bid': 6.74}, {'imgObject': {}, 'id': 'grilled chicken strips', 'src': '/static/foodstim60/grilled chicken strips.jpg', 'key': 'i', 'origWidth': 410, 'origHeight': 411, 'width': 410, 'height': 411, 'widthPercent': 0.45, 'rescaleHeight': False, 'trialN': 34, 'loaded': True, 'loadedTime': 4530.0999999940395, 'positionName': 'RIGHT', 'positionCoords': [560.56, 682.5], 'bid': 7.09}]",76666.80000001192,1669833218322,raspberries,grilled chicken strips,6.74,7.09,0.34999999999999964,grilled chicken strips,2761.5999999940395,2762,2762.199999988079,True,i,79930.70000001788,3263.9000000059605,1669833221586,3264,HRV,HRV_0193,2022-11-30 18:38:19
35,"[{'imgObject': {}, 'id': 'fruitsalad', 'src': '/static/foodstim60/fruitsalad.jpg', 'key': 'u', 'origWidth': 410, 'origHeight': 410, 'width': 410, 'height': 410, 'widthPercent': 0.45, 'rescaleHeight': False, 'trialN': 35, 'loaded': True, 'loadedTime': 4520.800000011921, 'positionName': 'LEFT', 'positionCoords': [107.44, 683], 'bid': 8.26}, {'imgObject': {}, 'id': 'strawberries', 'src': '/static/foodstim60/strawberries.jpg', 'key': 'i', 'origWidth': 410, 'origHeight': 410, 'width': 410, 'height': 410, 'widthPercent': 0.45, 'rescaleHeight': False, 'trialN': 35, 'loaded': True, 'loadedTime': 4223.0999999940395, 'positionName': 'RIGHT', 'positionCoords': [560.56, 683], 'bid': 7.69}]",79930.90000000596,1669833221586,fruitsalad,strawberries,8.26,7.69,-0.5699999999999994,strawberries,1529.0999999940395,1530,1529.5,True,i,81962.80000001192,2031.9000000059605,1669833223618,2032,HRV,HRV_0193,2022-11-30 18:38:19
36,"[{'imgObject': {}, 'id': 'fruitsalad', 'src': '/static/foodstim60/fruitsalad.jpg', 'key': 'u', 'origWidth': 410, 'origHeight': 410, 'width': 410, 'height': 410, 'widthPercent': 0.45, 'rescaleHeight': False, 'trialN': 36, 'loaded': True, 'loadedTime': 4513.4000000059605, 'positionName': 'LEFT', 'positionCoords': [107.44, 683], 'bid': 8.26}, {'imgObject': {}, 'id': 'cocktailshrimp', 'src': '/static/foodstim60/cocktailshrimp.jpg', 'key': 'i', 'origWidth': 410, 'origHeight': 410, 'width': 410, 'height': 410, 'widthPercent': 0.45, 'rescaleHeight': False, 'trialN': 36, 'loaded': True, 'loadedTime': 4490.0999999940395, 'positionName': 'RIGHT', 'positionCoords': [560.56, 683], 'bid': 7.54}]",81963.0,1669833223618,fruitsalad,cocktailshrimp,8.26,7.54,-0.7199999999999998,cocktailshrimp,58.30000001192093,59,58.80000001192093,True,i,82530.5,567.5,1669833224186,568,HRV,HRV_0193,2022-11-30 18:38:19
37,"[{'imgObject': {}, 'id': 'mac & cheese', 'src': '/static/foodstim60/mac & cheese.jpg', 'key': 'u', 'origWidth': 410, 'origHeight': 410, 'width': 410, 'height': 410, 'widthPercent': 0.45, 'rescaleHeight': False, 'trialN': 37, 'loaded': True, 'loadedTime': 4000.800000011921, 'positionName': 'LEFT', 'positionCoords': [107.44, 683], 'bid': 7.33}, {'imgObject': {}, 'id': 'baked potato', 'src': '/static/foodstim60/baked potato.jpg', 'key': 'i', 'origWidth': 409, 'origHeight': 410, 'width': 409, 'height': 410, 'widthPercent': 0.45, 'rescaleHeight': False, 'trialN': 37, 'loaded': True, 'loadedTime': 4642.300000011921, 'positionName': 'RIGHT', 'positionCoords': [560.56, 683], 'bid': 7.37}]",82530.90000000596,1669833224186,mac & cheese,baked potato,7.33,7.37,0.040000000000000036,baked potato,1513.5,1514,1514.0999999940395,True,i,84546.59999999404,2015.699999988079,1669833226202,2016,HRV,HRV_0193,2022-11-30 18:38:19
38,"[{'imgObject': {}, 'id': 'Tribe humus pita', 'src': '/static/foodstim60/Tribe humus pita.jpg', 'key': 'u', 'origWidth': 411, 'origHeight': 411, 'width': 411, 'height': 411, 'widthPercent': 0.45, 'rescaleHeight': False, 'trialN': 38, 'loaded': True, 'loadedTime': 4561.4000000059605, 'positionName': 'LEFT', 'positionCoords': [106.44, 682.5], 'bid': 6.92}, {'imgObject': {}, 'id': 'eggsalad', 'src': '/static/foodstim60/eggsalad.jpg', 'key': 'i', 'origWidth': 410, 'origHeight': 409, 'width': 410, 'height': 409, 'widthPercent': 0.45, 'rescaleHeight': False, 'trialN': 38, 'loaded': True, 'loadedTime': 4659.5, 'positionName': 'RIGHT', 'positionCoords': [560.56, 683.5], 'bid': 6.61}]",84546.90000000596,1669833226202,Tribe humus pita,eggsalad,6.92,6.61,-0.3099999999999996,Tribe humus pita,1402.699999988079,1403,1403.300000011921,True,u,86458.59999999404,1911.699999988079,1669833228114,1912,HRV,HRV_0193,2022-11-30 18:38:19
39,"[{'imgObject': {}, 'id': 'yogurt no spoon', 'src': '/static/foodstim60/yogurt no spoon.jpg', 'key': 'u', 'origWidth': 411, 'origHeight': 410, 'width': 411, 'height': 410, 'widthPercent': 0.45, 'rescaleHeight': False, 'trialN': 39, 'loaded': True, 'loadedTime': 3474.300000011921, 'positionName': 'LEFT', 'positionCoords': [106.44, 683], 'bid': 1.92}, {'imgObject': {}, 'id': 'granola w milk', 'src': '/static/foodstim60/granola w milk.jpg', 'key': 'i', 'origWidth': 410, 'origHeight': 410, 'width': 410, 'height': 410, 'widthPercent': 0.45, 'rescaleHeight': False, 'trialN': 39, 'loaded': True, 'loadedTime': 4688.5999999940395, 'positionName': 'RIGHT', 'positionCoords': [560.56, 683], 'bid': 6.33}]",86459.20000001788,1669833228114,yogurt no spoon,granola w milk,1.92,6.33,4.41,yogurt no spoon,1217.8999999761581,1219,1218.2999999821186,True,u,88179.0,1719.7999999821186,1669833229834,1720,HRV,HRV_0193,2022-11-30 18:38:19
40,"[{'imgObject': {}, 'id': 'rigatoni and sauce', 'src': '/static/foodstim60/rigatoni and sauce.jpg', 'key': 'u', 'origWidth': 410, 'origHeight': 411, 'width': 410, 'height': 411, 'widthPercent': 0.45, 'rescaleHeight': False, 'trialN': 40, 'loaded': True, 'loadedTime': 3722.5, 'positionName': 'LEFT', 'positionCoords': [107.44, 682.5], 'bid': 7.26}, {'imgObject': {}, 'id': 'sushi w_condiments', 'src': '/static/foodstim60/sushi w_condiments.jpg', 'key': 'i', 'origWidth': 410, 'origHeight': 410, 'width': 410, 'height': 410, 'widthPercent': 0.45, 'rescaleHeight': False, 'trialN': 40, 'loaded': True, 'loadedTime': 4708.5999999940395, 'positionName': 'RIGHT', 'positionCoords': [560.56, 683], 'bid': 7.44}]",88179.20000001788,1669833229834,rigatoni and sauce,sushi w_condiments,7.26,7.44,0.1800000000000006,sushi w_condiments,834.5,835,834.7999999821186,True,i,89522.20000001788,1343.0,1669833231177,1343,HRV,HRV_0193,2022-11-30 18:38:19
41,"[{'imgObject': {}, 'id': 'olives', 'src': '/static/foodstim60/olives.jpg', 'key': 'u', 'origWidth': 410, 'origHeight': 410, 'width': 410, 'height': 410, 'widthPercent': 0.45, 'rescaleHeight': False, 'trialN': 41, 'loaded': True, 'loadedTime': 4718, 'positionName': 'LEFT', 'positionCoords': [107.44, 683], 'bid': 7.13}, {'imgObject': {}, 'id': 'ice cream sundae 002', 'src': '/static/foodstim60/ice cream sundae 002.jpg', 'key': 'i', 'origWidth': 409, 'origHeight': 409, 'width': 409, 'height': 409, 'widthPercent': 0.45, 'rescaleHeight': False, 'trialN': 41, 'loaded': True, 'loadedTime': 4313.9000000059605, 'positionName': 'RIGHT', 'positionCoords': [560.56, 683.5], 'bid': 7.17}]",89522.70000001788,1669833231178,olives,ice cream sundae 002,7.13,7.17,0.040000000000000036,ice cream sundae 002,1523.7999999821186,1524,1524.3999999761581,True,i,91555.40000000596,2032.699999988079,1669833233210,2032,HRV,HRV_0193,2022-11-30 18:38:19
42,"[{'imgObject': {}, 'id': 'bagel plain', 'src': '/static/foodstim60/bagel plain.jpg', 'key': 'u', 'origWidth': 410, 'origHeight': 410, 'width': 410, 'height': 410, 'widthPercent': 0.45, 'rescaleHeight': False, 'trialN': 42, 'loaded': True, 'loadedTime': 4720.800000011921, 'positionName': 'LEFT', 'positionCoords': [107.44, 683], 'bid': 6.55}, {'imgObject': {}, 'id': 'ice cream sundae 002', 'src': '/static/foodstim60/ice cream sundae 002.jpg', 'key': 'i', 'origWidth': 409, 'origHeight': 409, 'width': 409, 'height': 409, 'widthPercent': 0.45, 'rescaleHeight': False, 'trialN': 42, 'loaded': True, 'loadedTime': 4327.5999999940395, 'positionName': 'RIGHT', 'positionCoords': [560.56, 683.5], 'bid': 7.17}]",91555.70000001788,1669833233211,bagel plain,ice cream sundae 002,6.55,7.17,0.6200000000000001,ice cream sundae 002,1259.199999988079,1259,1259.5999999940395,True,i,93322.5,1766.7999999821186,1669833234978,1767,HRV,HRV_0193,2022-11-30 18:38:19
43,"[{'imgObject': {}, 'id': 'lox', 'src': '/static/foodstim60/lox.jpg', 'key': 'u', 'origWidth': 410, 'origHeight': 411, 'width': 410, 'height': 411, 'widthPercent': 0.45, 'rescaleHeight': False, 'trialN': 43, 'loaded': True, 'loadedTime': 4753.5, 'positionName': 'LEFT', 'positionCoords': [107.44, 682.5], 'bid': 7.24}, {'imgObject': {}, 'id': 'turkeysandwich', 'src': '/static/foodstim60/turkeysandwich.jpg', 'key': 'i', 'origWidth': 409, 'origHeight': 409, 'width': 409, 'height': 409, 'widthPercent': 0.45, 'rescaleHeight': False, 'trialN': 43, 'loaded': True, 'loadedTime': 3296.5999999940395, 'positionName': 'RIGHT', 'positionCoords': [560.56, 683.5], 'bid': 8.46}]",93323.09999999404,1669833234978,lox,turkeysandwich,7.24,8.46,1.2200000000000006,lox,1218.9000000059605,1220,1219.4000000059605,True,u,95050.59999999404,1727.5,1669833236706,1728,HRV,HRV_0193,2022-11-30 18:38:19
44,"[{'imgObject': {}, 'id': 'cantaloupe', 'src': '/static/foodstim60/cantaloupe.jpg', 'key': 'u', 'origWidth': 409, 'origHeight': 409, 'width': 409, 'height': 409, 'widthPercent': 0.45, 'rescaleHeight': False, 'trialN': 44, 'loaded': True, 'loadedTime': 4194.800000011921, 'positionName': 'LEFT', 'positionCoords': [108.44, 683.5], 'bid': 7.15}, {'imgObject': {}, 'id': 'bagel and cc', 'src': '/static/foodstim60/bagel and cc.jpg', 'key': 'i', 'origWidth': 410, 'origHeight': 410, 'width': 410, 'height': 410, 'widthPercent': 0.45, 'rescaleHeight': False, 'trialN': 44, 'loaded': True, 'loadedTime': 3522.2000000178814, 'positionName': 'RIGHT', 'positionCoords': [560.56, 683], 'bid': 6.53}]",95050.90000000596,1669833236706,cantaloupe,bagel and cc,7.15,6.53,-0.6200000000000001,cantaloupe,1450.5,1451,1451.0,True,u,97010.70000001788,1959.800000011921,1669833238666,1960,HRV,HRV_0193,2022-11-30 18:38:19
45,"[{'imgObject': {}, 'id': 'turkey sandwich', 'src': '/static/foodstim60/turkey sandwich.jpg', 'key': 'u', 'origWidth': 409, 'origHeight': 409, 'width': 409, 'height': 409, 'widthPercent': 0.45, 'rescaleHeight': False, 'trialN': 45, 'loaded': True, 'loadedTime': 3598.5999999940395, 'positionName': 'LEFT', 'positionCoords': [108.44, 683.5], 'bid': 7.52}, {'imgObject': {}, 'id': 'cocktailshrimp', 'src': '/static/foodstim60/cocktailshrimp.jpg', 'key': 'i', 'origWidth': 410, 'origHeight': 410, 'width': 410, 'height': 410, 'widthPercent': 0.45, 'rescaleHeight': False, 'trialN': 45, 'loaded': True, 'loadedTime': 4498, 'positionName': 'RIGHT', 'positionCoords': [560.56, 683], 'bid': 7.54}]",97011.09999999404,1669833238666,turkey sandwich,cocktailshrimp,7.52,7.54,0.020000000000000462,cocktailshrimp,1347.4000000059605,1348,1347.7000000178814,True,i,98867.59999999404,1856.5,1669833240523,1857,HRV,HRV_0193,2022-11-30 18:38:19
46,"[{'imgObject': {}, 'id': 'hashbrowns', 'src': '/static/foodstim60/hashbrowns.jpg', 'key': 'u', 'origWidth': 411, 'origHeight': 410, 'width': 411, 'height': 410, 'widthPercent': 0.45, 'rescaleHeight': False, 'trialN': 46, 'loaded': True, 'loadedTime': 4404.5999999940395, 'positionName': 'LEFT', 'positionCoords': [106.44, 683], 'bid': 7.67}, {'imgObject': {}, 'id': 'Grapes', 'src': '/static/foodstim60/Grapes.jpg', 'key': 'i', 'origWidth': 411, 'origHeight': 411, 'width': 411, 'height': 411, 'widthPercent': 0.45, 'rescaleHeight': False, 'trialN': 46, 'loaded': True, 'loadedTime': 4758.5999999940395, 'positionName': 'RIGHT', 'positionCoords': [560.56, 682.5], 'bid': 7.5}]",98867.90000000596,1669833240523,hashbrowns,Grapes,7.67,7.5,-0.16999999999999993,Grapes,1803.5999999940395,1804,1803.9000000059605,True,i,101179.30000001192,2311.4000000059605,1669833242834,2311,HRV,HRV_0193,2022-11-30 18:38:19
47,"[{'imgObject': {}, 'id': 'fried eggs', 'src': '/static/foodstim60/fried eggs.jpg', 'key': 'u', 'origWidth': 410, 'origHeight': 410, 'width': 410, 'height': 410, 'widthPercent': 0.45, 'rescaleHeight': False, 'trialN': 47, 'loaded': True, 'loadedTime': 3859.7000000178814, 'positionName': 'LEFT', 'positionCoords': [107.44, 683], 'bid': 6.91}, {'imgObject': {}, 'id': 'raspberries', 'src': '/static/foodstim60/raspberries.jpg', 'key': 'i', 'origWidth': 411, 'origHeight': 411, 'width': 411, 'height': 411, 'widthPercent': 0.45, 'rescaleHeight': False, 'trialN': 47, 'loaded': True, 'loadedTime': 3903.5999999940395, 'positionName': 'RIGHT', 'positionCoords': [560.56, 682.5], 'bid': 6.74}]",101179.59999999404,1669833242835,fried eggs,raspberries,6.91,6.74,-0.16999999999999993,fried eggs,1412.300000011921,1412,1412.7000000178814,True,u,103099.20000001788,1919.6000000238419,1669833244754,1919,HRV,HRV_0193,2022-11-30 18:38:19
48,"[{'imgObject': {}, 'id': 'eggs', 'src': '/static/foodstim60/eggs.jpg', 'key': 'u', 'origWidth': 409, 'origHeight': 409, 'width': 409, 'height': 409, 'widthPercent': 0.45, 'rescaleHeight': False, 'trialN': 48, 'loaded': True, 'loadedTime': 3814.800000011921, 'positionName': 'LEFT', 'positionCoords': [108.44, 683.5], 'bid': 7.65}, {'imgObject': {}, 'id': 'raisin bran w milk', 'src': '/static/foodstim60/raisin bran w milk.jpg', 'key': 'i', 'origWidth': 411, 'origHeight': 411, 'width': 411, 'height': 411, 'widthPercent': 0.45, 'rescaleHeight': False, 'trialN': 48, 'loaded': True, 'loadedTime': 4760.4000000059605, 'positionName': 'RIGHT', 'positionCoords': [560.56, 682.5], 'bid': 8.3}]",103099.5,1669833244755,eggs,raisin bran w milk,7.65,8.3,0.6500000000000004,eggs,1244.7000000178814,1245,1245.0,True,u,104850.90000000596,1751.4000000059605,1669833246506,1751,HRV,HRV_0193,2022-11-30 18:38:19
49,"[{'imgObject': {}, 'id': 'tacos', 'src': '/static/foodstim60/tacos.jpg', 'key': 'u', 'origWidth': 411, 'origHeight': 411, 'width': 411, 'height': 411, 'widthPercent': 0.45, 'rescaleHeight': False, 'trialN': 49, 'loaded': True, 'loadedTime': 3386.5999999940395, 'positionName': 'LEFT', 'positionCoords': [106.44, 682.5], 'bid': 5.76}, {'imgObject': {}, 'id': 'eggsalad', 'src': '/static/foodstim60/eggsalad.jpg', 'key': 'i', 'origWidth': 410, 'origHeight': 409, 'width': 410, 'height': 409, 'widthPercent': 0.45, 'rescaleHeight': False, 'trialN': 49, 'loaded': True, 'loadedTime': 4648.700000017881, 'positionName': 'RIGHT', 'positionCoords': [560.56, 683.5], 'bid': 6.61}]",104851.30000001192,1669833246506,tacos,eggsalad,5.76,6.61,0.8500000000000005,tacos,1699.699999988079,1700,1700.0999999940395,True,u,107059.0,2207.699999988079,1669833248714,2208,HRV,HRV_0193,2022-11-30 18:38:19
50,"[{'imgObject': {}, 'id': 'veggieswithdip', 'src': '/static/foodstim60/veggieswithdip.jpg', 'key': 'u', 'origWidth': 409, 'origHeight': 409, 'width': 409, 'height': 409, 'widthPercent': 0.45, 'rescaleHeight': False, 'trialN': 50, 'loaded': True, 'loadedTime': 3961.5999999940395, 'positionName': 'LEFT', 'positionCoords': [108.44, 683.5], 'bid': 7.57}, {'imgObject': {}, 'id': 'hashbrowns', 'src': '/static/foodstim60/hashbrowns.jpg', 'key': 'i', 'origWidth': 411, 'origHeight': 410, 'width': 411, 'height': 410, 'widthPercent': 0.45, 'rescaleHeight': False, 'trialN': 50, 'loaded': True, 'loadedTime': 4404.0999999940395, 'positionName': 'RIGHT', 'positionCoords': [560.56, 683], 'bid': 7.67}]",107059.30000001192,1669833248714,veggieswithdip,hashbrowns,7.57,7.67,0.09999999999999964,NaN,NaN,NaN,,False,NaN,111066.0,4006.699999988079,1669833252721,4007,HRV,HRV_0193,2022-11-30 18:38:19
51,"[{'imgObject': {}, 'id': 'luckycharms', 'src': '/static/foodstim60/luckycharms.jpg', 'key': 'u', 'origWidth': 410, 'origHeight': 409, 'width': 410, 'height': 409, 'widthPercent': 0.45, 'rescaleHeight': False, 'trialN': 51, 'loaded': True, 'loadedTime': 3365.5, 'positionName': 'LEFT', 'positionCoords': [107.44, 683.5], 'bid': 8.48}, {'imgObject': {}, 'id': 'omelette', 'src': '/static/foodstim60/omelette.jpg', 'key': 'i', 'origWidth': 410, 'origHeight': 409, 'width': 410, 'height': 409, 'widthPercent': 0.45, 'rescaleHeight': False, 'trialN': 51, 'loaded': True, 'loadedTime': 4420.0999999940395, 'positionName': 'RIGHT', 'positionCoords': [560.56, 683.5], 'bid': 8.33}]",111066.30000001192,1669833252721,luckycharms,omelette,8.48,8.33,-0.15000000000000036,omelette,230,231,230.40000000596046,True,i,111803.40000000596,737.0999999940395,1669833253458,737,HRV,HRV_0193,2022-11-30 18:38:19
52,"[{'imgObject': {}, 'id': 'turkeysandwich', 'src': '/static/foodstim60/turkeysandwich.jpg', 'key': 'u', 'origWidth': 409, 'origHeight': 409, 'width': 409, 'height': 409, 'widthPercent': 0.45, 'rescaleHeight': False, 'trialN': 52, 'loaded': True, 'loadedTime': 3302.4000000059605, 'positionName': 'LEFT', 'positionCoords': [108.44, 683.5], 'bid': 8.46}, {'imgObject': {}, 'id': 'pear', 'src': '/static/foodstim60/pear.jpg', 'key': 'i', 'origWidth': 411, 'origHeight': 410, 'width': 411, 'height': 410, 'widthPercent': 0.45, 'rescaleHeight': False, 'trialN': 52, 'loaded': True, 'loadedTime': 4765.700000017881, 'positionName': 'RIGHT', 'positionCoords': [560.56, 683], 'bid': 7.930000000000001}]",111803.70000001788,1669833253459,turkeysandwich,pear,8.46,7.930000000000001,-0.5300000000000002,turkeysandwich,956,956,956.2999999821186,True,u,113266.40000000596,1462.699999988079,1669833254921,1462,HRV,HRV_0193,2022-11-30 18:38:19
53,"[{'imgObject': {}, 'id': 'cantaloupe', 'src': '/static/foodstim60/cantaloupe.jpg', 'key': 'u', 'origWidth': 409, 'origHeight': 409, 'width': 409, 'height': 409, 'widthPercent': 0.45, 'rescaleHeight': False, 'trialN': 53, 'loaded': True, 'loadedTime': 4174.9000000059605, 'positionName': 'LEFT', 'positionCoords': [108.44, 683.5], 'bid': 7.15}, {'imgObject': {}, 'id': 'avocado', 'src': '/static/foodstim60/avocado.jpg', 'key': 'i', 'origWidth': 409, 'origHeight': 409, 'width': 409, 'height': 409, 'widthPercent': 0.45, 'rescaleHeight': False, 'trialN': 53, 'loaded': True, 'loadedTime': 4383.300000011921, 'positionName': 'RIGHT', 'positionCoords': [560.56, 683.5], 'bid': 8.28}]",113266.80000001192,1669833254922,cantaloupe,avocado,7.15,8.28,1.129999999999999,avocado,980.7999999821186,981,981.0999999940395,True,i,114755.30000001192,1488.5,1669833256410,1488,HRV,HRV_0193,2022-11-30 18:38:19
54,"[{'imgObject': {}, 'id': 'burrito', 'src': '/static/foodstim60/burrito.jpg', 'key': 'u', 'origWidth': 410, 'origHeight': 410, 'width': 410, 'height': 410, 'widthPercent': 0.45, 'rescaleHeight': False, 'trialN': 54, 'loaded': True, 'loadedTime': 4620.5, 'positionName': 'LEFT', 'positionCoords': [107.44, 683], 'bid': 6.59}, {'imgObject': {}, 'id': 'blueberries', 'src': '/static/foodstim60/blueberries.jpg', 'key': 'i', 'origWidth': 411, 'origHeight': 411, 'width': 411, 'height': 411, 'widthPercent': 0.45, 'rescaleHeight': False, 'trialN': 54, 'loaded': True, 'loadedTime': 3681.800000011921, 'positionName': 'RIGHT', 'positionCoords': [560.56, 682.5], 'bid': 6.66}]",114755.5,1669833256411,burrito,blueberries,6.59,6.66,0.07000000000000028,blueberries,1156.5999999940395,1157,1157.2000000178814,True,i,116419.20000001788,1663.7000000178814,1669833258075,1664,HRV,HRV_0193,2022-11-30 18:38:19
55,"[{'imgObject': {}, 'id': 'fried eggs', 'src': '/static/foodstim60/fried eggs.jpg', 'key': 'u', 'origWidth': 410, 'origHeight': 410, 'width': 410, 'height': 410, 'widthPercent': 0.45, 'rescaleHeight': False, 'trialN': 55, 'loaded': True, 'loadedTime': 3852, 'positionName': 'LEFT', 'positionCoords': [107.44, 683], 'bid': 6.91}, {'imgObject': {}, 'id': 'pear', 'src': '/static/foodstim60/pear.jpg', 'key': 'i', 'origWidth': 411, 'origHeight': 410, 'width': 411, 'height': 410, 'widthPercent': 0.45, 'rescaleHeight': False, 'trialN': 55, 'loaded': True, 'loadedTime': 4767.800000011921, 'positionName': 'RIGHT', 'positionCoords': [560.56, 683], 'bid': 7.930000000000001}]",116419.59999999404,1669833258075,fried eggs,pear,6.91,7.930000000000001,1.0200000000000005,pear,1133.4000000059605,1134,1134.0,True,i,118058.09999999404,1638.5,1669833259714,1639,HRV,HRV_0193,2022-11-30 18:38:19
56,"[{'imgObject': {}, 'id': 'shreddedwheatwithmilk', 'src': '/static/foodstim60/shreddedwheatwithmilk.jpg', 'key': 'u', 'origWidth': 410, 'origHeight': 410, 'width': 410, 'height': 410, 'widthPercent': 0.45, 'rescaleHeight': False, 'trialN': 56, 'loaded': True, 'loadedTime': 3423.4000000059605, 'positionName': 'LEFT', 'positionCoords': [107.44, 683], 'bid': 5.57}, {'imgObject': {}, 'id': 'mac & cheese', 'src': '/static/foodstim60/mac & cheese.jpg', 'key': 'i', 'origWidth': 410, 'origHeight': 410, 'width': 410, 'height': 410, 'widthPercent': 0.45, 'rescaleHeight': False, 'trialN': 56, 'loaded': True, 'loadedTime': 4025.5, 'positionName': 'RIGHT', 'positionCoords': [560.56, 683], 'bid': 7.33}]",118058.30000001192,1669833259714,shreddedwheatwithmilk,mac & cheese,5.57,7.33,1.7599999999999998,shreddedwheatwithmilk,2374.5,2375,2374.699999988079,True,u,120938.70000001788,2880.4000000059605,1669833262594,2880,HRV,HRV_0193,2022-11-30 18:38:19
57,"[{'imgObject': {}, 'id': 'salad w chicken', 'src': '/static/foodstim60/salad w chicken.jpg', 'key': 'u', 'origWidth': 411, 'origHeight': 411, 'width': 411, 'height': 411, 'widthPercent': 0.45, 'rescaleHeight': False, 'trialN': 57, 'loaded': True, 'loadedTime': 4609.0999999940395, 'positionName': 'LEFT', 'positionCoords': [106.44, 682.5], 'bid': 6.5200000000000005}, {'imgObject': {}, 'id': 'bagel plain', 'src': '/static/foodstim60/bagel plain.jpg', 'key': 'i', 'origWidth': 410, 'origHeight': 410, 'width': 410, 'height': 410, 'widthPercent': 0.45, 'rescaleHeight': False, 'trialN': 57, 'loaded': True, 'loadedTime': 4726.9000000059605, 'positionName': 'RIGHT', 'positionCoords': [560.56, 683], 'bid': 6.55}]",120938.90000000596,1669833262595,salad w chicken,bagel plain,6.5200000000000005,6.55,0.02999999999999936,salad w chicken,1174.0999999940395,1174,1174.5999999940395,True,u,122618.09999999404,1679.199999988079,1669833264274,1679,HRV,HRV_0193,2022-11-30 18:38:19
58,"[{'imgObject': {}, 'id': 'chicken nuggets2', 'src': '/static/foodstim60/chicken nuggets2.jpg', 'key': 'u', 'origWidth': 410, 'origHeight': 409, 'width': 410, 'height': 409, 'widthPercent': 0.45, 'rescaleHeight': False, 'trialN': 58, 'loaded': True, 'loadedTime': 4772.800000011921, 'positionName': 'LEFT', 'positionCoords': [107.44, 683.5], 'bid': 4.18}, {'imgObject': {}, 'id': 'froot loops w milk', 'src': '/static/foodstim60/froot loops w milk.jpg', 'key': 'i', 'origWidth': 410, 'origHeight': 410, 'width': 410, 'height': 410, 'widthPercent': 0.45, 'rescaleHeight': False, 'trialN': 58, 'loaded': True, 'loadedTime': 4797, 'positionName': 'RIGHT', 'positionCoords': [560.56, 683], 'bid': 6.41}]",122618.40000000596,1669833264274,chicken nuggets2,froot loops w milk,4.18,6.41,2.2300000000000004,froot loops w milk,1295.5999999940395,1296,1295.9000000059605,True,i,124418.59999999404,1800.199999988079,1669833266074,1800,HRV,HRV_0193,2022-11-30 18:38:19
59,"[{'imgObject': {}, 'id': 'strawberries', 'src': '/static/foodstim60/strawberries.jpg', 'key': 'u', 'origWidth': 410, 'origHeight': 410, 'width': 410, 'height': 410, 'widthPercent': 0.45, 'rescaleHeight': False, 'trialN': 59, 'loaded': True, 'loadedTime': 4201, 'positionName': 'LEFT', 'positionCoords': [107.44, 683], 'bid': 7.69}, {'imgObject': {}, 'id': 'blueberries', 'src': '/static/foodstim60/blueberries.jpg', 'key': 'i', 'origWidth': 411, 'origHeight': 411, 'width': 411, 'height': 411, 'widthPercent': 0.45, 'rescaleHeight': False, 'trialN': 59, 'loaded': True, 'loadedTime': 3666.9000000059605, 'positionName': 'RIGHT', 'positionCoords': [560.56, 682.5], 'bid': 6.66}]",124418.90000000596,1669833266075,strawberries,blueberries,7.69,6.66,-1.0300000000000002,blueberries,847.0999999940395,847,847.8000000119209,True,i,125771.09999999404,1352.199999988079,1669833267427,1352,HRV,HRV_0193,2022-11-30 18:38:19
60,"[{'imgObject': {}, 'id': 'cherries', 'src': '/static/foodstim60/cherries.jpg', 'key': 'u', 'origWidth': 410, 'origHeight': 411, 'width': 410, 'height': 411, 'widthPercent': 0.45, 'rescaleHeight': False, 'trialN': 60, 'loaded': True, 'loadedTime': 4354.9000000059605, 'positionName': 'LEFT', 'positionCoords': [107.44, 682.5], 'bid': 7.94}, {'imgObject': {}, 'id': 'luckycharms', 'src': '/static/foodstim60/luckycharms.jpg', 'key': 'i', 'origWidth': 410, 'origHeight': 409, 'width': 410, 'height': 409, 'widthPercent': 0.45, 'rescaleHeight': False, 'trialN': 60, 'loaded': True, 'loadedTime': 3347.9000000059605, 'positionName': 'RIGHT', 'positionCoords': [560.56, 683.5], 'bid': 8.48}]",125771.40000000596,1669833267427,cherries,luckycharms,7.94,8.48,0.54,luckycharms,2797.699999988079,2798,2798.0,True,i,129074.59999999404,3303.199999988079,1669833270730,3303,HRV,HRV_0193,2022-11-30 18:38:19
61,"[{'imgObject': {}, 'id': 'kiwi', 'src': '/static/foodstim60/kiwi.jpg', 'key': 'u', 'origWidth': 410, 'origHeight': 410, 'width': 410, 'height': 410, 'widthPercent': 0.45, 'rescaleHeight': False, 'trialN': 61, 'loaded': True, 'loadedTime': 4464.0999999940395, 'positionName': 'LEFT', 'positionCoords': [107.44, 683], 'bid': 7.33}, {'imgObject': {}, 'id': 'tacos', 'src': '/static/foodstim60/tacos.jpg', 'key': 'i', 'origWidth': 411, 'origHeight': 411, 'width': 411, 'height': 411, 'widthPercent': 0.45, 'rescaleHeight': False, 'trialN': 61, 'loaded': True, 'loadedTime': 3408.7000000178814, 'positionName': 'RIGHT', 'positionCoords': [560.56, 682.5], 'bid': 5.76}]",129074.80000001192,1669833270731,kiwi,tacos,7.33,5.76,-1.5700000000000003,tacos,1231.5999999940395,1232,1232.0999999940395,True,i,130810.20000001788,1735.4000000059605,1669833272466,1735,HRV,HRV_0193,2022-11-30 18:38:19
62,"[{'imgObject': {}, 'id': 'burrito', 'src': '/static/foodstim60/burrito.jpg', 'key': 'u', 'origWidth': 410, 'origHeight': 410, 'width': 410, 'height': 410, 'widthPercent': 0.45, 'rescaleHeight': False, 'trialN': 62, 'loaded': True, 'loadedTime': 4617.9000000059605, 'positionName': 'LEFT', 'positionCoords': [107.44, 683], 'bid': 6.59}, {'imgObject': {}, 'id': 'shreddedwheatwithmilk', 'src': '/static/foodstim60/shreddedwheatwithmilk.jpg', 'key': 'i', 'origWidth': 410, 'origHeight': 410, 'width': 410, 'height': 410, 'widthPercent': 0.45, 'rescaleHeight': False, 'trialN': 62, 'loaded': True, 'loadedTime': 3458.800000011921, 'positionName': 'RIGHT', 'positionCoords': [560.56, 683], 'bid': 5.57}]",130810.40000000596,1669833272466,burrito,shreddedwheatwithmilk,6.59,5.57,-1.0199999999999996,burrito,1783.9000000059605,1784,1784.300000011921,True,u,133098.59999999404,2288.199999988079,1669833274754,2288,HRV,HRV_0193,2022-11-30 18:38:19
63,"[{'imgObject': {}, 'id': 'blueberries', 'src': '/static/foodstim60/blueberries.jpg', 'key': 'u', 'origWidth': 411, 'origHeight': 411, 'width': 411, 'height': 411, 'widthPercent': 0.45, 'rescaleHeight': False, 'trialN': 63, 'loaded': True, 'loadedTime': 3701.5, 'positionName': 'LEFT', 'positionCoords': [106.44, 682.5], 'bid': 6.66}, {'imgObject': {}, 'id': 'rigatoni', 'src': '/static/foodstim60/rigatoni.jpg', 'key': 'i', 'origWidth': 411, 'origHeight': 411, 'width': 411, 'height': 411, 'widthPercent': 0.45, 'rescaleHeight': False, 'trialN': 63, 'loaded': True, 'loadedTime': 4561, 'positionName': 'RIGHT', 'positionCoords': [560.56, 682.5], 'bid': 6.09}]",133098.90000000596,1669833274755,blueberries,rigatoni,6.66,6.09,-0.5700000000000003,blueberries,1736.300000011921,1736,1736.699999988079,True,u,135338.20000001788,2239.300000011921,1669833276994,2239,HRV,HRV_0193,2022-11-30 18:38:19
64,"[{'imgObject': {}, 'id': 'baked potato', 'src': '/static/foodstim60/baked potato.jpg', 'key': 'u', 'origWidth': 409, 'origHeight': 410, 'width': 409, 'height': 410, 'widthPercent': 0.45, 'rescaleHeight': False, 'trialN': 64, 'loaded': True, 'loadedTime': 4630.300000011921, 'positionName': 'LEFT', 'positionCoords': [108.44, 683], 'bid': 7.37}, {'imgObject': {}, 'id': 'olives', 'src': '/static/foodstim60/olives.jpg', 'key': 'i', 'origWidth': 410, 'origHeight': 410, 'width': 410, 'height': 410, 'widthPercent': 0.45, 'rescaleHeight': False, 'trialN': 64, 'loaded': True, 'loadedTime': 4709.5999999940395, 'positionName': 'RIGHT', 'positionCoords': [560.56, 683], 'bid': 7.13}]",135338.70000001788,1669833276995,baked potato,olives,7.37,7.13,-0.2400000000000002,olives,944.8999999761581,945,945.3999999761581,True,i,136787.09999999404,1448.3999999761581,1669833278443,1448,HRV,HRV_0193,2022-11-30 18:38:19
65,"[{'imgObject': {}, 'id': 'omelette', 'src': '/static/foodstim60/omelette.jpg', 'key': 'u', 'origWidth': 410, 'origHeight': 409, 'width': 410, 'height': 409, 'widthPercent': 0.45, 'rescaleHeight': False, 'trialN': 65, 'loaded': True, 'loadedTime': 4419.800000011921, 'positionName': 'LEFT', 'positionCoords': [107.44, 683.5], 'bid': 8.33}, {'imgObject': {}, 'id': 'banana', 'src': '/static/foodstim60/banana.jpg', 'key': 'i', 'origWidth': 410, 'origHeight': 410, 'width': 410, 'height': 410, 'widthPercent': 0.45, 'rescaleHeight': False, 'trialN': 65, 'loaded': True, 'loadedTime': 4168.9000000059605, 'positionName': 'RIGHT', 'positionCoords': [560.56, 683], 'bid': 7.2}]",136787.40000000596,1669833278443,omelette,banana,8.33,7.2,-1.13,banana,1216.199999988079,1217,1216.699999988079,True,i,138506.40000000596,1719.0,1669833280162,1719,HRV,HRV_0193,2022-11-30 18:38:19
66,"[{'imgObject': {}, 'id': 'roastedpotatoes', 'src': '/static/foodstim60/roastedpotatoes.jpg', 'key': 'u', 'origWidth': 409, 'origHeight': 410, 'width': 409, 'height': 410, 'widthPercent': 0.45, 'rescaleHeight': False, 'trialN': 66, 'loaded': True, 'loadedTime': 3660.9000000059605, 'positionName': 'LEFT', 'positionCoords': [108.44, 683], 'bid': 8.15}, {'imgObject': {}, 'id': 'hashbrowns', 'src': '/static/foodstim60/hashbrowns.jpg', 'key': 'i', 'origWidth': 411, 'origHeight': 410, 'width': 411, 'height': 410, 'widthPercent': 0.45, 'rescaleHeight': False, 'trialN': 66, 'loaded': True, 'loadedTime': 4386.9000000059605, 'positionName': 'RIGHT', 'positionCoords': [560.56, 683], 'bid': 7.67}]",138506.59999999404,1669833280162,roastedpotatoes,hashbrowns,8.15,7.67,-0.4800000000000004,roastedpotatoes,1377.5,1378,1377.800000011921,True,u,140386.0,1879.4000000059605,1669833282042,1880,HRV,HRV_0193,2022-11-30 18:38:19
67,"[{'imgObject': {}, 'id': 'popsicles', 'src': '/static/foodstim60/popsicles.jpg', 'key': 'u', 'origWidth': 410, 'origHeight': 410, 'width': 410, 'height': 410, 'widthPercent': 0.45, 'rescaleHeight': False, 'trialN': 67, 'loaded': True, 'loadedTime': 4847.9000000059605, 'positionName': 'LEFT', 'positionCoords': [107.44, 683], 'bid': 6.48}, {'imgObject': {}, 'id': 'salad w chicken', 'src': '/static/foodstim60/salad w chicken.jpg', 'key': 'i', 'origWidth': 411, 'origHeight': 411, 'width': 411, 'height': 411, 'widthPercent': 0.45, 'rescaleHeight': False, 'trialN': 67, 'loaded': True, 'loadedTime': 4600.4000000059605, 'positionName': 'RIGHT', 'positionCoords': [560.56, 682.5], 'bid': 6.5200000000000005}]",140386.20000001788,1669833282042,popsicles,salad w chicken,6.48,6.5200000000000005,0.040000000000000036,salad w chicken,1658.3999999761581,1659,1658.8999999761581,True,i,142547.09999999404,2160.899999976158,1669833284203,2161,HRV,HRV_0193,2022-11-30 18:38:19
68,"[{'imgObject': {}, 'id': 'cantaloupe', 'src': '/static/foodstim60/cantaloupe.jpg', 'key': 'u', 'origWidth': 409, 'origHeight': 409, 'width': 409, 'height': 409, 'widthPercent': 0.45, 'rescaleHeight': False, 'trialN': 68, 'loaded': True, 'loadedTime': 4182.300000011921, 'positionName': 'LEFT', 'positionCoords': [108.44, 683.5], 'bid': 7.15}, {'imgObject': {}, 'id': 'sushi w_condiments', 'src': '/static/foodstim60/sushi w_condiments.jpg', 'key': 'i', 'origWidth': 410, 'origHeight': 410, 'width': 410, 'height': 410, 'widthPercent': 0.45, 'rescaleHeight': False, 'trialN': 68, 'loaded': True, 'loadedTime': 4707.800000011921, 'positionName': 'RIGHT', 'positionCoords': [560.56, 683], 'bid': 7.44}]",142547.40000000596,1669833284203,cantaloupe,sushi w_condiments,7.15,7.44,0.29000000000000004,cantaloupe,793,794,793.3000000119209,True,u,143842.5,1295.0999999940395,1669833285498,1295,HRV,HRV_0193,2022-11-30 18:38:19
69,"[{'imgObject': {}, 'id': 'granola w milk', 'src': '/static/foodstim60/granola w milk.jpg', 'key': 'u', 'origWidth': 410, 'origHeight': 410, 'width': 410, 'height': 410, 'widthPercent': 0.45, 'rescaleHeight': False, 'trialN': 69, 'loaded': True, 'loadedTime': 4689, 'positionName': 'LEFT', 'positionCoords': [107.44, 683], 'bid': 6.33}, {'imgObject': {}, 'id': 'Grapes', 'src': '/static/foodstim60/Grapes.jpg', 'key': 'i', 'origWidth': 411, 'origHeight': 411, 'width': 411, 'height': 411, 'widthPercent': 0.45, 'rescaleHeight': False, 'trialN': 69, 'loaded': True, 'loadedTime': 4759, 'positionName': 'RIGHT', 'positionCoords': [560.56, 682.5], 'bid': 7.5}]",143842.90000000596,1669833285499,granola w milk,Grapes,6.33,7.5,1.17,Grapes,1754.9000000059605,1755,1755.5,True,i,146106.59999999404,2263.699999988079,1669833287762,2263,HRV,HRV_0193,2022-11-30 18:38:19
70,"[{'imgObject': {}, 'id': 'blackbeanswithrice', 'src': '/static/foodstim60/blackbeanswithrice.jpg', 'key': 'u', 'origWidth': 410, 'origHeight': 410, 'width': 410, 'height': 410, 'widthPercent': 0.45, 'rescaleHeight': False, 'trialN': 70, 'loaded': True, 'loadedTime': 4798, 'positionName': 'LEFT', 'positionCoords': [107.44, 683], 'bid': 7.28}, {'imgObject': {}, 'id': 'olives', 'src': '/static/foodstim60/olives.jpg', 'key': 'i', 'origWidth': 410, 'origHeight': 410, 'width': 410, 'height': 410, 'widthPercent': 0.45, 'rescaleHeight': False, 'trialN': 70, 'loaded': True, 'loadedTime': 4712, 'positionName': 'RIGHT', 'positionCoords': [560.56, 683], 'bid': 7.13}]",146106.90000000596,1669833287763,blackbeanswithrice,olives,7.28,7.13,-0.15000000000000036,NaN,NaN,NaN,,False,NaN,150114.5,4007.5999999940395,1669833291770,4007,HRV,HRV_0193,2022-11-30 18:38:19
71,"[{'imgObject': {}, 'id': 'lox', 'src': '/static/foodstim60/lox.jpg', 'key': 'u', 'origWidth': 410, 'origHeight': 411, 'width': 410, 'height': 411, 'widthPercent': 0.45, 'rescaleHeight': False, 'trialN': 71, 'loaded': True, 'loadedTime': 4752.800000011921, 'positionName': 'LEFT', 'positionCoords': [107.44, 682.5], 'bid': 7.24}, {'imgObject': {}, 'id': 'rigatoni and sauce', 'src': '/static/foodstim60/rigatoni and sauce.jpg', 'key': 'i', 'origWidth': 410, 'origHeight': 411, 'width': 410, 'height': 411, 'widthPercent': 0.45, 'rescaleHeight': False, 'trialN': 71, 'loaded': True, 'loadedTime': 3729.0999999940395, 'positionName': 'RIGHT', 'positionCoords': [560.56, 682.5], 'bid': 7.26}]",150114.90000000596,1669833291771,lox,rigatoni and sauce,7.24,7.26,0.019999999999999574,rigatoni and sauce,3146.300000011921,3146,3146.699999988079,True,i,153770.59999999404,3655.699999988079,1669833295426,3655,HRV,HRV_0193,2022-11-30 18:38:19
72,"[{'imgObject': {}, 'id': 'granola w milk', 'src': '/static/foodstim60/granola w milk.jpg', 'key': 'u', 'origWidth': 410, 'origHeight': 410, 'width': 410, 'height': 410, 'widthPercent': 0.45, 'rescaleHeight': False, 'trialN': 72, 'loaded': True, 'loadedTime': 4672.200000017881, 'positionName': 'LEFT', 'positionCoords': [107.44, 683], 'bid': 6.33}, {'imgObject': {}, 'id': 'raspberries', 'src': '/static/foodstim60/raspberries.jpg', 'key': 'i', 'origWidth': 411, 'origHeight': 411, 'width': 411, 'height': 411, 'widthPercent': 0.45, 'rescaleHeight': False, 'trialN': 72, 'loaded': True, 'loadedTime': 3889.7000000178814, 'positionName': 'RIGHT', 'positionCoords': [560.56, 682.5], 'bid': 6.74}]",153770.90000000596,1669833295427,granola w milk,raspberries,6.33,6.74,0.41000000000000014,granola w milk,1042.9000000059605,1043,1043.300000011921,True,u,155323.0,1552.0999999940395,1669833296979,1552,HRV,HRV_0193,2022-11-30 18:38:19
73,"[{'imgObject': {}, 'id': 'Tribe humus pita', 'src': '/static/foodstim60/Tribe humus pita.jpg', 'key': 'u', 'origWidth': 411, 'origHeight': 411, 'width': 411, 'height': 411, 'widthPercent': 0.45, 'rescaleHeight': False, 'trialN': 73, 'loaded': True, 'loadedTime': 4573.9000000059605, 'positionName': 'LEFT', 'positionCoords': [106.44, 682.5], 'bid': 6.92}, {'imgObject': {}, 'id': 'salad w chicken', 'src': '/static/foodstim60/salad w chicken.jpg', 'key': 'i', 'origWidth': 411, 'origHeight': 411, 'width': 411, 'height': 411, 'widthPercent': 0.45, 'rescaleHeight': False, 'trialN': 73, 'loaded': True, 'loadedTime': 4608.4000000059605, 'positionName': 'RIGHT', 'positionCoords': [560.56, 682.5], 'bid': 6.5200000000000005}]",155323.30000001192,1669833296979,Tribe humus pita,salad w chicken,6.92,6.5200000000000005,-0.39999999999999947,Tribe humus pita,1107,1107,1107.2999999821186,True,u,156939.20000001788,1615.9000000059605,1669833298595,1616,HRV,HRV_0193,2022-11-30 18:38:19
74,"[{'imgObject': {}, 'id': 'strawberries', 'src': '/static/foodstim60/strawberries.jpg', 'key': 'u', 'origWidth': 410, 'origHeight': 410, 'width': 410, 'height': 410, 'widthPercent': 0.45, 'rescaleHeight': False, 'trialN': 74, 'loaded': True, 'loadedTime': 4209.800000011921, 'positionName': 'LEFT', 'positionCoords': [107.44, 683], 'bid': 7.69}, {'imgObject': {}, 'id': 'luckycharms', 'src': '/static/foodstim60/luckycharms.jpg', 'key': 'i', 'origWidth': 410, 'origHeight': 409, 'width': 410, 'height': 409, 'widthPercent': 0.45, 'rescaleHeight': False, 'trialN': 74, 'loaded': True, 'loadedTime': 3340.2000000178814, 'positionName': 'RIGHT', 'positionCoords': [560.56, 683.5], 'bid': 8.48}]",156939.59999999404,1669833298595,strawberries,luckycharms,7.69,8.48,0.79,strawberries,1337.6000000238419,1339,1338.1000000238419,True,u,158787.30000001192,1847.7000000178814,1669833300443,1848,HRV,HRV_0193,2022-11-30 18:38:19
75,"[{'imgObject': {}, 'id': 'mashed potato', 'src': '/static/foodstim60/mashed potato.jpg', 'key': 'u', 'origWidth': 409, 'origHeight': 409, 'width': 409, 'height': 409, 'widthPercent': 0.45, 'rescaleHeight': False, 'trialN': 75, 'loaded': True, 'loadedTime': 4813.800000011921, 'positionName': 'LEFT', 'positionCoords': [108.44, 683.5], 'bid': 6.3100000000000005}, {'imgObject': {}, 'id': 'rigatoni', 'src': '/static/foodstim60/rigatoni.jpg', 'key': 'i', 'origWidth': 411, 'origHeight': 411, 'width': 411, 'height': 411, 'widthPercent': 0.45, 'rescaleHeight': False, 'trialN': 75, 'loaded': True, 'loadedTime': 4549, 'positionName': 'RIGHT', 'positionCoords': [560.56, 682.5], 'bid': 6.09}]",158787.70000001788,1669833300443,mashed potato,rigatoni,6.3100000000000005,6.09,-0.22000000000000064,mashed potato,1241.3999999761581,1242,1241.699999988079,True,u,160530.59999999404,1742.8999999761581,1669833302186,1743,HRV,HRV_0193,2022-11-30 18:38:19
76,"[{'imgObject': {}, 'id': 'kiwi', 'src': '/static/foodstim60/kiwi.jpg', 'key': 'u', 'origWidth': 410, 'origHeight': 410, 'width': 410, 'height': 410, 'widthPercent': 0.45, 'rescaleHeight': False, 'trialN': 76, 'loaded': True, 'loadedTime': 4473.0999999940395, 'positionName': 'LEFT', 'positionCoords': [107.44, 683], 'bid': 7.33}, {'imgObject': {}, 'id': 'sushi w_condiments', 'src': '/static/foodstim60/sushi w_condiments.jpg', 'key': 'i', 'origWidth': 410, 'origHeight': 410, 'width': 410, 'height': 410, 'widthPercent': 0.45, 'rescaleHeight': False, 'trialN': 76, 'loaded': True, 'loadedTime': 4708.200000017881, 'positionName': 'RIGHT', 'positionCoords': [560.56, 683], 'bid': 7.44}]",160530.90000000596,1669833302187,kiwi,sushi w_condiments,7.33,7.44,0.11000000000000032,sushi w_condiments,1139.800000011921,1140,1140.5999999940395,True,i,162178.90000000596,1648.0,1669833303835,1648,HRV,HRV_0193,2022-11-30 18:38:19
77,"[{'imgObject': {}, 'id': 'blueberries', 'src': '/static/foodstim60/blueberries.jpg', 'key': 'u', 'origWidth': 411, 'origHeight': 411, 'width': 411, 'height': 411, 'widthPercent': 0.45, 'rescaleHeight': False, 'trialN': 77, 'loaded': True, 'loadedTime': 3675.5, 'positionName': 'LEFT', 'positionCoords': [106.44, 682.5], 'bid': 6.66}, {'imgObject': {}, 'id': 'seaweed', 'src': '/static/foodstim60/seaweed.jpg', 'key': 'i', 'origWidth': 410, 'origHeight': 410, 'width': 410, 'height': 410, 'widthPercent': 0.45, 'rescaleHeight': False, 'trialN': 77, 'loaded': True, 'loadedTime': 3795.5, 'positionName': 'RIGHT', 'positionCoords': [560.56, 683], 'bid': 6.66}]",162179.30000001192,1669833303835,blueberries,seaweed,6.66,6.66,0.0,seaweed,1251.7999999821186,1252,1252.2999999821186,True,i,163938.20000001788,1758.9000000059605,1669833305594,1759,HRV,HRV_0193,2022-11-30 18:38:19
78,"[{'imgObject': {}, 'id': 'hotdog w must', 'src': '/static/foodstim60/hotdog w must.jpg', 'key': 'u', 'origWidth': 409, 'origHeight': 409, 'width': 409, 'height': 409, 'widthPercent': 0.45, 'rescaleHeight': False, 'trialN': 78, 'loaded': True, 'loadedTime': 4832.4000000059605, 'positionName': 'LEFT', 'positionCoords': [108.44, 683.5], 'bid': 7.04}, {'imgObject': {}, 'id': 'granola w milk', 'src': '/static/foodstim60/granola w milk.jpg', 'key': 'i', 'origWidth': 410, 'origHeight': 410, 'width': 410, 'height': 410, 'widthPercent': 0.45, 'rescaleHeight': False, 'trialN': 78, 'loaded': True, 'loadedTime': 4674.9000000059605, 'positionName': 'RIGHT', 'positionCoords': [560.56, 683], 'bid': 6.33}]",163938.5,1669833305594,hotdog w must,granola w milk,7.04,6.33,-0.71,granola w milk,2235.4000000059605,2236,2235.7000000178814,True,i,166683.0,2744.5,1669833308339,2745,HRV,HRV_0193,2022-11-30 18:38:19
79,"[{'imgObject': {}, 'id': 'cherry tomato', 'src': '/static/foodstim60/cherry tomato.jpg', 'key': 'u', 'origWidth': 410, 'origHeight': 410, 'width': 410, 'height': 410, 'widthPercent': 0.45, 'rescaleHeight': False, 'trialN': 79, 'loaded': True, 'loadedTime': 4435.200000017881, 'positionName': 'LEFT', 'positionCoords': [107.44, 683], 'bid': 7.11}, {'imgObject': {}, 'id': 'orange slices', 'src': '/static/foodstim60/orange slices.jpg', 'key': 'i', 'origWidth': 409, 'origHeight': 410, 'width': 409, 'height': 410, 'widthPercent': 0.45, 'rescaleHeight': False, 'trialN': 79, 'loaded': True, 'loadedTime': 3941.4000000059605, 'positionName': 'RIGHT', 'positionCoords': [560.56, 683], 'bid': 6.76}]",166683.59999999404,1669833308339,cherry tomato,orange slices,7.11,6.76,-0.35000000000000053,orange slices,1115,1116,1115.7000000178814,True,i,168306.0,1622.4000000059605,1669833309962,1623,HRV,HRV_0193,2022-11-30 18:38:19
80,"[{'imgObject': {}, 'id': 'turkeysandwich', 'src': '/static/foodstim60/turkeysandwich.jpg', 'key': 'u', 'origWidth': 409, 'origHeight': 409, 'width': 409, 'height': 409, 'widthPercent': 0.45, 'rescaleHeight': False, 'trialN': 80, 'loaded': True, 'loadedTime': 3290.5999999940395, 'positionName': 'LEFT', 'positionCoords': [108.44, 683.5], 'bid': 8.46}, {'imgObject': {}, 'id': 'raisin bran w milk', 'src': '/static/foodstim60/raisin bran w milk.jpg', 'key': 'i', 'origWidth': 411, 'origHeight': 411, 'width': 411, 'height': 411, 'widthPercent': 0.45, 'rescaleHeight': False, 'trialN': 80, 'loaded': True, 'loadedTime': 4765.300000011921, 'positionName': 'RIGHT', 'positionCoords': [560.56, 682.5], 'bid': 8.3}]",168306.5,1669833309962,turkeysandwich,raisin bran w milk,8.46,8.3,-0.16000000000000014,raisin bran w milk,1230,1231,1230.5,True,i,170043.20000001788,1736.7000000178814,1669833311699,1737,HRV,HRV_0193,2022-11-30 18:38:19
81,"[{'imgObject': {}, 'id': 'sushi w_condiments', 'src': '/static/foodstim60/sushi w_condiments.jpg', 'key': 'u', 'origWidth': 410, 'origHeight': 410, 'width': 410, 'height': 410, 'widthPercent': 0.45, 'rescaleHeight': False, 'trialN': 81, 'loaded': True, 'loadedTime': 4697.300000011921, 'positionName': 'LEFT', 'positionCoords': [107.44, 683], 'bid': 7.44}, {'imgObject': {}, 'id': 'mashed potato', 'src': '/static/foodstim60/mashed potato.jpg', 'key': 'i', 'origWidth': 409, 'origHeight': 409, 'width': 409, 'height': 409, 'widthPercent': 0.45, 'rescaleHeight': False, 'trialN': 81, 'loaded': True, 'loadedTime': 4819.5999999940395, 'positionName': 'RIGHT', 'positionCoords': [560.56, 683.5], 'bid': 6.3100000000000005}]",170043.5,1669833311699,sushi w_condiments,mashed potato,7.44,6.3100000000000005,-1.13,sushi w_condiments,923.5,924,923.9000000059605,True,u,171475.40000000596,1431.9000000059605,1669833313131,1432,HRV,HRV_0193,2022-11-30 18:38:19
82,"[{'imgObject': {}, 'id': 'banana', 'src': '/static/foodstim60/banana.jpg', 'key': 'u', 'origWidth': 410, 'origHeight': 410, 'width': 410, 'height': 410, 'widthPercent': 0.45, 'rescaleHeight': False, 'trialN': 82, 'loaded': True, 'loadedTime': 4156.700000017881, 'positionName': 'LEFT', 'positionCoords': [107.44, 683], 'bid': 7.2}, {'imgObject': {}, 'id': 'ice cream sundae 002', 'src': '/static/foodstim60/ice cream sundae 002.jpg', 'key': 'i', 'origWidth': 409, 'origHeight': 409, 'width': 409, 'height': 409, 'widthPercent': 0.45, 'rescaleHeight': False, 'trialN': 82, 'loaded': True, 'loadedTime': 4334.5999999940395, 'positionName': 'RIGHT', 'positionCoords': [560.56, 683.5], 'bid': 7.17}]",171475.59999999404,1669833313131,banana,ice cream sundae 002,7.2,7.17,-0.03000000000000025,ice cream sundae 002,892.6000000238419,893,893.0,True,i,172875.40000000596,1399.800000011921,1669833314531,1400,HRV,HRV_0193,2022-11-30 18:38:19
83,"[{'imgObject': {}, 'id': 'ice cream sundae 002', 'src': '/static/foodstim60/ice cream sundae 002.jpg', 'key': 'u', 'origWidth': 409, 'origHeight': 409, 'width': 409, 'height': 409, 'widthPercent': 0.45, 'rescaleHeight': False, 'trialN': 83, 'loaded': True, 'loadedTime': 4321.800000011921, 'positionName': 'LEFT', 'positionCoords': [108.44, 683.5], 'bid': 7.17}, {'imgObject': {}, 'id': 'Grapes', 'src': '/static/foodstim60/Grapes.jpg', 'key': 'i', 'origWidth': 411, 'origHeight': 411, 'width': 411, 'height': 411, 'widthPercent': 0.45, 'rescaleHeight': False, 'trialN': 83, 'loaded': True, 'loadedTime': 4759.5, 'positionName': 'RIGHT', 'positionCoords': [560.56, 682.5], 'bid': 7.5}]",172875.80000001192,1669833314532,ice cream sundae 002,Grapes,7.17,7.5,0.33000000000000007,Grapes,996.1999999880791,996,996.6999999880791,True,i,174377.70000001788,1501.9000000059605,1669833316034,1502,HRV,HRV_0193,2022-11-30 18:38:19
84,"[{'imgObject': {}, 'id': 'shreddedwheatwithmilk', 'src': '/static/foodstim60/shreddedwheatwithmilk.jpg', 'key': 'u', 'origWidth': 410, 'origHeight': 410, 'width': 410, 'height': 410, 'widthPercent': 0.45, 'rescaleHeight': False, 'trialN': 84, 'loaded': True, 'loadedTime': 3451.9000000059605, 'positionName': 'LEFT', 'positionCoords': [107.44, 683], 'bid': 5.57}, {'imgObject': {}, 'id': 'orange slices', 'src': '/static/foodstim60/orange slices.jpg', 'key': 'i', 'origWidth': 409, 'origHeight': 410, 'width': 409, 'height': 410, 'widthPercent': 0.45, 'rescaleHeight': False, 'trialN': 84, 'loaded': True, 'loadedTime': 3921.2000000178814, 'positionName': 'RIGHT', 'positionCoords': [560.56, 683], 'bid': 6.76}]",174378.0,1669833316034,shreddedwheatwithmilk,orange slices,5.57,6.76,1.1899999999999995,orange slices,957.7000000178814,958,958.0999999940395,True,i,175842.59999999404,1464.5999999940395,1669833317498,1464,HRV,HRV_0193,2022-11-30 18:38:19
85,"[{'imgObject': {}, 'id': 'sweetpotato', 'src': '/static/foodstim60/sweetpotato.jpg', 'key': 'u', 'origWidth': 410, 'origHeight': 410, 'width': 410, 'height': 410, 'widthPercent': 0.45, 'rescaleHeight': False, 'trialN': 85, 'loaded': True, 'loadedTime': 4836.4000000059605, 'positionName': 'LEFT', 'positionCoords': [107.44, 683], 'bid': 7.67}, {'imgObject': {}, 'id': 'eggs', 'src': '/static/foodstim60/eggs.jpg', 'key': 'i', 'origWidth': 409, 'origHeight': 409, 'width': 409, 'height': 409, 'widthPercent': 0.45, 'rescaleHeight': False, 'trialN': 85, 'loaded': True, 'loadedTime': 3828.300000011921, 'positionName': 'RIGHT', 'positionCoords': [560.56, 683.5], 'bid': 7.65}]",175842.90000000596,1669833317499,sweetpotato,eggs,7.67,7.65,-0.019999999999999574,sweetpotato,901.8000000119209,902,902.3000000119209,True,u,177251.09999999404,1408.199999988079,1669833318907,1408,HRV,HRV_0193,2022-11-30 18:38:19
86,"[{'imgObject': {}, 'id': 'avocado', 'src': '/static/foodstim60/avocado.jpg', 'key': 'u', 'origWidth': 409, 'origHeight': 409, 'width': 409, 'height': 409, 'widthPercent': 0.45, 'rescaleHeight': False, 'trialN': 86, 'loaded': True, 'loadedTime': 4385.4000000059605, 'positionName': 'LEFT', 'positionCoords': [108.44, 683.5], 'bid': 8.28}, {'imgObject': {}, 'id': 'chickenfingers', 'src': '/static/foodstim60/chickenfingers.jpg', 'key': 'i', 'origWidth': 410, 'origHeight': 410, 'width': 410, 'height': 410, 'widthPercent': 0.45, 'rescaleHeight': False, 'trialN': 86, 'loaded': True, 'loadedTime': 4072.2000000178814, 'positionName': 'RIGHT', 'positionCoords': [560.56, 683], 'bid': 8.2}]",177251.5,1669833318908,avocado,chickenfingers,8.28,8.2,-0.08000000000000007,avocado,796.9000000059605,797,797.2000000178814,True,u,178555.20000001788,1303.7000000178814,1669833320211,1303,HRV,HRV_0193,2022-11-30 18:38:19
87,"[{'imgObject': {}, 'id': 'olives', 'src': '/static/foodstim60/olives.jpg', 'key': 'u', 'origWidth': 410, 'origHeight': 410, 'width': 410, 'height': 410, 'widthPercent': 0.45, 'rescaleHeight': False, 'trialN': 87, 'loaded': True, 'loadedTime': 4711.5999999940395, 'positionName': 'LEFT', 'positionCoords': [107.44, 683], 'bid': 7.13}, {'imgObject': {}, 'id': 'cantaloupe', 'src': '/static/foodstim60/cantaloupe.jpg', 'key': 'i', 'origWidth': 409, 'origHeight': 409, 'width': 409, 'height': 409, 'widthPercent': 0.45, 'rescaleHeight': False, 'trialN': 87, 'loaded': True, 'loadedTime': 4188.9000000059605, 'positionName': 'RIGHT', 'positionCoords': [560.56, 683.5], 'bid': 7.15}]",178555.59999999404,1669833320212,olives,cantaloupe,7.13,7.15,0.020000000000000462,olives,2084.300000011921,2084,2084.800000011921,True,u,181147.0,2591.4000000059605,1669833322803,2591,HRV,HRV_0193,2022-11-30 18:38:19
88,"[{'imgObject': {}, 'id': 'eggsalad', 'src': '/static/foodstim60/eggsalad.jpg', 'key': 'u', 'origWidth': 410, 'origHeight': 409, 'width': 410, 'height': 409, 'widthPercent': 0.45, 'rescaleHeight': False, 'trialN': 88, 'loaded': True, 'loadedTime': 4658.9000000059605, 'positionName': 'LEFT', 'positionCoords': [107.44, 683.5], 'bid': 6.61}, {'imgObject': {}, 'id': 'burrito', 'src': '/static/foodstim60/burrito.jpg', 'key': 'i', 'origWidth': 410, 'origHeight': 410, 'width': 410, 'height': 410, 'widthPercent': 0.45, 'rescaleHeight': False, 'trialN': 88, 'loaded': True, 'loadedTime': 4621.200000017881, 'positionName': 'RIGHT', 'positionCoords': [560.56, 683], 'bid': 6.59}]",181147.30000001192,1669833322803,eggsalad,burrito,6.61,6.59,-0.020000000000000462,eggsalad,1533.9000000059605,1535,1534.2999999821186,True,u,183187.20000001788,2039.9000000059605,1669833324843,2040,HRV,HRV_0193,2022-11-30 18:38:19
89,"[{'imgObject': {}, 'id': 'raisin bran w milk', 'src': '/static/foodstim60/raisin bran w milk.jpg', 'key': 'u', 'origWidth': 411, 'origHeight': 411, 'width': 411, 'height': 411, 'widthPercent': 0.45, 'rescaleHeight': False, 'trialN': 89, 'loaded': True, 'loadedTime': 4764.800000011921, 'positionName': 'LEFT', 'positionCoords': [106.44, 682.5], 'bid': 8.3}, {'imgObject': {}, 'id': 'ice cream sundae 002', 'src': '/static/foodstim60/ice cream sundae 002.jpg', 'key': 'i', 'origWidth': 409, 'origHeight': 409, 'width': 409, 'height': 409, 'widthPercent': 0.45, 'rescaleHeight': False, 'trialN': 89, 'loaded': True, 'loadedTime': 4334.9000000059605, 'positionName': 'RIGHT', 'positionCoords': [560.56, 683.5], 'bid': 7.17}]",183187.59999999404,1669833324844,raisin bran w milk,ice cream sundae 002,8.3,7.17,-1.1300000000000008,raisin bran w milk,1500.6000000238419,1501,1500.9000000059605,True,u,185194.5,2006.9000000059605,1669833326850,2006,HRV,HRV_0193,2022-11-30 18:38:19
90,"[{'imgObject': {}, 'id': 'olives', 'src': '/static/foodstim60/olives.jpg', 'key': 'u', 'origWidth': 410, 'origHeight': 410, 'width': 410, 'height': 410, 'widthPercent': 0.45, 'rescaleHeight': False, 'trialN': 90, 'loaded': True, 'loadedTime': 4717.700000017881, 'positionName': 'LEFT', 'positionCoords': [107.44, 683], 'bid': 7.13}, {'imgObject': {}, 'id': 'fruitsalad', 'src': '/static/foodstim60/fruitsalad.jpg', 'key': 'i', 'origWidth': 410, 'origHeight': 410, 'width': 410, 'height': 410, 'widthPercent': 0.45, 'rescaleHeight': False, 'trialN': 90, 'loaded': True, 'loadedTime': 4514.0999999940395, 'positionName': 'RIGHT', 'positionCoords': [560.56, 683], 'bid': 8.26}]",194651.59999999404,1669833336308,olives,fruitsalad,7.13,8.26,1.13,fruitsalad,1022.5,1023,1023.8000000119209,True,i,196178.90000000596,1527.300000011921,1669833337835,1527,HRV,HRV_0193,2022-11-30 18:38:19
91,"[{'imgObject': {}, 'id': 'apple slices', 'src': '/static/foodstim60/apple slices.jpg', 'key': 'u', 'origWidth': 409, 'origHeight': 410, 'width': 409, 'height': 410, 'widthPercent': 0.45, 'rescaleHeight': False, 'trialN': 91, 'loaded': True, 'loadedTime': 4125, 'positionName': 'LEFT', 'positionCoords': [108.44, 683], 'bid': 7.96}, {'imgObject': {}, 'id': 'raisin bran w milk', 'src': '/static/foodstim60/raisin bran w milk.jpg', 'key': 'i', 'origWidth': 411, 'origHeight': 411, 'width': 411, 'height': 411, 'widthPercent': 0.45, 'rescaleHeight': False, 'trialN': 91, 'loaded': True, 'loadedTime': 4763.300000011921, 'positionName': 'RIGHT', 'positionCoords': [560.56, 682.5], 'bid': 8.3}]",196179.30000001192,1669833337835,apple slices,raisin bran w milk,7.96,8.3,0.34000000000000075,apple slices,1054.5999999940395,1056,1056.0999999940395,True,u,197737.90000000596,1558.5999999940395,1669833339394,1559,HRV,HRV_0193,2022-11-30 18:38:19
92,"[{'imgObject': {}, 'id': 'corn cob', 'src': '/static/foodstim60/corn cob.jpg', 'key': 'u', 'origWidth': 411, 'origHeight': 411, 'width': 411, 'height': 411, 'widthPercent': 0.45, 'rescaleHeight': False, 'trialN': 92, 'loaded': True, 'loadedTime': 3775.5, 'positionName': 'LEFT', 'positionCoords': [106.44, 682.5], 'bid': 8.06}, {'imgObject': {}, 'id': 'Grapes', 'src': '/static/foodstim60/Grapes.jpg', 'key': 'i', 'origWidth': 411, 'origHeight': 411, 'width': 411, 'height': 411, 'widthPercent': 0.45, 'rescaleHeight': False, 'trialN': 92, 'loaded': True, 'loadedTime': 4759.9000000059605, 'positionName': 'RIGHT', 'positionCoords': [560.56, 682.5], 'bid': 7.5}]",197738.20000001788,1669833339394,corn cob,Grapes,8.06,7.5,-0.5600000000000005,corn cob,1049.0999999940395,1050,1049.3999999761581,True,u,199291.59999999404,1553.3999999761581,1669833340948,1554,HRV,HRV_0193,2022-11-30 18:38:19
93,"[{'imgObject': {}, 'id': 'edamame', 'src': '/static/foodstim60/edamame.jpg', 'key': 'u', 'origWidth': 409, 'origHeight': 410, 'width': 409, 'height': 410, 'widthPercent': 0.45, 'rescaleHeight': False, 'trialN': 93, 'loaded': True, 'loadedTime': 4039.2000000178814, 'positionName': 'LEFT', 'positionCoords': [108.44, 683], 'bid': 7.890000000000001}, {'imgObject': {}, 'id': 'omelette', 'src': '/static/foodstim60/omelette.jpg', 'key': 'i', 'origWidth': 410, 'origHeight': 409, 'width': 410, 'height': 409, 'widthPercent': 0.45, 'rescaleHeight': False, 'trialN': 93, 'loaded': True, 'loadedTime': 4418.800000011921, 'positionName': 'RIGHT', 'positionCoords': [560.56, 683.5], 'bid': 8.33}]",199292.0,1669833340948,edamame,omelette,7.890000000000001,8.33,0.4399999999999995,edamame,1270.300000011921,1271,1270.7000000178814,True,u,201067.09999999404,1775.0999999940395,1669833342723,1775,HRV,HRV_0193,2022-11-30 18:38:19
94,"[{'imgObject': {}, 'id': 'banana', 'src': '/static/foodstim60/banana.jpg', 'key': 'u', 'origWidth': 410, 'origHeight': 410, 'width': 410, 'height': 410, 'widthPercent': 0.45, 'rescaleHeight': False, 'trialN': 94, 'loaded': True, 'loadedTime': 4137.200000017881, 'positionName': 'LEFT', 'positionCoords': [107.44, 683], 'bid': 7.2}, {'imgObject': {}, 'id': 'turkey sandwich', 'src': '/static/foodstim60/turkey sandwich.jpg', 'key': 'i', 'origWidth': 409, 'origHeight': 409, 'width': 409, 'height': 409, 'widthPercent': 0.45, 'rescaleHeight': False, 'trialN': 94, 'loaded': True, 'loadedTime': 3614.5999999940395, 'positionName': 'RIGHT', 'positionCoords': [560.56, 683.5], 'bid': 7.52}]",201067.5,1669833342723,banana,turkey sandwich,7.2,7.52,0.3199999999999994,banana,1224,1226,1225.0,True,u,202794.0,1726.5,1669833344450,1727,HRV,HRV_0193,2022-11-30 18:38:19
95,"[{'imgObject': {}, 'id': 'seaweed', 'src': '/static/foodstim60/seaweed.jpg', 'key': 'u', 'origWidth': 410, 'origHeight': 410, 'width': 410, 'height': 410, 'widthPercent': 0.45, 'rescaleHeight': False, 'trialN': 95, 'loaded': True, 'loadedTime': 3795.9000000059605, 'positionName': 'LEFT', 'positionCoords': [107.44, 683], 'bid': 6.66}, {'imgObject': {}, 'id': 'eggsalad', 'src': '/static/foodstim60/eggsalad.jpg', 'key': 'i', 'origWidth': 410, 'origHeight': 409, 'width': 410, 'height': 409, 'widthPercent': 0.45, 'rescaleHeight': False, 'trialN': 95, 'loaded': True, 'loadedTime': 4659.9000000059605, 'positionName': 'RIGHT', 'positionCoords': [560.56, 683.5], 'bid': 6.61}]",202794.30000001192,1669833344450,seaweed,eggsalad,6.66,6.61,-0.04999999999999982,seaweed,1179.199999988079,1180,1179.5999999940395,True,u,204482.40000000596,1688.0999999940395,1669833346138,1688,HRV,HRV_0193,2022-11-30 18:38:19
96,"[{'imgObject': {}, 'id': 'hotdog w must', 'src': '/static/foodstim60/hotdog w must.jpg', 'key': 'u', 'origWidth': 409, 'origHeight': 409, 'width': 409, 'height': 409, 'widthPercent': 0.45, 'rescaleHeight': False, 'trialN': 96, 'loaded': True, 'loadedTime': 4832.9000000059605, 'positionName': 'LEFT', 'positionCoords': [108.44, 683.5], 'bid': 7.04}, {'imgObject': {}, 'id': 'corn cob', 'src': '/static/foodstim60/corn cob.jpg', 'key': 'i', 'origWidth': 411, 'origHeight': 411, 'width': 411, 'height': 411, 'widthPercent': 0.45, 'rescaleHeight': False, 'trialN': 96, 'loaded': True, 'loadedTime': 3781.2000000178814, 'positionName': 'RIGHT', 'positionCoords': [560.56, 682.5], 'bid': 8.06}]",204482.70000001788,1669833346139,hotdog w must,corn cob,7.04,8.06,1.0200000000000005,corn cob,1171.0999999940395,1172,1172.5999999940395,True,i,206162.59999999404,1679.8999999761581,1669833347819,1680,HRV,HRV_0193,2022-11-30 18:38:19
97,"[{'imgObject': {}, 'id': 'bagel plain', 'src': '/static/foodstim60/bagel plain.jpg', 'key': 'u', 'origWidth': 410, 'origHeight': 410, 'width': 410, 'height': 410, 'widthPercent': 0.45, 'rescaleHeight': False, 'trialN': 97, 'loaded': True, 'loadedTime': 4739.9000000059605, 'positionName': 'LEFT', 'positionCoords': [107.44, 683], 'bid': 6.55}, {'imgObject': {}, 'id': 'bagel and cc', 'src': '/static/foodstim60/bagel and cc.jpg', 'key': 'i', 'origWidth': 410, 'origHeight': 410, 'width': 410, 'height': 410, 'widthPercent': 0.45, 'rescaleHeight': False, 'trialN': 97, 'loaded': True, 'loadedTime': 3516.300000011921, 'positionName': 'RIGHT', 'positionCoords': [560.56, 683], 'bid': 6.53}]",206162.90000000596,1669833347819,bagel plain,bagel and cc,6.55,6.53,-0.019999999999999574,bagel and cc,1762.0999999940395,1762,1762.5,True,i,208426.5,2263.5999999940395,1669833350082,2263,HRV,HRV_0193,2022-11-30 18:38:19
98,"[{'imgObject': {}, 'id': 'avocado', 'src': '/static/foodstim60/avocado.jpg', 'key': 'u', 'origWidth': 409, 'origHeight': 409, 'width': 409, 'height': 409, 'widthPercent': 0.45, 'rescaleHeight': False, 'trialN': 98, 'loaded': True, 'loadedTime': 4383.800000011921, 'positionName': 'LEFT', 'positionCoords': [108.44, 683.5], 'bid': 8.28}, {'imgObject': {}, 'id': 'burger', 'src': '/static/foodstim60/burger.jpg', 'key': 'i', 'origWidth': 409, 'origHeight': 409, 'width': 409, 'height': 409, 'widthPercent': 0.45, 'rescaleHeight': False, 'trialN': 98, 'loaded': True, 'loadedTime': 4298.800000011921, 'positionName': 'RIGHT', 'positionCoords': [560.56, 683.5], 'bid': 7.74}]",208426.70000001788,1669833350083,avocado,burger,8.28,7.74,-0.5399999999999991,avocado,1259.3999999761581,1261,1260.8999999761581,True,u,210194.80000001192,1768.0999999940395,1669833351851,1768,HRV,HRV_0193,2022-11-30 18:38:19
99,"[{'imgObject': {}, 'id': 'salad w chicken', 'src': '/static/foodstim60/salad w chicken.jpg', 'key': 'u', 'origWidth': 411, 'origHeight': 411, 'width': 411, 'height': 411, 'widthPercent': 0.45, 'rescaleHeight': False, 'trialN': 99, 'loaded': True, 'loadedTime': 4616.300000011921, 'positionName': 'LEFT', 'positionCoords': [106.44, 682.5], 'bid': 6.5200000000000005}, {'imgObject': {}, 'id': 'tacos', 'src': '/static/foodstim60/tacos.jpg', 'key': 'i', 'origWidth': 411, 'origHeight': 411, 'width': 411, 'height': 411, 'widthPercent': 0.45, 'rescaleHeight': False, 'trialN': 99, 'loaded': True, 'loadedTime': 3394.2000000178814, 'positionName': 'RIGHT', 'positionCoords': [560.56, 682.5], 'bid': 5.76}]",210195.0,1669833351851,salad w chicken,tacos,6.5200000000000005,5.76,-0.7600000000000007,tacos,1561.4000000059605,1562,1561.7000000178814,True,i,212258.80000001192,2063.800000011921,1669833353915,2064,HRV,HRV_0193,2022-11-30 18:38:19
100,"[{'imgObject': {}, 'id': 'hotdog w must', 'src': '/static/foodstim60/hotdog w must.jpg', 'key': 'u', 'origWidth': 409, 'origHeight': 409, 'width': 409, 'height': 409, 'widthPercent': 0.45, 'rescaleHeight': False, 'trialN': 100, 'loaded': True, 'loadedTime': 4825.5, 'positionName': 'LEFT', 'positionCoords': [108.44, 683.5], 'bid': 7.04}, {'imgObject': {}, 'id': 'steak', 'src': '/static/foodstim60/steak.jpg', 'key': 'i', 'origWidth': 410, 'origHeight': 410, 'width': 410, 'height': 410, 'widthPercent': 0.45, 'rescaleHeight': False, 'trialN': 100, 'loaded': True, 'loadedTime': 4841.800000011921, 'positionName': 'RIGHT', 'positionCoords': [560.56, 683], 'bid': 7.28}]",212259.09999999404,1669833353915,hotdog w must,steak,7.04,7.28,0.2400000000000002,steak,1474.6000000238419,1475,1475.1000000238419,True,i,214243.90000000596,1984.800000011921,1669833355900,1985,HRV,HRV_0193,2022-11-30 18:38:19
101,"[{'imgObject': {}, 'id': 'sweetpotato', 'src': '/static/foodstim60/sweetpotato.jpg', 'key': 'u', 'origWidth': 410, 'origHeight': 410, 'width': 410, 'height': 410, 'widthPercent': 0.45, 'rescaleHeight': False, 'trialN': 101, 'loaded': True, 'loadedTime': 4837.4000000059605, 'positionName': 'LEFT', 'positionCoords': [107.44, 683], 'bid': 7.67}, {'imgObject': {}, 'id': 'turkeysandwich', 'src': '/static/foodstim60/turkeysandwich.jpg', 'key': 'i', 'origWidth': 409, 'origHeight': 409, 'width': 409, 'height': 409, 'widthPercent': 0.45, 'rescaleHeight': False, 'trialN': 101, 'loaded': True, 'loadedTime': 3277.300000011921, 'positionName': 'RIGHT', 'positionCoords': [560.56, 683.5], 'bid': 8.46}]",214244.20000001788,1669833355900,sweetpotato,turkeysandwich,7.67,8.46,0.7900000000000009,sweetpotato,1329.199999988079,1330,1329.699999988079,True,u,216082.80000001192,1838.5999999940395,1669833357739,1839,HRV,HRV_0193,2022-11-30 18:38:19
102,"[{'imgObject': {}, 'id': 'mango', 'src': '/static/foodstim60/mango.jpg', 'key': 'u', 'origWidth': 411, 'origHeight': 411, 'width': 411, 'height': 411, 'widthPercent': 0.45, 'rescaleHeight': False, 'trialN': 102, 'loaded': True, 'loadedTime': 4283.4000000059605, 'positionName': 'LEFT', 'positionCoords': [106.44, 682.5], 'bid': 7.52}, {'imgObject': {}, 'id': 'Grapes', 'src': '/static/foodstim60/Grapes.jpg', 'key': 'i', 'origWidth': 411, 'origHeight': 411, 'width': 411, 'height': 411, 'widthPercent': 0.45, 'rescaleHeight': False, 'trialN': 102, 'loaded': True, 'loadedTime': 4758, 'positionName': 'RIGHT', 'positionCoords': [560.56, 682.5], 'bid': 7.5}]",216083.20000001788,1669833357739,mango,Grapes,7.52,7.5,-0.019999999999999574,mango,986.3999999761581,987,986.7999999821186,True,u,217579.09999999404,1495.8999999761581,1669833359235,1496,HRV,HRV_0193,2022-11-30 18:38:19
103,"[{'imgObject': {}, 'id': 'sushi w_condiments', 'src': '/static/foodstim60/sushi w_condiments.jpg', 'key': 'u', 'origWidth': 410, 'origHeight': 410, 'width': 410, 'height': 410, 'widthPercent': 0.45, 'rescaleHeight': False, 'trialN': 103, 'loaded': True, 'loadedTime': 4709.200000017881, 'positionName': 'LEFT', 'positionCoords': [107.44, 683], 'bid': 7.44}, {'imgObject': {}, 'id': 'apple slices', 'src': '/static/foodstim60/apple slices.jpg', 'key': 'i', 'origWidth': 409, 'origHeight': 410, 'width': 409, 'height': 410, 'widthPercent': 0.45, 'rescaleHeight': False, 'trialN': 103, 'loaded': True, 'loadedTime': 4130.5, 'positionName': 'RIGHT', 'positionCoords': [560.56, 683], 'bid': 7.96}]",217579.40000000596,1669833359235,sushi w_condiments,apple slices,7.44,7.96,0.5199999999999996,apple slices,1537.0999999940395,1538,1537.5,True,i,219618.70000001788,2039.300000011921,1669833361275,2040,HRV,HRV_0193,2022-11-30 18:38:19
104,"[{'imgObject': {}, 'id': 'baked potato', 'src': '/static/foodstim60/baked potato.jpg', 'key': 'u', 'origWidth': 409, 'origHeight': 410, 'width': 409, 'height': 410, 'widthPercent': 0.45, 'rescaleHeight': False, 'trialN': 104, 'loaded': True, 'loadedTime': 4636.5, 'positionName': 'LEFT', 'positionCoords': [108.44, 683], 'bid': 7.37}, {'imgObject': {}, 'id': 'lox', 'src': '/static/foodstim60/lox.jpg', 'key': 'i', 'origWidth': 410, 'origHeight': 411, 'width': 410, 'height': 411, 'widthPercent': 0.45, 'rescaleHeight': False, 'trialN': 104, 'loaded': True, 'loadedTime': 4754, 'positionName': 'RIGHT', 'positionCoords': [560.56, 682.5], 'bid': 7.24}]",219618.90000000596,1669833361275,baked potato,lox,7.37,7.24,-0.1299999999999999,lox,1001.5,1002,1001.9000000059605,True,i,221123.0,1504.0999999940395,1669833362779,1504,HRV,HRV_0193,2022-11-30 18:38:19
105,"[{'imgObject': {}, 'id': 'froot loops w milk', 'src': '/static/foodstim60/froot loops w milk.jpg', 'key': 'u', 'origWidth': 410, 'origHeight': 410, 'width': 410, 'height': 410, 'widthPercent': 0.45, 'rescaleHeight': False, 'trialN': 105, 'loaded': True, 'loadedTime': 4796.5999999940395, 'positionName': 'LEFT', 'positionCoords': [107.44, 683], 'bid': 6.41}, {'imgObject': {}, 'id': 'granola w milk', 'src': '/static/foodstim60/granola w milk.jpg', 'key': 'i', 'origWidth': 410, 'origHeight': 410, 'width': 410, 'height': 410, 'widthPercent': 0.45, 'rescaleHeight': False, 'trialN': 105, 'loaded': True, 'loadedTime': 4681.5, 'positionName': 'RIGHT', 'positionCoords': [560.56, 683], 'bid': 6.33}]",221123.30000001192,1669833362779,froot loops w milk,granola w milk,6.41,6.33,-0.08000000000000007,granola w milk,1201.199999988079,1202,1201.699999988079,True,i,222825.90000000596,1702.5999999940395,1669833364482,1703,HRV,HRV_0193,2022-11-30 18:38:19
106,"[{'imgObject': {}, 'id': 'fruitsalad', 'src': '/static/foodstim60/fruitsalad.jpg', 'key': 'u', 'origWidth': 410, 'origHeight': 410, 'width': 410, 'height': 410, 'widthPercent': 0.45, 'rescaleHeight': False, 'trialN': 106, 'loaded': True, 'loadedTime': 4499.4000000059605, 'positionName': 'LEFT', 'positionCoords': [107.44, 683], 'bid': 8.26}, {'imgObject': {}, 'id': 'pear', 'src': '/static/foodstim60/pear.jpg', 'key': 'i', 'origWidth': 411, 'origHeight': 410, 'width': 411, 'height': 410, 'widthPercent': 0.45, 'rescaleHeight': False, 'trialN': 106, 'loaded': True, 'loadedTime': 4768.9000000059605, 'positionName': 'RIGHT', 'positionCoords': [560.56, 683], 'bid': 7.930000000000001}]",222826.30000001192,1669833364482,fruitsalad,pear,8.26,7.930000000000001,-0.3299999999999992,pear,1579.5999999940395,1580,1580.0999999940395,True,i,224914.70000001788,2088.4000000059605,1669833366571,2089,HRV,HRV_0193,2022-11-30 18:38:19
107,"[{'imgObject': {}, 'id': 'grilled chicken strips', 'src': '/static/foodstim60/grilled chicken strips.jpg', 'key': 'u', 'origWidth': 410, 'origHeight': 411, 'width': 410, 'height': 411, 'widthPercent': 0.45, 'rescaleHeight': False, 'trialN': 107, 'loaded': True, 'loadedTime': 4531.0999999940395, 'positionName': 'LEFT', 'positionCoords': [107.44, 682.5], 'bid': 7.09}, {'imgObject': {}, 'id': 'salmon', 'src': '/static/foodstim60/salmon.jpg', 'key': 'i', 'origWidth': 410, 'origHeight': 409, 'width': 410, 'height': 409, 'widthPercent': 0.45, 'rescaleHeight': False, 'trialN': 107, 'loaded': True, 'loadedTime': 4229, 'positionName': 'RIGHT', 'positionCoords': [560.56, 683.5], 'bid': 6.98}]",224915.09999999404,1669833366571,grilled chicken strips,salmon,7.09,6.98,-0.10999999999999943,salmon,1147.6000000238419,1149,1149.1000000238419,True,i,226565.70000001788,1650.6000000238419,1669833368222,1651,HRV,HRV_0193,2022-11-30 18:38:19
