trialN,stimuli,question,trialStartTime,trialStartTime_UNIX,stimulus1,rt,receivedResponse,rating,trialEndTime,trialDuration,stimulus1Loaded,exp,subjectId,date
0,"[{'imgObject': {}, 'id': 'luckycharms', 'src': '/static/foodstim60/luckycharms.jpg', 'key': 'NaN', 'origWidth': 410, 'origHeight': 409, 'width': 410, 'height': 409, 'widthPercent': 0.8, 'rescaleHeight': True, 'trialN': 0, 'loaded': True, 'loadedTime': 5405.9000000059605, 'positionName': 'CENTER', 'positionCoords': [334, 683.5]}]",Rate how much you want to eat this food from 0 (least) to 10 (most).,7409.4000000059605,1669832820244,luckycharms,2953.5,True,6.29,10362.90000000596,2953.5,True,HRV,HRV_0193,2022-11-30 18:29:33
1,"[{'imgObject': {}, 'id': 'shreddedwheatwithmilk', 'src': '/static/foodstim60/shreddedwheatwithmilk.jpg', 'key': 'NaN', 'origWidth': 410, 'origHeight': 410, 'width': 410, 'height': 410, 'widthPercent': 0.8, 'rescaleHeight': True, 'trialN': 1, 'loaded': True, 'loadedTime': 5365.200000017881, 'positionName': 'CENTER', 'positionCoords': [334, 683]}]",Rate how much you want to eat this food from 0 (least) to 10 (most).,10368.700000017881,1669832823203,shreddedwheatwithmilk,1966.4000000059605,True,7.87,12335.100000023842,1966.4000000059605,True,HRV,HRV_0193,2022-11-30 18:29:33
2,"[{'imgObject': {}, 'id': 'mashed potato', 'src': '/static/foodstim60/mashed potato.jpg', 'key': 'NaN', 'origWidth': 409, 'origHeight': 409, 'width': 409, 'height': 409, 'widthPercent': 0.8, 'rescaleHeight': True, 'trialN': 2, 'loaded': True, 'loadedTime': 5387.200000017881, 'positionName': 'CENTER', 'positionCoords': [334.5, 683.5]}]",Rate how much you want to eat this food from 0 (least) to 10 (most).,12338.0,1669832825172,mashed potato,2248.800000011921,True,8.48,14586.800000011921,2248.800000011921,True,HRV,HRV_0193,2022-11-30 18:29:33
3,"[{'imgObject': {}, 'id': 'cherry tomato', 'src': '/static/foodstim60/cherry tomato.jpg', 'key': 'NaN', 'origWidth': 410, 'origHeight': 410, 'width': 410, 'height': 410, 'widthPercent': 0.8, 'rescaleHeight': True, 'trialN': 3, 'loaded': True, 'loadedTime': 5421.4000000059605, 'positionName': 'CENTER', 'positionCoords': [334, 683]}]",Rate how much you want to eat this food from 0 (least) to 10 (most).,14653.90000000596,1669832827488,cherry tomato,5919.0,True,7.11,20572.90000000596,5919.0,True,HRV,HRV_0193,2022-11-30 18:29:33
4,"[{'imgObject': {}, 'id': 'hotdog w must', 'src': '/static/foodstim60/hotdog w must.jpg', 'key': 'NaN', 'origWidth': 409, 'origHeight': 409, 'width': 409, 'height': 409, 'widthPercent': 0.8, 'rescaleHeight': True, 'trialN': 4, 'loaded': True, 'loadedTime': 5511, 'positionName': 'CENTER', 'positionCoords': [334.5, 683.5]}]",Rate how much you want to eat this food from 0 (least) to 10 (most).,20577.80000001192,1669832833412,hotdog w must,2743.800000011921,True,6.2,23321.600000023842,2743.800000011921,True,HRV,HRV_0193,2022-11-30 18:29:33
5,"[{'imgObject': {}, 'id': 'burrito', 'src': '/static/foodstim60/burrito.jpg', 'key': 'NaN', 'origWidth': 410, 'origHeight': 410, 'width': 410, 'height': 410, 'widthPercent': 0.8, 'rescaleHeight': True, 'trialN': 5, 'loaded': True, 'loadedTime': 5526.100000023842, 'positionName': 'CENTER', 'positionCoords': [334, 683]}]",Rate how much you want to eat this food from 0 (least) to 10 (most).,23351.20000001788,1669832836186,burrito,2517.4000000059605,True,7.69,25868.600000023842,2517.4000000059605,True,HRV,HRV_0193,2022-11-30 18:29:33
6,"[{'imgObject': {}, 'id': 'popsicles', 'src': '/static/foodstim60/popsicles.jpg', 'key': 'NaN', 'origWidth': 410, 'origHeight': 410, 'width': 410, 'height': 410, 'widthPercent': 0.8, 'rescaleHeight': True, 'trialN': 6, 'loaded': True, 'loadedTime': 5542.100000023842, 'positionName': 'CENTER', 'positionCoords': [334, 683]}]",Rate how much you want to eat this food from 0 (least) to 10 (most).,25884.30000001192,1669832838719,popsicles,2833.5999999940395,True,7.5600000000000005,28717.90000000596,2833.5999999940395,True,HRV,HRV_0193,2022-11-30 18:29:33
7,"[{'imgObject': {}, 'id': 'seaweed', 'src': '/static/foodstim60/seaweed.jpg', 'key': 'NaN', 'origWidth': 410, 'origHeight': 410, 'width': 410, 'height': 410, 'widthPercent': 0.8, 'rescaleHeight': True, 'trialN': 7, 'loaded': True, 'loadedTime': 5722.800000011921, 'positionName': 'CENTER', 'positionCoords': [334, 683]}]",Rate how much you want to eat this food from 0 (least) to 10 (most).,28720.80000001192,1669832841556,seaweed,2348.800000011921,True,4.25,31069.600000023842,2348.800000011921,True,HRV,HRV_0193,2022-11-30 18:29:33
8,"[{'imgObject': {}, 'id': 'mac & cheese', 'src': '/static/foodstim60/mac & cheese.jpg', 'key': 'NaN', 'origWidth': 410, 'origHeight': 410, 'width': 410, 'height': 410, 'widthPercent': 0.8, 'rescaleHeight': True, 'trialN': 8, 'loaded': True, 'loadedTime': 5615.700000017881, 'positionName': 'CENTER', 'positionCoords': [334, 683]}]",Rate how much you want to eat this food from 0 (least) to 10 (most).,31072.30000001192,1669832843907,mac & cheese,2813.4000000059605,True,4.8500000000000005,33885.70000001788,2813.4000000059605,True,HRV,HRV_0193,2022-11-30 18:29:33
9,"[{'imgObject': {}, 'id': 'banana', 'src': '/static/foodstim60/banana.jpg', 'key': 'NaN', 'origWidth': 410, 'origHeight': 410, 'width': 410, 'height': 410, 'widthPercent': 0.8, 'rescaleHeight': True, 'trialN': 9, 'loaded': True, 'loadedTime': 5670.600000023842, 'positionName': 'CENTER', 'positionCoords': [334, 683]}]",Rate how much you want to eat this food from 0 (least) to 10 (most).,33889.90000000596,1669832846725,banana,8224.300000011921,True,6.41,42114.20000001788,8224.300000011921,True,HRV,HRV_0193,2022-11-30 18:29:33
10,"[{'imgObject': {}, 'id': 'veggieswithdip', 'src': '/static/foodstim60/veggieswithdip.jpg', 'key': 'NaN', 'origWidth': 409, 'origHeight': 409, 'width': 409, 'height': 409, 'widthPercent': 0.8, 'rescaleHeight': True, 'trialN': 10, 'loaded': True, 'loadedTime': 5703.200000017881, 'positionName': 'CENTER', 'positionCoords': [334.5, 683.5]}]",Rate how much you want to eat this food from 0 (least) to 10 (most).,42118.40000000596,1669832854953,veggieswithdip,2871.2000000178814,True,8.91,44989.60000002384,2871.2000000178814,True,HRV,HRV_0193,2022-11-30 18:29:33
11,"[{'imgObject': {}, 'id': 'Tribe humus pita', 'src': '/static/foodstim60/Tribe humus pita.jpg', 'key': 'NaN', 'origWidth': 411, 'origHeight': 411, 'width': 411, 'height': 411, 'widthPercent': 0.8, 'rescaleHeight': True, 'trialN': 11, 'loaded': True, 'loadedTime': 5809.4000000059605, 'positionName': 'CENTER', 'positionCoords': [333.5, 682.5]}]",Rate how much you want to eat this food from 0 (least) to 10 (most).,44994.0,1669832857829,Tribe humus pita,2172.100000023842,True,8.65,47166.10000002384,2172.100000023842,True,HRV,HRV_0193,2022-11-30 18:29:33
12,"[{'imgObject': {}, 'id': 'chicken nuggets2', 'src': '/static/foodstim60/chicken nuggets2.jpg', 'key': 'NaN', 'origWidth': 410, 'origHeight': 409, 'width': 410, 'height': 409, 'widthPercent': 0.8, 'rescaleHeight': True, 'trialN': 12, 'loaded': True, 'loadedTime': 5829.300000011921, 'positionName': 'CENTER', 'positionCoords': [334, 683.5]}]",Rate how much you want to eat this food from 0 (least) to 10 (most).,47169.0,1669832860004,chicken nuggets2,13005.90000000596,True,6.98,60174.90000000596,13005.90000000596,True,HRV,HRV_0193,2022-11-30 18:29:33
13,"[{'imgObject': {}, 'id': 'cheerios', 'src': '/static/foodstim60/cheerios.jpg', 'key': 'NaN', 'origWidth': 409, 'origHeight': 410, 'width': 409, 'height': 410, 'widthPercent': 0.8, 'rescaleHeight': True, 'trialN': 13, 'loaded': True, 'loadedTime': 6003.700000017881, 'positionName': 'CENTER', 'positionCoords': [334.5, 683]}]",Rate how much you want to eat this food from 0 (least) to 10 (most).,60178.60000002384,1669832873013,cheerios,1551.0999999940395,True,8.22,61729.70000001788,1551.0999999940395,True,HRV,HRV_0193,2022-11-30 18:29:33
14,"[{'imgObject': {}, 'id': 'strawberries', 'src': '/static/foodstim60/strawberries.jpg', 'key': 'NaN', 'origWidth': 410, 'origHeight': 410, 'width': 410, 'height': 410, 'widthPercent': 0.8, 'rescaleHeight': True, 'trialN': 14, 'loaded': True, 'loadedTime': 5986, 'positionName': 'CENTER', 'positionCoords': [334, 683]}]",Rate how much you want to eat this food from 0 (least) to 10 (most).,61732.70000001788,1669832874567,strawberries,1788.2999999821186,True,6.91,63521.0,1788.2999999821186,True,HRV,HRV_0193,2022-11-30 18:29:33
15,"[{'imgObject': {}, 'id': 'edamame', 'src': '/static/foodstim60/edamame.jpg', 'key': 'NaN', 'origWidth': 409, 'origHeight': 410, 'width': 409, 'height': 410, 'widthPercent': 0.8, 'rescaleHeight': True, 'trialN': 15, 'loaded': True, 'loadedTime': 6095.9000000059605, 'positionName': 'CENTER', 'positionCoords': [334.5, 683]}]",Rate how much you want to eat this food from 0 (least) to 10 (most).,63524.0,1669832876359,edamame,2782.300000011921,True,5.11,66306.30000001192,2782.300000011921,True,HRV,HRV_0193,2022-11-30 18:29:33
16,"[{'imgObject': {}, 'id': 'chickenfingers', 'src': '/static/foodstim60/chickenfingers.jpg', 'key': 'NaN', 'origWidth': 410, 'origHeight': 410, 'width': 410, 'height': 410, 'widthPercent': 0.8, 'rescaleHeight': True, 'trialN': 16, 'loaded': True, 'loadedTime': 6152.700000017881, 'positionName': 'CENTER', 'positionCoords': [334, 683]}]",Rate how much you want to eat this food from 0 (least) to 10 (most).,66308.90000000596,1669832879144,chickenfingers,1628.5999999940395,True,4.49,67937.5,1628.5999999940395,True,HRV,HRV_0193,2022-11-30 18:29:33
17,"[{'imgObject': {}, 'id': 'baked potato', 'src': '/static/foodstim60/baked potato.jpg', 'key': 'NaN', 'origWidth': 409, 'origHeight': 410, 'width': 409, 'height': 410, 'widthPercent': 0.8, 'rescaleHeight': True, 'trialN': 17, 'loaded': True, 'loadedTime': 6181.700000017881, 'positionName': 'CENTER', 'positionCoords': [334.5, 683]}]",Rate how much you want to eat this food from 0 (least) to 10 (most).,67940.90000000596,1669832880776,baked potato,1532.300000011921,True,5.33,69473.20000001788,1532.300000011921,True,HRV,HRV_0193,2022-11-30 18:29:33
18,"[{'imgObject': {}, 'id': 'hashbrowns', 'src': '/static/foodstim60/hashbrowns.jpg', 'key': 'NaN', 'origWidth': 411, 'origHeight': 410, 'width': 411, 'height': 410, 'widthPercent': 0.8, 'rescaleHeight': True, 'trialN': 18, 'loaded': True, 'loadedTime': 6256.5, 'positionName': 'CENTER', 'positionCoords': [333.5, 683]}]",Rate how much you want to eat this food from 0 (least) to 10 (most).,69475.70000001788,1669832882310,hashbrowns,1500.7999999821186,True,4.55,70976.5,1500.7999999821186,True,HRV,HRV_0193,2022-11-30 18:29:33
19,"[{'imgObject': {}, 'id': 'cantaloupe', 'src': '/static/foodstim60/cantaloupe.jpg', 'key': 'NaN', 'origWidth': 409, 'origHeight': 409, 'width': 409, 'height': 409, 'widthPercent': 0.8, 'rescaleHeight': True, 'trialN': 19, 'loaded': True, 'loadedTime': 6277.300000011921, 'positionName': 'CENTER', 'positionCoords': [334.5, 683.5]}]",Rate how much you want to eat this food from 0 (least) to 10 (most).,70979.40000000596,1669832883814,cantaloupe,3008.5,True,3.79,73987.90000000596,3008.5,True,HRV,HRV_0193,2022-11-30 18:29:33
20,"[{'imgObject': {}, 'id': 'eggs', 'src': '/static/foodstim60/eggs.jpg', 'key': 'NaN', 'origWidth': 409, 'origHeight': 409, 'width': 409, 'height': 409, 'widthPercent': 0.8, 'rescaleHeight': True, 'trialN': 20, 'loaded': True, 'loadedTime': 6299.4000000059605, 'positionName': 'CENTER', 'positionCoords': [334.5, 683.5]}]",Rate how much you want to eat this food from 0 (least) to 10 (most).,73991.10000002384,1669832886826,eggs,1978.5999999940395,True,4.09,75969.70000001788,1978.5999999940395,True,HRV,HRV_0193,2022-11-30 18:29:33
21,"[{'imgObject': {}, 'id': 'turkeysandwich', 'src': '/static/foodstim60/turkeysandwich.jpg', 'key': 'NaN', 'origWidth': 409, 'origHeight': 409, 'width': 409, 'height': 409, 'widthPercent': 0.8, 'rescaleHeight': True, 'trialN': 21, 'loaded': True, 'loadedTime': 6316.9000000059605, 'positionName': 'CENTER', 'positionCoords': [334.5, 683.5]}]",Rate how much you want to eat this food from 0 (least) to 10 (most).,75973.60000002384,1669832888808,turkeysandwich,13470.09999999404,True,8.52,89443.70000001788,13470.09999999404,True,HRV,HRV_0193,2022-11-30 18:29:33
22,"[{'imgObject': {}, 'id': 'granola w milk', 'src': '/static/foodstim60/granola w milk.jpg', 'key': 'NaN', 'origWidth': 410, 'origHeight': 410, 'width': 410, 'height': 410, 'widthPercent': 0.8, 'rescaleHeight': True, 'trialN': 22, 'loaded': True, 'loadedTime': 6367, 'positionName': 'CENTER', 'positionCoords': [334, 683]}]",Rate how much you want to eat this food from 0 (least) to 10 (most).,89446.40000000596,1669832902282,granola w milk,1469.0999999940395,True,7.33,90915.5,1469.0999999940395,True,HRV,HRV_0193,2022-11-30 18:29:33
23,"[{'imgObject': {}, 'id': 'rigatoni', 'src': '/static/foodstim60/rigatoni.jpg', 'key': 'NaN', 'origWidth': 411, 'origHeight': 411, 'width': 411, 'height': 411, 'widthPercent': 0.8, 'rescaleHeight': True, 'trialN': 23, 'loaded': True, 'loadedTime': 6337.300000011921, 'positionName': 'CENTER', 'positionCoords': [333.5, 682.5]}]",Rate how much you want to eat this food from 0 (least) to 10 (most).,90918.5,1669832903754,rigatoni,1838.6000000238419,True,5.79,92757.10000002384,1838.6000000238419,True,HRV,HRV_0193,2022-11-30 18:29:33
24,"[{'imgObject': {}, 'id': 'turkey sandwich', 'src': '/static/foodstim60/turkey sandwich.jpg', 'key': 'NaN', 'origWidth': 409, 'origHeight': 409, 'width': 409, 'height': 409, 'widthPercent': 0.8, 'rescaleHeight': True, 'trialN': 24, 'loaded': True, 'loadedTime': 6414.9000000059605, 'positionName': 'CENTER', 'positionCoords': [334.5, 683.5]}]",Rate how much you want to eat this food from 0 (least) to 10 (most).,92760.70000001788,1669832905596,turkey sandwich,1179.5999999940395,True,6.890000000000001,93940.30000001192,1179.5999999940395,True,HRV,HRV_0193,2022-11-30 18:29:33
25,"[{'imgObject': {}, 'id': 'kiwi', 'src': '/static/foodstim60/kiwi.jpg', 'key': 'NaN', 'origWidth': 410, 'origHeight': 410, 'width': 410, 'height': 410, 'widthPercent': 0.8, 'rescaleHeight': True, 'trialN': 25, 'loaded': True, 'loadedTime': 6400.700000017881, 'positionName': 'CENTER', 'positionCoords': [334, 683]}]",Rate how much you want to eat this food from 0 (least) to 10 (most).,93942.5,1669832906778,kiwi,1663.6000000238419,True,7.390000000000001,95606.10000002384,1663.6000000238419,True,HRV,HRV_0193,2022-11-30 18:29:33
26,"[{'imgObject': {}, 'id': 'eggsalad', 'src': '/static/foodstim60/eggsalad.jpg', 'key': 'NaN', 'origWidth': 410, 'origHeight': 409, 'width': 410, 'height': 409, 'widthPercent': 0.8, 'rescaleHeight': True, 'trialN': 26, 'loaded': True, 'loadedTime': 6454.100000023842, 'positionName': 'CENTER', 'positionCoords': [334, 683.5]}]",Rate how much you want to eat this food from 0 (least) to 10 (most).,95608.20000001788,1669832908444,eggsalad,2653.0999999940395,True,7.8500000000000005,98261.30000001192,2653.0999999940395,True,HRV,HRV_0193,2022-11-30 18:29:33
27,"[{'imgObject': {}, 'id': 'tacos', 'src': '/static/foodstim60/tacos.jpg', 'key': 'NaN', 'origWidth': 411, 'origHeight': 411, 'width': 411, 'height': 411, 'widthPercent': 0.8, 'rescaleHeight': True, 'trialN': 27, 'loaded': True, 'loadedTime': 6550.100000023842, 'positionName': 'CENTER', 'positionCoords': [333.5, 682.5]}]",Rate how much you want to eat this food from 0 (least) to 10 (most).,98264.30000001192,1669832911100,tacos,1564.699999988079,True,8.19,99829.0,1564.699999988079,True,HRV,HRV_0193,2022-11-30 18:29:33
28,"[{'imgObject': {}, 'id': 'salmon', 'src': '/static/foodstim60/salmon.jpg', 'key': 'NaN', 'origWidth': 410, 'origHeight': 409, 'width': 410, 'height': 409, 'widthPercent': 0.8, 'rescaleHeight': True, 'trialN': 28, 'loaded': True, 'loadedTime': 6600.5, 'positionName': 'CENTER', 'positionCoords': [334, 683.5]}]",Rate how much you want to eat this food from 0 (least) to 10 (most).,99831.0,1669832912667,salmon,2925.100000023842,True,8.0,102756.10000002384,2925.100000023842,True,HRV,HRV_0193,2022-11-30 18:29:33
29,"[{'imgObject': {}, 'id': 'cocktailshrimp', 'src': '/static/foodstim60/cocktailshrimp.jpg', 'key': 'NaN', 'origWidth': 410, 'origHeight': 410, 'width': 410, 'height': 410, 'widthPercent': 0.8, 'rescaleHeight': True, 'trialN': 29, 'loaded': True, 'loadedTime': 6657.800000011921, 'positionName': 'CENTER', 'positionCoords': [334, 683]}]",Rate how much you want to eat this food from 0 (least) to 10 (most).,102759.20000001788,1669832915595,cocktailshrimp,2477.4000000059605,True,7.44,105236.60000002384,2477.4000000059605,True,HRV,HRV_0193,2022-11-30 18:29:33
30,"[{'imgObject': {}, 'id': 'orange slices', 'src': '/static/foodstim60/orange slices.jpg', 'key': 'NaN', 'origWidth': 409, 'origHeight': 410, 'width': 409, 'height': 410, 'widthPercent': 0.8, 'rescaleHeight': True, 'trialN': 30, 'loaded': True, 'loadedTime': 6619.200000017881, 'positionName': 'CENTER', 'positionCoords': [334.5, 683]}]",Rate how much you want to eat this food from 0 (least) to 10 (most).,105238.80000001192,1669832918075,orange slices,4768.0999999940395,True,6.59,110006.90000000596,4768.0999999940395,True,HRV,HRV_0193,2022-11-30 18:29:33
31,"[{'imgObject': {}, 'id': 'bagel plain', 'src': '/static/foodstim60/bagel plain.jpg', 'key': 'NaN', 'origWidth': 410, 'origHeight': 410, 'width': 410, 'height': 410, 'widthPercent': 0.8, 'rescaleHeight': True, 'trialN': 31, 'loaded': True, 'loadedTime': 6635.5, 'positionName': 'CENTER', 'positionCoords': [334, 683]}]",Rate how much you want to eat this food from 0 (least) to 10 (most).,110010.80000001192,1669832922847,bagel plain,1692.800000011921,True,7.3100000000000005,111703.60000002384,1692.800000011921,True,HRV,HRV_0193,2022-11-30 18:29:33
32,"[{'imgObject': {}, 'id': 'mango', 'src': '/static/foodstim60/mango.jpg', 'key': 'NaN', 'origWidth': 411, 'origHeight': 411, 'width': 411, 'height': 411, 'widthPercent': 0.8, 'rescaleHeight': True, 'trialN': 32, 'loaded': True, 'loadedTime': 6679.9000000059605, 'positionName': 'CENTER', 'positionCoords': [333.5, 682.5]}]",Rate how much you want to eat this food from 0 (least) to 10 (most).,111705.80000001192,1669832924542,mango,3179.5999999940395,True,6.59,114885.40000000596,3179.5999999940395,True,HRV,HRV_0193,2022-11-30 18:29:33
33,"[{'imgObject': {}, 'id': 'apple slices', 'src': '/static/foodstim60/apple slices.jpg', 'key': 'NaN', 'origWidth': 409, 'origHeight': 410, 'width': 409, 'height': 410, 'widthPercent': 0.8, 'rescaleHeight': True, 'trialN': 33, 'loaded': True, 'loadedTime': 6695.100000023842, 'positionName': 'CENTER', 'positionCoords': [334.5, 683]}]",Rate how much you want to eat this food from 0 (least) to 10 (most).,114887.70000001788,1669832927723,apple slices,1327.7999999821186,True,7.43,116215.5,1327.7999999821186,True,HRV,HRV_0193,2022-11-30 18:29:33
34,"[{'imgObject': {}, 'id': 'sushi w_condiments', 'src': '/static/foodstim60/sushi w_condiments.jpg', 'key': 'NaN', 'origWidth': 410, 'origHeight': 410, 'width': 410, 'height': 410, 'widthPercent': 0.8, 'rescaleHeight': True, 'trialN': 34, 'loaded': True, 'loadedTime': 6712.600000023842, 'positionName': 'CENTER', 'positionCoords': [334, 683]}]",Rate how much you want to eat this food from 0 (least) to 10 (most).,116217.80000001192,1669832929054,sushi w_condiments,1820.800000011921,True,8.11,118038.60000002384,1820.800000011921,True,HRV,HRV_0193,2022-11-30 18:29:33
35,"[{'imgObject': {}, 'id': 'bagel and cc', 'src': '/static/foodstim60/bagel and cc.jpg', 'key': 'NaN', 'origWidth': 410, 'origHeight': 410, 'width': 410, 'height': 410, 'widthPercent': 0.8, 'rescaleHeight': True, 'trialN': 35, 'loaded': True, 'loadedTime': 6800.300000011921, 'positionName': 'CENTER', 'positionCoords': [334, 683]}]",Rate how much you want to eat this food from 0 (least) to 10 (most).,118042.20000001788,1669832930878,bagel and cc,1549.199999988079,True,6.8100000000000005,119591.40000000596,1549.199999988079,True,HRV,HRV_0193,2022-11-30 18:29:33
36,"[{'imgObject': {}, 'id': 'pear', 'src': '/static/foodstim60/pear.jpg', 'key': 'NaN', 'origWidth': 411, 'origHeight': 410, 'width': 411, 'height': 410, 'widthPercent': 0.8, 'rescaleHeight': True, 'trialN': 36, 'loaded': True, 'loadedTime': 6745.700000017881, 'positionName': 'CENTER', 'positionCoords': [333.5, 683]}]",Rate how much you want to eat this food from 0 (least) to 10 (most).,119593.5,1669832932429,pear,1005.3000000119209,True,7.82,120598.80000001192,1005.3000000119209,True,HRV,HRV_0193,2022-11-30 18:29:33
37,"[{'imgObject': {}, 'id': 'raspberries', 'src': '/static/foodstim60/raspberries.jpg', 'key': 'NaN', 'origWidth': 411, 'origHeight': 411, 'width': 411, 'height': 411, 'widthPercent': 0.8, 'rescaleHeight': True, 'trialN': 37, 'loaded': True, 'loadedTime': 6764.200000017881, 'positionName': 'CENTER', 'positionCoords': [333.5, 682.5]}]",Rate how much you want to eat this food from 0 (least) to 10 (most).,120601.90000000596,1669832933438,raspberries,1455.800000011921,True,6.390000000000001,122057.70000001788,1455.800000011921,True,HRV,HRV_0193,2022-11-30 18:29:33
38,"[{'imgObject': {}, 'id': 'cherries', 'src': '/static/foodstim60/cherries.jpg', 'key': 'NaN', 'origWidth': 410, 'origHeight': 411, 'width': 410, 'height': 411, 'widthPercent': 0.8, 'rescaleHeight': True, 'trialN': 38, 'loaded': True, 'loadedTime': 6780, 'positionName': 'CENTER', 'positionCoords': [334, 682.5]}]",Rate how much you want to eat this food from 0 (least) to 10 (most).,122064.0,1669832934900,cherries,1143.2000000178814,True,7.5200000000000005,123207.20000001788,1143.2000000178814,True,HRV,HRV_0193,2022-11-30 18:29:33
39,"[{'imgObject': {}, 'id': 'burger', 'src': '/static/foodstim60/burger.jpg', 'key': 'NaN', 'origWidth': 409, 'origHeight': 409, 'width': 409, 'height': 409, 'widthPercent': 0.8, 'rescaleHeight': True, 'trialN': 39, 'loaded': True, 'loadedTime': 6820.800000011921, 'positionName': 'CENTER', 'positionCoords': [334.5, 683.5]}]",Rate how much you want to eat this food from 0 (least) to 10 (most).,123210.60000002384,1669832936046,burger,5020.399999976158,True,8.040000000000001,128231.0,5020.399999976158,True,HRV,HRV_0193,2022-11-30 18:29:33
40,"[{'imgObject': {}, 'id': 'olives', 'src': '/static/foodstim60/olives.jpg', 'key': 'NaN', 'origWidth': 410, 'origHeight': 410, 'width': 410, 'height': 410, 'widthPercent': 0.8, 'rescaleHeight': True, 'trialN': 40, 'loaded': True, 'loadedTime': 6839.700000017881, 'positionName': 'CENTER', 'positionCoords': [334, 683]}]",Rate how much you want to eat this food from 0 (least) to 10 (most).,128233.30000001192,1669832941069,olives,1119.699999988079,True,8.02,129353.0,1119.699999988079,True,HRV,HRV_0193,2022-11-30 18:29:33
41,"[{'imgObject': {}, 'id': 'fried eggs', 'src': '/static/foodstim60/fried eggs.jpg', 'key': 'NaN', 'origWidth': 410, 'origHeight': 410, 'width': 410, 'height': 410, 'widthPercent': 0.8, 'rescaleHeight': True, 'trialN': 41, 'loaded': True, 'loadedTime': 6863.4000000059605, 'positionName': 'CENTER', 'positionCoords': [334, 683]}]",Rate how much you want to eat this food from 0 (least) to 10 (most).,129354.80000001192,1669832942191,fried eggs,1022.5,True,7.94,130377.30000001192,1022.5,True,HRV,HRV_0193,2022-11-30 18:29:33
42,"[{'imgObject': {}, 'id': 'corn cob', 'src': '/static/foodstim60/corn cob.jpg', 'key': 'NaN', 'origWidth': 411, 'origHeight': 411, 'width': 411, 'height': 411, 'widthPercent': 0.8, 'rescaleHeight': True, 'trialN': 42, 'loaded': True, 'loadedTime': 6949.100000023842, 'positionName': 'CENTER', 'positionCoords': [333.5, 682.5]}]",Rate how much you want to eat this food from 0 (least) to 10 (most).,130380.10000002384,1669832943216,corn cob,861.3999999761581,True,6.5200000000000005,131241.5,861.3999999761581,True,HRV,HRV_0193,2022-11-30 18:29:33
43,"[{'imgObject': {}, 'id': 'sweetpotato', 'src': '/static/foodstim60/sweetpotato.jpg', 'key': 'NaN', 'origWidth': 410, 'origHeight': 410, 'width': 410, 'height': 410, 'widthPercent': 0.8, 'rescaleHeight': True, 'trialN': 43, 'loaded': True, 'loadedTime': 6884.300000011921, 'positionName': 'CENTER', 'positionCoords': [334, 683]}]",Rate how much you want to eat this food from 0 (least) to 10 (most).,131244.0,1669832944080,sweetpotato,990.7000000178814,True,7.37,132234.70000001788,990.7000000178814,True,HRV,HRV_0193,2022-11-30 18:29:33
44,"[{'imgObject': {}, 'id': 'salad w chicken', 'src': '/static/foodstim60/salad w chicken.jpg', 'key': 'NaN', 'origWidth': 411, 'origHeight': 411, 'width': 411, 'height': 411, 'widthPercent': 0.8, 'rescaleHeight': True, 'trialN': 44, 'loaded': True, 'loadedTime': 6989.100000023842, 'positionName': 'CENTER', 'positionCoords': [333.5, 682.5]}]",Rate how much you want to eat this food from 0 (least) to 10 (most).,132237.30000001192,1669832945073,salad w chicken,972.4000000059605,True,6.11,133209.70000001788,972.4000000059605,True,HRV,HRV_0193,2022-11-30 18:29:33
45,"[{'imgObject': {}, 'id': 'omelette', 'src': '/static/foodstim60/omelette.jpg', 'key': 'NaN', 'origWidth': 410, 'origHeight': 409, 'width': 410, 'height': 409, 'widthPercent': 0.8, 'rescaleHeight': True, 'trialN': 45, 'loaded': True, 'loadedTime': 6902.200000017881, 'positionName': 'CENTER', 'positionCoords': [334, 683.5]}]",Rate how much you want to eat this food from 0 (least) to 10 (most).,133212.70000001788,1669832946048,omelette,907.1999999880791,True,7.63,134119.90000000596,907.1999999880791,True,HRV,HRV_0193,2022-11-30 18:29:33
46,"[{'imgObject': {}, 'id': 'steak', 'src': '/static/foodstim60/steak.jpg', 'key': 'NaN', 'origWidth': 410, 'origHeight': 410, 'width': 410, 'height': 410, 'widthPercent': 0.8, 'rescaleHeight': True, 'trialN': 46, 'loaded': True, 'loadedTime': 6969.300000011921, 'positionName': 'CENTER', 'positionCoords': [334, 683]}]",Rate how much you want to eat this food from 0 (least) to 10 (most).,134122.70000001788,1669832946958,steak,991.4000000059605,True,5.8100000000000005,135114.10000002384,991.4000000059605,True,HRV,HRV_0193,2022-11-30 18:29:33
47,"[{'imgObject': {}, 'id': 'ice cream sundae 002', 'src': '/static/foodstim60/ice cream sundae 002.jpg', 'key': 'NaN', 'origWidth': 409, 'origHeight': 409, 'width': 409, 'height': 409, 'widthPercent': 0.8, 'rescaleHeight': True, 'trialN': 47, 'loaded': True, 'loadedTime': 7008.600000023842, 'positionName': 'CENTER', 'positionCoords': [334.5, 683.5]}]",Rate how much you want to eat this food from 0 (least) to 10 (most).,135116.10000002384,1669832947952,ice cream sundae 002,990.2999999821186,True,7.0200000000000005,136106.40000000596,990.2999999821186,True,HRV,HRV_0193,2022-11-30 18:29:33
48,"[{'imgObject': {}, 'id': 'grilled chicken strips', 'src': '/static/foodstim60/grilled chicken strips.jpg', 'key': 'NaN', 'origWidth': 410, 'origHeight': 411, 'width': 410, 'height': 411, 'widthPercent': 0.8, 'rescaleHeight': True, 'trialN': 48, 'loaded': True, 'loadedTime': 7026.700000017881, 'positionName': 'CENTER', 'positionCoords': [334, 682.5]}]",Rate how much you want to eat this food from 0 (least) to 10 (most).,136108.90000000596,1669832948945,grilled chicken strips,1205.300000011921,True,7.0200000000000005,137314.20000001788,1205.300000011921,True,HRV,HRV_0193,2022-11-30 18:29:33
49,"[{'imgObject': {}, 'id': 'lox', 'src': '/static/foodstim60/lox.jpg', 'key': 'NaN', 'origWidth': 410, 'origHeight': 411, 'width': 410, 'height': 411, 'widthPercent': 0.8, 'rescaleHeight': True, 'trialN': 49, 'loaded': True, 'loadedTime': 7083.100000023842, 'positionName': 'CENTER', 'positionCoords': [334, 682.5]}]",Rate how much you want to eat this food from 0 (least) to 10 (most).,137316.20000001788,1669832950152,lox,2684.2999999821186,True,8.39,140000.5,2684.2999999821186,True,HRV,HRV_0193,2022-11-30 18:29:33
50,"[{'imgObject': {}, 'id': 'roastedpotatoes', 'src': '/static/foodstim60/roastedpotatoes.jpg', 'key': 'NaN', 'origWidth': 409, 'origHeight': 410, 'width': 409, 'height': 410, 'widthPercent': 0.8, 'rescaleHeight': True, 'trialN': 50, 'loaded': True, 'loadedTime': 7048.200000017881, 'positionName': 'CENTER', 'positionCoords': [334.5, 683]}]",Rate how much you want to eat this food from 0 (least) to 10 (most).,140002.5,1669832952838,roastedpotatoes,969.1000000238419,True,7.41,140971.60000002384,969.1000000238419,True,HRV,HRV_0193,2022-11-30 18:29:33
51,"[{'imgObject': {}, 'id': 'fruitsalad', 'src': '/static/foodstim60/fruitsalad.jpg', 'key': 'NaN', 'origWidth': 410, 'origHeight': 410, 'width': 410, 'height': 410, 'widthPercent': 0.8, 'rescaleHeight': True, 'trialN': 51, 'loaded': True, 'loadedTime': 7066.700000017881, 'positionName': 'CENTER', 'positionCoords': [334, 683]}]",Rate how much you want to eat this food from 0 (least) to 10 (most).,140975.20000001788,1669832953811,fruitsalad,1082.9000000059605,True,6.57,142058.10000002384,1082.9000000059605,True,HRV,HRV_0193,2022-11-30 18:29:33
52,"[{'imgObject': {}, 'id': 'blueberries', 'src': '/static/foodstim60/blueberries.jpg', 'key': 'NaN', 'origWidth': 411, 'origHeight': 411, 'width': 411, 'height': 411, 'widthPercent': 0.8, 'rescaleHeight': True, 'trialN': 52, 'loaded': True, 'loadedTime': 7230.600000023842, 'positionName': 'CENTER', 'positionCoords': [333.5, 682.5]}]",Rate how much you want to eat this food from 0 (least) to 10 (most).,142060.0,1669832954896,blueberries,1085.4000000059605,True,7.7,143145.40000000596,1085.4000000059605,True,HRV,HRV_0193,2022-11-30 18:29:33
53,"[{'imgObject': {}, 'id': 'raisin bran w milk', 'src': '/static/foodstim60/raisin bran w milk.jpg', 'key': 'NaN', 'origWidth': 411, 'origHeight': 411, 'width': 411, 'height': 411, 'widthPercent': 0.8, 'rescaleHeight': True, 'trialN': 53, 'loaded': True, 'loadedTime': 7196.9000000059605, 'positionName': 'CENTER', 'positionCoords': [333.5, 682.5]}]",Rate how much you want to eat this food from 0 (least) to 10 (most).,143148.0,1669832955984,raisin bran w milk,1215.2000000178814,True,8.19,144363.20000001788,1215.2000000178814,True,HRV,HRV_0193,2022-11-30 18:29:33
54,"[{'imgObject': {}, 'id': 'avocado', 'src': '/static/foodstim60/avocado.jpg', 'key': 'NaN', 'origWidth': 409, 'origHeight': 409, 'width': 409, 'height': 409, 'widthPercent': 0.8, 'rescaleHeight': True, 'trialN': 54, 'loaded': True, 'loadedTime': 7250.100000023842, 'positionName': 'CENTER', 'positionCoords': [334.5, 683.5]}]",Rate how much you want to eat this food from 0 (least) to 10 (most).,144365.90000000596,1669832957202,avocado,4909.200000017881,True,7.72,149275.10000002384,4909.200000017881,True,HRV,HRV_0193,2022-11-30 18:29:33
55,"[{'imgObject': {}, 'id': 'rigatoni and sauce', 'src': '/static/foodstim60/rigatoni and sauce.jpg', 'key': 'NaN', 'origWidth': 410, 'origHeight': 411, 'width': 410, 'height': 411, 'widthPercent': 0.8, 'rescaleHeight': True, 'trialN': 55, 'loaded': True, 'loadedTime': 7265.200000017881, 'positionName': 'CENTER', 'positionCoords': [334, 682.5]}]",Rate how much you want to eat this food from 0 (least) to 10 (most).,149277.60000002384,1669832962114,rigatoni and sauce,972.8999999761581,True,6.8100000000000005,150250.5,972.8999999761581,True,HRV,HRV_0193,2022-11-30 18:29:33
56,"[{'imgObject': {}, 'id': 'froot loops w milk', 'src': '/static/foodstim60/froot loops w milk.jpg', 'key': 'NaN', 'origWidth': 410, 'origHeight': 410, 'width': 410, 'height': 410, 'widthPercent': 0.8, 'rescaleHeight': True, 'trialN': 56, 'loaded': True, 'loadedTime': 7307.300000011921, 'positionName': 'CENTER', 'positionCoords': [334, 683]}]",Rate how much you want to eat this food from 0 (least) to 10 (most).,150253.70000001788,1669832963090,froot loops w milk,1166.0999999940395,True,7.94,151419.80000001192,1166.0999999940395,True,HRV,HRV_0193,2022-11-30 18:29:33
57,"[{'imgObject': {}, 'id': 'Grapes', 'src': '/static/foodstim60/Grapes.jpg', 'key': 'NaN', 'origWidth': 411, 'origHeight': 411, 'width': 411, 'height': 411, 'widthPercent': 0.8, 'rescaleHeight': True, 'trialN': 57, 'loaded': True, 'loadedTime': 7324, 'positionName': 'CENTER', 'positionCoords': [333.5, 682.5]}]",Rate how much you want to eat this food from 0 (least) to 10 (most).,151422.0,1669832964258,Grapes,1582.4000000059605,True,6.5,153004.40000000596,1582.4000000059605,True,HRV,HRV_0193,2022-11-30 18:29:33
58,"[{'imgObject': {}, 'id': 'yogurt no spoon', 'src': '/static/foodstim60/yogurt no spoon.jpg', 'key': 'NaN', 'origWidth': 411, 'origHeight': 410, 'width': 411, 'height': 410, 'widthPercent': 0.8, 'rescaleHeight': True, 'trialN': 58, 'loaded': True, 'loadedTime': 7374.300000011921, 'positionName': 'CENTER', 'positionCoords': [333.5, 683]}]",Rate how much you want to eat this food from 0 (least) to 10 (most).,153007.70000001788,1669832965844,yogurt no spoon,5857.799999982119,True,7.74,158865.5,5857.799999982119,True,HRV,HRV_0193,2022-11-30 18:29:33
59,"[{'imgObject': {}, 'id': 'blackbeanswithrice', 'src': '/static/foodstim60/blackbeanswithrice.jpg', 'key': 'NaN', 'origWidth': 410, 'origHeight': 410, 'width': 410, 'height': 410, 'widthPercent': 0.8, 'rescaleHeight': True, 'trialN': 59, 'loaded': True, 'loadedTime': 7395.800000011921, 'positionName': 'CENTER', 'positionCoords': [334, 683]}]",Rate how much you want to eat this food from 0 (least) to 10 (most).,158869.40000000596,1669832971706,blackbeanswithrice,1174.9000000059605,True,7.11,160044.30000001192,1174.9000000059605,True,HRV,HRV_0193,2022-11-30 18:29:33
