success,trial_type,trial_index,time_elapsed,internal_node_id,Block,TrialNumber,TrialTime,trialTimeDiff,FPS_avg,FPS_med,FPS_mode,TrialDur,winResizeTime,rt,block,button_pressed,MotCoh,MotDir,ColCoh,Color,ChoiceKey,Choice,Accuracy,RT,nFrames,FPS,PPD,missTrial,missTrialMsg,onsetDelay,fullScreenExitTime,canvCenter,TrialType,Score,BlockTrial,stimulus,button_labels,exp,subjectId,date
True,fullscreen,0,5074,0.0-0.0,0.0,1.0,,,,,,,,,,,,,,,,,,,,,,,,,,,,,,,,HRV,HRV_0193,2022-11-30 18:52:00
,wl-check-fps,1,9731,0.0-1.0,0.0,2.0,"[5687.4, 5690.7, 5707, 5724.9, 5741.9, 5755.5, 5772.4, 5786.4, 5803.5, 5817.4, 5834.5, 5847.8, 5865.5, 5879.5, 5896.4, 5910.5, 5927.3, 5941.5, 5958.4, 5971.4, 5988.4, 6003.5, 6020, 6034.7, 6050.7, 6065.2, 6082.2, 6095.2, 6113.3, 6127.2, 6149, 6157.3, 6175.2, 6189.1, 6205.2, 6219.2, 6236.2, 6251.1, 6268.2, 6284.3, 6299.2, 6314.1, 6329.4, 6344.1, 6360, 6373.1, 6391.2, 6406.1, 6422.2, 6436, 6452, 6468.1, 6483.2, 6497.8, 6513.9, 6530, 6544.9, 6560.9, 6576.9, 6591, 6608, 6622.4, 6638.4, 6651.3, 6669.3, 6682.3, 6699.2, 6714.2, 6731.3, 6745.4, 6762.3, 6776.3, 6793.2, 6806.1, 6824.2, 6838.2, 6854.1, 6869.3, 6886.3, 6900.1, 6916.2, 6931.1, 6948.2, 6962.1, 6979.1, 6992.1, 7009.1, 7024.1, 7041, 7055.1, 7072, 7086, 7103.1, 7117, 7134.1, 7148.1, 7165.1, 7179.1, 7195.9, 7210, 7226, 7241, 7256.9, 7271, 7290.7, 7302.1, 7320.1, 7333.1, 7350, 7365, 7382, 7396, 7413, 7426.9, 7444, 7457.9, 7474.9, 7488.8, 7504.8, 7519.8, 7536, 7550.9, 7567, 7581.9, 7598.2, 7612.9, 7628.8, 7643.9, 7659.9, 7674.9, 7691.6, 7705.8, 7721.7, 7736.7, 7752.8, 7767.8, 7783.9, 7798.8, 7815.7, 7828.7, 7846.9, 7859.7, 7877.8, 7890.8, 7908.8, 7922.8, 7938.8, 7952.8, 7969.8, 7984.8, 8000.8, 8014.8, 8032.2, 8046, 8063, 8076.8, 8093, 8107.9, 8124.9, 8137.9, 8155.8, 8169.8, 8185.9, 8200.8, 8217.9, 8232.1, 8248.7, 8261.7, 8278.8, 8292.9, 8309.7, 8324, 8339.9, 8353.9, 8370.6, 8383.9, 8402, 8417.3, 8436.7, 8453.6, 8470.6, 8479.7, 8494, 8508.6, 8524.6, 8539.6, 8556.6, 8570.6, 8586.6, 8601.4, 8617.6, 8632.6, 8648.6, 8663.5, 8680.6, 8694.5, 8711.5, 8725.5, 8741.5, 8756.5, 8773.5, 8787.4, 8803.5, 8817.4, 8835.5, 8849.4, 8866.5, 8880.6, 8897.5, 8911.6, 8928.5, 8942.6, 8959.4, 8973.4, 8990.3, 9004.4, 9027.4, 9035.2, 9050.3, 9066.3, 9083.3, 9098.5, 9114.4, 9127.5, 9145.5, 9160.4, 9175.3, 9190.2, 9207.5, 9221.6, 9238.2, 9252.3, 9268.2, 9283.3, 9300.2, 9314.4, 9331.2, 9345.2, 9361.4, 9375.2, 9392.2, 9408.1, 9423.2, 9438.2, 9455.2, 9469.2, 9485.2, 9499.2, 9516.2, 9531.3, 9547.2, 9561.2, 9578.2, 9593.1, 9610.2, 9624.1, 9641.2, 9655.1, 9672.1, 9685.1, 9703.1, 9717.2, 9734.1, 9748.1, 9765.2, 9779.1, 9796.6, 9810.1, 9826, 9841, 9857.1, 9871, 9888.1, 9903.1, 9920, 9933, 9951, 9965.8, 9981.9, 9996, 10012.3, 10026.9, 10042.9, 10058.9, 10074.8, 10088.8, 10105, 10119, 10137, 10150.3, 10167.9, 10181.9, 10198.9, 10211.8, 10228.8, 10243.8, 10260.8, 10274.7, 10291.8, 10305.8]","[15.9, 3.3, 16.3, 17.9, 17, 13.6, 16.9, 14, 17.1, 13.9, 17.1, 13.3, 17.7, 14, 16.9, 14.1, 16.8, 14.2, 16.9, 13, 17, 15.1, 16.5, 14.7, 16, 14.5, 17, 13, 18.1, 13.9, 21.8, 8.3, 17.9, 13.9, 16.1, 14, 17, 14.9, 17.1, 16.1, 14.9, 14.9, 15.3, 14.7, 15.9, 13.1, 18.1, 14.9, 16.1, 13.8, 16, 16.1, 15.1, 14.6, 16.1, 16.1, 14.9, 16, 16, 14.1, 17, 14.4, 16, 12.9, 18, 13, 16.9, 15, 17.1, 14.1, 16.9, 14, 16.9, 12.9, 18.1, 14, 15.9, 15.2, 17, 13.8, 16.1, 14.9, 17.1, 13.9, 17, 13, 17, 15, 16.9, 14.1, 16.9, 14, 17.1, 13.9, 17.1, 14, 17, 14, 16.8, 14.1, 16, 15, 15.9, 14.1, 19.7, 11.4, 18, 13, 16.9, 15, 17, 14, 17, 13.9, 17.1, 13.9, 17, 13.9, 16, 15, 16.2, 14.9, 16.1, 14.9, 16.3, 14.7, 15.9, 15.1, 16, 15, 16.7, 14.2, 15.9, 15, 16.1, 15, 16.1, 14.9, 16.9, 13, 18.2, 12.8, 18.1, 13, 18, 14, 16, 14, 17, 15, 16, 14, 17.4, 13.8, 17, 13.8, 16.2, 14.9, 17, 13, 17.9, 14, 16.1, 14.9, 17.1, 14.2, 16.6, 13, 17.1, 14.1, 16.8, 14.3, 15.9, 14, 16.7, 13.3, 18.1, 15.3, 19.4, 16.9, 17, 9.1, 14.3, 14.6, 16, 15, 17, 14, 16, 14.8, 16.2, 15, 16, 14.9, 17.1, 13.9, 17, 14, 16, 15, 17, 13.9, 16.1, 13.9, 18.1, 13.9, 17.1, 14.1, 16.9, 14.1, 16.9, 14.1, 16.8, 14, 16.9, 14.1, 23, 7.8, 15.1, 16, 17, 15.2, 15.9, 13.1, 18, 14.9, 14.9, 14.9, 17.3, 14.1, 16.6, 14.1, 15.9, 15.1, 16.9, 14.2, 16.8, 14, 16.2, 13.8, 17, 15.9, 15.1, 15, 17, 14, 16, 14, 17, 15.1, 15.9, 14, 17, 14.9, 17.1, 13.9, 17.1, 13.9, 17, 13, 18, 14.1, 16.9, 14, 17.1, 13.9, 17.5, 13.5, 15.9, 15, 16.1, 13.9, 17.1, 15, 16.9, 13, 18, 14.8, 16.1, 14.1, 16.3, 14.6, 16, 16, 15.9, 14, 16.2, 14, 18, 13.3, 17.6, 14, 17, 12.9, 17, 15, 17, 13.9, 17.1, 14]",65.0,65.0,59.0,4651.2,[],,,,,,,,,,,,,,,,,,,,,,,,,HRV,HRV_0193,2022-11-30 18:52:00
,wl-html-keyboard-response,2,23113,0.0-2.0-0.0,0.0,3.0,,,,,,,,11371.0,0.0,0,,,,,,,,,,,,,,,,,,,,,,HRV,HRV_0193,2022-11-30 18:52:00
,wl-rdm,3,30435,0.0-3.0-0.0,0.0,4.0,,,,,,,[],,,,0.0,0.0,87.9,0.0,u,0.0,True,1727.300000011921,112.0,59.0,40.0,False,,3000.0,[],"[539, 888]",ColorTask_Demo,,,,,HRV,HRV_0193,2022-11-30 18:52:00
,wl-rdm,4,35868,0.0-3.0-1.0,0.0,5.0,,,,,,,[],,,,0.0,0.0,87.9,1.0,i,1.0,True,1383.9000000059605,90.0,59.0,40.0,False,,2000.0,[],"[539, 888]",ColorTask_Demo,,,,,HRV,HRV_0193,2022-11-30 18:52:00
,wl-html-keyboard-response,5,44016,0.0-3.0-2.0,0.0,6.0,,,,,,,,6140.800000011921,0.0,1,,,,,,,,,,,,,,,,,,,,,,HRV,HRV_0193,2022-11-30 18:52:00
,wl-html-keyboard-response,6,57466,0.0-4.0-0.0,0.0,7.0,,,,,,,,11440.5,0.0,0,,,,,,,,,,,,,,,,,,,,,,HRV,HRV_0193,2022-11-30 18:52:00
,wl-html-keyboard-response,7,83769,0.0-5.0-0.0,0.0,8.0,,,,,,,,24299.59999999404,0.0,0,,,,,,,,,,,,,,,,,,,,,,HRV,HRV_0193,2022-11-30 18:52:00
,wl-rdm,8,86588,0.0-6.0-0.0,0.0,9.0,,,,,,,[],,,,,,73.6,0.0,u,0.0,True,1419.199999988079,85.0,59.0,40.0,False,,330.44442267079677,[],"[539, 888]",ColorTask,1.0,1.0,,,HRV,HRV_0193,2022-11-30 18:52:00
,wl-rdm,9,90661,0.0-6.1-0.1,0.0,10.0,,,,,,,[],,,,,,62.5,0.0,u,0.0,True,2700.9999999701977,163.0,59.0,40.0,False,,266.5443277253622,[],"[539, 888]",ColorTask,2.0,2.0,,,HRV,HRV_0193,2022-11-30 18:52:00
,wl-rdm,10,94737,0.0-6.2-0.2,0.0,11.0,,,,,,,[],,,,,,50.0,1.0,i,1.0,True,2754.0999999940395,122.0,59.0,40.0,False,,212.29355722649683,[],"[539, 888]",ColorTask,3.0,3.0,,,HRV,HRV_0193,2022-11-30 18:52:00
,wl-rdm,11,98405,0.0-6.3-0.3,0.0,12.0,,,,,,,[],,,,,,56.4,0.0,u,0.0,True,2250.2000000178814,132.0,59.0,40.0,False,,328.25065213838866,[],"[539, 888]",ColorTask,4.0,4.0,,,HRV,HRV_0193,2022-11-30 18:52:00
,wl-rdm,12,101555,0.0-6.4-0.4,0.0,13.0,,,,,,,[],,,,,,53.2,0.0,i,1.0,False,1794.0999999642372,112.0,59.0,40.0,False,,298.4406076828321,[],"[539, 888]",ColorTask,3.0,5.0,,,HRV,HRV_0193,2022-11-30 18:52:00
,wl-rdm,13,105126,0.0-6.5-0.5,0.0,14.0,,,,,,,[],,,,,,62.5,1.0,i,1.0,True,2294.5999999940395,135.0,59.0,40.0,False,,211.56414519629976,[],"[539, 888]",ColorTask,4.0,6.0,,,HRV,HRV_0193,2022-11-30 18:52:00
,wl-rdm,14,107742,0.0-6.6-0.6,0.0,15.0,,,,,,,[],,,,,,73.6,1.0,i,1.0,True,1317.9000000059605,77.0,59.0,40.0,False,,202.23391010095366,[],"[539, 888]",ColorTask,5.0,7.0,,,HRV,HRV_0193,2022-11-30 18:52:00
,wl-rdm,15,110893,0.0-6.7-0.7,0.0,16.0,,,,,,,[],,,,,,50.0,1.0,i,1.0,True,1842.6000000238419,110.0,59.0,40.0,False,,242.27404285996636,[],"[539, 888]",ColorTask,6.0,8.0,,,HRV,HRV_0193,2022-11-30 18:52:00
,wl-rdm,16,113499,0.0-6.8-0.8,0.0,17.0,,,,,,,[],,,,,,87.9,1.0,i,1.0,True,1205.5,68.0,59.0,40.0,False,,350.7305204563516,[],"[539, 888]",ColorTask,7.0,9.0,,,HRV,HRV_0193,2022-11-30 18:52:00
,wl-rdm,17,116310,0.0-6.9-0.9,0.0,18.0,,,,,,,[],,,,,,62.5,0.0,i,1.0,False,1507.7999999821186,97.0,59.0,40.0,False,,247.24209908681988,[],"[539, 888]",ColorTask,6.0,10.0,,,HRV,HRV_0193,2022-11-30 18:52:00
,wl-rdm,18,119653,0.0-6.10-0.10,0.0,19.0,,,,,,,[],,,,,,73.6,0.0,u,0.0,True,1934.5999999940395,109.0,59.0,40.0,False,,351.4399151872865,[],"[539, 888]",ColorTask,7.0,11.0,,,HRV,HRV_0193,2022-11-30 18:52:00
,wl-rdm,19,122480,0.0-6.11-0.11,0.0,20.0,,,,,,,[],,,,,,56.4,1.0,u,0.0,False,1543.2999999821186,83.0,59.0,40.0,False,,213.228690291216,[],"[539, 888]",ColorTask,6.0,12.0,,,HRV,HRV_0193,2022-11-30 18:52:00
,wl-rdm,20,125374,0.0-6.12-0.12,0.0,21.0,,,,,,,[],,,,,,73.6,0.0,u,0.0,True,1572.800000011921,82.0,59.0,40.0,False,,246.43008219729478,[],"[539, 888]",ColorTask,7.0,13.0,,,HRV,HRV_0193,2022-11-30 18:52:00
,wl-rdm,21,128237,0.0-6.13-0.13,0.0,22.0,,,,,,,[],,,,,,62.5,0.0,u,0.0,True,1589.7999999821186,91.0,59.0,40.0,False,,216.45210482279518,[],"[539, 888]",ColorTask,8.0,14.0,,,HRV,HRV_0193,2022-11-30 18:52:00
,wl-rdm,22,131812,0.0-6.14-0.14,0.0,23.0,,,,,,,[],,,,,,53.2,0.0,u,0.0,True,2192.7000000178814,108.0,59.0,40.0,False,,308.87905070680534,[],"[539, 888]",ColorTask,9.0,15.0,,,HRV,HRV_0193,2022-11-30 18:52:00
,wl-rdm,23,134463,0.0-6.15-0.15,0.0,24.0,,,,,,,[],,,,,,56.4,0.0,u,0.0,True,1373.5000000298023,74.0,59.0,40.0,False,,205.60444645485387,[],"[539, 888]",ColorTask,10.0,16.0,,,HRV,HRV_0193,2022-11-30 18:52:00
,wl-rdm,24,137283,0.0-6.16-0.16,0.0,25.0,,,,,,,[],,,,,,53.2,1.0,u,0.0,False,1455.7999999821186,83.0,59.0,40.0,False,,315.7827397935584,[],"[539, 888]",ColorTask,9.0,17.0,,,HRV,HRV_0193,2022-11-30 18:52:00
,wl-rdm,25,140418,0.0-6.17-0.17,0.0,26.0,,,,,,,[],,,,,,62.5,1.0,i,1.0,True,1665.6000000238419,79.0,59.0,40.0,False,,376.03928695229604,[],"[539, 888]",ColorTask,10.0,18.0,,,HRV,HRV_0193,2022-11-30 18:52:00
,wl-rdm,26,143521,0.0-6.18-0.18,0.0,27.0,,,,,,,[],,,,,,73.6,0.0,i,1.0,False,1689.3999999761581,106.0,59.0,40.0,False,,340.6703582178583,[],"[539, 888]",ColorTask,9.0,19.0,,,HRV,HRV_0193,2022-11-30 18:52:00
,wl-rdm,27,145162,0.0-6.19-0.19,0.0,28.0,,,,,,,[],,,,,,73.6,1.0,u,0.0,False,321.40000000596046,21.0,59.0,40.0,False,,261.7002592684608,[],"[539, 888]",ColorTask,8.0,20.0,,,HRV,HRV_0193,2022-11-30 18:52:00
,wl-rdm,28,147190,0.0-6.20-0.20,0.0,29.0,,,,,,,[],,,,,,87.9,0.0,i,1.0,False,671.8999999761581,43.0,59.0,40.0,False,,283.4824356003011,[],"[539, 888]",ColorTask,7.0,21.0,,,HRV,HRV_0193,2022-11-30 18:52:00
,wl-rdm,29,150071,0.0-6.21-0.21,0.0,30.0,,,,,,,[],,,,,,50.0,0.0,u,0.0,True,1517.800000011921,98.0,59.0,40.0,False,,307.676085153511,[],"[539, 888]",ColorTask,8.0,22.0,,,HRV,HRV_0193,2022-11-30 18:52:00
,wl-rdm,30,152563,0.0-6.22-0.22,0.0,31.0,,,,,,,[],,,,,,87.9,1.0,i,1.0,True,1229.9000000059605,80.0,59.0,40.0,False,,200.62338908934856,[],"[539, 888]",ColorTask,9.0,23.0,,,HRV,HRV_0193,2022-11-30 18:52:00
,wl-rdm,31,155008,0.0-6.23-0.23,0.0,32.0,,,,,,,[],,,,,,87.9,1.0,i,1.0,True,1146.5999999940395,74.0,59.0,40.0,False,,234.53055084726967,[],"[539, 888]",ColorTask,10.0,24.0,,,HRV,HRV_0193,2022-11-30 18:52:00
,wl-rdm,32,157425,0.0-6.24-0.24,0.0,33.0,,,,,,,[],,,,,,87.9,1.0,i,1.0,True,1116.0999999940395,51.0,59.0,40.0,False,,200.514346211542,[],"[539, 888]",ColorTask,11.0,25.0,,,HRV,HRV_0193,2022-11-30 18:52:00
,wl-rdm,33,160022,0.0-6.25-0.25,0.0,34.0,,,,,,,[],,,,,,53.2,0.0,i,1.0,False,1138.8999999761581,68.0,59.0,40.0,False,,349.60163732344296,[],"[539, 888]",ColorTask,10.0,26.0,,,HRV,HRV_0193,2022-11-30 18:52:00
,wl-rdm,34,162601,0.0-6.26-0.26,0.0,35.0,,,,,,,[],,,,,,62.5,0.0,u,0.0,True,1295.1000000238419,78.0,59.0,40.0,False,,205.63461211569876,[],"[539, 888]",ColorTask,11.0,27.0,,,HRV,HRV_0193,2022-11-30 18:52:00
,wl-rdm,35,165458,0.0-6.27-0.27,0.0,36.0,,,,,,,[],,,,,,50.0,1.0,i,1.0,True,1460.0,95.0,59.0,40.0,False,,309.2680417631474,[],"[539, 888]",ColorTask,12.0,28.0,,,HRV,HRV_0193,2022-11-30 18:52:00
,wl-rdm,36,168057,0.0-6.28-0.28,0.0,37.0,,,,,,,[],,,,,,73.6,1.0,i,1.0,True,1230.699999988079,80.0,59.0,40.0,False,,300.3311118017886,[],"[539, 888]",ColorTask,13.0,29.0,,,HRV,HRV_0193,2022-11-30 18:52:00
,wl-rdm,37,170829,0.0-6.29-0.29,0.0,38.0,,,,,,,[],,,,,,50.0,0.0,i,1.0,False,1406.0999999940395,91.0,59.0,40.0,False,,303.8544324771562,[],"[539, 888]",ColorTask,12.0,30.0,,,HRV,HRV_0193,2022-11-30 18:52:00
,wl-rdm,38,173367,0.0-6.30-0.30,0.0,39.0,,,,,,,[],,,,,,56.4,1.0,u,0.0,False,1203.4000000059605,78.0,59.0,40.0,False,,278.1404559967217,[],"[539, 888]",ColorTask,11.0,31.0,,,HRV,HRV_0193,2022-11-30 18:52:00
,wl-rdm,39,175937,0.0-6.31-0.31,0.0,40.0,,,,,,,[],,,,,,53.2,1.0,u,0.0,False,1292.800000011921,84.0,59.0,40.0,False,,203.12984358530824,[],"[539, 888]",ColorTask,10.0,32.0,,,HRV,HRV_0193,2022-11-30 18:52:00
,wl-rdm,40,178517,0.0-6.32-0.32,0.0,41.0,,,,,,,[],,,,,,73.6,0.0,i,1.0,False,1120.8999999761581,72.0,59.0,40.0,False,,395.6077637617541,[],"[539, 888]",ColorTask,9.0,33.0,,,HRV,HRV_0193,2022-11-30 18:52:00
,wl-rdm,41,180840,0.0-6.33-0.33,0.0,42.0,,,,,,,[],,,,,,53.2,1.0,i,1.0,True,1018.7999999821186,65.0,59.0,40.0,False,,240.0423596037425,[],"[539, 888]",ColorTask,10.0,34.0,,,HRV,HRV_0193,2022-11-30 18:52:00
,wl-rdm,42,183700,0.0-6.34-0.34,0.0,43.0,,,,,,,[],,,,,,56.4,1.0,i,1.0,True,1514.699999988079,95.0,59.0,40.0,False,,279.79815638104947,[],"[539, 888]",ColorTask,11.0,35.0,,,HRV,HRV_0193,2022-11-30 18:52:00
,wl-rdm,43,186602,0.0-6.35-0.35,0.0,44.0,,,,,,,[],,,,,,50.0,0.0,i,1.0,False,1552.0999999940395,97.0,59.0,40.0,False,,279.5135500555093,[],"[539, 888]",ColorTask,10.0,36.0,,,HRV,HRV_0193,2022-11-30 18:52:00
,wl-rdm,44,189204,0.0-6.36-0.36,0.0,45.0,,,,,,,[],,,,,,73.6,0.0,i,1.0,False,1321.699999988079,83.0,59.0,40.0,False,,225.3736008237544,[],"[539, 888]",ColorTask,9.0,37.0,,,HRV,HRV_0193,2022-11-30 18:52:00
,wl-rdm,45,193204,0.0-6.37-0.37,0.0,46.0,,,,,,,[],,,,,,87.9,1.0,i,1.0,True,2566.199999988079,128.0,59.0,40.0,False,,339.4834655432809,[],"[539, 888]",ColorTask,10.0,38.0,,,HRV,HRV_0193,2022-11-30 18:52:00
,wl-rdm,46,195897,0.0-6.38-0.38,0.0,47.0,,,,,,,[],,,,,,87.9,0.0,u,0.0,True,1307.2999999821186,60.0,59.0,40.0,False,,307.83092313769316,[],"[539, 888]",ColorTask,11.0,39.0,,,HRV,HRV_0193,2022-11-30 18:52:00
,wl-rdm,47,198553,0.0-6.39-0.39,0.0,48.0,,,,,,,[],,,,,,87.9,0.0,u,0.0,True,1230.5999999940395,71.0,59.0,40.0,False,,340.19100070182014,[],"[539, 888]",ColorTask,12.0,40.0,,,HRV,HRV_0193,2022-11-30 18:52:00
,wl-rdm,48,201238,0.0-6.40-0.40,0.0,49.0,,,,,,,[],,,,,,87.9,1.0,i,1.0,True,1328.0000000298023,61.0,59.0,40.0,False,,263.228090573058,[],"[539, 888]",ColorTask,13.0,41.0,,,HRV,HRV_0193,2022-11-30 18:52:00
,wl-rdm,49,204303,0.0-6.41-0.41,0.0,50.0,,,,,,,[],,,,,,87.9,1.0,i,1.0,True,1809.5,98.0,59.0,40.0,False,,200.73226144799958,[],"[539, 888]",ColorTask,14.0,42.0,,,HRV,HRV_0193,2022-11-30 18:52:00
,wl-rdm,50,207640,0.0-6.42-0.42,0.0,51.0,,,,,,,[],,,,,,56.4,0.0,i,1.0,False,1961.699999988079,100.0,59.0,40.0,False,,289.0745755822318,[],"[539, 888]",ColorTask,13.0,43.0,,,HRV,HRV_0193,2022-11-30 18:52:00
,wl-rdm,51,210453,0.0-6.43-0.43,0.0,52.0,,,,,,,[],,,,,,62.5,0.0,u,0.0,True,1337.2999999821186,79.0,59.0,40.0,False,,390.6719288775711,[],"[539, 888]",ColorTask,14.0,44.0,,,HRV,HRV_0193,2022-11-30 18:52:00
,wl-rdm,52,213699,0.0-6.44-0.44,0.0,53.0,,,,,,,[],,,,,,56.4,0.0,i,1.0,False,1865.0,120.0,59.0,40.0,False,,320.69058057319216,[],"[539, 888]",ColorTask,13.0,45.0,,,HRV,HRV_0193,2022-11-30 18:52:00
,wl-rdm,53,217078,0.0-6.45-0.45,0.0,54.0,,,,,,,[],,,,,,73.6,1.0,u,0.0,False,2097.699999988079,136.0,59.0,40.0,False,,214.86031639029463,[],"[539, 888]",ColorTask,12.0,46.0,,,HRV,HRV_0193,2022-11-30 18:52:00
,wl-rdm,54,219369,0.0-6.46-0.46,0.0,55.0,,,,,,,[],,,,,,56.4,1.0,i,1.0,True,921.7999999821186,60.0,59.0,40.0,False,,296.12914711694407,[],"[539, 888]",ColorTask,13.0,47.0,,,HRV,HRV_0193,2022-11-30 18:52:00
,wl-rdm,55,221888,0.0-6.47-0.47,0.0,56.0,,,,,,,[],,,,,,53.2,0.0,i,1.0,False,1073.300000011921,70.0,59.0,40.0,False,,374.49812258596626,[],"[539, 888]",ColorTask,12.0,48.0,,,HRV,HRV_0193,2022-11-30 18:52:00
,wl-rdm,56,224945,0.0-6.48-0.48,0.0,57.0,,,,,,,[],,,,,,62.5,1.0,i,1.0,True,1682.0000000298023,107.0,59.0,40.0,False,,313.62687419640145,[],"[539, 888]",ColorTask,13.0,49.0,,,HRV,HRV_0193,2022-11-30 18:52:00
,wl-rdm,57,227591,0.0-6.49-0.49,0.0,58.0,,,,,,,[],,,,,,56.4,1.0,i,1.0,True,1184.699999988079,77.0,59.0,40.0,False,,392.67232399346767,[],"[539, 888]",ColorTask,14.0,50.0,,,HRV,HRV_0193,2022-11-30 18:52:00
,wl-rdm,58,229792,0.0-6.50-0.50,0.0,59.0,,,,,,,[],,,,,,62.5,1.0,i,1.0,True,836.1000000238419,49.0,59.0,40.0,False,,287.31957340784015,[],"[539, 888]",ColorTask,15.0,51.0,,,HRV,HRV_0193,2022-11-30 18:52:00
,wl-rdm,59,232027,0.0-6.51-0.51,0.0,60.0,,,,,,,[],,,,,,50.0,1.0,i,1.0,True,953.5,61.0,59.0,40.0,False,,205.70477682689662,[],"[539, 888]",ColorTask,16.0,52.0,,,HRV,HRV_0193,2022-11-30 18:52:00
,wl-rdm,60,234337,0.0-6.52-0.52,0.0,61.0,,,,,,,[],,,,,,53.2,0.0,u,0.0,True,985.2999999821186,64.0,59.0,40.0,False,,252.7064132562455,[],"[539, 888]",ColorTask,17.0,53.0,,,HRV,HRV_0193,2022-11-30 18:52:00
,wl-rdm,61,235407,0.0-6.53-0.53,0.0,61.0,,,,,,,[],,,,,,56.4,1.0,i,,,318.09999999403954,0.0,59.0,40.0,True,too_early ,357.3807622129435,[],"[539, 888]",ColorTask,16.0,54.0,,,HRV,HRV_0193,2022-11-30 18:52:00
,wl-rdm,62,237638,0.0-6.54-0.54,0.0,62.0,,,,,,,[],,,,,,87.9,0.0,i,1.0,False,883.2999999821186,57.0,59.0,40.0,False,,309.7120714987263,[],"[539, 888]",ColorTask,15.0,55.0,,,HRV,HRV_0193,2022-11-30 18:52:00
,wl-rdm,63,239754,0.0-6.55-0.55,0.0,63.0,,,,,,,[],,,,,,62.5,0.0,u,0.0,True,688.5,41.0,59.0,40.0,False,,328.0214040015629,[],"[539, 888]",ColorTask,16.0,56.0,,,HRV,HRV_0193,2022-11-30 18:52:00
,wl-rdm,64,241902,0.0-6.56-0.56,0.0,64.0,,,,,,,[],,,,,,73.6,0.0,u,0.0,True,830.9000000059605,54.0,59.0,40.0,False,,262.7649856310809,[],"[539, 888]",ColorTask,17.0,57.0,,,HRV,HRV_0193,2022-11-30 18:52:00
,wl-rdm,65,244056,0.0-6.57-0.57,0.0,65.0,,,,,,,[],,,,,,62.5,0.0,u,0.0,True,776.6999999880791,51.0,59.0,40.0,False,,319.0155391610026,[],"[539, 888]",ColorTask,18.0,58.0,,,HRV,HRV_0193,2022-11-30 18:52:00
,wl-rdm,66,246078,0.0-6.58-0.58,0.0,66.0,,,,,,,[],,,,,,50.0,0.0,i,1.0,False,735.1000000238419,41.0,59.0,40.0,False,,217.83422157622132,[],"[539, 888]",ColorTask,17.0,59.0,,,HRV,HRV_0193,2022-11-30 18:52:00
,wl-rdm,67,248394,0.0-6.59-0.59,0.0,67.0,,,,,,,[],,,,,,62.5,0.0,u,0.0,True,1021.1999999880791,64.0,59.0,40.0,False,,227.0080529479187,[],"[539, 888]",ColorTask,18.0,60.0,,,HRV,HRV_0193,2022-11-30 18:52:00
,wl-rdm,68,251356,0.0-6.60-0.60,0.0,68.0,,,,,,,[],,,,,,50.0,1.0,u,0.0,False,1559.199999988079,99.0,59.0,40.0,False,,336.01112059508625,[],"[539, 888]",ColorTask,17.0,61.0,,,HRV,HRV_0193,2022-11-30 18:52:00
,wl-rdm,69,253814,0.0-6.61-0.61,0.0,69.0,,,,,,,[],,,,,,62.5,1.0,i,1.0,True,1010.2999999821186,59.0,59.0,40.0,False,,367.14267375134716,[],"[539, 888]",ColorTask,18.0,62.0,,,HRV,HRV_0193,2022-11-30 18:52:00
,wl-rdm,70,256304,0.0-6.62-0.62,0.0,70.0,,,,,,,[],,,,,,56.4,0.0,i,1.0,False,1136.3999999761581,60.0,59.0,40.0,False,,292.8368596683607,[],"[539, 888]",ColorTask,17.0,63.0,,,HRV,HRV_0193,2022-11-30 18:52:00
,wl-rdm,71,258654,0.0-6.63-0.63,0.0,71.0,,,,,,,[],,,,,,53.2,0.0,i,1.0,False,938.4000000357628,55.0,59.0,40.0,False,,329.1494937920054,[],"[539, 888]",ColorTask,16.0,64.0,,,HRV,HRV_0193,2022-11-30 18:52:00
,wl-rdm,72,260789,0.0-6.64-0.64,0.0,72.0,,,,,,,[],,,,,,56.4,0.0,u,0.0,True,823.9000000059605,50.0,59.0,40.0,False,,220.50623670212272,[],"[539, 888]",ColorTask,17.0,65.0,,,HRV,HRV_0193,2022-11-30 18:52:00
,wl-rdm,73,264808,0.0-6.65-0.65,0.0,73.0,,,,,,,[],,,,,,73.6,0.0,u,0.0,True,2653.2999999821186,123.0,59.0,40.0,False,,274.0704800922264,[],"[539, 888]",ColorTask,18.0,66.0,,,HRV,HRV_0193,2022-11-30 18:52:00
,wl-rdm,74,267584,0.0-6.66-0.66,0.0,74.0,,,,,,,[],,,,,,53.2,1.0,u,0.0,False,1402.2000000178814,84.0,59.0,40.0,False,,304.08408928358295,[],"[539, 888]",ColorTask,17.0,67.0,,,HRV,HRV_0193,2022-11-30 18:52:00
,wl-rdm,75,270893,0.0-6.67-0.67,0.0,75.0,,,,,,,[],,,,,,73.6,0.0,u,0.0,True,1945.4000000059605,110.0,59.0,40.0,False,,314.41595203265695,[],"[539, 888]",ColorTask,18.0,68.0,,,HRV,HRV_0193,2022-11-30 18:52:00
,wl-rdm,76,275233,0.0-6.68-0.68,0.0,75.0,,,,,,,[],,,,,,53.2,1.0,u,,,3128.0,139.0,59.0,40.0,True,RT_timeout ,235.765138378751,[],"[539, 888]",ColorTask,17.0,69.0,,,HRV,HRV_0193,2022-11-30 18:52:00
,wl-rdm,77,277534,0.0-6.69-0.69,0.0,76.0,,,,,,,[],,,,,,87.9,0.0,u,0.0,True,879.1000000238419,50.0,59.0,40.0,False,,336.5569800914083,[],"[539, 888]",ColorTask,18.0,70.0,,,HRV,HRV_0193,2022-11-30 18:52:00
,wl-rdm,78,280268,0.0-6.70-0.70,0.0,77.0,,,,,,,[],,,,,,56.4,1.0,i,1.0,True,1374.0,78.0,59.0,40.0,False,,269.4355599025896,[],"[539, 888]",ColorTask,19.0,71.0,,,HRV,HRV_0193,2022-11-30 18:52:00
,wl-rdm,79,282937,0.0-6.71-0.71,0.0,78.0,,,,,,,[],,,,,,73.6,1.0,i,1.0,True,1226.8999999761581,52.0,59.0,40.0,False,,313.1249984573371,[],"[539, 888]",ColorTask,20.0,72.0,,,HRV,HRV_0193,2022-11-30 18:52:00
,wl-rdm,80,286966,0.0-6.72-0.72,0.0,79.0,,,,,,,[],,,,,,87.9,0.0,i,1.0,False,2494.0,80.0,59.0,40.0,False,,399.60803030959,[],"[539, 888]",ColorTask,19.0,73.0,,,HRV,HRV_0193,2022-11-30 18:52:00
,wl-rdm,81,291339,0.0-6.73-0.73,0.0,79.0,,,,,,,[],,,,,,53.2,1.0,,,,,161.0,59.0,40.0,True,RT_timeout ,274.29187502491834,[],"[539, 888]",ColorTask,18.0,74.0,,,HRV,HRV_0193,2022-11-30 18:52:00
,wl-rdm,82,294859,0.0-6.74-0.74,0.0,80.0,,,,,,,[],,,,,,87.9,0.0,i,1.0,False,2064.0999999940395,72.0,59.0,40.0,False,,385.76619985845025,[],"[539, 888]",ColorTask,17.0,75.0,,,HRV,HRV_0193,2022-11-30 18:52:00
,wl-rdm,83,299369,0.0-6.75-0.75,0.0,80.0,,,,,,,[],,,,,,56.4,1.0,,,,,169.0,59.0,40.0,True,RT_timeout ,380.958283301194,[],"[539, 888]",ColorTask,16.0,76.0,,,HRV,HRV_0193,2022-11-30 18:52:00
,wl-rdm,84,300800,0.0-6.76-0.76,0.0,80.0,,,,,,,[],,,,,,53.2,1.0,i,,,877.7999999821186,0.0,59.0,40.0,True,too_early ,346.1964675501601,[],"[539, 888]",ColorTask,15.0,77.0,,,HRV,HRV_0193,2022-11-30 18:52:00
,wl-rdm,85,302905,0.0-6.77-0.77,0.0,81.0,,,,,,,[],,,,,,53.2,0.0,u,0.0,True,744.6999999880791,38.0,59.0,40.0,False,,261.19046390099453,[],"[539, 888]",ColorTask,16.0,78.0,,,HRV,HRV_0193,2022-11-30 18:52:00
,wl-rdm,86,306200,0.0-6.78-0.78,0.0,82.0,,,,,,,[],,,,,,73.6,1.0,i,1.0,True,1741.2000000178814,53.0,59.0,40.0,False,,391.30045457119627,[],"[539, 888]",ColorTask,17.0,79.0,,,HRV,HRV_0193,2022-11-30 18:52:00
,wl-rdm,87,308708,0.0-6.79-0.79,0.0,83.0,,,,,,,[],,,,,,73.6,1.0,u,0.0,False,1165.699999988079,47.0,59.0,40.0,False,,228.76886024125912,[],"[539, 888]",ColorTask,16.0,80.0,,,HRV,HRV_0193,2022-11-30 18:52:00
,wl-rdm,88,311139,0.0-6.80-0.80,0.0,84.0,,,,,,,[],,,,,,73.6,1.0,i,1.0,True,963.1000000238419,44.0,59.0,40.0,False,,389.2446283460646,[],"[539, 888]",ColorTask,17.0,81.0,,,HRV,HRV_0193,2022-11-30 18:52:00
,wl-rdm,89,313769,0.0-6.81-0.81,0.0,85.0,,,,,,,[],,,,,,50.0,0.0,u,0.0,True,1200.7999999821186,62.0,59.0,40.0,False,,337.2306684758562,[],"[539, 888]",ColorTask,18.0,82.0,,,HRV,HRV_0193,2022-11-30 18:52:00
,wl-rdm,90,316833,0.0-6.82-0.82,0.0,86.0,,,,,,,[],,,,,,87.9,0.0,u,0.0,True,1584.5999999940395,46.0,59.0,40.0,False,,353.6718695155174,[],"[539, 888]",ColorTask,19.0,83.0,,,HRV,HRV_0193,2022-11-30 18:52:00
,wl-rdm,91,319649,0.0-6.83-0.83,0.0,87.0,,,,,,,[],,,,,,62.5,1.0,i,1.0,True,1497.9000000357628,59.0,59.0,40.0,False,,221.25432050290783,[],"[539, 888]",ColorTask,20.0,84.0,,,HRV,HRV_0193,2022-11-30 18:52:00
,wl-rdm,92,322279,0.0-6.84-0.84,0.0,88.0,,,,,,,[],,,,,,56.4,1.0,i,1.0,True,1335.9000000059605,48.0,59.0,40.0,False,,233.57115024820496,[],"[539, 888]",ColorTask,21.0,85.0,,,HRV,HRV_0193,2022-11-30 18:52:00
,wl-rdm,93,325937,0.0-6.85-0.85,0.0,89.0,,,,,,,[],,,,,,53.2,1.0,i,1.0,True,2339.0,129.0,59.0,40.0,False,,237.3868736262424,[],"[539, 888]",ColorTask,22.0,86.0,,,HRV,HRV_0193,2022-11-30 18:52:00
,wl-rdm,94,330298,0.0-6.86-0.86,0.0,89.0,,,,,,,[],,,,,,53.2,1.0,,,,,163.0,59.0,40.0,True,RT_timeout ,272.8509107512322,[],"[539, 888]",ColorTask,21.0,87.0,,,HRV,HRV_0193,2022-11-30 18:52:00
,wl-rdm,95,334224,0.0-6.87-0.87,0.0,90.0,,,,,,,[],,,,,,62.5,1.0,u,0.0,False,2587.699999988079,152.0,59.0,40.0,False,,225.15083597799708,[],"[539, 888]",ColorTask,20.0,88.0,,,HRV,HRV_0193,2022-11-30 18:52:00
,wl-rdm,96,338206,0.0-6.88-0.88,0.0,91.0,,,,,,,[],,,,,,50.0,0.0,i,1.0,False,2634.7999999821186,143.0,59.0,40.0,False,,254.34444487964677,[],"[539, 888]",ColorTask,19.0,89.0,,,HRV,HRV_0193,2022-11-30 18:52:00
,wl-rdm,97,340413,0.0-6.89-0.89,0.0,92.0,,,,,,,[],,,,,,50.0,1.0,i,1.0,True,799.5000000298023,42.0,59.0,40.0,False,,320.5228296364883,[],"[539, 888]",ColorTask,20.0,90.0,,,HRV,HRV_0193,2022-11-30 18:52:00
,wl-rdm,98,342598,0.0-6.90-0.90,0.0,93.0,,,,,,,[],,,,,,53.2,1.0,i,1.0,True,882.3000000119209,53.0,59.0,40.0,False,,251.4153973282504,[],"[539, 888]",ColorTask,21.0,91.0,,,HRV,HRV_0193,2022-11-30 18:52:00
,wl-rdm,99,344995,0.0-6.91-0.91,0.0,94.0,,,,,,,[],,,,,,56.4,0.0,i,1.0,False,1039.4000000357628,57.0,59.0,40.0,False,,289.12070433684136,[],"[539, 888]",ColorTask,20.0,92.0,,,HRV,HRV_0193,2022-11-30 18:52:00
,wl-rdm,100,347981,0.0-6.92-0.92,0.0,95.0,,,,,,,[],,,,,,50.0,1.0,u,0.0,False,1583.0999999940395,80.0,59.0,40.0,False,,324.7190425463585,[],"[539, 888]",ColorTask,19.0,93.0,,,HRV,HRV_0193,2022-11-30 18:52:00
,wl-rdm,101,350158,0.0-6.93-0.93,0.0,96.0,,,,,,,[],,,,,,62.5,1.0,i,1.0,True,811.2999999821186,44.0,59.0,40.0,False,,286.338433451779,[],"[539, 888]",ColorTask,20.0,94.0,,,HRV,HRV_0193,2022-11-30 18:52:00
,wl-rdm,102,352939,0.0-6.94-0.94,0.0,97.0,,,,,,,[],,,,,,53.2,0.0,u,0.0,True,1312.0000000298023,54.0,59.0,40.0,False,,357.2683487342697,[],"[539, 888]",ColorTask,21.0,95.0,,,HRV,HRV_0193,2022-11-30 18:52:00
,wl-rdm,103,355560,0.0-6.95-0.95,0.0,98.0,,,,,,,[],,,,,,62.5,1.0,u,0.0,False,1197.699999988079,53.0,59.0,40.0,False,,368.09771926386964,[],"[539, 888]",ColorTask,20.0,96.0,,,HRV,HRV_0193,2022-11-30 18:52:00
,wl-rdm,104,357791,0.0-6.96-0.96,0.0,99.0,,,,,,,[],,,,,,62.5,0.0,i,1.0,False,804.0,38.0,59.0,40.0,False,,336.65691431451984,[],"[539, 888]",ColorTask,19.0,97.0,,,HRV,HRV_0193,2022-11-30 18:52:00
,wl-rdm,105,360163,0.0-6.97-0.97,0.0,100.0,,,,,,,[],,,,,,87.9,1.0,u,0.0,False,776.5999999940395,34.0,59.0,40.0,False,,371.109322330115,[],"[539, 888]",ColorTask,18.0,98.0,,,HRV,HRV_0193,2022-11-30 18:52:00
,wl-rdm,106,362758,0.0-6.98-0.98,0.0,101.0,,,,,,,[],,,,,,50.0,0.0,i,1.0,False,1268.3999999761581,44.0,59.0,40.0,False,,259.763247352796,[],"[539, 888]",ColorTask,17.0,99.0,,,HRV,HRV_0193,2022-11-30 18:52:00
,wl-rdm,107,365564,0.0-6.99-0.99,0.0,102.0,,,,,,,[],,,,,,56.4,0.0,u,0.0,True,1371.8999999761581,61.0,59.0,40.0,False,,322.6474412319624,[],"[539, 888]",ColorTask,18.0,100.0,,,HRV,HRV_0193,2022-11-30 18:52:00
,wl-rdm,108,368572,0.0-6.100-0.100,0.0,103.0,,,,,,,[],,,,,,56.4,0.0,u,0.0,True,1481.300000011921,56.0,59.0,40.0,False,,330.64426405906164,[],"[539, 888]",ColorTask,19.0,101.0,,,HRV,HRV_0193,2022-11-30 18:52:00
,wl-rdm,109,371522,0.0-6.101-0.101,0.0,104.0,,,,,,,[],,,,,,50.0,1.0,u,0.0,False,1537.0999999940395,74.0,59.0,40.0,False,,278.71199214632,[],"[539, 888]",ColorTask,18.0,102.0,,,HRV,HRV_0193,2022-11-30 18:52:00
,wl-rdm,110,374722,0.0-6.102-0.102,0.0,105.0,,,,,,,[],,,,,,53.2,1.0,i,1.0,True,1781.3999999761581,82.0,59.0,40.0,False,,361.2704377033582,[],"[539, 888]",ColorTask,19.0,103.0,,,HRV,HRV_0193,2022-11-30 18:52:00
,wl-rdm,111,377962,0.0-6.103-0.103,0.0,106.0,,,,,,,[],,,,,,56.4,1.0,i,1.0,True,1810.9000000059605,85.0,59.0,40.0,False,,310.78955512209836,[],"[539, 888]",ColorTask,20.0,104.0,,,HRV,HRV_0193,2022-11-30 18:52:00
,wl-rdm,112,382600,0.0-6.104-0.104,0.0,106.0,,,,,,,[],,,,,,56.4,1.0,i,,,3418.7999999821186,114.0,59.0,40.0,True,RT_timeout ,335.6755664319094,[],"[539, 888]",ColorTask,19.0,105.0,,,HRV,HRV_0193,2022-11-30 18:52:00
,wl-rdm,113,385015,0.0-6.105-0.105,0.0,107.0,,,,,,,[],,,,,,53.2,0.0,i,1.0,False,946.4000000357628,39.0,59.0,40.0,False,,376.28003031375704,[],"[539, 888]",ColorTask,18.0,106.0,,,HRV,HRV_0193,2022-11-30 18:52:00
,wl-rdm,114,387268,0.0-6.106-0.106,0.0,108.0,,,,,,,[],,,,,,56.4,1.0,u,0.0,False,825.0000000298023,41.0,59.0,40.0,False,,344.6084771645137,[],"[539, 888]",ColorTask,17.0,107.0,,,HRV,HRV_0193,2022-11-30 18:52:00
,wl-rdm,115,391329,0.0-6.107-0.107,0.0,109.0,,,,,,,[],,,,,,53.2,1.0,i,1.0,True,2750.5,127.0,59.0,40.0,False,,240.88725178273702,[],"[539, 888]",ColorTask,18.0,108.0,,,HRV,HRV_0193,2022-11-30 18:52:00
,wl-rdm,116,393779,0.0-6.108-0.108,0.0,110.0,,,,,,,[],,,,,,87.9,0.0,u,0.0,True,1134.199999988079,54.0,59.0,40.0,False,,223.24379374030008,[],"[539, 888]",ColorTask,19.0,109.0,,,HRV,HRV_0193,2022-11-30 18:52:00
,wl-rdm,117,396707,0.0-6.109-0.109,0.0,111.0,,,,,,,[],,,,,,50.0,1.0,i,1.0,True,1426.300000011921,64.0,59.0,40.0,False,,397.78101004644043,[],"[539, 888]",ColorTask,20.0,110.0,,,HRV,HRV_0193,2022-11-30 18:52:00
,wl-rdm,118,401125,0.0-6.110-0.110,0.0,111.0,,,,,,,[],,,,,,73.6,1.0,,,,,125.0,59.0,40.0,True,RT_timeout ,224.91955595503146,[],"[539, 888]",ColorTask,19.0,111.0,,,HRV,HRV_0193,2022-11-30 18:52:00
,wl-rdm,119,403679,0.0-6.111-0.111,0.0,112.0,,,,,,,[],,,,,,50.0,0.0,i,1.0,False,1226.0,74.0,59.0,40.0,False,,267.26008401204547,[],"[539, 888]",ColorTask,18.0,112.0,,,HRV,HRV_0193,2022-11-30 18:52:00
,wl-rdm,120,405762,0.0-6.112-0.112,0.0,113.0,,,,,,,[],,,,,,73.6,1.0,u,0.0,False,729.4000000059605,44.0,59.0,40.0,False,,297.9515665792775,[],"[539, 888]",ColorTask,17.0,113.0,,,HRV,HRV_0193,2022-11-30 18:52:00
,wl-rdm,121,407991,0.0-6.113-0.113,0.0,114.0,,,,,,,[],,,,,,53.2,1.0,i,1.0,True,846.5,55.0,59.0,40.0,False,,323.1257494709228,[],"[539, 888]",ColorTask,18.0,114.0,,,HRV,HRV_0193,2022-11-30 18:52:00
,wl-rdm,122,410622,0.0-6.114-0.114,0.0,115.0,,,,,,,[],,,,,,50.0,0.0,i,1.0,False,1305.1000000238419,74.0,59.0,40.0,False,,249.78480050078906,[],"[539, 888]",ColorTask,17.0,115.0,,,HRV,HRV_0193,2022-11-30 18:52:00
,wl-rdm,123,412929,0.0-6.115-0.115,0.0,116.0,,,,,,,[],,,,,,87.9,1.0,i,1.0,True,1018.5,66.0,59.0,40.0,False,,212.749017092009,[],"[539, 888]",ColorTask,18.0,116.0,,,HRV,HRV_0193,2022-11-30 18:52:00
,wl-html-keyboard-response,124,492870,0.0-7.0-0.0,1.0,117.0,,,,,,,,77925.39999997616,1.0,0,,,,,,,,,,,,,,,,,,,,,,HRV,HRV_0193,2022-11-30 18:52:00
,wl-rdm,125,495459,0.0-8.0-0.0,1.0,118.0,,,,,,,[],,,,,,50.0,1.0,i,1.0,True,1300.2999999821186,77.0,59.0,40.0,False,,217.43730386806232,[],"[539, 888]",ColorTask,19.0,1.0,,,HRV,HRV_0193,2022-11-30 18:52:00
,wl-rdm,126,498186,0.0-8.1-0.1,1.0,119.0,,,,,,,[],,,,,,62.5,1.0,i,1.0,True,1335.199999988079,78.0,59.0,40.0,False,,304.12575482967515,[],"[539, 888]",ColorTask,20.0,2.0,,,HRV,HRV_0193,2022-11-30 18:52:00
,wl-rdm,127,501359,0.0-8.2-0.2,1.0,120.0,,,,,,,[],,,,,,53.2,1.0,i,1.0,True,1724.2999999821186,76.0,59.0,40.0,False,,383.626792861171,[],"[539, 888]",ColorTask,21.0,3.0,,,HRV,HRV_0193,2022-11-30 18:52:00
,wl-rdm,128,503895,0.0-8.3-0.3,1.0,121.0,,,,,,,[],,,,,,73.6,0.0,u,0.0,True,1098.9000000059605,47.0,59.0,40.0,False,,364.5926296203362,[],"[539, 888]",ColorTask,22.0,4.0,,,HRV,HRV_0193,2022-11-30 18:52:00
,wl-rdm,129,506757,0.0-8.4-0.4,1.0,122.0,,,,,,,[],,,,,,50.0,0.0,u,0.0,True,1498.7000000178814,82.0,59.0,40.0,False,,256.2433424348772,[],"[539, 888]",ColorTask,23.0,5.0,,,HRV,HRV_0193,2022-11-30 18:52:00
,wl-rdm,130,509445,0.0-8.5-0.5,1.0,123.0,,,,,,,[],,,,,,50.0,0.0,u,0.0,True,1373.2999999821186,77.0,59.0,40.0,False,,238.47206287783888,[],"[539, 888]",ColorTask,24.0,6.0,,,HRV,HRV_0193,2022-11-30 18:52:00
,wl-rdm,131,512321,0.0-8.6-0.6,1.0,124.0,,,,,,,[],,,,,,62.5,1.0,i,1.0,True,1525.0,93.0,59.0,40.0,False,,308.9648086624904,[],"[539, 888]",ColorTask,25.0,7.0,,,HRV,HRV_0193,2022-11-30 18:52:00
,wl-rdm,132,515456,0.0-8.7-0.7,1.0,125.0,,,,,,,[],,,,,,53.2,0.0,i,1.0,False,1716.3000000417233,101.0,59.0,40.0,False,,330.8633287718092,[],"[539, 888]",ColorTask,24.0,8.0,,,HRV,HRV_0193,2022-11-30 18:52:00
,wl-rdm,133,517965,0.0-8.8-0.8,1.0,126.0,,,,,,,[],,,,,,87.9,0.0,u,0.0,True,1112.0,63.0,59.0,40.0,False,,285.90811652616304,[],"[539, 888]",ColorTask,25.0,9.0,,,HRV,HRV_0193,2022-11-30 18:52:00
,wl-rdm,134,521217,0.0-8.9-0.9,1.0,127.0,,,,,,,[],,,,,,50.0,0.0,u,0.0,True,1967.9999999701977,110.0,59.0,40.0,False,,230.4420009928465,[],"[539, 888]",ColorTask,26.0,10.0,,,HRV,HRV_0193,2022-11-30 18:52:00
,wl-rdm,135,524188,0.0-8.10-0.10,1.0,128.0,,,,,,,[],,,,,,62.5,0.0,u,0.0,True,1592.9000000357628,91.0,59.0,40.0,False,,300.02844539660697,[],"[539, 888]",ColorTask,27.0,11.0,,,HRV,HRV_0193,2022-11-30 18:52:00
,wl-rdm,136,527017,0.0-8.11-0.11,1.0,129.0,,,,,,,[],,,,,,53.2,0.0,u,0.0,True,1503.0999999940395,71.0,59.0,40.0,False,,269.8658135642141,[],"[539, 888]",ColorTask,28.0,12.0,,,HRV,HRV_0193,2022-11-30 18:52:00
,wl-rdm,137,530051,0.0-8.12-0.12,1.0,130.0,,,,,,,[],,,,,,53.2,0.0,u,0.0,True,1616.0,96.0,59.0,40.0,False,,336.216178626239,[],"[539, 888]",ColorTask,29.0,13.0,,,HRV,HRV_0193,2022-11-30 18:52:00
,wl-rdm,138,533601,0.0-8.13-0.13,1.0,131.0,,,,,,,[],,,,,,50.0,1.0,i,1.0,True,2260.199999988079,124.0,59.0,40.0,False,,243.99992975316016,[],"[539, 888]",ColorTask,30.0,14.0,,,HRV,HRV_0193,2022-11-30 18:52:00
,wl-rdm,139,536496,0.0-8.14-0.14,1.0,132.0,,,,,,,[],,,,,,62.5,0.0,u,0.0,True,1534.2000000178814,73.0,59.0,40.0,False,,271.0256187190292,[],"[539, 888]",ColorTask,31.0,15.0,,,HRV,HRV_0193,2022-11-30 18:52:00
,wl-rdm,140,539698,0.0-8.15-0.15,1.0,133.0,,,,,,,[],,,,,,50.0,0.0,u,0.0,True,1762.800000011921,104.0,59.0,40.0,False,,334.37459114588256,[],"[539, 888]",ColorTask,32.0,16.0,,,HRV,HRV_0193,2022-11-30 18:52:00
,wl-rdm,141,542290,0.0-8.16-0.16,1.0,134.0,,,,,,,[],,,,,,87.9,1.0,i,1.0,True,1199.4000000059605,73.0,59.0,40.0,False,,337.6816980161125,[],"[539, 888]",ColorTask,33.0,17.0,,,HRV,HRV_0193,2022-11-30 18:52:00
,wl-rdm,142,545799,0.0-8.17-0.17,1.0,135.0,,,,,,,[],,,,,,62.5,1.0,i,1.0,True,2231.300000011921,123.0,59.0,40.0,False,,234.80294302567128,[],"[539, 888]",ColorTask,34.0,18.0,,,HRV,HRV_0193,2022-11-30 18:52:00
,wl-rdm,143,548395,0.0-8.18-0.18,1.0,136.0,,,,,,,[],,,,,,87.9,0.0,u,0.0,True,1202.5,77.0,59.0,40.0,False,,304.36368164444525,[],"[539, 888]",ColorTask,35.0,19.0,,,HRV,HRV_0193,2022-11-30 18:52:00
,wl-rdm,144,551020,0.0-8.19-0.19,1.0,137.0,,,,,,,[],,,,,,62.5,1.0,i,1.0,True,1326.3999999761581,69.0,59.0,40.0,False,,201.14545471910583,[],"[539, 888]",ColorTask,36.0,20.0,,,HRV,HRV_0193,2022-11-30 18:52:00
,wl-rdm,145,554853,0.0-8.20-0.20,1.0,138.0,,,,,,,[],,,,,,53.2,1.0,i,1.0,True,2387.5999999940395,123.0,59.0,40.0,False,,371.1157602160421,[],"[539, 888]",ColorTask,37.0,21.0,,,HRV,HRV_0193,2022-11-30 18:52:00
,wl-rdm,146,557756,0.0-8.21-0.21,1.0,139.0,,,,,,,[],,,,,,50.0,1.0,u,0.0,False,1537.699999988079,50.0,59.0,40.0,False,,264.3720633782581,[],"[539, 888]",ColorTask,36.0,22.0,,,HRV,HRV_0193,2022-11-30 18:52:00
,wl-rdm,147,560482,0.0-8.22-0.22,1.0,140.0,,,,,,,[],,,,,,87.9,0.0,u,0.0,True,1345.0999999940395,61.0,59.0,40.0,False,,287.87459247985583,[],"[539, 888]",ColorTask,37.0,23.0,,,HRV,HRV_0193,2022-11-30 18:52:00
,wl-rdm,148,563223,0.0-8.23-0.23,1.0,141.0,,,,,,,[],,,,,,56.4,0.0,i,1.0,False,1323.2999999821186,71.0,59.0,40.0,False,,349.1765016322038,[],"[539, 888]",ColorTask,36.0,24.0,,,HRV,HRV_0193,2022-11-30 18:52:00
,wl-rdm,149,565980,0.0-8.24-0.24,1.0,142.0,,,,,,,[],,,,,,87.9,0.0,u,0.0,True,1332.199999988079,62.0,59.0,40.0,False,,334.2064164032171,[],"[539, 888]",ColorTask,37.0,25.0,,,HRV,HRV_0193,2022-11-30 18:52:00
,wl-rdm,150,568470,0.0-8.25-0.25,1.0,143.0,,,,,,,[],,,,,,62.5,1.0,u,0.0,False,1089.9000000059605,49.0,59.0,40.0,False,,293.49798707507654,[],"[539, 888]",ColorTask,36.0,26.0,,,HRV,HRV_0193,2022-11-30 18:52:00
,wl-rdm,151,571064,0.0-8.26-0.26,1.0,144.0,,,,,,,[],,,,,,73.6,1.0,i,1.0,True,1105.0,51.0,59.0,40.0,False,,374.7183570195207,[],"[539, 888]",ColorTask,37.0,27.0,,,HRV,HRV_0193,2022-11-30 18:52:00
,wl-rdm,152,573572,0.0-8.27-0.27,1.0,145.0,,,,,,,[],,,,,,53.2,1.0,i,1.0,True,1196.0,69.0,59.0,40.0,False,,247.3734314221121,[],"[539, 888]",ColorTask,38.0,28.0,,,HRV,HRV_0193,2022-11-30 18:52:00
,wl-rdm,153,575903,0.0-8.28-0.28,1.0,146.0,,,,,,,[],,,,,,62.5,0.0,i,1.0,False,1048.4000000059605,69.0,59.0,40.0,False,,221.7192518022818,[],"[539, 888]",ColorTask,37.0,29.0,,,HRV,HRV_0193,2022-11-30 18:52:00
,wl-rdm,154,578071,0.0-8.29-0.29,1.0,147.0,,,,,,,[],,,,,,87.9,0.0,u,0.0,True,841.9999999701977,52.0,59.0,40.0,False,,262.5180499304996,[],"[539, 888]",ColorTask,38.0,30.0,,,HRV,HRV_0193,2022-11-30 18:52:00
,wl-rdm,155,581200,0.0-8.30-0.30,1.0,148.0,,,,,,,[],,,,,,62.5,0.0,u,0.0,True,1793.800000011921,116.0,59.0,40.0,False,,276.63257257495513,[],"[539, 888]",ColorTask,39.0,31.0,,,HRV,HRV_0193,2022-11-30 18:52:00
,wl-rdm,156,583949,0.0-8.31-0.31,1.0,149.0,,,,,,,[],,,,,,73.6,1.0,u,0.0,False,1300.5999999940395,84.0,59.0,40.0,False,,362.5428245627263,[],"[539, 888]",ColorTask,38.0,32.0,,,HRV,HRV_0193,2022-11-30 18:52:00
,wl-rdm,157,586367,0.0-8.32-0.32,1.0,150.0,,,,,,,[],,,,,,62.5,0.0,i,1.0,False,1114.0999999940395,56.0,59.0,40.0,False,,216.729138018367,[],"[539, 888]",ColorTask,37.0,33.0,,,HRV,HRV_0193,2022-11-30 18:52:00
,wl-rdm,158,588909,0.0-8.33-0.33,1.0,151.0,,,,,,,[],,,,,,73.6,0.0,u,0.0,True,1110.199999988079,67.0,59.0,40.0,False,,352.0860806720548,[],"[539, 888]",ColorTask,38.0,34.0,,,HRV,HRV_0193,2022-11-30 18:52:00
,wl-rdm,159,592273,0.0-8.34-0.34,1.0,152.0,,,,,,,[],,,,,,53.2,0.0,u,0.0,True,1956.2000000178814,113.0,59.0,40.0,False,,327.48455976876664,[],"[539, 888]",ColorTask,39.0,35.0,,,HRV,HRV_0193,2022-11-30 18:52:00
,wl-rdm,160,595342,0.0-8.35-0.35,1.0,153.0,,,,,,,[],,,,,,53.2,0.0,i,1.0,False,1660.4999999701977,98.0,59.0,40.0,False,,274.0470455612443,[],"[539, 888]",ColorTask,38.0,36.0,,,HRV,HRV_0193,2022-11-30 18:52:00
,wl-rdm,161,598044,0.0-8.36-0.36,1.0,154.0,,,,,,,[],,,,,,50.0,0.0,u,0.0,True,1410.3000000417233,79.0,59.0,40.0,False,,225.5437394431009,[],"[539, 888]",ColorTask,39.0,37.0,,,HRV,HRV_0193,2022-11-30 18:52:00
,wl-rdm,162,600561,0.0-8.37-0.37,1.0,155.0,,,,,,,[],,,,,,73.6,0.0,u,0.0,True,1133.7999999821186,61.0,59.0,40.0,False,,306.51795477352044,[],"[539, 888]",ColorTask,40.0,38.0,,,HRV,HRV_0193,2022-11-30 18:52:00
,wl-rdm,163,603058,0.0-8.38-0.38,1.0,156.0,,,,,,,[],,,,,,53.2,1.0,u,0.0,False,1134.0999999940395,65.0,59.0,40.0,False,,304.5801404704366,[],"[539, 888]",ColorTask,39.0,39.0,,,HRV,HRV_0193,2022-11-30 18:52:00
,wl-rdm,164,605786,0.0-8.39-0.39,1.0,157.0,,,,,,,[],,,,,,56.4,0.0,i,1.0,False,1387.0999999940395,53.0,59.0,40.0,False,,232.8118384134616,[],"[539, 888]",ColorTask,38.0,40.0,,,HRV,HRV_0193,2022-11-30 18:52:00
,wl-rdm,165,608352,0.0-8.40-0.40,1.0,158.0,,,,,,,[],,,,,,56.4,0.0,i,1.0,False,1205.5000000298023,61.0,59.0,40.0,False,,281.94072144040433,[],"[539, 888]",ColorTask,37.0,41.0,,,HRV,HRV_0193,2022-11-30 18:52:00
,wl-rdm,166,610824,0.0-8.41-0.41,1.0,159.0,,,,,,,[],,,,,,53.2,1.0,u,0.0,False,1024.699999988079,62.0,59.0,40.0,False,,395.4528244978008,[],"[539, 888]",ColorTask,36.0,42.0,,,HRV,HRV_0193,2022-11-30 18:52:00
,wl-rdm,167,613722,0.0-8.42-0.42,1.0,160.0,,,,,,,[],,,,,,53.2,1.0,i,1.0,True,1508.699999988079,95.0,59.0,40.0,False,,299.84209601129254,[],"[539, 888]",ColorTask,37.0,43.0,,,HRV,HRV_0193,2022-11-30 18:52:00
,wl-rdm,168,617090,0.0-8.43-0.43,1.0,161.0,,,,,,,[],,,,,,87.9,1.0,i,1.0,True,1997.4999999701977,87.0,59.0,40.0,False,,228.64988508507625,[],"[539, 888]",ColorTask,38.0,44.0,,,HRV,HRV_0193,2022-11-30 18:52:00
,wl-rdm,169,618182,0.0-8.44-0.44,1.0,161.0,,,,,,,[],,,,,,53.2,0.0,u,,,477.5,0.0,59.0,40.0,True,too_early ,293.7380047162844,[],"[539, 888]",ColorTask,37.0,45.0,,,HRV,HRV_0193,2022-11-30 18:52:00
,wl-rdm,170,620567,0.0-8.45-0.45,1.0,162.0,,,,,,,[],,,,,,73.6,1.0,u,0.0,False,1066.5999999642372,65.0,59.0,40.0,False,,232.4175494440884,[],"[539, 888]",ColorTask,36.0,46.0,,,HRV,HRV_0193,2022-11-30 18:52:00
,wl-rdm,171,623375,0.0-8.46-0.46,1.0,163.0,,,,,,,[],,,,,,56.4,0.0,i,1.0,False,1394.5,85.0,59.0,40.0,False,,324.9842853154356,[],"[539, 888]",ColorTask,35.0,47.0,,,HRV,HRV_0193,2022-11-30 18:52:00
,wl-rdm,172,626476,0.0-8.47-0.47,1.0,164.0,,,,,,,[],,,,,,56.4,1.0,i,1.0,True,1720.8999999761581,109.0,59.0,40.0,False,,318.8767219268951,[],"[539, 888]",ColorTask,36.0,48.0,,,HRV,HRV_0193,2022-11-30 18:52:00
,wl-rdm,173,628862,0.0-8.48-0.48,1.0,165.0,,,,,,,[],,,,,,50.0,1.0,i,1.0,True,934.9000000059605,61.0,59.0,40.0,False,,372.0947769281162,[],"[539, 888]",ColorTask,37.0,49.0,,,HRV,HRV_0193,2022-11-30 18:52:00
,wl-rdm,174,631650,0.0-8.49-0.49,1.0,166.0,,,,,,,[],,,,,,56.4,1.0,i,1.0,True,1516.5,98.0,59.0,40.0,False,,207.8797096658191,[],"[539, 888]",ColorTask,38.0,50.0,,,HRV,HRV_0193,2022-11-30 18:52:00
,wl-rdm,175,634270,0.0-8.50-0.50,1.0,167.0,,,,,,,[],,,,,,73.6,1.0,i,1.0,True,1310.7999999821186,84.0,59.0,40.0,False,,237.66219630152554,[],"[539, 888]",ColorTask,39.0,51.0,,,HRV,HRV_0193,2022-11-30 18:52:00
,wl-rdm,176,637276,0.0-8.51-0.51,1.0,168.0,,,,,,,[],,,,,,73.6,0.0,u,0.0,True,1588.8999999761581,65.0,59.0,40.0,False,,331.3269242329076,[],"[539, 888]",ColorTask,40.0,52.0,,,HRV,HRV_0193,2022-11-30 18:52:00
,wl-rdm,177,640169,0.0-8.52-0.52,1.0,169.0,,,,,,,[],,,,,,87.9,0.0,u,0.0,True,1553.6000000238419,87.0,59.0,40.0,False,,243.6727620923042,[],"[539, 888]",ColorTask,41.0,53.0,,,HRV,HRV_0193,2022-11-30 18:52:00
,wl-rdm,178,643234,0.0-8.53-0.53,1.0,170.0,,,,,,,[],,,,,,50.0,1.0,i,1.0,True,1716.199999988079,79.0,59.0,40.0,False,,252.76764755130873,[],"[539, 888]",ColorTask,42.0,54.0,,,HRV,HRV_0193,2022-11-30 18:52:00
,wl-rdm,179,645670,0.0-8.54-0.54,1.0,171.0,,,,,,,[],,,,,,87.9,1.0,i,1.0,True,1133.300000011921,59.0,59.0,40.0,False,,203.13543103620455,[],"[539, 888]",ColorTask,43.0,55.0,,,HRV,HRV_0193,2022-11-30 18:52:00
,wl-rdm,180,648294,0.0-8.55-0.55,1.0,172.0,,,,,,,[],,,,,,50.0,0.0,i,1.0,False,1225.300000011921,69.0,59.0,40.0,False,,325.0457142455891,[],"[539, 888]",ColorTask,42.0,56.0,,,HRV,HRV_0193,2022-11-30 18:52:00
,wl-rdm,181,651732,0.0-8.56-0.56,1.0,173.0,,,,,,,[],,,,,,56.4,1.0,i,1.0,True,2136.4000000059605,105.0,59.0,40.0,False,,229.5244908679362,[],"[539, 888]",ColorTask,43.0,57.0,,,HRV,HRV_0193,2022-11-30 18:52:00
,wl-rdm,182,654451,0.0-8.57-0.57,1.0,174.0,,,,,,,[],,,,,,56.4,1.0,i,1.0,True,1370.5,60.0,59.0,40.0,False,,226.317115328128,[],"[539, 888]",ColorTask,44.0,58.0,,,HRV,HRV_0193,2022-11-30 18:52:00
,wl-rdm,183,657543,0.0-8.58-0.58,1.0,175.0,,,,,,,[],,,,,,56.4,0.0,u,0.0,True,1721.800000011921,66.0,59.0,40.0,False,,260.1327652580088,[],"[539, 888]",ColorTask,45.0,59.0,,,HRV,HRV_0193,2022-11-30 18:52:00
,wl-rdm,184,660285,0.0-8.59-0.59,1.0,176.0,,,,,,,[],,,,,,62.5,1.0,u,0.0,False,1345.0,76.0,59.0,40.0,False,,270.06954814896136,[],"[539, 888]",ColorTask,44.0,60.0,,,HRV,HRV_0193,2022-11-30 18:52:00
,wl-rdm,185,663493,0.0-8.60-0.60,1.0,177.0,,,,,,,[],,,,,,56.4,0.0,i,1.0,False,1897.699999988079,106.0,59.0,40.0,False,,234.35583956892793,[],"[539, 888]",ColorTask,43.0,61.0,,,HRV,HRV_0193,2022-11-30 18:52:00
,wl-rdm,186,667546,0.0-8.61-0.61,1.0,178.0,,,,,,,[],,,,,,87.9,1.0,u,0.0,False,2713.0,168.0,59.0,40.0,False,,267.15452715518506,[],"[539, 888]",ColorTask,42.0,62.0,,,HRV,HRV_0193,2022-11-30 18:52:00
,wl-rdm,187,670203,0.0-8.62-0.62,1.0,179.0,,,,,,,[],,,,,,87.9,0.0,i,1.0,False,1384.699999988079,84.0,59.0,40.0,False,,210.02195158355437,[],"[539, 888]",ColorTask,41.0,63.0,,,HRV,HRV_0193,2022-11-30 18:52:00
,wl-rdm,188,672464,0.0-8.63-0.63,1.0,180.0,,,,,,,[],,,,,,53.2,0.0,i,1.0,False,967.8000000119209,57.0,59.0,40.0,False,,213.8105518534248,[],"[539, 888]",ColorTask,40.0,64.0,,,HRV,HRV_0193,2022-11-30 18:52:00
,wl-rdm,189,674876,0.0-8.64-0.64,1.0,181.0,,,,,,,[],,,,,,62.5,0.0,u,0.0,True,1049.199999988079,36.0,59.0,40.0,False,,241.34537772908868,[],"[539, 888]",ColorTask,41.0,65.0,,,HRV,HRV_0193,2022-11-30 18:52:00
,wl-rdm,190,677891,0.0-8.65-0.65,1.0,182.0,,,,,,,[],,,,,,56.4,1.0,i,1.0,True,1470.5999999940395,56.0,59.0,40.0,False,,378.65784227798576,[],"[539, 888]",ColorTask,42.0,66.0,,,HRV,HRV_0193,2022-11-30 18:52:00
,wl-rdm,191,681787,0.0-8.66-0.66,1.0,183.0,,,,,,,[],,,,,,53.2,0.0,i,1.0,False,2523.0999999940395,113.0,59.0,40.0,False,,249.9638711678203,[],"[539, 888]",ColorTask,41.0,67.0,,,HRV,HRV_0193,2022-11-30 18:52:00
,wl-rdm,192,682901,0.0-8.67-0.67,1.0,183.0,,,,,,,[],,,,,,53.2,0.0,u,,,134.2000000178814,0.0,59.0,40.0,True,too_early ,324.22761983727554,[],"[539, 888]",ColorTask,40.0,68.0,,,HRV,HRV_0193,2022-11-30 18:52:00
,wl-rdm,193,685322,0.0-8.68-0.68,1.0,184.0,,,,,,,[],,,,,,87.9,1.0,u,0.0,False,1075.0999999642372,31.0,59.0,40.0,False,,224.76112025642888,[],"[539, 888]",ColorTask,39.0,69.0,,,HRV,HRV_0193,2022-11-30 18:52:00
,wl-rdm,194,689767,0.0-8.69-0.69,1.0,184.0,,,,,,,[],,,,,,62.5,1.0,u,,,3067.600000023842,145.0,59.0,40.0,True,RT_timeout ,315.60417954852244,[],"[539, 888]",ColorTask,38.0,70.0,,,HRV,HRV_0193,2022-11-30 18:52:00
,wl-rdm,195,692564,0.0-8.70-0.70,1.0,185.0,,,,,,,[],,,,,,87.9,1.0,i,1.0,True,1365.199999988079,80.0,59.0,40.0,False,,345.898117644364,[],"[539, 888]",ColorTask,39.0,71.0,,,HRV,HRV_0193,2022-11-30 18:52:00
,wl-rdm,196,695135,0.0-8.71-0.71,1.0,186.0,,,,,,,[],,,,,,56.4,0.0,i,1.0,False,1194.2000000178814,63.0,59.0,40.0,False,,276.8784115654566,[],"[539, 888]",ColorTask,38.0,72.0,,,HRV,HRV_0193,2022-11-30 18:52:00
,wl-rdm,197,698045,0.0-8.72-0.72,1.0,187.0,,,,,,,[],,,,,,73.6,0.0,u,0.0,True,1532.199999988079,50.0,59.0,40.0,False,,276.8300300952529,[],"[539, 888]",ColorTask,39.0,73.0,,,HRV,HRV_0193,2022-11-30 18:52:00
,wl-rdm,198,700665,0.0-8.73-0.73,1.0,188.0,,,,,,,[],,,,,,62.5,1.0,u,0.0,False,1248.5,39.0,59.0,40.0,False,,268.88814788119566,[],"[539, 888]",ColorTask,38.0,74.0,,,HRV,HRV_0193,2022-11-30 18:52:00
,wl-rdm,199,702868,0.0-8.74-0.74,1.0,189.0,,,,,,,[],,,,,,56.4,1.0,i,1.0,True,848.5,41.0,59.0,40.0,False,,257.7361764105745,[],"[539, 888]",ColorTask,39.0,75.0,,,HRV,HRV_0193,2022-11-30 18:52:00
,wl-rdm,200,705776,0.0-8.75-0.75,1.0,190.0,,,,,,,[],,,,,,62.5,0.0,i,1.0,False,1516.300000011921,65.0,59.0,40.0,False,,322.81026638334555,[],"[539, 888]",ColorTask,38.0,76.0,,,HRV,HRV_0193,2022-11-30 18:52:00
,wl-rdm,201,708501,0.0-8.76-0.76,1.0,191.0,,,,,,,[],,,,,,73.6,1.0,u,0.0,False,1387.300000011921,79.0,59.0,40.0,False,,268.50000742387726,[],"[539, 888]",ColorTask,37.0,77.0,,,HRV,HRV_0193,2022-11-30 18:52:00
,wl-rdm,202,711478,0.0-8.77-0.77,1.0,192.0,,,,,,,[],,,,,,87.9,1.0,u,0.0,False,1600.0999999940395,100.0,59.0,40.0,False,,293.24774954334373,[],"[539, 888]",ColorTask,36.0,78.0,,,HRV,HRV_0193,2022-11-30 18:52:00
,wl-rdm,203,714349,0.0-8.78-0.78,1.0,193.0,,,,,,,[],,,,,,73.6,0.0,u,0.0,True,1425.300000011921,82.0,59.0,40.0,False,,365.07374572105954,[],"[539, 888]",ColorTask,37.0,79.0,,,HRV,HRV_0193,2022-11-30 18:52:00
,wl-rdm,204,716766,0.0-8.79-0.79,1.0,194.0,,,,,,,[],,,,,,53.2,1.0,u,0.0,False,1109.5,54.0,59.0,40.0,False,,226.88309053417026,[],"[539, 888]",ColorTask,36.0,80.0,,,HRV,HRV_0193,2022-11-30 18:52:00
,wl-rdm,205,721089,0.0-8.80-0.80,1.0,194.0,,,,,,,[],,,,,,73.6,1.0,,,,,144.0,59.0,40.0,True,RT_timeout ,229.121109235404,[],"[539, 888]",ColorTask,35.0,81.0,,,HRV,HRV_0193,2022-11-30 18:52:00
,wl-rdm,206,722210,0.0-8.81-0.81,1.0,194.0,,,,,,,[],,,,,,73.6,0.0,u,,,565.0,0.0,59.0,40.0,True,too_early ,242.83871609846943,[],"[539, 888]",ColorTask,34.0,82.0,,,HRV,HRV_0193,2022-11-30 18:52:00
,wl-rdm,207,724629,0.0-8.82-0.82,1.0,195.0,,,,,,,[],,,,,,53.2,0.0,u,0.0,True,958.5,43.0,59.0,40.0,False,,379.4482107505637,[],"[539, 888]",ColorTask,35.0,83.0,,,HRV,HRV_0193,2022-11-30 18:52:00
,wl-rdm,208,727187,0.0-8.83-0.83,1.0,196.0,,,,,,,[],,,,,,53.2,0.0,u,0.0,True,1077.5,48.0,59.0,40.0,False,,379.1124158885601,[],"[539, 888]",ColorTask,36.0,84.0,,,HRV,HRV_0193,2022-11-30 18:52:00
,wl-rdm,209,729791,0.0-8.84-0.84,1.0,197.0,,,,,,,[],,,,,,62.5,1.0,u,0.0,False,1176.800000011921,44.0,59.0,40.0,False,,305.41825097531176,[],"[539, 888]",ColorTask,35.0,85.0,,,HRV,HRV_0193,2022-11-30 18:52:00
,wl-rdm,210,732277,0.0-8.85-0.85,1.0,198.0,,,,,,,[],,,,,,50.0,0.0,i,1.0,False,1160.800000011921,47.0,59.0,40.0,False,,247.12616595305465,[],"[539, 888]",ColorTask,34.0,86.0,,,HRV,HRV_0193,2022-11-30 18:52:00
,wl-rdm,211,734771,0.0-8.86-0.86,1.0,199.0,,,,,,,[],,,,,,50.0,1.0,u,0.0,False,1010.6000000238419,42.0,59.0,40.0,False,,328.5706461788049,[],"[539, 888]",ColorTask,33.0,87.0,,,HRV,HRV_0193,2022-11-30 18:52:00
,wl-rdm,212,737320,0.0-8.87-0.87,1.0,200.0,,,,,,,[],,,,,,62.5,0.0,i,1.0,False,1179.0999999940395,65.0,59.0,40.0,False,,270.3721073658721,[],"[539, 888]",ColorTask,32.0,88.0,,,HRV,HRV_0193,2022-11-30 18:52:00
,wl-rdm,213,740455,0.0-8.88-0.88,1.0,201.0,,,,,,,[],,,,,,50.0,1.0,u,0.0,False,1721.5999999940395,92.0,59.0,40.0,False,,338.40543793993527,[],"[539, 888]",ColorTask,31.0,89.0,,,HRV,HRV_0193,2022-11-30 18:52:00
,wl-rdm,214,743984,0.0-8.89-0.89,1.0,202.0,,,,,,,[],,,,,,50.0,1.0,u,0.0,False,2129.5999999940395,106.0,59.0,40.0,False,,333.31499817623114,[],"[539, 888]",ColorTask,30.0,90.0,,,HRV,HRV_0193,2022-11-30 18:52:00
,wl-rdm,215,747658,0.0-8.90-0.90,1.0,203.0,,,,,,,[],,,,,,87.9,0.0,u,0.0,True,2304.0,82.0,59.0,40.0,False,,269.77511301681614,[],"[539, 888]",ColorTask,31.0,91.0,,,HRV,HRV_0193,2022-11-30 18:52:00
,wl-rdm,216,750754,0.0-8.91-0.91,1.0,204.0,,,,,,,[],,,,,,56.4,0.0,u,0.0,True,1549.5999999940395,58.0,59.0,40.0,False,,398.08937878385666,[],"[539, 888]",ColorTask,32.0,92.0,,,HRV,HRV_0193,2022-11-30 18:52:00
,wl-rdm,217,753589,0.0-8.92-0.92,1.0,205.0,,,,,,,[],,,,,,53.2,1.0,u,0.0,False,1376.2999999821186,67.0,59.0,40.0,False,,299.57742341408135,[],"[539, 888]",ColorTask,31.0,93.0,,,HRV,HRV_0193,2022-11-30 18:52:00
,wl-rdm,218,755782,0.0-8.93-0.93,1.0,206.0,,,,,,,[],,,,,,73.6,0.0,i,1.0,False,842.8000000119209,36.0,59.0,40.0,False,,285.0286994002763,[],"[539, 888]",ColorTask,30.0,94.0,,,HRV,HRV_0193,2022-11-30 18:52:00
,wl-rdm,219,758353,0.0-8.94-0.94,1.0,207.0,,,,,,,[],,,,,,56.4,1.0,u,0.0,False,1108.5999999940395,48.0,59.0,40.0,False,,297.03456070108825,[],"[539, 888]",ColorTask,29.0,95.0,,,HRV,HRV_0193,2022-11-30 18:52:00
,wl-rdm,220,760665,0.0-8.95-0.95,1.0,208.0,,,,,,,[],,,,,,50.0,0.0,u,0.0,True,1019.6999999880791,50.0,59.0,40.0,False,,211.91564296860082,[],"[539, 888]",ColorTask,30.0,96.0,,,HRV,HRV_0193,2022-11-30 18:52:00
,wl-rdm,221,763325,0.0-8.96-0.96,1.0,209.0,,,,,,,[],,,,,,56.4,1.0,u,0.0,False,1316.5999999940395,77.0,59.0,40.0,False,,271.58623381447444,[],"[539, 888]",ColorTask,29.0,97.0,,,HRV,HRV_0193,2022-11-30 18:52:00
,wl-rdm,222,767148,0.0-8.97-0.97,1.0,210.0,,,,,,,[],,,,,,73.6,0.0,u,0.0,True,2354.7000000178814,124.0,59.0,40.0,False,,377.6070869748561,[],"[539, 888]",ColorTask,30.0,98.0,,,HRV,HRV_0193,2022-11-30 18:52:00
,wl-rdm,223,769502,0.0-8.98-0.98,1.0,211.0,,,,,,,[],,,,,,87.9,0.0,u,0.0,True,1060.800000011921,46.0,59.0,40.0,False,,220.76013667730078,[],"[539, 888]",ColorTask,31.0,99.0,,,HRV,HRV_0193,2022-11-30 18:52:00
,wl-rdm,224,772145,0.0-8.99-0.99,1.0,212.0,,,,,,,[],,,,,,53.2,1.0,u,0.0,False,1213.4000000059605,69.0,59.0,40.0,False,,353.0912594666938,[],"[539, 888]",ColorTask,30.0,100.0,,,HRV,HRV_0193,2022-11-30 18:52:00
,wl-rdm,225,774666,0.0-8.100-0.100,1.0,213.0,,,,,,,[],,,,,,50.0,1.0,u,0.0,False,1073.6000000238419,63.0,59.0,40.0,False,,375.56383126949333,[],"[539, 888]",ColorTask,29.0,101.0,,,HRV,HRV_0193,2022-11-30 18:52:00
,wl-rdm,226,777076,0.0-8.101-0.101,1.0,214.0,,,,,,,[],,,,,,56.4,0.0,i,1.0,False,1036.9000000059605,59.0,59.0,40.0,False,,256.2363243924606,[],"[539, 888]",ColorTask,28.0,102.0,,,HRV,HRV_0193,2022-11-30 18:52:00
,wl-rdm,227,779879,0.0-8.102-0.102,1.0,215.0,,,,,,,[],,,,,,62.5,1.0,i,1.0,True,1406.2000000476837,73.0,59.0,40.0,False,,280.0668760221122,[],"[539, 888]",ColorTask,29.0,103.0,,,HRV,HRV_0193,2022-11-30 18:52:00
,wl-rdm,228,782762,0.0-8.103-0.103,1.0,216.0,,,,,,,[],,,,,,73.6,1.0,i,1.0,True,1436.4000000059605,69.0,59.0,40.0,False,,355.14943689733525,[],"[539, 888]",ColorTask,30.0,104.0,,,HRV,HRV_0193,2022-11-30 18:52:00
,wl-rdm,229,786618,0.0-8.104-0.104,1.0,217.0,,,,,,,[],,,,,,87.9,1.0,u,0.0,False,2502.800000011921,140.0,59.0,40.0,False,,265.7072255200978,[],"[539, 888]",ColorTask,29.0,105.0,,,HRV,HRV_0193,2022-11-30 18:52:00
,wl-rdm,230,790579,0.0-8.105-0.105,1.0,218.0,,,,,,,[],,,,,,73.6,1.0,i,1.0,True,2556.199999988079,164.0,59.0,40.0,False,,338.6860255491183,[],"[539, 888]",ColorTask,30.0,106.0,,,HRV,HRV_0193,2022-11-30 18:52:00
,wl-rdm,231,793686,0.0-8.106-0.106,1.0,219.0,,,,,,,[],,,,,,56.4,1.0,i,1.0,True,1737.7000000178814,94.0,59.0,40.0,False,,270.95492293678916,[],"[539, 888]",ColorTask,31.0,107.0,,,HRV,HRV_0193,2022-11-30 18:52:00
,wl-rdm,232,796298,0.0-8.107-0.107,1.0,220.0,,,,,,,[],,,,,,62.5,0.0,i,1.0,False,1282.7000000178814,67.0,59.0,40.0,False,,246.36357265296365,[],"[539, 888]",ColorTask,30.0,108.0,,,HRV,HRV_0193,2022-11-30 18:52:00
,wl-rdm,233,798946,0.0-8.108-0.108,1.0,221.0,,,,,,,[],,,,,,73.6,0.0,i,1.0,False,1288.3999999761581,77.0,59.0,40.0,False,,281.5901132515354,[],"[539, 888]",ColorTask,29.0,109.0,,,HRV,HRV_0193,2022-11-30 18:52:00
,wl-rdm,234,801638,0.0-8.109-0.109,1.0,222.0,,,,,,,[],,,,,,73.6,1.0,i,1.0,True,1380.0,84.0,59.0,40.0,False,,223.62500997425627,[],"[539, 888]",ColorTask,30.0,110.0,,,HRV,HRV_0193,2022-11-30 18:52:00
,wl-rdm,235,803966,0.0-8.110-0.110,1.0,223.0,,,,,,,[],,,,,,73.6,1.0,i,1.0,True,901.6999999880791,57.0,59.0,40.0,False,,325.2410265909721,[],"[539, 888]",ColorTask,31.0,111.0,,,HRV,HRV_0193,2022-11-30 18:52:00
,wl-rdm,236,806415,0.0-8.111-0.111,1.0,224.0,,,,,,,[],,,,,,50.0,0.0,i,1.0,False,1124.800000011921,65.0,59.0,40.0,False,,262.9729141447387,[],"[539, 888]",ColorTask,30.0,112.0,,,HRV,HRV_0193,2022-11-30 18:52:00
,wl-rdm,237,808546,0.0-8.112-0.112,1.0,225.0,,,,,,,[],,,,,,87.9,1.0,i,1.0,True,851.0,54.0,59.0,40.0,False,,203.69380245895198,[],"[539, 888]",ColorTask,31.0,113.0,,,HRV,HRV_0193,2022-11-30 18:52:00
,wl-html-button-response,238,814349,0.0-9.0-0.0,,,,,,,,,,5797.199999988079,,0,,,,,,,,,,,,,,,,,,,,<h3>End of this session. Thank you!</h3><br>,['Close window'],HRV,HRV_0193,2022-11-30 18:52:00
