success,trial_type,trial_index,time_elapsed,internal_node_id,Block,TrialNumber,TrialTime,trialTimeDiff,FPS_avg,FPS_med,FPS_mode,TrialDur,winResizeTime,rt,block,button_pressed,MotCoh,MotDir,ColCoh,Color,ChoiceKey,Choice,Accuracy,RT,nFrames,FPS,PPD,missTrial,missTrialMsg,onsetDelay,fullScreenExitTime,canvCenter,TrialType,Score,BlockTrial,stimulus,button_labels,exp,subjectId,date
True,fullscreen,0,1318,0.0-0.0,0.0,1.0,,,,,,,,,,,,,,,,,,,,,,,,,,,,,,,,HRV,HRV_0169,2022-11-30 18:34:01
,wl-check-fps,1,6312,0.0-1.0,0.0,2.0,"[1475.4, 1482, 1498.6, 1515.4, 1532.1, 1548.7, 1565.4, 1582, 1598.7, 1615.3, 1632.2, 1648.7, 1665.4, 1682.1, 1698.8, 1715.4, 1732.1, 1748.8, 1765.5, 1782.2, 1798.8, 1815.5, 1832.2, 1848.9, 1865.5, 1882.3, 1898.9, 1915.6, 1932.3, 1948.9, 1965.6, 1982.3, 1998.9, 2015.6, 2032.3, 2048.9, 2065.6, 2082.3, 2098.9, 2115.6, 2132.2, 2148.9, 2165.9, 2182.3, 2199, 2215.7, 2232.3, 2249, 2265.7, 2282.3, 2299.1, 2315.7, 2332.4, 2349.1, 2365.6, 2382.4, 2399.1, 2415.8, 2432.5, 2449.1, 2465.8, 2482.5, 2499.1, 2515.7, 2532.5, 2549.1, 2565.9, 2582.4, 2599.2, 2615.8, 2632.4, 2649.2, 2665.9, 2682.5, 2699.1, 2715.8, 2732.6, 2749.2, 2765.9, 2782.5, 2799.2, 2815.9, 2832.6, 2849.2, 2865.9, 2882.6, 2899.3, 2916, 2932.6, 2949.3, 2965.9, 2982.6, 2999.3, 3015.9, 3032.6, 3049.4, 3066, 3082.6, 3099.3, 3116, 3132.7, 3149.3, 3166.2, 3182.7, 3199.4, 3216, 3232.7, 3249.4, 3266.2, 3282.8, 3299.5, 3316.1, 3332.8, 3349.4, 3366.2, 3382.9, 3399.6, 3416.2, 3432.8, 3449.5, 3466.2, 3482.8, 3499.5, 3516.2, 3532.8, 3549.5, 3566.2, 3583, 3599.6, 3616.3, 3632.9, 3649.6, 3666.2, 3682.9, 3699.6, 3716.3, 3733, 3749.6, 3766.3, 3783, 3799.6, 3816.4, 3833, 3849.7, 3866.4, 3883, 3899.6, 3916.4, 3933, 3949.7, 3966.4, 3983.1, 3999.8, 4016.4, 4033.1, 4049.8, 4066.4, 4083.2, 4099.8, 4116.4, 4133.1, 4149.8, 4166.6, 4183.2, 4199.8, 4216.5, 4233.2, 4249.8, 4266.5, 4283.2, 4299.9, 4316.6, 4333.2, 4349.9, 4366.5, 4383.3, 4399.9, 4416.6, 4433.2, 4450, 4466.6, 4483.4, 4500, 4516.7, 4533.3, 4550, 4566.7, 4583.3, 4600, 4616.7, 4633.5, 4650.1, 4666.7, 4683.4, 4700, 4716.7, 4733.3, 4750.1, 4766.8, 4783.5, 4800.1, 4816.8, 4833.4, 4850.1, 4866.8, 4883.5, 4900.1, 4916.8, 4933.5, 4950.2, 4966.8, 4983.5, 5000.2, 5016.8, 5033.5, 5050.2, 5066.9, 5083.5, 5100.2, 5116.9, 5133.6, 5150.3, 5167, 5183.6, 5200.3, 5217, 5233.7, 5250.3, 5266.9, 5283.7, 5300.3, 5317, 5333.7, 5350.3, 5367, 5383.7, 5400.3, 5417.1, 5433.7, 5450.4, 5467.1, 5483.8, 5500.5, 5517, 5533.8, 5550.4, 5567.1, 5583.8, 5600.5, 5617.1, 5633.9, 5650.5, 5667.1, 5683.9, 5700.5, 5717.1, 5733.9, 5750.5, 5767.3, 5783.8, 5800.6, 5817.2, 5833.9, 5850.6, 5867.2, 5883.9, 5900.6, 5917.3, 5933.9, 5950.6, 5967.2, 5983.9, 6000.7, 6017.3, 6034, 6050.7, 6067.4, 6084, 6100.7, 6117.4, 6134.1, 6150.7, 6167.5, 6184, 6200.7, 6217.4, 6234, 6250.8, 6267.4, 6284.1, 6300.8, 6317.4, 6334.1, 6350.8, 6367.5, 6384.2, 6400.8, 6417.5, 6434.2, 6450.9]","[0.7, 6.6, 16.6, 16.8, 16.7, 16.6, 16.7, 16.6, 16.7, 16.6, 16.9, 16.5, 16.7, 16.7, 16.7, 16.6, 16.7, 16.7, 16.7, 16.7, 16.6, 16.7, 16.7, 16.7, 16.6, 16.8, 16.6, 16.7, 16.7, 16.6, 16.7, 16.7, 16.6, 16.7, 16.7, 16.6, 16.7, 16.7, 16.6, 16.7, 16.6, 16.7, 17, 16.4, 16.7, 16.7, 16.6, 16.7, 16.7, 16.6, 16.8, 16.6, 16.7, 16.7, 16.5, 16.8, 16.7, 16.7, 16.7, 16.6, 16.7, 16.7, 16.6, 16.6, 16.8, 16.6, 16.8, 16.5, 16.8, 16.6, 16.6, 16.8, 16.7, 16.6, 16.6, 16.7, 16.8, 16.6, 16.7, 16.6, 16.7, 16.7, 16.7, 16.6, 16.7, 16.7, 16.7, 16.7, 16.6, 16.7, 16.6, 16.7, 16.7, 16.6, 16.7, 16.8, 16.6, 16.6, 16.7, 16.7, 16.7, 16.6, 16.9, 16.5, 16.7, 16.6, 16.7, 16.7, 16.8, 16.6, 16.7, 16.6, 16.7, 16.6, 16.8, 16.7, 16.7, 16.6, 16.6, 16.7, 16.7, 16.6, 16.7, 16.7, 16.6, 16.7, 16.7, 16.8, 16.6, 16.7, 16.6, 16.7, 16.6, 16.7, 16.7, 16.7, 16.7, 16.6, 16.7, 16.7, 16.6, 16.8, 16.6, 16.7, 16.7, 16.6, 16.6, 16.8, 16.6, 16.7, 16.7, 16.7, 16.7, 16.6, 16.7, 16.7, 16.6, 16.8, 16.6, 16.6, 16.7, 16.7, 16.8, 16.6, 16.6, 16.7, 16.7, 16.6, 16.7, 16.7, 16.7, 16.7, 16.6, 16.7, 16.6, 16.8, 16.6, 16.7, 16.6, 16.8, 16.6, 16.8, 16.6, 16.7, 16.6, 16.7, 16.7, 16.6, 16.7, 16.7, 16.8, 16.6, 16.6, 16.7, 16.6, 16.7, 16.6, 16.8, 16.7, 16.7, 16.6, 16.7, 16.6, 16.7, 16.7, 16.7, 16.6, 16.7, 16.7, 16.7, 16.6, 16.7, 16.7, 16.6, 16.7, 16.7, 16.7, 16.6, 16.7, 16.7, 16.7, 16.7, 16.7, 16.6, 16.7, 16.7, 16.7, 16.6, 16.6, 16.8, 16.6, 16.7, 16.7, 16.6, 16.7, 16.7, 16.6, 16.8, 16.6, 16.7, 16.7, 16.7, 16.7, 16.5, 16.8, 16.6, 16.7, 16.7, 16.7, 16.6, 16.8, 16.6, 16.6, 16.8, 16.6, 16.6, 16.8, 16.6, 16.8, 16.5, 16.8, 16.6, 16.7, 16.7, 16.6, 16.7, 16.7, 16.7, 16.6, 16.7, 16.6, 16.7, 16.8, 16.6, 16.7, 16.7, 16.7, 16.6, 16.7, 16.7, 16.7, 16.6, 16.8, 16.5, 16.7, 16.7, 16.6, 16.8, 16.6, 16.7, 16.7, 16.6, 16.7, 16.7, 16.7, 16.7, 16.6, 16.7, 16.7, 16.7]",60.0,60.0,60.0,4992.8,[],,,,,,,,,,,,,,,,,,,,,,,,,HRV,HRV_0169,2022-11-30 18:34:01
,wl-html-keyboard-response,2,28334,0.0-2.0-0.0,0.0,3.0,,,,,,,,20016.599999904633,0.0,0,,,,,,,,,,,,,,,,,,,,,,HRV,HRV_0169,2022-11-30 18:34:01
,wl-rdm,3,35057,0.0-3.0-0.0,0.0,4.0,,,,,,,[],,,,0.0,0.0,87.9,0.0,u,0.0,True,1162.2000000476837,70.0,60.0,40.0,False,,3000.0,[],"[1720, 720]",ColorTask_Demo,,,,,HRV,HRV_0169,2022-11-30 18:34:01
,wl-rdm,4,39926,0.0-3.0-1.0,0.0,5.0,,,,,,,[],,,,0.0,0.0,87.9,1.0,i,1.0,True,817.0,49.0,60.0,40.0,False,,2000.0,[],"[1720, 720]",ColorTask_Demo,,,,,HRV,HRV_0169,2022-11-30 18:34:01
,wl-html-keyboard-response,5,45101,0.0-3.0-2.0,0.0,6.0,,,,,,,,3168.600000143051,0.0,1,,,,,,,,,,,,,,,,,,,,,,HRV,HRV_0169,2022-11-30 18:34:01
,wl-html-keyboard-response,6,53429,0.0-4.0-0.0,0.0,7.0,,,,,,,,6325.5,0.0,0,,,,,,,,,,,,,,,,,,,,,,HRV,HRV_0169,2022-11-30 18:34:01
,wl-html-keyboard-response,7,62205,0.0-5.0-0.0,0.0,8.0,,,,,,,,6771.699999809265,0.0,0,,,,,,,,,,,,,,,,,,,,,,HRV,HRV_0169,2022-11-30 18:34:01
,wl-rdm,8,64404,0.0-6.0-0.0,0.0,9.0,,,,,,,[],,,,,,87.9,1.0,i,1.0,True,780.7999999523163,47.0,60.0,40.0,False,,356.08315315946084,[],"[1720, 720]",ColorTask,1.0,1.0,,,HRV,HRV_0169,2022-11-30 18:34:01
,wl-rdm,9,66304,0.0-6.1-0.1,0.0,10.0,,,,,,,[],,,,,,56.4,0.0,u,0.0,True,622.9000000953674,38.0,60.0,40.0,False,,216.14558480361094,[],"[1720, 720]",ColorTask,2.0,2.0,,,HRV,HRV_0169,2022-11-30 18:34:01
,wl-rdm,10,68155,0.0-6.2-0.2,0.0,11.0,,,,,,,[],,,,,,87.9,0.0,u,0.0,True,463.39999985694885,28.0,60.0,40.0,False,,323.5586910961964,[],"[1720, 720]",ColorTask,3.0,3.0,,,HRV,HRV_0169,2022-11-30 18:34:01
,wl-rdm,11,70056,0.0-6.3-0.3,0.0,12.0,,,,,,,[],,,,,,50.0,0.0,i,1.0,False,510.30000019073486,31.0,60.0,40.0,False,,326.63004887853765,[],"[1720, 720]",ColorTask,2.0,4.0,,,HRV,HRV_0169,2022-11-30 18:34:01
,wl-rdm,12,71923,0.0-6.4-0.4,0.0,13.0,,,,,,,[],,,,,,62.5,1.0,i,1.0,True,428.59999990463257,26.0,60.0,40.0,False,,383.47953777752105,[],"[1720, 720]",ColorTask,3.0,5.0,,,HRV,HRV_0169,2022-11-30 18:34:01
,wl-rdm,13,73858,0.0-6.5-0.5,0.0,14.0,,,,,,,[],,,,,,53.2,1.0,u,0.0,False,573.5999999046326,35.0,60.0,40.0,False,,289.42241986586953,[],"[1720, 720]",ColorTask,2.0,6.0,,,HRV,HRV_0169,2022-11-30 18:34:01
,wl-rdm,14,75975,0.0-6.6-0.6,0.0,15.0,,,,,,,[],,,,,,50.0,1.0,u,0.0,False,838.7999999523163,51.0,60.0,40.0,False,,216.37875719961954,[],"[1720, 720]",ColorTask,1.0,7.0,,,HRV,HRV_0169,2022-11-30 18:34:01
,wl-rdm,15,78376,0.0-6.7-0.7,0.0,16.0,,,,,,,[],,,,,,50.0,1.0,u,0.0,False,1086.7000000476837,66.0,60.0,40.0,False,,234.5465294058385,[],"[1720, 720]",ColorTask,0.0,8.0,,,HRV,HRV_0169,2022-11-30 18:34:01
,wl-rdm,16,80610,0.0-6.8-0.8,0.0,17.0,,,,,,,[],,,,,,56.4,1.0,i,1.0,True,896.2999999523163,54.0,60.0,40.0,False,,267.80603255839304,[],"[1720, 720]",ColorTask,1.0,9.0,,,HRV,HRV_0169,2022-11-30 18:34:01
,wl-rdm,17,82961,0.0-6.9-0.9,0.0,18.0,,,,,,,[],,,,,,56.4,1.0,i,1.0,True,1004.1000001430511,61.0,60.0,40.0,False,,274.2431475452142,[],"[1720, 720]",ColorTask,2.0,10.0,,,HRV,HRV_0169,2022-11-30 18:34:01
,wl-rdm,18,84979,0.0-6.10-0.10,0.0,19.0,,,,,,,[],,,,,,62.5,0.0,u,0.0,True,701.3999998569489,43.0,60.0,40.0,False,,244.2449875556633,[],"[1720, 720]",ColorTask,3.0,11.0,,,HRV,HRV_0169,2022-11-30 18:34:01
,wl-rdm,19,87263,0.0-6.11-0.11,0.0,20.0,,,,,,,[],,,,,,53.2,0.0,i,1.0,False,973.7000000476837,59.0,60.0,40.0,False,,245.02279681385727,[],"[1720, 720]",ColorTask,2.0,12.0,,,HRV,HRV_0169,2022-11-30 18:34:01
,wl-rdm,20,89398,0.0-6.12-0.12,0.0,21.0,,,,,,,[],,,,,,56.4,0.0,u,0.0,True,857.7000000476837,52.0,60.0,40.0,False,,205.87333521786195,[],"[1720, 720]",ColorTask,3.0,13.0,,,HRV,HRV_0169,2022-11-30 18:34:01
,wl-rdm,21,92166,0.0-6.13-0.13,0.0,22.0,,,,,,,[],,,,,,50.0,0.0,u,0.0,True,1410.0999999046326,85.0,60.0,40.0,False,,284.3294332543208,[],"[1720, 720]",ColorTask,4.0,14.0,,,HRV,HRV_0169,2022-11-30 18:34:01
,wl-rdm,22,94617,0.0-6.14-0.14,0.0,23.0,,,,,,,[],,,,,,62.5,1.0,i,1.0,True,1146.2999999523163,69.0,60.0,40.0,False,,240.38831384280522,[],"[1720, 720]",ColorTask,5.0,15.0,,,HRV,HRV_0169,2022-11-30 18:34:01
,wl-rdm,23,96968,0.0-6.15-0.15,0.0,24.0,,,,,,,[],,,,,,50.0,0.0,u,0.0,True,1075.5999999046326,65.0,60.0,40.0,False,,201.91727363187113,[],"[1720, 720]",ColorTask,6.0,16.0,,,HRV,HRV_0169,2022-11-30 18:34:01
,wl-rdm,24,99302,0.0-6.16-0.16,0.0,25.0,,,,,,,[],,,,,,56.4,0.0,u,0.0,True,940.8999998569489,57.0,60.0,40.0,False,,324.90063711691744,[],"[1720, 720]",ColorTask,7.0,17.0,,,HRV,HRV_0169,2022-11-30 18:34:01
,wl-rdm,25,101386,0.0-6.17-0.17,0.0,26.0,,,,,,,[],,,,,,87.9,0.0,u,0.0,True,807.1999998092651,49.0,60.0,40.0,False,,212.06957149758125,[],"[1720, 720]",ColorTask,8.0,18.0,,,HRV,HRV_0169,2022-11-30 18:34:01
,wl-rdm,26,103804,0.0-6.18-0.18,0.0,27.0,,,,,,,[],,,,,,53.2,0.0,i,1.0,False,1020.2999999523163,62.0,60.0,40.0,False,,326.6581608521052,[],"[1720, 720]",ColorTask,7.0,19.0,,,HRV,HRV_0169,2022-11-30 18:34:01
,wl-rdm,27,106155,0.0-6.19-0.19,0.0,28.0,,,,,,,[],,,,,,73.6,0.0,u,0.0,True,1015.4000000953674,61.0,60.0,40.0,False,,272.1180522198932,[],"[1720, 720]",ColorTask,8.0,20.0,,,HRV,HRV_0169,2022-11-30 18:34:01
,wl-rdm,28,108356,0.0-6.20-0.20,0.0,29.0,,,,,,,[],,,,,,73.6,1.0,i,1.0,True,846.7000000476837,51.0,60.0,40.0,False,,291.4629995561375,[],"[1720, 720]",ColorTask,9.0,21.0,,,HRV,HRV_0169,2022-11-30 18:34:01
,wl-rdm,29,110940,0.0-6.21-0.21,0.0,30.0,,,,,,,[],,,,,,56.4,0.0,i,1.0,False,1185.5999999046326,72.0,60.0,40.0,False,,326.0557693648609,[],"[1720, 720]",ColorTask,8.0,22.0,,,HRV,HRV_0169,2022-11-30 18:34:01
,wl-rdm,30,113325,0.0-6.22-0.22,0.0,31.0,,,,,,,[],,,,,,56.4,0.0,u,0.0,True,1083.0,65.0,60.0,40.0,False,,217.22686457841903,[],"[1720, 720]",ColorTask,9.0,23.0,,,HRV,HRV_0169,2022-11-30 18:34:01
,wl-rdm,31,115526,0.0-6.23-0.23,0.0,32.0,,,,,,,[],,,,,,73.6,1.0,i,1.0,True,778.4000000953674,47.0,60.0,40.0,False,,360.0911521471013,[],"[1720, 720]",ColorTask,10.0,24.0,,,HRV,HRV_0169,2022-11-30 18:34:01
,wl-rdm,32,117694,0.0-6.24-0.24,0.0,33.0,,,,,,,[],,,,,,62.5,0.0,u,0.0,True,751.0999999046326,46.0,60.0,40.0,False,,343.2103032137668,[],"[1720, 720]",ColorTask,11.0,25.0,,,HRV,HRV_0169,2022-11-30 18:34:01
,wl-rdm,33,119761,0.0-6.25-0.25,0.0,34.0,,,,,,,[],,,,,,87.9,1.0,i,1.0,True,664.2999999523163,40.0,60.0,40.0,False,,333.69156741166506,[],"[1720, 720]",ColorTask,12.0,26.0,,,HRV,HRV_0169,2022-11-30 18:34:01
,wl-rdm,34,121845,0.0-6.26-0.26,0.0,35.0,,,,,,,[],,,,,,62.5,0.0,u,0.0,True,761.1999998092651,46.0,60.0,40.0,False,,252.36312181970038,[],"[1720, 720]",ColorTask,13.0,27.0,,,HRV,HRV_0169,2022-11-30 18:34:01
,wl-rdm,35,123946,0.0-6.27-0.27,0.0,36.0,,,,,,,[],,,,,,73.6,1.0,i,1.0,True,820.8999998569489,50.0,60.0,40.0,False,,210.63330042911636,[],"[1720, 720]",ColorTask,14.0,28.0,,,HRV,HRV_0169,2022-11-30 18:34:01
,wl-rdm,36,126931,0.0-6.28-0.28,0.0,37.0,,,,,,,[],,,,,,62.5,1.0,i,1.0,True,1531.5999999046326,92.0,60.0,40.0,False,,387.3687865832211,[],"[1720, 720]",ColorTask,15.0,29.0,,,HRV,HRV_0169,2022-11-30 18:34:01
,wl-rdm,37,129215,0.0-6.29-0.29,0.0,38.0,,,,,,,[],,,,,,50.0,1.0,i,1.0,True,1002.3999998569489,61.0,60.0,40.0,False,,215.64647325374915,[],"[1720, 720]",ColorTask,16.0,30.0,,,HRV,HRV_0169,2022-11-30 18:34:01
,wl-rdm,38,131233,0.0-6.30-0.30,0.0,39.0,,,,,,,[],,,,,,87.9,0.0,u,0.0,True,634.9000000953674,39.0,60.0,40.0,False,,314.56965719256505,[],"[1720, 720]",ColorTask,17.0,31.0,,,HRV,HRV_0169,2022-11-30 18:34:01
,wl-rdm,39,133184,0.0-6.31-0.31,0.0,40.0,,,,,,,[],,,,,,73.6,0.0,u,0.0,True,643.2000000476837,39.0,60.0,40.0,False,,250.07451539565182,[],"[1720, 720]",ColorTask,18.0,32.0,,,HRV,HRV_0169,2022-11-30 18:34:01
,wl-rdm,40,135118,0.0-6.32-0.32,0.0,41.0,,,,,,,[],,,,,,87.9,1.0,i,1.0,True,565.5999999046326,34.0,60.0,40.0,False,,306.6478187767141,[],"[1720, 720]",ColorTask,19.0,33.0,,,HRV,HRV_0169,2022-11-30 18:34:01
,wl-rdm,41,137219,0.0-6.33-0.33,0.0,42.0,,,,,,,[],,,,,,73.6,0.0,u,0.0,True,711.7999999523163,43.0,60.0,40.0,False,,321.32117625765096,[],"[1720, 720]",ColorTask,20.0,34.0,,,HRV,HRV_0169,2022-11-30 18:34:01
,wl-rdm,42,138953,0.0-6.34-0.34,0.0,43.0,,,,,,,[],,,,,,87.9,0.0,u,0.0,True,437.89999985694885,27.0,60.0,40.0,False,,232.176473168737,[],"[1720, 720]",ColorTask,21.0,35.0,,,HRV,HRV_0169,2022-11-30 18:34:01
,wl-rdm,43,140954,0.0-6.35-0.35,0.0,44.0,,,,,,,[],,,,,,73.6,1.0,i,1.0,True,602.6999998092651,37.0,60.0,40.0,False,,317.3106145686919,[],"[1720, 720]",ColorTask,22.0,36.0,,,HRV,HRV_0169,2022-11-30 18:34:01
,wl-rdm,44,143805,0.0-6.36-0.36,0.0,45.0,,,,,,,[],,,,,,50.0,1.0,i,1.0,True,1423.5999999046326,86.0,60.0,40.0,False,,362.9234622071716,[],"[1720, 720]",ColorTask,23.0,37.0,,,HRV,HRV_0169,2022-11-30 18:34:01
,wl-rdm,45,145789,0.0-6.37-0.37,0.0,46.0,,,,,,,[],,,,,,73.6,1.0,u,0.0,False,605.4999997615814,37.0,60.0,40.0,False,,309.2541529247752,[],"[1720, 720]",ColorTask,22.0,38.0,,,HRV,HRV_0169,2022-11-30 18:34:01
,wl-rdm,46,148807,0.0-6.38-0.38,0.0,47.0,,,,,,,[],,,,,,62.5,1.0,i,1.0,True,1627.4999997615814,98.0,60.0,40.0,False,,326.41986898983123,[],"[1720, 720]",ColorTask,23.0,39.0,,,HRV,HRV_0169,2022-11-30 18:34:01
,wl-rdm,47,150791,0.0-6.39-0.39,0.0,48.0,,,,,,,[],,,,,,87.9,1.0,i,1.0,True,664.0999999046326,40.0,60.0,40.0,False,,266.31964578401585,[],"[1720, 720]",ColorTask,24.0,40.0,,,HRV,HRV_0169,2022-11-30 18:34:01
,wl-rdm,48,152842,0.0-6.40-0.40,0.0,49.0,,,,,,,[],,,,,,62.5,0.0,u,0.0,True,771.8999998569489,47.0,60.0,40.0,False,,201.01632862018226,[],"[1720, 720]",ColorTask,25.0,41.0,,,HRV,HRV_0169,2022-11-30 18:34:01
,wl-rdm,49,155677,0.0-6.41-0.41,0.0,50.0,,,,,,,[],,,,,,56.4,1.0,u,0.0,False,1438.5,87.0,60.0,40.0,False,,323.16261197933744,[],"[1720, 720]",ColorTask,24.0,42.0,,,HRV,HRV_0169,2022-11-30 18:34:01
,wl-rdm,50,158545,0.0-6.42-0.42,0.0,51.0,,,,,,,[],,,,,,62.5,1.0,i,1.0,True,1569.7999997138977,95.0,60.0,40.0,False,,230.45939147389203,[],"[1720, 720]",ColorTask,25.0,43.0,,,HRV,HRV_0169,2022-11-30 18:34:01
,wl-rdm,51,160562,0.0-6.43-0.43,0.0,52.0,,,,,,,[],,,,,,62.5,0.0,u,0.0,True,737.5999999046326,45.0,60.0,40.0,False,,202.27715616929046,[],"[1720, 720]",ColorTask,26.0,44.0,,,HRV,HRV_0169,2022-11-30 18:34:01
,wl-rdm,52,163247,0.0-6.44-0.44,0.0,53.0,,,,,,,[],,,,,,56.4,0.0,u,0.0,True,1321.5999999046326,80.0,60.0,40.0,False,,287.1464717056854,[],"[1720, 720]",ColorTask,27.0,45.0,,,HRV,HRV_0169,2022-11-30 18:34:01
,wl-rdm,53,165181,0.0-6.45-0.45,0.0,54.0,,,,,,,[],,,,,,87.9,0.0,u,0.0,True,602.3999998569489,37.0,60.0,40.0,False,,254.64700536659922,[],"[1720, 720]",ColorTask,28.0,46.0,,,HRV,HRV_0169,2022-11-30 18:34:01
,wl-rdm,54,168399,0.0-6.46-0.46,0.0,55.0,,,,,,,[],,,,,,53.2,1.0,u,0.0,False,1755.1000001430511,106.0,60.0,40.0,False,,387.4903642702045,[],"[1720, 720]",ColorTask,27.0,47.0,,,HRV,HRV_0169,2022-11-30 18:34:01
,wl-rdm,55,171150,0.0-6.47-0.47,0.0,56.0,,,,,,,[],,,,,,62.5,1.0,i,1.0,True,1416.6000001430511,85.0,60.0,40.0,False,,272.73354138311555,[],"[1720, 720]",ColorTask,28.0,48.0,,,HRV,HRV_0169,2022-11-30 18:34:01
,wl-rdm,56,173668,0.0-6.48-0.48,0.0,57.0,,,,,,,[],,,,,,62.5,0.0,u,0.0,True,1133.2999999523163,68.0,60.0,40.0,False,,319.15644936665774,[],"[1720, 720]",ColorTask,29.0,49.0,,,HRV,HRV_0169,2022-11-30 18:34:01
,wl-rdm,57,176569,0.0-6.49-0.49,0.0,58.0,,,,,,,[],,,,,,53.2,1.0,i,1.0,True,1595.9000000953674,96.0,60.0,40.0,False,,237.37538864208508,[],"[1720, 720]",ColorTask,30.0,50.0,,,HRV,HRV_0169,2022-11-30 18:34:01
,wl-rdm,58,179271,0.0-6.50-0.50,0.0,59.0,,,,,,,[],,,,,,62.5,1.0,u,0.0,False,1386.7999999523163,84.0,60.0,40.0,False,,243.04026974863916,[],"[1720, 720]",ColorTask,29.0,51.0,,,HRV,HRV_0169,2022-11-30 18:34:01
,wl-rdm,59,182238,0.0-6.51-0.51,0.0,60.0,,,,,,,[],,,,,,50.0,1.0,i,1.0,True,1501.4000000953674,91.0,60.0,40.0,False,,389.5974668288079,[],"[1720, 720]",ColorTask,30.0,52.0,,,HRV,HRV_0169,2022-11-30 18:34:01
,wl-rdm,60,185323,0.0-6.52-0.52,0.0,61.0,,,,,,,[],,,,,,53.2,0.0,u,0.0,True,1814.6999998092651,109.0,60.0,40.0,False,,208.0345108249198,[],"[1720, 720]",ColorTask,31.0,53.0,,,HRV,HRV_0169,2022-11-30 18:34:01
,wl-rdm,61,188341,0.0-6.53-0.53,0.0,62.0,,,,,,,[],,,,,,50.0,1.0,u,0.0,False,1562.6000001430511,94.0,60.0,40.0,False,,392.4547376446461,[],"[1720, 720]",ColorTask,30.0,54.0,,,HRV,HRV_0169,2022-11-30 18:34:01
,wl-rdm,62,191493,0.0-6.54-0.54,0.0,63.0,,,,,,,[],,,,,,50.0,0.0,i,1.0,False,1873.2000000476837,113.0,60.0,40.0,False,,203.3611329864327,[],"[1720, 720]",ColorTask,29.0,55.0,,,HRV,HRV_0169,2022-11-30 18:34:01
,wl-rdm,63,193894,0.0-6.55-0.55,0.0,64.0,,,,,,,[],,,,,,73.6,1.0,i,1.0,True,1097.4000000953674,66.0,60.0,40.0,False,,246.3503078700253,[],"[1720, 720]",ColorTask,30.0,56.0,,,HRV,HRV_0169,2022-11-30 18:34:01
,wl-rdm,64,196912,0.0-6.56-0.56,0.0,65.0,,,,,,,[],,,,,,62.5,1.0,i,1.0,True,1748.6000001430511,105.0,60.0,40.0,False,,214.3377072674552,[],"[1720, 720]",ColorTask,31.0,57.0,,,HRV,HRV_0169,2022-11-30 18:34:01
,wl-rdm,65,198979,0.0-6.57-0.57,0.0,66.0,,,,,,,[],,,,,,73.6,0.0,u,0.0,True,707.4000000953674,43.0,60.0,40.0,False,,284.4021849150458,[],"[1720, 720]",ColorTask,32.0,58.0,,,HRV,HRV_0169,2022-11-30 18:34:01
,wl-rdm,66,202030,0.0-6.58-0.58,0.0,67.0,,,,,,,[],,,,,,50.0,1.0,i,1.0,True,1679.1000001430511,101.0,60.0,40.0,False,,308.9590988886107,[],"[1720, 720]",ColorTask,33.0,59.0,,,HRV,HRV_0169,2022-11-30 18:34:01
,wl-rdm,67,205265,0.0-6.59-0.59,0.0,68.0,,,,,,,[],,,,,,56.4,0.0,i,1.0,False,1903.7999999523163,115.0,60.0,40.0,False,,252.67626859626483,[],"[1720, 720]",ColorTask,32.0,60.0,,,HRV,HRV_0169,2022-11-30 18:34:01
,wl-rdm,68,207266,0.0-6.60-0.60,0.0,69.0,,,,,,,[],,,,,,73.6,0.0,u,0.0,True,723.0,44.0,60.0,40.0,False,,200.191214697713,[],"[1720, 720]",ColorTask,33.0,61.0,,,HRV,HRV_0169,2022-11-30 18:34:01
,wl-rdm,69,210417,0.0-6.61-0.61,0.0,70.0,,,,,,,[],,,,,,53.2,0.0,u,0.0,True,1747.7000000476837,105.0,60.0,40.0,False,,341.69826852964604,[],"[1720, 720]",ColorTask,34.0,62.0,,,HRV,HRV_0169,2022-11-30 18:34:01
,wl-rdm,70,212535,0.0-6.62-0.62,0.0,71.0,,,,,,,[],,,,,,73.6,0.0,u,0.0,True,749.7000000476837,45.0,60.0,40.0,False,,310.9005823092764,[],"[1720, 720]",ColorTask,35.0,63.0,,,HRV,HRV_0169,2022-11-30 18:34:01
,wl-rdm,71,214953,0.0-6.63-0.63,0.0,72.0,,,,,,,[],,,,,,53.2,1.0,u,0.0,False,957.7000000476837,58.0,60.0,40.0,False,,394.8483166612581,[],"[1720, 720]",ColorTask,34.0,64.0,,,HRV,HRV_0169,2022-11-30 18:34:01
,wl-rdm,72,217621,0.0-6.64-0.64,0.0,73.0,,,,,,,[],,,,,,56.4,0.0,u,0.0,True,1312.0999999046326,79.0,60.0,40.0,False,,289.4924054456459,[],"[1720, 720]",ColorTask,35.0,65.0,,,HRV,HRV_0169,2022-11-30 18:34:01
,wl-rdm,73,219505,0.0-6.65-0.65,0.0,74.0,,,,,,,[],,,,,,87.9,1.0,i,1.0,True,506.7000000476837,31.0,60.0,40.0,False,,300.59526890220087,[],"[1720, 720]",ColorTask,36.0,66.0,,,HRV,HRV_0169,2022-11-30 18:34:01
,wl-rdm,74,222873,0.0-6.66-0.66,0.0,75.0,,,,,,,[],,,,,,53.2,0.0,i,1.0,False,2086.5,126.0,60.0,40.0,False,,214.05916750755384,[],"[1720, 720]",ColorTask,35.0,67.0,,,HRV,HRV_0169,2022-11-30 18:34:01
,wl-rdm,75,225674,0.0-6.67-0.67,0.0,76.0,,,,,,,[],,,,,,56.4,1.0,i,1.0,True,1493.9000000953674,90.0,60.0,40.0,False,,233.73166773122443,[],"[1720, 720]",ColorTask,36.0,68.0,,,HRV,HRV_0169,2022-11-30 18:34:01
,wl-rdm,76,227608,0.0-6.68-0.68,0.0,77.0,,,,,,,[],,,,,,87.9,1.0,i,1.0,True,594.4000000953674,36.0,60.0,40.0,False,,281.7634590751958,[],"[1720, 720]",ColorTask,37.0,69.0,,,HRV,HRV_0169,2022-11-30 18:34:01
,wl-rdm,77,230910,0.0-6.69-0.69,0.0,78.0,,,,,,,[],,,,,,53.2,1.0,i,1.0,True,2000.7000000476837,120.0,60.0,40.0,False,,238.96068353608365,[],"[1720, 720]",ColorTask,38.0,70.0,,,HRV,HRV_0169,2022-11-30 18:34:01
,wl-rdm,78,233594,0.0-6.70-0.70,0.0,79.0,,,,,,,[],,,,,,56.4,1.0,i,1.0,True,1396.7999999523163,84.0,60.0,40.0,False,,226.93948314432998,[],"[1720, 720]",ColorTask,39.0,71.0,,,HRV,HRV_0169,2022-11-30 18:34:01
,wl-rdm,79,235645,0.0-6.71-0.71,0.0,80.0,,,,,,,[],,,,,,56.4,1.0,i,1.0,True,738.5999999046326,45.0,60.0,40.0,False,,243.54725049061386,[],"[1720, 720]",ColorTask,40.0,72.0,,,HRV,HRV_0169,2022-11-30 18:34:01
,wl-rdm,80,238496,0.0-6.72-0.72,0.0,81.0,,,,,,,[],,,,,,53.2,0.0,u,0.0,True,1533.0,92.0,60.0,40.0,False,,265.8927100912624,[],"[1720, 720]",ColorTask,41.0,73.0,,,HRV,HRV_0169,2022-11-30 18:34:01
,wl-rdm,81,240781,0.0-6.73-0.73,0.0,82.0,,,,,,,[],,,,,,50.0,0.0,u,0.0,True,1008.7000000476837,61.0,60.0,40.0,False,,215.3163324806323,[],"[1720, 720]",ColorTask,42.0,74.0,,,HRV,HRV_0169,2022-11-30 18:34:01
,wl-rdm,82,243282,0.0-6.74-0.74,0.0,83.0,,,,,,,[],,,,,,50.0,1.0,u,0.0,False,1209.8999998569489,73.0,60.0,40.0,False,,223.88839481624882,[],"[1720, 720]",ColorTask,41.0,75.0,,,HRV,HRV_0169,2022-11-30 18:34:01
,wl-rdm,83,246016,0.0-6.75-0.75,0.0,84.0,,,,,,,[],,,,,,62.5,0.0,u,0.0,True,1281.0,77.0,60.0,40.0,False,,399.52757586547614,[],"[1720, 720]",ColorTask,42.0,76.0,,,HRV,HRV_0169,2022-11-30 18:34:01
,wl-rdm,84,248668,0.0-6.76-0.76,0.0,85.0,,,,,,,[],,,,,,50.0,0.0,u,0.0,True,1353.3000001907349,82.0,60.0,40.0,False,,228.2614501362944,[],"[1720, 720]",ColorTask,43.0,77.0,,,HRV,HRV_0169,2022-11-30 18:34:01
,wl-rdm,85,252069,0.0-6.77-0.77,0.0,86.0,,,,,,,[],,,,,,53.2,1.0,i,1.0,True,1940.1000001430511,117.0,60.0,40.0,False,,390.98226583342955,[],"[1720, 720]",ColorTask,44.0,78.0,,,HRV,HRV_0169,2022-11-30 18:34:01
,wl-rdm,86,255587,0.0-6.78-0.78,0.0,87.0,,,,,,,[],,,,,,53.2,1.0,i,1.0,True,2212.7999999523163,133.0,60.0,40.0,False,,247.15502626716182,[],"[1720, 720]",ColorTask,45.0,79.0,,,HRV,HRV_0169,2022-11-30 18:34:01
,wl-rdm,87,258489,0.0-6.79-0.79,0.0,88.0,,,,,,,[],,,,,,50.0,1.0,u,0.0,False,1564.3000001907349,94.0,60.0,40.0,False,,278.6162891315878,[],"[1720, 720]",ColorTask,44.0,80.0,,,HRV,HRV_0169,2022-11-30 18:34:01
,wl-rdm,88,261290,0.0-6.80-0.80,0.0,89.0,,,,,,,[],,,,,,53.2,0.0,i,1.0,False,1368.7999999523163,83.0,60.0,40.0,False,,354.63831448743076,[],"[1720, 720]",ColorTask,43.0,81.0,,,HRV,HRV_0169,2022-11-30 18:34:01
,wl-rdm,89,263324,0.0-6.81-0.81,0.0,90.0,,,,,,,[],,,,,,73.6,0.0,u,0.0,True,669.7999999523163,41.0,60.0,40.0,False,,285.8107402909685,[],"[1720, 720]",ColorTask,44.0,82.0,,,HRV,HRV_0169,2022-11-30 18:34:01
,wl-rdm,90,267059,0.0-6.82-0.82,0.0,91.0,,,,,,,[],,,,,,53.2,0.0,u,0.0,True,2402.300000190735,145.0,60.0,40.0,False,,251.4943137839323,[],"[1720, 720]",ColorTask,45.0,83.0,,,HRV,HRV_0169,2022-11-30 18:34:01
,wl-rdm,91,269743,0.0-6.83-0.83,0.0,92.0,,,,,,,[],,,,,,50.0,0.0,u,0.0,True,1309.3000001907349,79.0,60.0,40.0,False,,316.0134867380972,[],"[1720, 720]",ColorTask,46.0,84.0,,,HRV,HRV_0169,2022-11-30 18:34:01
,wl-rdm,92,272445,0.0-6.84-0.84,0.0,93.0,,,,,,,[],,,,,,53.2,0.0,u,0.0,True,1373.7000000476837,83.0,60.0,40.0,False,,253.7117446363076,[],"[1720, 720]",ColorTask,47.0,85.0,,,HRV,HRV_0169,2022-11-30 18:34:01
,wl-rdm,93,274495,0.0-6.85-0.85,0.0,94.0,,,,,,,[],,,,,,62.5,1.0,i,1.0,True,768.5,47.0,60.0,40.0,False,,213.61358453896503,[],"[1720, 720]",ColorTask,48.0,86.0,,,HRV,HRV_0169,2022-11-30 18:34:01
,wl-rdm,94,276613,0.0-6.86-0.86,0.0,95.0,,,,,,,[],,,,,,73.6,0.0,u,0.0,True,777.8999998569489,47.0,60.0,40.0,False,,283.4725481963527,[],"[1720, 720]",ColorTask,49.0,87.0,,,HRV,HRV_0169,2022-11-30 18:34:01
,wl-rdm,95,278697,0.0-6.87-0.87,0.0,96.0,,,,,,,[],,,,,,62.5,0.0,u,0.0,True,737.2999999523163,45.0,60.0,40.0,False,,267.63560450899774,[],"[1720, 720]",ColorTask,50.0,88.0,,,HRV,HRV_0169,2022-11-30 18:34:01
,wl-rdm,96,280998,0.0-6.88-0.88,0.0,97.0,,,,,,,[],,,,,,62.5,0.0,u,0.0,True,855.2999999523163,52.0,60.0,40.0,False,,376.08050752752956,[],"[1720, 720]",ColorTask,51.0,89.0,,,HRV,HRV_0169,2022-11-30 18:34:01
,wl-rdm,97,283633,0.0-6.89-0.89,0.0,98.0,,,,,,,[],,,,,,56.4,0.0,u,0.0,True,1228.4000000953674,74.0,60.0,40.0,False,,341.0566100988294,[],"[1720, 720]",ColorTask,52.0,90.0,,,HRV,HRV_0169,2022-11-30 18:34:01
,wl-rdm,98,285517,0.0-6.90-0.90,0.0,99.0,,,,,,,[],,,,,,87.9,0.0,u,0.0,True,545.5999999046326,33.0,60.0,40.0,False,,277.76158558308026,[],"[1720, 720]",ColorTask,53.0,91.0,,,HRV,HRV_0169,2022-11-30 18:34:01
,wl-rdm,99,287251,0.0-6.91-0.91,0.0,100.0,,,,,,,[],,,,,,87.9,0.0,u,0.0,True,448.5,27.0,60.0,40.0,False,,229.95683847434668,[],"[1720, 720]",ColorTask,54.0,92.0,,,HRV,HRV_0169,2022-11-30 18:34:01
,wl-rdm,100,289269,0.0-6.92-0.92,0.0,101.0,,,,,,,[],,,,,,53.2,1.0,u,0.0,False,750.2000000476837,45.0,60.0,40.0,False,,216.3422474007548,[],"[1720, 720]",ColorTask,53.0,93.0,,,HRV,HRV_0169,2022-11-30 18:34:01
,wl-rdm,101,291169,0.0-6.93-0.93,0.0,102.0,,,,,,,[],,,,,,87.9,1.0,i,1.0,True,625.6000001430511,38.0,60.0,40.0,False,,210.1234625863414,[],"[1720, 720]",ColorTask,54.0,94.0,,,HRV,HRV_0169,2022-11-30 18:34:01
,wl-rdm,102,293104,0.0-6.94-0.94,0.0,103.0,,,,,,,[],,,,,,87.9,1.0,i,1.0,True,518.0999999046326,31.0,60.0,40.0,False,,350.6276051881381,[],"[1720, 720]",ColorTask,55.0,95.0,,,HRV,HRV_0169,2022-11-30 18:34:01
,wl-rdm,103,294938,0.0-6.95-0.95,0.0,104.0,,,,,,,[],,,,,,73.6,1.0,i,1.0,True,554.6000001430511,34.0,60.0,40.0,False,,210.09396474741365,[],"[1720, 720]",ColorTask,56.0,96.0,,,HRV,HRV_0169,2022-11-30 18:34:01
,wl-rdm,104,297656,0.0-6.96-0.96,0.0,105.0,,,,,,,[],,,,,,56.4,1.0,u,0.0,False,1408.1000001430511,85.0,60.0,40.0,False,,245.53765635797893,[],"[1720, 720]",ColorTask,55.0,97.0,,,HRV,HRV_0169,2022-11-30 18:34:01
,wl-rdm,105,300740,0.0-6.97-0.97,0.0,106.0,,,,,,,[],,,,,,56.4,1.0,u,0.0,False,1744.8000001907349,105.0,60.0,40.0,False,,276.05641305207797,[],"[1720, 720]",ColorTask,54.0,98.0,,,HRV,HRV_0169,2022-11-30 18:34:01
,wl-rdm,106,303642,0.0-6.98-0.98,0.0,107.0,,,,,,,[],,,,,,56.4,1.0,i,1.0,True,1522.8000001907349,92.0,60.0,40.0,False,,303.4701891354255,[],"[1720, 720]",ColorTask,55.0,99.0,,,HRV,HRV_0169,2022-11-30 18:34:01
,wl-rdm,107,305559,0.0-6.99-0.99,0.0,108.0,,,,,,,[],,,,,,73.6,1.0,i,1.0,True,605.2000000476837,37.0,60.0,40.0,False,,237.93035744865935,[],"[1720, 720]",ColorTask,56.0,100.0,,,HRV,HRV_0169,2022-11-30 18:34:01
,wl-rdm,108,307894,0.0-6.100-0.100,0.0,109.0,,,,,,,[],,,,,,50.0,0.0,u,0.0,True,1049.5999999046326,63.0,60.0,40.0,False,,221.48879997769947,[],"[1720, 720]",ColorTask,57.0,101.0,,,HRV,HRV_0169,2022-11-30 18:34:01
,wl-rdm,109,309844,0.0-6.101-0.101,0.0,110.0,,,,,,,[],,,,,,73.6,0.0,u,0.0,True,647.4000000953674,39.0,60.0,40.0,False,,260.68329570936953,[],"[1720, 720]",ColorTask,58.0,102.0,,,HRV,HRV_0169,2022-11-30 18:34:01
,wl-rdm,110,312562,0.0-6.102-0.102,0.0,111.0,,,,,,,[],,,,,,50.0,0.0,u,0.0,True,1404.5,85.0,60.0,40.0,False,,237.86278942276914,[],"[1720, 720]",ColorTask,59.0,103.0,,,HRV,HRV_0169,2022-11-30 18:34:01
,wl-rdm,111,314513,0.0-6.103-0.103,0.0,112.0,,,,,,,[],,,,,,73.6,1.0,i,1.0,True,528.0,32.0,60.0,40.0,False,,351.51466697579514,[],"[1720, 720]",ColorTask,60.0,104.0,,,HRV,HRV_0169,2022-11-30 18:34:01
,wl-rdm,112,316431,0.0-6.104-0.104,0.0,113.0,,,,,,,[],,,,,,87.9,1.0,i,1.0,True,477.40000009536743,29.0,60.0,40.0,False,,381.0446123116757,[],"[1720, 720]",ColorTask,61.0,105.0,,,HRV,HRV_0169,2022-11-30 18:34:01
,wl-rdm,113,319133,0.0-6.105-0.105,0.0,114.0,,,,,,,[],,,,,,87.9,0.0,u,0.0,True,1253.8000001907349,76.0,60.0,40.0,False,,369.2880529078003,[],"[1720, 720]",ColorTask,62.0,106.0,,,HRV,HRV_0169,2022-11-30 18:34:01
,wl-rdm,114,322067,0.0-6.106-0.106,0.0,115.0,,,,,,,[],,,,,,53.2,1.0,i,1.0,True,1539.7000000476837,93.0,60.0,40.0,False,,331.4865374271185,[],"[1720, 720]",ColorTask,63.0,107.0,,,HRV,HRV_0169,2022-11-30 18:34:01
,wl-rdm,115,324135,0.0-6.107-0.107,0.0,116.0,,,,,,,[],,,,,,87.9,0.0,u,0.0,True,704.5,43.0,60.0,40.0,False,,292.94083066713836,[],"[1720, 720]",ColorTask,64.0,108.0,,,HRV,HRV_0169,2022-11-30 18:34:01
,wl-html-keyboard-response,116,331678,0.0-7.0-0.0,1.0,117.0,,,,,,,,5534.299999952316,1.0,0,,,,,,,,,,,,,,,,,,,,,,HRV,HRV_0169,2022-11-30 18:34:01
,wl-rdm,117,333572,0.0-8.0-0.0,1.0,118.0,,,,,,,[],,,,,,73.6,1.0,i,1.0,True,537.2999999523163,33.0,60.0,40.0,False,,289.2827000560206,[],"[1720, 720]",ColorTask,65.0,1.0,,,HRV,HRV_0169,2022-11-30 18:34:01
,wl-rdm,118,336407,0.0-8.1-0.1,1.0,119.0,,,,,,,[],,,,,,53.2,1.0,u,0.0,False,1439.0999999046326,87.0,60.0,40.0,False,,318.43139968934526,[],"[1720, 720]",ColorTask,64.0,2.0,,,HRV,HRV_0169,2022-11-30 18:34:01
,wl-rdm,119,338458,0.0-8.2-0.2,1.0,120.0,,,,,,,[],,,,,,87.9,0.0,u,0.0,True,608.5,37.0,60.0,40.0,False,,368.5860530070745,[],"[1720, 720]",ColorTask,65.0,3.0,,,HRV,HRV_0169,2022-11-30 18:34:01
,wl-rdm,120,340209,0.0-8.3-0.3,1.0,121.0,,,,,,,[],,,,,,62.5,1.0,i,1.0,True,467.2999999523163,29.0,60.0,40.0,False,,200.9789076825413,[],"[1720, 720]",ColorTask,66.0,4.0,,,HRV,HRV_0169,2022-11-30 18:34:01
,wl-rdm,121,342760,0.0-8.4-0.4,1.0,122.0,,,,,,,[],,,,,,62.5,0.0,u,0.0,True,1108.7999999523163,67.0,60.0,40.0,False,,382.5191071234108,[],"[1720, 720]",ColorTask,67.0,5.0,,,HRV,HRV_0169,2022-11-30 18:34:01
,wl-rdm,122,345411,0.0-8.5-0.5,1.0,123.0,,,,,,,[],,,,,,50.0,0.0,u,0.0,True,1247.9000000953674,75.0,60.0,40.0,False,,341.1555621179208,[],"[1720, 720]",ColorTask,68.0,6.0,,,HRV,HRV_0169,2022-11-30 18:34:01
,wl-rdm,123,347779,0.0-8.6-0.6,1.0,124.0,,,,,,,[],,,,,,62.5,1.0,i,1.0,True,947.2000000476837,57.0,60.0,40.0,False,,364.4649739374636,[],"[1720, 720]",ColorTask,69.0,7.0,,,HRV,HRV_0169,2022-11-30 18:34:01
,wl-rdm,124,350030,0.0-8.7-0.7,1.0,125.0,,,,,,,[],,,,,,62.5,0.0,u,0.0,True,785.0999999046326,48.0,60.0,40.0,False,,395.0305684093083,[],"[1720, 720]",ColorTask,70.0,8.0,,,HRV,HRV_0169,2022-11-30 18:34:01
,wl-rdm,125,352064,0.0-8.8-0.8,1.0,126.0,,,,,,,[],,,,,,50.0,1.0,u,0.0,False,779.0,47.0,60.0,40.0,False,,214.13888132690408,[],"[1720, 720]",ColorTask,69.0,9.0,,,HRV,HRV_0169,2022-11-30 18:34:01
,wl-rdm,126,354048,0.0-8.9-0.9,1.0,127.0,,,,,,,[],,,,,,87.9,1.0,i,1.0,True,558.2000000476837,34.0,60.0,40.0,False,,362.63360692588566,[],"[1720, 720]",ColorTask,70.0,10.0,,,HRV,HRV_0169,2022-11-30 18:34:01
,wl-rdm,127,356749,0.0-8.10-0.10,1.0,128.0,,,,,,,[],,,,,,56.4,0.0,u,0.0,True,1335.9000000953674,81.0,60.0,40.0,False,,296.6660180759108,[],"[1720, 720]",ColorTask,71.0,11.0,,,HRV,HRV_0169,2022-11-30 18:34:01
,wl-rdm,128,359067,0.0-8.11-0.11,1.0,129.0,,,,,,,[],,,,,,56.4,0.0,u,0.0,True,927.2000000476837,56.0,60.0,40.0,False,,328.56106160839954,[],"[1720, 720]",ColorTask,72.0,12.0,,,HRV,HRV_0169,2022-11-30 18:34:01
,wl-rdm,129,361485,0.0-8.12-0.12,1.0,130.0,,,,,,,[],,,,,,50.0,1.0,u,0.0,False,1029.5999999046326,62.0,60.0,40.0,False,,333.21002947392657,[],"[1720, 720]",ColorTask,71.0,13.0,,,HRV,HRV_0169,2022-11-30 18:34:01
,wl-rdm,130,363586,0.0-8.13-0.13,1.0,131.0,,,,,,,[],,,,,,73.6,0.0,u,0.0,True,634.1999998092651,39.0,60.0,40.0,False,,388.7738536492767,[],"[1720, 720]",ColorTask,72.0,14.0,,,HRV,HRV_0169,2022-11-30 18:34:01
,wl-rdm,131,365970,0.0-8.14-0.14,1.0,132.0,,,,,,,[],,,,,,62.5,0.0,u,0.0,True,1032.2999999523163,62.0,60.0,40.0,False,,283.8975341675914,[],"[1720, 720]",ColorTask,73.0,15.0,,,HRV,HRV_0169,2022-11-30 18:34:01
,wl-rdm,132,368204,0.0-8.15-0.15,1.0,133.0,,,,,,,[],,,,,,73.6,1.0,i,1.0,True,841.5999999046326,51.0,60.0,40.0,False,,318.98511938584426,[],"[1720, 720]",ColorTask,74.0,16.0,,,HRV,HRV_0169,2022-11-30 18:34:01
,wl-rdm,133,371739,0.0-8.16-0.16,1.0,134.0,,,,,,,[],,,,,,53.2,1.0,i,1.0,True,2232.699999809265,134.0,60.0,40.0,False,,233.556184867215,[],"[1720, 720]",ColorTask,75.0,17.0,,,HRV,HRV_0169,2022-11-30 18:34:01
,wl-rdm,134,373607,0.0-8.17-0.17,1.0,135.0,,,,,,,[],,,,,,87.9,1.0,i,1.0,True,576.3999998569489,35.0,60.0,40.0,False,,217.0035601012187,[],"[1720, 720]",ColorTask,76.0,18.0,,,HRV,HRV_0169,2022-11-30 18:34:01
,wl-rdm,135,375391,0.0-8.18-0.18,1.0,136.0,,,,,,,[],,,,,,87.9,1.0,i,1.0,True,434.7999999523163,27.0,60.0,40.0,False,,271.03072545296965,[],"[1720, 720]",ColorTask,77.0,19.0,,,HRV,HRV_0169,2022-11-30 18:34:01
,wl-rdm,136,377192,0.0-8.19-0.19,1.0,137.0,,,,,,,[],,,,,,87.9,0.0,u,0.0,True,503.7999999523163,31.0,60.0,40.0,False,,222.4688427987859,[],"[1720, 720]",ColorTask,78.0,20.0,,,HRV,HRV_0169,2022-11-30 18:34:01
,wl-rdm,137,379609,0.0-8.20-0.20,1.0,138.0,,,,,,,[],,,,,,73.6,1.0,i,1.0,True,959.2999999523163,58.0,60.0,40.0,False,,389.556693364203,[],"[1720, 720]",ColorTask,79.0,21.0,,,HRV,HRV_0169,2022-11-30 18:34:01
,wl-rdm,138,381560,0.0-8.21-0.21,1.0,139.0,,,,,,,[],,,,,,73.6,0.0,u,0.0,True,606.2999999523163,37.0,60.0,40.0,False,,279.7607442792695,[],"[1720, 720]",ColorTask,80.0,22.0,,,HRV,HRV_0169,2022-11-30 18:34:01
,wl-rdm,139,383444,0.0-8.22-0.22,1.0,140.0,,,,,,,[],,,,,,73.6,1.0,i,1.0,True,519.7999999523163,32.0,60.0,40.0,False,,298.29921969242133,[],"[1720, 720]",ColorTask,81.0,23.0,,,HRV,HRV_0169,2022-11-30 18:34:01
,wl-rdm,140,385545,0.0-8.23-0.23,1.0,141.0,,,,,,,[],,,,,,53.2,0.0,u,0.0,True,702.2999997138977,43.0,60.0,40.0,False,,319.9879952553475,[],"[1720, 720]",ColorTask,82.0,24.0,,,HRV,HRV_0169,2022-11-30 18:34:01
,wl-rdm,141,388146,0.0-8.24-0.24,1.0,142.0,,,,,,,[],,,,,,50.0,1.0,u,0.0,False,1253.2999999523163,76.0,60.0,40.0,False,,278.424536739033,[],"[1720, 720]",ColorTask,81.0,25.0,,,HRV,HRV_0169,2022-11-30 18:34:01
,wl-rdm,142,392198,0.0-8.25-0.25,1.0,143.0,,,,,,,[],,,,,,56.4,0.0,u,0.0,True,2683.899999856949,161.0,60.0,40.0,False,,300.6240256528003,[],"[1720, 720]",ColorTask,82.0,26.0,,,HRV,HRV_0169,2022-11-30 18:34:01
,wl-rdm,143,394216,0.0-8.26-0.26,1.0,144.0,,,,,,,[],,,,,,73.6,0.0,u,0.0,True,683.5,41.0,60.0,40.0,False,,272.34381376367054,[],"[1720, 720]",ColorTask,83.0,27.0,,,HRV,HRV_0169,2022-11-30 18:34:01
,wl-rdm,144,396933,0.0-8.27-0.27,1.0,145.0,,,,,,,[],,,,,,53.2,0.0,u,0.0,True,1435.5,87.0,60.0,40.0,False,,208.2181538944148,[],"[1720, 720]",ColorTask,84.0,28.0,,,HRV,HRV_0169,2022-11-30 18:34:01
,wl-rdm,145,398851,0.0-8.28-0.28,1.0,146.0,,,,,,,[],,,,,,73.6,0.0,u,0.0,True,540.5999999046326,33.0,60.0,40.0,False,,300.97686092325694,[],"[1720, 720]",ColorTask,85.0,29.0,,,HRV,HRV_0169,2022-11-30 18:34:01
,wl-rdm,146,401019,0.0-8.29-0.29,1.0,147.0,,,,,,,[],,,,,,53.2,0.0,u,0.0,True,748.0999999046326,45.0,60.0,40.0,False,,350.35229745498,[],"[1720, 720]",ColorTask,86.0,30.0,,,HRV,HRV_0169,2022-11-30 18:34:01
,wl-rdm,147,403853,0.0-8.30-0.30,1.0,148.0,,,,,,,[],,,,,,53.2,1.0,i,1.0,True,1410.3999998569489,85.0,60.0,40.0,False,,353.807059415127,[],"[1720, 720]",ColorTask,87.0,31.0,,,HRV,HRV_0169,2022-11-30 18:34:01
,wl-rdm,148,406421,0.0-8.31-0.31,1.0,149.0,,,,,,,[],,,,,,62.5,1.0,i,1.0,True,1255.6999998092651,76.0,60.0,40.0,False,,243.43621604003823,[],"[1720, 720]",ColorTask,88.0,32.0,,,HRV,HRV_0169,2022-11-30 18:34:01
,wl-rdm,149,408655,0.0-8.32-0.32,1.0,150.0,,,,,,,[],,,,,,53.2,1.0,i,1.0,True,951.1999998092651,58.0,60.0,40.0,False,,209.4550347537773,[],"[1720, 720]",ColorTask,89.0,33.0,,,HRV,HRV_0169,2022-11-30 18:34:01
,wl-rdm,150,410523,0.0-8.33-0.33,1.0,151.0,,,,,,,[],,,,,,87.9,0.0,u,0.0,True,598.7999999523163,36.0,60.0,40.0,False,,215.04119051589035,[],"[1720, 720]",ColorTask,90.0,34.0,,,HRV,HRV_0169,2022-11-30 18:34:01
,wl-rdm,151,413457,0.0-8.34-0.34,1.0,152.0,,,,,,,[],,,,,,53.2,0.0,i,1.0,False,1636.7999997138977,99.0,60.0,40.0,False,,231.46481262448836,[],"[1720, 720]",ColorTask,89.0,35.0,,,HRV,HRV_0169,2022-11-30 18:34:01
,wl-rdm,152,415291,0.0-8.35-0.35,1.0,153.0,,,,,,,[],,,,,,87.9,1.0,i,1.0,True,476.39999985694885,29.0,60.0,40.0,False,,287.78172115058135,[],"[1720, 720]",ColorTask,90.0,36.0,,,HRV,HRV_0169,2022-11-30 18:34:01
,wl-rdm,153,417926,0.0-8.36-0.36,1.0,154.0,,,,,,,[],,,,,,62.5,1.0,i,1.0,True,1335.0,81.0,60.0,40.0,False,,226.03378572796237,[],"[1720, 720]",ColorTask,91.0,37.0,,,HRV,HRV_0169,2022-11-30 18:34:01
,wl-rdm,154,419827,0.0-8.37-0.37,1.0,155.0,,,,,,,[],,,,,,87.9,1.0,i,1.0,True,523.0999999046326,32.0,60.0,40.0,False,,302.2655085002947,[],"[1720, 720]",ColorTask,92.0,38.0,,,HRV,HRV_0169,2022-11-30 18:34:01
,wl-rdm,155,421861,0.0-8.38-0.38,1.0,156.0,,,,,,,[],,,,,,73.6,0.0,u,0.0,True,717.8999998569489,44.0,60.0,40.0,False,,246.22664741766727,[],"[1720, 720]",ColorTask,93.0,39.0,,,HRV,HRV_0169,2022-11-30 18:34:01
,wl-rdm,156,424279,0.0-8.39-0.39,1.0,157.0,,,,,,,[],,,,,,53.2,0.0,u,0.0,True,1101.6999998092651,67.0,60.0,40.0,False,,239.72226312788342,[],"[1720, 720]",ColorTask,94.0,40.0,,,HRV,HRV_0169,2022-11-30 18:34:01
,wl-rdm,157,426146,0.0-8.40-0.40,1.0,158.0,,,,,,,[],,,,,,62.5,1.0,i,1.0,True,558.1000001430511,34.0,60.0,40.0,False,,236.32265351906648,[],"[1720, 720]",ColorTask,95.0,41.0,,,HRV,HRV_0169,2022-11-30 18:34:01
,wl-rdm,158,428714,0.0-8.41-0.41,1.0,159.0,,,,,,,[],,,,,,73.6,1.0,i,1.0,True,1179.2000000476837,71.0,60.0,40.0,False,,326.47829274122455,[],"[1720, 720]",ColorTask,96.0,42.0,,,HRV,HRV_0169,2022-11-30 18:34:01
,wl-rdm,159,431432,0.0-8.42-0.42,1.0,160.0,,,,,,,[],,,,,,50.0,0.0,u,0.0,True,1374.3999998569489,83.0,60.0,40.0,False,,269.6158747333942,[],"[1720, 720]",ColorTask,97.0,43.0,,,HRV,HRV_0169,2022-11-30 18:34:01
,wl-rdm,160,434016,0.0-8.43-0.43,1.0,161.0,,,,,,,[],,,,,,56.4,1.0,u,0.0,False,1157.1999998092651,70.0,60.0,40.0,False,,358.6831200874058,[],"[1720, 720]",ColorTask,96.0,44.0,,,HRV,HRV_0169,2022-11-30 18:34:01
,wl-rdm,161,436017,0.0-8.44-0.44,1.0,162.0,,,,,,,[],,,,,,87.9,1.0,i,1.0,True,587.4000000953674,36.0,60.0,40.0,False,,343.68949651838943,[],"[1720, 720]",ColorTask,97.0,45.0,,,HRV,HRV_0169,2022-11-30 18:34:01
,wl-rdm,162,438685,0.0-8.45-0.45,1.0,163.0,,,,,,,[],,,,,,53.2,1.0,u,0.0,False,1287.9000000953674,78.0,60.0,40.0,False,,307.30957854378516,[],"[1720, 720]",ColorTask,96.0,46.0,,,HRV,HRV_0169,2022-11-30 18:34:01
,wl-rdm,163,441120,0.0-8.46-0.46,1.0,164.0,,,,,,,[],,,,,,50.0,1.0,u,0.0,False,993.3999998569489,60.0,60.0,40.0,False,,381.5574741531763,[],"[1720, 720]",ColorTask,95.0,47.0,,,HRV,HRV_0169,2022-11-30 18:34:01
,wl-rdm,164,444054,0.0-8.47-0.47,1.0,165.0,,,,,,,[],,,,,,56.4,0.0,i,1.0,False,1499.7999999523163,90.0,60.0,40.0,False,,378.2185668877133,[],"[1720, 720]",ColorTask,94.0,48.0,,,HRV,HRV_0169,2022-11-30 18:34:01
,wl-rdm,165,446839,0.0-8.48-0.48,1.0,166.0,,,,,,,[],,,,,,50.0,0.0,u,0.0,True,1516.0999999046326,91.0,60.0,40.0,False,,202.08873667588205,[],"[1720, 720]",ColorTask,95.0,49.0,,,HRV,HRV_0169,2022-11-30 18:34:01
,wl-rdm,166,448606,0.0-8.49-0.49,1.0,167.0,,,,,,,[],,,,,,87.9,1.0,i,1.0,True,480.69999980926514,29.0,60.0,40.0,False,,229.1003514039372,[],"[1720, 720]",ColorTask,96.0,50.0,,,HRV,HRV_0169,2022-11-30 18:34:01
,wl-rdm,167,451374,0.0-8.50-0.50,1.0,168.0,,,,,,,[],,,,,,56.4,1.0,u,0.0,False,1463.7000000476837,88.0,60.0,40.0,False,,248.0579568708215,[],"[1720, 720]",ColorTask,95.0,51.0,,,HRV,HRV_0169,2022-11-30 18:34:01
,wl-rdm,168,453925,0.0-8.51-0.51,1.0,169.0,,,,,,,[],,,,,,50.0,1.0,i,1.0,True,1102.4000000953674,67.0,60.0,40.0,False,,383.48970340309484,[],"[1720, 720]",ColorTask,96.0,52.0,,,HRV,HRV_0169,2022-11-30 18:34:01
,wl-rdm,169,455793,0.0-8.52-0.52,1.0,170.0,,,,,,,[],,,,,,87.9,0.0,u,0.0,True,586.9999997615814,36.0,60.0,40.0,False,,204.5512764579179,[],"[1720, 720]",ColorTask,97.0,53.0,,,HRV,HRV_0169,2022-11-30 18:34:01
,wl-rdm,170,457977,0.0-8.53-0.53,1.0,171.0,,,,,,,[],,,,,,50.0,0.0,i,1.0,False,894.9000000953674,54.0,60.0,40.0,False,,220.3910505535909,[],"[1720, 720]",ColorTask,96.0,54.0,,,HRV,HRV_0169,2022-11-30 18:34:01
,wl-rdm,171,460928,0.0-8.54-0.54,1.0,172.0,,,,,,,[],,,,,,50.0,1.0,u,0.0,False,1629.2000000476837,98.0,60.0,40.0,False,,256.17672279863336,[],"[1720, 720]",ColorTask,95.0,55.0,,,HRV,HRV_0169,2022-11-30 18:34:01
,wl-rdm,172,463596,0.0-8.55-0.55,1.0,173.0,,,,,,,[],,,,,,56.4,0.0,u,0.0,True,1300.7000000476837,79.0,60.0,40.0,False,,284.8337781841085,[],"[1720, 720]",ColorTask,96.0,56.0,,,HRV,HRV_0169,2022-11-30 18:34:01
,wl-rdm,173,465414,0.0-8.56-0.56,1.0,174.0,,,,,,,[],,,,,,87.9,0.0,u,0.0,True,532.5,32.0,60.0,40.0,False,,227.93422153265402,[],"[1720, 720]",ColorTask,97.0,57.0,,,HRV,HRV_0169,2022-11-30 18:34:01
,wl-rdm,174,467181,0.0-8.57-0.57,1.0,175.0,,,,,,,[],,,,,,87.9,0.0,u,0.0,True,470.0,29.0,60.0,40.0,False,,225.00612746914084,[],"[1720, 720]",ColorTask,98.0,58.0,,,HRV,HRV_0169,2022-11-30 18:34:01
,wl-rdm,175,469015,0.0-8.58-0.58,1.0,176.0,,,,,,,[],,,,,,73.6,0.0,u,0.0,True,464.2000000476837,28.0,60.0,40.0,False,,302.14339692649844,[],"[1720, 720]",ColorTask,99.0,59.0,,,HRV,HRV_0169,2022-11-30 18:34:01
,wl-rdm,176,471116,0.0-8.59-0.59,1.0,177.0,,,,,,,[],,,,,,62.5,1.0,i,1.0,True,698.6000001430511,42.0,60.0,40.0,False,,334.97987362939847,[],"[1720, 720]",ColorTask,100.0,60.0,,,HRV,HRV_0169,2022-11-30 18:34:01
,wl-rdm,177,473117,0.0-8.60-0.60,1.0,178.0,,,,,,,[],,,,,,73.6,1.0,i,1.0,True,709.7000000476837,43.0,60.0,40.0,False,,231.5747993264695,[],"[1720, 720]",ColorTask,101.0,61.0,,,HRV,HRV_0169,2022-11-30 18:34:01
,wl-rdm,178,474934,0.0-8.61-0.61,1.0,179.0,,,,,,,[],,,,,,87.9,0.0,u,0.0,True,546.2999999523163,33.0,60.0,40.0,False,,200.9225694916422,[],"[1720, 720]",ColorTask,102.0,62.0,,,HRV,HRV_0169,2022-11-30 18:34:01
,wl-rdm,179,477185,0.0-8.62-0.62,1.0,180.0,,,,,,,[],,,,,,53.2,0.0,u,0.0,True,891.4000000953674,54.0,60.0,40.0,False,,286.55487780175815,[],"[1720, 720]",ColorTask,103.0,63.0,,,HRV,HRV_0169,2022-11-30 18:34:01
,wl-rdm,180,478969,0.0-8.63-0.63,1.0,181.0,,,,,,,[],,,,,,87.9,0.0,u,0.0,True,404.5,25.0,60.0,40.0,False,,295.27013241121773,[],"[1720, 720]",ColorTask,104.0,64.0,,,HRV,HRV_0169,2022-11-30 18:34:01
,wl-rdm,181,482154,0.0-8.64-0.64,1.0,182.0,,,,,,,[],,,,,,53.2,1.0,i,1.0,True,1865.6000001430511,112.0,60.0,40.0,False,,258.62073949133213,[],"[1720, 720]",ColorTask,105.0,65.0,,,HRV,HRV_0169,2022-11-30 18:34:01
,wl-rdm,182,484555,0.0-8.65-0.65,1.0,183.0,,,,,,,[],,,,,,62.5,1.0,i,1.0,True,1109.2999999523163,67.0,60.0,40.0,False,,218.30526397693953,[],"[1720, 720]",ColorTask,106.0,66.0,,,HRV,HRV_0169,2022-11-30 18:34:01
,wl-rdm,183,486556,0.0-8.66-0.66,1.0,184.0,,,,,,,[],,,,,,56.4,1.0,i,1.0,True,690.5999999046326,42.0,60.0,40.0,False,,248.3328088611379,[],"[1720, 720]",ColorTask,107.0,67.0,,,HRV,HRV_0169,2022-11-30 18:34:01
,wl-rdm,184,488724,0.0-8.67-0.67,1.0,185.0,,,,,,,[],,,,,,56.4,0.0,u,0.0,True,890.0,54.0,60.0,40.0,False,,215.48128102563163,[],"[1720, 720]",ColorTask,108.0,68.0,,,HRV,HRV_0169,2022-11-30 18:34:01
,wl-rdm,185,491125,0.0-8.68-0.68,1.0,186.0,,,,,,,[],,,,,,50.0,0.0,u,0.0,True,1015.7999999523163,61.0,60.0,40.0,False,,323.4227369633825,[],"[1720, 720]",ColorTask,109.0,69.0,,,HRV,HRV_0169,2022-11-30 18:34:01
,wl-rdm,186,493476,0.0-8.69-0.69,1.0,187.0,,,,,,,[],,,,,,50.0,1.0,u,0.0,False,1061.6000001430511,64.0,60.0,40.0,False,,220.70982676442765,[],"[1720, 720]",ColorTask,108.0,70.0,,,HRV,HRV_0169,2022-11-30 18:34:01
,wl-rdm,187,496144,0.0-8.70-0.70,1.0,188.0,,,,,,,[],,,,,,53.2,1.0,i,1.0,True,1378.7000000476837,83.0,60.0,40.0,False,,227.55644166931688,[],"[1720, 720]",ColorTask,109.0,71.0,,,HRV,HRV_0169,2022-11-30 18:34:01
,wl-rdm,188,498161,0.0-8.71-0.71,1.0,189.0,,,,,,,[],,,,,,53.2,1.0,u,0.0,False,749.7000000476837,45.0,60.0,40.0,False,,211.72115919067727,[],"[1720, 720]",ColorTask,108.0,72.0,,,HRV,HRV_0169,2022-11-30 18:34:01
,wl-rdm,189,500145,0.0-8.72-0.72,1.0,190.0,,,,,,,[],,,,,,73.6,0.0,u,0.0,True,537.2999999523163,33.0,60.0,40.0,False,,377.62470245356224,[],"[1720, 720]",ColorTask,109.0,73.0,,,HRV,HRV_0169,2022-11-30 18:34:01
,wl-rdm,190,502396,0.0-8.73-0.73,1.0,191.0,,,,,,,[],,,,,,73.6,1.0,i,1.0,True,787.2999999523163,48.0,60.0,40.0,False,,384.88225826296065,[],"[1720, 720]",ColorTask,110.0,74.0,,,HRV,HRV_0169,2022-11-30 18:34:01
,wl-rdm,191,504431,0.0-8.74-0.74,1.0,192.0,,,,,,,[],,,,,,73.6,0.0,u,0.0,True,730.2999999523163,44.0,60.0,40.0,False,,238.5433796712076,[],"[1720, 720]",ColorTask,111.0,75.0,,,HRV,HRV_0169,2022-11-30 18:34:01
,wl-rdm,192,506665,0.0-8.75-0.75,1.0,193.0,,,,,,,[],,,,,,53.2,0.0,u,0.0,True,942.0,57.0,60.0,40.0,False,,220.90024215898868,[],"[1720, 720]",ColorTask,112.0,76.0,,,HRV,HRV_0169,2022-11-30 18:34:01
,wl-rdm,193,508799,0.0-8.76-0.76,1.0,194.0,,,,,,,[],,,,,,53.2,0.0,u,0.0,True,674.7999999523163,41.0,60.0,40.0,False,,388.9935962949225,[],"[1720, 720]",ColorTask,113.0,77.0,,,HRV,HRV_0169,2022-11-30 18:34:01
,wl-rdm,194,510883,0.0-8.77-0.77,1.0,195.0,,,,,,,[],,,,,,62.5,1.0,i,1.0,True,725.5999999046326,44.0,60.0,40.0,False,,294.473606457025,[],"[1720, 720]",ColorTask,114.0,78.0,,,HRV,HRV_0169,2022-11-30 18:34:01
,wl-rdm,195,513134,0.0-8.78-0.78,1.0,196.0,,,,,,,[],,,,,,73.6,1.0,i,1.0,True,912.0,55.0,60.0,40.0,False,,282.33230657324833,[],"[1720, 720]",ColorTask,115.0,79.0,,,HRV,HRV_0169,2022-11-30 18:34:01
,wl-rdm,196,515285,0.0-8.79-0.79,1.0,197.0,,,,,,,[],,,,,,62.5,0.0,u,0.0,True,789.2000000476837,48.0,60.0,40.0,False,,284.74954956200315,[],"[1720, 720]",ColorTask,116.0,80.0,,,HRV,HRV_0169,2022-11-30 18:34:01
,wl-rdm,197,517269,0.0-8.80-0.80,1.0,198.0,,,,,,,[],,,,,,56.4,1.0,i,1.0,True,590.9000000953674,36.0,60.0,40.0,False,,317.2973956937259,[],"[1720, 720]",ColorTask,117.0,81.0,,,HRV,HRV_0169,2022-11-30 18:34:01
,wl-rdm,198,519154,0.0-8.81-0.81,1.0,199.0,,,,,,,[],,,,,,62.5,0.0,u,0.0,True,558.6000001430511,34.0,60.0,40.0,False,,256.4160615433144,[],"[1720, 720]",ColorTask,118.0,82.0,,,HRV,HRV_0169,2022-11-30 18:34:01
,wl-rdm,199,521021,0.0-8.82-0.82,1.0,200.0,,,,,,,[],,,,,,62.5,0.0,u,0.0,True,573.7999999523163,35.0,60.0,40.0,False,,222.15653770431933,[],"[1720, 720]",ColorTask,119.0,83.0,,,HRV,HRV_0169,2022-11-30 18:34:01
,wl-rdm,200,523072,0.0-8.83-0.83,1.0,201.0,,,,,,,[],,,,,,56.4,0.0,u,0.0,True,635.5,39.0,60.0,40.0,False,,347.20487582478427,[],"[1720, 720]",ColorTask,120.0,84.0,,,HRV,HRV_0169,2022-11-30 18:34:01
,wl-rdm,201,524823,0.0-8.84-0.84,1.0,202.0,,,,,,,[],,,,,,87.9,0.0,u,0.0,True,463.2999999523163,28.0,60.0,40.0,False,,231.83060352970017,[],"[1720, 720]",ColorTask,121.0,85.0,,,HRV,HRV_0169,2022-11-30 18:34:01
,wl-rdm,202,526624,0.0-8.85-0.85,1.0,203.0,,,,,,,[],,,,,,87.9,1.0,i,1.0,True,474.2000000476837,29.0,60.0,40.0,False,,257.91167946768326,[],"[1720, 720]",ColorTask,122.0,86.0,,,HRV,HRV_0169,2022-11-30 18:34:01
,wl-rdm,203,528625,0.0-8.86-0.86,1.0,204.0,,,,,,,[],,,,,,50.0,0.0,i,1.0,False,595.0999999046326,36.0,60.0,40.0,False,,340.44123515043526,[],"[1720, 720]",ColorTask,121.0,87.0,,,HRV,HRV_0169,2022-11-30 18:34:01
,wl-rdm,204,530725,0.0-8.87-0.87,1.0,205.0,,,,,,,[],,,,,,56.4,1.0,u,0.0,False,714.7999999523163,43.0,60.0,40.0,False,,327.49862383364757,[],"[1720, 720]",ColorTask,120.0,88.0,,,HRV,HRV_0169,2022-11-30 18:34:01
,wl-rdm,205,533093,0.0-8.88-0.88,1.0,206.0,,,,,,,[],,,,,,56.4,1.0,u,0.0,False,1063.2999999523163,64.0,60.0,40.0,False,,236.87593861983152,[],"[1720, 720]",ColorTask,119.0,89.0,,,HRV,HRV_0169,2022-11-30 18:34:01
,wl-rdm,206,535761,0.0-8.89-0.89,1.0,207.0,,,,,,,[],,,,,,53.2,1.0,i,1.0,True,1289.0,78.0,60.0,40.0,False,,316.6713862224768,[],"[1720, 720]",ColorTask,120.0,90.0,,,HRV,HRV_0169,2022-11-30 18:34:01
,wl-rdm,207,537578,0.0-8.90-0.90,1.0,208.0,,,,,,,[],,,,,,73.6,0.0,u,0.0,True,475.39999985694885,29.0,60.0,40.0,False,,268.98919862132317,[],"[1720, 720]",ColorTask,121.0,91.0,,,HRV,HRV_0169,2022-11-30 18:34:01
,wl-rdm,208,539596,0.0-8.91-0.91,1.0,209.0,,,,,,,[],,,,,,50.0,0.0,i,1.0,False,720.0,44.0,60.0,40.0,False,,227.65053294169869,[],"[1720, 720]",ColorTask,120.0,92.0,,,HRV,HRV_0169,2022-11-30 18:34:01
,wl-rdm,209,541697,0.0-8.92-0.92,1.0,210.0,,,,,,,[],,,,,,62.5,0.0,u,0.0,True,668.2000000476837,41.0,60.0,40.0,False,,352.07459277116004,[],"[1720, 720]",ColorTask,121.0,93.0,,,HRV,HRV_0169,2022-11-30 18:34:01
,wl-rdm,210,544582,0.0-8.93-0.93,1.0,211.0,,,,,,,[],,,,,,56.4,0.0,u,0.0,True,1597.5,96.0,60.0,40.0,False,,228.00876991625734,[],"[1720, 720]",ColorTask,122.0,94.0,,,HRV,HRV_0169,2022-11-30 18:34:01
,wl-rdm,211,547116,0.0-8.94-0.94,1.0,212.0,,,,,,,[],,,,,,62.5,0.0,u,0.0,True,1119.0999999046326,68.0,60.0,40.0,False,,340.6645631535623,[],"[1720, 720]",ColorTask,123.0,95.0,,,HRV,HRV_0169,2022-11-30 18:34:01
,wl-rdm,212,549000,0.0-8.95-0.95,1.0,213.0,,,,,,,[],,,,,,56.4,1.0,i,1.0,True,511.19999980926514,31.0,60.0,40.0,False,,311.22025043378903,[],"[1720, 720]",ColorTask,124.0,96.0,,,HRV,HRV_0169,2022-11-30 18:34:01
,wl-rdm,213,550751,0.0-8.96-0.96,1.0,214.0,,,,,,,[],,,,,,73.6,1.0,i,1.0,True,459.2999999523163,28.0,60.0,40.0,False,,220.1160024326317,[],"[1720, 720]",ColorTask,125.0,97.0,,,HRV,HRV_0169,2022-11-30 18:34:01
,wl-rdm,214,552685,0.0-8.97-0.97,1.0,215.0,,,,,,,[],,,,,,62.5,0.0,u,0.0,True,579.5,35.0,60.0,40.0,False,,295.6033156975104,[],"[1720, 720]",ColorTask,126.0,98.0,,,HRV,HRV_0169,2022-11-30 18:34:01
,wl-rdm,215,555003,0.0-8.98-0.98,1.0,216.0,,,,,,,[],,,,,,50.0,1.0,i,1.0,True,997.1000001430511,60.0,60.0,40.0,False,,253.72458835437538,[],"[1720, 720]",ColorTask,127.0,99.0,,,HRV,HRV_0169,2022-11-30 18:34:01
,wl-rdm,216,557721,0.0-8.99-0.99,1.0,217.0,,,,,,,[],,,,,,50.0,0.0,i,1.0,False,1281.7000000476837,77.0,60.0,40.0,False,,369.36430653442187,[],"[1720, 720]",ColorTask,126.0,100.0,,,HRV,HRV_0169,2022-11-30 18:34:01
,wl-rdm,217,560222,0.0-8.100-0.100,1.0,218.0,,,,,,,[],,,,,,56.4,1.0,i,1.0,True,1078.4000000953674,65.0,60.0,40.0,False,,360.70337936512715,[],"[1720, 720]",ColorTask,127.0,101.0,,,HRV,HRV_0169,2022-11-30 18:34:01
,wl-rdm,218,562006,0.0-8.101-0.101,1.0,219.0,,,,,,,[],,,,,,87.9,1.0,i,1.0,True,468.30000019073486,29.0,60.0,40.0,False,,239.6877389656794,[],"[1720, 720]",ColorTask,128.0,102.0,,,HRV,HRV_0169,2022-11-30 18:34:01
,wl-rdm,219,563957,0.0-8.102-0.102,1.0,220.0,,,,,,,[],,,,,,56.4,0.0,u,0.0,True,565.7999999523163,34.0,60.0,40.0,False,,328.9482321891797,[],"[1720, 720]",ColorTask,129.0,103.0,,,HRV,HRV_0169,2022-11-30 18:34:01
,wl-rdm,220,566158,0.0-8.103-0.103,1.0,221.0,,,,,,,[],,,,,,53.2,0.0,u,0.0,True,921.5,56.0,60.0,40.0,False,,215.71180401105784,[],"[1720, 720]",ColorTask,130.0,104.0,,,HRV,HRV_0169,2022-11-30 18:34:01
,wl-rdm,221,568258,0.0-8.104-0.104,1.0,222.0,,,,,,,[],,,,,,50.0,1.0,i,1.0,True,813.8000001907349,49.0,60.0,40.0,False,,225.07227103334816,[],"[1720, 720]",ColorTask,131.0,105.0,,,HRV,HRV_0169,2022-11-30 18:34:01
,wl-rdm,222,570243,0.0-8.105-0.105,1.0,223.0,,,,,,,[],,,,,,56.4,1.0,i,1.0,True,519.1000001430511,32.0,60.0,40.0,False,,383.8105992425918,[],"[1720, 720]",ColorTask,132.0,106.0,,,HRV,HRV_0169,2022-11-30 18:34:01
,wl-rdm,223,572627,0.0-8.106-0.106,1.0,224.0,,,,,,,[],,,,,,50.0,0.0,u,0.0,True,1019.0,62.0,60.0,40.0,False,,296.33866956865444,[],"[1720, 720]",ColorTask,133.0,107.0,,,HRV,HRV_0169,2022-11-30 18:34:01
,wl-rdm,224,574478,0.0-8.107-0.107,1.0,225.0,,,,,,,[],,,,,,62.5,1.0,i,1.0,True,470.0000002384186,29.0,60.0,40.0,False,,309.9176963538968,[],"[1720, 720]",ColorTask,134.0,108.0,,,HRV,HRV_0169,2022-11-30 18:34:01
,wl-html-button-response,225,577161,0.0-9.0-0.0,,,,,,,,,,2681.2999999523163,,0,,,,,,,,,,,,,,,,,,,,<h3>End of this session. Thank you!</h3><br>,['Close window'],HRV,HRV_0169,2022-11-30 18:34:01
