trialN,stimuli,trialStartTime,trialStartTime_UNIX,stimulus1,stimulus2,stimulus1Bid,stimulus2Bid,delta,selected,rt,rt_UNIX,rt_perfnow,receivedResponse,rsp,trialEndTime,trialDuration,trialEndTime_UNIX,trialDuration_UNIX,exp,subjectId,date
0,"[{'imgObject': {}, 'id': 'corn cob', 'src': '/static/foodstim60/corn cob.jpg', 'key': 'u', 'origWidth': 411, 'origHeight': 411, 'width': 411, 'height': 411, 'widthPercent': 0.45, 'rescaleHeight': False, 'trialN': 0, 'loaded': True, 'loadedTime': 1624.5, 'positionName': 'LEFT', 'positionCoords': [1240.2, 514.5], 'bid': 1.56}, {'imgObject': {}, 'id': 'granola w milk', 'src': '/static/foodstim60/granola w milk.jpg', 'key': 'i', 'origWidth': 410, 'origHeight': 410, 'width': 410, 'height': 410, 'widthPercent': 0.45, 'rescaleHeight': False, 'trialN': 0, 'loaded': True, 'loadedTime': 1643.9000000953674, 'positionName': 'RIGHT', 'positionCoords': [1788.8, 515], 'bid': 1.82}]",2644.800000190735,1669832370781,corn cob,granola w milk,1.56,1.82,0.26,corn cob,1466.8999998569489,1467,1467.1999998092651,True,u,4615.0,1970.1999998092651,1669832372751,1970,HRV,HRV_0169,2022-11-30 18:24:20
1,"[{'imgObject': {}, 'id': 'eggs', 'src': '/static/foodstim60/eggs.jpg', 'key': 'u', 'origWidth': 409, 'origHeight': 409, 'width': 409, 'height': 409, 'widthPercent': 0.45, 'rescaleHeight': False, 'trialN': 1, 'loaded': True, 'loadedTime': 1673.2000000476837, 'positionName': 'LEFT', 'positionCoords': [1242.2, 515.5], 'bid': 1.34}, {'imgObject': {}, 'id': 'ice cream sundae 002', 'src': '/static/foodstim60/ice cream sundae 002.jpg', 'key': 'i', 'origWidth': 409, 'origHeight': 409, 'width': 409, 'height': 409, 'widthPercent': 0.45, 'rescaleHeight': False, 'trialN': 1, 'loaded': True, 'loadedTime': 1653.9000000953674, 'positionName': 'RIGHT', 'positionCoords': [1788.8, 515.5], 'bid': 2.48}]",4615.100000143051,1669832372751,eggs,ice cream sundae 002,1.34,2.48,1.14,eggs,1452.5999999046326,1453,1452.7000000476837,True,u,6574.400000095367,1959.2999999523163,1669832374711,1960,HRV,HRV_0169,2022-11-30 18:24:20
2,"[{'imgObject': {}, 'id': 'veggieswithdip', 'src': '/static/foodstim60/veggieswithdip.jpg', 'key': 'u', 'origWidth': 409, 'origHeight': 409, 'width': 409, 'height': 409, 'widthPercent': 0.45, 'rescaleHeight': False, 'trialN': 2, 'loaded': True, 'loadedTime': 1714, 'positionName': 'LEFT', 'positionCoords': [1242.2, 515.5], 'bid': 9.1}, {'imgObject': {}, 'id': 'blueberries', 'src': '/static/foodstim60/blueberries.jpg', 'key': 'i', 'origWidth': 411, 'origHeight': 411, 'width': 411, 'height': 411, 'widthPercent': 0.45, 'rescaleHeight': False, 'trialN': 2, 'loaded': True, 'loadedTime': 1758.3000001907349, 'positionName': 'RIGHT', 'positionCoords': [1788.8, 514.5], 'bid': 6.05}]",6574.5,1669832374711,veggieswithdip,blueberries,9.1,6.05,-3.05,veggieswithdip,959.1000001430511,959,959.2000000476837,True,u,8038.700000047684,1464.2000000476837,1669832376175,1464,HRV,HRV_0169,2022-11-30 18:24:20
3,"[{'imgObject': {}, 'id': 'raisin bran w milk', 'src': '/static/foodstim60/raisin bran w milk.jpg', 'key': 'u', 'origWidth': 411, 'origHeight': 411, 'width': 411, 'height': 411, 'widthPercent': 0.45, 'rescaleHeight': False, 'trialN': 3, 'loaded': True, 'loadedTime': 1760, 'positionName': 'LEFT', 'positionCoords': [1240.2, 514.5], 'bid': 1.58}, {'imgObject': {}, 'id': 'pear', 'src': '/static/foodstim60/pear.jpg', 'key': 'i', 'origWidth': 411, 'origHeight': 410, 'width': 411, 'height': 410, 'widthPercent': 0.45, 'rescaleHeight': False, 'trialN': 3, 'loaded': True, 'loadedTime': 1762.8000001907349, 'positionName': 'RIGHT', 'positionCoords': [1788.8, 515], 'bid': 5.97}]",8038.800000190735,1669832376175,raisin bran w milk,pear,1.58,5.97,4.39,pear,898.8999998569489,899,899.0,True,i,9438.0,1399.1999998092651,1669832377574,1399,HRV,HRV_0169,2022-11-30 18:24:20
4,"[{'imgObject': {}, 'id': 'bagel and cc', 'src': '/static/foodstim60/bagel and cc.jpg', 'key': 'u', 'origWidth': 410, 'origHeight': 410, 'width': 410, 'height': 410, 'widthPercent': 0.45, 'rescaleHeight': False, 'trialN': 4, 'loaded': True, 'loadedTime': 1764.5, 'positionName': 'LEFT', 'positionCoords': [1241.2, 515], 'bid': 6.01}, {'imgObject': {}, 'id': 'bagel plain', 'src': '/static/foodstim60/bagel plain.jpg', 'key': 'i', 'origWidth': 410, 'origHeight': 410, 'width': 410, 'height': 410, 'widthPercent': 0.45, 'rescaleHeight': False, 'trialN': 4, 'loaded': True, 'loadedTime': 1765.7000000476837, 'positionName': 'RIGHT', 'positionCoords': [1788.8, 515], 'bid': 5.08}]",9438.200000047684,1669832377574,bagel and cc,bagel plain,6.01,5.08,-0.9299999999999997,bagel and cc,840.6000001430511,841,840.7000000476837,True,u,10782.300000190735,1344.1000001430511,1669832378919,1345,HRV,HRV_0169,2022-11-30 18:24:20
5,"[{'imgObject': {}, 'id': 'tacos', 'src': '/static/foodstim60/tacos.jpg', 'key': 'u', 'origWidth': 411, 'origHeight': 411, 'width': 411, 'height': 411, 'widthPercent': 0.45, 'rescaleHeight': False, 'trialN': 5, 'loaded': True, 'loadedTime': 1794.6000001430511, 'positionName': 'LEFT', 'positionCoords': [1240.2, 514.5], 'bid': 9.57}, {'imgObject': {}, 'id': 'burger', 'src': '/static/foodstim60/burger.jpg', 'key': 'i', 'origWidth': 409, 'origHeight': 409, 'width': 409, 'height': 409, 'widthPercent': 0.45, 'rescaleHeight': False, 'trialN': 5, 'loaded': True, 'loadedTime': 1817.7000000476837, 'positionName': 'RIGHT', 'positionCoords': [1788.8, 515.5], 'bid': 8.48}]",10782.5,1669832378919,tacos,burger,9.57,8.48,-1.0899999999999999,tacos,1168.1000001430511,1168,1168.3000001907349,True,u,12454.700000047684,1672.2000000476837,1669832380591,1672,HRV,HRV_0169,2022-11-30 18:24:20
6,"[{'imgObject': {}, 'id': 'burger', 'src': '/static/foodstim60/burger.jpg', 'key': 'u', 'origWidth': 409, 'origHeight': 409, 'width': 409, 'height': 409, 'widthPercent': 0.45, 'rescaleHeight': False, 'trialN': 6, 'loaded': True, 'loadedTime': 1805.5, 'positionName': 'LEFT', 'positionCoords': [1242.2, 515.5], 'bid': 8.48}, {'imgObject': {}, 'id': 'sushi w_condiments', 'src': '/static/foodstim60/sushi w_condiments.jpg', 'key': 'i', 'origWidth': 410, 'origHeight': 410, 'width': 410, 'height': 410, 'widthPercent': 0.45, 'rescaleHeight': False, 'trialN': 6, 'loaded': True, 'loadedTime': 1867.9000000953674, 'positionName': 'RIGHT', 'positionCoords': [1788.8, 515], 'bid': 8.26}]",12454.800000190735,1669832380591,burger,sushi w_condiments,8.48,8.26,-0.22000000000000064,sushi w_condiments,1126.7999999523163,1127,1127.0999999046326,True,i,14086.100000143051,1631.2999999523163,1669832382223,1632,HRV,HRV_0169,2022-11-30 18:24:20
7,"[{'imgObject': {}, 'id': 'cantaloupe', 'src': '/static/foodstim60/cantaloupe.jpg', 'key': 'u', 'origWidth': 409, 'origHeight': 409, 'width': 409, 'height': 409, 'widthPercent': 0.45, 'rescaleHeight': False, 'trialN': 7, 'loaded': True, 'loadedTime': 1891.8000001907349, 'positionName': 'LEFT', 'positionCoords': [1242.2, 515.5], 'bid': 2.37}, {'imgObject': {}, 'id': 'cherries', 'src': '/static/foodstim60/cherries.jpg', 'key': 'i', 'origWidth': 410, 'origHeight': 411, 'width': 410, 'height': 411, 'widthPercent': 0.45, 'rescaleHeight': False, 'trialN': 7, 'loaded': True, 'loadedTime': 1929.6000001430511, 'positionName': 'RIGHT', 'positionCoords': [1788.8, 514.5], 'bid': 0.5}]",14086.200000047684,1669832382223,cantaloupe,cherries,2.37,0.5,-1.87,cantaloupe,1038.5,1038,1038.7000000476837,True,u,15630.400000095367,1544.2000000476837,1669832383767,1544,HRV,HRV_0169,2022-11-30 18:24:20
8,"[{'imgObject': {}, 'id': 'fruitsalad', 'src': '/static/foodstim60/fruitsalad.jpg', 'key': 'u', 'origWidth': 410, 'origHeight': 410, 'width': 410, 'height': 410, 'widthPercent': 0.45, 'rescaleHeight': False, 'trialN': 8, 'loaded': True, 'loadedTime': 1929.7000000476837, 'positionName': 'LEFT', 'positionCoords': [1241.2, 515], 'bid': 5.8100000000000005}, {'imgObject': {}, 'id': 'kiwi', 'src': '/static/foodstim60/kiwi.jpg', 'key': 'i', 'origWidth': 410, 'origHeight': 410, 'width': 410, 'height': 410, 'widthPercent': 0.45, 'rescaleHeight': False, 'trialN': 8, 'loaded': True, 'loadedTime': 1965.4000000953674, 'positionName': 'RIGHT', 'positionCoords': [1788.8, 515], 'bid': 5.24}]",15630.5,1669832383767,fruitsalad,kiwi,5.8100000000000005,5.24,-0.5700000000000003,fruitsalad,1901.2000000476837,1901,1901.3000001907349,True,u,18038.0,2407.5,1669832386175,2408,HRV,HRV_0169,2022-11-30 18:24:20
9,"[{'imgObject': {}, 'id': 'tacos', 'src': '/static/foodstim60/tacos.jpg', 'key': 'u', 'origWidth': 411, 'origHeight': 411, 'width': 411, 'height': 411, 'widthPercent': 0.45, 'rescaleHeight': False, 'trialN': 9, 'loaded': True, 'loadedTime': 1782.5, 'positionName': 'LEFT', 'positionCoords': [1240.2, 514.5], 'bid': 9.57}, {'imgObject': {}, 'id': 'rigatoni and sauce', 'src': '/static/foodstim60/rigatoni and sauce.jpg', 'key': 'i', 'origWidth': 410, 'origHeight': 411, 'width': 410, 'height': 411, 'widthPercent': 0.45, 'rescaleHeight': False, 'trialN': 9, 'loaded': True, 'loadedTime': 1966.4000000953674, 'positionName': 'RIGHT', 'positionCoords': [1788.8, 514.5], 'bid': 7.5}]",18038.0,1669832386175,tacos,rigatoni and sauce,9.57,7.5,-2.0700000000000003,tacos,1679.7000000476837,1679,1679.8000001907349,True,u,20222.5,2184.5,1669832388359,2184,HRV,HRV_0169,2022-11-30 18:24:20
10,"[{'imgObject': {}, 'id': 'eggsalad', 'src': '/static/foodstim60/eggsalad.jpg', 'key': 'u', 'origWidth': 410, 'origHeight': 409, 'width': 410, 'height': 409, 'widthPercent': 0.45, 'rescaleHeight': False, 'trialN': 10, 'loaded': True, 'loadedTime': 1977.9000000953674, 'positionName': 'LEFT', 'positionCoords': [1241.2, 515.5], 'bid': 1.98}, {'imgObject': {}, 'id': 'popsicles', 'src': '/static/foodstim60/popsicles.jpg', 'key': 'i', 'origWidth': 410, 'origHeight': 410, 'width': 410, 'height': 410, 'widthPercent': 0.45, 'rescaleHeight': False, 'trialN': 10, 'loaded': True, 'loadedTime': 2644.100000143051, 'positionName': 'RIGHT', 'positionCoords': [1788.8, 515], 'bid': 3.25}]",20222.60000014305,1669832388359,eggsalad,popsicles,1.98,3.25,1.27,popsicles,1468.0999999046326,1468,1468.2999999523163,True,i,22198.900000095367,1976.2999999523163,1669832390335,1976,HRV,HRV_0169,2022-11-30 18:24:20
11,"[{'imgObject': {}, 'id': 'mashed potato', 'src': '/static/foodstim60/mashed potato.jpg', 'key': 'u', 'origWidth': 409, 'origHeight': 409, 'width': 409, 'height': 409, 'widthPercent': 0.45, 'rescaleHeight': False, 'trialN': 11, 'loaded': True, 'loadedTime': 2024, 'positionName': 'LEFT', 'positionCoords': [1242.2, 515.5], 'bid': 2.52}, {'imgObject': {}, 'id': 'sweetpotato', 'src': '/static/foodstim60/sweetpotato.jpg', 'key': 'i', 'origWidth': 410, 'origHeight': 410, 'width': 410, 'height': 410, 'widthPercent': 0.45, 'rescaleHeight': False, 'trialN': 11, 'loaded': True, 'loadedTime': 2024.7000000476837, 'positionName': 'RIGHT', 'positionCoords': [1788.8, 515], 'bid': 1.46}]",22199.0,1669832390336,mashed potato,sweetpotato,2.52,1.46,-1.06,mashed potato,1818.7000000476837,1818,1818.9000000953674,True,u,24518.5,2319.5,1669832392655,2319,HRV,HRV_0169,2022-11-30 18:24:20
12,"[{'imgObject': {}, 'id': 'banana', 'src': '/static/foodstim60/banana.jpg', 'key': 'u', 'origWidth': 410, 'origHeight': 410, 'width': 410, 'height': 410, 'widthPercent': 0.45, 'rescaleHeight': False, 'trialN': 12, 'loaded': True, 'loadedTime': 2061.9000000953674, 'positionName': 'LEFT', 'positionCoords': [1241.2, 515], 'bid': 1.08}, {'imgObject': {}, 'id': 'seaweed', 'src': '/static/foodstim60/seaweed.jpg', 'key': 'i', 'origWidth': 410, 'origHeight': 410, 'width': 410, 'height': 410, 'widthPercent': 0.45, 'rescaleHeight': False, 'trialN': 12, 'loaded': True, 'loadedTime': 2075.2000000476837, 'positionName': 'RIGHT', 'positionCoords': [1788.8, 515], 'bid': 2.43}]",24518.60000014305,1669832392655,banana,seaweed,1.08,2.43,1.35,seaweed,1199.2000000476837,1199,1199.2000000476837,True,i,26222.800000190735,1704.2000000476837,1669832394359,1704,HRV,HRV_0169,2022-11-30 18:24:20
13,"[{'imgObject': {}, 'id': 'steak', 'src': '/static/foodstim60/steak.jpg', 'key': 'u', 'origWidth': 410, 'origHeight': 410, 'width': 410, 'height': 410, 'widthPercent': 0.45, 'rescaleHeight': False, 'trialN': 13, 'loaded': True, 'loadedTime': 2088.5, 'positionName': 'LEFT', 'positionCoords': [1241.2, 515], 'bid': 10}, {'imgObject': {}, 'id': 'salad w chicken', 'src': '/static/foodstim60/salad w chicken.jpg', 'key': 'i', 'origWidth': 411, 'origHeight': 411, 'width': 411, 'height': 411, 'widthPercent': 0.45, 'rescaleHeight': False, 'trialN': 13, 'loaded': True, 'loadedTime': 2122.9000000953674, 'positionName': 'RIGHT', 'positionCoords': [1788.8, 514.5], 'bid': 8.69}]",26222.900000095367,1669832394359,steak,salad w chicken,10.0,8.69,-1.3100000000000005,steak,1082.7999999523163,1083,1083.0,True,u,27806.200000047684,1583.2999999523163,1669832395943,1584,HRV,HRV_0169,2022-11-30 18:24:20
14,"[{'imgObject': {}, 'id': 'apple slices', 'src': '/static/foodstim60/apple slices.jpg', 'key': 'u', 'origWidth': 409, 'origHeight': 410, 'width': 409, 'height': 410, 'widthPercent': 0.45, 'rescaleHeight': False, 'trialN': 14, 'loaded': True, 'loadedTime': 2158.7000000476837, 'positionName': 'LEFT', 'positionCoords': [1242.2, 515], 'bid': 3.62}, {'imgObject': {}, 'id': 'baked potato', 'src': '/static/foodstim60/baked potato.jpg', 'key': 'i', 'origWidth': 409, 'origHeight': 410, 'width': 409, 'height': 410, 'widthPercent': 0.45, 'rescaleHeight': False, 'trialN': 14, 'loaded': True, 'loadedTime': 2170.7000000476837, 'positionName': 'RIGHT', 'positionCoords': [1788.8, 515], 'bid': 3.61}]",27806.300000190735,1669832395943,apple slices,baked potato,3.62,3.61,-0.010000000000000231,apple slices,1240.3999998569489,1240,1240.5999999046326,True,u,29550.60000014305,1744.2999999523163,1669832397687,1744,HRV,HRV_0169,2022-11-30 18:24:20
15,"[{'imgObject': {}, 'id': 'Grapes', 'src': '/static/foodstim60/Grapes.jpg', 'key': 'u', 'origWidth': 411, 'origHeight': 411, 'width': 411, 'height': 411, 'widthPercent': 0.45, 'rescaleHeight': False, 'trialN': 15, 'loaded': True, 'loadedTime': 2195.2000000476837, 'positionName': 'LEFT', 'positionCoords': [1240.2, 514.5], 'bid': 7.56}, {'imgObject': {}, 'id': 'blueberries', 'src': '/static/foodstim60/blueberries.jpg', 'key': 'i', 'origWidth': 411, 'origHeight': 411, 'width': 411, 'height': 411, 'widthPercent': 0.45, 'rescaleHeight': False, 'trialN': 15, 'loaded': True, 'loadedTime': 1758.5, 'positionName': 'RIGHT', 'positionCoords': [1788.8, 514.5], 'bid': 6.05}]",29550.700000047684,1669832397687,Grapes,blueberries,7.56,6.05,-1.5099999999999998,Grapes,1460.0,1460,1460.2000000476837,True,u,31518.0,1967.2999999523163,1669832399655,1968,HRV,HRV_0169,2022-11-30 18:24:20
16,"[{'imgObject': {}, 'id': 'rigatoni and sauce', 'src': '/static/foodstim60/rigatoni and sauce.jpg', 'key': 'u', 'origWidth': 410, 'origHeight': 411, 'width': 410, 'height': 411, 'widthPercent': 0.45, 'rescaleHeight': False, 'trialN': 16, 'loaded': True, 'loadedTime': 1965.7000000476837, 'positionName': 'LEFT', 'positionCoords': [1241.2, 514.5], 'bid': 7.5}, {'imgObject': {}, 'id': 'Grapes', 'src': '/static/foodstim60/Grapes.jpg', 'key': 'i', 'origWidth': 411, 'origHeight': 411, 'width': 411, 'height': 411, 'widthPercent': 0.45, 'rescaleHeight': False, 'trialN': 16, 'loaded': True, 'loadedTime': 2207.9000000953674, 'positionName': 'RIGHT', 'positionCoords': [1788.8, 514.5], 'bid': 7.56}]",31518.200000047684,1669832399655,rigatoni and sauce,Grapes,7.5,7.56,0.05999999999999961,rigatoni and sauce,924.5,924,924.7000000476837,True,u,32950.300000190735,1432.1000001430511,1669832401087,1432,HRV,HRV_0169,2022-11-30 18:24:20
17,"[{'imgObject': {}, 'id': 'bagel plain', 'src': '/static/foodstim60/bagel plain.jpg', 'key': 'u', 'origWidth': 410, 'origHeight': 410, 'width': 410, 'height': 410, 'widthPercent': 0.45, 'rescaleHeight': False, 'trialN': 17, 'loaded': True, 'loadedTime': 1765.9000000953674, 'positionName': 'LEFT', 'positionCoords': [1241.2, 515], 'bid': 5.08}, {'imgObject': {}, 'id': 'cocktailshrimp', 'src': '/static/foodstim60/cocktailshrimp.jpg', 'key': 'i', 'origWidth': 410, 'origHeight': 410, 'width': 410, 'height': 410, 'widthPercent': 0.45, 'rescaleHeight': False, 'trialN': 17, 'loaded': True, 'loadedTime': 2221.300000190735, 'positionName': 'RIGHT', 'positionCoords': [1788.8, 515], 'bid': 9.43}]",32950.5,1669832401087,bagel plain,cocktailshrimp,5.08,9.43,4.35,cocktailshrimp,942.2000000476837,942,942.3000001907349,True,i,34398.700000047684,1448.2000000476837,1669832402535,1448,HRV,HRV_0169,2022-11-30 18:24:20
18,"[{'imgObject': {}, 'id': 'Grapes', 'src': '/static/foodstim60/Grapes.jpg', 'key': 'u', 'origWidth': 411, 'origHeight': 411, 'width': 411, 'height': 411, 'widthPercent': 0.45, 'rescaleHeight': False, 'trialN': 18, 'loaded': True, 'loadedTime': 2195.800000190735, 'positionName': 'LEFT', 'positionCoords': [1240.2, 514.5], 'bid': 7.56}, {'imgObject': {}, 'id': 'mashed potato', 'src': '/static/foodstim60/mashed potato.jpg', 'key': 'i', 'origWidth': 409, 'origHeight': 409, 'width': 409, 'height': 409, 'widthPercent': 0.45, 'rescaleHeight': False, 'trialN': 18, 'loaded': True, 'loadedTime': 2012.9000000953674, 'positionName': 'RIGHT', 'positionCoords': [1788.8, 515.5], 'bid': 2.52}]",34398.800000190735,1669832402535,Grapes,mashed potato,7.56,2.52,-5.039999999999999,mashed potato,1223.0,1223,1223.0999999046326,True,i,36126.10000014305,1727.2999999523163,1669832404263,1728,HRV,HRV_0169,2022-11-30 18:24:20
19,"[{'imgObject': {}, 'id': 'burrito', 'src': '/static/foodstim60/burrito.jpg', 'key': 'u', 'origWidth': 410, 'origHeight': 410, 'width': 410, 'height': 410, 'widthPercent': 0.45, 'rescaleHeight': False, 'trialN': 19, 'loaded': True, 'loadedTime': 2248.4000000953674, 'positionName': 'LEFT', 'positionCoords': [1241.2, 515], 'bid': 5.87}, {'imgObject': {}, 'id': 'corn cob', 'src': '/static/foodstim60/corn cob.jpg', 'key': 'i', 'origWidth': 411, 'origHeight': 411, 'width': 411, 'height': 411, 'widthPercent': 0.45, 'rescaleHeight': False, 'trialN': 19, 'loaded': True, 'loadedTime': 1641.6000001430511, 'positionName': 'RIGHT', 'positionCoords': [1788.8, 514.5], 'bid': 1.56}]",36126.10000014305,1669832404263,burrito,corn cob,5.87,1.56,-4.3100000000000005,burrito,985.5,985,985.7000000476837,True,u,37614.5,1488.3999998569489,1669832405751,1488,HRV,HRV_0169,2022-11-30 18:24:20
20,"[{'imgObject': {}, 'id': 'granola w milk', 'src': '/static/foodstim60/granola w milk.jpg', 'key': 'u', 'origWidth': 410, 'origHeight': 410, 'width': 410, 'height': 410, 'widthPercent': 0.45, 'rescaleHeight': False, 'trialN': 20, 'loaded': True, 'loadedTime': 1643.2000000476837, 'positionName': 'LEFT', 'positionCoords': [1241.2, 515], 'bid': 1.82}, {'imgObject': {}, 'id': 'Tribe humus pita', 'src': '/static/foodstim60/Tribe humus pita.jpg', 'key': 'i', 'origWidth': 411, 'origHeight': 411, 'width': 411, 'height': 411, 'widthPercent': 0.45, 'rescaleHeight': False, 'trialN': 20, 'loaded': True, 'loadedTime': 2262.300000190735, 'positionName': 'RIGHT', 'positionCoords': [1788.8, 514.5], 'bid': 3.09}]",37614.5,1669832405751,granola w milk,Tribe humus pita,1.82,3.09,1.2699999999999998,Tribe humus pita,1174.2000000476837,1174,1174.4000000953674,True,i,39294.800000190735,1680.3000001907349,1669832407431,1680,HRV,HRV_0169,2022-11-30 18:24:20
21,"[{'imgObject': {}, 'id': 'popsicles', 'src': '/static/foodstim60/popsicles.jpg', 'key': 'u', 'origWidth': 410, 'origHeight': 410, 'width': 410, 'height': 410, 'widthPercent': 0.45, 'rescaleHeight': False, 'trialN': 21, 'loaded': True, 'loadedTime': 2644, 'positionName': 'LEFT', 'positionCoords': [1241.2, 515], 'bid': 3.25}, {'imgObject': {}, 'id': 'Tribe humus pita', 'src': '/static/foodstim60/Tribe humus pita.jpg', 'key': 'i', 'origWidth': 411, 'origHeight': 411, 'width': 411, 'height': 411, 'widthPercent': 0.45, 'rescaleHeight': False, 'trialN': 21, 'loaded': True, 'loadedTime': 2248.800000190735, 'positionName': 'RIGHT', 'positionCoords': [1788.8, 514.5], 'bid': 3.09}]",39295.0,1669832407431,popsicles,Tribe humus pita,3.25,3.09,-0.16000000000000014,popsicles,1203.7000000476837,1204,1203.9000000953674,True,u,41006.200000047684,1711.2000000476837,1669832409143,1712,HRV,HRV_0169,2022-11-30 18:24:20
22,"[{'imgObject': {}, 'id': 'turkey sandwich', 'src': '/static/foodstim60/turkey sandwich.jpg', 'key': 'u', 'origWidth': 409, 'origHeight': 409, 'width': 409, 'height': 409, 'widthPercent': 0.45, 'rescaleHeight': False, 'trialN': 22, 'loaded': True, 'loadedTime': 2275.2000000476837, 'positionName': 'LEFT', 'positionCoords': [1242.2, 515.5], 'bid': 7.1000000000000005}, {'imgObject': {}, 'id': 'rigatoni and sauce', 'src': '/static/foodstim60/rigatoni and sauce.jpg', 'key': 'i', 'origWidth': 410, 'origHeight': 411, 'width': 410, 'height': 411, 'widthPercent': 0.45, 'rescaleHeight': False, 'trialN': 22, 'loaded': True, 'loadedTime': 1966.4000000953674, 'positionName': 'RIGHT', 'positionCoords': [1788.8, 514.5], 'bid': 7.5}]",41006.300000190735,1669832409143,turkey sandwich,rigatoni and sauce,7.1000000000000005,7.5,0.39999999999999947,rigatoni and sauce,955.3999998569489,955,955.5999999046326,True,i,42462.60000014305,1456.2999999523163,1669832410599,1456,HRV,HRV_0169,2022-11-30 18:24:20
23,"[{'imgObject': {}, 'id': 'turkeysandwich', 'src': '/static/foodstim60/turkeysandwich.jpg', 'key': 'u', 'origWidth': 409, 'origHeight': 409, 'width': 409, 'height': 409, 'widthPercent': 0.45, 'rescaleHeight': False, 'trialN': 23, 'loaded': True, 'loadedTime': 2310.9000000953674, 'positionName': 'LEFT', 'positionCoords': [1242.2, 515.5], 'bid': 6.49}, {'imgObject': {}, 'id': 'bagel and cc', 'src': '/static/foodstim60/bagel and cc.jpg', 'key': 'i', 'origWidth': 410, 'origHeight': 410, 'width': 410, 'height': 410, 'widthPercent': 0.45, 'rescaleHeight': False, 'trialN': 23, 'loaded': True, 'loadedTime': 1763.6000001430511, 'positionName': 'RIGHT', 'positionCoords': [1788.8, 515], 'bid': 6.01}]",42462.60000014305,1669832410599,turkeysandwich,bagel and cc,6.49,6.01,-0.4800000000000004,turkeysandwich,865.2000000476837,865,865.2999999523163,True,u,43830.800000190735,1368.2000000476837,1669832411967,1368,HRV,HRV_0169,2022-11-30 18:24:20
24,"[{'imgObject': {}, 'id': 'grilled chicken strips', 'src': '/static/foodstim60/grilled chicken strips.jpg', 'key': 'u', 'origWidth': 410, 'origHeight': 411, 'width': 410, 'height': 411, 'widthPercent': 0.45, 'rescaleHeight': False, 'trialN': 24, 'loaded': True, 'loadedTime': 2334.7000000476837, 'positionName': 'LEFT', 'positionCoords': [1241.2, 514.5], 'bid': 9.28}, {'imgObject': {}, 'id': 'roastedpotatoes', 'src': '/static/foodstim60/roastedpotatoes.jpg', 'key': 'i', 'origWidth': 409, 'origHeight': 410, 'width': 409, 'height': 410, 'widthPercent': 0.45, 'rescaleHeight': False, 'trialN': 24, 'loaded': True, 'loadedTime': 2377, 'positionName': 'RIGHT', 'positionCoords': [1788.8, 515], 'bid': 7.91}]",43830.90000009537,1669832411967,grilled chicken strips,roastedpotatoes,9.28,7.91,-1.3699999999999992,grilled chicken strips,1129.7999999523163,1130,1129.9000000953674,True,u,45462.200000047684,1631.2999999523163,1669832413599,1632,HRV,HRV_0169,2022-11-30 18:24:20
25,"[{'imgObject': {}, 'id': 'apple slices', 'src': '/static/foodstim60/apple slices.jpg', 'key': 'u', 'origWidth': 409, 'origHeight': 410, 'width': 409, 'height': 410, 'widthPercent': 0.45, 'rescaleHeight': False, 'trialN': 25, 'loaded': True, 'loadedTime': 2158.7000000476837, 'positionName': 'LEFT', 'positionCoords': [1242.2, 515], 'bid': 3.62}, {'imgObject': {}, 'id': 'mashed potato', 'src': '/static/foodstim60/mashed potato.jpg', 'key': 'i', 'origWidth': 409, 'origHeight': 409, 'width': 409, 'height': 409, 'widthPercent': 0.45, 'rescaleHeight': False, 'trialN': 25, 'loaded': True, 'loadedTime': 2013.1000001430511, 'positionName': 'RIGHT', 'positionCoords': [1788.8, 515.5], 'bid': 2.52}]",45462.300000190735,1669832413599,apple slices,mashed potato,3.62,2.52,-1.1,mashed potato,1382.3999998569489,1382,1382.5,True,i,47350.60000014305,1888.2999999523163,1669832415487,1888,HRV,HRV_0169,2022-11-30 18:24:20
26,"[{'imgObject': {}, 'id': 'chickenfingers', 'src': '/static/foodstim60/chickenfingers.jpg', 'key': 'u', 'origWidth': 410, 'origHeight': 410, 'width': 410, 'height': 410, 'widthPercent': 0.45, 'rescaleHeight': False, 'trialN': 26, 'loaded': True, 'loadedTime': 2390.5, 'positionName': 'LEFT', 'positionCoords': [1241.2, 515], 'bid': 8.870000000000001}, {'imgObject': {}, 'id': 'tacos', 'src': '/static/foodstim60/tacos.jpg', 'key': 'i', 'origWidth': 411, 'origHeight': 411, 'width': 411, 'height': 411, 'widthPercent': 0.45, 'rescaleHeight': False, 'trialN': 26, 'loaded': True, 'loadedTime': 1769.8000001907349, 'positionName': 'RIGHT', 'positionCoords': [1788.8, 514.5], 'bid': 9.57}]",47350.800000190735,1669832415487,chickenfingers,tacos,8.870000000000001,9.57,0.6999999999999993,tacos,1229.8999998569489,1230,1230.0999999046326,True,i,49086.10000014305,1735.2999999523163,1669832417223,1736,HRV,HRV_0169,2022-11-30 18:24:20
27,"[{'imgObject': {}, 'id': 'burger', 'src': '/static/foodstim60/burger.jpg', 'key': 'u', 'origWidth': 409, 'origHeight': 409, 'width': 409, 'height': 409, 'widthPercent': 0.45, 'rescaleHeight': False, 'trialN': 27, 'loaded': True, 'loadedTime': 1829.6000001430511, 'positionName': 'LEFT', 'positionCoords': [1242.2, 515.5], 'bid': 8.48}, {'imgObject': {}, 'id': 'chicken nuggets2', 'src': '/static/foodstim60/chicken nuggets2.jpg', 'key': 'i', 'origWidth': 410, 'origHeight': 409, 'width': 410, 'height': 409, 'widthPercent': 0.45, 'rescaleHeight': False, 'trialN': 27, 'loaded': True, 'loadedTime': 2417, 'positionName': 'RIGHT', 'positionCoords': [1788.8, 515.5], 'bid': 8.25}]",49086.10000014305,1669832417223,burger,chicken nuggets2,8.48,8.25,-0.23000000000000043,chicken nuggets2,996.5999999046326,996,996.7999999523163,True,i,50590.40000009537,1504.2999999523163,1669832418727,1504,HRV,HRV_0169,2022-11-30 18:24:20
28,"[{'imgObject': {}, 'id': 'strawberries', 'src': '/static/foodstim60/strawberries.jpg', 'key': 'u', 'origWidth': 410, 'origHeight': 410, 'width': 410, 'height': 410, 'widthPercent': 0.45, 'rescaleHeight': False, 'trialN': 28, 'loaded': True, 'loadedTime': 2429.2000000476837, 'positionName': 'LEFT', 'positionCoords': [1241.2, 515], 'bid': 9.31}, {'imgObject': {}, 'id': 'grilled chicken strips', 'src': '/static/foodstim60/grilled chicken strips.jpg', 'key': 'i', 'origWidth': 410, 'origHeight': 411, 'width': 410, 'height': 411, 'widthPercent': 0.45, 'rescaleHeight': False, 'trialN': 28, 'loaded': True, 'loadedTime': 2335, 'positionName': 'RIGHT', 'positionCoords': [1788.8, 514.5], 'bid': 9.28}]",50590.40000009537,1669832418727,strawberries,grilled chicken strips,9.31,9.28,-0.030000000000001137,grilled chicken strips,1437.2999999523163,1437,1437.5,True,i,52534.800000190735,1944.4000000953674,1669832420671,1944,HRV,HRV_0169,2022-11-30 18:24:20
29,"[{'imgObject': {}, 'id': 'turkey sandwich', 'src': '/static/foodstim60/turkey sandwich.jpg', 'key': 'u', 'origWidth': 409, 'origHeight': 409, 'width': 409, 'height': 409, 'widthPercent': 0.45, 'rescaleHeight': False, 'trialN': 29, 'loaded': True, 'loadedTime': 2275.2000000476837, 'positionName': 'LEFT', 'positionCoords': [1242.2, 515.5], 'bid': 7.1000000000000005}, {'imgObject': {}, 'id': 'cantaloupe', 'src': '/static/foodstim60/cantaloupe.jpg', 'key': 'i', 'origWidth': 409, 'origHeight': 409, 'width': 409, 'height': 409, 'widthPercent': 0.45, 'rescaleHeight': False, 'trialN': 29, 'loaded': True, 'loadedTime': 1903.4000000953674, 'positionName': 'RIGHT', 'positionCoords': [1788.8, 515.5], 'bid': 2.37}]",52534.90000009537,1669832420671,turkey sandwich,cantaloupe,7.1000000000000005,2.37,-4.73,turkey sandwich,988.9000000953674,989,989.0,True,u,54030.10000014305,1495.2000000476837,1669832422167,1496,HRV,HRV_0169,2022-11-30 18:24:20
30,"[{'imgObject': {}, 'id': 'cantaloupe', 'src': '/static/foodstim60/cantaloupe.jpg', 'key': 'u', 'origWidth': 409, 'origHeight': 409, 'width': 409, 'height': 409, 'widthPercent': 0.45, 'rescaleHeight': False, 'trialN': 30, 'loaded': True, 'loadedTime': 1880.7000000476837, 'positionName': 'LEFT', 'positionCoords': [1242.2, 515.5], 'bid': 2.37}, {'imgObject': {}, 'id': 'corn cob', 'src': '/static/foodstim60/corn cob.jpg', 'key': 'i', 'origWidth': 411, 'origHeight': 411, 'width': 411, 'height': 411, 'widthPercent': 0.45, 'rescaleHeight': False, 'trialN': 30, 'loaded': True, 'loadedTime': 1642, 'positionName': 'RIGHT', 'positionCoords': [1788.8, 514.5], 'bid': 1.56}]",54030.300000190735,1669832422167,cantaloupe,corn cob,2.37,1.56,-0.81,cantaloupe,1444.5,1444,1444.5999999046326,True,u,55982.60000014305,1952.2999999523163,1669832424119,1952,HRV,HRV_0169,2022-11-30 18:24:20
31,"[{'imgObject': {}, 'id': 'burger', 'src': '/static/foodstim60/burger.jpg', 'key': 'u', 'origWidth': 409, 'origHeight': 409, 'width': 409, 'height': 409, 'widthPercent': 0.45, 'rescaleHeight': False, 'trialN': 31, 'loaded': True, 'loadedTime': 1817.9000000953674, 'positionName': 'LEFT', 'positionCoords': [1242.2, 515.5], 'bid': 8.48}, {'imgObject': {}, 'id': 'fried eggs', 'src': '/static/foodstim60/fried eggs.jpg', 'key': 'i', 'origWidth': 410, 'origHeight': 410, 'width': 410, 'height': 410, 'widthPercent': 0.45, 'rescaleHeight': False, 'trialN': 31, 'loaded': True, 'loadedTime': 2442.100000143051, 'positionName': 'RIGHT', 'positionCoords': [1788.8, 515], 'bid': 7.25}]",55982.60000014305,1669832424119,burger,fried eggs,8.48,7.25,-1.2300000000000004,burger,906.0999999046326,906,906.2000000476837,True,u,57390.90000009537,1408.2999999523163,1669832425527,1408,HRV,HRV_0169,2022-11-30 18:24:20
32,"[{'imgObject': {}, 'id': 'sweetpotato', 'src': '/static/foodstim60/sweetpotato.jpg', 'key': 'u', 'origWidth': 410, 'origHeight': 410, 'width': 410, 'height': 410, 'widthPercent': 0.45, 'rescaleHeight': False, 'trialN': 32, 'loaded': True, 'loadedTime': 2036.1000001430511, 'positionName': 'LEFT', 'positionCoords': [1241.2, 515], 'bid': 1.46}, {'imgObject': {}, 'id': 'baked potato', 'src': '/static/foodstim60/baked potato.jpg', 'key': 'i', 'origWidth': 409, 'origHeight': 410, 'width': 409, 'height': 410, 'widthPercent': 0.45, 'rescaleHeight': False, 'trialN': 32, 'loaded': True, 'loadedTime': 2182.4000000953674, 'positionName': 'RIGHT', 'positionCoords': [1788.8, 515], 'bid': 3.61}]",57391.0,1669832425528,sweetpotato,baked potato,1.46,3.61,2.15,baked potato,910.7000000476837,910,910.8000001907349,True,i,58806.300000190735,1415.3000001907349,1669832426943,1415,HRV,HRV_0169,2022-11-30 18:24:20
33,"[{'imgObject': {}, 'id': 'eggs', 'src': '/static/foodstim60/eggs.jpg', 'key': 'u', 'origWidth': 409, 'origHeight': 409, 'width': 409, 'height': 409, 'widthPercent': 0.45, 'rescaleHeight': False, 'trialN': 33, 'loaded': True, 'loadedTime': 1658.8000001907349, 'positionName': 'LEFT', 'positionCoords': [1242.2, 515.5], 'bid': 1.34}, {'imgObject': {}, 'id': 'sweetpotato', 'src': '/static/foodstim60/sweetpotato.jpg', 'key': 'i', 'origWidth': 410, 'origHeight': 410, 'width': 410, 'height': 410, 'widthPercent': 0.45, 'rescaleHeight': False, 'trialN': 33, 'loaded': True, 'loadedTime': 2048, 'positionName': 'RIGHT', 'positionCoords': [1788.8, 515], 'bid': 1.46}]",58806.40000009537,1669832426943,eggs,sweetpotato,1.34,1.46,0.11999999999999988,sweetpotato,1851.4000000953674,1851,1851.5,True,i,61158.800000190735,2352.4000000953674,1669832429295,2352,HRV,HRV_0169,2022-11-30 18:24:20
34,"[{'imgObject': {}, 'id': 'grilled chicken strips', 'src': '/static/foodstim60/grilled chicken strips.jpg', 'key': 'u', 'origWidth': 410, 'origHeight': 411, 'width': 410, 'height': 411, 'widthPercent': 0.45, 'rescaleHeight': False, 'trialN': 34, 'loaded': True, 'loadedTime': 2322, 'positionName': 'LEFT', 'positionCoords': [1241.2, 514.5], 'bid': 9.28}, {'imgObject': {}, 'id': 'omelette', 'src': '/static/foodstim60/omelette.jpg', 'key': 'i', 'origWidth': 410, 'origHeight': 409, 'width': 410, 'height': 409, 'widthPercent': 0.45, 'rescaleHeight': False, 'trialN': 34, 'loaded': True, 'loadedTime': 2442.100000143051, 'positionName': 'RIGHT', 'positionCoords': [1788.8, 515.5], 'bid': 7.1000000000000005}]",61158.90000009537,1669832429295,grilled chicken strips,omelette,9.28,7.1000000000000005,-2.179999999999999,grilled chicken strips,968.9000000953674,969,969.0,True,u,62630.10000014305,1471.2000000476837,1669832430767,1472,HRV,HRV_0169,2022-11-30 18:24:20
35,"[{'imgObject': {}, 'id': 'shreddedwheatwithmilk', 'src': '/static/foodstim60/shreddedwheatwithmilk.jpg', 'key': 'u', 'origWidth': 410, 'origHeight': 410, 'width': 410, 'height': 410, 'widthPercent': 0.45, 'rescaleHeight': False, 'trialN': 35, 'loaded': True, 'loadedTime': 2467.9000000953674, 'positionName': 'LEFT', 'positionCoords': [1241.2, 515], 'bid': 3.64}, {'imgObject': {}, 'id': 'cheerios', 'src': '/static/foodstim60/cheerios.jpg', 'key': 'i', 'origWidth': 409, 'origHeight': 410, 'width': 409, 'height': 410, 'widthPercent': 0.45, 'rescaleHeight': False, 'trialN': 35, 'loaded': True, 'loadedTime': 2509.600000143051, 'positionName': 'RIGHT', 'positionCoords': [1788.8, 515], 'bid': 5.5}]",62630.200000047684,1669832430767,shreddedwheatwithmilk,cheerios,3.64,5.5,1.8599999999999999,cheerios,1229.6000001430511,1229,1229.7000000476837,True,i,64366.5,1736.2999999523163,1669832432503,1736,HRV,HRV_0169,2022-11-30 18:24:20
36,"[{'imgObject': {}, 'id': 'salmon', 'src': '/static/foodstim60/salmon.jpg', 'key': 'u', 'origWidth': 410, 'origHeight': 409, 'width': 410, 'height': 409, 'widthPercent': 0.45, 'rescaleHeight': False, 'trialN': 36, 'loaded': True, 'loadedTime': 2509.800000190735, 'positionName': 'LEFT', 'positionCoords': [1241.2, 515.5], 'bid': 9.72}, {'imgObject': {}, 'id': 'veggieswithdip', 'src': '/static/foodstim60/veggieswithdip.jpg', 'key': 'i', 'origWidth': 409, 'origHeight': 409, 'width': 409, 'height': 409, 'widthPercent': 0.45, 'rescaleHeight': False, 'trialN': 36, 'loaded': True, 'loadedTime': 1728.5, 'positionName': 'RIGHT', 'positionCoords': [1788.8, 515.5], 'bid': 9.1}]",64366.60000014305,1669832432503,salmon,veggieswithdip,9.72,9.1,-0.620000000000001,salmon,1758.0999999046326,1758,1758.2999999523163,True,u,66630.10000014305,2263.5,1669832434767,2264,HRV,HRV_0169,2022-11-30 18:24:20
37,"[{'imgObject': {}, 'id': 'luckycharms', 'src': '/static/foodstim60/luckycharms.jpg', 'key': 'u', 'origWidth': 410, 'origHeight': 409, 'width': 410, 'height': 409, 'widthPercent': 0.45, 'rescaleHeight': False, 'trialN': 37, 'loaded': True, 'loadedTime': 2537.7000000476837, 'positionName': 'LEFT', 'positionCoords': [1241.2, 515.5], 'bid': 5.79}, {'imgObject': {}, 'id': 'fruitsalad', 'src': '/static/foodstim60/fruitsalad.jpg', 'key': 'i', 'origWidth': 410, 'origHeight': 410, 'width': 410, 'height': 410, 'widthPercent': 0.45, 'rescaleHeight': False, 'trialN': 37, 'loaded': True, 'loadedTime': 1941.6000001430511, 'positionName': 'RIGHT', 'positionCoords': [1788.8, 515], 'bid': 5.8100000000000005}]",66630.10000014305,1669832434767,luckycharms,fruitsalad,5.79,5.8100000000000005,0.020000000000000462,luckycharms,2476.7000000476837,2476,2476.7999999523163,True,u,69614.70000004768,2984.5999999046326,1669832437751,2984,HRV,HRV_0169,2022-11-30 18:24:20
38,"[{'imgObject': {}, 'id': 'cherry tomato', 'src': '/static/foodstim60/cherry tomato.jpg', 'key': 'u', 'origWidth': 410, 'origHeight': 410, 'width': 410, 'height': 410, 'widthPercent': 0.45, 'rescaleHeight': False, 'trialN': 38, 'loaded': True, 'loadedTime': 2550.300000190735, 'positionName': 'LEFT', 'positionCoords': [1241.2, 515], 'bid': 2.36}, {'imgObject': {}, 'id': 'seaweed', 'src': '/static/foodstim60/seaweed.jpg', 'key': 'i', 'origWidth': 410, 'origHeight': 410, 'width': 410, 'height': 410, 'widthPercent': 0.45, 'rescaleHeight': False, 'trialN': 38, 'loaded': True, 'loadedTime': 2075.2000000476837, 'positionName': 'RIGHT', 'positionCoords': [1788.8, 515], 'bid': 2.43}]",69614.80000019073,1669832437751,cherry tomato,seaweed,2.36,2.43,0.07000000000000028,seaweed,846.8999998569489,847,847.0999999046326,True,i,70966.0,1351.1999998092651,1669832439103,1352,HRV,HRV_0169,2022-11-30 18:24:20
39,"[{'imgObject': {}, 'id': 'fruitsalad', 'src': '/static/foodstim60/fruitsalad.jpg', 'key': 'u', 'origWidth': 410, 'origHeight': 410, 'width': 410, 'height': 410, 'widthPercent': 0.45, 'rescaleHeight': False, 'trialN': 39, 'loaded': True, 'loadedTime': 1952.9000000953674, 'positionName': 'LEFT', 'positionCoords': [1241.2, 515], 'bid': 5.8100000000000005}, {'imgObject': {}, 'id': 'blackbeanswithrice', 'src': '/static/foodstim60/blackbeanswithrice.jpg', 'key': 'i', 'origWidth': 410, 'origHeight': 410, 'width': 410, 'height': 410, 'widthPercent': 0.45, 'rescaleHeight': False, 'trialN': 39, 'loaded': True, 'loadedTime': 2563.100000143051, 'positionName': 'RIGHT', 'positionCoords': [1788.8, 515], 'bid': 8.6}]",70966.10000014305,1669832439103,fruitsalad,blackbeanswithrice,5.8100000000000005,8.6,2.789999999999999,blackbeanswithrice,858.7000000476837,858,858.7999999523163,True,i,72326.30000019073,1360.2000000476837,1669832440463,1360,HRV,HRV_0169,2022-11-30 18:24:20
40,"[{'imgObject': {}, 'id': 'avocado', 'src': '/static/foodstim60/avocado.jpg', 'key': 'u', 'origWidth': 409, 'origHeight': 409, 'width': 409, 'height': 409, 'widthPercent': 0.45, 'rescaleHeight': False, 'trialN': 40, 'loaded': True, 'loadedTime': 2563.7000000476837, 'positionName': 'LEFT', 'positionCoords': [1242.2, 515.5], 'bid': 5.05}, {'imgObject': {}, 'id': 'cherry tomato', 'src': '/static/foodstim60/cherry tomato.jpg', 'key': 'i', 'origWidth': 410, 'origHeight': 410, 'width': 410, 'height': 410, 'widthPercent': 0.45, 'rescaleHeight': False, 'trialN': 40, 'loaded': True, 'loadedTime': 2550.5, 'positionName': 'RIGHT', 'positionCoords': [1788.8, 515], 'bid': 2.36}]",72326.5,1669832440463,avocado,cherry tomato,5.05,2.36,-2.69,avocado,1359.3000001907349,1359,1359.4000000953674,True,u,74190.70000004768,1864.2000000476837,1669832442327,1864,HRV,HRV_0169,2022-11-30 18:24:20
41,"[{'imgObject': {}, 'id': 'apple slices', 'src': '/static/foodstim60/apple slices.jpg', 'key': 'u', 'origWidth': 409, 'origHeight': 410, 'width': 409, 'height': 410, 'widthPercent': 0.45, 'rescaleHeight': False, 'trialN': 41, 'loaded': True, 'loadedTime': 2158.800000190735, 'positionName': 'LEFT', 'positionCoords': [1242.2, 515], 'bid': 3.62}, {'imgObject': {}, 'id': 'cherry tomato', 'src': '/static/foodstim60/cherry tomato.jpg', 'key': 'i', 'origWidth': 410, 'origHeight': 410, 'width': 410, 'height': 410, 'widthPercent': 0.45, 'rescaleHeight': False, 'trialN': 41, 'loaded': True, 'loadedTime': 2550.4000000953674, 'positionName': 'RIGHT', 'positionCoords': [1788.8, 515], 'bid': 2.36}]",74190.80000019073,1669832442327,apple slices,cherry tomato,3.62,2.36,-1.2600000000000002,cherry tomato,1307.6999998092651,1308,1308.0,True,i,76006.10000014305,1815.2999999523163,1669832444142,1815,HRV,HRV_0169,2022-11-30 18:24:20
42,"[{'imgObject': {}, 'id': 'shreddedwheatwithmilk', 'src': '/static/foodstim60/shreddedwheatwithmilk.jpg', 'key': 'u', 'origWidth': 410, 'origHeight': 410, 'width': 410, 'height': 410, 'widthPercent': 0.45, 'rescaleHeight': False, 'trialN': 42, 'loaded': True, 'loadedTime': 2454.2000000476837, 'positionName': 'LEFT', 'positionCoords': [1241.2, 515], 'bid': 3.64}, {'imgObject': {}, 'id': 'mac & cheese', 'src': '/static/foodstim60/mac & cheese.jpg', 'key': 'i', 'origWidth': 410, 'origHeight': 410, 'width': 410, 'height': 410, 'widthPercent': 0.45, 'rescaleHeight': False, 'trialN': 42, 'loaded': True, 'loadedTime': 2564.300000190735, 'positionName': 'RIGHT', 'positionCoords': [1788.8, 515], 'bid': 8.870000000000001}]",76006.30000019073,1669832444143,shreddedwheatwithmilk,mac & cheese,3.64,8.870000000000001,5.23,mac & cheese,732.5,732,732.5999999046326,True,i,77246.5,1240.1999998092651,1669832445383,1240,HRV,HRV_0169,2022-11-30 18:24:20
43,"[{'imgObject': {}, 'id': 'strawberries', 'src': '/static/foodstim60/strawberries.jpg', 'key': 'u', 'origWidth': 410, 'origHeight': 410, 'width': 410, 'height': 410, 'widthPercent': 0.45, 'rescaleHeight': False, 'trialN': 43, 'loaded': True, 'loadedTime': 2429.300000190735, 'positionName': 'LEFT', 'positionCoords': [1241.2, 515], 'bid': 9.31}, {'imgObject': {}, 'id': 'turkey sandwich', 'src': '/static/foodstim60/turkey sandwich.jpg', 'key': 'i', 'origWidth': 409, 'origHeight': 409, 'width': 409, 'height': 409, 'widthPercent': 0.45, 'rescaleHeight': False, 'trialN': 43, 'loaded': True, 'loadedTime': 2275.2000000476837, 'positionName': 'RIGHT', 'positionCoords': [1788.8, 515.5], 'bid': 7.1000000000000005}]",77246.5,1669832445383,strawberries,turkey sandwich,9.31,7.1000000000000005,-2.21,turkey sandwich,1146.2000000476837,1146,1146.4000000953674,True,i,78895.0,1648.5,1669832447031,1648,HRV,HRV_0169,2022-11-30 18:24:20
44,"[{'imgObject': {}, 'id': 'cantaloupe', 'src': '/static/foodstim60/cantaloupe.jpg', 'key': 'u', 'origWidth': 409, 'origHeight': 409, 'width': 409, 'height': 409, 'widthPercent': 0.45, 'rescaleHeight': False, 'trialN': 44, 'loaded': True, 'loadedTime': 1880.7000000476837, 'positionName': 'LEFT', 'positionCoords': [1242.2, 515.5], 'bid': 2.37}, {'imgObject': {}, 'id': 'hashbrowns', 'src': '/static/foodstim60/hashbrowns.jpg', 'key': 'i', 'origWidth': 411, 'origHeight': 410, 'width': 411, 'height': 410, 'widthPercent': 0.45, 'rescaleHeight': False, 'trialN': 44, 'loaded': True, 'loadedTime': 2564.5, 'positionName': 'RIGHT', 'positionCoords': [1788.8, 515], 'bid': 5.05}]",78895.0,1669832447031,cantaloupe,hashbrowns,2.37,5.05,2.6799999999999997,hashbrowns,1218.7000000476837,1219,1219.0,True,i,80614.30000019073,1719.3000001907349,1669832448750,1719,HRV,HRV_0169,2022-11-30 18:24:20
45,"[{'imgObject': {}, 'id': 'baked potato', 'src': '/static/foodstim60/baked potato.jpg', 'key': 'u', 'origWidth': 409, 'origHeight': 410, 'width': 409, 'height': 410, 'widthPercent': 0.45, 'rescaleHeight': False, 'trialN': 45, 'loaded': True, 'loadedTime': 2195, 'positionName': 'LEFT', 'positionCoords': [1242.2, 515], 'bid': 3.61}, {'imgObject': {}, 'id': 'ice cream sundae 002', 'src': '/static/foodstim60/ice cream sundae 002.jpg', 'key': 'i', 'origWidth': 409, 'origHeight': 409, 'width': 409, 'height': 409, 'widthPercent': 0.45, 'rescaleHeight': False, 'trialN': 45, 'loaded': True, 'loadedTime': 1653.8000001907349, 'positionName': 'RIGHT', 'positionCoords': [1788.8, 515.5], 'bid': 2.48}]",80614.30000019073,1669832448751,baked potato,ice cream sundae 002,3.61,2.48,-1.13,ice cream sundae 002,929.5999999046326,929,929.6999998092651,True,i,82046.5,1432.1999998092651,1669832450183,1432,HRV,HRV_0169,2022-11-30 18:24:20
46,"[{'imgObject': {}, 'id': 'grilled chicken strips', 'src': '/static/foodstim60/grilled chicken strips.jpg', 'key': 'u', 'origWidth': 410, 'origHeight': 411, 'width': 410, 'height': 411, 'widthPercent': 0.45, 'rescaleHeight': False, 'trialN': 46, 'loaded': True, 'loadedTime': 2322.7000000476837, 'positionName': 'LEFT', 'positionCoords': [1241.2, 514.5], 'bid': 9.28}, {'imgObject': {}, 'id': 'blackbeanswithrice', 'src': '/static/foodstim60/blackbeanswithrice.jpg', 'key': 'i', 'origWidth': 410, 'origHeight': 410, 'width': 410, 'height': 410, 'widthPercent': 0.45, 'rescaleHeight': False, 'trialN': 46, 'loaded': True, 'loadedTime': 2563, 'positionName': 'RIGHT', 'positionCoords': [1788.8, 515], 'bid': 8.6}]",82046.60000014305,1669832450183,grilled chicken strips,blackbeanswithrice,9.28,8.6,-0.6799999999999997,grilled chicken strips,859.0999999046326,859,859.3999998569489,True,u,83406.80000019073,1360.2000000476837,1669832451543,1360,HRV,HRV_0169,2022-11-30 18:24:20
47,"[{'imgObject': {}, 'id': 'burrito', 'src': '/static/foodstim60/burrito.jpg', 'key': 'u', 'origWidth': 410, 'origHeight': 410, 'width': 410, 'height': 410, 'widthPercent': 0.45, 'rescaleHeight': False, 'trialN': 47, 'loaded': True, 'loadedTime': 2248.600000143051, 'positionName': 'LEFT', 'positionCoords': [1241.2, 515], 'bid': 5.87}, {'imgObject': {}, 'id': 'salad w chicken', 'src': '/static/foodstim60/salad w chicken.jpg', 'key': 'i', 'origWidth': 411, 'origHeight': 411, 'width': 411, 'height': 411, 'widthPercent': 0.45, 'rescaleHeight': False, 'trialN': 47, 'loaded': True, 'loadedTime': 2123.5, 'positionName': 'RIGHT', 'positionCoords': [1788.8, 514.5], 'bid': 8.69}]",83407.0,1669832451543,burrito,salad w chicken,5.87,8.69,2.8199999999999994,salad w chicken,1445.8000001907349,1446,1445.9000000953674,True,i,85358.30000019073,1951.3000001907349,1669832453495,1952,HRV,HRV_0169,2022-11-30 18:24:20
48,"[{'imgObject': {}, 'id': 'hashbrowns', 'src': '/static/foodstim60/hashbrowns.jpg', 'key': 'u', 'origWidth': 411, 'origHeight': 410, 'width': 411, 'height': 410, 'widthPercent': 0.45, 'rescaleHeight': False, 'trialN': 48, 'loaded': True, 'loadedTime': 2565, 'positionName': 'LEFT', 'positionCoords': [1240.2, 515], 'bid': 5.05}, {'imgObject': {}, 'id': 'raspberries', 'src': '/static/foodstim60/raspberries.jpg', 'key': 'i', 'origWidth': 411, 'origHeight': 411, 'width': 411, 'height': 411, 'widthPercent': 0.45, 'rescaleHeight': False, 'trialN': 48, 'loaded': True, 'loadedTime': 2578.7000000476837, 'positionName': 'RIGHT', 'positionCoords': [1788.8, 514.5], 'bid': 5.61}]",85358.40000009537,1669832453495,hashbrowns,raspberries,5.05,5.61,0.5600000000000005,raspberries,1405.5,1405,1405.7000000476837,True,i,87270.70000004768,1912.2999999523163,1669832455407,1912,HRV,HRV_0169,2022-11-30 18:24:20
49,"[{'imgObject': {}, 'id': 'cantaloupe', 'src': '/static/foodstim60/cantaloupe.jpg', 'key': 'u', 'origWidth': 409, 'origHeight': 409, 'width': 409, 'height': 409, 'widthPercent': 0.45, 'rescaleHeight': False, 'trialN': 49, 'loaded': True, 'loadedTime': 1879.9000000953674, 'positionName': 'LEFT', 'positionCoords': [1242.2, 515.5], 'bid': 2.37}, {'imgObject': {}, 'id': 'orange slices', 'src': '/static/foodstim60/orange slices.jpg', 'key': 'i', 'origWidth': 409, 'origHeight': 410, 'width': 409, 'height': 410, 'widthPercent': 0.45, 'rescaleHeight': False, 'trialN': 49, 'loaded': True, 'loadedTime': 2591.300000190735, 'positionName': 'RIGHT', 'positionCoords': [1788.8, 515], 'bid': 2.27}]",87270.80000019073,1669832455407,cantaloupe,orange slices,2.37,2.27,-0.10000000000000009,cantaloupe,1129.0,1129,1129.1999998092651,True,u,88902.10000014305,1631.2999999523163,1669832457038,1631,HRV,HRV_0169,2022-11-30 18:24:20
50,"[{'imgObject': {}, 'id': 'eggs', 'src': '/static/foodstim60/eggs.jpg', 'key': 'u', 'origWidth': 409, 'origHeight': 409, 'width': 409, 'height': 409, 'widthPercent': 0.45, 'rescaleHeight': False, 'trialN': 50, 'loaded': True, 'loadedTime': 1673.6000001430511, 'positionName': 'LEFT', 'positionCoords': [1242.2, 515.5], 'bid': 1.34}, {'imgObject': {}, 'id': 'orange slices', 'src': '/static/foodstim60/orange slices.jpg', 'key': 'i', 'origWidth': 409, 'origHeight': 410, 'width': 409, 'height': 410, 'widthPercent': 0.45, 'rescaleHeight': False, 'trialN': 50, 'loaded': True, 'loadedTime': 2591.9000000953674, 'positionName': 'RIGHT', 'positionCoords': [1788.8, 515], 'bid': 2.27}]",88902.20000004768,1669832457038,eggs,orange slices,1.34,2.27,0.9299999999999999,orange slices,1126.7000000476837,1127,1126.7999999523163,True,i,90534.40000009537,1632.2000000476837,1669832458671,1633,HRV,HRV_0169,2022-11-30 18:24:20
51,"[{'imgObject': {}, 'id': 'strawberries', 'src': '/static/foodstim60/strawberries.jpg', 'key': 'u', 'origWidth': 410, 'origHeight': 410, 'width': 410, 'height': 410, 'widthPercent': 0.45, 'rescaleHeight': False, 'trialN': 51, 'loaded': True, 'loadedTime': 2429.300000190735, 'positionName': 'LEFT', 'positionCoords': [1241.2, 515], 'bid': 9.31}, {'imgObject': {}, 'id': 'hashbrowns', 'src': '/static/foodstim60/hashbrowns.jpg', 'key': 'i', 'origWidth': 411, 'origHeight': 410, 'width': 411, 'height': 410, 'widthPercent': 0.45, 'rescaleHeight': False, 'trialN': 51, 'loaded': True, 'loadedTime': 2565, 'positionName': 'RIGHT', 'positionCoords': [1788.8, 515], 'bid': 5.05}]",90534.60000014305,1669832458671,strawberries,hashbrowns,9.31,5.05,-4.260000000000001,strawberries,932.2999999523163,932,932.3999998569489,True,u,91974.80000019073,1440.2000000476837,1669832460111,1440,HRV,HRV_0169,2022-11-30 18:24:20
52,"[{'imgObject': {}, 'id': 'grilled chicken strips', 'src': '/static/foodstim60/grilled chicken strips.jpg', 'key': 'u', 'origWidth': 410, 'origHeight': 411, 'width': 410, 'height': 411, 'widthPercent': 0.45, 'rescaleHeight': False, 'trialN': 52, 'loaded': True, 'loadedTime': 2348, 'positionName': 'LEFT', 'positionCoords': [1241.2, 514.5], 'bid': 9.28}, {'imgObject': {}, 'id': 'avocado', 'src': '/static/foodstim60/avocado.jpg', 'key': 'i', 'origWidth': 409, 'origHeight': 409, 'width': 409, 'height': 409, 'widthPercent': 0.45, 'rescaleHeight': False, 'trialN': 52, 'loaded': True, 'loadedTime': 2563.600000143051, 'positionName': 'RIGHT', 'positionCoords': [1788.8, 515.5], 'bid': 5.05}]",91974.90000009537,1669832460111,grilled chicken strips,avocado,9.28,5.05,-4.2299999999999995,grilled chicken strips,682.9000000953674,683,683.0,True,u,93158.0,1183.0999999046326,1669832461294,1183,HRV,HRV_0169,2022-11-30 18:24:20
53,"[{'imgObject': {}, 'id': 'fried eggs', 'src': '/static/foodstim60/fried eggs.jpg', 'key': 'u', 'origWidth': 410, 'origHeight': 410, 'width': 410, 'height': 410, 'widthPercent': 0.45, 'rescaleHeight': False, 'trialN': 53, 'loaded': True, 'loadedTime': 2441.9000000953674, 'positionName': 'LEFT', 'positionCoords': [1241.2, 515], 'bid': 7.25}, {'imgObject': {}, 'id': 'chickenfingers', 'src': '/static/foodstim60/chickenfingers.jpg', 'key': 'i', 'origWidth': 410, 'origHeight': 410, 'width': 410, 'height': 410, 'widthPercent': 0.45, 'rescaleHeight': False, 'trialN': 53, 'loaded': True, 'loadedTime': 2377.5, 'positionName': 'RIGHT', 'positionCoords': [1788.8, 515], 'bid': 8.870000000000001}]",93158.10000014305,1669832461294,fried eggs,chickenfingers,7.25,8.870000000000001,1.620000000000001,chickenfingers,767.7000000476837,768,767.7999999523163,True,i,94430.30000019073,1272.2000000476837,1669832462567,1273,HRV,HRV_0169,2022-11-30 18:24:20
54,"[{'imgObject': {}, 'id': 'omelette', 'src': '/static/foodstim60/omelette.jpg', 'key': 'u', 'origWidth': 410, 'origHeight': 409, 'width': 410, 'height': 409, 'widthPercent': 0.45, 'rescaleHeight': False, 'trialN': 54, 'loaded': True, 'loadedTime': 2454, 'positionName': 'LEFT', 'positionCoords': [1241.2, 515.5], 'bid': 7.1000000000000005}, {'imgObject': {}, 'id': 'turkeysandwich', 'src': '/static/foodstim60/turkeysandwich.jpg', 'key': 'i', 'origWidth': 409, 'origHeight': 409, 'width': 409, 'height': 409, 'widthPercent': 0.45, 'rescaleHeight': False, 'trialN': 54, 'loaded': True, 'loadedTime': 2310.7000000476837, 'positionName': 'RIGHT', 'positionCoords': [1788.8, 515.5], 'bid': 6.49}]",94430.5,1669832462567,omelette,turkeysandwich,7.1000000000000005,6.49,-0.6100000000000003,turkeysandwich,787.3000001907349,787,787.5,True,i,95718.60000014305,1288.1000001430511,1669832463855,1288,HRV,HRV_0169,2022-11-30 18:24:20
55,"[{'imgObject': {}, 'id': 'chickenfingers', 'src': '/static/foodstim60/chickenfingers.jpg', 'key': 'u', 'origWidth': 410, 'origHeight': 410, 'width': 410, 'height': 410, 'widthPercent': 0.45, 'rescaleHeight': False, 'trialN': 55, 'loaded': True, 'loadedTime': 2378.2000000476837, 'positionName': 'LEFT', 'positionCoords': [1241.2, 515], 'bid': 8.870000000000001}, {'imgObject': {}, 'id': 'bagel and cc', 'src': '/static/foodstim60/bagel and cc.jpg', 'key': 'i', 'origWidth': 410, 'origHeight': 410, 'width': 410, 'height': 410, 'widthPercent': 0.45, 'rescaleHeight': False, 'trialN': 55, 'loaded': True, 'loadedTime': 1764.1000001430511, 'positionName': 'RIGHT', 'positionCoords': [1788.8, 515], 'bid': 6.01}]",95718.80000019073,1669832463855,chickenfingers,bagel and cc,8.870000000000001,6.01,-2.860000000000001,chickenfingers,699.0,699,699.0999999046326,True,u,96918.90000009537,1200.0999999046326,1669832465055,1200,HRV,HRV_0169,2022-11-30 18:24:20
56,"[{'imgObject': {}, 'id': 'blueberries', 'src': '/static/foodstim60/blueberries.jpg', 'key': 'u', 'origWidth': 411, 'origHeight': 411, 'width': 411, 'height': 411, 'widthPercent': 0.45, 'rescaleHeight': False, 'trialN': 56, 'loaded': True, 'loadedTime': 1758.9000000953674, 'positionName': 'LEFT', 'positionCoords': [1240.2, 514.5], 'bid': 6.05}, {'imgObject': {}, 'id': 'eggsalad', 'src': '/static/foodstim60/eggsalad.jpg', 'key': 'i', 'origWidth': 410, 'origHeight': 409, 'width': 410, 'height': 409, 'widthPercent': 0.45, 'rescaleHeight': False, 'trialN': 56, 'loaded': True, 'loadedTime': 1989.2000000476837, 'positionName': 'RIGHT', 'positionCoords': [1788.8, 515.5], 'bid': 1.98}]",96919.0,1669832465055,blueberries,eggsalad,6.05,1.98,-4.07,blueberries,754.9000000953674,755,755.1000001430511,True,u,98174.20000004768,1255.2000000476837,1669832466310,1255,HRV,HRV_0169,2022-11-30 18:24:20
57,"[{'imgObject': {}, 'id': 'raspberries', 'src': '/static/foodstim60/raspberries.jpg', 'key': 'u', 'origWidth': 411, 'origHeight': 411, 'width': 411, 'height': 411, 'widthPercent': 0.45, 'rescaleHeight': False, 'trialN': 57, 'loaded': True, 'loadedTime': 2578.9000000953674, 'positionName': 'LEFT', 'positionCoords': [1240.2, 514.5], 'bid': 5.61}, {'imgObject': {}, 'id': 'banana', 'src': '/static/foodstim60/banana.jpg', 'key': 'i', 'origWidth': 410, 'origHeight': 410, 'width': 410, 'height': 410, 'widthPercent': 0.45, 'rescaleHeight': False, 'trialN': 57, 'loaded': True, 'loadedTime': 2049.600000143051, 'positionName': 'RIGHT', 'positionCoords': [1788.8, 515], 'bid': 1.08}]",98174.30000019073,1669832466311,raspberries,banana,5.61,1.08,-4.53,raspberries,730.5,730,730.6999998092651,True,u,99406.40000009537,1232.0999999046326,1669832467543,1232,HRV,HRV_0169,2022-11-30 18:24:20
58,"[{'imgObject': {}, 'id': 'turkeysandwich', 'src': '/static/foodstim60/turkeysandwich.jpg', 'key': 'u', 'origWidth': 409, 'origHeight': 409, 'width': 409, 'height': 409, 'widthPercent': 0.45, 'rescaleHeight': False, 'trialN': 58, 'loaded': True, 'loadedTime': 2286.2000000476837, 'positionName': 'LEFT', 'positionCoords': [1242.2, 515.5], 'bid': 6.49}, {'imgObject': {}, 'id': 'orange slices', 'src': '/static/foodstim60/orange slices.jpg', 'key': 'i', 'origWidth': 409, 'origHeight': 410, 'width': 409, 'height': 410, 'widthPercent': 0.45, 'rescaleHeight': False, 'trialN': 58, 'loaded': True, 'loadedTime': 2592.2000000476837, 'positionName': 'RIGHT', 'positionCoords': [1788.8, 515], 'bid': 2.27}]",99406.60000014305,1669832467543,turkeysandwich,orange slices,6.49,2.27,-4.220000000000001,turkeysandwich,602.2999999523163,602,602.3999998569489,True,u,100510.80000019073,1104.2000000476837,1669832468647,1104,HRV,HRV_0169,2022-11-30 18:24:20
59,"[{'imgObject': {}, 'id': 'cherries', 'src': '/static/foodstim60/cherries.jpg', 'key': 'u', 'origWidth': 410, 'origHeight': 411, 'width': 410, 'height': 411, 'widthPercent': 0.45, 'rescaleHeight': False, 'trialN': 59, 'loaded': True, 'loadedTime': 1916.4000000953674, 'positionName': 'LEFT', 'positionCoords': [1241.2, 514.5], 'bid': 0.5}, {'imgObject': {}, 'id': 'banana', 'src': '/static/foodstim60/banana.jpg', 'key': 'i', 'origWidth': 410, 'origHeight': 410, 'width': 410, 'height': 410, 'widthPercent': 0.45, 'rescaleHeight': False, 'trialN': 59, 'loaded': True, 'loadedTime': 2061.800000190735, 'positionName': 'RIGHT', 'positionCoords': [1788.8, 515], 'bid': 1.08}]",100510.80000019073,1669832468647,cherries,banana,0.5,1.08,0.5800000000000001,banana,1548.0,1548,1548.0999999046326,True,i,102566.20000004768,2055.399999856949,1669832470702,2055,HRV,HRV_0169,2022-11-30 18:24:20
60,"[{'imgObject': {}, 'id': 'granola w milk', 'src': '/static/foodstim60/granola w milk.jpg', 'key': 'u', 'origWidth': 410, 'origHeight': 410, 'width': 410, 'height': 410, 'widthPercent': 0.45, 'rescaleHeight': False, 'trialN': 60, 'loaded': True, 'loadedTime': 1644.6000001430511, 'positionName': 'LEFT', 'positionCoords': [1241.2, 515], 'bid': 1.82}, {'imgObject': {}, 'id': 'mango', 'src': '/static/foodstim60/mango.jpg', 'key': 'i', 'origWidth': 411, 'origHeight': 411, 'width': 411, 'height': 411, 'widthPercent': 0.45, 'rescaleHeight': False, 'trialN': 60, 'loaded': True, 'loadedTime': 2592.600000143051, 'positionName': 'RIGHT', 'positionCoords': [1788.8, 514.5], 'bid': 3.85}]",102566.30000019073,1669832470703,granola w milk,mango,1.82,3.85,2.0300000000000002,mango,1102.5999999046326,1102,1102.5999999046326,True,i,104174.60000014305,1608.2999999523163,1669832472311,1608,HRV,HRV_0169,2022-11-30 18:24:20
61,"[{'imgObject': {}, 'id': 'eggsalad', 'src': '/static/foodstim60/eggsalad.jpg', 'key': 'u', 'origWidth': 410, 'origHeight': 409, 'width': 410, 'height': 409, 'widthPercent': 0.45, 'rescaleHeight': False, 'trialN': 61, 'loaded': True, 'loadedTime': 1978.4000000953674, 'positionName': 'LEFT', 'positionCoords': [1241.2, 515.5], 'bid': 1.98}, {'imgObject': {}, 'id': 'raisin bran w milk', 'src': '/static/foodstim60/raisin bran w milk.jpg', 'key': 'i', 'origWidth': 411, 'origHeight': 411, 'width': 411, 'height': 411, 'widthPercent': 0.45, 'rescaleHeight': False, 'trialN': 61, 'loaded': True, 'loadedTime': 1759.3000001907349, 'positionName': 'RIGHT', 'positionCoords': [1788.8, 514.5], 'bid': 1.58}]",104174.70000004768,1669832472311,eggsalad,raisin bran w milk,1.98,1.58,-0.3999999999999999,eggsalad,1177.2000000476837,1177,1177.2999999523163,True,u,105854.90000009537,1680.2000000476837,1669832473991,1680,HRV,HRV_0169,2022-11-30 18:24:20
62,"[{'imgObject': {}, 'id': 'baked potato', 'src': '/static/foodstim60/baked potato.jpg', 'key': 'u', 'origWidth': 409, 'origHeight': 410, 'width': 409, 'height': 410, 'widthPercent': 0.45, 'rescaleHeight': False, 'trialN': 62, 'loaded': True, 'loadedTime': 2182.7000000476837, 'positionName': 'LEFT', 'positionCoords': [1242.2, 515], 'bid': 3.61}, {'imgObject': {}, 'id': 'blackbeanswithrice', 'src': '/static/foodstim60/blackbeanswithrice.jpg', 'key': 'i', 'origWidth': 410, 'origHeight': 410, 'width': 410, 'height': 410, 'widthPercent': 0.45, 'rescaleHeight': False, 'trialN': 62, 'loaded': True, 'loadedTime': 2562.9000000953674, 'positionName': 'RIGHT', 'positionCoords': [1788.8, 515], 'bid': 8.6}]",105855.0,1669832473991,baked potato,blackbeanswithrice,3.61,8.6,4.99,blackbeanswithrice,637.8000001907349,638,637.9000000953674,True,i,106998.20000004768,1143.2000000476837,1669832475134,1143,HRV,HRV_0169,2022-11-30 18:24:20
63,"[{'imgObject': {}, 'id': 'ice cream sundae 002', 'src': '/static/foodstim60/ice cream sundae 002.jpg', 'key': 'u', 'origWidth': 409, 'origHeight': 409, 'width': 409, 'height': 409, 'widthPercent': 0.45, 'rescaleHeight': False, 'trialN': 63, 'loaded': True, 'loadedTime': 1653.6000001430511, 'positionName': 'LEFT', 'positionCoords': [1242.2, 515.5], 'bid': 2.48}, {'imgObject': {}, 'id': 'mashed potato', 'src': '/static/foodstim60/mashed potato.jpg', 'key': 'i', 'origWidth': 409, 'origHeight': 409, 'width': 409, 'height': 409, 'widthPercent': 0.45, 'rescaleHeight': False, 'trialN': 63, 'loaded': True, 'loadedTime': 2012.8000001907349, 'positionName': 'RIGHT', 'positionCoords': [1788.8, 515.5], 'bid': 2.52}]",106998.30000019073,1669832475135,ice cream sundae 002,mashed potato,2.48,2.52,0.040000000000000036,mashed potato,824.6999998092651,824,824.7999999523163,True,i,108326.5,1328.1999998092651,1669832476463,1328,HRV,HRV_0169,2022-11-30 18:24:20
64,"[{'imgObject': {}, 'id': 'edamame', 'src': '/static/foodstim60/edamame.jpg', 'key': 'u', 'origWidth': 409, 'origHeight': 410, 'width': 409, 'height': 410, 'widthPercent': 0.45, 'rescaleHeight': False, 'trialN': 64, 'loaded': True, 'loadedTime': 2622.100000143051, 'positionName': 'LEFT', 'positionCoords': [1242.2, 515], 'bid': 2.58}, {'imgObject': {}, 'id': 'mango', 'src': '/static/foodstim60/mango.jpg', 'key': 'i', 'origWidth': 411, 'origHeight': 411, 'width': 411, 'height': 411, 'widthPercent': 0.45, 'rescaleHeight': False, 'trialN': 64, 'loaded': True, 'loadedTime': 2592.800000190735, 'positionName': 'RIGHT', 'positionCoords': [1788.8, 514.5], 'bid': 3.85}]",108326.60000014305,1669832476463,edamame,mango,2.58,3.85,1.27,edamame,1215.2000000476837,1215,1215.3999998569489,True,u,110046.90000009537,1720.2999999523163,1669832478183,1720,HRV,HRV_0169,2022-11-30 18:24:20
65,"[{'imgObject': {}, 'id': 'cherry tomato', 'src': '/static/foodstim60/cherry tomato.jpg', 'key': 'u', 'origWidth': 410, 'origHeight': 410, 'width': 410, 'height': 410, 'widthPercent': 0.45, 'rescaleHeight': False, 'trialN': 65, 'loaded': True, 'loadedTime': 2550, 'positionName': 'LEFT', 'positionCoords': [1241.2, 515], 'bid': 2.36}, {'imgObject': {}, 'id': 'omelette', 'src': '/static/foodstim60/omelette.jpg', 'key': 'i', 'origWidth': 410, 'origHeight': 409, 'width': 410, 'height': 409, 'widthPercent': 0.45, 'rescaleHeight': False, 'trialN': 65, 'loaded': True, 'loadedTime': 2442.7000000476837, 'positionName': 'RIGHT', 'positionCoords': [1788.8, 515.5], 'bid': 7.1000000000000005}]",110047.0,1669832478183,cherry tomato,omelette,2.36,7.1000000000000005,4.74,omelette,815.9000000953674,816,816.0,True,i,111366.20000004768,1319.2000000476837,1669832479502,1319,HRV,HRV_0169,2022-11-30 18:24:20
66,"[{'imgObject': {}, 'id': 'kiwi', 'src': '/static/foodstim60/kiwi.jpg', 'key': 'u', 'origWidth': 410, 'origHeight': 410, 'width': 410, 'height': 410, 'widthPercent': 0.45, 'rescaleHeight': False, 'trialN': 66, 'loaded': True, 'loadedTime': 1953.7000000476837, 'positionName': 'LEFT', 'positionCoords': [1241.2, 515], 'bid': 5.24}, {'imgObject': {}, 'id': 'blueberries', 'src': '/static/foodstim60/blueberries.jpg', 'key': 'i', 'origWidth': 411, 'origHeight': 411, 'width': 411, 'height': 411, 'widthPercent': 0.45, 'rescaleHeight': False, 'trialN': 66, 'loaded': True, 'loadedTime': 1742.3000001907349, 'positionName': 'RIGHT', 'positionCoords': [1788.8, 514.5], 'bid': 6.05}]",111366.30000019073,1669832479503,kiwi,blueberries,5.24,6.05,0.8099999999999996,blueberries,1637.5999999046326,1637,1637.6999998092651,True,i,113510.60000014305,2144.2999999523163,1669832481647,2144,HRV,HRV_0169,2022-11-30 18:24:20
67,"[{'imgObject': {}, 'id': 'luckycharms', 'src': '/static/foodstim60/luckycharms.jpg', 'key': 'u', 'origWidth': 410, 'origHeight': 409, 'width': 410, 'height': 409, 'widthPercent': 0.45, 'rescaleHeight': False, 'trialN': 67, 'loaded': True, 'loadedTime': 2537.800000190735, 'positionName': 'LEFT', 'positionCoords': [1241.2, 515.5], 'bid': 5.79}, {'imgObject': {}, 'id': 'burrito', 'src': '/static/foodstim60/burrito.jpg', 'key': 'i', 'origWidth': 410, 'origHeight': 410, 'width': 410, 'height': 410, 'widthPercent': 0.45, 'rescaleHeight': False, 'trialN': 67, 'loaded': True, 'loadedTime': 2236.7000000476837, 'positionName': 'RIGHT', 'positionCoords': [1788.8, 515], 'bid': 5.87}]",113510.80000019073,1669832481647,luckycharms,burrito,5.79,5.87,0.08000000000000007,burrito,784.0,784,784.1999998092651,True,i,114798.0,1287.1999998092651,1669832482934,1287,HRV,HRV_0169,2022-11-30 18:24:20
68,"[{'imgObject': {}, 'id': 'edamame', 'src': '/static/foodstim60/edamame.jpg', 'key': 'u', 'origWidth': 409, 'origHeight': 410, 'width': 409, 'height': 410, 'widthPercent': 0.45, 'rescaleHeight': False, 'trialN': 68, 'loaded': True, 'loadedTime': 2608.300000190735, 'positionName': 'LEFT', 'positionCoords': [1242.2, 515], 'bid': 2.58}, {'imgObject': {}, 'id': 'chicken nuggets2', 'src': '/static/foodstim60/chicken nuggets2.jpg', 'key': 'i', 'origWidth': 410, 'origHeight': 409, 'width': 410, 'height': 409, 'widthPercent': 0.45, 'rescaleHeight': False, 'trialN': 68, 'loaded': True, 'loadedTime': 2390.9000000953674, 'positionName': 'RIGHT', 'positionCoords': [1788.8, 515.5], 'bid': 8.25}]",114798.10000014305,1669832482934,edamame,chicken nuggets2,2.58,8.25,5.67,chicken nuggets2,716.7999999523163,717,716.8999998569489,True,i,116022.20000004768,1224.0999999046326,1669832484159,1225,HRV,HRV_0169,2022-11-30 18:24:20
69,"[{'imgObject': {}, 'id': 'turkey sandwich', 'src': '/static/foodstim60/turkey sandwich.jpg', 'key': 'u', 'origWidth': 409, 'origHeight': 409, 'width': 409, 'height': 409, 'widthPercent': 0.45, 'rescaleHeight': False, 'trialN': 69, 'loaded': True, 'loadedTime': 2274.7000000476837, 'positionName': 'LEFT', 'positionCoords': [1242.2, 515.5], 'bid': 7.1000000000000005}, {'imgObject': {}, 'id': 'sushi w_condiments', 'src': '/static/foodstim60/sushi w_condiments.jpg', 'key': 'i', 'origWidth': 410, 'origHeight': 410, 'width': 410, 'height': 410, 'widthPercent': 0.45, 'rescaleHeight': False, 'trialN': 69, 'loaded': True, 'loadedTime': 1867.9000000953674, 'positionName': 'RIGHT', 'positionCoords': [1788.8, 515], 'bid': 8.26}]",116022.30000019073,1669832484159,turkey sandwich,sushi w_condiments,7.1000000000000005,8.26,1.1599999999999993,sushi w_condiments,878.7999999523163,878,878.8999998569489,True,i,117406.60000014305,1384.2999999523163,1669832485543,1384,HRV,HRV_0169,2022-11-30 18:24:20
70,"[{'imgObject': {}, 'id': 'mango', 'src': '/static/foodstim60/mango.jpg', 'key': 'u', 'origWidth': 411, 'origHeight': 411, 'width': 411, 'height': 411, 'widthPercent': 0.45, 'rescaleHeight': False, 'trialN': 70, 'loaded': True, 'loadedTime': 2607.2000000476837, 'positionName': 'LEFT', 'positionCoords': [1240.2, 514.5], 'bid': 3.85}, {'imgObject': {}, 'id': 'hotdog w must', 'src': '/static/foodstim60/hotdog w must.jpg', 'key': 'i', 'origWidth': 409, 'origHeight': 409, 'width': 409, 'height': 409, 'widthPercent': 0.45, 'rescaleHeight': False, 'trialN': 70, 'loaded': True, 'loadedTime': 2623.5, 'positionName': 'RIGHT', 'positionCoords': [1788.8, 515.5], 'bid': 5}]",117406.70000004768,1669832485543,mango,hotdog w must,3.85,5.0,1.15,hotdog w must,926.2000000476837,926,926.4000000953674,True,i,118838.90000009537,1432.2000000476837,1669832486975,1432,HRV,HRV_0169,2022-11-30 18:24:20
71,"[{'imgObject': {}, 'id': 'steak', 'src': '/static/foodstim60/steak.jpg', 'key': 'u', 'origWidth': 410, 'origHeight': 410, 'width': 410, 'height': 410, 'widthPercent': 0.45, 'rescaleHeight': False, 'trialN': 71, 'loaded': True, 'loadedTime': 2087.800000190735, 'positionName': 'LEFT', 'positionCoords': [1241.2, 515], 'bid': 10}, {'imgObject': {}, 'id': 'tacos', 'src': '/static/foodstim60/tacos.jpg', 'key': 'i', 'origWidth': 411, 'origHeight': 411, 'width': 411, 'height': 411, 'widthPercent': 0.45, 'rescaleHeight': False, 'trialN': 71, 'loaded': True, 'loadedTime': 1769.9000000953674, 'positionName': 'RIGHT', 'positionCoords': [1788.8, 514.5], 'bid': 9.57}]",118839.0,1669832486975,steak,tacos,10.0,9.57,-0.4299999999999997,tacos,636.9000000953674,637,637.0,True,i,119982.10000014305,1143.1000001430511,1669832488118,1143,HRV,HRV_0169,2022-11-30 18:24:20
72,"[{'imgObject': {}, 'id': 'burrito', 'src': '/static/foodstim60/burrito.jpg', 'key': 'u', 'origWidth': 410, 'origHeight': 410, 'width': 410, 'height': 410, 'widthPercent': 0.45, 'rescaleHeight': False, 'trialN': 72, 'loaded': True, 'loadedTime': 2248.7000000476837, 'positionName': 'LEFT', 'positionCoords': [1241.2, 515], 'bid': 5.87}, {'imgObject': {}, 'id': 'pear', 'src': '/static/foodstim60/pear.jpg', 'key': 'i', 'origWidth': 411, 'origHeight': 410, 'width': 411, 'height': 410, 'widthPercent': 0.45, 'rescaleHeight': False, 'trialN': 72, 'loaded': True, 'loadedTime': 1761.5, 'positionName': 'RIGHT', 'positionCoords': [1788.8, 515], 'bid': 5.97}]",119982.20000004768,1669832488118,burrito,pear,5.87,5.97,0.09999999999999964,burrito,1935.7000000476837,1936,1935.7999999523163,True,u,122422.70000004768,2440.5,1669832490559,2441,HRV,HRV_0169,2022-11-30 18:24:20
73,"[{'imgObject': {}, 'id': 'cherries', 'src': '/static/foodstim60/cherries.jpg', 'key': 'u', 'origWidth': 410, 'origHeight': 411, 'width': 410, 'height': 411, 'widthPercent': 0.45, 'rescaleHeight': False, 'trialN': 73, 'loaded': True, 'loadedTime': 1916.8000001907349, 'positionName': 'LEFT', 'positionCoords': [1241.2, 514.5], 'bid': 0.5}, {'imgObject': {}, 'id': 'edamame', 'src': '/static/foodstim60/edamame.jpg', 'key': 'i', 'origWidth': 409, 'origHeight': 410, 'width': 409, 'height': 410, 'widthPercent': 0.45, 'rescaleHeight': False, 'trialN': 73, 'loaded': True, 'loadedTime': 2622.5, 'positionName': 'RIGHT', 'positionCoords': [1788.8, 515], 'bid': 2.58}]",122422.80000019073,1669832490559,cherries,edamame,0.5,2.58,2.08,edamame,815.0999999046326,815,815.2999999523163,True,i,123742.0,1319.1999998092651,1669832491878,1319,HRV,HRV_0169,2022-11-30 18:24:20
74,"[{'imgObject': {}, 'id': 'fruitsalad', 'src': '/static/foodstim60/fruitsalad.jpg', 'key': 'u', 'origWidth': 410, 'origHeight': 410, 'width': 410, 'height': 410, 'widthPercent': 0.45, 'rescaleHeight': False, 'trialN': 74, 'loaded': True, 'loadedTime': 1930.3000001907349, 'positionName': 'LEFT', 'positionCoords': [1241.2, 515], 'bid': 5.8100000000000005}, {'imgObject': {}, 'id': 'sweetpotato', 'src': '/static/foodstim60/sweetpotato.jpg', 'key': 'i', 'origWidth': 410, 'origHeight': 410, 'width': 410, 'height': 410, 'widthPercent': 0.45, 'rescaleHeight': False, 'trialN': 74, 'loaded': True, 'loadedTime': 2025.2000000476837, 'positionName': 'RIGHT', 'positionCoords': [1788.8, 515], 'bid': 1.46}]",123742.0,1669832491878,fruitsalad,sweetpotato,5.8100000000000005,1.46,-4.3500000000000005,fruitsalad,1273.8000001907349,1274,1274.0,True,u,125518.40000009537,1776.4000000953674,1669832493655,1777,HRV,HRV_0169,2022-11-30 18:24:20
75,"[{'imgObject': {}, 'id': 'burrito', 'src': '/static/foodstim60/burrito.jpg', 'key': 'u', 'origWidth': 410, 'origHeight': 410, 'width': 410, 'height': 410, 'widthPercent': 0.45, 'rescaleHeight': False, 'trialN': 75, 'loaded': True, 'loadedTime': 2236.100000143051, 'positionName': 'LEFT', 'positionCoords': [1241.2, 515], 'bid': 5.87}, {'imgObject': {}, 'id': 'avocado', 'src': '/static/foodstim60/avocado.jpg', 'key': 'i', 'origWidth': 409, 'origHeight': 409, 'width': 409, 'height': 409, 'widthPercent': 0.45, 'rescaleHeight': False, 'trialN': 75, 'loaded': True, 'loadedTime': 2563.600000143051, 'positionName': 'RIGHT', 'positionCoords': [1788.8, 515.5], 'bid': 5.05}]",125518.5,1669832493655,burrito,avocado,5.87,5.05,-0.8200000000000003,burrito,1120.4000000953674,1120,1120.5,True,u,127142.80000019073,1624.3000001907349,1669832495279,1624,HRV,HRV_0169,2022-11-30 18:24:20
76,"[{'imgObject': {}, 'id': 'turkeysandwich', 'src': '/static/foodstim60/turkeysandwich.jpg', 'key': 'u', 'origWidth': 409, 'origHeight': 409, 'width': 409, 'height': 409, 'widthPercent': 0.45, 'rescaleHeight': False, 'trialN': 76, 'loaded': True, 'loadedTime': 2311, 'positionName': 'LEFT', 'positionCoords': [1242.2, 515.5], 'bid': 6.49}, {'imgObject': {}, 'id': 'roastedpotatoes', 'src': '/static/foodstim60/roastedpotatoes.jpg', 'key': 'i', 'origWidth': 409, 'origHeight': 410, 'width': 409, 'height': 410, 'widthPercent': 0.45, 'rescaleHeight': False, 'trialN': 76, 'loaded': True, 'loadedTime': 2377.5, 'positionName': 'RIGHT', 'positionCoords': [1788.8, 515], 'bid': 7.91}]",127142.90000009537,1669832495279,turkeysandwich,roastedpotatoes,6.49,7.91,1.42,turkeysandwich,1053.9000000953674,1054,1054.0999999046326,True,u,128702.10000014305,1559.2000000476837,1669832496838,1559,HRV,HRV_0169,2022-11-30 18:24:20
77,"[{'imgObject': {}, 'id': 'luckycharms', 'src': '/static/foodstim60/luckycharms.jpg', 'key': 'u', 'origWidth': 410, 'origHeight': 409, 'width': 410, 'height': 409, 'widthPercent': 0.45, 'rescaleHeight': False, 'trialN': 77, 'loaded': True, 'loadedTime': 2537.9000000953674, 'positionName': 'LEFT', 'positionCoords': [1241.2, 515.5], 'bid': 5.79}, {'imgObject': {}, 'id': 'yogurt no spoon', 'src': '/static/foodstim60/yogurt no spoon.jpg', 'key': 'i', 'origWidth': 411, 'origHeight': 410, 'width': 411, 'height': 410, 'widthPercent': 0.45, 'rescaleHeight': False, 'trialN': 77, 'loaded': True, 'loadedTime': 2637.600000143051, 'positionName': 'RIGHT', 'positionCoords': [1788.8, 515], 'bid': 4.04}]",128702.20000004768,1669832496838,luckycharms,yogurt no spoon,5.79,4.04,-1.75,luckycharms,988.7999999523163,989,988.9000000953674,True,u,130198.40000009537,1496.2000000476837,1669832498335,1497,HRV,HRV_0169,2022-11-30 18:24:20
78,"[{'imgObject': {}, 'id': 'olives', 'src': '/static/foodstim60/olives.jpg', 'key': 'u', 'origWidth': 410, 'origHeight': 410, 'width': 410, 'height': 410, 'widthPercent': 0.45, 'rescaleHeight': False, 'trialN': 78, 'loaded': True, 'loadedTime': 2638.100000143051, 'positionName': 'LEFT', 'positionCoords': [1241.2, 515], 'bid': 2.54}, {'imgObject': {}, 'id': 'roastedpotatoes', 'src': '/static/foodstim60/roastedpotatoes.jpg', 'key': 'i', 'origWidth': 409, 'origHeight': 410, 'width': 409, 'height': 410, 'widthPercent': 0.45, 'rescaleHeight': False, 'trialN': 78, 'loaded': True, 'loadedTime': 2364.100000143051, 'positionName': 'RIGHT', 'positionCoords': [1788.8, 515], 'bid': 7.91}]",130198.60000014305,1669832498335,olives,roastedpotatoes,2.54,7.91,5.37,roastedpotatoes,914.2999999523163,914,914.5,True,i,131614.80000019073,1416.2000000476837,1669832499751,1416,HRV,HRV_0169,2022-11-30 18:24:20
79,"[{'imgObject': {}, 'id': 'avocado', 'src': '/static/foodstim60/avocado.jpg', 'key': 'u', 'origWidth': 409, 'origHeight': 409, 'width': 409, 'height': 409, 'widthPercent': 0.45, 'rescaleHeight': False, 'trialN': 79, 'loaded': True, 'loadedTime': 2563.100000143051, 'positionName': 'LEFT', 'positionCoords': [1242.2, 515.5], 'bid': 5.05}, {'imgObject': {}, 'id': 'hashbrowns', 'src': '/static/foodstim60/hashbrowns.jpg', 'key': 'i', 'origWidth': 411, 'origHeight': 410, 'width': 411, 'height': 410, 'widthPercent': 0.45, 'rescaleHeight': False, 'trialN': 79, 'loaded': True, 'loadedTime': 2577, 'positionName': 'RIGHT', 'positionCoords': [1788.8, 515], 'bid': 5.05}]",131614.90000009537,1669832499751,avocado,hashbrowns,5.05,5.05,0.0,avocado,1147.9000000953674,1148,1148.0999999046326,True,u,133270.10000014305,1655.2000000476837,1669832501406,1655,HRV,HRV_0169,2022-11-30 18:24:20
80,"[{'imgObject': {}, 'id': 'chickenfingers', 'src': '/static/foodstim60/chickenfingers.jpg', 'key': 'u', 'origWidth': 410, 'origHeight': 410, 'width': 410, 'height': 410, 'widthPercent': 0.45, 'rescaleHeight': False, 'trialN': 80, 'loaded': True, 'loadedTime': 2390.7000000476837, 'positionName': 'LEFT', 'positionCoords': [1241.2, 515], 'bid': 8.870000000000001}, {'imgObject': {}, 'id': 'mango', 'src': '/static/foodstim60/mango.jpg', 'key': 'i', 'origWidth': 411, 'origHeight': 411, 'width': 411, 'height': 411, 'widthPercent': 0.45, 'rescaleHeight': False, 'trialN': 80, 'loaded': True, 'loadedTime': 2592.2000000476837, 'positionName': 'RIGHT', 'positionCoords': [1788.8, 514.5], 'bid': 3.85}]",133270.20000004768,1669832501407,chickenfingers,mango,8.870000000000001,3.85,-5.020000000000001,chickenfingers,786.7000000476837,786,786.7999999523163,True,u,134558.5,1288.2999999523163,1669832502694,1287,HRV,HRV_0169,2022-11-30 18:24:20
81,"[{'imgObject': {}, 'id': 'fried eggs', 'src': '/static/foodstim60/fried eggs.jpg', 'key': 'u', 'origWidth': 410, 'origHeight': 410, 'width': 410, 'height': 410, 'widthPercent': 0.45, 'rescaleHeight': False, 'trialN': 81, 'loaded': True, 'loadedTime': 2442.100000143051, 'positionName': 'LEFT', 'positionCoords': [1241.2, 515], 'bid': 7.25}, {'imgObject': {}, 'id': 'seaweed', 'src': '/static/foodstim60/seaweed.jpg', 'key': 'i', 'origWidth': 410, 'origHeight': 410, 'width': 410, 'height': 410, 'widthPercent': 0.45, 'rescaleHeight': False, 'trialN': 81, 'loaded': True, 'loadedTime': 2075.300000190735, 'positionName': 'RIGHT', 'positionCoords': [1788.8, 515], 'bid': 2.43}]",134558.5,1669832502694,fried eggs,seaweed,7.25,2.43,-4.82,fried eggs,1429.4000000953674,1430,1429.5,True,u,136494.80000019073,1936.3000001907349,1669832504631,1937,HRV,HRV_0169,2022-11-30 18:24:20
82,"[{'imgObject': {}, 'id': 'omelette', 'src': '/static/foodstim60/omelette.jpg', 'key': 'u', 'origWidth': 410, 'origHeight': 409, 'width': 410, 'height': 409, 'widthPercent': 0.45, 'rescaleHeight': False, 'trialN': 82, 'loaded': True, 'loadedTime': 2442.600000143051, 'positionName': 'LEFT', 'positionCoords': [1241.2, 515.5], 'bid': 7.1000000000000005}, {'imgObject': {}, 'id': 'blueberries', 'src': '/static/foodstim60/blueberries.jpg', 'key': 'i', 'origWidth': 411, 'origHeight': 411, 'width': 411, 'height': 411, 'widthPercent': 0.45, 'rescaleHeight': False, 'trialN': 82, 'loaded': True, 'loadedTime': 1755.5, 'positionName': 'RIGHT', 'positionCoords': [1788.8, 514.5], 'bid': 6.05}]",136495.0,1669832504631,omelette,blueberries,7.1000000000000005,6.05,-1.0500000000000007,omelette,1257.9000000953674,1258,1258.1000001430511,True,u,138254.30000019073,1759.3000001907349,1669832506390,1759,HRV,HRV_0169,2022-11-30 18:24:20
83,"[{'imgObject': {}, 'id': 'pear', 'src': '/static/foodstim60/pear.jpg', 'key': 'u', 'origWidth': 411, 'origHeight': 410, 'width': 411, 'height': 410, 'widthPercent': 0.45, 'rescaleHeight': False, 'trialN': 83, 'loaded': True, 'loadedTime': 1762.2000000476837, 'positionName': 'LEFT', 'positionCoords': [1240.2, 515], 'bid': 5.97}, {'imgObject': {}, 'id': 'mac & cheese', 'src': '/static/foodstim60/mac & cheese.jpg', 'key': 'i', 'origWidth': 410, 'origHeight': 410, 'width': 410, 'height': 410, 'widthPercent': 0.45, 'rescaleHeight': False, 'trialN': 83, 'loaded': True, 'loadedTime': 2564.300000190735, 'positionName': 'RIGHT', 'positionCoords': [1788.8, 515], 'bid': 8.870000000000001}]",138254.40000009537,1669832506390,pear,mac & cheese,5.97,8.870000000000001,2.9000000000000012,mac & cheese,762.4000000953674,763,762.7000000476837,True,i,139518.60000014305,1264.2000000476837,1669832507654,1264,HRV,HRV_0169,2022-11-30 18:24:20
84,"[{'imgObject': {}, 'id': 'olives', 'src': '/static/foodstim60/olives.jpg', 'key': 'u', 'origWidth': 410, 'origHeight': 410, 'width': 410, 'height': 410, 'widthPercent': 0.45, 'rescaleHeight': False, 'trialN': 84, 'loaded': True, 'loadedTime': 2639.9000000953674, 'positionName': 'LEFT', 'positionCoords': [1241.2, 515], 'bid': 2.54}, {'imgObject': {}, 'id': 'ice cream sundae 002', 'src': '/static/foodstim60/ice cream sundae 002.jpg', 'key': 'i', 'origWidth': 409, 'origHeight': 409, 'width': 409, 'height': 409, 'widthPercent': 0.45, 'rescaleHeight': False, 'trialN': 84, 'loaded': True, 'loadedTime': 1653.9000000953674, 'positionName': 'RIGHT', 'positionCoords': [1788.8, 515.5], 'bid': 2.48}]",139518.60000014305,1669832507655,olives,ice cream sundae 002,2.54,2.48,-0.06000000000000005,ice cream sundae 002,1419.3999998569489,1419,1419.5999999046326,True,i,141446.0,1927.3999998569489,1669832509582,1927,HRV,HRV_0169,2022-11-30 18:24:20
85,"[{'imgObject': {}, 'id': 'veggieswithdip', 'src': '/static/foodstim60/veggieswithdip.jpg', 'key': 'u', 'origWidth': 409, 'origHeight': 409, 'width': 409, 'height': 409, 'widthPercent': 0.45, 'rescaleHeight': False, 'trialN': 85, 'loaded': True, 'loadedTime': 1685.7000000476837, 'positionName': 'LEFT', 'positionCoords': [1242.2, 515.5], 'bid': 9.1}, {'imgObject': {}, 'id': 'grilled chicken strips', 'src': '/static/foodstim60/grilled chicken strips.jpg', 'key': 'i', 'origWidth': 410, 'origHeight': 411, 'width': 410, 'height': 411, 'widthPercent': 0.45, 'rescaleHeight': False, 'trialN': 85, 'loaded': True, 'loadedTime': 2348.300000190735, 'positionName': 'RIGHT', 'positionCoords': [1788.8, 514.5], 'bid': 9.28}]",141446.10000014305,1669832509582,veggieswithdip,grilled chicken strips,9.1,9.28,0.17999999999999972,grilled chicken strips,932.7999999523163,933,932.8999998569489,True,i,142886.30000019073,1440.2000000476837,1669832511022,1440,HRV,HRV_0169,2022-11-30 18:24:20
86,"[{'imgObject': {}, 'id': 'olives', 'src': '/static/foodstim60/olives.jpg', 'key': 'u', 'origWidth': 410, 'origHeight': 410, 'width': 410, 'height': 410, 'widthPercent': 0.45, 'rescaleHeight': False, 'trialN': 86, 'loaded': True, 'loadedTime': 2640, 'positionName': 'LEFT', 'positionCoords': [1241.2, 515], 'bid': 2.54}, {'imgObject': {}, 'id': 'edamame', 'src': '/static/foodstim60/edamame.jpg', 'key': 'i', 'origWidth': 409, 'origHeight': 410, 'width': 409, 'height': 410, 'widthPercent': 0.45, 'rescaleHeight': False, 'trialN': 86, 'loaded': True, 'loadedTime': 2608.4000000953674, 'positionName': 'RIGHT', 'positionCoords': [1788.8, 515], 'bid': 2.58}]",142886.5,1669832511022,olives,edamame,2.54,2.58,0.040000000000000036,edamame,784.4000000953674,785,784.6000001430511,True,i,144174.70000004768,1288.2000000476837,1669832512311,1289,HRV,HRV_0169,2022-11-30 18:24:20
87,"[{'imgObject': {}, 'id': 'raisin bran w milk', 'src': '/static/foodstim60/raisin bran w milk.jpg', 'key': 'u', 'origWidth': 411, 'origHeight': 411, 'width': 411, 'height': 411, 'widthPercent': 0.45, 'rescaleHeight': False, 'trialN': 87, 'loaded': True, 'loadedTime': 1759.9000000953674, 'positionName': 'LEFT', 'positionCoords': [1240.2, 514.5], 'bid': 1.58}, {'imgObject': {}, 'id': 'corn cob', 'src': '/static/foodstim60/corn cob.jpg', 'key': 'i', 'origWidth': 411, 'origHeight': 411, 'width': 411, 'height': 411, 'widthPercent': 0.45, 'rescaleHeight': False, 'trialN': 87, 'loaded': True, 'loadedTime': 1642.4000000953674, 'positionName': 'RIGHT', 'positionCoords': [1788.8, 514.5], 'bid': 1.56}]",144174.70000004768,1669832512311,raisin bran w milk,corn cob,1.58,1.56,-0.020000000000000018,corn cob,908.2000000476837,908,908.2999999523163,True,i,145590.0,1415.2999999523163,1669832513726,1415,HRV,HRV_0169,2022-11-30 18:24:20
88,"[{'imgObject': {}, 'id': 'bagel and cc', 'src': '/static/foodstim60/bagel and cc.jpg', 'key': 'u', 'origWidth': 410, 'origHeight': 410, 'width': 410, 'height': 410, 'widthPercent': 0.45, 'rescaleHeight': False, 'trialN': 88, 'loaded': True, 'loadedTime': 1764.7000000476837, 'positionName': 'LEFT', 'positionCoords': [1241.2, 515], 'bid': 6.01}, {'imgObject': {}, 'id': 'granola w milk', 'src': '/static/foodstim60/granola w milk.jpg', 'key': 'i', 'origWidth': 410, 'origHeight': 410, 'width': 410, 'height': 410, 'widthPercent': 0.45, 'rescaleHeight': False, 'trialN': 88, 'loaded': True, 'loadedTime': 1643.9000000953674, 'positionName': 'RIGHT', 'positionCoords': [1788.8, 515], 'bid': 1.82}]",145590.0,1669832513726,bagel and cc,granola w milk,6.01,1.82,-4.1899999999999995,bagel and cc,883.9000000953674,884,883.9000000953674,True,u,146974.30000019073,1384.3000001907349,1669832515110,1384,HRV,HRV_0169,2022-11-30 18:24:20
89,"[{'imgObject': {}, 'id': 'mashed potato', 'src': '/static/foodstim60/mashed potato.jpg', 'key': 'u', 'origWidth': 409, 'origHeight': 409, 'width': 409, 'height': 409, 'widthPercent': 0.45, 'rescaleHeight': False, 'trialN': 89, 'loaded': True, 'loadedTime': 1989.6000001430511, 'positionName': 'LEFT', 'positionCoords': [1242.2, 515.5], 'bid': 2.52}, {'imgObject': {}, 'id': 'edamame', 'src': '/static/foodstim60/edamame.jpg', 'key': 'i', 'origWidth': 409, 'origHeight': 410, 'width': 409, 'height': 410, 'widthPercent': 0.45, 'rescaleHeight': False, 'trialN': 89, 'loaded': True, 'loadedTime': 2607.600000143051, 'positionName': 'RIGHT', 'positionCoords': [1788.8, 515], 'bid': 2.58}]",146974.30000019073,1669832515110,mashed potato,edamame,2.52,2.58,0.06000000000000005,edamame,1139.5999999046326,1140,1139.7999999523163,True,i,148614.70000004768,1640.3999998569489,1669832516751,1641,HRV,HRV_0169,2022-11-30 18:24:20
90,"[{'imgObject': {}, 'id': 'salad w chicken', 'src': '/static/foodstim60/salad w chicken.jpg', 'key': 'u', 'origWidth': 411, 'origHeight': 411, 'width': 411, 'height': 411, 'widthPercent': 0.45, 'rescaleHeight': False, 'trialN': 90, 'loaded': True, 'loadedTime': 2135.4000000953674, 'positionName': 'LEFT', 'positionCoords': [1240.2, 514.5], 'bid': 8.69}, {'imgObject': {}, 'id': 'chickenfingers', 'src': '/static/foodstim60/chickenfingers.jpg', 'key': 'i', 'origWidth': 410, 'origHeight': 410, 'width': 410, 'height': 410, 'widthPercent': 0.45, 'rescaleHeight': False, 'trialN': 90, 'loaded': True, 'loadedTime': 2378.100000143051, 'positionName': 'RIGHT', 'positionCoords': [1788.8, 515], 'bid': 8.870000000000001}]",151438.30000019073,1669832519574,salad w chicken,chickenfingers,8.69,8.870000000000001,0.1800000000000015,salad w chicken,1364.7999999523163,1365,1364.8999998569489,True,u,153310.80000019073,1872.5,1669832521447,1873,HRV,HRV_0169,2022-11-30 18:24:20
91,"[{'imgObject': {}, 'id': 'Tribe humus pita', 'src': '/static/foodstim60/Tribe humus pita.jpg', 'key': 'u', 'origWidth': 411, 'origHeight': 411, 'width': 411, 'height': 411, 'widthPercent': 0.45, 'rescaleHeight': False, 'trialN': 91, 'loaded': True, 'loadedTime': 2262.2000000476837, 'positionName': 'LEFT', 'positionCoords': [1240.2, 514.5], 'bid': 3.09}, {'imgObject': {}, 'id': 'yogurt no spoon', 'src': '/static/foodstim60/yogurt no spoon.jpg', 'key': 'i', 'origWidth': 411, 'origHeight': 410, 'width': 411, 'height': 410, 'widthPercent': 0.45, 'rescaleHeight': False, 'trialN': 91, 'loaded': True, 'loadedTime': 2637.5, 'positionName': 'RIGHT', 'positionCoords': [1788.8, 515], 'bid': 4.04}]",153310.80000019073,1669832521447,Tribe humus pita,yogurt no spoon,3.09,4.04,0.9500000000000002,Tribe humus pita,1316.0999999046326,1316,1316.3999998569489,True,u,155134.20000004768,1823.3999998569489,1669832523270,1823,HRV,HRV_0169,2022-11-30 18:24:20
92,"[{'imgObject': {}, 'id': 'turkey sandwich', 'src': '/static/foodstim60/turkey sandwich.jpg', 'key': 'u', 'origWidth': 409, 'origHeight': 409, 'width': 409, 'height': 409, 'widthPercent': 0.45, 'rescaleHeight': False, 'trialN': 92, 'loaded': True, 'loadedTime': 2262.4000000953674, 'positionName': 'LEFT', 'positionCoords': [1242.2, 515.5], 'bid': 7.1000000000000005}, {'imgObject': {}, 'id': 'fried eggs', 'src': '/static/foodstim60/fried eggs.jpg', 'key': 'i', 'origWidth': 410, 'origHeight': 410, 'width': 410, 'height': 410, 'widthPercent': 0.45, 'rescaleHeight': False, 'trialN': 92, 'loaded': True, 'loadedTime': 2442, 'positionName': 'RIGHT', 'positionCoords': [1788.8, 515], 'bid': 7.25}]",155134.20000004768,1669832523270,turkey sandwich,fried eggs,7.1000000000000005,7.25,0.14999999999999947,turkey sandwich,1153.7999999523163,1154,1153.9000000953674,True,u,156790.5,1656.2999999523163,1669832524926,1656,HRV,HRV_0169,2022-11-30 18:24:20
93,"[{'imgObject': {}, 'id': 'blackbeanswithrice', 'src': '/static/foodstim60/blackbeanswithrice.jpg', 'key': 'u', 'origWidth': 410, 'origHeight': 410, 'width': 410, 'height': 410, 'widthPercent': 0.45, 'rescaleHeight': False, 'trialN': 93, 'loaded': True, 'loadedTime': 2550.600000143051, 'positionName': 'LEFT', 'positionCoords': [1241.2, 515], 'bid': 8.6}, {'imgObject': {}, 'id': 'salad w chicken', 'src': '/static/foodstim60/salad w chicken.jpg', 'key': 'i', 'origWidth': 411, 'origHeight': 411, 'width': 411, 'height': 411, 'widthPercent': 0.45, 'rescaleHeight': False, 'trialN': 93, 'loaded': True, 'loadedTime': 2123.7000000476837, 'positionName': 'RIGHT', 'positionCoords': [1788.8, 514.5], 'bid': 8.69}]",156790.60000014305,1669832524926,blackbeanswithrice,salad w chicken,8.6,8.69,0.08999999999999986,salad w chicken,729.2999999523163,730,729.3999998569489,True,i,158022.80000019073,1232.2000000476837,1669832526159,1233,HRV,HRV_0169,2022-11-30 18:24:20
94,"[{'imgObject': {}, 'id': 'olives', 'src': '/static/foodstim60/olives.jpg', 'key': 'u', 'origWidth': 410, 'origHeight': 410, 'width': 410, 'height': 410, 'widthPercent': 0.45, 'rescaleHeight': False, 'trialN': 94, 'loaded': True, 'loadedTime': 2637.7000000476837, 'positionName': 'LEFT', 'positionCoords': [1241.2, 515], 'bid': 2.54}, {'imgObject': {}, 'id': 'shreddedwheatwithmilk', 'src': '/static/foodstim60/shreddedwheatwithmilk.jpg', 'key': 'i', 'origWidth': 410, 'origHeight': 410, 'width': 410, 'height': 410, 'widthPercent': 0.45, 'rescaleHeight': False, 'trialN': 94, 'loaded': True, 'loadedTime': 2454.800000190735, 'positionName': 'RIGHT', 'positionCoords': [1788.8, 515], 'bid': 3.64}]",158022.80000019073,1669832526159,olives,shreddedwheatwithmilk,2.54,3.64,1.1,shreddedwheatwithmilk,1444.0999999046326,1444,1444.1999998092651,True,i,159974.30000019073,1951.5,1669832528110,1951,HRV,HRV_0169,2022-11-30 18:24:20
95,"[{'imgObject': {}, 'id': 'raspberries', 'src': '/static/foodstim60/raspberries.jpg', 'key': 'u', 'origWidth': 411, 'origHeight': 411, 'width': 411, 'height': 411, 'widthPercent': 0.45, 'rescaleHeight': False, 'trialN': 95, 'loaded': True, 'loadedTime': 2578.2000000476837, 'positionName': 'LEFT', 'positionCoords': [1240.2, 514.5], 'bid': 5.61}, {'imgObject': {}, 'id': 'cheerios', 'src': '/static/foodstim60/cheerios.jpg', 'key': 'i', 'origWidth': 409, 'origHeight': 410, 'width': 409, 'height': 410, 'widthPercent': 0.45, 'rescaleHeight': False, 'trialN': 95, 'loaded': True, 'loadedTime': 2509.7000000476837, 'positionName': 'RIGHT', 'positionCoords': [1788.8, 515], 'bid': 5.5}]",159974.30000019073,1669832528110,raspberries,cheerios,5.61,5.5,-0.11000000000000032,cheerios,1540.5999999046326,1541,1540.7999999523163,True,i,162022.70000004768,2048.399999856949,1669832530159,2049,HRV,HRV_0169,2022-11-30 18:24:20
96,"[{'imgObject': {}, 'id': 'froot loops w milk', 'src': '/static/foodstim60/froot loops w milk.jpg', 'key': 'u', 'origWidth': 410, 'origHeight': 410, 'width': 410, 'height': 410, 'widthPercent': 0.45, 'rescaleHeight': False, 'trialN': 96, 'loaded': True, 'loadedTime': 2640.9000000953674, 'positionName': 'LEFT', 'positionCoords': [1241.2, 515], 'bid': 5.33}, {'imgObject': {}, 'id': 'burrito', 'src': '/static/foodstim60/burrito.jpg', 'key': 'i', 'origWidth': 410, 'origHeight': 410, 'width': 410, 'height': 410, 'widthPercent': 0.45, 'rescaleHeight': False, 'trialN': 96, 'loaded': True, 'loadedTime': 2248.7000000476837, 'positionName': 'RIGHT', 'positionCoords': [1788.8, 515], 'bid': 5.87}]",162022.80000019073,1669832530159,froot loops w milk,burrito,5.33,5.87,0.54,burrito,946.1999998092651,946,946.3999998569489,True,i,163470.0,1447.1999998092651,1669832531606,1447,HRV,HRV_0169,2022-11-30 18:24:20
97,"[{'imgObject': {}, 'id': 'lox', 'src': '/static/foodstim60/lox.jpg', 'key': 'u', 'origWidth': 410, 'origHeight': 411, 'width': 410, 'height': 411, 'widthPercent': 0.45, 'rescaleHeight': False, 'trialN': 97, 'loaded': True, 'loadedTime': 2641.100000143051, 'positionName': 'LEFT', 'positionCoords': [1241.2, 514.5], 'bid': 9.28}, {'imgObject': {}, 'id': 'veggieswithdip', 'src': '/static/foodstim60/veggieswithdip.jpg', 'key': 'i', 'origWidth': 409, 'origHeight': 409, 'width': 409, 'height': 409, 'widthPercent': 0.45, 'rescaleHeight': False, 'trialN': 97, 'loaded': True, 'loadedTime': 1729, 'positionName': 'RIGHT', 'positionCoords': [1788.8, 515.5], 'bid': 9.1}]",163470.20000004768,1669832531606,lox,veggieswithdip,9.28,9.1,-0.17999999999999972,lox,1015.7000000476837,1016,1015.7999999523163,True,u,164990.30000019073,1520.1000001430511,1669832533126,1520,HRV,HRV_0169,2022-11-30 18:24:20
98,"[{'imgObject': {}, 'id': 'mango', 'src': '/static/foodstim60/mango.jpg', 'key': 'u', 'origWidth': 411, 'origHeight': 411, 'width': 411, 'height': 411, 'widthPercent': 0.45, 'rescaleHeight': False, 'trialN': 98, 'loaded': True, 'loadedTime': 2592.800000190735, 'positionName': 'LEFT', 'positionCoords': [1240.2, 514.5], 'bid': 3.85}, {'imgObject': {}, 'id': 'shreddedwheatwithmilk', 'src': '/static/foodstim60/shreddedwheatwithmilk.jpg', 'key': 'i', 'origWidth': 410, 'origHeight': 410, 'width': 410, 'height': 410, 'widthPercent': 0.45, 'rescaleHeight': False, 'trialN': 98, 'loaded': True, 'loadedTime': 2481.7000000476837, 'positionName': 'RIGHT', 'positionCoords': [1788.8, 515], 'bid': 3.64}]",164990.40000009537,1669832533126,mango,shreddedwheatwithmilk,3.85,3.64,-0.20999999999999996,mango,1692.5999999046326,1693,1692.7000000476837,True,u,167190.90000009537,2200.5,1669832535327,2201,HRV,HRV_0169,2022-11-30 18:24:20
99,"[{'imgObject': {}, 'id': 'roastedpotatoes', 'src': '/static/foodstim60/roastedpotatoes.jpg', 'key': 'u', 'origWidth': 409, 'origHeight': 410, 'width': 409, 'height': 410, 'widthPercent': 0.45, 'rescaleHeight': False, 'trialN': 99, 'loaded': True, 'loadedTime': 2377.4000000953674, 'positionName': 'LEFT', 'positionCoords': [1242.2, 515], 'bid': 7.91}, {'imgObject': {}, 'id': 'sushi w_condiments', 'src': '/static/foodstim60/sushi w_condiments.jpg', 'key': 'i', 'origWidth': 410, 'origHeight': 410, 'width': 410, 'height': 410, 'widthPercent': 0.45, 'rescaleHeight': False, 'trialN': 99, 'loaded': True, 'loadedTime': 1867.4000000953674, 'positionName': 'RIGHT', 'positionCoords': [1788.8, 515], 'bid': 8.26}]",167191.0,1669832535327,roastedpotatoes,sushi w_condiments,7.91,8.26,0.34999999999999964,roastedpotatoes,1014.9000000953674,1015,1015.0,True,u,168710.20000004768,1519.2000000476837,1669832536846,1519,HRV,HRV_0169,2022-11-30 18:24:20
100,"[{'imgObject': {}, 'id': 'cocktailshrimp', 'src': '/static/foodstim60/cocktailshrimp.jpg', 'key': 'u', 'origWidth': 410, 'origHeight': 410, 'width': 410, 'height': 410, 'widthPercent': 0.45, 'rescaleHeight': False, 'trialN': 100, 'loaded': True, 'loadedTime': 2221.7000000476837, 'positionName': 'LEFT', 'positionCoords': [1241.2, 515], 'bid': 9.43}, {'imgObject': {}, 'id': 'sushi w_condiments', 'src': '/static/foodstim60/sushi w_condiments.jpg', 'key': 'i', 'origWidth': 410, 'origHeight': 410, 'width': 410, 'height': 410, 'widthPercent': 0.45, 'rescaleHeight': False, 'trialN': 100, 'loaded': True, 'loadedTime': 1853.8000001907349, 'positionName': 'RIGHT', 'positionCoords': [1788.8, 515], 'bid': 8.26}]",168710.30000019073,1669832536846,cocktailshrimp,sushi w_condiments,9.43,8.26,-1.17,cocktailshrimp,739.5999999046326,740,739.7999999523163,True,u,169950.5,1240.1999998092651,1669832538086,1240,HRV,HRV_0169,2022-11-30 18:24:20
101,"[{'imgObject': {}, 'id': 'hotdog w must', 'src': '/static/foodstim60/hotdog w must.jpg', 'key': 'u', 'origWidth': 409, 'origHeight': 409, 'width': 409, 'height': 409, 'widthPercent': 0.45, 'rescaleHeight': False, 'trialN': 101, 'loaded': True, 'loadedTime': 2624.100000143051, 'positionName': 'LEFT', 'positionCoords': [1242.2, 515.5], 'bid': 5}, {'imgObject': {}, 'id': 'fruitsalad', 'src': '/static/foodstim60/fruitsalad.jpg', 'key': 'i', 'origWidth': 410, 'origHeight': 410, 'width': 410, 'height': 410, 'widthPercent': 0.45, 'rescaleHeight': False, 'trialN': 101, 'loaded': True, 'loadedTime': 1941.2000000476837, 'positionName': 'RIGHT', 'positionCoords': [1788.8, 515], 'bid': 5.8100000000000005}]",169950.60000014305,1669832538086,hotdog w must,fruitsalad,5.0,5.8100000000000005,0.8100000000000005,hotdog w must,1045.3999998569489,1046,1045.5,True,u,171502.80000019073,1552.2000000476837,1669832539639,1553,HRV,HRV_0169,2022-11-30 18:24:20
102,"[{'imgObject': {}, 'id': 'salmon', 'src': '/static/foodstim60/salmon.jpg', 'key': 'u', 'origWidth': 410, 'origHeight': 409, 'width': 410, 'height': 409, 'widthPercent': 0.45, 'rescaleHeight': False, 'trialN': 102, 'loaded': True, 'loadedTime': 2523.5, 'positionName': 'LEFT', 'positionCoords': [1241.2, 515.5], 'bid': 9.72}, {'imgObject': {}, 'id': 'froot loops w milk', 'src': '/static/foodstim60/froot loops w milk.jpg', 'key': 'i', 'origWidth': 410, 'origHeight': 410, 'width': 410, 'height': 410, 'widthPercent': 0.45, 'rescaleHeight': False, 'trialN': 102, 'loaded': True, 'loadedTime': 2641.100000143051, 'positionName': 'RIGHT', 'positionCoords': [1788.8, 515], 'bid': 5.33}]",171503.0,1669832539639,salmon,froot loops w milk,9.72,5.33,-4.390000000000001,salmon,812.0,812,812.1000001430511,True,u,172822.10000014305,1319.1000001430511,1669832540958,1319,HRV,HRV_0169,2022-11-30 18:24:20
103,"[{'imgObject': {}, 'id': 'cocktailshrimp', 'src': '/static/foodstim60/cocktailshrimp.jpg', 'key': 'u', 'origWidth': 410, 'origHeight': 410, 'width': 410, 'height': 410, 'widthPercent': 0.45, 'rescaleHeight': False, 'trialN': 103, 'loaded': True, 'loadedTime': 2221.5, 'positionName': 'LEFT', 'positionCoords': [1241.2, 515], 'bid': 9.43}, {'imgObject': {}, 'id': 'salmon', 'src': '/static/foodstim60/salmon.jpg', 'key': 'i', 'origWidth': 410, 'origHeight': 409, 'width': 410, 'height': 409, 'widthPercent': 0.45, 'rescaleHeight': False, 'trialN': 103, 'loaded': True, 'loadedTime': 2523.4000000953674, 'positionName': 'RIGHT', 'positionCoords': [1788.8, 515.5], 'bid': 9.72}]",172822.20000004768,1669832540958,cocktailshrimp,salmon,9.43,9.72,0.2900000000000009,cocktailshrimp,794.7999999523163,795,794.9000000953674,True,u,174118.5,1296.2999999523163,1669832542254,1296,HRV,HRV_0169,2022-11-30 18:24:20
104,"[{'imgObject': {}, 'id': 'tacos', 'src': '/static/foodstim60/tacos.jpg', 'key': 'u', 'origWidth': 411, 'origHeight': 411, 'width': 411, 'height': 411, 'widthPercent': 0.45, 'rescaleHeight': False, 'trialN': 104, 'loaded': True, 'loadedTime': 1782.8000001907349, 'positionName': 'LEFT', 'positionCoords': [1240.2, 514.5], 'bid': 9.57}, {'imgObject': {}, 'id': 'kiwi', 'src': '/static/foodstim60/kiwi.jpg', 'key': 'i', 'origWidth': 410, 'origHeight': 410, 'width': 410, 'height': 410, 'widthPercent': 0.45, 'rescaleHeight': False, 'trialN': 104, 'loaded': True, 'loadedTime': 1953.1000001430511, 'positionName': 'RIGHT', 'positionCoords': [1788.8, 515], 'bid': 5.24}]",174118.5,1669832542254,tacos,kiwi,9.57,5.24,-4.33,tacos,938.5,939,938.6000001430511,True,u,175558.70000004768,1440.2000000476837,1669832543695,1441,HRV,HRV_0169,2022-11-30 18:24:20
105,"[{'imgObject': {}, 'id': 'cherries', 'src': '/static/foodstim60/cherries.jpg', 'key': 'u', 'origWidth': 410, 'origHeight': 411, 'width': 410, 'height': 411, 'widthPercent': 0.45, 'rescaleHeight': False, 'trialN': 105, 'loaded': True, 'loadedTime': 1929.4000000953674, 'positionName': 'LEFT', 'positionCoords': [1241.2, 514.5], 'bid': 0.5}, {'imgObject': {}, 'id': 'eggs', 'src': '/static/foodstim60/eggs.jpg', 'key': 'i', 'origWidth': 409, 'origHeight': 409, 'width': 409, 'height': 409, 'widthPercent': 0.45, 'rescaleHeight': False, 'trialN': 105, 'loaded': True, 'loadedTime': 1658.2000000476837, 'positionName': 'RIGHT', 'positionCoords': [1788.8, 515.5], 'bid': 1.34}]",175558.80000019073,1669832543695,cherries,eggs,0.5,1.34,0.8400000000000001,eggs,1230.1999998092651,1230,1230.2999999523163,True,i,177294.20000004768,1735.3999998569489,1669832545430,1735,HRV,HRV_0169,2022-11-30 18:24:20
106,"[{'imgObject': {}, 'id': 'bagel plain', 'src': '/static/foodstim60/bagel plain.jpg', 'key': 'u', 'origWidth': 410, 'origHeight': 410, 'width': 410, 'height': 410, 'widthPercent': 0.45, 'rescaleHeight': False, 'trialN': 106, 'loaded': True, 'loadedTime': 1765.2000000476837, 'positionName': 'LEFT', 'positionCoords': [1241.2, 515], 'bid': 5.08}, {'imgObject': {}, 'id': 'avocado', 'src': '/static/foodstim60/avocado.jpg', 'key': 'i', 'origWidth': 409, 'origHeight': 409, 'width': 409, 'height': 409, 'widthPercent': 0.45, 'rescaleHeight': False, 'trialN': 106, 'loaded': True, 'loadedTime': 2563.800000190735, 'positionName': 'RIGHT', 'positionCoords': [1788.8, 515.5], 'bid': 5.05}]",177294.20000004768,1669832545430,bagel plain,avocado,5.08,5.05,-0.03000000000000025,avocado,1025.7999999523163,1026,1025.9000000953674,True,i,178822.60000014305,1528.4000000953674,1669832546958,1528,HRV,HRV_0169,2022-11-30 18:24:20
107,"[{'imgObject': {}, 'id': 'kiwi', 'src': '/static/foodstim60/kiwi.jpg', 'key': 'u', 'origWidth': 410, 'origHeight': 410, 'width': 410, 'height': 410, 'widthPercent': 0.45, 'rescaleHeight': False, 'trialN': 107, 'loaded': True, 'loadedTime': 1953.8000001907349, 'positionName': 'LEFT', 'positionCoords': [1241.2, 515], 'bid': 5.24}, {'imgObject': {}, 'id': 'hashbrowns', 'src': '/static/foodstim60/hashbrowns.jpg', 'key': 'i', 'origWidth': 411, 'origHeight': 410, 'width': 411, 'height': 410, 'widthPercent': 0.45, 'rescaleHeight': False, 'trialN': 107, 'loaded': True, 'loadedTime': 2576.7000000476837, 'positionName': 'RIGHT', 'positionCoords': [1788.8, 515], 'bid': 5.05}]",178822.70000004768,1669832546958,kiwi,hashbrowns,5.24,5.05,-0.1900000000000004,kiwi,866.2999999523163,867,866.4000000953674,True,u,180190.80000019073,1368.1000001430511,1669832548327,1369,HRV,HRV_0169,2022-11-30 18:24:20
