trialN,stimuli,question,trialStartTime,trialStartTime_UNIX,stimulus1,rt,receivedResponse,rating,trialEndTime,trialDuration,stimulus1Loaded,exp,subjectId,date
0,"[{'imgObject': {}, 'id': 'fruitsalad', 'src': '/static/foodstim60/fruitsalad.jpg', 'key': 'NaN', 'origWidth': 410, 'origHeight': 410, 'width': 410, 'height': 410, 'widthPercent': 0.8, 'rescaleHeight': True, 'trialN': 0, 'loaded': True, 'loadedTime': 1654.8999998569489, 'positionName': 'CENTER', 'positionCoords': [1515, 515]}]",Rate how much you want to eat this food from 0 (least) to 10 (most).,1913.6999998092651,1669832063322,fruitsalad,1704.9000000953674,True,5.72,3618.5999999046326,1704.9000000953674,True,HRV,HRV_0169,2022-11-30 18:16:31
1,"[{'imgObject': {}, 'id': 'mango', 'src': '/static/foodstim60/mango.jpg', 'key': 'NaN', 'origWidth': 411, 'origHeight': 411, 'width': 411, 'height': 411, 'widthPercent': 0.8, 'rescaleHeight': True, 'trialN': 1, 'loaded': True, 'loadedTime': 1662.2999999523163, 'positionName': 'CENTER', 'positionCoords': [1514.5, 514.5]}]",Rate how much you want to eat this food from 0 (least) to 10 (most).,3619.399999856949,1669832065028,mango,1957.1000001430511,True,3.02,5576.5,1957.1000001430511,True,HRV,HRV_0169,2022-11-30 18:16:31
2,"[{'imgObject': {}, 'id': 'strawberries', 'src': '/static/foodstim60/strawberries.jpg', 'key': 'NaN', 'origWidth': 410, 'origHeight': 410, 'width': 410, 'height': 410, 'widthPercent': 0.8, 'rescaleHeight': True, 'trialN': 2, 'loaded': True, 'loadedTime': 1673.1999998092651, 'positionName': 'CENTER', 'positionCoords': [1515, 515]}]",Rate how much you want to eat this food from 0 (least) to 10 (most).,5576.899999856949,1669832066986,strawberries,1632.5,True,9.75,7209.399999856949,1632.5,True,HRV,HRV_0169,2022-11-30 18:16:31
3,"[{'imgObject': {}, 'id': 'cocktailshrimp', 'src': '/static/foodstim60/cocktailshrimp.jpg', 'key': 'NaN', 'origWidth': 410, 'origHeight': 410, 'width': 410, 'height': 410, 'widthPercent': 0.8, 'rescaleHeight': True, 'trialN': 3, 'loaded': True, 'loadedTime': 1672.5999999046326, 'positionName': 'CENTER', 'positionCoords': [1515, 515]}]",Rate how much you want to eat this food from 0 (least) to 10 (most).,7209.899999856949,1669832068619,cocktailshrimp,1786.6000001430511,True,9.33,8996.5,1786.6000001430511,True,HRV,HRV_0169,2022-11-30 18:16:31
4,"[{'imgObject': {}, 'id': 'omelette', 'src': '/static/foodstim60/omelette.jpg', 'key': 'NaN', 'origWidth': 410, 'origHeight': 409, 'width': 410, 'height': 409, 'widthPercent': 0.8, 'rescaleHeight': True, 'trialN': 4, 'loaded': True, 'loadedTime': 1663.8999998569489, 'positionName': 'CENTER', 'positionCoords': [1515, 515.5]}]",Rate how much you want to eat this food from 0 (least) to 10 (most).,8997.0,1669832070406,omelette,1784.5999999046326,True,3.73,10781.599999904633,1784.5999999046326,True,HRV,HRV_0169,2022-11-30 18:16:31
5,"[{'imgObject': {}, 'id': 'hashbrowns', 'src': '/static/foodstim60/hashbrowns.jpg', 'key': 'NaN', 'origWidth': 411, 'origHeight': 410, 'width': 411, 'height': 410, 'widthPercent': 0.8, 'rescaleHeight': True, 'trialN': 5, 'loaded': True, 'loadedTime': 1658.7999999523163, 'positionName': 'CENTER', 'positionCoords': [1514.5, 515]}]",Rate how much you want to eat this food from 0 (least) to 10 (most).,10782.099999904633,1669832072191,hashbrowns,3699.5,True,5.07,14481.599999904633,3699.5,True,HRV,HRV_0169,2022-11-30 18:16:31
6,"[{'imgObject': {}, 'id': 'baked potato', 'src': '/static/foodstim60/baked potato.jpg', 'key': 'NaN', 'origWidth': 409, 'origHeight': 410, 'width': 409, 'height': 410, 'widthPercent': 0.8, 'rescaleHeight': True, 'trialN': 6, 'loaded': True, 'loadedTime': 1679.5, 'positionName': 'CENTER', 'positionCoords': [1515.5, 515]}]",Rate how much you want to eat this food from 0 (least) to 10 (most).,14482.099999904633,1669832075891,baked potato,1685.4000000953674,True,4.03,16167.5,1685.4000000953674,True,HRV,HRV_0169,2022-11-30 18:16:31
7,"[{'imgObject': {}, 'id': 'turkey sandwich', 'src': '/static/foodstim60/turkey sandwich.jpg', 'key': 'NaN', 'origWidth': 409, 'origHeight': 409, 'width': 409, 'height': 409, 'widthPercent': 0.8, 'rescaleHeight': True, 'trialN': 7, 'loaded': True, 'loadedTime': 1686.7999999523163, 'positionName': 'CENTER', 'positionCoords': [1515.5, 515.5]}]",Rate how much you want to eat this food from 0 (least) to 10 (most).,16167.899999856949,1669832077577,turkey sandwich,1621.5,True,7.3,17789.39999985695,1621.5,True,HRV,HRV_0169,2022-11-30 18:16:31
8,"[{'imgObject': {}, 'id': 'blackbeanswithrice', 'src': '/static/foodstim60/blackbeanswithrice.jpg', 'key': 'NaN', 'origWidth': 410, 'origHeight': 410, 'width': 410, 'height': 410, 'widthPercent': 0.8, 'rescaleHeight': True, 'trialN': 8, 'loaded': True, 'loadedTime': 1693.6999998092651, 'positionName': 'CENTER', 'positionCoords': [1515, 515]}]",Rate how much you want to eat this food from 0 (least) to 10 (most).,17789.89999985695,1669832079199,blackbeanswithrice,2385.600000143051,True,9.120000000000001,20175.5,2385.600000143051,True,HRV,HRV_0169,2022-11-30 18:16:31
9,"[{'imgObject': {}, 'id': 'burger', 'src': '/static/foodstim60/burger.jpg', 'key': 'NaN', 'origWidth': 409, 'origHeight': 409, 'width': 409, 'height': 409, 'widthPercent': 0.8, 'rescaleHeight': True, 'trialN': 9, 'loaded': True, 'loadedTime': 1702, 'positionName': 'CENTER', 'positionCoords': [1515.5, 515.5]}]",Rate how much you want to eat this food from 0 (least) to 10 (most).,20176.0,1669832081585,burger,2750.5,True,7.41,22926.5,2750.5,True,HRV,HRV_0169,2022-11-30 18:16:31
10,"[{'imgObject': {}, 'id': 'chicken nuggets2', 'src': '/static/foodstim60/chicken nuggets2.jpg', 'key': 'NaN', 'origWidth': 410, 'origHeight': 409, 'width': 410, 'height': 409, 'widthPercent': 0.8, 'rescaleHeight': True, 'trialN': 10, 'loaded': True, 'loadedTime': 1716.2999999523163, 'positionName': 'CENTER', 'positionCoords': [1515, 515.5]}]",Rate how much you want to eat this food from 0 (least) to 10 (most).,22927.099999904633,1669832084336,chicken nuggets2,1658.4000000953674,True,8.9,24585.5,1658.4000000953674,True,HRV,HRV_0169,2022-11-30 18:16:31
11,"[{'imgObject': {}, 'id': 'avocado', 'src': '/static/foodstim60/avocado.jpg', 'key': 'NaN', 'origWidth': 409, 'origHeight': 409, 'width': 409, 'height': 409, 'widthPercent': 0.8, 'rescaleHeight': True, 'trialN': 11, 'loaded': True, 'loadedTime': 1709.1999998092651, 'positionName': 'CENTER', 'positionCoords': [1515.5, 515.5]}]",Rate how much you want to eat this food from 0 (least) to 10 (most).,24586.099999904633,1669832085995,avocado,1868.5,True,5.0200000000000005,26454.599999904633,1868.5,True,HRV,HRV_0169,2022-11-30 18:16:31
12,"[{'imgObject': {}, 'id': 'mashed potato', 'src': '/static/foodstim60/mashed potato.jpg', 'key': 'NaN', 'origWidth': 409, 'origHeight': 409, 'width': 409, 'height': 409, 'widthPercent': 0.8, 'rescaleHeight': True, 'trialN': 12, 'loaded': True, 'loadedTime': 1715.6999998092651, 'positionName': 'CENTER', 'positionCoords': [1515.5, 515.5]}]",Rate how much you want to eat this food from 0 (least) to 10 (most).,26455.199999809265,1669832087864,mashed potato,3030.4000000953674,True,4.36,29485.599999904633,3030.4000000953674,True,HRV,HRV_0169,2022-11-30 18:16:31
13,"[{'imgObject': {}, 'id': 'seaweed', 'src': '/static/foodstim60/seaweed.jpg', 'key': 'NaN', 'origWidth': 410, 'origHeight': 410, 'width': 410, 'height': 410, 'widthPercent': 0.8, 'rescaleHeight': True, 'trialN': 13, 'loaded': True, 'loadedTime': 1740.1999998092651, 'positionName': 'CENTER', 'positionCoords': [1515, 515]}]",Rate how much you want to eat this food from 0 (least) to 10 (most).,29486.099999904633,1669832090895,seaweed,2882.5,True,3.0,32368.599999904633,2882.5,True,HRV,HRV_0169,2022-11-30 18:16:31
14,"[{'imgObject': {}, 'id': 'sweetpotato', 'src': '/static/foodstim60/sweetpotato.jpg', 'key': 'NaN', 'origWidth': 410, 'origHeight': 410, 'width': 410, 'height': 410, 'widthPercent': 0.8, 'rescaleHeight': True, 'trialN': 14, 'loaded': True, 'loadedTime': 1721.5999999046326, 'positionName': 'CENTER', 'positionCoords': [1515, 515]}]",Rate how much you want to eat this food from 0 (least) to 10 (most).,32369.099999904633,1669832093778,sweetpotato,1875.5,True,1.58,34244.59999990463,1875.5,True,HRV,HRV_0169,2022-11-30 18:16:31
15,"[{'imgObject': {}, 'id': 'corn cob', 'src': '/static/foodstim60/corn cob.jpg', 'key': 'NaN', 'origWidth': 411, 'origHeight': 411, 'width': 411, 'height': 411, 'widthPercent': 0.8, 'rescaleHeight': True, 'trialN': 15, 'loaded': True, 'loadedTime': 1728.0999999046326, 'positionName': 'CENTER', 'positionCoords': [1514.5, 514.5]}]",Rate how much you want to eat this food from 0 (least) to 10 (most).,34245.09999990463,1669832095654,corn cob,1643.5,True,2.68,35888.59999990463,1643.5,True,HRV,HRV_0169,2022-11-30 18:16:31
16,"[{'imgObject': {}, 'id': 'raisin bran w milk', 'src': '/static/foodstim60/raisin bran w milk.jpg', 'key': 'NaN', 'origWidth': 411, 'origHeight': 411, 'width': 411, 'height': 411, 'widthPercent': 0.8, 'rescaleHeight': True, 'trialN': 16, 'loaded': True, 'loadedTime': 1728.6999998092651, 'positionName': 'CENTER', 'positionCoords': [1514.5, 514.5]}]",Rate how much you want to eat this food from 0 (least) to 10 (most).,35889.09999990463,1669832097298,raisin bran w milk,1905.4000000953674,True,1.7,37794.5,1905.4000000953674,True,HRV,HRV_0169,2022-11-30 18:16:31
17,"[{'imgObject': {}, 'id': 'blueberries', 'src': '/static/foodstim60/blueberries.jpg', 'key': 'NaN', 'origWidth': 411, 'origHeight': 411, 'width': 411, 'height': 411, 'widthPercent': 0.8, 'rescaleHeight': True, 'trialN': 17, 'loaded': True, 'loadedTime': 1733.3999998569489, 'positionName': 'CENTER', 'positionCoords': [1514.5, 514.5]}]",Rate how much you want to eat this food from 0 (least) to 10 (most).,37795.0,1669832099204,blueberries,2042.5999999046326,True,5.68,39837.59999990463,2042.5999999046326,True,HRV,HRV_0169,2022-11-30 18:16:31
18,"[{'imgObject': {}, 'id': 'luckycharms', 'src': '/static/foodstim60/luckycharms.jpg', 'key': 'NaN', 'origWidth': 410, 'origHeight': 409, 'width': 410, 'height': 409, 'widthPercent': 0.8, 'rescaleHeight': True, 'trialN': 18, 'loaded': True, 'loadedTime': 1740.8999998569489, 'positionName': 'CENTER', 'positionCoords': [1515, 515.5]}]",Rate how much you want to eat this food from 0 (least) to 10 (most).,39838.09999990463,1669832101247,luckycharms,1782.5,True,6.13,41620.59999990463,1782.5,True,HRV,HRV_0169,2022-11-30 18:16:31
19,"[{'imgObject': {}, 'id': 'fried eggs', 'src': '/static/foodstim60/fried eggs.jpg', 'key': 'NaN', 'origWidth': 410, 'origHeight': 410, 'width': 410, 'height': 410, 'widthPercent': 0.8, 'rescaleHeight': True, 'trialN': 19, 'loaded': True, 'loadedTime': 1749.5999999046326, 'positionName': 'CENTER', 'positionCoords': [1515, 515]}]",Rate how much you want to eat this food from 0 (least) to 10 (most).,41621.0,1669832103030,fried eggs,1773.5999999046326,True,7.07,43394.59999990463,1773.5999999046326,True,HRV,HRV_0169,2022-11-30 18:16:31
20,"[{'imgObject': {}, 'id': 'lox', 'src': '/static/foodstim60/lox.jpg', 'key': 'NaN', 'origWidth': 410, 'origHeight': 411, 'width': 410, 'height': 411, 'widthPercent': 0.8, 'rescaleHeight': True, 'trialN': 20, 'loaded': True, 'loadedTime': 1751.8999998569489, 'positionName': 'CENTER', 'positionCoords': [1515, 514.5]}]",Rate how much you want to eat this food from 0 (least) to 10 (most).,43394.89999985695,1669832104804,lox,2853.7000000476837,True,8.55,46248.59999990463,2853.7000000476837,True,HRV,HRV_0169,2022-11-30 18:16:31
21,"[{'imgObject': {}, 'id': 'raspberries', 'src': '/static/foodstim60/raspberries.jpg', 'key': 'NaN', 'origWidth': 411, 'origHeight': 411, 'width': 411, 'height': 411, 'widthPercent': 0.8, 'rescaleHeight': True, 'trialN': 21, 'loaded': True, 'loadedTime': 1758.0999999046326, 'positionName': 'CENTER', 'positionCoords': [1514.5, 514.5]}]",Rate how much you want to eat this food from 0 (least) to 10 (most).,46249.0,1669832107658,raspberries,2084.5,True,6.97,48333.5,2084.5,True,HRV,HRV_0169,2022-11-30 18:16:31
22,"[{'imgObject': {}, 'id': 'kiwi', 'src': '/static/foodstim60/kiwi.jpg', 'key': 'NaN', 'origWidth': 410, 'origHeight': 410, 'width': 410, 'height': 410, 'widthPercent': 0.8, 'rescaleHeight': True, 'trialN': 22, 'loaded': True, 'loadedTime': 1763.1999998092651, 'positionName': 'CENTER', 'positionCoords': [1515, 515]}]",Rate how much you want to eat this food from 0 (least) to 10 (most).,48334.0,1669832109743,kiwi,1592.5999999046326,True,6.1000000000000005,49926.59999990463,1592.5999999046326,True,HRV,HRV_0169,2022-11-30 18:16:31
23,"[{'imgObject': {}, 'id': 'roastedpotatoes', 'src': '/static/foodstim60/roastedpotatoes.jpg', 'key': 'NaN', 'origWidth': 409, 'origHeight': 410, 'width': 409, 'height': 410, 'widthPercent': 0.8, 'rescaleHeight': True, 'trialN': 23, 'loaded': True, 'loadedTime': 1757.5, 'positionName': 'CENTER', 'positionCoords': [1515.5, 515]}]",Rate how much you want to eat this food from 0 (least) to 10 (most).,49927.09999990463,1669832111336,roastedpotatoes,1914.5,True,8.78,51841.59999990463,1914.5,True,HRV,HRV_0169,2022-11-30 18:16:31
24,"[{'imgObject': {}, 'id': 'yogurt no spoon', 'src': '/static/foodstim60/yogurt no spoon.jpg', 'key': 'NaN', 'origWidth': 411, 'origHeight': 410, 'width': 411, 'height': 410, 'widthPercent': 0.8, 'rescaleHeight': True, 'trialN': 24, 'loaded': True, 'loadedTime': 1770.1999998092651, 'positionName': 'CENTER', 'positionCoords': [1514.5, 515]}]",Rate how much you want to eat this food from 0 (least) to 10 (most).,51842.0,1669832113251,yogurt no spoon,3026.5999999046326,True,5.01,54868.59999990463,3026.5999999046326,True,HRV,HRV_0169,2022-11-30 18:16:31
25,"[{'imgObject': {}, 'id': 'cherries', 'src': '/static/foodstim60/cherries.jpg', 'key': 'NaN', 'origWidth': 410, 'origHeight': 411, 'width': 410, 'height': 411, 'widthPercent': 0.8, 'rescaleHeight': True, 'trialN': 25, 'loaded': True, 'loadedTime': 1768, 'positionName': 'CENTER', 'positionCoords': [1515, 514.5]}]",Rate how much you want to eat this food from 0 (least) to 10 (most).,54869.09999990463,1669832116278,cherries,2818.5,True,0.85,57687.59999990463,2818.5,True,HRV,HRV_0169,2022-11-30 18:16:31
26,"[{'imgObject': {}, 'id': 'pear', 'src': '/static/foodstim60/pear.jpg', 'key': 'NaN', 'origWidth': 411, 'origHeight': 410, 'width': 411, 'height': 410, 'widthPercent': 0.8, 'rescaleHeight': True, 'trialN': 26, 'loaded': True, 'loadedTime': 1772.2999999523163, 'positionName': 'CENTER', 'positionCoords': [1514.5, 515]}]",Rate how much you want to eat this food from 0 (least) to 10 (most).,57688.199999809265,1669832119097,pear,2107.4000000953674,True,4.04,59795.59999990463,2107.4000000953674,True,HRV,HRV_0169,2022-11-30 18:16:31
27,"[{'imgObject': {}, 'id': 'bagel plain', 'src': '/static/foodstim60/bagel plain.jpg', 'key': 'NaN', 'origWidth': 410, 'origHeight': 410, 'width': 410, 'height': 410, 'widthPercent': 0.8, 'rescaleHeight': True, 'trialN': 27, 'loaded': True, 'loadedTime': 1777.5999999046326, 'positionName': 'CENTER', 'positionCoords': [1515, 515]}]",Rate how much you want to eat this food from 0 (least) to 10 (most).,59796.0,1669832121205,bagel plain,1520.5999999046326,True,5.2700000000000005,61316.59999990463,1520.5999999046326,True,HRV,HRV_0169,2022-11-30 18:16:31
28,"[{'imgObject': {}, 'id': 'tacos', 'src': '/static/foodstim60/tacos.jpg', 'key': 'NaN', 'origWidth': 411, 'origHeight': 411, 'width': 411, 'height': 411, 'widthPercent': 0.8, 'rescaleHeight': True, 'trialN': 28, 'loaded': True, 'loadedTime': 1783.7999999523163, 'positionName': 'CENTER', 'positionCoords': [1514.5, 514.5]}]",Rate how much you want to eat this food from 0 (least) to 10 (most).,61317.0,1669832122726,tacos,1732.5,True,9.26,63049.5,1732.5,True,HRV,HRV_0169,2022-11-30 18:16:31
29,"[{'imgObject': {}, 'id': 'ice cream sundae 002', 'src': '/static/foodstim60/ice cream sundae 002.jpg', 'key': 'NaN', 'origWidth': 409, 'origHeight': 409, 'width': 409, 'height': 409, 'widthPercent': 0.8, 'rescaleHeight': True, 'trialN': 29, 'loaded': True, 'loadedTime': 1778.1999998092651, 'positionName': 'CENTER', 'positionCoords': [1515.5, 515.5]}]",Rate how much you want to eat this food from 0 (least) to 10 (most).,63049.89999985695,1669832124459,ice cream sundae 002,2256.600000143051,True,3.5500000000000003,65306.5,2256.600000143051,True,HRV,HRV_0169,2022-11-30 18:16:31
30,"[{'imgObject': {}, 'id': 'veggieswithdip', 'src': '/static/foodstim60/veggieswithdip.jpg', 'key': 'NaN', 'origWidth': 409, 'origHeight': 409, 'width': 409, 'height': 409, 'widthPercent': 0.8, 'rescaleHeight': True, 'trialN': 30, 'loaded': True, 'loadedTime': 1805, 'positionName': 'CENTER', 'positionCoords': [1515.5, 515.5]}]",Rate how much you want to eat this food from 0 (least) to 10 (most).,65307.0,1669832126716,veggieswithdip,2153.699999809265,True,9.18,67460.69999980927,2153.699999809265,True,HRV,HRV_0169,2022-11-30 18:16:31
31,"[{'imgObject': {}, 'id': 'salmon', 'src': '/static/foodstim60/salmon.jpg', 'key': 'NaN', 'origWidth': 410, 'origHeight': 409, 'width': 410, 'height': 409, 'widthPercent': 0.8, 'rescaleHeight': True, 'trialN': 31, 'loaded': True, 'loadedTime': 1805.5999999046326, 'positionName': 'CENTER', 'positionCoords': [1515, 515.5]}]",Rate how much you want to eat this food from 0 (least) to 10 (most).,67461.29999995232,1669832128870,salmon,1628.3999998569489,True,9.8,69089.69999980927,1628.3999998569489,True,HRV,HRV_0169,2022-11-30 18:16:31
32,"[{'imgObject': {}, 'id': 'apple slices', 'src': '/static/foodstim60/apple slices.jpg', 'key': 'NaN', 'origWidth': 409, 'origHeight': 410, 'width': 409, 'height': 410, 'widthPercent': 0.8, 'rescaleHeight': True, 'trialN': 32, 'loaded': True, 'loadedTime': 1811.2999999523163, 'positionName': 'CENTER', 'positionCoords': [1515.5, 515]}]",Rate how much you want to eat this food from 0 (least) to 10 (most).,69090.19999980927,1669832130499,apple slices,2588.5,True,4.04,71678.69999980927,2588.5,True,HRV,HRV_0169,2022-11-30 18:16:31
33,"[{'imgObject': {}, 'id': 'granola w milk', 'src': '/static/foodstim60/granola w milk.jpg', 'key': 'NaN', 'origWidth': 410, 'origHeight': 410, 'width': 410, 'height': 410, 'widthPercent': 0.8, 'rescaleHeight': True, 'trialN': 33, 'loaded': True, 'loadedTime': 1811.8999998569489, 'positionName': 'CENTER', 'positionCoords': [1515, 515]}]",Rate how much you want to eat this food from 0 (least) to 10 (most).,71679.19999980927,1669832133088,granola w milk,1644.4000000953674,True,2.17,73323.59999990463,1644.4000000953674,True,HRV,HRV_0169,2022-11-30 18:16:31
34,"[{'imgObject': {}, 'id': 'rigatoni and sauce', 'src': '/static/foodstim60/rigatoni and sauce.jpg', 'key': 'NaN', 'origWidth': 410, 'origHeight': 411, 'width': 410, 'height': 411, 'widthPercent': 0.8, 'rescaleHeight': True, 'trialN': 34, 'loaded': True, 'loadedTime': 1817.5, 'positionName': 'CENTER', 'positionCoords': [1515, 514.5]}]",Rate how much you want to eat this food from 0 (least) to 10 (most).,73324.0,1669832134733,rigatoni and sauce,1901.6999998092651,True,7.99,75225.69999980927,1901.6999998092651,True,HRV,HRV_0169,2022-11-30 18:16:31
35,"[{'imgObject': {}, 'id': 'steak', 'src': '/static/foodstim60/steak.jpg', 'key': 'NaN', 'origWidth': 410, 'origHeight': 410, 'width': 410, 'height': 410, 'widthPercent': 0.8, 'rescaleHeight': True, 'trialN': 35, 'loaded': True, 'loadedTime': 1802.0999999046326, 'positionName': 'CENTER', 'positionCoords': [1515, 515]}]",Rate how much you want to eat this food from 0 (least) to 10 (most).,75226.19999980927,1669832136635,steak,2061.5,True,9.85,77287.69999980927,2061.5,True,HRV,HRV_0169,2022-11-30 18:16:31
36,"[{'imgObject': {}, 'id': 'Grapes', 'src': '/static/foodstim60/Grapes.jpg', 'key': 'NaN', 'origWidth': 411, 'origHeight': 411, 'width': 411, 'height': 411, 'widthPercent': 0.8, 'rescaleHeight': True, 'trialN': 36, 'loaded': True, 'loadedTime': 1830.1999998092651, 'positionName': 'CENTER', 'positionCoords': [1514.5, 514.5]}]",Rate how much you want to eat this food from 0 (least) to 10 (most).,77288.29999995232,1669832138697,Grapes,1867.3999998569489,True,7.26,79155.69999980927,1867.3999998569489,True,HRV,HRV_0169,2022-11-30 18:16:31
37,"[{'imgObject': {}, 'id': 'cherry tomato', 'src': '/static/foodstim60/cherry tomato.jpg', 'key': 'NaN', 'origWidth': 410, 'origHeight': 410, 'width': 410, 'height': 410, 'widthPercent': 0.8, 'rescaleHeight': True, 'trialN': 37, 'loaded': True, 'loadedTime': 1823.5, 'positionName': 'CENTER', 'positionCoords': [1515, 515]}]",Rate how much you want to eat this food from 0 (least) to 10 (most).,79156.09999990463,1669832140565,cherry tomato,2934.5,True,5.01,82090.59999990463,2934.5,True,HRV,HRV_0169,2022-11-30 18:16:31
38,"[{'imgObject': {}, 'id': 'shreddedwheatwithmilk', 'src': '/static/foodstim60/shreddedwheatwithmilk.jpg', 'key': 'NaN', 'origWidth': 410, 'origHeight': 410, 'width': 410, 'height': 410, 'widthPercent': 0.8, 'rescaleHeight': True, 'trialN': 38, 'loaded': True, 'loadedTime': 1825.0999999046326, 'positionName': 'CENTER', 'positionCoords': [1515, 515]}]",Rate how much you want to eat this food from 0 (least) to 10 (most).,82091.09999990463,1669832143500,shreddedwheatwithmilk,1404.5999999046326,True,3.88,83495.69999980927,1404.5999999046326,True,HRV,HRV_0169,2022-11-30 18:16:31
39,"[{'imgObject': {}, 'id': 'burrito', 'src': '/static/foodstim60/burrito.jpg', 'key': 'NaN', 'origWidth': 410, 'origHeight': 410, 'width': 410, 'height': 410, 'widthPercent': 0.8, 'rescaleHeight': True, 'trialN': 39, 'loaded': True, 'loadedTime': 1838.3999998569489, 'positionName': 'CENTER', 'positionCoords': [1515, 515]}]",Rate how much you want to eat this food from 0 (least) to 10 (most).,83496.29999995232,1669832144905,burrito,1658.3999998569489,True,5.82,85154.69999980927,1658.3999998569489,True,HRV,HRV_0169,2022-11-30 18:16:31
40,"[{'imgObject': {}, 'id': 'eggs', 'src': '/static/foodstim60/eggs.jpg', 'key': 'NaN', 'origWidth': 409, 'origHeight': 409, 'width': 409, 'height': 409, 'widthPercent': 0.8, 'rescaleHeight': True, 'trialN': 40, 'loaded': True, 'loadedTime': 1838.8999998569489, 'positionName': 'CENTER', 'positionCoords': [1515.5, 515.5]}]",Rate how much you want to eat this food from 0 (least) to 10 (most).,85155.19999980927,1669832146564,eggs,1755.4000000953674,True,2.0,86910.59999990463,1755.4000000953674,True,HRV,HRV_0169,2022-11-30 18:16:31
41,"[{'imgObject': {}, 'id': 'eggsalad', 'src': '/static/foodstim60/eggsalad.jpg', 'key': 'NaN', 'origWidth': 410, 'origHeight': 409, 'width': 410, 'height': 409, 'widthPercent': 0.8, 'rescaleHeight': True, 'trialN': 41, 'loaded': True, 'loadedTime': 1832.7999999523163, 'positionName': 'CENTER', 'positionCoords': [1515, 515.5]}]",Rate how much you want to eat this food from 0 (least) to 10 (most).,86911.0,1669832148320,eggsalad,1794.5,True,0.88,88705.5,1794.5,True,HRV,HRV_0169,2022-11-30 18:16:31
42,"[{'imgObject': {}, 'id': 'turkeysandwich', 'src': '/static/foodstim60/turkeysandwich.jpg', 'key': 'NaN', 'origWidth': 409, 'origHeight': 409, 'width': 409, 'height': 409, 'widthPercent': 0.8, 'rescaleHeight': True, 'trialN': 42, 'loaded': True, 'loadedTime': 1845, 'positionName': 'CENTER', 'positionCoords': [1515.5, 515.5]}]",Rate how much you want to eat this food from 0 (least) to 10 (most).,88706.0,1669832150115,turkeysandwich,2092.5999999046326,True,6.2,90798.59999990463,2092.5999999046326,True,HRV,HRV_0169,2022-11-30 18:16:31
43,"[{'imgObject': {}, 'id': 'cantaloupe', 'src': '/static/foodstim60/cantaloupe.jpg', 'key': 'NaN', 'origWidth': 409, 'origHeight': 409, 'width': 409, 'height': 409, 'widthPercent': 0.8, 'rescaleHeight': True, 'trialN': 43, 'loaded': True, 'loadedTime': 1845.5999999046326, 'positionName': 'CENTER', 'positionCoords': [1515.5, 515.5]}]",Rate how much you want to eat this food from 0 (least) to 10 (most).,90799.09999990463,1669832152208,cantaloupe,2764.5,True,4.15,93563.59999990463,2764.5,True,HRV,HRV_0169,2022-11-30 18:16:31
44,"[{'imgObject': {}, 'id': 'edamame', 'src': '/static/foodstim60/edamame.jpg', 'key': 'NaN', 'origWidth': 409, 'origHeight': 410, 'width': 409, 'height': 410, 'widthPercent': 0.8, 'rescaleHeight': True, 'trialN': 44, 'loaded': True, 'loadedTime': 1850.7999999523163, 'positionName': 'CENTER', 'positionCoords': [1515.5, 515]}]",Rate how much you want to eat this food from 0 (least) to 10 (most).,93564.19999980927,1669832154973,edamame,2375.4000000953674,True,3.4,95939.59999990463,2375.4000000953674,True,HRV,HRV_0169,2022-11-30 18:16:31
45,"[{'imgObject': {}, 'id': 'cheerios', 'src': '/static/foodstim60/cheerios.jpg', 'key': 'NaN', 'origWidth': 409, 'origHeight': 410, 'width': 409, 'height': 410, 'widthPercent': 0.8, 'rescaleHeight': True, 'trialN': 45, 'loaded': True, 'loadedTime': 1857.5, 'positionName': 'CENTER', 'positionCoords': [1515.5, 515]}]",Rate how much you want to eat this food from 0 (least) to 10 (most).,95940.09999990463,1669832157349,cheerios,2340.5999999046326,True,5.5200000000000005,98280.69999980927,2340.5999999046326,True,HRV,HRV_0169,2022-11-30 18:16:31
46,"[{'imgObject': {}, 'id': 'banana', 'src': '/static/foodstim60/banana.jpg', 'key': 'NaN', 'origWidth': 410, 'origHeight': 410, 'width': 410, 'height': 410, 'widthPercent': 0.8, 'rescaleHeight': True, 'trialN': 46, 'loaded': True, 'loadedTime': 1858.1999998092651, 'positionName': 'CENTER', 'positionCoords': [1515, 515]}]",Rate how much you want to eat this food from 0 (least) to 10 (most).,98281.19999980927,1669832159690,banana,1339.5,True,0.8300000000000001,99620.69999980927,1339.5,True,HRV,HRV_0169,2022-11-30 18:16:31
47,"[{'imgObject': {}, 'id': 'mac & cheese', 'src': '/static/foodstim60/mac & cheese.jpg', 'key': 'NaN', 'origWidth': 410, 'origHeight': 410, 'width': 410, 'height': 410, 'widthPercent': 0.8, 'rescaleHeight': True, 'trialN': 47, 'loaded': True, 'loadedTime': 1863.3999998569489, 'positionName': 'CENTER', 'positionCoords': [1515, 515]}]",Rate how much you want to eat this food from 0 (least) to 10 (most).,99621.19999980927,1669832161030,mac & cheese,2179.5,True,8.35,101800.69999980927,2179.5,True,HRV,HRV_0169,2022-11-30 18:16:31
48,"[{'imgObject': {}, 'id': 'olives', 'src': '/static/foodstim60/olives.jpg', 'key': 'NaN', 'origWidth': 410, 'origHeight': 410, 'width': 410, 'height': 410, 'widthPercent': 0.8, 'rescaleHeight': True, 'trialN': 48, 'loaded': True, 'loadedTime': 1870.7999999523163, 'positionName': 'CENTER', 'positionCoords': [1515, 515]}]",Rate how much you want to eat this food from 0 (least) to 10 (most).,101801.09999990463,1669832163210,olives,2620.5999999046326,True,1.98,104421.69999980927,2620.5999999046326,True,HRV,HRV_0169,2022-11-30 18:16:31
49,"[{'imgObject': {}, 'id': 'hotdog w must', 'src': '/static/foodstim60/hotdog w must.jpg', 'key': 'NaN', 'origWidth': 409, 'origHeight': 409, 'width': 409, 'height': 409, 'widthPercent': 0.8, 'rescaleHeight': True, 'trialN': 49, 'loaded': True, 'loadedTime': 1871.2999999523163, 'positionName': 'CENTER', 'positionCoords': [1515.5, 515.5]}]",Rate how much you want to eat this food from 0 (least) to 10 (most).,104422.19999980927,1669832165831,hotdog w must,1790.4000000953674,True,4.99,106212.59999990463,1790.4000000953674,True,HRV,HRV_0169,2022-11-30 18:16:31
50,"[{'imgObject': {}, 'id': 'salad w chicken', 'src': '/static/foodstim60/salad w chicken.jpg', 'key': 'NaN', 'origWidth': 411, 'origHeight': 411, 'width': 411, 'height': 411, 'widthPercent': 0.8, 'rescaleHeight': True, 'trialN': 50, 'loaded': True, 'loadedTime': 1875.5, 'positionName': 'CENTER', 'positionCoords': [1514.5, 514.5]}]",Rate how much you want to eat this food from 0 (least) to 10 (most).,106213.09999990463,1669832167622,salad w chicken,2422.5999999046326,True,8.44,108635.69999980927,2422.5999999046326,True,HRV,HRV_0169,2022-11-30 18:16:31
51,"[{'imgObject': {}, 'id': 'bagel and cc', 'src': '/static/foodstim60/bagel and cc.jpg', 'key': 'NaN', 'origWidth': 410, 'origHeight': 410, 'width': 410, 'height': 410, 'widthPercent': 0.8, 'rescaleHeight': True, 'trialN': 51, 'loaded': True, 'loadedTime': 1876.0999999046326, 'positionName': 'CENTER', 'positionCoords': [1515, 515]}]",Rate how much you want to eat this food from 0 (least) to 10 (most).,108636.19999980927,1669832170045,bagel and cc,2253.5,True,6.83,110889.69999980927,2253.5,True,HRV,HRV_0169,2022-11-30 18:16:31
52,"[{'imgObject': {}, 'id': 'froot loops w milk', 'src': '/static/foodstim60/froot loops w milk.jpg', 'key': 'NaN', 'origWidth': 410, 'origHeight': 410, 'width': 410, 'height': 410, 'widthPercent': 0.8, 'rescaleHeight': True, 'trialN': 52, 'loaded': True, 'loadedTime': 1889.6999998092651, 'positionName': 'CENTER', 'positionCoords': [1515, 515]}]",Rate how much you want to eat this food from 0 (least) to 10 (most).,110890.09999990463,1669832172299,froot loops w milk,2343.5,True,5.37,113233.59999990463,2343.5,True,HRV,HRV_0169,2022-11-30 18:16:31
53,"[{'imgObject': {}, 'id': 'popsicles', 'src': '/static/foodstim60/popsicles.jpg', 'key': 'NaN', 'origWidth': 410, 'origHeight': 410, 'width': 410, 'height': 410, 'widthPercent': 0.8, 'rescaleHeight': True, 'trialN': 53, 'loaded': True, 'loadedTime': 1881.7999999523163, 'positionName': 'CENTER', 'positionCoords': [1515, 515]}]",Rate how much you want to eat this food from 0 (least) to 10 (most).,113234.09999990463,1669832174643,popsicles,2116.5999999046326,True,2.7800000000000002,115350.69999980927,2116.5999999046326,True,HRV,HRV_0169,2022-11-30 18:16:31
54,"[{'imgObject': {}, 'id': 'orange slices', 'src': '/static/foodstim60/orange slices.jpg', 'key': 'NaN', 'origWidth': 409, 'origHeight': 410, 'width': 409, 'height': 410, 'widthPercent': 0.8, 'rescaleHeight': True, 'trialN': 54, 'loaded': True, 'loadedTime': 1896.5, 'positionName': 'CENTER', 'positionCoords': [1515.5, 515]}]",Rate how much you want to eat this food from 0 (least) to 10 (most).,115351.19999980927,1669832176760,orange slices,1569.4000000953674,True,1.3,116920.59999990463,1569.4000000953674,True,HRV,HRV_0169,2022-11-30 18:16:31
55,"[{'imgObject': {}, 'id': 'rigatoni', 'src': '/static/foodstim60/rigatoni.jpg', 'key': 'NaN', 'origWidth': 411, 'origHeight': 411, 'width': 411, 'height': 411, 'widthPercent': 0.8, 'rescaleHeight': True, 'trialN': 55, 'loaded': True, 'loadedTime': 1884.6999998092651, 'positionName': 'CENTER', 'positionCoords': [1514.5, 514.5]}]",Rate how much you want to eat this food from 0 (least) to 10 (most).,116921.09999990463,1669832178330,rigatoni,1585.7000000476837,True,3.85,118506.79999995232,1585.7000000476837,True,HRV,HRV_0169,2022-11-30 18:16:31
56,"[{'imgObject': {}, 'id': 'sushi w_condiments', 'src': '/static/foodstim60/sushi w_condiments.jpg', 'key': 'NaN', 'origWidth': 410, 'origHeight': 410, 'width': 410, 'height': 410, 'widthPercent': 0.8, 'rescaleHeight': True, 'trialN': 56, 'loaded': True, 'loadedTime': 1890.1999998092651, 'positionName': 'CENTER', 'positionCoords': [1515, 515]}]",Rate how much you want to eat this food from 0 (least) to 10 (most).,118507.19999980927,1669832179916,sushi w_condiments,1828.5,True,8.51,120335.69999980927,1828.5,True,HRV,HRV_0169,2022-11-30 18:16:31
57,"[{'imgObject': {}, 'id': 'grilled chicken strips', 'src': '/static/foodstim60/grilled chicken strips.jpg', 'key': 'NaN', 'origWidth': 410, 'origHeight': 411, 'width': 410, 'height': 411, 'widthPercent': 0.8, 'rescaleHeight': True, 'trialN': 57, 'loaded': True, 'loadedTime': 1897.0999999046326, 'positionName': 'CENTER', 'positionCoords': [1515, 514.5]}]",Rate how much you want to eat this food from 0 (least) to 10 (most).,120336.19999980927,1669832181745,grilled chicken strips,4594.600000143051,True,9.01,124930.79999995232,4594.600000143051,True,HRV,HRV_0169,2022-11-30 18:16:31
58,"[{'imgObject': {}, 'id': 'chickenfingers', 'src': '/static/foodstim60/chickenfingers.jpg', 'key': 'NaN', 'origWidth': 410, 'origHeight': 410, 'width': 410, 'height': 410, 'widthPercent': 0.8, 'rescaleHeight': True, 'trialN': 58, 'loaded': True, 'loadedTime': 1902.3999998569489, 'positionName': 'CENTER', 'positionCoords': [1515, 515]}]",Rate how much you want to eat this food from 0 (least) to 10 (most).,124931.09999990463,1669832186340,chickenfingers,2213.5999999046326,True,9.6,127144.69999980927,2213.5999999046326,True,HRV,HRV_0169,2022-11-30 18:16:31
59,"[{'imgObject': {}, 'id': 'Tribe humus pita', 'src': '/static/foodstim60/Tribe humus pita.jpg', 'key': 'NaN', 'origWidth': 411, 'origHeight': 411, 'width': 411, 'height': 411, 'widthPercent': 0.8, 'rescaleHeight': True, 'trialN': 59, 'loaded': True, 'loadedTime': 1908.5, 'positionName': 'CENTER', 'positionCoords': [1514.5, 514.5]}]",Rate how much you want to eat this food from 0 (least) to 10 (most).,127145.09999990463,1669832188554,Tribe humus pita,2029.7000000476837,True,3.47,129174.79999995232,2029.7000000476837,True,HRV,HRV_0169,2022-11-30 18:16:31
