trialN,stimuli,trialStartTime,trialStartTime_UNIX,stimulus1,stimulus2,stimulus1Bid,stimulus2Bid,delta,selected,rt,rt_UNIX,rt_perfnow,receivedResponse,rsp,trialEndTime,trialDuration,trialEndTime_UNIX,trialDuration_UNIX,exp,subjectId,date
0,"[{'imgObject': {}, 'id': 'roastedpotatoes', 'src': '/static/foodstim60/roastedpotatoes.jpg', 'key': 'u', 'origWidth': 409, 'origHeight': 410, 'width': 409, 'height': 410, 'widthPercent': 0.45, 'rescaleHeight': False, 'trialN': 0, 'loaded': True, 'loadedTime': 3238.800000011921, 'positionName': 'LEFT', 'positionCoords': [819.8, 515], 'bid': 6.07}, {'imgObject': {}, 'id': 'turkeysandwich', 'src': '/static/foodstim60/turkeysandwich.jpg', 'key': 'i', 'origWidth': 409, 'origHeight': 409, 'width': 409, 'height': 409, 'widthPercent': 0.45, 'rescaleHeight': False, 'trialN': 0, 'loaded': True, 'loadedTime': 3322.9000000059605, 'positionName': 'RIGHT', 'positionCoords': [1331.2, 515.5], 'bid': 4.76}]",4842.800000011921,1669829450682,roastedpotatoes,turkeysandwich,6.07,4.76,-1.3100000000000005,roastedpotatoes,1818.3999999761581,1820,1819.5999999940395,True,u,7175.300000011921,2332.5,1669829453015,2333,HRV,HRV_0034,2022-11-30 17:37:43
1,"[{'imgObject': {}, 'id': 'cantaloupe', 'src': '/static/foodstim60/cantaloupe.jpg', 'key': 'u', 'origWidth': 409, 'origHeight': 409, 'width': 409, 'height': 409, 'widthPercent': 0.45, 'rescaleHeight': False, 'trialN': 1, 'loaded': True, 'loadedTime': 3393.800000011921, 'positionName': 'LEFT', 'positionCoords': [819.8, 515.5], 'bid': 7.96}, {'imgObject': {}, 'id': 'kiwi', 'src': '/static/foodstim60/kiwi.jpg', 'key': 'i', 'origWidth': 410, 'origHeight': 410, 'width': 410, 'height': 410, 'widthPercent': 0.45, 'rescaleHeight': False, 'trialN': 1, 'loaded': True, 'loadedTime': 3408.5999999940395, 'positionName': 'RIGHT', 'positionCoords': [1331.2, 515], 'bid': 6.44}]",7176.199999988079,1669829453016,cantaloupe,kiwi,7.96,6.44,-1.5199999999999996,cantaloupe,1524.5,1524,1524.800000011921,True,u,9221.09999999404,2044.9000000059605,1669829455060,2044,HRV,HRV_0034,2022-11-30 17:37:43
2,"[{'imgObject': {}, 'id': 'lox', 'src': '/static/foodstim60/lox.jpg', 'key': 'u', 'origWidth': 410, 'origHeight': 411, 'width': 410, 'height': 411, 'widthPercent': 0.45, 'rescaleHeight': False, 'trialN': 2, 'loaded': True, 'loadedTime': 3436.699999988079, 'positionName': 'LEFT', 'positionCoords': [818.8, 514.5], 'bid': 5.59}, {'imgObject': {}, 'id': 'turkeysandwich', 'src': '/static/foodstim60/turkeysandwich.jpg', 'key': 'i', 'origWidth': 409, 'origHeight': 409, 'width': 409, 'height': 409, 'widthPercent': 0.45, 'rescaleHeight': False, 'trialN': 2, 'loaded': True, 'loadedTime': 3330, 'positionName': 'RIGHT', 'positionCoords': [1331.2, 515.5], 'bid': 4.76}]",9221.800000011921,1669829455061,lox,turkeysandwich,5.59,4.76,-0.8300000000000001,turkeysandwich,1960.199999988079,1961,1960.7999999821186,True,i,11703.699999988079,2481.899999976158,1669829457543,2482,HRV,HRV_0034,2022-11-30 17:37:43
3,"[{'imgObject': {}, 'id': 'cheerios', 'src': '/static/foodstim60/cheerios.jpg', 'key': 'u', 'origWidth': 409, 'origHeight': 410, 'width': 409, 'height': 410, 'widthPercent': 0.45, 'rescaleHeight': False, 'trialN': 3, 'loaded': True, 'loadedTime': 3474.699999988079, 'positionName': 'LEFT', 'positionCoords': [819.8, 515], 'bid': 1.92}, {'imgObject': {}, 'id': 'tacos', 'src': '/static/foodstim60/tacos.jpg', 'key': 'i', 'origWidth': 411, 'origHeight': 411, 'width': 411, 'height': 411, 'widthPercent': 0.45, 'rescaleHeight': False, 'trialN': 3, 'loaded': True, 'loadedTime': 3515.199999988079, 'positionName': 'RIGHT', 'positionCoords': [1331.2, 514.5], 'bid': 3.45}]",11703.800000011921,1669829457543,cheerios,tacos,1.92,3.45,1.5300000000000002,tacos,1585.3999999761581,1586,1586.199999988079,True,i,13806.800000011921,2103.0,1669829459646,2103,HRV,HRV_0034,2022-11-30 17:37:43
4,"[{'imgObject': {}, 'id': 'cantaloupe', 'src': '/static/foodstim60/cantaloupe.jpg', 'key': 'u', 'origWidth': 409, 'origHeight': 409, 'width': 409, 'height': 409, 'widthPercent': 0.45, 'rescaleHeight': False, 'trialN': 4, 'loaded': True, 'loadedTime': 3374, 'positionName': 'LEFT', 'positionCoords': [819.8, 515.5], 'bid': 7.96}, {'imgObject': {}, 'id': 'chickenfingers', 'src': '/static/foodstim60/chickenfingers.jpg', 'key': 'i', 'origWidth': 410, 'origHeight': 410, 'width': 410, 'height': 410, 'widthPercent': 0.45, 'rescaleHeight': False, 'trialN': 4, 'loaded': True, 'loadedTime': 3583.5, 'positionName': 'RIGHT', 'positionCoords': [1331.2, 515], 'bid': 6.67}]",13807.199999988079,1669829459647,cantaloupe,chickenfingers,7.96,6.67,-1.29,cantaloupe,1594.0,1594,1594.7000000178814,True,u,15915.0,2107.800000011921,1669829461755,2108,HRV,HRV_0034,2022-11-30 17:37:43
5,"[{'imgObject': {}, 'id': 'cherry tomato', 'src': '/static/foodstim60/cherry tomato.jpg', 'key': 'u', 'origWidth': 410, 'origHeight': 410, 'width': 410, 'height': 410, 'widthPercent': 0.45, 'rescaleHeight': False, 'trialN': 5, 'loaded': True, 'loadedTime': 3624.5999999940395, 'positionName': 'LEFT', 'positionCoords': [818.8, 515], 'bid': 4.13}, {'imgObject': {}, 'id': 'raisin bran w milk', 'src': '/static/foodstim60/raisin bran w milk.jpg', 'key': 'i', 'origWidth': 411, 'origHeight': 411, 'width': 411, 'height': 411, 'widthPercent': 0.45, 'rescaleHeight': False, 'trialN': 5, 'loaded': True, 'loadedTime': 3638.300000011921, 'positionName': 'RIGHT', 'positionCoords': [1331.2, 514.5], 'bid': 2.28}]",15915.40000000596,1669829461755,cherry tomato,raisin bran w milk,4.13,2.28,-1.85,cherry tomato,1789.699999988079,1791,1790.4000000059605,True,u,18222.80000001192,2307.4000000059605,1669829464063,2308,HRV,HRV_0034,2022-11-30 17:37:43
6,"[{'imgObject': {}, 'id': 'eggsalad', 'src': '/static/foodstim60/eggsalad.jpg', 'key': 'u', 'origWidth': 410, 'origHeight': 409, 'width': 410, 'height': 409, 'widthPercent': 0.45, 'rescaleHeight': False, 'trialN': 6, 'loaded': True, 'loadedTime': 3713.5999999940395, 'positionName': 'LEFT', 'positionCoords': [818.8, 515.5], 'bid': 3.99}, {'imgObject': {}, 'id': 'burrito', 'src': '/static/foodstim60/burrito.jpg', 'key': 'i', 'origWidth': 410, 'origHeight': 410, 'width': 410, 'height': 410, 'widthPercent': 0.45, 'rescaleHeight': False, 'trialN': 6, 'loaded': True, 'loadedTime': 3747.5, 'positionName': 'RIGHT', 'positionCoords': [1331.2, 515], 'bid': 4.1}]",18223.30000001192,1669829464063,eggsalad,burrito,3.99,4.1,0.10999999999999943,eggsalad,1841.3999999761581,1842,1841.699999988079,True,u,20568.59999999404,2345.2999999821186,1669829466409,2346,HRV,HRV_0034,2022-11-30 17:37:43
7,"[{'imgObject': {}, 'id': 'hashbrowns', 'src': '/static/foodstim60/hashbrowns.jpg', 'key': 'u', 'origWidth': 411, 'origHeight': 410, 'width': 411, 'height': 410, 'widthPercent': 0.45, 'rescaleHeight': False, 'trialN': 7, 'loaded': True, 'loadedTime': 3791.4000000059605, 'positionName': 'LEFT', 'positionCoords': [817.8, 515], 'bid': 2.46}, {'imgObject': {}, 'id': 'burger', 'src': '/static/foodstim60/burger.jpg', 'key': 'i', 'origWidth': 409, 'origHeight': 409, 'width': 409, 'height': 409, 'widthPercent': 0.45, 'rescaleHeight': False, 'trialN': 7, 'loaded': True, 'loadedTime': 3800.0999999940395, 'positionName': 'RIGHT', 'positionCoords': [1331.2, 515.5], 'bid': 6.5}]",20568.90000000596,1669829466409,hashbrowns,burger,2.46,6.5,4.04,burger,1356.699999988079,1358,1357.5,True,i,22444.5,1875.5999999940395,1669829468284,1875,HRV,HRV_0034,2022-11-30 17:37:43
8,"[{'imgObject': {}, 'id': 'mashed potato', 'src': '/static/foodstim60/mashed potato.jpg', 'key': 'u', 'origWidth': 409, 'origHeight': 409, 'width': 409, 'height': 409, 'widthPercent': 0.45, 'rescaleHeight': False, 'trialN': 8, 'loaded': True, 'loadedTime': 3842.300000011921, 'positionName': 'LEFT', 'positionCoords': [819.8, 515.5], 'bid': 2.74}, {'imgObject': {}, 'id': 'edamame', 'src': '/static/foodstim60/edamame.jpg', 'key': 'i', 'origWidth': 409, 'origHeight': 410, 'width': 409, 'height': 410, 'widthPercent': 0.45, 'rescaleHeight': False, 'trialN': 8, 'loaded': True, 'loadedTime': 3876.9000000059605, 'positionName': 'RIGHT', 'positionCoords': [1331.2, 515], 'bid': 6.57}]",22444.80000001192,1669829468285,mashed potato,edamame,2.74,6.57,3.83,edamame,1712.0,1712,1712.199999988079,True,i,24668.59999999404,2223.7999999821186,1669829470509,2224,HRV,HRV_0034,2022-11-30 17:37:43
9,"[{'imgObject': {}, 'id': 'eggsalad', 'src': '/static/foodstim60/eggsalad.jpg', 'key': 'u', 'origWidth': 410, 'origHeight': 409, 'width': 410, 'height': 409, 'widthPercent': 0.45, 'rescaleHeight': False, 'trialN': 9, 'loaded': True, 'loadedTime': 3680.9000000059605, 'positionName': 'LEFT', 'positionCoords': [818.8, 515.5], 'bid': 3.99}, {'imgObject': {}, 'id': 'seaweed', 'src': '/static/foodstim60/seaweed.jpg', 'key': 'i', 'origWidth': 410, 'origHeight': 410, 'width': 410, 'height': 410, 'widthPercent': 0.45, 'rescaleHeight': False, 'trialN': 9, 'loaded': True, 'loadedTime': 3899.300000011921, 'positionName': 'RIGHT', 'positionCoords': [1331.2, 515], 'bid': 5.34}]",24669.0,1669829470509,eggsalad,seaweed,3.99,5.34,1.3499999999999996,seaweed,1552.0999999940395,1553,1553.0,True,i,26736.30000001192,2067.300000011921,1669829472576,2067,HRV,HRV_0034,2022-11-30 17:37:43
10,"[{'imgObject': {}, 'id': 'apple slices', 'src': '/static/foodstim60/apple slices.jpg', 'key': 'u', 'origWidth': 409, 'origHeight': 410, 'width': 409, 'height': 410, 'widthPercent': 0.45, 'rescaleHeight': False, 'trialN': 10, 'loaded': True, 'loadedTime': 3954.199999988079, 'positionName': 'LEFT', 'positionCoords': [819.8, 515], 'bid': 5.32}, {'imgObject': {}, 'id': 'yogurt no spoon', 'src': '/static/foodstim60/yogurt no spoon.jpg', 'key': 'i', 'origWidth': 411, 'origHeight': 410, 'width': 411, 'height': 410, 'widthPercent': 0.45, 'rescaleHeight': False, 'trialN': 10, 'loaded': True, 'loadedTime': 4008.0999999940395, 'positionName': 'RIGHT', 'positionCoords': [1331.2, 515], 'bid': 5.21}]",26736.80000001192,1669829472577,apple slices,yogurt no spoon,5.32,5.21,-0.11000000000000032,yogurt no spoon,2020.3999999761581,2021,2020.8999999761581,True,i,29265.30000001192,2528.5,1669829475105,2528,HRV,HRV_0034,2022-11-30 17:37:43
11,"[{'imgObject': {}, 'id': 'turkey sandwich', 'src': '/static/foodstim60/turkey sandwich.jpg', 'key': 'u', 'origWidth': 409, 'origHeight': 409, 'width': 409, 'height': 409, 'widthPercent': 0.45, 'rescaleHeight': False, 'trialN': 11, 'loaded': True, 'loadedTime': 4048.9000000059605, 'positionName': 'LEFT', 'positionCoords': [819.8, 515.5], 'bid': 3.43}, {'imgObject': {}, 'id': 'burrito', 'src': '/static/foodstim60/burrito.jpg', 'key': 'i', 'origWidth': 410, 'origHeight': 410, 'width': 410, 'height': 410, 'widthPercent': 0.45, 'rescaleHeight': False, 'trialN': 11, 'loaded': True, 'loadedTime': 3720.300000011921, 'positionName': 'RIGHT', 'positionCoords': [1331.2, 515], 'bid': 4.1}]",29265.90000000596,1669829475106,turkey sandwich,burrito,3.43,4.1,0.6699999999999995,burrito,2067.199999988079,2068,2067.9000000059605,True,i,31838.5,2572.5999999940395,1669829477678,2572,HRV,HRV_0034,2022-11-30 17:37:43
12,"[{'imgObject': {}, 'id': 'hotdog w must', 'src': '/static/foodstim60/hotdog w must.jpg', 'key': 'u', 'origWidth': 409, 'origHeight': 409, 'width': 409, 'height': 409, 'widthPercent': 0.45, 'rescaleHeight': False, 'trialN': 12, 'loaded': True, 'loadedTime': 4049.0999999940395, 'positionName': 'LEFT', 'positionCoords': [819.8, 515.5], 'bid': 0.95}, {'imgObject': {}, 'id': 'salad w chicken', 'src': '/static/foodstim60/salad w chicken.jpg', 'key': 'i', 'origWidth': 411, 'origHeight': 411, 'width': 411, 'height': 411, 'widthPercent': 0.45, 'rescaleHeight': False, 'trialN': 12, 'loaded': True, 'loadedTime': 4097.5999999940395, 'positionName': 'RIGHT', 'positionCoords': [1331.2, 514.5], 'bid': 2.39}]",31838.69999998808,1669829477679,hotdog w must,salad w chicken,0.95,2.39,1.4400000000000002,salad w chicken,1438.9000000059605,1439,1439.800000011921,True,i,33791.19999998808,1952.5,1669829479631,1952,HRV,HRV_0034,2022-11-30 17:37:43
13,"[{'imgObject': {}, 'id': 'bagel and cc', 'src': '/static/foodstim60/bagel and cc.jpg', 'key': 'u', 'origWidth': 410, 'origHeight': 410, 'width': 410, 'height': 410, 'widthPercent': 0.45, 'rescaleHeight': False, 'trialN': 13, 'loaded': True, 'loadedTime': 4124.699999988079, 'positionName': 'LEFT', 'positionCoords': [818.8, 515], 'bid': 5.28}, {'imgObject': {}, 'id': 'turkeysandwich', 'src': '/static/foodstim60/turkeysandwich.jpg', 'key': 'i', 'origWidth': 409, 'origHeight': 409, 'width': 409, 'height': 409, 'widthPercent': 0.45, 'rescaleHeight': False, 'trialN': 13, 'loaded': True, 'loadedTime': 3308.4000000059605, 'positionName': 'RIGHT', 'positionCoords': [1331.2, 515.5], 'bid': 4.76}]",33791.59999999404,1669829479631,bagel and cc,turkeysandwich,5.28,4.76,-0.5200000000000005,bagel and cc,1804.9000000059605,1806,1805.0999999940395,True,u,36111.0,2319.4000000059605,1669829481951,2320,HRV,HRV_0034,2022-11-30 17:37:43
14,"[{'imgObject': {}, 'id': 'raisin bran w milk', 'src': '/static/foodstim60/raisin bran w milk.jpg', 'key': 'u', 'origWidth': 411, 'origHeight': 411, 'width': 411, 'height': 411, 'widthPercent': 0.45, 'rescaleHeight': False, 'trialN': 14, 'loaded': True, 'loadedTime': 3639.5, 'positionName': 'LEFT', 'positionCoords': [817.8, 514.5], 'bid': 2.28}, {'imgObject': {}, 'id': 'popsicles', 'src': '/static/foodstim60/popsicles.jpg', 'key': 'i', 'origWidth': 410, 'origHeight': 410, 'width': 410, 'height': 410, 'widthPercent': 0.45, 'rescaleHeight': False, 'trialN': 14, 'loaded': True, 'loadedTime': 4833.4000000059605, 'positionName': 'RIGHT', 'positionCoords': [1331.2, 515], 'bid': 3.61}]",36111.30000001192,1669829481951,raisin bran w milk,popsicles,2.28,3.61,1.33,popsicles,1741.7999999821186,1743,1742.699999988079,True,i,38363.0,2251.699999988079,1669829484203,2252,HRV,HRV_0034,2022-11-30 17:37:43
15,"[{'imgObject': {}, 'id': 'rigatoni and sauce', 'src': '/static/foodstim60/rigatoni and sauce.jpg', 'key': 'u', 'origWidth': 410, 'origHeight': 411, 'width': 410, 'height': 411, 'widthPercent': 0.45, 'rescaleHeight': False, 'trialN': 15, 'loaded': True, 'loadedTime': 4166.0999999940395, 'positionName': 'LEFT', 'positionCoords': [818.8, 514.5], 'bid': 3.79}, {'imgObject': {}, 'id': 'apple slices', 'src': '/static/foodstim60/apple slices.jpg', 'key': 'i', 'origWidth': 409, 'origHeight': 410, 'width': 409, 'height': 410, 'widthPercent': 0.45, 'rescaleHeight': False, 'trialN': 15, 'loaded': True, 'loadedTime': 3933.9000000059605, 'positionName': 'RIGHT', 'positionCoords': [1331.2, 515], 'bid': 5.32}]",38363.30000001192,1669829484203,rigatoni and sauce,apple slices,3.79,5.32,1.5300000000000002,apple slices,1497.8999999761581,1499,1498.5,True,i,40379.59999999404,2016.2999999821186,1669829486220,2017,HRV,HRV_0034,2022-11-30 17:37:43
16,"[{'imgObject': {}, 'id': 'mango', 'src': '/static/foodstim60/mango.jpg', 'key': 'u', 'origWidth': 411, 'origHeight': 411, 'width': 411, 'height': 411, 'widthPercent': 0.45, 'rescaleHeight': False, 'trialN': 16, 'loaded': True, 'loadedTime': 4173, 'positionName': 'LEFT', 'positionCoords': [817.8, 514.5], 'bid': 7.18}, {'imgObject': {}, 'id': 'kiwi', 'src': '/static/foodstim60/kiwi.jpg', 'key': 'i', 'origWidth': 410, 'origHeight': 410, 'width': 410, 'height': 410, 'widthPercent': 0.45, 'rescaleHeight': False, 'trialN': 16, 'loaded': True, 'loadedTime': 3408.800000011921, 'positionName': 'RIGHT', 'positionCoords': [1331.2, 515], 'bid': 6.44}]",40379.90000000596,1669829486220,mango,kiwi,7.18,6.44,-0.7399999999999993,mango,1400.699999988079,1401,1401.0,True,u,42300.40000000596,1920.5,1669829488140,1920,HRV,HRV_0034,2022-11-30 17:37:43
17,"[{'imgObject': {}, 'id': 'cherries', 'src': '/static/foodstim60/cherries.jpg', 'key': 'u', 'origWidth': 410, 'origHeight': 411, 'width': 410, 'height': 411, 'widthPercent': 0.45, 'rescaleHeight': False, 'trialN': 17, 'loaded': True, 'loadedTime': 4228.5, 'positionName': 'LEFT', 'positionCoords': [818.8, 514.5], 'bid': 7.36}, {'imgObject': {}, 'id': 'steak', 'src': '/static/foodstim60/steak.jpg', 'key': 'i', 'origWidth': 410, 'origHeight': 410, 'width': 410, 'height': 410, 'widthPercent': 0.45, 'rescaleHeight': False, 'trialN': 17, 'loaded': True, 'loadedTime': 4241.300000011921, 'positionName': 'RIGHT', 'positionCoords': [1331.2, 515], 'bid': 8.73}]",42300.59999999404,1669829488141,cherries,steak,7.36,8.73,1.37,steak,1536.2000000178814,1545,1545.2000000178814,True,i,44353.0,2052.4000000059605,1669829490193,2052,HRV,HRV_0034,2022-11-30 17:37:43
18,"[{'imgObject': {}, 'id': 'sushi w_condiments', 'src': '/static/foodstim60/sushi w_condiments.jpg', 'key': 'u', 'origWidth': 410, 'origHeight': 410, 'width': 410, 'height': 410, 'widthPercent': 0.45, 'rescaleHeight': False, 'trialN': 18, 'loaded': True, 'loadedTime': 4272, 'positionName': 'LEFT', 'positionCoords': [818.8, 515], 'bid': 5.57}, {'imgObject': {}, 'id': 'seaweed', 'src': '/static/foodstim60/seaweed.jpg', 'key': 'i', 'origWidth': 410, 'origHeight': 410, 'width': 410, 'height': 410, 'widthPercent': 0.45, 'rescaleHeight': False, 'trialN': 18, 'loaded': True, 'loadedTime': 3900.699999988079, 'positionName': 'RIGHT', 'positionCoords': [1331.2, 515], 'bid': 5.34}]",44353.30000001192,1669829490193,sushi w_condiments,seaweed,5.57,5.34,-0.23000000000000043,sushi w_condiments,2499.5999999940395,2500,2500.0,True,u,47363.80000001192,3010.5,1669829493204,3011,HRV,HRV_0034,2022-11-30 17:37:43
19,"[{'imgObject': {}, 'id': 'salad w chicken', 'src': '/static/foodstim60/salad w chicken.jpg', 'key': 'u', 'origWidth': 411, 'origHeight': 411, 'width': 411, 'height': 411, 'widthPercent': 0.45, 'rescaleHeight': False, 'trialN': 19, 'loaded': True, 'loadedTime': 4089.5999999940395, 'positionName': 'LEFT', 'positionCoords': [817.8, 514.5], 'bid': 2.39}, {'imgObject': {}, 'id': 'raisin bran w milk', 'src': '/static/foodstim60/raisin bran w milk.jpg', 'key': 'i', 'origWidth': 411, 'origHeight': 411, 'width': 411, 'height': 411, 'widthPercent': 0.45, 'rescaleHeight': False, 'trialN': 19, 'loaded': True, 'loadedTime': 3659.4000000059605, 'positionName': 'RIGHT', 'positionCoords': [1331.2, 514.5], 'bid': 2.28}]",47364.0,1669829493204,salad w chicken,raisin bran w milk,2.39,2.28,-0.11000000000000032,salad w chicken,2001.0999999940395,2002,2001.9000000059605,True,u,49875.09999999404,2511.0999999940395,1669829495715,2511,HRV,HRV_0034,2022-11-30 17:37:43
20,"[{'imgObject': {}, 'id': 'fried eggs', 'src': '/static/foodstim60/fried eggs.jpg', 'key': 'u', 'origWidth': 410, 'origHeight': 410, 'width': 410, 'height': 410, 'widthPercent': 0.45, 'rescaleHeight': False, 'trialN': 20, 'loaded': True, 'loadedTime': 4299.9000000059605, 'positionName': 'LEFT', 'positionCoords': [818.8, 515], 'bid': 3.62}, {'imgObject': {}, 'id': 'mashed potato', 'src': '/static/foodstim60/mashed potato.jpg', 'key': 'i', 'origWidth': 409, 'origHeight': 409, 'width': 409, 'height': 409, 'widthPercent': 0.45, 'rescaleHeight': False, 'trialN': 20, 'loaded': True, 'loadedTime': 3849.5, 'positionName': 'RIGHT', 'positionCoords': [1331.2, 515.5], 'bid': 2.74}]",49875.19999998808,1669829495715,fried eggs,mashed potato,3.62,2.74,-0.8799999999999999,fried eggs,2094.0,2095,2094.600000023842,True,u,52480.19999998808,2605.0,1669829498320,2605,HRV,HRV_0034,2022-11-30 17:37:43
21,"[{'imgObject': {}, 'id': 'turkeysandwich', 'src': '/static/foodstim60/turkeysandwich.jpg', 'key': 'u', 'origWidth': 409, 'origHeight': 409, 'width': 409, 'height': 409, 'widthPercent': 0.45, 'rescaleHeight': False, 'trialN': 21, 'loaded': True, 'loadedTime': 3323.0999999940395, 'positionName': 'LEFT', 'positionCoords': [819.8, 515.5], 'bid': 4.76}, {'imgObject': {}, 'id': 'corn cob', 'src': '/static/foodstim60/corn cob.jpg', 'key': 'i', 'origWidth': 411, 'origHeight': 411, 'width': 411, 'height': 411, 'widthPercent': 0.45, 'rescaleHeight': False, 'trialN': 21, 'loaded': True, 'loadedTime': 4338.9000000059605, 'positionName': 'RIGHT', 'positionCoords': [1331.2, 514.5], 'bid': 8.45}]",52480.5,1669829498320,turkeysandwich,corn cob,4.76,8.45,3.6899999999999995,corn cob,2041.0999999940395,2042,2041.800000011921,True,i,55031.40000000596,2550.9000000059605,1669829500871,2551,HRV,HRV_0034,2022-11-30 17:37:43
22,"[{'imgObject': {}, 'id': 'rigatoni', 'src': '/static/foodstim60/rigatoni.jpg', 'key': 'u', 'origWidth': 411, 'origHeight': 411, 'width': 411, 'height': 411, 'widthPercent': 0.45, 'rescaleHeight': False, 'trialN': 22, 'loaded': True, 'loadedTime': 4362, 'positionName': 'LEFT', 'positionCoords': [817.8, 514.5], 'bid': 0.87}, {'imgObject': {}, 'id': 'bagel and cc', 'src': '/static/foodstim60/bagel and cc.jpg', 'key': 'i', 'origWidth': 410, 'origHeight': 410, 'width': 410, 'height': 410, 'widthPercent': 0.45, 'rescaleHeight': False, 'trialN': 22, 'loaded': True, 'loadedTime': 4125.0999999940395, 'positionName': 'RIGHT', 'positionCoords': [1331.2, 515], 'bid': 5.28}]",55031.69999998808,1669829500872,rigatoni,bagel and cc,0.87,5.28,4.41,bagel and cc,1977.0,1977,1977.300000011921,True,i,57513.40000000596,2481.7000000178814,1669829503353,2481,HRV,HRV_0034,2022-11-30 17:37:43
23,"[{'imgObject': {}, 'id': 'hashbrowns', 'src': '/static/foodstim60/hashbrowns.jpg', 'key': 'u', 'origWidth': 411, 'origHeight': 410, 'width': 411, 'height': 410, 'widthPercent': 0.45, 'rescaleHeight': False, 'trialN': 23, 'loaded': True, 'loadedTime': 3756.300000011921, 'positionName': 'LEFT', 'positionCoords': [817.8, 515], 'bid': 2.46}, {'imgObject': {}, 'id': 'blackbeanswithrice', 'src': '/static/foodstim60/blackbeanswithrice.jpg', 'key': 'i', 'origWidth': 410, 'origHeight': 410, 'width': 410, 'height': 410, 'widthPercent': 0.45, 'rescaleHeight': False, 'trialN': 23, 'loaded': True, 'loadedTime': 4383, 'positionName': 'RIGHT', 'positionCoords': [1331.2, 515], 'bid': 1.1}]",57513.59999999404,1669829503354,hashbrowns,blackbeanswithrice,2.46,1.1,-1.3599999999999999,hashbrowns,2071.4000000059605,2072,2072.0,True,u,60097.90000000596,2584.300000011921,1669829505938,2584,HRV,HRV_0034,2022-11-30 17:37:43
24,"[{'imgObject': {}, 'id': 'raisin bran w milk', 'src': '/static/foodstim60/raisin bran w milk.jpg', 'key': 'u', 'origWidth': 411, 'origHeight': 411, 'width': 411, 'height': 411, 'widthPercent': 0.45, 'rescaleHeight': False, 'trialN': 24, 'loaded': True, 'loadedTime': 3646.4000000059605, 'positionName': 'LEFT', 'positionCoords': [817.8, 514.5], 'bid': 2.28}, {'imgObject': {}, 'id': 'fruitsalad', 'src': '/static/foodstim60/fruitsalad.jpg', 'key': 'i', 'origWidth': 410, 'origHeight': 410, 'width': 410, 'height': 410, 'widthPercent': 0.45, 'rescaleHeight': False, 'trialN': 24, 'loaded': True, 'loadedTime': 4390.800000011921, 'positionName': 'RIGHT', 'positionCoords': [1331.2, 515], 'bid': 6.42}]",60098.0,1669829505938,raisin bran w milk,fruitsalad,2.28,6.42,4.140000000000001,fruitsalad,1566.5999999940395,1567,1566.9000000059605,True,i,62180.19999998808,2082.199999988079,1669829508020,2082,HRV,HRV_0034,2022-11-30 17:37:43
25,"[{'imgObject': {}, 'id': 'rigatoni and sauce', 'src': '/static/foodstim60/rigatoni and sauce.jpg', 'key': 'u', 'origWidth': 410, 'origHeight': 411, 'width': 410, 'height': 411, 'widthPercent': 0.45, 'rescaleHeight': False, 'trialN': 25, 'loaded': True, 'loadedTime': 4166.199999988079, 'positionName': 'LEFT', 'positionCoords': [818.8, 514.5], 'bid': 3.79}, {'imgObject': {}, 'id': 'bagel plain', 'src': '/static/foodstim60/bagel plain.jpg', 'key': 'i', 'origWidth': 410, 'origHeight': 410, 'width': 410, 'height': 410, 'widthPercent': 0.45, 'rescaleHeight': False, 'trialN': 25, 'loaded': True, 'loadedTime': 4418.9000000059605, 'positionName': 'RIGHT', 'positionCoords': [1331.2, 515], 'bid': 1.83}]",62180.30000001192,1669829508020,rigatoni and sauce,bagel plain,3.79,1.83,-1.96,bagel plain,2020.7999999821186,2022,2021.3999999761581,True,i,64711.5,2531.199999988079,1669829510551,2531,HRV,HRV_0034,2022-11-30 17:37:43
26,"[{'imgObject': {}, 'id': 'apple slices', 'src': '/static/foodstim60/apple slices.jpg', 'key': 'u', 'origWidth': 409, 'origHeight': 410, 'width': 409, 'height': 410, 'widthPercent': 0.45, 'rescaleHeight': False, 'trialN': 26, 'loaded': True, 'loadedTime': 3961, 'positionName': 'LEFT', 'positionCoords': [819.8, 515], 'bid': 5.32}, {'imgObject': {}, 'id': 'hotdog w must', 'src': '/static/foodstim60/hotdog w must.jpg', 'key': 'i', 'origWidth': 409, 'origHeight': 409, 'width': 409, 'height': 409, 'widthPercent': 0.45, 'rescaleHeight': False, 'trialN': 26, 'loaded': True, 'loadedTime': 4056.800000011921, 'positionName': 'RIGHT', 'positionCoords': [1331.2, 515.5], 'bid': 0.95}]",64711.69999998808,1669829510552,apple slices,hotdog w must,5.32,0.95,-4.37,apple slices,1289.9000000059605,1290,1290.6000000238419,True,u,66510.69999998808,1799.0,1669829512351,1799,HRV,HRV_0034,2022-11-30 17:37:43
27,"[{'imgObject': {}, 'id': 'luckycharms', 'src': '/static/foodstim60/luckycharms.jpg', 'key': 'u', 'origWidth': 410, 'origHeight': 409, 'width': 410, 'height': 409, 'widthPercent': 0.45, 'rescaleHeight': False, 'trialN': 27, 'loaded': True, 'loadedTime': 4448.9000000059605, 'positionName': 'LEFT', 'positionCoords': [818.8, 515.5], 'bid': 1.91}, {'imgObject': {}, 'id': 'ice cream sundae 002', 'src': '/static/foodstim60/ice cream sundae 002.jpg', 'key': 'i', 'origWidth': 409, 'origHeight': 409, 'width': 409, 'height': 409, 'widthPercent': 0.45, 'rescaleHeight': False, 'trialN': 27, 'loaded': True, 'loadedTime': 4478.4000000059605, 'positionName': 'RIGHT', 'positionCoords': [1331.2, 515.5], 'bid': 5.97}]",66510.90000000596,1669829512351,luckycharms,ice cream sundae 002,1.91,5.97,4.06,ice cream sundae 002,1770.2999999821186,1771,1770.9000000059605,True,i,68788.59999999404,2277.699999988079,1669829514629,2278,HRV,HRV_0034,2022-11-30 17:37:43
28,"[{'imgObject': {}, 'id': 'raspberries', 'src': '/static/foodstim60/raspberries.jpg', 'key': 'u', 'origWidth': 411, 'origHeight': 411, 'width': 411, 'height': 411, 'widthPercent': 0.45, 'rescaleHeight': False, 'trialN': 28, 'loaded': True, 'loadedTime': 4522, 'positionName': 'LEFT', 'positionCoords': [817.8, 514.5], 'bid': 7.42}, {'imgObject': {}, 'id': 'fruitsalad', 'src': '/static/foodstim60/fruitsalad.jpg', 'key': 'i', 'origWidth': 410, 'origHeight': 410, 'width': 410, 'height': 410, 'widthPercent': 0.45, 'rescaleHeight': False, 'trialN': 28, 'loaded': True, 'loadedTime': 4392.300000011921, 'positionName': 'RIGHT', 'positionCoords': [1331.2, 515], 'bid': 6.42}]",68788.90000000596,1669829514629,raspberries,fruitsalad,7.42,6.42,-1.0,raspberries,1852.4000000059605,1853,1853.4000000059605,True,u,71156.30000001192,2367.4000000059605,1669829516996,2367,HRV,HRV_0034,2022-11-30 17:37:43
29,"[{'imgObject': {}, 'id': 'mac & cheese', 'src': '/static/foodstim60/mac & cheese.jpg', 'key': 'u', 'origWidth': 410, 'origHeight': 410, 'width': 410, 'height': 410, 'widthPercent': 0.45, 'rescaleHeight': False, 'trialN': 29, 'loaded': True, 'loadedTime': 4533.5, 'positionName': 'LEFT', 'positionCoords': [818.8, 515], 'bid': 1.76}, {'imgObject': {}, 'id': 'olives', 'src': '/static/foodstim60/olives.jpg', 'key': 'i', 'origWidth': 410, 'origHeight': 410, 'width': 410, 'height': 410, 'widthPercent': 0.45, 'rescaleHeight': False, 'trialN': 29, 'loaded': True, 'loadedTime': 4572.199999988079, 'positionName': 'RIGHT', 'positionCoords': [1331.2, 515], 'bid': 1.78}]",71156.5,1669829516996,mac & cheese,olives,1.76,1.78,0.020000000000000018,mac & cheese,2000.0,2001,2000.4000000059605,True,u,73673.5,2517.0,1669829519513,2517,HRV,HRV_0034,2022-11-30 17:37:43
30,"[{'imgObject': {}, 'id': 'salad w chicken', 'src': '/static/foodstim60/salad w chicken.jpg', 'key': 'u', 'origWidth': 411, 'origHeight': 411, 'width': 411, 'height': 411, 'widthPercent': 0.45, 'rescaleHeight': False, 'trialN': 30, 'loaded': True, 'loadedTime': 4090.800000011921, 'positionName': 'LEFT', 'positionCoords': [817.8, 514.5], 'bid': 2.39}, {'imgObject': {}, 'id': 'olives', 'src': '/static/foodstim60/olives.jpg', 'key': 'i', 'origWidth': 410, 'origHeight': 410, 'width': 410, 'height': 410, 'widthPercent': 0.45, 'rescaleHeight': False, 'trialN': 30, 'loaded': True, 'loadedTime': 4549.5999999940395, 'positionName': 'RIGHT', 'positionCoords': [1331.2, 515], 'bid': 1.78}]",73673.59999999404,1669829519514,salad w chicken,olives,2.39,1.78,-0.6100000000000001,salad w chicken,2279.5999999940395,2279,2280.2000000178814,True,u,76458.09999999404,2784.5,1669829522298,2784,HRV,HRV_0034,2022-11-30 17:37:43
31,"[{'imgObject': {}, 'id': 'chicken nuggets2', 'src': '/static/foodstim60/chicken nuggets2.jpg', 'key': 'u', 'origWidth': 410, 'origHeight': 409, 'width': 410, 'height': 409, 'widthPercent': 0.45, 'rescaleHeight': False, 'trialN': 31, 'loaded': True, 'loadedTime': 4581.199999988079, 'positionName': 'LEFT', 'positionCoords': [818.8, 515.5], 'bid': 4.64}, {'imgObject': {}, 'id': 'eggs', 'src': '/static/foodstim60/eggs.jpg', 'key': 'i', 'origWidth': 409, 'origHeight': 409, 'width': 409, 'height': 409, 'widthPercent': 0.45, 'rescaleHeight': False, 'trialN': 31, 'loaded': True, 'loadedTime': 4598, 'positionName': 'RIGHT', 'positionCoords': [1331.2, 515.5], 'bid': 4.53}]",76458.59999999404,1669829522298,chicken nuggets2,eggs,4.64,4.53,-0.10999999999999943,eggs,1811.0,1812,1811.7000000178814,True,i,78787.90000000596,2329.300000011921,1669829524628,2330,HRV,HRV_0034,2022-11-30 17:37:43
32,"[{'imgObject': {}, 'id': 'mashed potato', 'src': '/static/foodstim60/mashed potato.jpg', 'key': 'u', 'origWidth': 409, 'origHeight': 409, 'width': 409, 'height': 409, 'widthPercent': 0.45, 'rescaleHeight': False, 'trialN': 32, 'loaded': True, 'loadedTime': 3834.5999999940395, 'positionName': 'LEFT', 'positionCoords': [819.8, 515.5], 'bid': 2.74}, {'imgObject': {}, 'id': 'yogurt no spoon', 'src': '/static/foodstim60/yogurt no spoon.jpg', 'key': 'i', 'origWidth': 411, 'origHeight': 410, 'width': 411, 'height': 410, 'widthPercent': 0.45, 'rescaleHeight': False, 'trialN': 32, 'loaded': True, 'loadedTime': 4001.300000011921, 'positionName': 'RIGHT', 'positionCoords': [1331.2, 515], 'bid': 5.21}]",78788.30000001192,1669829524628,mashed potato,yogurt no spoon,2.74,5.21,2.4699999999999998,yogurt no spoon,2048.899999976158,2049,2049.5999999940395,True,i,81347.09999999404,2558.7999999821186,1669829527187,2559,HRV,HRV_0034,2022-11-30 17:37:43
33,"[{'imgObject': {}, 'id': 'lox', 'src': '/static/foodstim60/lox.jpg', 'key': 'u', 'origWidth': 410, 'origHeight': 411, 'width': 410, 'height': 411, 'widthPercent': 0.45, 'rescaleHeight': False, 'trialN': 33, 'loaded': True, 'loadedTime': 3437.800000011921, 'positionName': 'LEFT', 'positionCoords': [818.8, 514.5], 'bid': 5.59}, {'imgObject': {}, 'id': 'seaweed', 'src': '/static/foodstim60/seaweed.jpg', 'key': 'i', 'origWidth': 410, 'origHeight': 410, 'width': 410, 'height': 410, 'widthPercent': 0.45, 'rescaleHeight': False, 'trialN': 33, 'loaded': True, 'loadedTime': 3920, 'positionName': 'RIGHT', 'positionCoords': [1331.2, 515], 'bid': 5.34}]",81347.5,1669829527187,lox,seaweed,5.59,5.34,-0.25,lox,2161.4000000059605,2162,2161.800000011921,True,u,84017.90000000596,2670.4000000059605,1669829529858,2671,HRV,HRV_0034,2022-11-30 17:37:43
34,"[{'imgObject': {}, 'id': 'Grapes', 'src': '/static/foodstim60/Grapes.jpg', 'key': 'u', 'origWidth': 411, 'origHeight': 411, 'width': 411, 'height': 411, 'widthPercent': 0.45, 'rescaleHeight': False, 'trialN': 34, 'loaded': True, 'loadedTime': 4620.5, 'positionName': 'LEFT', 'positionCoords': [817.8, 514.5], 'bid': 7.35}, {'imgObject': {}, 'id': 'cherries', 'src': '/static/foodstim60/cherries.jpg', 'key': 'i', 'origWidth': 410, 'origHeight': 411, 'width': 410, 'height': 411, 'widthPercent': 0.45, 'rescaleHeight': False, 'trialN': 34, 'loaded': True, 'loadedTime': 4213.699999988079, 'positionName': 'RIGHT', 'positionCoords': [1331.2, 514.5], 'bid': 7.36}]",84018.40000000596,1669829529858,Grapes,cherries,7.35,7.36,0.010000000000000675,Grapes,1906.699999988079,1908,1907.5,True,u,86433.40000000596,2415.0,1669829532273,2415,HRV,HRV_0034,2022-11-30 17:37:43
35,"[{'imgObject': {}, 'id': 'cherries', 'src': '/static/foodstim60/cherries.jpg', 'key': 'u', 'origWidth': 410, 'origHeight': 411, 'width': 410, 'height': 411, 'widthPercent': 0.45, 'rescaleHeight': False, 'trialN': 35, 'loaded': True, 'loadedTime': 4240.5999999940395, 'positionName': 'LEFT', 'positionCoords': [818.8, 514.5], 'bid': 7.36}, {'imgObject': {}, 'id': 'burrito', 'src': '/static/foodstim60/burrito.jpg', 'key': 'i', 'origWidth': 410, 'origHeight': 410, 'width': 410, 'height': 410, 'widthPercent': 0.45, 'rescaleHeight': False, 'trialN': 35, 'loaded': True, 'loadedTime': 3728.199999988079, 'positionName': 'RIGHT', 'positionCoords': [1331.2, 515], 'bid': 4.1}]",86433.59999999404,1669829532273,cherries,burrito,7.36,4.1,-3.2600000000000007,cherries,1955.0999999940395,1956,1955.300000011921,True,u,88898.90000000596,2465.300000011921,1669829534738,2465,HRV,HRV_0034,2022-11-30 17:37:43
36,"[{'imgObject': {}, 'id': 'rigatoni and sauce', 'src': '/static/foodstim60/rigatoni and sauce.jpg', 'key': 'u', 'origWidth': 410, 'origHeight': 411, 'width': 410, 'height': 411, 'widthPercent': 0.45, 'rescaleHeight': False, 'trialN': 36, 'loaded': True, 'loadedTime': 4146.699999988079, 'positionName': 'LEFT', 'positionCoords': [818.8, 514.5], 'bid': 3.79}, {'imgObject': {}, 'id': 'sweetpotato', 'src': '/static/foodstim60/sweetpotato.jpg', 'key': 'i', 'origWidth': 410, 'origHeight': 410, 'width': 410, 'height': 410, 'widthPercent': 0.45, 'rescaleHeight': False, 'trialN': 36, 'loaded': True, 'loadedTime': 4631.4000000059605, 'positionName': 'RIGHT', 'positionCoords': [1331.2, 515], 'bid': 7.26}]",88899.09999999404,1669829534739,rigatoni and sauce,sweetpotato,3.79,7.26,3.4699999999999998,sweetpotato,1330.0999999940395,1331,1331.0999999940395,True,i,90746.5,1847.4000000059605,1669829536586,1847,HRV,HRV_0034,2022-11-30 17:37:43
37,"[{'imgObject': {}, 'id': 'popsicles', 'src': '/static/foodstim60/popsicles.jpg', 'key': 'u', 'origWidth': 410, 'origHeight': 410, 'width': 410, 'height': 410, 'widthPercent': 0.45, 'rescaleHeight': False, 'trialN': 37, 'loaded': True, 'loadedTime': 4833.300000011921, 'positionName': 'LEFT', 'positionCoords': [818.8, 515], 'bid': 3.61}, {'imgObject': {}, 'id': 'tacos', 'src': '/static/foodstim60/tacos.jpg', 'key': 'i', 'origWidth': 411, 'origHeight': 411, 'width': 411, 'height': 411, 'widthPercent': 0.45, 'rescaleHeight': False, 'trialN': 37, 'loaded': True, 'loadedTime': 3543.300000011921, 'positionName': 'RIGHT', 'positionCoords': [1331.2, 514.5], 'bid': 3.45}]",90746.80000001192,1669829536586,popsicles,tacos,3.61,3.45,-0.1599999999999997,popsicles,1746.3999999761581,1747,1747.0,True,u,93001.90000000596,2255.0999999940395,1669829538842,2256,HRV,HRV_0034,2022-11-30 17:37:43
38,"[{'imgObject': {}, 'id': 'mango', 'src': '/static/foodstim60/mango.jpg', 'key': 'u', 'origWidth': 411, 'origHeight': 411, 'width': 411, 'height': 411, 'widthPercent': 0.45, 'rescaleHeight': False, 'trialN': 38, 'loaded': True, 'loadedTime': 4187.9000000059605, 'positionName': 'LEFT', 'positionCoords': [817.8, 514.5], 'bid': 7.18}, {'imgObject': {}, 'id': 'fried eggs', 'src': '/static/foodstim60/fried eggs.jpg', 'key': 'i', 'origWidth': 410, 'origHeight': 410, 'width': 410, 'height': 410, 'widthPercent': 0.45, 'rescaleHeight': False, 'trialN': 38, 'loaded': True, 'loadedTime': 4309.800000011921, 'positionName': 'RIGHT', 'positionCoords': [1331.2, 515], 'bid': 3.62}]",93002.40000000596,1669829538842,mango,fried eggs,7.18,3.62,-3.5599999999999996,mango,1778.199999988079,1779,1778.5,True,u,95299.59999999404,2297.199999988079,1669829541139,2297,HRV,HRV_0034,2022-11-30 17:37:43
39,"[{'imgObject': {}, 'id': 'turkey sandwich', 'src': '/static/foodstim60/turkey sandwich.jpg', 'key': 'u', 'origWidth': 409, 'origHeight': 409, 'width': 409, 'height': 409, 'widthPercent': 0.45, 'rescaleHeight': False, 'trialN': 39, 'loaded': True, 'loadedTime': 4042.0999999940395, 'positionName': 'LEFT', 'positionCoords': [819.8, 515.5], 'bid': 3.43}, {'imgObject': {}, 'id': 'popsicles', 'src': '/static/foodstim60/popsicles.jpg', 'key': 'i', 'origWidth': 410, 'origHeight': 410, 'width': 410, 'height': 410, 'widthPercent': 0.45, 'rescaleHeight': False, 'trialN': 39, 'loaded': True, 'loadedTime': 4833.699999988079, 'positionName': 'RIGHT', 'positionCoords': [1331.2, 515], 'bid': 3.61}]",95299.80000001192,1669829541139,turkey sandwich,popsicles,3.43,3.61,0.17999999999999972,turkey sandwich,2081.399999976158,2082,2082.0999999940395,True,u,97899.69999998808,2599.899999976158,1669829543739,2600,HRV,HRV_0034,2022-11-30 17:37:43
40,"[{'imgObject': {}, 'id': 'burger', 'src': '/static/foodstim60/burger.jpg', 'key': 'u', 'origWidth': 409, 'origHeight': 409, 'width': 409, 'height': 409, 'widthPercent': 0.45, 'rescaleHeight': False, 'trialN': 40, 'loaded': True, 'loadedTime': 3798.699999988079, 'positionName': 'LEFT', 'positionCoords': [819.8, 515.5], 'bid': 6.5}, {'imgObject': {}, 'id': 'kiwi', 'src': '/static/foodstim60/kiwi.jpg', 'key': 'i', 'origWidth': 410, 'origHeight': 410, 'width': 410, 'height': 410, 'widthPercent': 0.45, 'rescaleHeight': False, 'trialN': 40, 'loaded': True, 'loadedTime': 3422.699999988079, 'positionName': 'RIGHT', 'positionCoords': [1331.2, 515], 'bid': 6.44}]",97899.80000001192,1669829543739,burger,kiwi,6.5,6.44,-0.05999999999999961,kiwi,2233.2999999821186,2234,2233.699999988079,True,i,100641.40000000596,2741.5999999940395,1669829546481,2742,HRV,HRV_0034,2022-11-30 17:37:43
41,"[{'imgObject': {}, 'id': 'rigatoni', 'src': '/static/foodstim60/rigatoni.jpg', 'key': 'u', 'origWidth': 411, 'origHeight': 411, 'width': 411, 'height': 411, 'widthPercent': 0.45, 'rescaleHeight': False, 'trialN': 41, 'loaded': True, 'loadedTime': 4355.0999999940395, 'positionName': 'LEFT', 'positionCoords': [817.8, 514.5], 'bid': 0.87}, {'imgObject': {}, 'id': 'froot loops w milk', 'src': '/static/foodstim60/froot loops w milk.jpg', 'key': 'i', 'origWidth': 410, 'origHeight': 410, 'width': 410, 'height': 410, 'widthPercent': 0.45, 'rescaleHeight': False, 'trialN': 41, 'loaded': True, 'loadedTime': 4661.800000011921, 'positionName': 'RIGHT', 'positionCoords': [1331.2, 515], 'bid': 2.28}]",100641.59999999404,1669829546481,rigatoni,froot loops w milk,0.87,2.28,1.4099999999999997,rigatoni,2227.5999999940395,2229,2228.7000000178814,True,u,103382.09999999404,2740.5,1669829549222,2741,HRV,HRV_0034,2022-11-30 17:37:43
42,"[{'imgObject': {}, 'id': 'hotdog w must', 'src': '/static/foodstim60/hotdog w must.jpg', 'key': 'u', 'origWidth': 409, 'origHeight': 409, 'width': 409, 'height': 409, 'widthPercent': 0.45, 'rescaleHeight': False, 'trialN': 42, 'loaded': True, 'loadedTime': 4056.9000000059605, 'positionName': 'LEFT', 'positionCoords': [819.8, 515.5], 'bid': 0.95}, {'imgObject': {}, 'id': 'luckycharms', 'src': '/static/foodstim60/luckycharms.jpg', 'key': 'i', 'origWidth': 410, 'origHeight': 409, 'width': 410, 'height': 409, 'widthPercent': 0.45, 'rescaleHeight': False, 'trialN': 42, 'loaded': True, 'loadedTime': 4441.800000011921, 'positionName': 'RIGHT', 'positionCoords': [1331.2, 515.5], 'bid': 1.91}]",103382.59999999404,1669829549222,hotdog w must,luckycharms,0.95,1.91,0.96,luckycharms,1753.9000000059605,1754,1754.0999999940395,True,i,105643.0,2260.4000000059605,1669829551483,2261,HRV,HRV_0034,2022-11-30 17:37:43
43,"[{'imgObject': {}, 'id': 'mango', 'src': '/static/foodstim60/mango.jpg', 'key': 'u', 'origWidth': 411, 'origHeight': 411, 'width': 411, 'height': 411, 'widthPercent': 0.45, 'rescaleHeight': False, 'trialN': 43, 'loaded': True, 'loadedTime': 4200.0999999940395, 'positionName': 'LEFT', 'positionCoords': [817.8, 514.5], 'bid': 7.18}, {'imgObject': {}, 'id': 'blueberries', 'src': '/static/foodstim60/blueberries.jpg', 'key': 'i', 'origWidth': 411, 'origHeight': 411, 'width': 411, 'height': 411, 'widthPercent': 0.45, 'rescaleHeight': False, 'trialN': 43, 'loaded': True, 'loadedTime': 4693.199999988079, 'positionName': 'RIGHT', 'positionCoords': [1331.2, 514.5], 'bid': 8.09}]",105643.09999999404,1669829551483,mango,blueberries,7.18,8.09,0.9100000000000001,mango,2093.5999999940395,2094,2093.9000000059605,True,u,108245.0,2601.9000000059605,1669829554085,2602,HRV,HRV_0034,2022-11-30 17:37:43
44,"[{'imgObject': {}, 'id': 'cocktailshrimp', 'src': '/static/foodstim60/cocktailshrimp.jpg', 'key': 'u', 'origWidth': 410, 'origHeight': 410, 'width': 410, 'height': 410, 'widthPercent': 0.45, 'rescaleHeight': False, 'trialN': 44, 'loaded': True, 'loadedTime': 4695, 'positionName': 'LEFT', 'positionCoords': [818.8, 515], 'bid': 6.75}, {'imgObject': {}, 'id': 'salmon', 'src': '/static/foodstim60/salmon.jpg', 'key': 'i', 'origWidth': 410, 'origHeight': 409, 'width': 410, 'height': 409, 'widthPercent': 0.45, 'rescaleHeight': False, 'trialN': 44, 'loaded': True, 'loadedTime': 4726.300000011921, 'positionName': 'RIGHT', 'positionCoords': [1331.2, 515.5], 'bid': 6.47}]",108245.19999998808,1669829554085,cocktailshrimp,salmon,6.75,6.47,-0.28000000000000025,salmon,1691.9000000059605,1693,1692.800000011921,True,i,110442.40000000596,2197.2000000178814,1669829556282,2197,HRV,HRV_0034,2022-11-30 17:37:43
45,"[{'imgObject': {}, 'id': 'cocktailshrimp', 'src': '/static/foodstim60/cocktailshrimp.jpg', 'key': 'u', 'origWidth': 410, 'origHeight': 410, 'width': 410, 'height': 410, 'widthPercent': 0.45, 'rescaleHeight': False, 'trialN': 45, 'loaded': True, 'loadedTime': 4724.800000011921, 'positionName': 'LEFT', 'positionCoords': [818.8, 515], 'bid': 6.75}, {'imgObject': {}, 'id': 'seaweed', 'src': '/static/foodstim60/seaweed.jpg', 'key': 'i', 'origWidth': 410, 'origHeight': 410, 'width': 410, 'height': 410, 'widthPercent': 0.45, 'rescaleHeight': False, 'trialN': 45, 'loaded': True, 'loadedTime': 3927, 'positionName': 'RIGHT', 'positionCoords': [1331.2, 515], 'bid': 5.34}]",110442.80000001192,1669829556282,cocktailshrimp,seaweed,6.75,5.34,-1.4100000000000001,cocktailshrimp,2102.7999999821186,2104,2103.2999999821186,True,u,113057.30000001192,2614.5,1669829558897,2615,HRV,HRV_0034,2022-11-30 17:37:43
46,"[{'imgObject': {}, 'id': 'cocktailshrimp', 'src': '/static/foodstim60/cocktailshrimp.jpg', 'key': 'u', 'origWidth': 410, 'origHeight': 410, 'width': 410, 'height': 410, 'widthPercent': 0.45, 'rescaleHeight': False, 'trialN': 46, 'loaded': True, 'loadedTime': 4725, 'positionName': 'LEFT', 'positionCoords': [818.8, 515], 'bid': 6.75}, {'imgObject': {}, 'id': 'turkey sandwich', 'src': '/static/foodstim60/turkey sandwich.jpg', 'key': 'i', 'origWidth': 409, 'origHeight': 409, 'width': 409, 'height': 409, 'widthPercent': 0.45, 'rescaleHeight': False, 'trialN': 46, 'loaded': True, 'loadedTime': 4022.9000000059605, 'positionName': 'RIGHT', 'positionCoords': [1331.2, 515.5], 'bid': 3.43}]",113057.59999999404,1669829558897,cocktailshrimp,turkey sandwich,6.75,3.43,-3.32,cocktailshrimp,1159.300000011921,1160,1159.7000000178814,True,u,114718.90000000596,1661.300000011921,1669829560559,1662,HRV,HRV_0034,2022-11-30 17:37:43
47,"[{'imgObject': {}, 'id': 'salad w chicken', 'src': '/static/foodstim60/salad w chicken.jpg', 'key': 'u', 'origWidth': 411, 'origHeight': 411, 'width': 411, 'height': 411, 'widthPercent': 0.45, 'rescaleHeight': False, 'trialN': 47, 'loaded': True, 'loadedTime': 4104.699999988079, 'positionName': 'LEFT', 'positionCoords': [817.8, 514.5], 'bid': 2.39}, {'imgObject': {}, 'id': 'froot loops w milk', 'src': '/static/foodstim60/froot loops w milk.jpg', 'key': 'i', 'origWidth': 410, 'origHeight': 410, 'width': 410, 'height': 410, 'widthPercent': 0.45, 'rescaleHeight': False, 'trialN': 47, 'loaded': True, 'loadedTime': 4661.4000000059605, 'positionName': 'RIGHT', 'positionCoords': [1331.2, 515], 'bid': 2.28}]",114719.19999998808,1669829560559,salad w chicken,froot loops w milk,2.39,2.28,-0.11000000000000032,salad w chicken,1770.0,1770,1770.6000000238419,True,u,117000.90000000596,2281.7000000178814,1669829562840,2281,HRV,HRV_0034,2022-11-30 17:37:43
48,"[{'imgObject': {}, 'id': 'tacos', 'src': '/static/foodstim60/tacos.jpg', 'key': 'u', 'origWidth': 411, 'origHeight': 411, 'width': 411, 'height': 411, 'widthPercent': 0.45, 'rescaleHeight': False, 'trialN': 48, 'loaded': True, 'loadedTime': 3536.5, 'positionName': 'LEFT', 'positionCoords': [817.8, 514.5], 'bid': 3.45}, {'imgObject': {}, 'id': 'shreddedwheatwithmilk', 'src': '/static/foodstim60/shreddedwheatwithmilk.jpg', 'key': 'i', 'origWidth': 410, 'origHeight': 410, 'width': 410, 'height': 410, 'widthPercent': 0.45, 'rescaleHeight': False, 'trialN': 48, 'loaded': True, 'loadedTime': 4743, 'positionName': 'RIGHT', 'positionCoords': [1331.2, 515], 'bid': 3.25}]",117001.19999998808,1669829562841,tacos,shreddedwheatwithmilk,3.45,3.25,-0.20000000000000018,tacos,1791.7000000178814,1792,1792.1000000238419,True,u,119306.5,2305.300000011921,1669829565146,2305,HRV,HRV_0034,2022-11-30 17:37:43
49,"[{'imgObject': {}, 'id': 'mac & cheese', 'src': '/static/foodstim60/mac & cheese.jpg', 'key': 'u', 'origWidth': 410, 'origHeight': 410, 'width': 410, 'height': 410, 'widthPercent': 0.45, 'rescaleHeight': False, 'trialN': 49, 'loaded': True, 'loadedTime': 4541.4000000059605, 'positionName': 'LEFT', 'positionCoords': [818.8, 515], 'bid': 1.76}, {'imgObject': {}, 'id': 'popsicles', 'src': '/static/foodstim60/popsicles.jpg', 'key': 'i', 'origWidth': 410, 'origHeight': 410, 'width': 410, 'height': 410, 'widthPercent': 0.45, 'rescaleHeight': False, 'trialN': 49, 'loaded': True, 'loadedTime': 4833.5999999940395, 'positionName': 'RIGHT', 'positionCoords': [1331.2, 515], 'bid': 3.61}]",119306.59999999404,1669829565146,mac & cheese,popsicles,1.76,3.61,1.8499999999999999,popsicles,2326.0,2327,2326.300000011921,True,i,122141.90000000596,2835.300000011921,1669829567982,2836,HRV,HRV_0034,2022-11-30 17:37:43
50,"[{'imgObject': {}, 'id': 'banana', 'src': '/static/foodstim60/banana.jpg', 'key': 'u', 'origWidth': 410, 'origHeight': 410, 'width': 410, 'height': 410, 'widthPercent': 0.45, 'rescaleHeight': False, 'trialN': 50, 'loaded': True, 'loadedTime': 4745.199999988079, 'positionName': 'LEFT', 'positionCoords': [818.8, 515], 'bid': 5.6000000000000005}, {'imgObject': {}, 'id': 'eggs', 'src': '/static/foodstim60/eggs.jpg', 'key': 'i', 'origWidth': 409, 'origHeight': 409, 'width': 409, 'height': 409, 'widthPercent': 0.45, 'rescaleHeight': False, 'trialN': 50, 'loaded': True, 'loadedTime': 4611.699999988079, 'positionName': 'RIGHT', 'positionCoords': [1331.2, 515.5], 'bid': 4.53}]",122142.09999999404,1669829567982,banana,eggs,5.6000000000000005,4.53,-1.0700000000000003,eggs,2019.5,2020,2020.2000000178814,True,i,124670.30000001192,2528.2000000178814,1669829570510,2528,HRV,HRV_0034,2022-11-30 17:37:43
51,"[{'imgObject': {}, 'id': 'raspberries', 'src': '/static/foodstim60/raspberries.jpg', 'key': 'u', 'origWidth': 411, 'origHeight': 411, 'width': 411, 'height': 411, 'widthPercent': 0.45, 'rescaleHeight': False, 'trialN': 51, 'loaded': True, 'loadedTime': 4509.4000000059605, 'positionName': 'LEFT', 'positionCoords': [817.8, 514.5], 'bid': 7.42}, {'imgObject': {}, 'id': 'Grapes', 'src': '/static/foodstim60/Grapes.jpg', 'key': 'i', 'origWidth': 411, 'origHeight': 411, 'width': 411, 'height': 411, 'widthPercent': 0.45, 'rescaleHeight': False, 'trialN': 51, 'loaded': True, 'loadedTime': 4622, 'positionName': 'RIGHT', 'positionCoords': [1331.2, 514.5], 'bid': 7.35}]",124670.40000000596,1669829570510,raspberries,Grapes,7.42,7.35,-0.07000000000000028,raspberries,1546.7999999821186,1548,1547.5,True,u,126736.59999999404,2066.199999988079,1669829572576,2066,HRV,HRV_0034,2022-11-30 17:37:43
52,"[{'imgObject': {}, 'id': 'orange slices', 'src': '/static/foodstim60/orange slices.jpg', 'key': 'u', 'origWidth': 409, 'origHeight': 410, 'width': 409, 'height': 410, 'widthPercent': 0.45, 'rescaleHeight': False, 'trialN': 52, 'loaded': True, 'loadedTime': 4762, 'positionName': 'LEFT', 'positionCoords': [819.8, 515], 'bid': 6.82}, {'imgObject': {}, 'id': 'corn cob', 'src': '/static/foodstim60/corn cob.jpg', 'key': 'i', 'origWidth': 411, 'origHeight': 411, 'width': 411, 'height': 411, 'widthPercent': 0.45, 'rescaleHeight': False, 'trialN': 52, 'loaded': True, 'loadedTime': 4339.199999988079, 'positionName': 'RIGHT', 'positionCoords': [1331.2, 514.5], 'bid': 8.45}]",126737.0,1669829572577,orange slices,corn cob,6.82,8.45,1.629999999999999,corn cob,1031.9000000059605,1032,1032.300000011921,True,i,128284.59999999404,1547.5999999940395,1669829574124,1547,HRV,HRV_0034,2022-11-30 17:37:43
53,"[{'imgObject': {}, 'id': 'mashed potato', 'src': '/static/foodstim60/mashed potato.jpg', 'key': 'u', 'origWidth': 409, 'origHeight': 409, 'width': 409, 'height': 409, 'widthPercent': 0.45, 'rescaleHeight': False, 'trialN': 53, 'loaded': True, 'loadedTime': 3856.5, 'positionName': 'LEFT', 'positionCoords': [819.8, 515.5], 'bid': 2.74}, {'imgObject': {}, 'id': 'hashbrowns', 'src': '/static/foodstim60/hashbrowns.jpg', 'key': 'i', 'origWidth': 411, 'origHeight': 410, 'width': 411, 'height': 410, 'widthPercent': 0.45, 'rescaleHeight': False, 'trialN': 53, 'loaded': True, 'loadedTime': 3769.9000000059605, 'positionName': 'RIGHT', 'positionCoords': [1331.2, 515], 'bid': 2.46}]",128284.90000000596,1669829574124,mashed potato,hashbrowns,2.74,2.46,-0.28000000000000025,mashed potato,1443.699999988079,1444,1443.9000000059605,True,u,130233.30000001192,1948.4000000059605,1669829576073,1949,HRV,HRV_0034,2022-11-30 17:37:43
54,"[{'imgObject': {}, 'id': 'burger', 'src': '/static/foodstim60/burger.jpg', 'key': 'u', 'origWidth': 409, 'origHeight': 409, 'width': 409, 'height': 409, 'widthPercent': 0.45, 'rescaleHeight': False, 'trialN': 54, 'loaded': True, 'loadedTime': 3814.800000011921, 'positionName': 'LEFT', 'positionCoords': [819.8, 515.5], 'bid': 6.5}, {'imgObject': {}, 'id': 'avocado', 'src': '/static/foodstim60/avocado.jpg', 'key': 'i', 'origWidth': 409, 'origHeight': 409, 'width': 409, 'height': 409, 'widthPercent': 0.45, 'rescaleHeight': False, 'trialN': 54, 'loaded': True, 'loadedTime': 4764.5, 'positionName': 'RIGHT', 'positionCoords': [1331.2, 515.5], 'bid': 8.17}]",130233.59999999404,1669829576073,burger,avocado,6.5,8.17,1.67,avocado,1351.5999999940395,1352,1352.2000000178814,True,i,132098.40000000596,1864.800000011921,1669829577938,1865,HRV,HRV_0034,2022-11-30 17:37:43
55,"[{'imgObject': {}, 'id': 'baked potato', 'src': '/static/foodstim60/baked potato.jpg', 'key': 'u', 'origWidth': 409, 'origHeight': 410, 'width': 409, 'height': 410, 'widthPercent': 0.45, 'rescaleHeight': False, 'trialN': 55, 'loaded': True, 'loadedTime': 4773.9000000059605, 'positionName': 'LEFT', 'positionCoords': [819.8, 515], 'bid': 4.58}, {'imgObject': {}, 'id': 'salad w chicken', 'src': '/static/foodstim60/salad w chicken.jpg', 'key': 'i', 'origWidth': 411, 'origHeight': 411, 'width': 411, 'height': 411, 'widthPercent': 0.45, 'rescaleHeight': False, 'trialN': 55, 'loaded': True, 'loadedTime': 4097.800000011921, 'positionName': 'RIGHT', 'positionCoords': [1331.2, 514.5], 'bid': 2.39}]",132098.90000000596,1669829577939,baked potato,salad w chicken,4.58,2.39,-2.19,baked potato,1858.2999999821186,1859,1859.199999988079,True,u,134475.09999999404,2376.199999988079,1669829580315,2376,HRV,HRV_0034,2022-11-30 17:37:43
56,"[{'imgObject': {}, 'id': 'blueberries', 'src': '/static/foodstim60/blueberries.jpg', 'key': 'u', 'origWidth': 411, 'origHeight': 411, 'width': 411, 'height': 411, 'widthPercent': 0.45, 'rescaleHeight': False, 'trialN': 56, 'loaded': True, 'loadedTime': 4677.9000000059605, 'positionName': 'LEFT', 'positionCoords': [817.8, 514.5], 'bid': 8.09}, {'imgObject': {}, 'id': 'corn cob', 'src': '/static/foodstim60/corn cob.jpg', 'key': 'i', 'origWidth': 411, 'origHeight': 411, 'width': 411, 'height': 411, 'widthPercent': 0.45, 'rescaleHeight': False, 'trialN': 56, 'loaded': True, 'loadedTime': 4319, 'positionName': 'RIGHT', 'positionCoords': [1331.2, 514.5], 'bid': 8.45}]",134475.40000000596,1669829580315,blueberries,corn cob,8.09,8.45,0.35999999999999943,corn cob,1150.5,1151,1151.0999999940395,True,i,136137.5,1662.0999999940395,1669829581978,1663,HRV,HRV_0034,2022-11-30 17:37:43
57,"[{'imgObject': {}, 'id': 'burrito', 'src': '/static/foodstim60/burrito.jpg', 'key': 'u', 'origWidth': 410, 'origHeight': 410, 'width': 410, 'height': 410, 'widthPercent': 0.45, 'rescaleHeight': False, 'trialN': 57, 'loaded': True, 'loadedTime': 3754.5999999940395, 'positionName': 'LEFT', 'positionCoords': [818.8, 515], 'bid': 4.1}, {'imgObject': {}, 'id': 'cheerios', 'src': '/static/foodstim60/cheerios.jpg', 'key': 'i', 'origWidth': 409, 'origHeight': 410, 'width': 409, 'height': 410, 'widthPercent': 0.45, 'rescaleHeight': False, 'trialN': 57, 'loaded': True, 'loadedTime': 3494.800000011921, 'positionName': 'RIGHT', 'positionCoords': [1331.2, 515], 'bid': 1.92}]",136137.5,1669829581978,burrito,cheerios,4.1,1.92,-2.1799999999999997,burrito,1707.699999988079,1708,1708.5999999940395,True,u,138351.59999999404,2214.0999999940395,1669829584192,2214,HRV,HRV_0034,2022-11-30 17:37:43
58,"[{'imgObject': {}, 'id': 'strawberries', 'src': '/static/foodstim60/strawberries.jpg', 'key': 'u', 'origWidth': 410, 'origHeight': 410, 'width': 410, 'height': 410, 'widthPercent': 0.45, 'rescaleHeight': False, 'trialN': 58, 'loaded': True, 'loadedTime': 4776, 'positionName': 'LEFT', 'positionCoords': [818.8, 515], 'bid': 6.69}, {'imgObject': {}, 'id': 'cocktailshrimp', 'src': '/static/foodstim60/cocktailshrimp.jpg', 'key': 'i', 'origWidth': 410, 'origHeight': 410, 'width': 410, 'height': 410, 'widthPercent': 0.45, 'rescaleHeight': False, 'trialN': 58, 'loaded': True, 'loadedTime': 4717, 'positionName': 'RIGHT', 'positionCoords': [1331.2, 515], 'bid': 6.75}]",138351.90000000596,1669829584192,strawberries,cocktailshrimp,6.69,6.75,0.05999999999999961,strawberries,1909.2999999821186,1910,1910.0,True,u,140779.09999999404,2427.199999988079,1669829586619,2427,HRV,HRV_0034,2022-11-30 17:37:43
59,"[{'imgObject': {}, 'id': 'Grapes', 'src': '/static/foodstim60/Grapes.jpg', 'key': 'u', 'origWidth': 411, 'origHeight': 411, 'width': 411, 'height': 411, 'widthPercent': 0.45, 'rescaleHeight': False, 'trialN': 59, 'loaded': True, 'loadedTime': 4622.4000000059605, 'positionName': 'LEFT', 'positionCoords': [817.8, 514.5], 'bid': 7.35}, {'imgObject': {}, 'id': 'eggsalad', 'src': '/static/foodstim60/eggsalad.jpg', 'key': 'i', 'origWidth': 410, 'origHeight': 409, 'width': 410, 'height': 409, 'widthPercent': 0.45, 'rescaleHeight': False, 'trialN': 59, 'loaded': True, 'loadedTime': 3687.9000000059605, 'positionName': 'RIGHT', 'positionCoords': [1331.2, 515.5], 'bid': 3.99}]",140779.19999998808,1669829586619,Grapes,eggsalad,7.35,3.99,-3.3599999999999994,Grapes,1153.300000011921,1154,1153.6000000238419,True,u,142448.59999999404,1669.4000000059605,1669829588289,1670,HRV,HRV_0034,2022-11-30 17:37:43
60,"[{'imgObject': {}, 'id': 'chicken nuggets2', 'src': '/static/foodstim60/chicken nuggets2.jpg', 'key': 'u', 'origWidth': 410, 'origHeight': 409, 'width': 410, 'height': 409, 'widthPercent': 0.45, 'rescaleHeight': False, 'trialN': 60, 'loaded': True, 'loadedTime': 4588.800000011921, 'positionName': 'LEFT', 'positionCoords': [818.8, 515.5], 'bid': 4.64}, {'imgObject': {}, 'id': 'hashbrowns', 'src': '/static/foodstim60/hashbrowns.jpg', 'key': 'i', 'origWidth': 411, 'origHeight': 410, 'width': 411, 'height': 410, 'widthPercent': 0.45, 'rescaleHeight': False, 'trialN': 60, 'loaded': True, 'loadedTime': 3763.0999999940395, 'positionName': 'RIGHT', 'positionCoords': [1331.2, 515], 'bid': 2.46}]",142448.69999998808,1669829588289,chicken nuggets2,hashbrowns,4.64,2.46,-2.1799999999999997,chicken nuggets2,1900.4000000059605,1901,1901.2000000178814,True,u,144863.19999998808,2414.5,1669829590703,2414,HRV,HRV_0034,2022-11-30 17:37:43
61,"[{'imgObject': {}, 'id': 'cheerios', 'src': '/static/foodstim60/cheerios.jpg', 'key': 'u', 'origWidth': 409, 'origHeight': 410, 'width': 409, 'height': 410, 'widthPercent': 0.45, 'rescaleHeight': False, 'trialN': 61, 'loaded': True, 'loadedTime': 3508.5, 'positionName': 'LEFT', 'positionCoords': [819.8, 515], 'bid': 1.92}, {'imgObject': {}, 'id': 'raisin bran w milk', 'src': '/static/foodstim60/raisin bran w milk.jpg', 'key': 'i', 'origWidth': 411, 'origHeight': 411, 'width': 411, 'height': 411, 'widthPercent': 0.45, 'rescaleHeight': False, 'trialN': 61, 'loaded': True, 'loadedTime': 3659.0999999940395, 'positionName': 'RIGHT', 'positionCoords': [1331.2, 514.5], 'bid': 2.28}]",144863.5,1669829590704,cheerios,raisin bran w milk,1.92,2.28,0.3599999999999999,raisin bran w milk,1917.300000011921,1917,1917.5999999940395,True,i,147294.80000001192,2431.300000011921,1669829593135,2431,HRV,HRV_0034,2022-11-30 17:37:43
62,"[{'imgObject': {}, 'id': 'apple slices', 'src': '/static/foodstim60/apple slices.jpg', 'key': 'u', 'origWidth': 409, 'origHeight': 410, 'width': 409, 'height': 410, 'widthPercent': 0.45, 'rescaleHeight': False, 'trialN': 62, 'loaded': True, 'loadedTime': 3967.5999999940395, 'positionName': 'LEFT', 'positionCoords': [819.8, 515], 'bid': 5.32}, {'imgObject': {}, 'id': 'eggs', 'src': '/static/foodstim60/eggs.jpg', 'key': 'i', 'origWidth': 409, 'origHeight': 409, 'width': 409, 'height': 409, 'widthPercent': 0.45, 'rescaleHeight': False, 'trialN': 62, 'loaded': True, 'loadedTime': 4597.9000000059605, 'positionName': 'RIGHT', 'positionCoords': [1331.2, 515.5], 'bid': 4.53}]",147295.09999999404,1669829593135,apple slices,eggs,5.32,4.53,-0.79,eggs,1654.0999999940395,1655,1654.800000011921,True,i,149457.0,2161.9000000059605,1669829595297,2162,HRV,HRV_0034,2022-11-30 17:37:43
63,"[{'imgObject': {}, 'id': 'hashbrowns', 'src': '/static/foodstim60/hashbrowns.jpg', 'key': 'u', 'origWidth': 411, 'origHeight': 410, 'width': 411, 'height': 410, 'widthPercent': 0.45, 'rescaleHeight': False, 'trialN': 63, 'loaded': True, 'loadedTime': 3754.9000000059605, 'positionName': 'LEFT', 'positionCoords': [817.8, 515], 'bid': 2.46}, {'imgObject': {}, 'id': 'tacos', 'src': '/static/foodstim60/tacos.jpg', 'key': 'i', 'origWidth': 411, 'origHeight': 411, 'width': 411, 'height': 411, 'widthPercent': 0.45, 'rescaleHeight': False, 'trialN': 63, 'loaded': True, 'loadedTime': 3550.199999988079, 'positionName': 'RIGHT', 'positionCoords': [1331.2, 514.5], 'bid': 3.45}]",149457.19999998808,1669829595297,hashbrowns,tacos,2.46,3.45,0.9900000000000002,tacos,1540.0,1541,1540.6000000238419,True,i,151513.5,2056.300000011921,1669829597354,2057,HRV,HRV_0034,2022-11-30 17:37:43
64,"[{'imgObject': {}, 'id': 'grilled chicken strips', 'src': '/static/foodstim60/grilled chicken strips.jpg', 'key': 'u', 'origWidth': 410, 'origHeight': 411, 'width': 410, 'height': 411, 'widthPercent': 0.45, 'rescaleHeight': False, 'trialN': 64, 'loaded': True, 'loadedTime': 4784.699999988079, 'positionName': 'LEFT', 'positionCoords': [818.8, 514.5], 'bid': 7.18}, {'imgObject': {}, 'id': 'cantaloupe', 'src': '/static/foodstim60/cantaloupe.jpg', 'key': 'i', 'origWidth': 409, 'origHeight': 409, 'width': 409, 'height': 409, 'widthPercent': 0.45, 'rescaleHeight': False, 'trialN': 64, 'loaded': True, 'loadedTime': 3360.199999988079, 'positionName': 'RIGHT', 'positionCoords': [1331.2, 515.5], 'bid': 7.96}]",151513.59999999404,1669829597354,grilled chicken strips,cantaloupe,7.18,7.96,0.7800000000000002,cantaloupe,1283.5999999940395,1284,1284.2000000178814,True,i,153314.69999998808,1801.0999999940395,1669829599155,1801,HRV,HRV_0034,2022-11-30 17:37:43
65,"[{'imgObject': {}, 'id': 'granola w milk', 'src': '/static/foodstim60/granola w milk.jpg', 'key': 'u', 'origWidth': 410, 'origHeight': 410, 'width': 410, 'height': 410, 'widthPercent': 0.45, 'rescaleHeight': False, 'trialN': 65, 'loaded': True, 'loadedTime': 4823.800000011921, 'positionName': 'LEFT', 'positionCoords': [818.8, 515], 'bid': 2.62}, {'imgObject': {}, 'id': 'turkeysandwich', 'src': '/static/foodstim60/turkeysandwich.jpg', 'key': 'i', 'origWidth': 409, 'origHeight': 409, 'width': 409, 'height': 409, 'widthPercent': 0.45, 'rescaleHeight': False, 'trialN': 65, 'loaded': True, 'loadedTime': 3345.5999999940395, 'positionName': 'RIGHT', 'positionCoords': [1331.2, 515.5], 'bid': 4.76}]",153314.90000000596,1669829599155,granola w milk,turkeysandwich,2.62,4.76,2.1399999999999997,turkeysandwich,1929.7999999821186,1930,1930.0999999940395,True,i,155754.09999999404,2439.199999988079,1669829601594,2439,HRV,HRV_0034,2022-11-30 17:37:43
66,"[{'imgObject': {}, 'id': 'apple slices', 'src': '/static/foodstim60/apple slices.jpg', 'key': 'u', 'origWidth': 409, 'origHeight': 410, 'width': 409, 'height': 410, 'widthPercent': 0.45, 'rescaleHeight': False, 'trialN': 66, 'loaded': True, 'loadedTime': 3974.5999999940395, 'positionName': 'LEFT', 'positionCoords': [819.8, 515], 'bid': 5.32}, {'imgObject': {}, 'id': 'strawberries', 'src': '/static/foodstim60/strawberries.jpg', 'key': 'i', 'origWidth': 410, 'origHeight': 410, 'width': 410, 'height': 410, 'widthPercent': 0.45, 'rescaleHeight': False, 'trialN': 66, 'loaded': True, 'loadedTime': 4775.699999988079, 'positionName': 'RIGHT', 'positionCoords': [1331.2, 515], 'bid': 6.69}]",155754.5,1669829601595,apple slices,strawberries,5.32,6.69,1.37,strawberries,1738.5999999940395,1738,1738.9000000059605,True,i,158001.0,2246.5,1669829603841,2246,HRV,HRV_0034,2022-11-30 17:37:43
67,"[{'imgObject': {}, 'id': 'mac & cheese', 'src': '/static/foodstim60/mac & cheese.jpg', 'key': 'u', 'origWidth': 410, 'origHeight': 410, 'width': 410, 'height': 410, 'widthPercent': 0.45, 'rescaleHeight': False, 'trialN': 67, 'loaded': True, 'loadedTime': 4522.5, 'positionName': 'LEFT', 'positionCoords': [818.8, 515], 'bid': 1.76}, {'imgObject': {}, 'id': 'froot loops w milk', 'src': '/static/foodstim60/froot loops w milk.jpg', 'key': 'i', 'origWidth': 410, 'origHeight': 410, 'width': 410, 'height': 410, 'widthPercent': 0.45, 'rescaleHeight': False, 'trialN': 67, 'loaded': True, 'loadedTime': 4662, 'positionName': 'RIGHT', 'positionCoords': [1331.2, 515], 'bid': 2.28}]",158001.19999998808,1669829603841,mac & cheese,froot loops w milk,1.76,2.28,0.5199999999999998,mac & cheese,2196.0,2197,2196.600000023842,True,u,160705.80000001192,2704.600000023842,1669829606546,2705,HRV,HRV_0034,2022-11-30 17:37:43
68,"[{'imgObject': {}, 'id': 'pear', 'src': '/static/foodstim60/pear.jpg', 'key': 'u', 'origWidth': 411, 'origHeight': 410, 'width': 411, 'height': 410, 'widthPercent': 0.45, 'rescaleHeight': False, 'trialN': 68, 'loaded': True, 'loadedTime': 4826, 'positionName': 'LEFT', 'positionCoords': [817.8, 515], 'bid': 5.96}, {'imgObject': {}, 'id': 'baked potato', 'src': '/static/foodstim60/baked potato.jpg', 'key': 'i', 'origWidth': 409, 'origHeight': 410, 'width': 409, 'height': 410, 'widthPercent': 0.45, 'rescaleHeight': False, 'trialN': 68, 'loaded': True, 'loadedTime': 4765.9000000059605, 'positionName': 'RIGHT', 'positionCoords': [1331.2, 515], 'bid': 4.58}]",160706.30000001192,1669829606546,pear,baked potato,5.96,4.58,-1.38,pear,1742.8999999761581,1744,1743.5999999940395,True,u,162967.90000000596,2261.5999999940395,1669829608808,2262,HRV,HRV_0034,2022-11-30 17:37:43
69,"[{'imgObject': {}, 'id': 'fruitsalad', 'src': '/static/foodstim60/fruitsalad.jpg', 'key': 'u', 'origWidth': 410, 'origHeight': 410, 'width': 410, 'height': 410, 'widthPercent': 0.45, 'rescaleHeight': False, 'trialN': 69, 'loaded': True, 'loadedTime': 4392.199999988079, 'positionName': 'LEFT', 'positionCoords': [818.8, 515], 'bid': 6.42}, {'imgObject': {}, 'id': 'chickenfingers', 'src': '/static/foodstim60/chickenfingers.jpg', 'key': 'i', 'origWidth': 410, 'origHeight': 410, 'width': 410, 'height': 410, 'widthPercent': 0.45, 'rescaleHeight': False, 'trialN': 69, 'loaded': True, 'loadedTime': 3576.800000011921, 'positionName': 'RIGHT', 'positionCoords': [1331.2, 515], 'bid': 6.67}]",162968.09999999404,1669829608808,fruitsalad,chickenfingers,6.42,6.67,0.25,fruitsalad,1937.0999999940395,1938,1937.7000000178814,True,u,165415.30000001192,2447.2000000178814,1669829611255,2447,HRV,HRV_0034,2022-11-30 17:37:43
70,"[{'imgObject': {}, 'id': 'fried eggs', 'src': '/static/foodstim60/fried eggs.jpg', 'key': 'u', 'origWidth': 410, 'origHeight': 410, 'width': 410, 'height': 410, 'widthPercent': 0.45, 'rescaleHeight': False, 'trialN': 70, 'loaded': True, 'loadedTime': 4300.4000000059605, 'positionName': 'LEFT', 'positionCoords': [818.8, 515], 'bid': 3.62}, {'imgObject': {}, 'id': 'olives', 'src': '/static/foodstim60/olives.jpg', 'key': 'i', 'origWidth': 410, 'origHeight': 410, 'width': 410, 'height': 410, 'widthPercent': 0.45, 'rescaleHeight': False, 'trialN': 70, 'loaded': True, 'loadedTime': 4571.800000011921, 'positionName': 'RIGHT', 'positionCoords': [1331.2, 515], 'bid': 1.78}]",165415.5,1669829611256,fried eggs,olives,3.62,1.78,-1.84,fried eggs,1449.199999988079,1449,1449.4000000059605,True,u,167375.09999999404,1959.5999999940395,1669829613215,1959,HRV,HRV_0034,2022-11-30 17:37:43
71,"[{'imgObject': {}, 'id': 'pear', 'src': '/static/foodstim60/pear.jpg', 'key': 'u', 'origWidth': 411, 'origHeight': 410, 'width': 411, 'height': 410, 'widthPercent': 0.45, 'rescaleHeight': False, 'trialN': 71, 'loaded': True, 'loadedTime': 4825.4000000059605, 'positionName': 'LEFT', 'positionCoords': [817.8, 515], 'bid': 5.96}, {'imgObject': {}, 'id': 'burger', 'src': '/static/foodstim60/burger.jpg', 'key': 'i', 'origWidth': 409, 'origHeight': 409, 'width': 409, 'height': 409, 'widthPercent': 0.45, 'rescaleHeight': False, 'trialN': 71, 'loaded': True, 'loadedTime': 3827.699999988079, 'positionName': 'RIGHT', 'positionCoords': [1331.2, 515.5], 'bid': 6.5}]",167375.40000000596,1669829613215,pear,burger,5.96,6.5,0.54,burger,1722.199999988079,1723,1722.9000000059605,True,i,169616.09999999404,2240.699999988079,1669829615456,2241,HRV,HRV_0034,2022-11-30 17:37:43
72,"[{'imgObject': {}, 'id': 'avocado', 'src': '/static/foodstim60/avocado.jpg', 'key': 'u', 'origWidth': 409, 'origHeight': 409, 'width': 409, 'height': 409, 'widthPercent': 0.45, 'rescaleHeight': False, 'trialN': 72, 'loaded': True, 'loadedTime': 4763.9000000059605, 'positionName': 'LEFT', 'positionCoords': [819.8, 515.5], 'bid': 8.17}, {'imgObject': {}, 'id': 'blueberries', 'src': '/static/foodstim60/blueberries.jpg', 'key': 'i', 'origWidth': 411, 'origHeight': 411, 'width': 411, 'height': 411, 'widthPercent': 0.45, 'rescaleHeight': False, 'trialN': 72, 'loaded': True, 'loadedTime': 4678.199999988079, 'positionName': 'RIGHT', 'positionCoords': [1331.2, 514.5], 'bid': 8.09}]",169616.40000000596,1669829615456,avocado,blueberries,8.17,8.09,-0.08000000000000007,blueberries,1712.199999988079,1713,1712.4000000059605,True,i,171842.19999998808,2225.7999999821186,1669829617682,2226,HRV,HRV_0034,2022-11-30 17:37:43
73,"[{'imgObject': {}, 'id': 'fruitsalad', 'src': '/static/foodstim60/fruitsalad.jpg', 'key': 'u', 'origWidth': 410, 'origHeight': 410, 'width': 410, 'height': 410, 'widthPercent': 0.45, 'rescaleHeight': False, 'trialN': 73, 'loaded': True, 'loadedTime': 4391.800000011921, 'positionName': 'LEFT', 'positionCoords': [818.8, 515], 'bid': 6.42}, {'imgObject': {}, 'id': 'roastedpotatoes', 'src': '/static/foodstim60/roastedpotatoes.jpg', 'key': 'i', 'origWidth': 409, 'origHeight': 410, 'width': 409, 'height': 410, 'widthPercent': 0.45, 'rescaleHeight': False, 'trialN': 73, 'loaded': True, 'loadedTime': 3262.699999988079, 'positionName': 'RIGHT', 'positionCoords': [1331.2, 515], 'bid': 6.07}]",171842.69999998808,1669829617683,fruitsalad,roastedpotatoes,6.42,6.07,-0.34999999999999964,roastedpotatoes,1854.4000000059605,1855,1855.1000000238419,True,i,174211.69999998808,2369.0,1669829620052,2369,HRV,HRV_0034,2022-11-30 17:37:43
74,"[{'imgObject': {}, 'id': 'cheerios', 'src': '/static/foodstim60/cheerios.jpg', 'key': 'u', 'origWidth': 409, 'origHeight': 410, 'width': 409, 'height': 410, 'widthPercent': 0.45, 'rescaleHeight': False, 'trialN': 74, 'loaded': True, 'loadedTime': 3481.5999999940395, 'positionName': 'LEFT', 'positionCoords': [819.8, 515], 'bid': 1.92}, {'imgObject': {}, 'id': 'blackbeanswithrice', 'src': '/static/foodstim60/blackbeanswithrice.jpg', 'key': 'i', 'origWidth': 410, 'origHeight': 410, 'width': 410, 'height': 410, 'widthPercent': 0.45, 'rescaleHeight': False, 'trialN': 74, 'loaded': True, 'loadedTime': 4390.5999999940395, 'positionName': 'RIGHT', 'positionCoords': [1331.2, 515], 'bid': 1.1}]",174211.80000001192,1669829620052,cheerios,blackbeanswithrice,1.92,1.1,-0.8199999999999998,cheerios,1116.8999999761581,1117,1117.199999988079,True,u,175841.30000001192,1629.5,1669829621681,1629,HRV,HRV_0034,2022-11-30 17:37:43
75,"[{'imgObject': {}, 'id': 'mango', 'src': '/static/foodstim60/mango.jpg', 'key': 'u', 'origWidth': 411, 'origHeight': 411, 'width': 411, 'height': 411, 'widthPercent': 0.45, 'rescaleHeight': False, 'trialN': 75, 'loaded': True, 'loadedTime': 4181.199999988079, 'positionName': 'LEFT', 'positionCoords': [817.8, 514.5], 'bid': 7.18}, {'imgObject': {}, 'id': 'banana', 'src': '/static/foodstim60/banana.jpg', 'key': 'i', 'origWidth': 410, 'origHeight': 410, 'width': 410, 'height': 410, 'widthPercent': 0.45, 'rescaleHeight': False, 'trialN': 75, 'loaded': True, 'loadedTime': 4743.5999999940395, 'positionName': 'RIGHT', 'positionCoords': [1331.2, 515], 'bid': 5.6000000000000005}]",175841.40000000596,1669829621681,mango,banana,7.18,5.6000000000000005,-1.5799999999999992,mango,1287.699999988079,1289,1288.4000000059605,True,u,177640.5,1799.0999999940395,1669829623481,1800,HRV,HRV_0034,2022-11-30 17:37:43
76,"[{'imgObject': {}, 'id': 'avocado', 'src': '/static/foodstim60/avocado.jpg', 'key': 'u', 'origWidth': 409, 'origHeight': 409, 'width': 409, 'height': 409, 'widthPercent': 0.45, 'rescaleHeight': False, 'trialN': 76, 'loaded': True, 'loadedTime': 4762.699999988079, 'positionName': 'LEFT', 'positionCoords': [819.8, 515.5], 'bid': 8.17}, {'imgObject': {}, 'id': 'sweetpotato', 'src': '/static/foodstim60/sweetpotato.jpg', 'key': 'i', 'origWidth': 410, 'origHeight': 410, 'width': 410, 'height': 410, 'widthPercent': 0.45, 'rescaleHeight': False, 'trialN': 76, 'loaded': True, 'loadedTime': 4639.4000000059605, 'positionName': 'RIGHT', 'positionCoords': [1331.2, 515], 'bid': 7.26}]",177640.69999998808,1669829623481,avocado,sweetpotato,8.17,7.26,-0.9100000000000001,sweetpotato,1984.9000000059605,1986,1985.800000011921,True,i,180147.90000000596,2507.2000000178814,1669829625988,2507,HRV,HRV_0034,2022-11-30 17:37:43
77,"[{'imgObject': {}, 'id': 'banana', 'src': '/static/foodstim60/banana.jpg', 'key': 'u', 'origWidth': 410, 'origHeight': 410, 'width': 410, 'height': 410, 'widthPercent': 0.45, 'rescaleHeight': False, 'trialN': 77, 'loaded': True, 'loadedTime': 4745, 'positionName': 'LEFT', 'positionCoords': [818.8, 515], 'bid': 5.6000000000000005}, {'imgObject': {}, 'id': 'lox', 'src': '/static/foodstim60/lox.jpg', 'key': 'i', 'origWidth': 410, 'origHeight': 411, 'width': 410, 'height': 411, 'widthPercent': 0.45, 'rescaleHeight': False, 'trialN': 77, 'loaded': True, 'loadedTime': 3453.300000011921, 'positionName': 'RIGHT', 'positionCoords': [1331.2, 514.5], 'bid': 5.59}]",180148.30000001192,1669829625988,banana,lox,5.6000000000000005,5.59,-0.010000000000000675,lox,1884.7999999821186,1886,1885.5999999940395,True,i,182547.69999998808,2399.399999976158,1669829628388,2400,HRV,HRV_0034,2022-11-30 17:37:43
78,"[{'imgObject': {}, 'id': 'granola w milk', 'src': '/static/foodstim60/granola w milk.jpg', 'key': 'u', 'origWidth': 410, 'origHeight': 410, 'width': 410, 'height': 410, 'widthPercent': 0.45, 'rescaleHeight': False, 'trialN': 78, 'loaded': True, 'loadedTime': 4793.5, 'positionName': 'LEFT', 'positionCoords': [818.8, 515], 'bid': 2.62}, {'imgObject': {}, 'id': 'omelette', 'src': '/static/foodstim60/omelette.jpg', 'key': 'i', 'origWidth': 410, 'origHeight': 409, 'width': 410, 'height': 409, 'widthPercent': 0.45, 'rescaleHeight': False, 'trialN': 78, 'loaded': True, 'loadedTime': 4827.699999988079, 'positionName': 'RIGHT', 'positionCoords': [1331.2, 515.5], 'bid': 6.57}]",182548.0,1669829628388,granola w milk,omelette,2.62,6.57,3.95,omelette,1525.199999988079,1526,1526.0,True,i,184584.0,2036.0,1669829630424,2036,HRV,HRV_0034,2022-11-30 17:37:43
79,"[{'imgObject': {}, 'id': 'steak', 'src': '/static/foodstim60/steak.jpg', 'key': 'u', 'origWidth': 410, 'origHeight': 410, 'width': 410, 'height': 410, 'widthPercent': 0.45, 'rescaleHeight': False, 'trialN': 79, 'loaded': True, 'loadedTime': 4242.4000000059605, 'positionName': 'LEFT', 'positionCoords': [818.8, 515], 'bid': 8.73}, {'imgObject': {}, 'id': 'edamame', 'src': '/static/foodstim60/edamame.jpg', 'key': 'i', 'origWidth': 409, 'origHeight': 410, 'width': 409, 'height': 410, 'widthPercent': 0.45, 'rescaleHeight': False, 'trialN': 79, 'loaded': True, 'loadedTime': 3878.199999988079, 'positionName': 'RIGHT', 'positionCoords': [1331.2, 515], 'bid': 6.57}]",184584.19999998808,1669829630424,steak,edamame,8.73,6.57,-2.16,steak,1296.7000000178814,1297,1297.300000011921,True,u,186383.19999998808,1799.0,1669829632223,1799,HRV,HRV_0034,2022-11-30 17:37:43
80,"[{'imgObject': {}, 'id': 'granola w milk', 'src': '/static/foodstim60/granola w milk.jpg', 'key': 'u', 'origWidth': 410, 'origHeight': 410, 'width': 410, 'height': 410, 'widthPercent': 0.45, 'rescaleHeight': False, 'trialN': 80, 'loaded': True, 'loadedTime': 4800.800000011921, 'positionName': 'LEFT', 'positionCoords': [818.8, 515], 'bid': 2.62}, {'imgObject': {}, 'id': 'Tribe humus pita', 'src': '/static/foodstim60/Tribe humus pita.jpg', 'key': 'i', 'origWidth': 411, 'origHeight': 411, 'width': 411, 'height': 411, 'widthPercent': 0.45, 'rescaleHeight': False, 'trialN': 80, 'loaded': True, 'loadedTime': 4828.9000000059605, 'positionName': 'RIGHT', 'positionCoords': [1331.2, 514.5], 'bid': 1.53}]",186383.5,1669829632224,granola w milk,Tribe humus pita,2.62,1.53,-1.09,Tribe humus pita,1845.699999988079,1846,1846.199999988079,True,i,188738.90000000596,2355.4000000059605,1669829634579,2355,HRV,HRV_0034,2022-11-30 17:37:43
81,"[{'imgObject': {}, 'id': 'olives', 'src': '/static/foodstim60/olives.jpg', 'key': 'u', 'origWidth': 410, 'origHeight': 410, 'width': 410, 'height': 410, 'widthPercent': 0.45, 'rescaleHeight': False, 'trialN': 81, 'loaded': True, 'loadedTime': 4550.800000011921, 'positionName': 'LEFT', 'positionCoords': [818.8, 515], 'bid': 1.78}, {'imgObject': {}, 'id': 'veggieswithdip', 'src': '/static/foodstim60/veggieswithdip.jpg', 'key': 'i', 'origWidth': 409, 'origHeight': 409, 'width': 409, 'height': 409, 'widthPercent': 0.45, 'rescaleHeight': False, 'trialN': 81, 'loaded': True, 'loadedTime': 4831.5, 'positionName': 'RIGHT', 'positionCoords': [1331.2, 515.5], 'bid': 3.0500000000000003}]",188739.40000000596,1669829634579,olives,veggieswithdip,1.78,3.0500000000000003,1.2700000000000002,veggieswithdip,1898.199999988079,1899,1898.9000000059605,True,i,191152.5,2413.0999999940395,1669829636993,2414,HRV,HRV_0034,2022-11-30 17:37:43
82,"[{'imgObject': {}, 'id': 'lox', 'src': '/static/foodstim60/lox.jpg', 'key': 'u', 'origWidth': 410, 'origHeight': 411, 'width': 410, 'height': 411, 'widthPercent': 0.45, 'rescaleHeight': False, 'trialN': 82, 'loaded': True, 'loadedTime': 3466.800000011921, 'positionName': 'LEFT', 'positionCoords': [818.8, 514.5], 'bid': 5.59}, {'imgObject': {}, 'id': 'cherry tomato', 'src': '/static/foodstim60/cherry tomato.jpg', 'key': 'i', 'origWidth': 410, 'origHeight': 410, 'width': 410, 'height': 410, 'widthPercent': 0.45, 'rescaleHeight': False, 'trialN': 82, 'loaded': True, 'loadedTime': 3597.5, 'positionName': 'RIGHT', 'positionCoords': [1331.2, 515], 'bid': 4.13}]",191152.69999998808,1669829636993,lox,cherry tomato,5.59,4.13,-1.46,lox,2080.5,2081,2081.300000011921,True,u,193745.59999999404,2592.9000000059605,1669829639586,2593,HRV,HRV_0034,2022-11-30 17:37:43
83,"[{'imgObject': {}, 'id': 'cocktailshrimp', 'src': '/static/foodstim60/cocktailshrimp.jpg', 'key': 'u', 'origWidth': 410, 'origHeight': 410, 'width': 410, 'height': 410, 'widthPercent': 0.45, 'rescaleHeight': False, 'trialN': 83, 'loaded': True, 'loadedTime': 4709.0999999940395, 'positionName': 'LEFT', 'positionCoords': [818.8, 515], 'bid': 6.75}, {'imgObject': {}, 'id': 'avocado', 'src': '/static/foodstim60/avocado.jpg', 'key': 'i', 'origWidth': 409, 'origHeight': 409, 'width': 409, 'height': 409, 'widthPercent': 0.45, 'rescaleHeight': False, 'trialN': 83, 'loaded': True, 'loadedTime': 4764.199999988079, 'positionName': 'RIGHT', 'positionCoords': [1331.2, 515.5], 'bid': 8.17}]",193746.09999999404,1669829639586,cocktailshrimp,avocado,6.75,8.17,1.42,avocado,1387.0999999940395,1388,1387.800000011921,True,i,195646.40000000596,1900.300000011921,1669829641486,1900,HRV,HRV_0034,2022-11-30 17:37:43
84,"[{'imgObject': {}, 'id': 'Tribe humus pita', 'src': '/static/foodstim60/Tribe humus pita.jpg', 'key': 'u', 'origWidth': 411, 'origHeight': 411, 'width': 411, 'height': 411, 'widthPercent': 0.45, 'rescaleHeight': False, 'trialN': 84, 'loaded': True, 'loadedTime': 4829.300000011921, 'positionName': 'LEFT', 'positionCoords': [817.8, 514.5], 'bid': 1.53}, {'imgObject': {}, 'id': 'raisin bran w milk', 'src': '/static/foodstim60/raisin bran w milk.jpg', 'key': 'i', 'origWidth': 411, 'origHeight': 411, 'width': 411, 'height': 411, 'widthPercent': 0.45, 'rescaleHeight': False, 'trialN': 84, 'loaded': True, 'loadedTime': 3666.300000011921, 'positionName': 'RIGHT', 'positionCoords': [1331.2, 514.5], 'bid': 2.28}]",195646.5,1669829641487,Tribe humus pita,raisin bran w milk,1.53,2.28,0.7499999999999998,Tribe humus pita,1846.699999988079,1846,1847.4000000059605,True,u,198001.19999998808,2354.699999988079,1669829643841,2354,HRV,HRV_0034,2022-11-30 17:37:43
85,"[{'imgObject': {}, 'id': 'cantaloupe', 'src': '/static/foodstim60/cantaloupe.jpg', 'key': 'u', 'origWidth': 409, 'origHeight': 409, 'width': 409, 'height': 409, 'widthPercent': 0.45, 'rescaleHeight': False, 'trialN': 85, 'loaded': True, 'loadedTime': 3367.0999999940395, 'positionName': 'LEFT', 'positionCoords': [819.8, 515.5], 'bid': 7.96}, {'imgObject': {}, 'id': 'eggs', 'src': '/static/foodstim60/eggs.jpg', 'key': 'i', 'origWidth': 409, 'origHeight': 409, 'width': 409, 'height': 409, 'widthPercent': 0.45, 'rescaleHeight': False, 'trialN': 85, 'loaded': True, 'loadedTime': 4611.4000000059605, 'positionName': 'RIGHT', 'positionCoords': [1331.2, 515.5], 'bid': 4.53}]",198001.59999999404,1669829643841,cantaloupe,eggs,7.96,4.53,-3.4299999999999997,cantaloupe,1363.5999999940395,1364,1364.300000011921,True,u,199875.19999998808,1873.5999999940395,1669829645715,1874,HRV,HRV_0034,2022-11-30 17:37:43
86,"[{'imgObject': {}, 'id': 'froot loops w milk', 'src': '/static/foodstim60/froot loops w milk.jpg', 'key': 'u', 'origWidth': 410, 'origHeight': 410, 'width': 410, 'height': 410, 'widthPercent': 0.45, 'rescaleHeight': False, 'trialN': 86, 'loaded': True, 'loadedTime': 4660.0999999940395, 'positionName': 'LEFT', 'positionCoords': [818.8, 515], 'bid': 2.28}, {'imgObject': {}, 'id': 'kiwi', 'src': '/static/foodstim60/kiwi.jpg', 'key': 'i', 'origWidth': 410, 'origHeight': 410, 'width': 410, 'height': 410, 'widthPercent': 0.45, 'rescaleHeight': False, 'trialN': 86, 'loaded': True, 'loadedTime': 3415.4000000059605, 'positionName': 'RIGHT', 'positionCoords': [1331.2, 515], 'bid': 6.44}]",199875.5,1669829645715,froot loops w milk,kiwi,2.28,6.44,4.16,kiwi,1297.199999988079,1297,1297.4000000059605,True,i,201689.30000001192,1813.800000011921,1669829647529,1814,HRV,HRV_0034,2022-11-30 17:37:43
87,"[{'imgObject': {}, 'id': 'blueberries', 'src': '/static/foodstim60/blueberries.jpg', 'key': 'u', 'origWidth': 411, 'origHeight': 411, 'width': 411, 'height': 411, 'widthPercent': 0.45, 'rescaleHeight': False, 'trialN': 87, 'loaded': True, 'loadedTime': 4670.5, 'positionName': 'LEFT', 'positionCoords': [817.8, 514.5], 'bid': 8.09}, {'imgObject': {}, 'id': 'baked potato', 'src': '/static/foodstim60/baked potato.jpg', 'key': 'i', 'origWidth': 409, 'origHeight': 410, 'width': 409, 'height': 410, 'widthPercent': 0.45, 'rescaleHeight': False, 'trialN': 87, 'loaded': True, 'loadedTime': 4765.800000011921, 'positionName': 'RIGHT', 'positionCoords': [1331.2, 515], 'bid': 4.58}]",201689.40000000596,1669829647529,blueberries,baked potato,8.09,4.58,-3.51,blueberries,1627.199999988079,1627,1627.2999999821186,True,u,203836.40000000596,2147.0,1669829649676,2147,HRV,HRV_0034,2022-11-30 17:37:43
88,"[{'imgObject': {}, 'id': 'veggieswithdip', 'src': '/static/foodstim60/veggieswithdip.jpg', 'key': 'u', 'origWidth': 409, 'origHeight': 409, 'width': 409, 'height': 409, 'widthPercent': 0.45, 'rescaleHeight': False, 'trialN': 88, 'loaded': True, 'loadedTime': 4831, 'positionName': 'LEFT', 'positionCoords': [819.8, 515.5], 'bid': 3.0500000000000003}, {'imgObject': {}, 'id': 'rigatoni and sauce', 'src': '/static/foodstim60/rigatoni and sauce.jpg', 'key': 'i', 'origWidth': 410, 'origHeight': 411, 'width': 410, 'height': 411, 'widthPercent': 0.45, 'rescaleHeight': False, 'trialN': 88, 'loaded': True, 'loadedTime': 4159.300000011921, 'positionName': 'RIGHT', 'positionCoords': [1331.2, 514.5], 'bid': 3.79}]",203836.5,1669829649676,veggieswithdip,rigatoni and sauce,3.0500000000000003,3.79,0.7399999999999998,veggieswithdip,1944.699999988079,1946,1945.5999999940395,True,u,206295.0,2458.5,1669829652135,2459,HRV,HRV_0034,2022-11-30 17:37:43
89,"[{'imgObject': {}, 'id': 'baked potato', 'src': '/static/foodstim60/baked potato.jpg', 'key': 'u', 'origWidth': 409, 'origHeight': 410, 'width': 409, 'height': 410, 'widthPercent': 0.45, 'rescaleHeight': False, 'trialN': 89, 'loaded': True, 'loadedTime': 4764.699999988079, 'positionName': 'LEFT', 'positionCoords': [819.8, 515], 'bid': 4.58}, {'imgObject': {}, 'id': 'cherry tomato', 'src': '/static/foodstim60/cherry tomato.jpg', 'key': 'i', 'origWidth': 410, 'origHeight': 410, 'width': 410, 'height': 410, 'widthPercent': 0.45, 'rescaleHeight': False, 'trialN': 89, 'loaded': True, 'loadedTime': 3598.5999999940395, 'positionName': 'RIGHT', 'positionCoords': [1331.2, 515], 'bid': 4.13}]",206295.40000000596,1669829652135,baked potato,cherry tomato,4.58,4.13,-0.4500000000000002,cherry tomato,1733.699999988079,1735,1734.699999988079,True,i,208537.0,2241.5999999940395,1669829654376,2241,HRV,HRV_0034,2022-11-30 17:37:43
90,"[{'imgObject': {}, 'id': 'bagel and cc', 'src': '/static/foodstim60/bagel and cc.jpg', 'key': 'u', 'origWidth': 410, 'origHeight': 410, 'width': 410, 'height': 410, 'widthPercent': 0.45, 'rescaleHeight': False, 'trialN': 90, 'loaded': True, 'loadedTime': 4123.5999999940395, 'positionName': 'LEFT', 'positionCoords': [818.8, 515], 'bid': 5.28}, {'imgObject': {}, 'id': 'cherry tomato', 'src': '/static/foodstim60/cherry tomato.jpg', 'key': 'i', 'origWidth': 410, 'origHeight': 410, 'width': 410, 'height': 410, 'widthPercent': 0.45, 'rescaleHeight': False, 'trialN': 90, 'loaded': True, 'loadedTime': 3631.4000000059605, 'positionName': 'RIGHT', 'positionCoords': [1331.2, 515], 'bid': 4.13}]",227169.40000000596,1669829673009,bagel and cc,cherry tomato,5.28,4.13,-1.1500000000000004,bagel and cc,1703.699999988079,1704,1704.2999999821186,True,u,229375.30000001192,2205.9000000059605,1669829675215,2206,HRV,HRV_0034,2022-11-30 17:37:43
91,"[{'imgObject': {}, 'id': 'mashed potato', 'src': '/static/foodstim60/mashed potato.jpg', 'key': 'u', 'origWidth': 409, 'origHeight': 409, 'width': 409, 'height': 409, 'widthPercent': 0.45, 'rescaleHeight': False, 'trialN': 91, 'loaded': True, 'loadedTime': 3856.699999988079, 'positionName': 'LEFT', 'positionCoords': [819.8, 515.5], 'bid': 2.74}, {'imgObject': {}, 'id': 'veggieswithdip', 'src': '/static/foodstim60/veggieswithdip.jpg', 'key': 'i', 'origWidth': 409, 'origHeight': 409, 'width': 409, 'height': 409, 'widthPercent': 0.45, 'rescaleHeight': False, 'trialN': 91, 'loaded': True, 'loadedTime': 4830.9000000059605, 'positionName': 'RIGHT', 'positionCoords': [1331.2, 515.5], 'bid': 3.0500000000000003}]",229375.59999999404,1669829675215,mashed potato,veggieswithdip,2.74,3.0500000000000003,0.31000000000000005,veggieswithdip,1505.5999999940395,1506,1506.0999999940395,True,i,231395.90000000596,2020.300000011921,1669829677235,2020,HRV,HRV_0034,2022-11-30 17:37:43
92,"[{'imgObject': {}, 'id': 'cherry tomato', 'src': '/static/foodstim60/cherry tomato.jpg', 'key': 'u', 'origWidth': 410, 'origHeight': 410, 'width': 410, 'height': 410, 'widthPercent': 0.45, 'rescaleHeight': False, 'trialN': 92, 'loaded': True, 'loadedTime': 3617.5999999940395, 'positionName': 'LEFT', 'positionCoords': [818.8, 515], 'bid': 4.13}, {'imgObject': {}, 'id': 'raspberries', 'src': '/static/foodstim60/raspberries.jpg', 'key': 'i', 'origWidth': 411, 'origHeight': 411, 'width': 411, 'height': 411, 'widthPercent': 0.45, 'rescaleHeight': False, 'trialN': 92, 'loaded': True, 'loadedTime': 4521.800000011921, 'positionName': 'RIGHT', 'positionCoords': [1331.2, 514.5], 'bid': 7.42}]",231396.19999998808,1669829677236,cherry tomato,raspberries,4.13,7.42,3.29,raspberries,1332.6000000238419,1333,1332.9000000059605,True,i,233237.0,1840.800000011921,1669829679076,1840,HRV,HRV_0034,2022-11-30 17:37:43
93,"[{'imgObject': {}, 'id': 'orange slices', 'src': '/static/foodstim60/orange slices.jpg', 'key': 'u', 'origWidth': 409, 'origHeight': 410, 'width': 409, 'height': 410, 'widthPercent': 0.45, 'rescaleHeight': False, 'trialN': 93, 'loaded': True, 'loadedTime': 4762.4000000059605, 'positionName': 'LEFT', 'positionCoords': [819.8, 515], 'bid': 6.82}, {'imgObject': {}, 'id': 'mango', 'src': '/static/foodstim60/mango.jpg', 'key': 'i', 'origWidth': 411, 'origHeight': 411, 'width': 411, 'height': 411, 'widthPercent': 0.45, 'rescaleHeight': False, 'trialN': 93, 'loaded': True, 'loadedTime': 4207, 'positionName': 'RIGHT', 'positionCoords': [1331.2, 514.5], 'bid': 7.18}]",233237.09999999404,1669829679077,orange slices,mango,6.82,7.18,0.35999999999999943,mango,1332.0999999940395,1332,1332.5999999940395,True,i,235082.0,1844.9000000059605,1669829680922,1845,HRV,HRV_0034,2022-11-30 17:37:43
94,"[{'imgObject': {}, 'id': 'tacos', 'src': '/static/foodstim60/tacos.jpg', 'key': 'u', 'origWidth': 411, 'origHeight': 411, 'width': 411, 'height': 411, 'widthPercent': 0.45, 'rescaleHeight': False, 'trialN': 94, 'loaded': True, 'loadedTime': 3516.699999988079, 'positionName': 'LEFT', 'positionCoords': [817.8, 514.5], 'bid': 3.45}, {'imgObject': {}, 'id': 'Tribe humus pita', 'src': '/static/foodstim60/Tribe humus pita.jpg', 'key': 'i', 'origWidth': 411, 'origHeight': 411, 'width': 411, 'height': 411, 'widthPercent': 0.45, 'rescaleHeight': False, 'trialN': 94, 'loaded': True, 'loadedTime': 4829.199999988079, 'positionName': 'RIGHT', 'positionCoords': [1331.2, 514.5], 'bid': 1.53}]",235082.40000000596,1669829680922,tacos,Tribe humus pita,3.45,1.53,-1.9200000000000002,tacos,1486.699999988079,1487,1487.2999999821186,True,u,237072.59999999404,1990.199999988079,1669829682912,1990,HRV,HRV_0034,2022-11-30 17:37:43
95,"[{'imgObject': {}, 'id': 'cherries', 'src': '/static/foodstim60/cherries.jpg', 'key': 'u', 'origWidth': 410, 'origHeight': 411, 'width': 410, 'height': 411, 'widthPercent': 0.45, 'rescaleHeight': False, 'trialN': 95, 'loaded': True, 'loadedTime': 4241, 'positionName': 'LEFT', 'positionCoords': [818.8, 514.5], 'bid': 7.36}, {'imgObject': {}, 'id': 'cantaloupe', 'src': '/static/foodstim60/cantaloupe.jpg', 'key': 'i', 'origWidth': 409, 'origHeight': 409, 'width': 409, 'height': 409, 'widthPercent': 0.45, 'rescaleHeight': False, 'trialN': 95, 'loaded': True, 'loadedTime': 3352.5999999940395, 'positionName': 'RIGHT', 'positionCoords': [1331.2, 515.5], 'bid': 7.96}]",237072.90000000596,1669829682912,cherries,cantaloupe,7.36,7.96,0.5999999999999996,cantaloupe,1432.699999988079,1434,1433.2999999821186,True,i,239020.5,1947.5999999940395,1669829684860,1948,HRV,HRV_0034,2022-11-30 17:37:43
96,"[{'imgObject': {}, 'id': 'Grapes', 'src': '/static/foodstim60/Grapes.jpg', 'key': 'u', 'origWidth': 411, 'origHeight': 411, 'width': 411, 'height': 411, 'widthPercent': 0.45, 'rescaleHeight': False, 'trialN': 96, 'loaded': True, 'loadedTime': 4621.9000000059605, 'positionName': 'LEFT', 'positionCoords': [817.8, 514.5], 'bid': 7.35}, {'imgObject': {}, 'id': 'burger', 'src': '/static/foodstim60/burger.jpg', 'key': 'i', 'origWidth': 409, 'origHeight': 409, 'width': 409, 'height': 409, 'widthPercent': 0.45, 'rescaleHeight': False, 'trialN': 96, 'loaded': True, 'loadedTime': 3807.5999999940395, 'positionName': 'RIGHT', 'positionCoords': [1331.2, 515.5], 'bid': 6.5}]",239020.69999998808,1669829684860,Grapes,burger,7.35,6.5,-0.8499999999999996,Grapes,1548.5,1549,1549.2000000178814,True,u,241073.0,2052.300000011921,1669829686913,2053,HRV,HRV_0034,2022-11-30 17:37:43
97,"[{'imgObject': {}, 'id': 'froot loops w milk', 'src': '/static/foodstim60/froot loops w milk.jpg', 'key': 'u', 'origWidth': 410, 'origHeight': 410, 'width': 410, 'height': 410, 'widthPercent': 0.45, 'rescaleHeight': False, 'trialN': 97, 'loaded': True, 'loadedTime': 4661.699999988079, 'positionName': 'LEFT', 'positionCoords': [818.8, 515], 'bid': 2.28}, {'imgObject': {}, 'id': 'eggs', 'src': '/static/foodstim60/eggs.jpg', 'key': 'i', 'origWidth': 409, 'origHeight': 409, 'width': 409, 'height': 409, 'widthPercent': 0.45, 'rescaleHeight': False, 'trialN': 97, 'loaded': True, 'loadedTime': 4598.199999988079, 'positionName': 'RIGHT', 'positionCoords': [1331.2, 515.5], 'bid': 4.53}]",241073.30000001192,1669829686913,froot loops w milk,eggs,2.28,4.53,2.2500000000000004,eggs,1319.2999999821186,1319,1319.3999999761581,True,i,242906.19999998808,1832.8999999761581,1669829688746,1833,HRV,HRV_0034,2022-11-30 17:37:43
98,"[{'imgObject': {}, 'id': 'salmon', 'src': '/static/foodstim60/salmon.jpg', 'key': 'u', 'origWidth': 410, 'origHeight': 409, 'width': 410, 'height': 409, 'widthPercent': 0.45, 'rescaleHeight': False, 'trialN': 98, 'loaded': True, 'loadedTime': 4726.4000000059605, 'positionName': 'LEFT', 'positionCoords': [818.8, 515.5], 'bid': 6.47}, {'imgObject': {}, 'id': 'kiwi', 'src': '/static/foodstim60/kiwi.jpg', 'key': 'i', 'origWidth': 410, 'origHeight': 410, 'width': 410, 'height': 410, 'widthPercent': 0.45, 'rescaleHeight': False, 'trialN': 98, 'loaded': True, 'loadedTime': 3429.699999988079, 'positionName': 'RIGHT', 'positionCoords': [1331.2, 515], 'bid': 6.44}]",242906.80000001192,1669829688746,salmon,kiwi,6.47,6.44,-0.02999999999999936,salmon,1894.3999999761581,1895,1895.0,True,u,245317.69999998808,2410.899999976158,1669829691157,2411,HRV,HRV_0034,2022-11-30 17:37:43
99,"[{'imgObject': {}, 'id': 'rigatoni', 'src': '/static/foodstim60/rigatoni.jpg', 'key': 'u', 'origWidth': 411, 'origHeight': 411, 'width': 411, 'height': 411, 'widthPercent': 0.45, 'rescaleHeight': False, 'trialN': 99, 'loaded': True, 'loadedTime': 4362.0999999940395, 'positionName': 'LEFT', 'positionCoords': [817.8, 514.5], 'bid': 0.87}, {'imgObject': {}, 'id': 'hotdog w must', 'src': '/static/foodstim60/hotdog w must.jpg', 'key': 'i', 'origWidth': 409, 'origHeight': 409, 'width': 409, 'height': 409, 'widthPercent': 0.45, 'rescaleHeight': False, 'trialN': 99, 'loaded': True, 'loadedTime': 4082.800000011921, 'positionName': 'RIGHT', 'positionCoords': [1331.2, 515.5], 'bid': 0.95}]",245318.19999998808,1669829691158,rigatoni,hotdog w must,0.87,0.95,0.07999999999999996,rigatoni,962.4000000059605,962,962.6000000238419,True,u,246785.59999999404,1467.4000000059605,1669829692625,1467,HRV,HRV_0034,2022-11-30 17:37:43
100,"[{'imgObject': {}, 'id': 'yogurt no spoon', 'src': '/static/foodstim60/yogurt no spoon.jpg', 'key': 'u', 'origWidth': 411, 'origHeight': 410, 'width': 411, 'height': 410, 'widthPercent': 0.45, 'rescaleHeight': False, 'trialN': 100, 'loaded': True, 'loadedTime': 3994.0999999940395, 'positionName': 'LEFT', 'positionCoords': [817.8, 515], 'bid': 5.21}, {'imgObject': {}, 'id': 'steak', 'src': '/static/foodstim60/steak.jpg', 'key': 'i', 'origWidth': 410, 'origHeight': 410, 'width': 410, 'height': 410, 'widthPercent': 0.45, 'rescaleHeight': False, 'trialN': 100, 'loaded': True, 'loadedTime': 4256.0999999940395, 'positionName': 'RIGHT', 'positionCoords': [1331.2, 515], 'bid': 8.73}]",246785.80000001192,1669829692625,yogurt no spoon,steak,5.21,8.73,3.5200000000000005,steak,1139.0,1140,1139.3999999761581,True,i,248431.40000000596,1645.5999999940395,1669829694271,1646,HRV,HRV_0034,2022-11-30 17:37:43
101,"[{'imgObject': {}, 'id': 'corn cob', 'src': '/static/foodstim60/corn cob.jpg', 'key': 'u', 'origWidth': 411, 'origHeight': 411, 'width': 411, 'height': 411, 'widthPercent': 0.45, 'rescaleHeight': False, 'trialN': 101, 'loaded': True, 'loadedTime': 4346.5, 'positionName': 'LEFT', 'positionCoords': [817.8, 514.5], 'bid': 8.45}, {'imgObject': {}, 'id': 'steak', 'src': '/static/foodstim60/steak.jpg', 'key': 'i', 'origWidth': 410, 'origHeight': 410, 'width': 410, 'height': 410, 'widthPercent': 0.45, 'rescaleHeight': False, 'trialN': 101, 'loaded': True, 'loadedTime': 4242.5, 'positionName': 'RIGHT', 'positionCoords': [1331.2, 515], 'bid': 8.73}]",248431.80000001192,1669829694271,corn cob,steak,8.45,8.73,0.28000000000000114,corn cob,1053.8999999761581,1055,1054.3999999761581,True,u,249995.09999999404,1563.2999999821186,1669829695835,1564,HRV,HRV_0034,2022-11-30 17:37:43
102,"[{'imgObject': {}, 'id': 'lox', 'src': '/static/foodstim60/lox.jpg', 'key': 'u', 'origWidth': 410, 'origHeight': 411, 'width': 410, 'height': 411, 'widthPercent': 0.45, 'rescaleHeight': False, 'trialN': 102, 'loaded': True, 'loadedTime': 3445.199999988079, 'positionName': 'LEFT', 'positionCoords': [818.8, 514.5], 'bid': 5.59}, {'imgObject': {}, 'id': 'grilled chicken strips', 'src': '/static/foodstim60/grilled chicken strips.jpg', 'key': 'i', 'origWidth': 410, 'origHeight': 411, 'width': 410, 'height': 411, 'widthPercent': 0.45, 'rescaleHeight': False, 'trialN': 102, 'loaded': True, 'loadedTime': 4784.9000000059605, 'positionName': 'RIGHT', 'positionCoords': [1331.2, 514.5], 'bid': 7.18}]",249995.30000001192,1669829695835,lox,grilled chicken strips,5.59,7.18,1.5899999999999999,lox,2097.899999976158,2098,2098.399999976158,True,u,252598.19999998808,2602.899999976158,1669829698438,2603,HRV,HRV_0034,2022-11-30 17:37:43
103,"[{'imgObject': {}, 'id': 'banana', 'src': '/static/foodstim60/banana.jpg', 'key': 'u', 'origWidth': 410, 'origHeight': 410, 'width': 410, 'height': 410, 'widthPercent': 0.45, 'rescaleHeight': False, 'trialN': 103, 'loaded': True, 'loadedTime': 4745.4000000059605, 'positionName': 'LEFT', 'positionCoords': [818.8, 515], 'bid': 5.6000000000000005}, {'imgObject': {}, 'id': 'yogurt no spoon', 'src': '/static/foodstim60/yogurt no spoon.jpg', 'key': 'i', 'origWidth': 411, 'origHeight': 410, 'width': 411, 'height': 410, 'widthPercent': 0.45, 'rescaleHeight': False, 'trialN': 103, 'loaded': True, 'loadedTime': 3981.4000000059605, 'positionName': 'RIGHT', 'positionCoords': [1331.2, 515], 'bid': 5.21}]",252598.59999999404,1669829698438,banana,yogurt no spoon,5.6000000000000005,5.21,-0.39000000000000057,yogurt no spoon,1798.5999999940395,1799,1799.300000011921,True,i,254905.90000000596,2307.300000011921,1669829700745,2307,HRV,HRV_0034,2022-11-30 17:37:43
104,"[{'imgObject': {}, 'id': 'avocado', 'src': '/static/foodstim60/avocado.jpg', 'key': 'u', 'origWidth': 409, 'origHeight': 409, 'width': 409, 'height': 409, 'widthPercent': 0.45, 'rescaleHeight': False, 'trialN': 104, 'loaded': True, 'loadedTime': 4764.0999999940395, 'positionName': 'LEFT', 'positionCoords': [819.8, 515.5], 'bid': 8.17}, {'imgObject': {}, 'id': 'chicken nuggets2', 'src': '/static/foodstim60/chicken nuggets2.jpg', 'key': 'i', 'origWidth': 410, 'origHeight': 409, 'width': 410, 'height': 409, 'widthPercent': 0.45, 'rescaleHeight': False, 'trialN': 104, 'loaded': True, 'loadedTime': 4589, 'positionName': 'RIGHT', 'positionCoords': [1331.2, 515.5], 'bid': 4.64}]",254906.09999999404,1669829700746,avocado,chicken nuggets2,8.17,4.64,-3.5300000000000002,avocado,1387.0999999940395,1388,1388.0999999940395,True,u,256802.90000000596,1896.800000011921,1669829702642,1896,HRV,HRV_0034,2022-11-30 17:37:43
105,"[{'imgObject': {}, 'id': 'sweetpotato', 'src': '/static/foodstim60/sweetpotato.jpg', 'key': 'u', 'origWidth': 410, 'origHeight': 410, 'width': 410, 'height': 410, 'widthPercent': 0.45, 'rescaleHeight': False, 'trialN': 105, 'loaded': True, 'loadedTime': 4622.5999999940395, 'positionName': 'LEFT', 'positionCoords': [818.8, 515], 'bid': 7.26}, {'imgObject': {}, 'id': 'pear', 'src': '/static/foodstim60/pear.jpg', 'key': 'i', 'origWidth': 411, 'origHeight': 410, 'width': 411, 'height': 410, 'widthPercent': 0.45, 'rescaleHeight': False, 'trialN': 105, 'loaded': True, 'loadedTime': 4825.199999988079, 'positionName': 'RIGHT', 'positionCoords': [1331.2, 515], 'bid': 5.96}]",256803.09999999404,1669829702643,sweetpotato,pear,7.26,5.96,-1.2999999999999998,sweetpotato,1466.0999999940395,1466,1466.7000000178814,True,u,258779.69999998808,1976.5999999940395,1669829704619,1976,HRV,HRV_0034,2022-11-30 17:37:43
106,"[{'imgObject': {}, 'id': 'sushi w_condiments', 'src': '/static/foodstim60/sushi w_condiments.jpg', 'key': 'u', 'origWidth': 410, 'origHeight': 410, 'width': 410, 'height': 410, 'widthPercent': 0.45, 'rescaleHeight': False, 'trialN': 106, 'loaded': True, 'loadedTime': 4292, 'positionName': 'LEFT', 'positionCoords': [818.8, 515], 'bid': 5.57}, {'imgObject': {}, 'id': 'Tribe humus pita', 'src': '/static/foodstim60/Tribe humus pita.jpg', 'key': 'i', 'origWidth': 411, 'origHeight': 411, 'width': 411, 'height': 411, 'widthPercent': 0.45, 'rescaleHeight': False, 'trialN': 106, 'loaded': True, 'loadedTime': 4827.9000000059605, 'positionName': 'RIGHT', 'positionCoords': [1331.2, 514.5], 'bid': 1.53}]",258779.90000000596,1669829704619,sushi w_condiments,Tribe humus pita,5.57,1.53,-4.04,sushi w_condiments,1762.0,1763,1762.4000000059605,True,u,261046.59999999404,2266.699999988079,1669829706886,2267,HRV,HRV_0034,2022-11-30 17:37:43
107,"[{'imgObject': {}, 'id': 'apple slices', 'src': '/static/foodstim60/apple slices.jpg', 'key': 'u', 'origWidth': 409, 'origHeight': 410, 'width': 409, 'height': 410, 'widthPercent': 0.45, 'rescaleHeight': False, 'trialN': 107, 'loaded': True, 'loadedTime': 3941.5, 'positionName': 'LEFT', 'positionCoords': [819.8, 515], 'bid': 5.32}, {'imgObject': {}, 'id': 'bagel and cc', 'src': '/static/foodstim60/bagel and cc.jpg', 'key': 'i', 'origWidth': 410, 'origHeight': 410, 'width': 410, 'height': 410, 'widthPercent': 0.45, 'rescaleHeight': False, 'trialN': 107, 'loaded': True, 'loadedTime': 4125, 'positionName': 'RIGHT', 'positionCoords': [1331.2, 515], 'bid': 5.28}]",261046.90000000596,1669829706886,apple slices,bagel and cc,5.32,5.28,-0.040000000000000036,bagel and cc,1806.2999999821186,1807,1806.9000000059605,True,i,263369.5,2322.5999999940395,1669829709209,2323,HRV,HRV_0034,2022-11-30 17:37:43
108,"[{'imgObject': {}, 'id': 'raspberries', 'src': '/static/foodstim60/raspberries.jpg', 'key': 'u', 'origWidth': 411, 'origHeight': 411, 'width': 411, 'height': 411, 'widthPercent': 0.45, 'rescaleHeight': False, 'trialN': 108, 'loaded': True, 'loadedTime': 4522.0999999940395, 'positionName': 'LEFT', 'positionCoords': [817.8, 514.5], 'bid': 7.42}, {'imgObject': {}, 'id': 'edamame', 'src': '/static/foodstim60/edamame.jpg', 'key': 'i', 'origWidth': 409, 'origHeight': 410, 'width': 409, 'height': 410, 'widthPercent': 0.45, 'rescaleHeight': False, 'trialN': 108, 'loaded': True, 'loadedTime': 3885.5999999940395, 'positionName': 'RIGHT', 'positionCoords': [1331.2, 515], 'bid': 6.57}]",263370.0,1669829709209,raspberries,edamame,7.42,6.57,-0.8499999999999996,raspberries,1563.199999988079,1564,1563.800000011921,True,u,265440.8000000119,2070.800000011921,1669829711280,2071,HRV,HRV_0034,2022-11-30 17:37:43
