Answer,C_Pay,Question,QuestionNum,jitter,C_Trial,C_QPresent,trialEvents,rsp,C_SWK,C_SWK_rt,C_TrialEnd,C_AnswerPresent,C_WorthPresent,C_Worth,C_Worth_rt,exp,subjectId,date
over 10 billion donuts. ,5,How many donuts are concumed in the US every year?,463,0.504,0,2461.5999999940395,"[{'event': 'fullscreenchange', 'details': 'fullscreenexit', 'performance time': 3126.2000000029802, 'date time': 1669838202924}]",q,S,1788.9000000059605,5285.5999999940395,,,,,HRV,HRV_0272,2022-11-30 20:06:44
Saffron,2,What is the most expensive spice (by weight) in the world?,431,0.511,1,5285.70000000298,,p,K,2425.699999988079,8729.09999999404,,,,,HRV,HRV_0272,2022-11-30 20:06:44
popscicle,5,What food was invented by an 11 year old in 1905?,450,1.307,2,8729.20000000298,,p,K,2408.0999999940395,12958.39999999106,,,,,HRV,HRV_0272,2022-11-30 20:06:44
Apple sauce,3,What was the first food eaten in space?,435,0.563,3,12958.5,,p,K,1640.7999999970198,15685.39999999106,,,,,HRV,HRV_0272,2022-11-30 20:06:44
Latex. This is known as the latex-fruit syndrome. ,1,Allergy to which material is associated with allergy to fruit such as papaya and banana? ,462,1.475,4,15685.39999999106,,p,K,1510.1000000089407,19188.79999999702,,,,,HRV,HRV_0272,2022-11-30 20:06:44
Violin,3,What instrument was invented to sound like a human singing? ,189,1.835,5,19188.89999999106,,p,K,1662.6000000089407,23205.39999999106,,,,,HRV,HRV_0272,2022-11-30 20:06:44
Gecko,2,What is the only type of lizard that has a voice? ,213,0.974,6,23205.39999999106,"[{'event': 'onblur', 'details': 'out of focus', 'performance time': 26073.29999999702, 'date time': 1669838225871}]",,,,32731.39999999106,,,,,HRV,HRV_0272,2022-11-30 20:06:44
Lightning strike,4,Carnivorous animals will not eat another animal that has been killed by what means?,29,0.958,7,32731.5,,,,,42261.5,,,,,HRV,HRV_0272,2022-11-30 20:06:44
"The code is ""SUX"" ",7,Why has Sioux Falls Regional Airport in South Dakota been trying to change its three-letter airport designation for years?,392,0.721,8,42261.5,,,,,51789.20000000298,,,,,HRV,HRV_0272,2022-11-30 20:06:44
South Africa,1,In what country was the largest rough diamond ever discovered?,62,1.888,9,51789.20000000298,,,,,61321.20000000298,,,,,HRV,HRV_0272,2022-11-30 20:06:44
The I Ching,4,"Pink Floyd's ""Chapter 24"" was inspired by what literary work?",80,1.587,10,61321.20000000298,"[{'event': 'onfocus', 'details': 'in focus', 'performance time': 68141.29999999702, 'date time': 1669838267938}]",,,,70842.39999999106,,,,,HRV,HRV_0272,2022-11-30 20:06:44
Rafflesia (corpse lily) ,1,What is the largest flower in the world? ,204,1.403,11,70842.5,,p,K,2171.0999999940395,74947.79999999702,,,,,HRV,HRV_0272,2022-11-30 20:06:44
citrus fruit (scurvy is caused by a lack of vitamin c),4,Sailors used to suffer from a horrible illness called scurvy. Which food prevents scurvy?,441,1.127,12,74947.79999999702,,p,K,2800.2999999970198,79398.20000000298,,,,,HRV,HRV_0272,2022-11-30 20:06:44
Sunrise or sunset,7,"When is the optical phenomenon called a ""green flash"" or ""green ray"" visible?  ",313,0.508,13,79398.20000000298,,p,K,1813.7999999970198,82230.79999999702,,,,,HRV,HRV_0272,2022-11-30 20:06:44
"the Red Hot Chili Peppers, followed closely by Meatloaf",1,Some bands share a name with a food. Which band named after a foodstuff has sold the most records?,439,1.265,14,82230.79999999702,"[{'event': 'onblur', 'details': 'out of focus', 'performance time': 82559.79999999702, 'date time': 1669838282357}, {'event': 'onfocus', 'details': 'in focus', 'performance time': 91751.89999999106, 'date time': 1669838291549}]",,,,91752.29999999702,,,,,HRV,HRV_0272,2022-11-30 20:06:44
The Stanley Cup ,2,Where is Jacques Plante's name misspelled five of the six times it appears? ,318,1.007,15,91752.39999999106,,p,K,1665.2000000029802,94943.20000000298,,,,,HRV,HRV_0272,2022-11-30 20:06:44
Bolivia,1,"Of all the countries named for a person, which country is named for the person who lived most recently?",75,1.968,16,94943.20000000298,,q,S,3004.5,100445.09999999404,,,,,HRV,HRV_0272,2022-11-30 20:06:44
Russia,2,Which country has the most public libraries?  ,339,1.441,17,100445.29999999702,,q,S,1886.9000000059605,104285.09999999404,,,,,HRV,HRV_0272,2022-11-30 20:06:44
Coca-Cola,6,"The BBC once banned the Beatles' ""Come Together"" for ""advertising"" what product in the lyrics?",93,1.545,18,104285.09999999404,,q,S,1818.9000000059605,108165.89999999106,,,,,HRV,HRV_0272,2022-11-30 20:06:44
Cell,4,Robert Hooke coined what scientific term after looking at a piece of cork under a microscope?,81,1.547,19,108165.89999999106,,q,S,1827.800000011921,112074.59999999404,,,,,HRV,HRV_0272,2022-11-30 20:06:44
Matches,6,"Which accidentally invented household items were first marketed as ""friction lights""? ",322,1.829,20,112074.70000000298,"[{'event': 'onblur', 'details': 'out of focus', 'performance time': 114697.59999999404, 'date time': 1669838314490}, {'event': 'visibilitychange', 'details': 'hidden', 'performance time': 114704.09999999404, 'date time': 1669838314497}, {'event': 'visibilitychange', 'details': 'visible', 'performance time': 116524.70000000298, 'date time': 1669838316317}]",q,S,1908.699999988079,116525.0,,,,,HRV,HRV_0272,2022-11-30 20:06:44
Butt,7,The adjective callipygian refers to someone who has a beautiful what? ,88,1.519,21,116525.09999999404,"[{'event': 'onfocus', 'details': 'in focus', 'performance time': 116526.29999999702, 'date time': 1669838316319}, {'event': 'onblur', 'details': 'out of focus', 'performance time': 118668.20000000298, 'date time': 1669838318461}, {'event': 'visibilitychange', 'details': 'hidden', 'performance time': 118817.5, 'date time': 1669838318610}]",q,S,1731.2000000029802,120715.59999999404,,,,,HRV,HRV_0272,2022-11-30 20:06:44
Bile,5,"Two of the ""four humors"" the ancients believed controlled temperament consist of what bodily fluid?",118,1.458,22,120715.59999999404,"[{'event': 'onfocus', 'details': 'in focus', 'performance time': 127524.20000000298, 'date time': 1669838327317}, {'event': 'visibilitychange', 'details': 'visible', 'performance time': 127531.29999999702, 'date time': 1669838327324}]",q,S,7266.9000000059605,129960.29999999702,,,,,HRV,HRV_0272,2022-11-30 20:06:44
Ohio,1,Which is the only U.S. state that has a pennant-shaped flag instead of a rectangular one?  ,345,1.993,23,129960.29999999702,,q,S,1738.7999999970198,134199.70000000298,,,,,HRV,HRV_0272,2022-11-30 20:06:44
Mung beans ,4,What kind of bean produces the Asian-style bean sprouts in the produce section of supermarkets? ,404,1.325,24,134199.70000000298,,q,S,1839.7999999970198,137885.70000000298,,,,,HRV,HRV_0272,2022-11-30 20:06:44
Pachyderm,3,"What word comes to us from the Greek for ""thick-skinned""?  ",297,1.764,25,137885.70000000298,,q,S,1591.5999999940395,141771.20000000298,,,,,HRV,HRV_0272,2022-11-30 20:06:44
Belgium,3,Where were French fries invented?,437,1.852,26,141771.20000000298,,q,S,2042.0,146185.29999999702,,,,,HRV,HRV_0272,2022-11-30 20:06:44
Jim Lovell,7,Alan Shepard was scheduled to command the ill-fated Apollo 13 before switching missions with what astronaut?,18,1.195,27,146185.29999999702,"[{'event': 'onblur', 'details': 'out of focus', 'performance time': 149374.89999999106, 'date time': 1669838349168}, {'event': 'visibilitychange', 'details': 'hidden', 'performance time': 149385, 'date time': 1669838349178}]",q,S,1966.2000000029802,150717.5,,,,,HRV,HRV_0272,2022-11-30 20:06:44
60 fragments per 100 gram ,4,What amount of insects does the FDA allow in chocolate,453,1.217,28,150717.59999999404,"[{'event': 'visibilitychange', 'details': 'visible', 'performance time': 151867.5, 'date time': 1669838351660}, {'event': 'onfocus', 'details': 'in focus', 'performance time': 151869, 'date time': 1669838351662}]",q,S,1870.9000000059605,154320.59999999404,,,,,HRV,HRV_0272,2022-11-30 20:06:44
Brine Shrimp ,5,"What kind of animal is Artemia Salina, the ""sea monkey"" of novelty pet ad fame? ",222,0.717,29,154320.70000000298,,p,K,2006.0999999940395,157570.70000000298,,,,,HRV,HRV_0272,2022-11-30 20:06:44
Carbon,7,What element must be burned out of pig iron to make steel? ,170,0.606,30,157570.70000000298,,p,K,1656.5999999940395,160361.09999999404,,,,,HRV,HRV_0272,2022-11-30 20:06:44
A jenny ,7,What is a female donkey called?,194,1.938,31,160361.09999999404,"[{'event': 'onblur', 'details': 'out of focus', 'performance time': 164845.20000000298, 'date time': 1669838364640}]",p,K,2546.5,165377.29999999702,,,,,HRV,HRV_0272,2022-11-30 20:06:44
An ostrich egg yolk ,4,What grapefruit-sized object has been reckoned to be the largest single cell on earth? ,183,1.324,32,165377.29999999702,"[{'event': 'onfocus', 'details': 'in focus', 'performance time': 166699.5, 'date time': 1669838366494}]",q,S,2056.7000000029802,169295.59999999404,,,,,HRV,HRV_0272,2022-11-30 20:06:44
Lou Gehrig,6,"In 1934, five years before his retirement, who became the first athlete to appear on a Wheaties box? ",53,0.871,33,169295.59999999404,,p,K,2035.6000000089407,172724.20000000298,,,,,HRV,HRV_0272,2022-11-30 20:06:44
Cornea,3,What is the only part of the body that has no blood supply? ,211,1.948,34,172724.20000000298,,p,K,2016.7999999970198,177205.29999999702,,,,,HRV,HRV_0272,2022-11-30 20:06:44
Throat,2,Where in the human body is the only bone that is not jointed to another?  ,317,1.991,35,177205.29999999702,,p,K,1570.5,181284.89999999106,,,,,HRV,HRV_0272,2022-11-30 20:06:44
Midnight Cowboy ,4,What was the only X-rated film to win the Academy Award for Best Picture?  ,293,1.068,36,181284.89999999106,,p,K,1572.7000000029802,184461.09999999404,,,,,HRV,HRV_0272,2022-11-30 20:06:44
Grover Cleveland ,7,Who was the only U.S. president to have been married in the White House? ,385,1.614,37,184461.09999999404,,p,K,1541.5,188155.89999999106,,,,,HRV,HRV_0272,2022-11-30 20:06:44
Air bags,2,"Sodium azide, a highly toxic chemical, is best-known for being used to develop what lifesaving devices?",84,1.933,38,188155.89999999106,,p,K,1683.2000000029802,192295.5,,,,,HRV,HRV_0272,2022-11-30 20:06:44
Capitol Hill,6,"Until 1790, what was known as Jenkins Hill? ",119,0.893,39,192295.5,,p,K,1854.5,195575.20000000298,,,,,HRV,HRV_0272,2022-11-30 20:06:44
It causes sour foods subsequently consumed to taste sweet. ,1,Why is the Synsepalum dulcificum berry called the miracle fruit?,464,0.798,40,195575.20000000298,,p,K,1544.2999999970198,198441.20000000298,,,,,HRV,HRV_0272,2022-11-30 20:06:44
Papillae,5,What are the bumps on the tongue that carry the taste buds called? ,137,0.843,41,198441.29999999702,,p,K,1587.7000000029802,201395.89999999106,,,,,HRV,HRV_0272,2022-11-30 20:06:44
Gabriele Falloppio ,3,What Italian physician was the first to describe the way the ovaries connect to the uterus in humans?,217,1.681,42,201395.89999999106,,p,K,1531.300000011921,205121.20000000298,,,,,HRV,HRV_0272,2022-11-30 20:06:44
Espresso,6,The Italian government regulates the price of what beverage?,399,1.509,43,205121.29999999702,,q,S,1788.7000000029802,208934.70000000298,,,,,HRV,HRV_0272,2022-11-30 20:06:44
American Pie,2,What was the name of the plane Buddy Holly died in?  ,289,0.568,44,208934.79999999702,,p,K,4354.5,214385.29999999702,,,,,HRV,HRV_0272,2022-11-30 20:06:44
San Fancisco,5,"""Dear Abby"" first appeared in a newspaper of what city?",2,1.377,45,214385.29999999702,,q,S,1774.7000000029802,218055.39999999106,,,,,HRV,HRV_0272,2022-11-30 20:06:44
Camel,7,Which animal's milk does not curdle? ,328,0.737,46,218055.39999999106,,p,K,2540.800000011921,221855.09999999404,,,,,HRV,HRV_0272,2022-11-30 20:06:44
pastry,1,Choux and filo are two types of what food product?,446,1.116,47,221855.09999999404,,p,K,2997.2000000029802,226495.59999999404,,,,,HRV,HRV_0272,2022-11-30 20:06:44
The Hardy Boys ,1,"Who solves crimes in Bayport, located on Barmet Bay? ",374,1.447,48,226495.59999999404,,p,K,3030.4000000059605,231505.70000000298,,,,,HRV,HRV_0272,2022-11-30 20:06:44
Paris,6,"Student protests in which capital city inspired John Lennon's song  ""Revolution""? ",86,1.391,49,231505.70000000298,,p,K,2241.3999999910593,235665.79999999702,,,,,HRV,HRV_0272,2022-11-30 20:06:44
The crocodile,2,The Egyptian plover is a bird best known for its symbiotic relationship with what host animal?,95,1.243,50,235665.89999999106,,p,K,1528.2000000029802,238958.70000000298,,,,,HRV,HRV_0272,2022-11-30 20:06:44
Broccoli! ,1,Whice vegeteable has more vitamin C than an orange and as much calcium as whole milk?,456,1.329,51,238958.70000000298,"[{'event': 'onblur', 'details': 'out of focus', 'performance time': 239141.89999999106, 'date time': 1669838438938}, {'event': 'visibilitychange', 'details': 'hidden', 'performance time': 239151.29999999702, 'date time': 1669838438947}, {'event': 'visibilitychange', 'details': 'visible', 'performance time': 240501.59999999404, 'date time': 1669838440298}, {'event': 'onfocus', 'details': 'in focus', 'performance time': 240502.70000000298, 'date time': 1669838440299}, {'event': 'onblur', 'details': 'out of focus', 'performance time': 241807.70000000298, 'date time': 1669838441604}, {'event': 'visibilitychange', 'details': 'hidden', 'performance time': 241817.5, 'date time': 1669838441614}, {'event': 'visibilitychange', 'details': 'visible', 'performance time': 242632.20000000298, 'date time': 1669838442428}, {'event': 'onfocus', 'details': 'in focus', 'performance time': 242635.70000000298, 'date time': 1669838442432}]",q,S,1932.0999999940395,242746.89999999106,,,,,HRV,HRV_0272,2022-11-30 20:06:44
Jamaica Bay,4,"What lagoon south of Queens, New York, is named for a local Indian tribe and has nothing to do Caribbean?",226,0.578,52,242746.89999999106,"[{'event': 'onblur', 'details': 'out of focus', 'performance time': 245029.20000000298, 'date time': 1669838444825}, {'event': 'visibilitychange', 'details': 'hidden', 'performance time': 245040.39999999106, 'date time': 1669838444837}]",q,S,1685.1000000089407,245714.89999999106,,,,,HRV,HRV_0272,2022-11-30 20:06:44
Rooster,6,What animal is combined with a serpent to make the mythical creature the Cockatrice? ,268,1.899,53,245714.89999999106,"[{'event': 'visibilitychange', 'details': 'visible', 'performance time': 245836, 'date time': 1669838445632}, {'event': 'onfocus', 'details': 'in focus', 'performance time': 245837.79999999702, 'date time': 1669838445634}]",q,S,2136.300000011921,250268.59999999404,,,,,HRV,HRV_0272,2022-11-30 20:06:44
As Good As It Gets ,7,"What Jack Nicholson comedy was translated as ""Mr. Cat Poop"" in Cantonese when it was released in China?",218,1.052,54,250268.59999999404,,t,W,1632.4000000059605,261346.59999999404,254435.79999999702,258458.39999999106,3,1314.9000000059605,HRV,HRV_0272,2022-11-30 20:06:44
Bruce Springsteen's Born in the USA ,6,What was the first CD pressed for commerical release in the U.S.?,282,0.607,55,261346.79999999702,,q,S,3636.2000000029802,266115.0,,,,,HRV,HRV_0272,2022-11-30 20:06:44
Eisenhower ,7,Who was president when the first U.S. presidential news conference was filmed for TV?,378,1.101,56,266115.0,"[{'event': 'onblur', 'details': 'out of focus', 'performance time': 272997.700000003, 'date time': 1669838472794}, {'event': 'visibilitychange', 'details': 'hidden', 'performance time': 273006.200000003, 'date time': 1669838472802}]",p,K,5918.5,273715.39999999106,,,,,HRV,HRV_0272,2022-11-30 20:06:44
Sweden,2,What nation's dyslexic king Carl XVI Gustaf misspelled his own name on the accession document that gave him the throne?,237,1.034,57,273715.39999999106,"[{'event': 'visibilitychange', 'details': 'visible', 'performance time': 274533.59999999404, 'date time': 1669838474330}, {'event': 'onfocus', 'details': 'in focus', 'performance time': 274536.09999999404, 'date time': 1669838474332}]",p,K,1895.800000011921,277185.59999999404,,,,,HRV,HRV_0272,2022-11-30 20:06:44
Toledo,1,"The world's first ""sister cities"" were what Spanish city and its midwestern namesake?",110,1.062,58,277185.700000003,"[{'event': 'onblur', 'details': 'out of focus', 'performance time': 277698.700000003, 'date time': 1669838477495}, {'event': 'visibilitychange', 'details': 'hidden', 'performance time': 277709.89999999106, 'date time': 1669838477506}, {'event': 'visibilitychange', 'details': 'visible', 'performance time': 278782.700000003, 'date time': 1669838478579}, {'event': 'onfocus', 'details': 'in focus', 'performance time': 278786.09999999404, 'date time': 1669838478582}, {'event': 'onblur', 'details': 'out of focus', 'performance time': 280165.200000003, 'date time': 1669838479961}, {'event': 'visibilitychange', 'details': 'hidden', 'performance time': 280172, 'date time': 1669838479968}, {'event': 'visibilitychange', 'details': 'visible', 'performance time': 281605.200000003, 'date time': 1669838481401}]",p,K,2020.5,281605.39999999106,,,,,HRV,HRV_0272,2022-11-30 20:06:44
The budgerigar,7,"What pet bird takes its name from Australian Aborigine words for ""good eating""?",244,1.116,59,281605.39999999106,"[{'event': 'onfocus', 'details': 'in focus', 'performance time': 281607.299999997, 'date time': 1669838481403}]",p,K,2365.4000000059605,285605.200000003,,,,,HRV,HRV_0272,2022-11-30 20:06:44
Don Adams,1,Who provided the voice for cartoon character Inspector Gadget? ,372,1.352,60,285605.299999997,"[{'event': 'onblur', 'details': 'out of focus', 'performance time': 285644.09999999404, 'date time': 1669838485439}, {'event': 'visibilitychange', 'details': 'hidden', 'performance time': 285649, 'date time': 1669838485444}, {'event': 'visibilitychange', 'details': 'visible', 'performance time': 287607.59999999404, 'date time': 1669838487402}, {'event': 'onfocus', 'details': 'in focus', 'performance time': 287609.09999999404, 'date time': 1669838487404}, {'event': 'onblur', 'details': 'out of focus', 'performance time': 289127.09999999404, 'date time': 1669838488922}, {'event': 'visibilitychange', 'details': 'hidden', 'performance time': 289137.59999999404, 'date time': 1669838488932}]",p,K,2451.5999999940395,290720.799999997,,,,,HRV,HRV_0272,2022-11-30 20:06:44
Japan ,1,What nation is home to the only tunnel in the world longer than the Chunnel?  ,236,0.876,61,290720.799999997,"[{'event': 'visibilitychange', 'details': 'visible', 'performance time': 290751.700000003, 'date time': 1669838490546}, {'event': 'onfocus', 'details': 'in focus', 'performance time': 290752.59999999404, 'date time': 1669838490547}, {'event': 'onblur', 'details': 'out of focus', 'performance time': 293675.299999997, 'date time': 1669838493470}, {'event': 'visibilitychange', 'details': 'hidden', 'performance time': 293684.59999999404, 'date time': 1669838493479}]",p,K,1633.7999999970198,294716.0,,,,,HRV,HRV_0272,2022-11-30 20:06:44
Speed of wind,3,What does an anemometer measure? ,168,1.407,62,294716.09999999404,"[{'event': 'visibilitychange', 'details': 'visible', 'performance time': 295414.200000003, 'date time': 1669838495209}, {'event': 'onfocus', 'details': 'in focus', 'performance time': 295417.39999999106, 'date time': 1669838495212}, {'event': 'onblur', 'details': 'out of focus', 'performance time': 297621, 'date time': 1669838497416}, {'event': 'visibilitychange', 'details': 'hidden', 'performance time': 297631.59999999404, 'date time': 1669838497426}, {'event': 'visibilitychange', 'details': 'visible', 'performance time': 299397.299999997, 'date time': 1669838499192}]",p,K,2168.0,299397.59999999404,,,,,HRV,HRV_0272,2022-11-30 20:06:44
The bishop,5,Which chess piece was originally called 'the elephant'? ,334,0.836,63,299397.700000003,"[{'event': 'onfocus', 'details': 'in focus', 'performance time': 299400.299999997, 'date time': 1669838499195}, {'event': 'onblur', 'details': 'out of focus', 'performance time': 302107.299999997, 'date time': 1669838501902}, {'event': 'visibilitychange', 'details': 'hidden', 'performance time': 302114.700000003, 'date time': 1669838501909}]",p,K,1803.8999999910593,302715.700000003,,,,,HRV,HRV_0272,2022-11-30 20:06:44
James Buchanan ,7,Who was the only U.S. president never to be married?,383,0.822,64,302715.700000003,"[{'event': 'visibilitychange', 'details': 'visible', 'performance time': 304157.700000003, 'date time': 1669838503952}, {'event': 'onfocus', 'details': 'in focus', 'performance time': 304159.39999999106, 'date time': 1669838503954}, {'event': 'onblur', 'details': 'out of focus', 'performance time': 305347.299999997, 'date time': 1669838505142}, {'event': 'visibilitychange', 'details': 'hidden', 'performance time': 305358.09999999404, 'date time': 1669838505153}]",p,K,1968.8999999910593,306725.5,,,,,HRV,HRV_0272,2022-11-30 20:06:44
Ozone,2,"What molecule is named for the Greek word for ""smell,"" because of the odor associated with lightning storms?",232,1.461,65,306725.5,"[{'event': 'visibilitychange', 'details': 'visible', 'performance time': 307674.799999997, 'date time': 1669838507469}, {'event': 'onfocus', 'details': 'in focus', 'performance time': 307675.5, 'date time': 1669838507470}, {'event': 'onblur', 'details': 'out of focus', 'performance time': 309922.700000003, 'date time': 1669838509717}, {'event': 'visibilitychange', 'details': 'hidden', 'performance time': 309932.299999997, 'date time': 1669838509727}]",p,K,2286.5999999940395,311715.39999999106,,,,,HRV,HRV_0272,2022-11-30 20:06:44
NY,3,In which state was the first execution by electric chair?  ,70,0.991,66,311715.39999999106,"[{'event': 'visibilitychange', 'details': 'visible', 'performance time': 313752.89999999106, 'date time': 1669838513548}, {'event': 'onfocus', 'details': 'in focus', 'performance time': 313754.700000003, 'date time': 1669838513549}]",p,K,2441.6000000089407,315663.39999999106,,,,,HRV,HRV_0272,2022-11-30 20:06:44
Everything ,2,Pantophobia is the fear of what?,79,0.919,67,315663.39999999106,"[{'event': 'onblur', 'details': 'out of focus', 'performance time': 318293.5, 'date time': 1669838518088}, {'event': 'visibilitychange', 'details': 'hidden', 'performance time': 318301.59999999404, 'date time': 1669838518096}]",p,K,1911.4000000059605,319715.59999999404,,,,,HRV,HRV_0272,2022-11-30 20:06:44
"the white flesh that houses the seeds, known as the placenta",5,What is the hottest part of a chili?,432,0.996,68,319715.59999999404,"[{'event': 'visibilitychange', 'details': 'visible', 'performance time': 319910.799999997, 'date time': 1669838519705}, {'event': 'onfocus', 'details': 'in focus', 'performance time': 319913.200000003, 'date time': 1669838519708}, {'event': 'onblur', 'details': 'out of focus', 'performance time': 322771, 'date time': 1669838522566}, {'event': 'visibilitychange', 'details': 'hidden', 'performance time': 322779.200000003, 'date time': 1669838522574}]",p,K,1906.7000000029802,323724.89999999106,,,,,HRV,HRV_0272,2022-11-30 20:06:44
Yahoo!,6,What Internet portal was sued for copyright infringement in 2000 by the star of Young Einstein? ,190,0.721,69,323724.89999999106,"[{'event': 'visibilitychange', 'details': 'visible', 'performance time': 329002, 'date time': 1669838528797}, {'event': 'onfocus', 'details': 'in focus', 'performance time': 329003.700000003, 'date time': 1669838528798}, {'event': 'onblur', 'details': 'out of focus', 'performance time': 330123.700000003, 'date time': 1669838529918}, {'event': 'visibilitychange', 'details': 'hidden', 'performance time': 330132.89999999106, 'date time': 1669838529928}]",p,K,5737.600000008941,330715.299999997,,,,,HRV,HRV_0272,2022-11-30 20:06:44
On a Jell-O box,7,"Where would you see the consumer warning ""Do not use fresh or frozen pineapple, kiwi, ginger-root, papaya, figs, or guava""?",411,0.598,70,330715.299999997,"[{'event': 'visibilitychange', 'details': 'visible', 'performance time': 331762.89999999106, 'date time': 1669838531558}, {'event': 'onfocus', 'details': 'in focus', 'performance time': 331763.799999997, 'date time': 1669838531558}, {'event': 'onblur', 'details': 'out of focus', 'performance time': 333503.09999999404, 'date time': 1669838533298}, {'event': 'visibilitychange', 'details': 'hidden', 'performance time': 333511.700000003, 'date time': 1669838533306}]",p,K,2164.7000000029802,334714.89999999106,,,,,HRV,HRV_0272,2022-11-30 20:06:44
Betty Rubble,1,Which core Flintstones cast member was absent from Flintstone vitamins until 1996? ,337,1.991,71,334715.0,"[{'event': 'visibilitychange', 'details': 'visible', 'performance time': 335731.39999999106, 'date time': 1669838535526}, {'event': 'onfocus', 'details': 'in focus', 'performance time': 335731.89999999106, 'date time': 1669838535527}]",p,K,2873.8999999910593,340085.799999997,,,,,HRV,HRV_0272,2022-11-30 20:06:44
"Portland, Oregon",6,What city at the intersection of I-5 and I-84 is home to America's most courteous drivers according to a 2007 study? ,146,1.257,72,340085.799999997,"[{'event': 'onblur', 'details': 'out of focus', 'performance time': 343281.299999997, 'date time': 1669838543076}, {'event': 'visibilitychange', 'details': 'hidden', 'performance time': 343291.700000003, 'date time': 1669838543086}]",p,K,2545.5999999940395,344711.09999999404,,,,,HRV,HRV_0272,2022-11-30 20:06:44
Arthur Conan Doyle,7,"What gullible author believed that Harry Houdini had ""wonderful powers"" after Houdini showed him the child's trick of pretending to remove his thumb? ",184,0.651,73,344711.09999999404,"[{'event': 'visibilitychange', 'details': 'visible', 'performance time': 346453.59999999404, 'date time': 1669838546248}, {'event': 'onfocus', 'details': 'in focus', 'performance time': 346454.39999999106, 'date time': 1669838546248}, {'event': 'onblur', 'details': 'out of focus', 'performance time': 347513, 'date time': 1669838547307}, {'event': 'visibilitychange', 'details': 'hidden', 'performance time': 347523.299999997, 'date time': 1669838547317}]",p,K,2134.7999999970198,348716.89999999106,,,,,HRV,HRV_0272,2022-11-30 20:06:44
Pride and Prejudice,1,"""An Assembly Such as This"" was a retelling of what famous literary work from a different character's point of view?",1,1.015,74,348717.0,"[{'event': 'visibilitychange', 'details': 'visible', 'performance time': 351685.39999999106, 'date time': 1669838551479}, {'event': 'onfocus', 'details': 'in focus', 'performance time': 351687.39999999106, 'date time': 1669838551481}, {'event': 'onblur', 'details': 'out of focus', 'performance time': 352525.200000003, 'date time': 1669838552319}, {'event': 'visibilitychange', 'details': 'hidden', 'performance time': 352532.39999999106, 'date time': 1669838552326}]",p,K,3233.2999999970198,353715.59999999404,,,,,HRV,HRV_0272,2022-11-30 20:06:44
Ear ,4,"The pinna is the outer, visible part of what?",103,0.641,75,353715.59999999404,"[{'event': 'visibilitychange', 'details': 'visible', 'performance time': 355901.200000003, 'date time': 1669838555695}, {'event': 'onfocus', 'details': 'in focus', 'performance time': 355903.39999999106, 'date time': 1669838555697}, {'event': 'onblur', 'details': 'out of focus', 'performance time': 357038.700000003, 'date time': 1669838556833}, {'event': 'visibilitychange', 'details': 'hidden', 'performance time': 357048.89999999106, 'date time': 1669838556843}]",p,K,2709.1000000089407,357715.799999997,,,,,HRV,HRV_0272,2022-11-30 20:06:44
George Marshall,4,What future secretary of state became America's first five-star general in December 1944? ,181,1.383,76,357715.799999997,"[{'event': 'visibilitychange', 'details': 'visible', 'performance time': 360104.700000003, 'date time': 1669838559899}, {'event': 'onfocus', 'details': 'in focus', 'performance time': 360107.700000003, 'date time': 1669838559902}, {'event': 'onblur', 'details': 'out of focus', 'performance time': 362003, 'date time': 1669838561797}, {'event': 'visibilitychange', 'details': 'hidden', 'performance time': 362010.799999997, 'date time': 1669838561805}]",p,K,3072.5999999940395,362721.0,,,,,HRV,HRV_0272,2022-11-30 20:06:44
Dragees,7,"What are the sugared almonds, traditionally thrown over the bride and groom at a wedding, called?",430,1.553,77,362721.0,"[{'event': 'visibilitychange', 'details': 'visible', 'performance time': 362772, 'date time': 1669838562566}, {'event': 'onfocus', 'details': 'in focus', 'performance time': 362774.799999997, 'date time': 1669838562569}]",p,K,2396.2999999970198,367185.200000003,,,,,HRV,HRV_0272,2022-11-30 20:06:44
Fiber is the gut bacteria's preferred fuel source. ,4,What food is most beneficial for your gut bacteria?,458,1.122,78,367185.200000003,"[{'event': 'onblur', 'details': 'out of focus', 'performance time': 367231, 'date time': 1669838567025}, {'event': 'visibilitychange', 'details': 'hidden', 'performance time': 367240.200000003, 'date time': 1669838567034}, {'event': 'visibilitychange', 'details': 'visible', 'performance time': 370169.59999999404, 'date time': 1669838569964}, {'event': 'onfocus', 'details': 'in focus', 'performance time': 370173.200000003, 'date time': 1669838569967}, {'event': 'onblur', 'details': 'out of focus', 'performance time': 371287.299999997, 'date time': 1669838571081}, {'event': 'visibilitychange', 'details': 'hidden', 'performance time': 371297.700000003, 'date time': 1669838571092}]",p,K,3390.199999988079,372716.700000003,,,,,HRV,HRV_0272,2022-11-30 20:06:44
PayPal,2,YouTube.com is the brainchild of three former employees of what other major website? ,396,1.349,79,372716.700000003,"[{'event': 'visibilitychange', 'details': 'visible', 'performance time': 375634.89999999106, 'date time': 1669838575429}, {'event': 'onfocus', 'details': 'in focus', 'performance time': 375637.09999999404, 'date time': 1669838575431}, {'event': 'onblur', 'details': 'out of focus', 'performance time': 376617.09999999404, 'date time': 1669838576411}, {'event': 'visibilitychange', 'details': 'hidden', 'performance time': 376626.89999999106, 'date time': 1669838576421}]",p,K,3265.199999988079,378715.200000003,,,,,HRV,HRV_0272,2022-11-30 20:06:44
Catapult ,2,What artillery weapon was launched upon the world in 400 B.C.?  ,140,1.354,80,378715.200000003,"[{'event': 'visibilitychange', 'details': 'visible', 'performance time': 380391.299999997, 'date time': 1669838580185}, {'event': 'onfocus', 'details': 'in focus', 'performance time': 380392.59999999404, 'date time': 1669838580187}, {'event': 'onblur', 'details': 'out of focus', 'performance time': 381436.09999999404, 'date time': 1669838581230}, {'event': 'visibilitychange', 'details': 'hidden', 'performance time': 381445.39999999106, 'date time': 1669838581239}]",p,K,2173.0,383715.299999997,,,,,HRV,HRV_0272,2022-11-30 20:06:44
Chicago,6,What city has the only drive-thru post office in the world? ,147,0.664,81,383715.299999997,"[{'event': 'visibilitychange', 'details': 'visible', 'performance time': 383968.89999999106, 'date time': 1669838583763}, {'event': 'onfocus', 'details': 'in focus', 'performance time': 383971.59999999404, 'date time': 1669838583766}, {'event': 'onblur', 'details': 'out of focus', 'performance time': 385980.299999997, 'date time': 1669838585774}, {'event': 'visibilitychange', 'details': 'hidden', 'performance time': 385987.39999999106, 'date time': 1669838585781}]",p,K,1724.2999999970198,386712.89999999106,,,,,HRV,HRV_0272,2022-11-30 20:06:44
Pepper and Mustard,5,What are the top two most popular spices in the world?,422,0.784,82,386712.89999999106,"[{'event': 'visibilitychange', 'details': 'visible', 'performance time': 388177.09999999404, 'date time': 1669838587971}, {'event': 'onfocus', 'details': 'in focus', 'performance time': 388178.700000003, 'date time': 1669838587973}, {'event': 'onblur', 'details': 'out of focus', 'performance time': 389596.700000003, 'date time': 1669838589391}, {'event': 'visibilitychange', 'details': 'hidden', 'performance time': 389605.200000003, 'date time': 1669838589399}]",p,K,2150.6000000089407,390711.09999999404,,,,,HRV,HRV_0272,2022-11-30 20:06:44
The La Brea tar pits ,1,"A California Chumash Indian woman, who appears to have been killed by a blow to the head 9,000 years ago, is the only human ever to be found where?",7,1.232,83,390711.09999999404,"[{'event': 'visibilitychange', 'details': 'visible', 'performance time': 391284, 'date time': 1669838591078}, {'event': 'onfocus', 'details': 'in focus', 'performance time': 391286.39999999106, 'date time': 1669838591080}, {'event': 'onblur', 'details': 'out of focus', 'performance time': 393129.200000003, 'date time': 1669838592923}, {'event': 'visibilitychange', 'details': 'hidden', 'performance time': 393138.299999997, 'date time': 1669838592932}]",p,K,1622.7999999970198,394714.89999999106,,,,,HRV,HRV_0272,2022-11-30 20:06:44
"Cle(a)veland, Ohio",2,The name of which city permanently lost its first 'a' when the first issue of a newspaper was published in 1831 and they had to shorten it to fit on the paper's masthead?,102,1.714,84,394714.89999999106,"[{'event': 'visibilitychange', 'details': 'visible', 'performance time': 395690.700000003, 'date time': 1669838595485}, {'event': 'onfocus', 'details': 'in focus', 'performance time': 395692.299999997, 'date time': 1669838595486}, {'event': 'onblur', 'details': 'out of focus', 'performance time': 396982.89999999106, 'date time': 1669838596777}, {'event': 'visibilitychange', 'details': 'hidden', 'performance time': 397007.700000003, 'date time': 1669838596802}]",p,K,1697.7000000029802,398714.700000003,,,,,HRV,HRV_0272,2022-11-30 20:06:44
Andy Kaufman,3,Who was banned from Saturday Night Live by viewer phone vote in 1982? ,376,1.699,85,398714.799999997,"[{'event': 'visibilitychange', 'details': 'visible', 'performance time': 399919.39999999106, 'date time': 1669838599713}, {'event': 'onfocus', 'details': 'in focus', 'performance time': 399921.39999999106, 'date time': 1669838599715}, {'event': 'onblur', 'details': 'out of focus', 'performance time': 400902.799999997, 'date time': 1669838600697}, {'event': 'visibilitychange', 'details': 'hidden', 'performance time': 400913.299999997, 'date time': 1669838600707}]",p,K,1627.9000000059605,402712.39999999106,,,,,HRV,HRV_0272,2022-11-30 20:06:44
Dutch Oven,2,"What kind of ""oven"" is the official state cooking pot of Utah? ",220,1.958,86,402712.39999999106,"[{'event': 'visibilitychange', 'details': 'visible', 'performance time': 403261.59999999404, 'date time': 1669838603056}, {'event': 'onfocus', 'details': 'in focus', 'performance time': 403262.299999997, 'date time': 1669838603056}, {'event': 'onblur', 'details': 'out of focus', 'performance time': 404884, 'date time': 1669838604678}, {'event': 'visibilitychange', 'details': 'hidden', 'performance time': 404892.09999999404, 'date time': 1669838604686}]",p,K,1726.2000000029802,407715.09999999404,,,,,HRV,HRV_0272,2022-11-30 20:06:44
chickpeas,1,What is used to make hummus?,424,0.928,87,407715.09999999404,"[{'event': 'visibilitychange', 'details': 'visible', 'performance time': 408287.09999999404, 'date time': 1669838608083}, {'event': 'onfocus', 'details': 'in focus', 'performance time': 408288.200000003, 'date time': 1669838608084}, {'event': 'onblur', 'details': 'out of focus', 'performance time': 410295.09999999404, 'date time': 1669838610091}, {'event': 'visibilitychange', 'details': 'hidden', 'performance time': 410304.59999999404, 'date time': 1669838610101}]",p,K,1817.7999999970198,411722.89999999106,,,,,HRV,HRV_0272,2022-11-30 20:06:44
Chitty Chitty Bang Bang ,3,What was the only children's story ever published by James Bond creator Ian Fleming? ,292,1.091,88,411722.89999999106,"[{'event': 'visibilitychange', 'details': 'visible', 'performance time': 412486.89999999106, 'date time': 1669838612283}, {'event': 'onfocus', 'details': 'in focus', 'performance time': 412488.09999999404, 'date time': 1669838612284}, {'event': 'onblur', 'details': 'out of focus', 'performance time': 414137.799999997, 'date time': 1669838613934}, {'event': 'visibilitychange', 'details': 'hidden', 'performance time': 414147.700000003, 'date time': 1669838613944}]",p,K,1828.7000000029802,415710.799999997,,,,,HRV,HRV_0272,2022-11-30 20:06:44
Pen(n)sylvania ,6,What proper name is spelled unusually with a single 'n' both on the Liberty Bell and in the U.S. Constitution? ,249,1.555,89,415710.799999997,"[{'event': 'visibilitychange', 'details': 'visible', 'performance time': 417451.799999997, 'date time': 1669838617248}, {'event': 'onfocus', 'details': 'in focus', 'performance time': 417452.59999999404, 'date time': 1669838617249}, {'event': 'onblur', 'details': 'out of focus', 'performance time': 418672.799999997, 'date time': 1669838618469}, {'event': 'visibilitychange', 'details': 'hidden', 'performance time': 418681, 'date time': 1669838618477}]",p,K,2187.5,420711.0,,,,,HRV,HRV_0272,2022-11-30 20:06:44
Adding olive juice,5,What turns a plain martini into a dirty martini?,440,1.922,90,420711.0,"[{'event': 'visibilitychange', 'details': 'visible', 'performance time': 422061.89999999106, 'date time': 1669838621858}, {'event': 'onfocus', 'details': 'in focus', 'performance time': 422062.89999999106, 'date time': 1669838621859}, {'event': 'onblur', 'details': 'out of focus', 'performance time': 423409.59999999404, 'date time': 1669838623206}, {'event': 'visibilitychange', 'details': 'hidden', 'performance time': 423420.200000003, 'date time': 1669838623216}]",p,K,2079.5,425720.59999999404,,,,,HRV,HRV_0272,2022-11-30 20:06:44
Adam,1,What did Coleco name its 1983 home computer in the hope that it would take a bit out of Apple's sales?,162,1.747,91,425720.59999999404,"[{'event': 'visibilitychange', 'details': 'visible', 'performance time': 427039, 'date time': 1669838626835}, {'event': 'onfocus', 'details': 'in focus', 'performance time': 427040, 'date time': 1669838626836}, {'event': 'onblur', 'details': 'out of focus', 'performance time': 428184.200000003, 'date time': 1669838627980}, {'event': 'visibilitychange', 'details': 'hidden', 'performance time': 428191.39999999106, 'date time': 1669838627988}]",p,K,1887.2000000029802,430715.39999999106,,,,,HRV,HRV_0272,2022-11-30 20:06:44
"A peanut is a legume, not a nut",7,What type of food is a peanut?,447,1.955,92,430715.39999999106,"[{'event': 'visibilitychange', 'details': 'visible', 'performance time': 431736.799999997, 'date time': 1669838631533}, {'event': 'onfocus', 'details': 'in focus', 'performance time': 431738.200000003, 'date time': 1669838631534}]",p,K,1872.7000000029802,435058.700000003,,,,,HRV,HRV_0272,2022-11-30 20:06:44
Museum of Modern Art in NYC ,6,"Which museum hung Matisse's ""Le Bateau"" upsidedown for more than a month, until an art student noticed the error?",348,1.152,93,435058.799999997,"[{'event': 'onblur', 'details': 'out of focus', 'performance time': 435415.59999999404, 'date time': 1669838635212}, {'event': 'visibilitychange', 'details': 'hidden', 'performance time': 435425.200000003, 'date time': 1669838635221}, {'event': 'visibilitychange', 'details': 'visible', 'performance time': 436549.299999997, 'date time': 1669838636346}, {'event': 'onfocus', 'details': 'in focus', 'performance time': 436552.59999999404, 'date time': 1669838636349}, {'event': 'onblur', 'details': 'out of focus', 'performance time': 437729.59999999404, 'date time': 1669838637526}, {'event': 'visibilitychange', 'details': 'hidden', 'performance time': 437735.700000003, 'date time': 1669838637532}]",p,K,2069.7999999970198,439710.799999997,,,,,HRV,HRV_0272,2022-11-30 20:06:44
Geyser,4,What English word comes from the name of a hot spring in Iceland's Haukadalur valley? ,171,1.392,94,439710.799999997,"[{'event': 'visibilitychange', 'details': 'visible', 'performance time': 440531.200000003, 'date time': 1669838640328}, {'event': 'onfocus', 'details': 'in focus', 'performance time': 440533.59999999404, 'date time': 1669838640330}, {'event': 'onblur', 'details': 'out of focus', 'performance time': 442441.59999999404, 'date time': 1669838642238}, {'event': 'visibilitychange', 'details': 'hidden', 'performance time': 442451.799999997, 'date time': 1669838642248}]",p,K,2075.7999999970198,443714.89999999106,,,,,HRV,HRV_0272,2022-11-30 20:06:44
The paper clip,4,"""Gem"" is the trade name for the most common, three-loop design of what?",4,1.539,95,443715.0,"[{'event': 'visibilitychange', 'details': 'visible', 'performance time': 445883.39999999106, 'date time': 1669838645680}, {'event': 'onfocus', 'details': 'in focus', 'performance time': 445885.09999999404, 'date time': 1669838645681}, {'event': 'onblur', 'details': 'out of focus', 'performance time': 447066.5, 'date time': 1669838646863}, {'event': 'visibilitychange', 'details': 'hidden', 'performance time': 447076.89999999106, 'date time': 1669838646873}]",p,K,2650.0,448714.799999997,,,,,HRV,HRV_0272,2022-11-30 20:06:44
Pumpkin,3,Whittaker Chambers hid Alger Hiss's purloined State Department documents in a hollowed-out what?,360,1.025,96,448714.799999997,"[{'event': 'visibilitychange', 'details': 'visible', 'performance time': 450502.39999999106, 'date time': 1669838650299}, {'event': 'onfocus', 'details': 'in focus', 'performance time': 450503.89999999106, 'date time': 1669838650300}, {'event': 'onblur', 'details': 'out of focus', 'performance time': 451710.5, 'date time': 1669838651507}, {'event': 'visibilitychange', 'details': 'hidden', 'performance time': 451718.59999999404, 'date time': 1669838651515}]",p,K,2109.7999999970198,452715.799999997,,,,,HRV,HRV_0272,2022-11-30 20:06:44
Uncle Tom's Cabin ,4,What was the first American novel to sell one million copies? ,281,1.154,97,452715.799999997,"[{'event': 'visibilitychange', 'details': 'visible', 'performance time': 452743.59999999404, 'date time': 1669838652540}, {'event': 'onfocus', 'details': 'in focus', 'performance time': 452747.5, 'date time': 1669838652544}, {'event': 'onblur', 'details': 'out of focus', 'performance time': 455620.799999997, 'date time': 1669838655417}, {'event': 'visibilitychange', 'details': 'hidden', 'performance time': 455630.39999999106, 'date time': 1669838655427}]",p,K,2133.0,456714.799999997,,,,,HRV,HRV_0272,2022-11-30 20:06:44
Draw,5,What does a screever do on a sidewalk? ,167,1.388,98,456714.799999997,"[{'event': 'visibilitychange', 'details': 'visible', 'performance time': 458349.59999999404, 'date time': 1669838658146}, {'event': 'onfocus', 'details': 'in focus', 'performance time': 458351.299999997, 'date time': 1669838658148}, {'event': 'onblur', 'details': 'out of focus', 'performance time': 459378.39999999106, 'date time': 1669838659175}, {'event': 'visibilitychange', 'details': 'hidden', 'performance time': 459388.299999997, 'date time': 1669838659185}]",p,K,2105.0,461718.700000003,,,,,HRV,HRV_0272,2022-11-30 20:06:44
Choking on food,4,"Each year, approximately 125 people die of what? ",417,0.671,99,461718.700000003,"[{'event': 'visibilitychange', 'details': 'visible', 'performance time': 464375.799999997, 'date time': 1669838664172}, {'event': 'onfocus', 'details': 'in focus', 'performance time': 464377.200000003, 'date time': 1669838664173}, {'event': 'onblur', 'details': 'out of focus', 'performance time': 465675, 'date time': 1669838665471}, {'event': 'visibilitychange', 'details': 'hidden', 'performance time': 465682.200000003, 'date time': 1669838665478}, {'event': 'visibilitychange', 'details': 'visible', 'performance time': 465717.200000003, 'date time': 1669838665513}, {'event': 'onfocus', 'details': 'in focus', 'performance time': 465717.59999999404, 'date time': 1669838665514}, {'event': 'onblur', 'details': 'out of focus', 'performance time': 465733, 'date time': 1669838665529}, {'event': 'visibilitychange', 'details': 'hidden', 'performance time': 465771.299999997, 'date time': 1669838665568}, {'event': 'visibilitychange', 'details': 'visible', 'performance time': 465803.39999999106, 'date time': 1669838665600}, {'event': 'onfocus', 'details': 'in focus', 'performance time': 465804, 'date time': 1669838665600}, {'event': 'onblur', 'details': 'out of focus', 'performance time': 465814, 'date time': 1669838665610}]",p,K,3137.2999999970198,466055.0,,,,,HRV,HRV_0272,2022-11-30 20:06:44
The Galapagos Islands ,1,What islands are home to most of the world's blue-footed boobies? ,216,1.268,100,466055.0,"[{'event': 'visibilitychange', 'details': 'hidden', 'performance time': 469018.89999999106, 'date time': 1669838668817}, {'event': 'onfocus', 'details': 'in focus', 'performance time': 470272.59999999404, 'date time': 1669838670071}, {'event': 'visibilitychange', 'details': 'visible', 'performance time': 470296, 'date time': 1669838670094}]",p,K,6187.399999991059,474025.200000003,,,,,HRV,HRV_0272,2022-11-30 20:06:44
Marven (Marvin) Gardens,6,"What Margate City, NJ, housing area has been misspelled on the Monopoly board for almost 80 years?",229,1.604,101,474025.200000003,"[{'event': 'onblur', 'details': 'out of focus', 'performance time': 474509.09999999404, 'date time': 1669838674308}, {'event': 'visibilitychange', 'details': 'hidden', 'performance time': 476936.39999999106, 'date time': 1669838676735}, {'event': 'visibilitychange', 'details': 'visible', 'performance time': 480596.5, 'date time': 1669838680395}, {'event': 'onfocus', 'details': 'in focus', 'performance time': 482539.89999999106, 'date time': 1669838682338}]",,,,483555.09999999404,,,,,HRV,HRV_0272,2022-11-30 20:06:44
Woodrow Wilson,3,Which U.S. president's home was named Shadow Lawn?,356,1.141,102,483555.200000003,,p,K,1880.5,487085.299999997,,,,,HRV,HRV_0272,2022-11-30 20:06:44
Social Security,2,Ida May Fuller was the first U.S. citizen to receive a check for what?,46,1.591,103,487085.299999997,"[{'event': 'onblur', 'details': 'out of focus', 'performance time': 488124.39999999106, 'date time': 1669838687923}, {'event': 'visibilitychange', 'details': 'hidden', 'performance time': 490380.299999997, 'date time': 1669838690179}]",,,,497715.200000003,,,,,HRV,HRV_0272,2022-11-30 20:06:44
Poland,7,What EU nation was once led by a president and a prime minister who were identical twins? ,172,1.638,104,497715.299999997,"[{'event': 'onfocus', 'details': 'in focus', 'performance time': 497991.700000003, 'date time': 1669838697790}, {'event': 'visibilitychange', 'details': 'visible', 'performance time': 498014.200000003, 'date time': 1669838697813}, {'event': 'onblur', 'details': 'out of focus', 'performance time': 498989.5, 'date time': 1669838698788}, {'event': 'visibilitychange', 'details': 'hidden', 'performance time': 498994.799999997, 'date time': 1669838698793}, {'event': 'visibilitychange', 'details': 'visible', 'performance time': 500741.09999999404, 'date time': 1669838700540}, {'event': 'onfocus', 'details': 'in focus', 'performance time': 500742.200000003, 'date time': 1669838700541}]",p,K,3571.0999999940395,503438.09999999404,,,,,HRV,HRV_0272,2022-11-30 20:06:44
Botany Bay,7,"What Pacific inlet was called ""Stingray Bay"" until Captain Cook renamed it for ""the great quantity of plants"" his scientists had discovered?",242,1.059,105,503438.09999999404,,p,K,1812.6000000089407,506822.89999999106,,,,,HRV,HRV_0272,2022-11-30 20:06:44
Zinfindel,6,"What grape, used to make a popular California wine, is called Primitivo in Europe?  ",403,1.792,106,506822.89999999106,,p,K,3503.0,512633.5,,,,,HRV,HRV_0272,2022-11-30 20:06:44
Bacon,2,"In Britain, what kind of meat comes in rashers?",397,0.692,107,512633.5,,p,K,3094.3999999910593,516943.59999999404,,,,,HRV,HRV_0272,2022-11-30 20:06:44
Rechargeable batteries,5,"Three quarters of the cadmium mined annually is used, with nickel, to make what household items?",117,0.551,108,516943.59999999404,"[{'event': 'onblur', 'details': 'out of focus', 'performance time': 521185.700000003, 'date time': 1669838720984}, {'event': 'visibilitychange', 'details': 'hidden', 'performance time': 521196.299999997, 'date time': 1669838720995}]",p,K,3622.4000000059605,521722.89999999106,,,,,HRV,HRV_0272,2022-11-30 20:06:44
Montenegro,1,What European country is named for the dark-looking Dinaric Alps? ,173,0.696,109,521722.89999999106,"[{'event': 'visibilitychange', 'details': 'visible', 'performance time': 526630.099999994, 'date time': 1669838726429}, {'event': 'onfocus', 'details': 'in focus', 'performance time': 526630.599999994, 'date time': 1669838726429}, {'event': 'onblur', 'details': 'out of focus', 'performance time': 527648.200000003, 'date time': 1669838727447}, {'event': 'visibilitychange', 'details': 'hidden', 'performance time': 527656.700000003, 'date time': 1669838727455}]",p,K,5337.600000008941,528718.799999997,,,,,HRV,HRV_0272,2022-11-30 20:06:44
A red giant ,3,"What kind of enormous, cool star will our own sun become in five billion years? ",224,0.531,110,528718.8999999911,,,,,539718.599999994,,,,,HRV,HRV_0272,2022-11-30 20:06:44
"Puffer fish, if they are prepared incorrectly thheir poison could kill the eater. ",2,Cooking which food requires over two years of training?,461,1.933,111,539718.700000003,"[{'event': 'onfocus', 'details': 'in focus', 'performance time': 539721.599999994, 'date time': 1669838739517}, {'event': 'visibilitychange', 'details': 'visible', 'performance time': 539722.299999997, 'date time': 1669838739518}, {'event': 'onblur', 'details': 'out of focus', 'performance time': 542591.5, 'date time': 1669838742387}, {'event': 'visibilitychange', 'details': 'hidden', 'performance time': 542598.099999994, 'date time': 1669838742394}]",q,S,2096.2999999970198,544719.0,,,,,HRV,HRV_0272,2022-11-30 20:06:44
Rhesus antigens (Rh or RhD),7,"What is absent in ""negative"" blood types like O negative and AB negative? ",196,1.642,112,544719.0,,,,,555719.0,,,,,HRV,HRV_0272,2022-11-30 20:06:44
Pressure,6,What is measured in millibars? ,202,0.676,113,555719.0,"[{'event': 'visibilitychange', 'details': 'visible', 'performance time': 564911.8999999911, 'date time': 1669838764707}, {'event': 'onfocus', 'details': 'in focus', 'performance time': 564913.5, 'date time': 1669838764709}]",,,,565728.200000003,,,,,HRV,HRV_0272,2022-11-30 20:06:44
Rod Serling ,5,What famed TV personality wrote the screenplay for 1968's Planet of the Apes? ,175,1.464,114,565728.200000003,"[{'event': 'onblur', 'details': 'out of focus', 'performance time': 567420.8999999911, 'date time': 1669838767217}, {'event': 'visibilitychange', 'details': 'hidden', 'performance time': 567431.5, 'date time': 1669838767227}, {'event': 'visibilitychange', 'details': 'visible', 'performance time': 571219.700000003, 'date time': 1669838771015}, {'event': 'onfocus', 'details': 'in focus', 'performance time': 571221.3999999911, 'date time': 1669838771017}, {'event': 'onblur', 'details': 'out of focus', 'performance time': 572088.099999994, 'date time': 1669838771884}, {'event': 'visibilitychange', 'details': 'hidden', 'performance time': 572098.3999999911, 'date time': 1669838771894}]",p,K,5739.29999999702,573718.3999999911,,,,,HRV,HRV_0272,2022-11-30 20:06:44
Sugar-sweetened beverages are likely the most fattening becaause they are not registered as consumed calories. ,6,What is the most fattening product in the modern diet?,457,1.025,115,573718.3999999911,"[{'event': 'visibilitychange', 'details': 'visible', 'performance time': 579114.799999997, 'date time': 1669838778910}, {'event': 'onfocus', 'details': 'in focus', 'performance time': 579118.5, 'date time': 1669838778914}, {'event': 'onblur', 'details': 'out of focus', 'performance time': 580171.099999994, 'date time': 1669838779967}, {'event': 'visibilitychange', 'details': 'hidden', 'performance time': 580179.599999994, 'date time': 1669838779975}]",p,K,5738.4000000059605,581714.200000003,,,,,HRV,HRV_0272,2022-11-30 20:06:44
The names of the Great Lakes ,5,"What are you trying to remember if you use the mnemonic ""HOMES""?  ",138,0.532,116,581714.200000003,,,,,592710.299999997,,,,,HRV,HRV_0272,2022-11-30 20:06:44
Lolita by Vladimir Nabokov,3,"""Don't Stand So Close to Me"" by the Police was inspired by what literary work?",3,0.901,117,592710.299999997,"[{'event': 'visibilitychange', 'details': 'visible', 'performance time': 598884.5, 'date time': 1669838798680}, {'event': 'onfocus', 'details': 'in focus', 'performance time': 598886.3999999911, 'date time': 1669838798682}, {'event': 'onblur', 'details': 'out of focus', 'performance time': 600076.700000003, 'date time': 1669838799874}, {'event': 'visibilitychange', 'details': 'hidden', 'performance time': 600084.099999994, 'date time': 1669838799881}]",p,K,6847.5999999940395,601720.299999997,,,,,HRV,HRV_0272,2022-11-30 20:06:44
