trialN,stimuli,trialStartTime,trialStartTime_UNIX,stimulus1,stimulus2,stimulus1Bid,stimulus2Bid,delta,trialEvents,selected,rt,rt_UNIX,rt_perfnow,receivedResponse,rsp,trialEndTime,trialDuration,trialEndTime_UNIX,trialDuration_UNIX,exp,subjectId,date
0,"[{'imgObject': {}, 'id': 'yogurt no spoon', 'src': '/static/foodstim60/yogurt no spoon.jpg', 'key': 'u', 'origWidth': 411, 'origHeight': 410, 'width': 411, 'height': 410, 'widthPercent': 0.45, 'rescaleHeight': False, 'trialN': 0, 'loaded': True, 'loadedTime': 3085.5, 'positionName': 'LEFT', 'positionCoords': [326.28, 227], 'bid': 8.56}, {'imgObject': {}, 'id': 'grilled chicken strips', 'src': '/static/foodstim60/grilled chicken strips.jpg', 'key': 'i', 'origWidth': 410, 'origHeight': 411, 'width': 410, 'height': 411, 'widthPercent': 0.45, 'rescaleHeight': False, 'trialN': 0, 'loaded': True, 'loadedTime': 3085.699999988079, 'positionName': 'RIGHT', 'positionCoords': [798.72, 226.5], 'bid': 8.63}]",3728.0999999940395,1669837738836,yogurt no spoon,grilled chicken strips,8.56,8.63,0.07000000000000028,"[{'event': 'fullscreenchange', 'details': 'fullscreenexit', 'performance time': 3801.699999988079, 'date time': 1669837738909}]",yogurt no spoon,779.5,780,780.2000000029802,True,u,5009.699999988079,1281.5999999940395,1669837740117,1281,HRV,HRV_0272,2022-11-30 19:51:52
1,"[{'imgObject': {}, 'id': 'chickenfingers', 'src': '/static/foodstim60/chickenfingers.jpg', 'key': 'u', 'origWidth': 410, 'origHeight': 410, 'width': 410, 'height': 410, 'widthPercent': 0.45, 'rescaleHeight': False, 'trialN': 1, 'loaded': True, 'loadedTime': 5011, 'positionName': 'LEFT', 'positionCoords': [327.28, 156], 'bid': 7.77}, {'imgObject': {}, 'id': 'cheerios', 'src': '/static/foodstim60/cheerios.jpg', 'key': 'i', 'origWidth': 409, 'origHeight': 410, 'width': 409, 'height': 410, 'widthPercent': 0.45, 'rescaleHeight': False, 'trialN': 1, 'loaded': True, 'loadedTime': 5011.29999999702, 'positionName': 'RIGHT', 'positionCoords': [798.72, 156], 'bid': 8}]",5010.199999988079,1669837740118,chickenfingers,cheerios,7.77,8.0,0.23000000000000043,,cheerios,388.6000000089407,389,389.20000000298023,True,i,5907.199999988079,897.0,1669837741015,897,HRV,HRV_0272,2022-11-30 19:51:52
2,"[{'imgObject': {}, 'id': 'edamame', 'src': '/static/foodstim60/edamame.jpg', 'key': 'u', 'origWidth': 409, 'origHeight': 410, 'width': 409, 'height': 410, 'widthPercent': 0.45, 'rescaleHeight': False, 'trialN': 2, 'loaded': True, 'loadedTime': 5909.0999999940395, 'positionName': 'LEFT', 'positionCoords': [328.28, 156], 'bid': 8.120000000000001}, {'imgObject': {}, 'id': 'cocktailshrimp', 'src': '/static/foodstim60/cocktailshrimp.jpg', 'key': 'i', 'origWidth': 410, 'origHeight': 410, 'width': 410, 'height': 410, 'widthPercent': 0.45, 'rescaleHeight': False, 'trialN': 2, 'loaded': True, 'loadedTime': 5910.0999999940395, 'positionName': 'RIGHT', 'positionCoords': [798.72, 156], 'bid': 9.24}]",5907.899999991059,1669837741016,edamame,cocktailshrimp,8.120000000000001,9.24,1.1199999999999992,,cocktailshrimp,476.79999999701977,477,477.29999999701977,True,i,6887.699999988079,979.7999999970198,1669837741995,979,HRV,HRV_0272,2022-11-30 19:51:52
3,"[{'imgObject': {}, 'id': 'mashed potato', 'src': '/static/foodstim60/mashed potato.jpg', 'key': 'u', 'origWidth': 409, 'origHeight': 409, 'width': 409, 'height': 409, 'widthPercent': 0.45, 'rescaleHeight': False, 'trialN': 3, 'loaded': True, 'loadedTime': 6889.0999999940395, 'positionName': 'LEFT', 'positionCoords': [328.28, 156.5], 'bid': 9.01}, {'imgObject': {}, 'id': 'apple slices', 'src': '/static/foodstim60/apple slices.jpg', 'key': 'i', 'origWidth': 409, 'origHeight': 410, 'width': 409, 'height': 410, 'widthPercent': 0.45, 'rescaleHeight': False, 'trialN': 3, 'loaded': True, 'loadedTime': 6889.399999991059, 'positionName': 'RIGHT', 'positionCoords': [798.72, 156], 'bid': 8.69}]",6888.199999988079,1669837741996,mashed potato,apple slices,9.01,8.69,-0.3200000000000003,,apple slices,136,136,136.40000000596046,True,i,7537.199999988079,649.0,1669837742645,649,HRV,HRV_0272,2022-11-30 19:51:52
4,"[{'imgObject': {}, 'id': 'raisin bran w milk', 'src': '/static/foodstim60/raisin bran w milk.jpg', 'key': 'u', 'origWidth': 411, 'origHeight': 411, 'width': 411, 'height': 411, 'widthPercent': 0.45, 'rescaleHeight': False, 'trialN': 4, 'loaded': True, 'loadedTime': 7539.899999991059, 'positionName': 'LEFT', 'positionCoords': [326.28, 155.5], 'bid': 7.3}, {'imgObject': {}, 'id': 'raspberries', 'src': '/static/foodstim60/raspberries.jpg', 'key': 'i', 'origWidth': 411, 'origHeight': 411, 'width': 411, 'height': 411, 'widthPercent': 0.45, 'rescaleHeight': False, 'trialN': 4, 'loaded': True, 'loadedTime': 7540.399999991059, 'positionName': 'RIGHT', 'positionCoords': [798.72, 155.5], 'bid': 7.43}]",7537.899999991059,1669837742646,raisin bran w milk,raspberries,7.3,7.43,0.1299999999999999,,raisin bran w milk,245.5,246,246.1000000089407,True,u,8297.0,759.1000000089407,1669837743405,759,HRV,HRV_0272,2022-11-30 19:51:52
5,"[{'imgObject': {}, 'id': 'blueberries', 'src': '/static/foodstim60/blueberries.jpg', 'key': 'u', 'origWidth': 411, 'origHeight': 411, 'width': 411, 'height': 411, 'widthPercent': 0.45, 'rescaleHeight': False, 'trialN': 5, 'loaded': True, 'loadedTime': 8298.59999999404, 'positionName': 'LEFT', 'positionCoords': [326.28, 155.5], 'bid': 8.02}, {'imgObject': {}, 'id': 'turkeysandwich', 'src': '/static/foodstim60/turkeysandwich.jpg', 'key': 'i', 'origWidth': 409, 'origHeight': 409, 'width': 409, 'height': 409, 'widthPercent': 0.45, 'rescaleHeight': False, 'trialN': 5, 'loaded': True, 'loadedTime': 8300, 'positionName': 'RIGHT', 'positionCoords': [798.72, 156.5], 'bid': 8.07}]",8297.59999999404,1669837743405,blueberries,turkeysandwich,8.02,8.07,0.05000000000000071,,turkeysandwich,449.5,450,449.79999999701977,True,i,9250.09999999404,952.5,1669837744358,953,HRV,HRV_0272,2022-11-30 19:51:52
6,"[{'imgObject': {}, 'id': 'mac & cheese', 'src': '/static/foodstim60/mac & cheese.jpg', 'key': 'u', 'origWidth': 410, 'origHeight': 410, 'width': 410, 'height': 410, 'widthPercent': 0.45, 'rescaleHeight': False, 'trialN': 6, 'loaded': True, 'loadedTime': 9252.5, 'positionName': 'LEFT', 'positionCoords': [327.28, 156], 'bid': 8.65}, {'imgObject': {}, 'id': 'raspberries', 'src': '/static/foodstim60/raspberries.jpg', 'key': 'i', 'origWidth': 411, 'origHeight': 411, 'width': 411, 'height': 411, 'widthPercent': 0.45, 'rescaleHeight': False, 'trialN': 6, 'loaded': True, 'loadedTime': 9252.89999999106, 'positionName': 'RIGHT', 'positionCoords': [798.72, 155.5], 'bid': 7.43}]",9250.59999999404,1669837744358,mac & cheese,raspberries,8.65,7.43,-1.2200000000000006,,mac & cheese,322.90000000596046,324,323.40000000596046,True,u,10097.39999999106,846.7999999970198,1669837745205,847,HRV,HRV_0272,2022-11-30 19:51:52
7,"[{'imgObject': {}, 'id': 'blackbeanswithrice', 'src': '/static/foodstim60/blackbeanswithrice.jpg', 'key': 'u', 'origWidth': 410, 'origHeight': 410, 'width': 410, 'height': 410, 'widthPercent': 0.45, 'rescaleHeight': False, 'trialN': 7, 'loaded': True, 'loadedTime': 10100.29999999702, 'positionName': 'LEFT', 'positionCoords': [327.28, 156], 'bid': 7.86}, {'imgObject': {}, 'id': 'salmon', 'src': '/static/foodstim60/salmon.jpg', 'key': 'i', 'origWidth': 410, 'origHeight': 409, 'width': 410, 'height': 409, 'widthPercent': 0.45, 'rescaleHeight': False, 'trialN': 7, 'loaded': True, 'loadedTime': 10101, 'positionName': 'RIGHT', 'positionCoords': [798.72, 156.5], 'bid': 7.03}]",10098.09999999404,1669837745206,blackbeanswithrice,salmon,7.86,7.03,-0.8300000000000001,,salmon,254.59999999403954,255,255.09999999403954,True,i,10857.199999988079,759.0999999940395,1669837745965,759,HRV,HRV_0272,2022-11-30 19:51:52
8,"[{'imgObject': {}, 'id': 'bagel plain', 'src': '/static/foodstim60/bagel plain.jpg', 'key': 'u', 'origWidth': 410, 'origHeight': 410, 'width': 410, 'height': 410, 'widthPercent': 0.45, 'rescaleHeight': False, 'trialN': 8, 'loaded': True, 'loadedTime': 10859.5, 'positionName': 'LEFT', 'positionCoords': [327.28, 156], 'bid': 9.02}, {'imgObject': {}, 'id': 'yogurt no spoon', 'src': '/static/foodstim60/yogurt no spoon.jpg', 'key': 'i', 'origWidth': 411, 'origHeight': 410, 'width': 411, 'height': 410, 'widthPercent': 0.45, 'rescaleHeight': False, 'trialN': 8, 'loaded': True, 'loadedTime': 10860, 'positionName': 'RIGHT', 'positionCoords': [798.72, 156], 'bid': 8.56}]",10857.699999988079,1669837745965,bagel plain,yogurt no spoon,9.02,8.56,-0.4599999999999991,,bagel plain,379.20000000298023,380,379.6000000089407,True,u,11757.59999999404,899.9000000059605,1669837746865,900,HRV,HRV_0272,2022-11-30 19:51:52
9,"[{'imgObject': {}, 'id': 'strawberries', 'src': '/static/foodstim60/strawberries.jpg', 'key': 'u', 'origWidth': 410, 'origHeight': 410, 'width': 410, 'height': 410, 'widthPercent': 0.45, 'rescaleHeight': False, 'trialN': 9, 'loaded': True, 'loadedTime': 11760.09999999404, 'positionName': 'LEFT', 'positionCoords': [327.28, 156], 'bid': 8.64}, {'imgObject': {}, 'id': 'burrito', 'src': '/static/foodstim60/burrito.jpg', 'key': 'i', 'origWidth': 410, 'origHeight': 410, 'width': 410, 'height': 410, 'widthPercent': 0.45, 'rescaleHeight': False, 'trialN': 9, 'loaded': True, 'loadedTime': 11760.39999999106, 'positionName': 'RIGHT', 'positionCoords': [798.72, 156], 'bid': 9.15}]",11758.199999988079,1669837746866,strawberries,burrito,8.64,9.15,0.5099999999999998,,burrito,438.40000000596046,439,438.80000001192093,True,i,12717.199999988079,959.0,1669837747825,959,HRV,HRV_0272,2022-11-30 19:51:52
10,"[{'imgObject': {}, 'id': 'rigatoni and sauce', 'src': '/static/foodstim60/rigatoni and sauce.jpg', 'key': 'u', 'origWidth': 410, 'origHeight': 411, 'width': 410, 'height': 411, 'widthPercent': 0.45, 'rescaleHeight': False, 'trialN': 10, 'loaded': True, 'loadedTime': 12720.39999999106, 'positionName': 'LEFT', 'positionCoords': [327.28, 155.5], 'bid': 9.28}, {'imgObject': {}, 'id': 'veggieswithdip', 'src': '/static/foodstim60/veggieswithdip.jpg', 'key': 'i', 'origWidth': 409, 'origHeight': 409, 'width': 409, 'height': 409, 'widthPercent': 0.45, 'rescaleHeight': False, 'trialN': 10, 'loaded': True, 'loadedTime': 12720.79999999702, 'positionName': 'RIGHT', 'positionCoords': [798.72, 156.5], 'bid': 8.69}]",12717.89999999106,1669837747826,rigatoni and sauce,veggieswithdip,9.28,8.69,-0.5899999999999999,,rigatoni and sauce,302.40000000596046,302,302.79999999701977,True,u,13537.199999988079,819.2999999970198,1669837748645,819,HRV,HRV_0272,2022-11-30 19:51:52
11,"[{'imgObject': {}, 'id': 'Grapes', 'src': '/static/foodstim60/Grapes.jpg', 'key': 'u', 'origWidth': 411, 'origHeight': 411, 'width': 411, 'height': 411, 'widthPercent': 0.45, 'rescaleHeight': False, 'trialN': 11, 'loaded': True, 'loadedTime': 13539.59999999404, 'positionName': 'LEFT', 'positionCoords': [326.28, 155.5], 'bid': 8.51}, {'imgObject': {}, 'id': 'pear', 'src': '/static/foodstim60/pear.jpg', 'key': 'i', 'origWidth': 411, 'origHeight': 410, 'width': 411, 'height': 410, 'widthPercent': 0.45, 'rescaleHeight': False, 'trialN': 11, 'loaded': True, 'loadedTime': 13539.89999999106, 'positionName': 'RIGHT', 'positionCoords': [798.72, 156], 'bid': 8.43}]",13537.79999999702,1669837748645,Grapes,pear,8.51,8.43,-0.08000000000000007,,Grapes,497.09999999403954,498,497.5,True,u,14542.199999988079,1004.3999999910593,1669837749650,1005,HRV,HRV_0272,2022-11-30 19:51:52
12,"[{'imgObject': {}, 'id': 'cherries', 'src': '/static/foodstim60/cherries.jpg', 'key': 'u', 'origWidth': 410, 'origHeight': 411, 'width': 410, 'height': 411, 'widthPercent': 0.45, 'rescaleHeight': False, 'trialN': 12, 'loaded': True, 'loadedTime': 14544.59999999404, 'positionName': 'LEFT', 'positionCoords': [327.28, 155.5], 'bid': 7.65}, {'imgObject': {}, 'id': 'mango', 'src': '/static/foodstim60/mango.jpg', 'key': 'i', 'origWidth': 411, 'origHeight': 411, 'width': 411, 'height': 411, 'widthPercent': 0.45, 'rescaleHeight': False, 'trialN': 12, 'loaded': True, 'loadedTime': 14545, 'positionName': 'RIGHT', 'positionCoords': [798.72, 155.5], 'bid': 7.94}]",14542.79999999702,1669837749650,cherries,mango,7.65,7.94,0.29000000000000004,,mango,183.3999999910593,184,183.8999999910593,True,i,15237.199999988079,694.3999999910593,1669837750345,695,HRV,HRV_0272,2022-11-30 19:51:52
13,"[{'imgObject': {}, 'id': 'fruitsalad', 'src': '/static/foodstim60/fruitsalad.jpg', 'key': 'u', 'origWidth': 410, 'origHeight': 410, 'width': 410, 'height': 410, 'widthPercent': 0.45, 'rescaleHeight': False, 'trialN': 13, 'loaded': True, 'loadedTime': 15239.199999988079, 'positionName': 'LEFT', 'positionCoords': [327.28, 156], 'bid': 9.36}, {'imgObject': {}, 'id': 'kiwi', 'src': '/static/foodstim60/kiwi.jpg', 'key': 'i', 'origWidth': 410, 'origHeight': 410, 'width': 410, 'height': 410, 'widthPercent': 0.45, 'rescaleHeight': False, 'trialN': 13, 'loaded': True, 'loadedTime': 15239.59999999404, 'positionName': 'RIGHT', 'positionCoords': [798.72, 156], 'bid': 8.71}]",15237.59999999404,1669837750345,fruitsalad,kiwi,9.36,8.71,-0.6499999999999986,,fruitsalad,425.5,426,425.70000000298023,True,u,16177.39999999106,939.7999999970198,1669837751285,940,HRV,HRV_0272,2022-11-30 19:51:52
14,"[{'imgObject': {}, 'id': 'cherries', 'src': '/static/foodstim60/cherries.jpg', 'key': 'u', 'origWidth': 410, 'origHeight': 411, 'width': 410, 'height': 411, 'widthPercent': 0.45, 'rescaleHeight': False, 'trialN': 14, 'loaded': True, 'loadedTime': 16179.59999999404, 'positionName': 'LEFT', 'positionCoords': [327.28, 155.5], 'bid': 7.65}, {'imgObject': {}, 'id': 'eggs', 'src': '/static/foodstim60/eggs.jpg', 'key': 'i', 'origWidth': 409, 'origHeight': 409, 'width': 409, 'height': 409, 'widthPercent': 0.45, 'rescaleHeight': False, 'trialN': 14, 'loaded': True, 'loadedTime': 16180.09999999404, 'positionName': 'RIGHT', 'positionCoords': [798.72, 156.5], 'bid': 7.05}]",16177.89999999106,1669837751286,cherries,eggs,7.65,7.05,-0.6000000000000005,,eggs,363.90000000596046,364,364.40000000596046,True,i,17057.5,879.6000000089407,1669837752165,879,HRV,HRV_0272,2022-11-30 19:51:52
15,"[{'imgObject': {}, 'id': 'pear', 'src': '/static/foodstim60/pear.jpg', 'key': 'u', 'origWidth': 411, 'origHeight': 410, 'width': 411, 'height': 410, 'widthPercent': 0.45, 'rescaleHeight': False, 'trialN': 15, 'loaded': True, 'loadedTime': 17059.79999999702, 'positionName': 'LEFT', 'positionCoords': [326.28, 156], 'bid': 8.43}, {'imgObject': {}, 'id': 'orange slices', 'src': '/static/foodstim60/orange slices.jpg', 'key': 'i', 'origWidth': 409, 'origHeight': 410, 'width': 409, 'height': 410, 'widthPercent': 0.45, 'rescaleHeight': False, 'trialN': 15, 'loaded': True, 'loadedTime': 17060.19999998808, 'positionName': 'RIGHT', 'positionCoords': [798.72, 156], 'bid': 8.9}]",17058.0,1669837752166,pear,orange slices,8.43,8.9,0.47000000000000064,,pear,411.19999998807907,411,411.59999999403954,True,u,17977.5,919.5,1669837753085,919,HRV,HRV_0272,2022-11-30 19:51:52
16,"[{'imgObject': {}, 'id': 'tacos', 'src': '/static/foodstim60/tacos.jpg', 'key': 'u', 'origWidth': 411, 'origHeight': 411, 'width': 411, 'height': 411, 'widthPercent': 0.45, 'rescaleHeight': False, 'trialN': 16, 'loaded': True, 'loadedTime': 17979.79999999702, 'positionName': 'LEFT', 'positionCoords': [326.28, 155.5], 'bid': 8.22}, {'imgObject': {}, 'id': 'grilled chicken strips', 'src': '/static/foodstim60/grilled chicken strips.jpg', 'key': 'i', 'origWidth': 410, 'origHeight': 411, 'width': 410, 'height': 411, 'widthPercent': 0.45, 'rescaleHeight': False, 'trialN': 16, 'loaded': True, 'loadedTime': 17980.19999998808, 'positionName': 'RIGHT', 'positionCoords': [798.72, 155.5], 'bid': 8.63}]",17978.0,1669837753086,tacos,grilled chicken strips,8.22,8.63,0.41000000000000014,,grilled chicken strips,383.79999999701977,385,385.0,True,i,18877.5,899.5,1669837753985,899,HRV,HRV_0272,2022-11-30 19:51:52
17,"[{'imgObject': {}, 'id': 'sushi w_condiments', 'src': '/static/foodstim60/sushi w_condiments.jpg', 'key': 'u', 'origWidth': 410, 'origHeight': 410, 'width': 410, 'height': 410, 'widthPercent': 0.45, 'rescaleHeight': False, 'trialN': 17, 'loaded': True, 'loadedTime': 18879.89999999106, 'positionName': 'LEFT', 'positionCoords': [327.28, 156], 'bid': 7.96}, {'imgObject': {}, 'id': 'rigatoni', 'src': '/static/foodstim60/rigatoni.jpg', 'key': 'i', 'origWidth': 411, 'origHeight': 411, 'width': 411, 'height': 411, 'widthPercent': 0.45, 'rescaleHeight': False, 'trialN': 17, 'loaded': True, 'loadedTime': 18880.59999999404, 'positionName': 'RIGHT', 'positionCoords': [798.72, 155.5], 'bid': 7.66}]",18878.0,1669837753986,sushi w_condiments,rigatoni,7.96,7.66,-0.2999999999999998,,sushi w_condiments,372.29999999701977,372,372.69999998807907,True,u,19756.39999999106,878.3999999910593,1669837754864,878,HRV,HRV_0272,2022-11-30 19:51:52
18,"[{'imgObject': {}, 'id': 'fruitsalad', 'src': '/static/foodstim60/fruitsalad.jpg', 'key': 'u', 'origWidth': 410, 'origHeight': 410, 'width': 410, 'height': 410, 'widthPercent': 0.45, 'rescaleHeight': False, 'trialN': 18, 'loaded': True, 'loadedTime': 19758.19999998808, 'positionName': 'LEFT', 'positionCoords': [327.28, 156], 'bid': 9.36}, {'imgObject': {}, 'id': 'cocktailshrimp', 'src': '/static/foodstim60/cocktailshrimp.jpg', 'key': 'i', 'origWidth': 410, 'origHeight': 410, 'width': 410, 'height': 410, 'widthPercent': 0.45, 'rescaleHeight': False, 'trialN': 18, 'loaded': True, 'loadedTime': 19758.59999999404, 'positionName': 'RIGHT', 'positionCoords': [798.72, 156], 'bid': 9.24}]",19756.79999999702,1669837754864,fruitsalad,cocktailshrimp,9.36,9.24,-0.11999999999999922,,cocktailshrimp,292.20000000298023,293,292.59999999403954,True,i,20557.5,800.7000000029802,1669837755665,801,HRV,HRV_0272,2022-11-30 19:51:52
19,"[{'imgObject': {}, 'id': 'mango', 'src': '/static/foodstim60/mango.jpg', 'key': 'u', 'origWidth': 411, 'origHeight': 411, 'width': 411, 'height': 411, 'widthPercent': 0.45, 'rescaleHeight': False, 'trialN': 19, 'loaded': True, 'loadedTime': 20560.5, 'positionName': 'LEFT', 'positionCoords': [326.28, 155.5], 'bid': 7.94}, {'imgObject': {}, 'id': 'shreddedwheatwithmilk', 'src': '/static/foodstim60/shreddedwheatwithmilk.jpg', 'key': 'i', 'origWidth': 410, 'origHeight': 410, 'width': 410, 'height': 410, 'widthPercent': 0.45, 'rescaleHeight': False, 'trialN': 19, 'loaded': True, 'loadedTime': 20560.79999999702, 'positionName': 'RIGHT', 'positionCoords': [798.72, 156], 'bid': 7.07}]",20558.59999999404,1669837755666,mango,shreddedwheatwithmilk,7.94,7.07,-0.8700000000000001,,mango,295.90000000596046,297,296.79999999701977,True,u,21375.39999999106,816.7999999970198,1669837756483,817,HRV,HRV_0272,2022-11-30 19:51:52
20,"[{'imgObject': {}, 'id': 'ice cream sundae 002', 'src': '/static/foodstim60/ice cream sundae 002.jpg', 'key': 'u', 'origWidth': 409, 'origHeight': 409, 'width': 409, 'height': 409, 'widthPercent': 0.45, 'rescaleHeight': False, 'trialN': 20, 'loaded': True, 'loadedTime': 21377, 'positionName': 'LEFT', 'positionCoords': [328.28, 156.5], 'bid': 7.98}, {'imgObject': {}, 'id': 'sweetpotato', 'src': '/static/foodstim60/sweetpotato.jpg', 'key': 'i', 'origWidth': 410, 'origHeight': 410, 'width': 410, 'height': 410, 'widthPercent': 0.45, 'rescaleHeight': False, 'trialN': 20, 'loaded': True, 'loadedTime': 21377.29999999702, 'positionName': 'RIGHT', 'positionCoords': [798.72, 156], 'bid': 8.41}]",21375.69999998808,1669837756483,ice cream sundae 002,sweetpotato,7.98,8.41,0.4299999999999997,,ice cream sundae 002,100.90000000596046,102,101.40000000596046,True,u,21987.5,611.8000000119209,1669837757095,612,HRV,HRV_0272,2022-11-30 19:51:52
21,"[{'imgObject': {}, 'id': 'froot loops w milk', 'src': '/static/foodstim60/froot loops w milk.jpg', 'key': 'u', 'origWidth': 410, 'origHeight': 410, 'width': 410, 'height': 410, 'widthPercent': 0.45, 'rescaleHeight': False, 'trialN': 21, 'loaded': True, 'loadedTime': 21990.09999999404, 'positionName': 'LEFT', 'positionCoords': [327.28, 156], 'bid': 9.2}, {'imgObject': {}, 'id': 'rigatoni and sauce', 'src': '/static/foodstim60/rigatoni and sauce.jpg', 'key': 'i', 'origWidth': 410, 'origHeight': 411, 'width': 410, 'height': 411, 'widthPercent': 0.45, 'rescaleHeight': False, 'trialN': 21, 'loaded': True, 'loadedTime': 21990.29999999702, 'positionName': 'RIGHT', 'positionCoords': [798.72, 155.5], 'bid': 9.28}]",21988.09999999404,1669837757096,froot loops w milk,rigatoni and sauce,9.2,9.28,0.08000000000000007,,rigatoni and sauce,396.79999999701977,397,397.20000000298023,True,i,22897.5,909.4000000059605,1669837758005,909,HRV,HRV_0272,2022-11-30 19:51:52
22,"[{'imgObject': {}, 'id': 'burrito', 'src': '/static/foodstim60/burrito.jpg', 'key': 'u', 'origWidth': 410, 'origHeight': 410, 'width': 410, 'height': 410, 'widthPercent': 0.45, 'rescaleHeight': False, 'trialN': 22, 'loaded': True, 'loadedTime': 22899.69999998808, 'positionName': 'LEFT', 'positionCoords': [327.28, 156], 'bid': 9.15}, {'imgObject': {}, 'id': 'olives', 'src': '/static/foodstim60/olives.jpg', 'key': 'i', 'origWidth': 410, 'origHeight': 410, 'width': 410, 'height': 410, 'widthPercent': 0.45, 'rescaleHeight': False, 'trialN': 22, 'loaded': True, 'loadedTime': 22900.39999999106, 'positionName': 'RIGHT', 'positionCoords': [798.72, 156], 'bid': 8.93}]",22898.0,1669837758006,burrito,olives,9.15,8.93,-0.22000000000000064,,burrito,281.09999999403954,282,281.8999999910593,True,u,23687.19999998808,789.1999999880791,1669837758795,789,HRV,HRV_0272,2022-11-30 19:51:52
23,"[{'imgObject': {}, 'id': 'chicken nuggets2', 'src': '/static/foodstim60/chicken nuggets2.jpg', 'key': 'u', 'origWidth': 410, 'origHeight': 409, 'width': 410, 'height': 409, 'widthPercent': 0.45, 'rescaleHeight': False, 'trialN': 23, 'loaded': True, 'loadedTime': 23688.79999999702, 'positionName': 'LEFT', 'positionCoords': [327.28, 156.5], 'bid': 8.950000000000001}, {'imgObject': {}, 'id': 'strawberries', 'src': '/static/foodstim60/strawberries.jpg', 'key': 'i', 'origWidth': 410, 'origHeight': 410, 'width': 410, 'height': 410, 'widthPercent': 0.45, 'rescaleHeight': False, 'trialN': 23, 'loaded': True, 'loadedTime': 23689.19999998808, 'positionName': 'RIGHT', 'positionCoords': [798.72, 156], 'bid': 8.64}]",23687.59999999404,1669837758795,chicken nuggets2,strawberries,8.950000000000001,8.64,-0.3100000000000005,,strawberries,475,476,475.40000000596046,True,i,24672.09999999404,984.5,1669837759780,985,HRV,HRV_0272,2022-11-30 19:51:52
24,"[{'imgObject': {}, 'id': 'turkey sandwich', 'src': '/static/foodstim60/turkey sandwich.jpg', 'key': 'u', 'origWidth': 409, 'origHeight': 409, 'width': 409, 'height': 409, 'widthPercent': 0.45, 'rescaleHeight': False, 'trialN': 24, 'loaded': True, 'loadedTime': 24673.79999999702, 'positionName': 'LEFT', 'positionCoords': [328.28, 156.5], 'bid': 7.86}, {'imgObject': {}, 'id': 'raisin bran w milk', 'src': '/static/foodstim60/raisin bran w milk.jpg', 'key': 'i', 'origWidth': 411, 'origHeight': 411, 'width': 411, 'height': 411, 'widthPercent': 0.45, 'rescaleHeight': False, 'trialN': 24, 'loaded': True, 'loadedTime': 24674.09999999404, 'positionName': 'RIGHT', 'positionCoords': [798.72, 155.5], 'bid': 7.3}]",24672.5,1669837759780,turkey sandwich,raisin bran w milk,7.86,7.3,-0.5600000000000005,,turkey sandwich,217.8999999910593,219,218.29999999701977,True,u,25397.0,724.5,1669837760505,725,HRV,HRV_0272,2022-11-30 19:51:52
25,"[{'imgObject': {}, 'id': 'granola w milk', 'src': '/static/foodstim60/granola w milk.jpg', 'key': 'u', 'origWidth': 410, 'origHeight': 410, 'width': 410, 'height': 410, 'widthPercent': 0.45, 'rescaleHeight': False, 'trialN': 25, 'loaded': True, 'loadedTime': 25400.29999999702, 'positionName': 'LEFT', 'positionCoords': [327.28, 156], 'bid': 7.5}, {'imgObject': {}, 'id': 'bagel and cc', 'src': '/static/foodstim60/bagel and cc.jpg', 'key': 'i', 'origWidth': 410, 'origHeight': 410, 'width': 410, 'height': 410, 'widthPercent': 0.45, 'rescaleHeight': False, 'trialN': 25, 'loaded': True, 'loadedTime': 25401, 'positionName': 'RIGHT', 'positionCoords': [798.72, 156], 'bid': 7.43}]",25397.89999999106,1669837760506,granola w milk,bagel and cc,7.5,7.43,-0.07000000000000028,,bagel and cc,386.5,387,386.90000000596046,True,i,26297.59999999404,899.7000000029802,1669837761405,899,HRV,HRV_0272,2022-11-30 19:51:52
26,"[{'imgObject': {}, 'id': 'burrito', 'src': '/static/foodstim60/burrito.jpg', 'key': 'u', 'origWidth': 410, 'origHeight': 410, 'width': 410, 'height': 410, 'widthPercent': 0.45, 'rescaleHeight': False, 'trialN': 26, 'loaded': True, 'loadedTime': 26300, 'positionName': 'LEFT', 'positionCoords': [327.28, 156], 'bid': 9.15}, {'imgObject': {}, 'id': 'omelette', 'src': '/static/foodstim60/omelette.jpg', 'key': 'i', 'origWidth': 410, 'origHeight': 409, 'width': 410, 'height': 409, 'widthPercent': 0.45, 'rescaleHeight': False, 'trialN': 26, 'loaded': True, 'loadedTime': 26300.59999999404, 'positionName': 'RIGHT', 'positionCoords': [798.72, 156.5], 'bid': 8.03}]",26298.19999998808,1669837761406,burrito,omelette,9.15,8.03,-1.120000000000001,,burrito,377.30000001192093,378,377.80000001192093,True,u,27197.5,899.3000000119209,1669837762305,899,HRV,HRV_0272,2022-11-30 19:51:52
27,"[{'imgObject': {}, 'id': 'cocktailshrimp', 'src': '/static/foodstim60/cocktailshrimp.jpg', 'key': 'u', 'origWidth': 410, 'origHeight': 410, 'width': 410, 'height': 410, 'widthPercent': 0.45, 'rescaleHeight': False, 'trialN': 27, 'loaded': True, 'loadedTime': 27199.79999999702, 'positionName': 'LEFT', 'positionCoords': [327.28, 156], 'bid': 9.24}, {'imgObject': {}, 'id': 'avocado', 'src': '/static/foodstim60/avocado.jpg', 'key': 'i', 'origWidth': 409, 'origHeight': 409, 'width': 409, 'height': 409, 'widthPercent': 0.45, 'rescaleHeight': False, 'trialN': 27, 'loaded': True, 'loadedTime': 27200.19999998808, 'positionName': 'RIGHT', 'positionCoords': [798.72, 156.5], 'bid': 8.84}]",27198.0,1669837762306,cocktailshrimp,avocado,9.24,8.84,-0.40000000000000036,,avocado,138.29999999701977,138,138.79999999701977,True,i,27857.59999999404,659.5999999940395,1669837762965,659,HRV,HRV_0272,2022-11-30 19:51:52
28,"[{'imgObject': {}, 'id': 'hashbrowns', 'src': '/static/foodstim60/hashbrowns.jpg', 'key': 'u', 'origWidth': 411, 'origHeight': 410, 'width': 411, 'height': 410, 'widthPercent': 0.45, 'rescaleHeight': False, 'trialN': 28, 'loaded': True, 'loadedTime': 27859.79999999702, 'positionName': 'LEFT', 'positionCoords': [326.28, 156], 'bid': 7.09}, {'imgObject': {}, 'id': 'roastedpotatoes', 'src': '/static/foodstim60/roastedpotatoes.jpg', 'key': 'i', 'origWidth': 409, 'origHeight': 410, 'width': 409, 'height': 410, 'widthPercent': 0.45, 'rescaleHeight': False, 'trialN': 28, 'loaded': True, 'loadedTime': 27860.19999998808, 'positionName': 'RIGHT', 'positionCoords': [798.72, 156], 'bid': 8.540000000000001}]",27858.0,1669837762966,hashbrowns,roastedpotatoes,7.09,8.540000000000001,1.450000000000001,,hashbrowns,266,266,266.3999999910593,True,u,28647.5,789.5,1669837763755,789,HRV,HRV_0272,2022-11-30 19:51:52
29,"[{'imgObject': {}, 'id': 'burger', 'src': '/static/foodstim60/burger.jpg', 'key': 'u', 'origWidth': 409, 'origHeight': 409, 'width': 409, 'height': 409, 'widthPercent': 0.45, 'rescaleHeight': False, 'trialN': 29, 'loaded': True, 'loadedTime': 28649.89999999106, 'positionName': 'LEFT', 'positionCoords': [328.28, 156.5], 'bid': 8.98}, {'imgObject': {}, 'id': 'roastedpotatoes', 'src': '/static/foodstim60/roastedpotatoes.jpg', 'key': 'i', 'origWidth': 409, 'origHeight': 410, 'width': 409, 'height': 410, 'widthPercent': 0.45, 'rescaleHeight': False, 'trialN': 29, 'loaded': True, 'loadedTime': 28650.19999998808, 'positionName': 'RIGHT', 'positionCoords': [798.72, 156], 'bid': 8.540000000000001}]",28648.0,1669837763756,burger,roastedpotatoes,8.98,8.540000000000001,-0.4399999999999995,,roastedpotatoes,338.3999999910593,339,338.8999999910593,True,i,29493.19999998808,845.1999999880791,1669837764601,845,HRV,HRV_0272,2022-11-30 19:51:52
30,"[{'imgObject': {}, 'id': 'mac & cheese', 'src': '/static/foodstim60/mac & cheese.jpg', 'key': 'u', 'origWidth': 410, 'origHeight': 410, 'width': 410, 'height': 410, 'widthPercent': 0.45, 'rescaleHeight': False, 'trialN': 30, 'loaded': True, 'loadedTime': 29495.5, 'positionName': 'LEFT', 'positionCoords': [327.28, 156], 'bid': 8.65}, {'imgObject': {}, 'id': 'froot loops w milk', 'src': '/static/foodstim60/froot loops w milk.jpg', 'key': 'i', 'origWidth': 410, 'origHeight': 410, 'width': 410, 'height': 410, 'widthPercent': 0.45, 'rescaleHeight': False, 'trialN': 30, 'loaded': True, 'loadedTime': 29495.79999999702, 'positionName': 'RIGHT', 'positionCoords': [798.72, 156], 'bid': 9.2}]",29493.79999999702,1669837764601,mac & cheese,froot loops w milk,8.65,9.2,0.5499999999999989,,mac & cheese,413.29999999701977,414,413.8999999910593,True,u,30417.09999999404,923.2999999970198,1669837765525,924,HRV,HRV_0272,2022-11-30 19:51:52
31,"[{'imgObject': {}, 'id': 'turkeysandwich', 'src': '/static/foodstim60/turkeysandwich.jpg', 'key': 'u', 'origWidth': 409, 'origHeight': 409, 'width': 409, 'height': 409, 'widthPercent': 0.45, 'rescaleHeight': False, 'trialN': 31, 'loaded': True, 'loadedTime': 30419.39999999106, 'positionName': 'LEFT', 'positionCoords': [328.28, 156.5], 'bid': 8.07}, {'imgObject': {}, 'id': 'roastedpotatoes', 'src': '/static/foodstim60/roastedpotatoes.jpg', 'key': 'i', 'origWidth': 409, 'origHeight': 410, 'width': 409, 'height': 410, 'widthPercent': 0.45, 'rescaleHeight': False, 'trialN': 31, 'loaded': True, 'loadedTime': 30420.5, 'positionName': 'RIGHT', 'positionCoords': [798.72, 156], 'bid': 8.540000000000001}]",30417.69999998808,1669837765525,turkeysandwich,roastedpotatoes,8.07,8.540000000000001,0.47000000000000064,,roastedpotatoes,371.5,373,372.5,True,i,31296.09999999404,878.4000000059605,1669837766404,879,HRV,HRV_0272,2022-11-30 19:51:52
32,"[{'imgObject': {}, 'id': 'raisin bran w milk', 'src': '/static/foodstim60/raisin bran w milk.jpg', 'key': 'u', 'origWidth': 411, 'origHeight': 411, 'width': 411, 'height': 411, 'widthPercent': 0.45, 'rescaleHeight': False, 'trialN': 32, 'loaded': True, 'loadedTime': 31299.79999999702, 'positionName': 'LEFT', 'positionCoords': [326.28, 155.5], 'bid': 7.3}, {'imgObject': {}, 'id': 'seaweed', 'src': '/static/foodstim60/seaweed.jpg', 'key': 'i', 'origWidth': 410, 'origHeight': 410, 'width': 410, 'height': 410, 'widthPercent': 0.45, 'rescaleHeight': False, 'trialN': 32, 'loaded': True, 'loadedTime': 31300.29999999702, 'positionName': 'RIGHT', 'positionCoords': [798.72, 156], 'bid': 7.17}]",31297.5,1669837766405,raisin bran w milk,seaweed,7.3,7.17,-0.1299999999999999,,seaweed,529.6999999880791,530,530.0999999940395,True,i,32337.0,1039.5,1669837767445,1040,HRV,HRV_0272,2022-11-30 19:51:52
33,"[{'imgObject': {}, 'id': 'apple slices', 'src': '/static/foodstim60/apple slices.jpg', 'key': 'u', 'origWidth': 409, 'origHeight': 410, 'width': 409, 'height': 410, 'widthPercent': 0.45, 'rescaleHeight': False, 'trialN': 33, 'loaded': True, 'loadedTime': 32339.79999999702, 'positionName': 'LEFT', 'positionCoords': [328.28, 156], 'bid': 8.69}, {'imgObject': {}, 'id': 'veggieswithdip', 'src': '/static/foodstim60/veggieswithdip.jpg', 'key': 'i', 'origWidth': 409, 'origHeight': 409, 'width': 409, 'height': 409, 'widthPercent': 0.45, 'rescaleHeight': False, 'trialN': 33, 'loaded': True, 'loadedTime': 32340.59999999404, 'positionName': 'RIGHT', 'positionCoords': [798.72, 156.5], 'bid': 8.69}]",32337.59999999404,1669837767445,apple slices,veggieswithdip,8.69,8.69,0.0,,apple slices,358.70000000298023,359,359.0,True,u,33217.09999999404,879.5,1669837768325,880,HRV,HRV_0272,2022-11-30 19:51:52
34,"[{'imgObject': {}, 'id': 'cherry tomato', 'src': '/static/foodstim60/cherry tomato.jpg', 'key': 'u', 'origWidth': 410, 'origHeight': 410, 'width': 410, 'height': 410, 'widthPercent': 0.45, 'rescaleHeight': False, 'trialN': 34, 'loaded': True, 'loadedTime': 33220.19999998808, 'positionName': 'LEFT', 'positionCoords': [327.28, 156], 'bid': 5.95}, {'imgObject': {}, 'id': 'corn cob', 'src': '/static/foodstim60/corn cob.jpg', 'key': 'i', 'origWidth': 411, 'origHeight': 411, 'width': 411, 'height': 411, 'widthPercent': 0.45, 'rescaleHeight': False, 'trialN': 34, 'loaded': True, 'loadedTime': 33220.59999999404, 'positionName': 'RIGHT', 'positionCoords': [798.72, 155.5], 'bid': 5.62}]",33217.89999999106,1669837768326,cherry tomato,corn cob,5.95,5.62,-0.33000000000000007,,corn cob,198,198,198.29999999701977,True,i,33927.29999999702,709.4000000059605,1669837769035,709,HRV,HRV_0272,2022-11-30 19:51:52
35,"[{'imgObject': {}, 'id': 'mashed potato', 'src': '/static/foodstim60/mashed potato.jpg', 'key': 'u', 'origWidth': 409, 'origHeight': 409, 'width': 409, 'height': 409, 'widthPercent': 0.45, 'rescaleHeight': False, 'trialN': 35, 'loaded': True, 'loadedTime': 33930.19999998808, 'positionName': 'LEFT', 'positionCoords': [328.28, 156.5], 'bid': 9.01}, {'imgObject': {}, 'id': 'rigatoni and sauce', 'src': '/static/foodstim60/rigatoni and sauce.jpg', 'key': 'i', 'origWidth': 410, 'origHeight': 411, 'width': 410, 'height': 411, 'widthPercent': 0.45, 'rescaleHeight': False, 'trialN': 35, 'loaded': True, 'loadedTime': 33930.59999999404, 'positionName': 'RIGHT', 'positionCoords': [798.72, 155.5], 'bid': 9.28}]",33928.0,1669837769036,mashed potato,rigatoni and sauce,9.01,9.28,0.2699999999999996,,mashed potato,464.5,465,465.0,True,u,34897.19999998808,969.1999999880791,1669837770005,969,HRV,HRV_0272,2022-11-30 19:51:52
36,"[{'imgObject': {}, 'id': 'popsicles', 'src': '/static/foodstim60/popsicles.jpg', 'key': 'u', 'origWidth': 410, 'origHeight': 410, 'width': 410, 'height': 410, 'widthPercent': 0.45, 'rescaleHeight': False, 'trialN': 36, 'loaded': True, 'loadedTime': 34900.29999999702, 'positionName': 'LEFT', 'positionCoords': [327.28, 156], 'bid': 8.48}, {'imgObject': {}, 'id': 'eggs', 'src': '/static/foodstim60/eggs.jpg', 'key': 'i', 'origWidth': 409, 'origHeight': 409, 'width': 409, 'height': 409, 'widthPercent': 0.45, 'rescaleHeight': False, 'trialN': 36, 'loaded': True, 'loadedTime': 34900.89999999106, 'positionName': 'RIGHT', 'positionCoords': [798.72, 156.5], 'bid': 7.05}]",34898.09999999404,1669837770006,popsicles,eggs,8.48,7.05,-1.4300000000000006,,eggs,396.90000000596046,397,397.29999999701977,True,i,35817.5,919.4000000059605,1669837770925,919,HRV,HRV_0272,2022-11-30 19:51:52
37,"[{'imgObject': {}, 'id': 'chickenfingers', 'src': '/static/foodstim60/chickenfingers.jpg', 'key': 'u', 'origWidth': 410, 'origHeight': 410, 'width': 410, 'height': 410, 'widthPercent': 0.45, 'rescaleHeight': False, 'trialN': 37, 'loaded': True, 'loadedTime': 35819.79999999702, 'positionName': 'LEFT', 'positionCoords': [327.28, 156], 'bid': 7.77}, {'imgObject': {}, 'id': 'fried eggs', 'src': '/static/foodstim60/fried eggs.jpg', 'key': 'i', 'origWidth': 410, 'origHeight': 410, 'width': 410, 'height': 410, 'widthPercent': 0.45, 'rescaleHeight': False, 'trialN': 37, 'loaded': True, 'loadedTime': 35820.29999999702, 'positionName': 'RIGHT', 'positionCoords': [798.72, 156], 'bid': 6.53}]",35818.09999999404,1669837770926,chickenfingers,fried eggs,7.77,6.53,-1.2399999999999993,,chickenfingers,304.40000000596046,305,305.29999999701977,True,u,36637.5,819.4000000059605,1669837771745,819,HRV,HRV_0272,2022-11-30 19:51:52
38,"[{'imgObject': {}, 'id': 'bagel plain', 'src': '/static/foodstim60/bagel plain.jpg', 'key': 'u', 'origWidth': 410, 'origHeight': 410, 'width': 410, 'height': 410, 'widthPercent': 0.45, 'rescaleHeight': False, 'trialN': 38, 'loaded': True, 'loadedTime': 36639.89999999106, 'positionName': 'LEFT', 'positionCoords': [327.28, 156], 'bid': 9.02}, {'imgObject': {}, 'id': 'fruitsalad', 'src': '/static/foodstim60/fruitsalad.jpg', 'key': 'i', 'origWidth': 410, 'origHeight': 410, 'width': 410, 'height': 410, 'widthPercent': 0.45, 'rescaleHeight': False, 'trialN': 38, 'loaded': True, 'loadedTime': 36640.19999998808, 'positionName': 'RIGHT', 'positionCoords': [798.72, 156], 'bid': 9.36}]",36638.0,1669837771746,bagel plain,fruitsalad,9.02,9.36,0.33999999999999986,,fruitsalad,349.09999999403954,349,349.5,True,i,37497.09999999404,859.0999999940395,1669837772605,859,HRV,HRV_0272,2022-11-30 19:51:52
39,"[{'imgObject': {}, 'id': 'sushi w_condiments', 'src': '/static/foodstim60/sushi w_condiments.jpg', 'key': 'u', 'origWidth': 410, 'origHeight': 410, 'width': 410, 'height': 410, 'widthPercent': 0.45, 'rescaleHeight': False, 'trialN': 39, 'loaded': True, 'loadedTime': 37500.29999999702, 'positionName': 'LEFT', 'positionCoords': [327.28, 156], 'bid': 7.96}, {'imgObject': {}, 'id': 'cheerios', 'src': '/static/foodstim60/cheerios.jpg', 'key': 'i', 'origWidth': 409, 'origHeight': 410, 'width': 409, 'height': 410, 'widthPercent': 0.45, 'rescaleHeight': False, 'trialN': 39, 'loaded': True, 'loadedTime': 37500.79999999702, 'positionName': 'RIGHT', 'positionCoords': [798.72, 156], 'bid': 8}]",37497.79999999702,1669837772605,sushi w_condiments,cheerios,7.96,8.0,0.040000000000000036,,sushi w_condiments,281.8999999910593,283,282.29999999701977,True,u,38297.29999999702,799.5,1669837773405,800,HRV,HRV_0272,2022-11-30 19:51:52
40,"[{'imgObject': {}, 'id': 'froot loops w milk', 'src': '/static/foodstim60/froot loops w milk.jpg', 'key': 'u', 'origWidth': 410, 'origHeight': 410, 'width': 410, 'height': 410, 'widthPercent': 0.45, 'rescaleHeight': False, 'trialN': 40, 'loaded': True, 'loadedTime': 38299.59999999404, 'positionName': 'LEFT', 'positionCoords': [327.28, 156], 'bid': 9.2}, {'imgObject': {}, 'id': 'turkeysandwich', 'src': '/static/foodstim60/turkeysandwich.jpg', 'key': 'i', 'origWidth': 409, 'origHeight': 409, 'width': 409, 'height': 409, 'widthPercent': 0.45, 'rescaleHeight': False, 'trialN': 40, 'loaded': True, 'loadedTime': 38300, 'positionName': 'RIGHT', 'positionCoords': [798.72, 156.5], 'bid': 8.07}]",38297.79999999702,1669837773406,froot loops w milk,turkeysandwich,9.2,8.07,-1.129999999999999,,turkeysandwich,3097.2999999970198,3097,3097.7000000029802,True,i,41897.5,3599.7000000029802,1669837777005,3599,HRV,HRV_0272,2022-11-30 19:51:52
41,"[{'imgObject': {}, 'id': 'mac & cheese', 'src': '/static/foodstim60/mac & cheese.jpg', 'key': 'u', 'origWidth': 410, 'origHeight': 410, 'width': 410, 'height': 410, 'widthPercent': 0.45, 'rescaleHeight': False, 'trialN': 41, 'loaded': True, 'loadedTime': 41901, 'positionName': 'LEFT', 'positionCoords': [327.28, 156], 'bid': 8.65}, {'imgObject': {}, 'id': 'burger', 'src': '/static/foodstim60/burger.jpg', 'key': 'i', 'origWidth': 409, 'origHeight': 409, 'width': 409, 'height': 409, 'widthPercent': 0.45, 'rescaleHeight': False, 'trialN': 41, 'loaded': True, 'loadedTime': 41901.39999999106, 'positionName': 'RIGHT', 'positionCoords': [798.72, 156.5], 'bid': 8.98}]",41899.0,1669837777007,mac & cheese,burger,8.65,8.98,0.33000000000000007,,mac & cheese,322,322,322.3999999910593,True,u,42747.29999999702,848.2999999970198,1669837777855,848,HRV,HRV_0272,2022-11-30 19:51:52
42,"[{'imgObject': {}, 'id': 'strawberries', 'src': '/static/foodstim60/strawberries.jpg', 'key': 'u', 'origWidth': 410, 'origHeight': 410, 'width': 410, 'height': 410, 'widthPercent': 0.45, 'rescaleHeight': False, 'trialN': 42, 'loaded': True, 'loadedTime': 42749.5, 'positionName': 'LEFT', 'positionCoords': [327.28, 156], 'bid': 8.64}, {'imgObject': {}, 'id': 'banana', 'src': '/static/foodstim60/banana.jpg', 'key': 'i', 'origWidth': 410, 'origHeight': 410, 'width': 410, 'height': 410, 'widthPercent': 0.45, 'rescaleHeight': False, 'trialN': 42, 'loaded': True, 'loadedTime': 42749.79999999702, 'positionName': 'RIGHT', 'positionCoords': [798.72, 156], 'bid': 8.82}]",42747.69999998808,1669837777855,strawberries,banana,8.64,8.82,0.17999999999999972,,banana,351,352,351.5,True,i,43602.59999999404,854.9000000059605,1669837778710,855,HRV,HRV_0272,2022-11-30 19:51:52
43,"[{'imgObject': {}, 'id': 'ice cream sundae 002', 'src': '/static/foodstim60/ice cream sundae 002.jpg', 'key': 'u', 'origWidth': 409, 'origHeight': 409, 'width': 409, 'height': 409, 'widthPercent': 0.45, 'rescaleHeight': False, 'trialN': 43, 'loaded': True, 'loadedTime': 43605, 'positionName': 'LEFT', 'positionCoords': [328.28, 156.5], 'bid': 7.98}, {'imgObject': {}, 'id': 'steak', 'src': '/static/foodstim60/steak.jpg', 'key': 'i', 'origWidth': 410, 'origHeight': 410, 'width': 410, 'height': 410, 'widthPercent': 0.45, 'rescaleHeight': False, 'trialN': 43, 'loaded': True, 'loadedTime': 43605.39999999106, 'positionName': 'RIGHT', 'positionCoords': [798.72, 156], 'bid': 7.73}]",43603.29999999702,1669837778711,ice cream sundae 002,steak,7.98,7.73,-0.25,,ice cream sundae 002,713.5999999940395,714,714.0,True,u,44837.19999998808,1233.8999999910593,1669837779945,1234,HRV,HRV_0272,2022-11-30 19:51:52
44,"[{'imgObject': {}, 'id': 'lox', 'src': '/static/foodstim60/lox.jpg', 'key': 'u', 'origWidth': 410, 'origHeight': 411, 'width': 410, 'height': 411, 'widthPercent': 0.45, 'rescaleHeight': False, 'trialN': 44, 'loaded': True, 'loadedTime': 44839.39999999106, 'positionName': 'LEFT', 'positionCoords': [327.28, 155.5], 'bid': 8.290000000000001}, {'imgObject': {}, 'id': 'mango', 'src': '/static/foodstim60/mango.jpg', 'key': 'i', 'origWidth': 411, 'origHeight': 411, 'width': 411, 'height': 411, 'widthPercent': 0.45, 'rescaleHeight': False, 'trialN': 44, 'loaded': True, 'loadedTime': 44839.89999999106, 'positionName': 'RIGHT', 'positionCoords': [798.72, 155.5], 'bid': 7.94}]",44837.69999998808,1669837779945,lox,mango,8.290000000000001,7.94,-0.35000000000000053,,mango,230.90000000596046,232,231.30000001192093,True,i,45577.09999999404,739.4000000059605,1669837780685,740,HRV,HRV_0272,2022-11-30 19:51:52
45,"[{'imgObject': {}, 'id': 'avocado', 'src': '/static/foodstim60/avocado.jpg', 'key': 'u', 'origWidth': 409, 'origHeight': 409, 'width': 409, 'height': 409, 'widthPercent': 0.45, 'rescaleHeight': False, 'trialN': 45, 'loaded': True, 'loadedTime': 45579.39999999106, 'positionName': 'LEFT', 'positionCoords': [328.28, 156.5], 'bid': 8.84}, {'imgObject': {}, 'id': 'mac & cheese', 'src': '/static/foodstim60/mac & cheese.jpg', 'key': 'i', 'origWidth': 410, 'origHeight': 410, 'width': 410, 'height': 410, 'widthPercent': 0.45, 'rescaleHeight': False, 'trialN': 45, 'loaded': True, 'loadedTime': 45580.59999999404, 'positionName': 'RIGHT', 'positionCoords': [798.72, 156], 'bid': 8.65}]",45577.59999999404,1669837780685,avocado,mac & cheese,8.84,8.65,-0.1899999999999995,,avocado,716.4000000059605,717,716.7999999970198,True,u,46817.39999999106,1239.7999999970198,1669837781925,1240,HRV,HRV_0272,2022-11-30 19:51:52
46,"[{'imgObject': {}, 'id': 'veggieswithdip', 'src': '/static/foodstim60/veggieswithdip.jpg', 'key': 'u', 'origWidth': 409, 'origHeight': 409, 'width': 409, 'height': 409, 'widthPercent': 0.45, 'rescaleHeight': False, 'trialN': 46, 'loaded': True, 'loadedTime': 46819.79999999702, 'positionName': 'LEFT', 'positionCoords': [328.28, 156.5], 'bid': 8.69}, {'imgObject': {}, 'id': 'bagel plain', 'src': '/static/foodstim60/bagel plain.jpg', 'key': 'i', 'origWidth': 410, 'origHeight': 410, 'width': 410, 'height': 410, 'widthPercent': 0.45, 'rescaleHeight': False, 'trialN': 46, 'loaded': True, 'loadedTime': 46820.19999998808, 'positionName': 'RIGHT', 'positionCoords': [798.72, 156], 'bid': 9.02}]",46818.0,1669837781926,veggieswithdip,bagel plain,8.69,9.02,0.33000000000000007,,bagel plain,1050.5999999940395,1051,1051.0999999940395,True,i,48387.0,1569.0,1669837783495,1569,HRV,HRV_0272,2022-11-30 19:51:52
47,"[{'imgObject': {}, 'id': 'olives', 'src': '/static/foodstim60/olives.jpg', 'key': 'u', 'origWidth': 410, 'origHeight': 410, 'width': 410, 'height': 410, 'widthPercent': 0.45, 'rescaleHeight': False, 'trialN': 47, 'loaded': True, 'loadedTime': 48390, 'positionName': 'LEFT', 'positionCoords': [327.28, 156], 'bid': 8.93}, {'imgObject': {}, 'id': 'turkey sandwich', 'src': '/static/foodstim60/turkey sandwich.jpg', 'key': 'i', 'origWidth': 409, 'origHeight': 409, 'width': 409, 'height': 409, 'widthPercent': 0.45, 'rescaleHeight': False, 'trialN': 47, 'loaded': True, 'loadedTime': 48390.39999999106, 'positionName': 'RIGHT', 'positionCoords': [798.72, 156.5], 'bid': 7.86}]",48387.79999999702,1669837783496,olives,turkey sandwich,8.93,7.86,-1.0699999999999994,,turkey sandwich,650.0999999940395,650,650.5999999940395,True,i,49557.39999999106,1169.5999999940395,1669837784665,1169,HRV,HRV_0272,2022-11-30 19:51:52
48,"[{'imgObject': {}, 'id': 'baked potato', 'src': '/static/foodstim60/baked potato.jpg', 'key': 'u', 'origWidth': 409, 'origHeight': 410, 'width': 409, 'height': 410, 'widthPercent': 0.45, 'rescaleHeight': False, 'trialN': 48, 'loaded': True, 'loadedTime': 49560.19999998808, 'positionName': 'LEFT', 'positionCoords': [328.28, 156], 'bid': 8.15}, {'imgObject': {}, 'id': 'yogurt no spoon', 'src': '/static/foodstim60/yogurt no spoon.jpg', 'key': 'i', 'origWidth': 411, 'origHeight': 410, 'width': 411, 'height': 410, 'widthPercent': 0.45, 'rescaleHeight': False, 'trialN': 48, 'loaded': True, 'loadedTime': 49560.59999999404, 'positionName': 'RIGHT', 'positionCoords': [798.72, 156], 'bid': 8.56}]",49558.5,1669837784666,baked potato,yogurt no spoon,8.15,8.56,0.41000000000000014,,yogurt no spoon,389.8999999910593,391,390.5,True,i,50457.59999999404,899.0999999940395,1669837785565,899,HRV,HRV_0272,2022-11-30 19:51:52
49,"[{'imgObject': {}, 'id': 'chicken nuggets2', 'src': '/static/foodstim60/chicken nuggets2.jpg', 'key': 'u', 'origWidth': 410, 'origHeight': 409, 'width': 410, 'height': 409, 'widthPercent': 0.45, 'rescaleHeight': False, 'trialN': 49, 'loaded': True, 'loadedTime': 50459.89999999106, 'positionName': 'LEFT', 'positionCoords': [327.28, 156.5], 'bid': 8.950000000000001}, {'imgObject': {}, 'id': 'orange slices', 'src': '/static/foodstim60/orange slices.jpg', 'key': 'i', 'origWidth': 409, 'origHeight': 410, 'width': 409, 'height': 410, 'widthPercent': 0.45, 'rescaleHeight': False, 'trialN': 49, 'loaded': True, 'loadedTime': 50460.39999999106, 'positionName': 'RIGHT', 'positionCoords': [798.72, 156], 'bid': 8.9}]",50458.19999998808,1669837785566,chicken nuggets2,orange slices,8.950000000000001,8.9,-0.05000000000000071,,chicken nuggets2,360.40000000596046,361,360.70000000298023,True,u,51327.29999999702,869.1000000089407,1669837786435,869,HRV,HRV_0272,2022-11-30 19:51:52
50,"[{'imgObject': {}, 'id': 'salmon', 'src': '/static/foodstim60/salmon.jpg', 'key': 'u', 'origWidth': 410, 'origHeight': 409, 'width': 410, 'height': 409, 'widthPercent': 0.45, 'rescaleHeight': False, 'trialN': 50, 'loaded': True, 'loadedTime': 51330.29999999702, 'positionName': 'LEFT', 'positionCoords': [327.28, 156.5], 'bid': 7.03}, {'imgObject': {}, 'id': 'fried eggs', 'src': '/static/foodstim60/fried eggs.jpg', 'key': 'i', 'origWidth': 410, 'origHeight': 410, 'width': 410, 'height': 410, 'widthPercent': 0.45, 'rescaleHeight': False, 'trialN': 50, 'loaded': True, 'loadedTime': 51331, 'positionName': 'RIGHT', 'positionCoords': [798.72, 156], 'bid': 6.53}]",51328.0,1669837786436,salmon,fried eggs,7.03,6.53,-0.5,,fried eggs,1215.0999999940395,1216,1216.2999999970198,True,i,53057.09999999404,1729.0999999940395,1669837788165,1729,HRV,HRV_0272,2022-11-30 19:51:52
51,"[{'imgObject': {}, 'id': 'mac & cheese', 'src': '/static/foodstim60/mac & cheese.jpg', 'key': 'u', 'origWidth': 410, 'origHeight': 410, 'width': 410, 'height': 410, 'widthPercent': 0.45, 'rescaleHeight': False, 'trialN': 51, 'loaded': True, 'loadedTime': 53059.89999999106, 'positionName': 'LEFT', 'positionCoords': [327.28, 156], 'bid': 8.65}, {'imgObject': {}, 'id': 'veggieswithdip', 'src': '/static/foodstim60/veggieswithdip.jpg', 'key': 'i', 'origWidth': 409, 'origHeight': 409, 'width': 409, 'height': 409, 'widthPercent': 0.45, 'rescaleHeight': False, 'trialN': 51, 'loaded': True, 'loadedTime': 53060.29999999702, 'positionName': 'RIGHT', 'positionCoords': [798.72, 156.5], 'bid': 8.69}]",53057.59999999404,1669837788165,mac & cheese,veggieswithdip,8.65,8.69,0.03999999999999915,,mac & cheese,804.7999999970198,806,805.2999999970198,True,u,54377.89999999106,1320.2999999970198,1669837789486,1321,HRV,HRV_0272,2022-11-30 19:51:52
52,"[{'imgObject': {}, 'id': 'mango', 'src': '/static/foodstim60/mango.jpg', 'key': 'u', 'origWidth': 411, 'origHeight': 411, 'width': 411, 'height': 411, 'widthPercent': 0.45, 'rescaleHeight': False, 'trialN': 52, 'loaded': True, 'loadedTime': 54380.79999999702, 'positionName': 'LEFT', 'positionCoords': [326.28, 155.5], 'bid': 7.94}, {'imgObject': {}, 'id': 'sushi w_condiments', 'src': '/static/foodstim60/sushi w_condiments.jpg', 'key': 'i', 'origWidth': 410, 'origHeight': 410, 'width': 410, 'height': 410, 'widthPercent': 0.45, 'rescaleHeight': False, 'trialN': 52, 'loaded': True, 'loadedTime': 54381.09999999404, 'positionName': 'RIGHT', 'positionCoords': [798.72, 156], 'bid': 7.96}]",54378.5,1669837789486,mango,sushi w_condiments,7.94,7.96,0.019999999999999574,,sushi w_condiments,443.69999998807907,444,444.19999998807907,True,i,55332.79999999702,954.2999999970198,1669837790441,955,HRV,HRV_0272,2022-11-30 19:51:52
53,"[{'imgObject': {}, 'id': 'veggieswithdip', 'src': '/static/foodstim60/veggieswithdip.jpg', 'key': 'u', 'origWidth': 409, 'origHeight': 409, 'width': 409, 'height': 409, 'widthPercent': 0.45, 'rescaleHeight': False, 'trialN': 53, 'loaded': True, 'loadedTime': 55336.29999999702, 'positionName': 'LEFT', 'positionCoords': [328.28, 156.5], 'bid': 8.69}, {'imgObject': {}, 'id': 'hotdog w must', 'src': '/static/foodstim60/hotdog w must.jpg', 'key': 'i', 'origWidth': 409, 'origHeight': 409, 'width': 409, 'height': 409, 'widthPercent': 0.45, 'rescaleHeight': False, 'trialN': 53, 'loaded': True, 'loadedTime': 55336.59999999404, 'positionName': 'RIGHT', 'positionCoords': [798.72, 156.5], 'bid': 8.55}]",55334.09999999404,1669837790442,veggieswithdip,hotdog w must,8.69,8.55,-0.1399999999999988,,hotdog w must,393.90000000596046,394,394.29999999701977,True,i,56234.0,899.9000000059605,1669837791342,900,HRV,HRV_0272,2022-11-30 19:51:52
54,"[{'imgObject': {}, 'id': 'burrito', 'src': '/static/foodstim60/burrito.jpg', 'key': 'u', 'origWidth': 410, 'origHeight': 410, 'width': 410, 'height': 410, 'widthPercent': 0.45, 'rescaleHeight': False, 'trialN': 54, 'loaded': True, 'loadedTime': 56236.39999999106, 'positionName': 'LEFT', 'positionCoords': [327.28, 156], 'bid': 9.15}, {'imgObject': {}, 'id': 'bagel plain', 'src': '/static/foodstim60/bagel plain.jpg', 'key': 'i', 'origWidth': 410, 'origHeight': 410, 'width': 410, 'height': 410, 'widthPercent': 0.45, 'rescaleHeight': False, 'trialN': 54, 'loaded': True, 'loadedTime': 56236.69999998808, 'positionName': 'RIGHT', 'positionCoords': [798.72, 156], 'bid': 9.02}]",56234.5,1669837791342,burrito,bagel plain,9.15,9.02,-0.13000000000000078,,bagel plain,506,507,506.3999999910593,True,i,57257.39999999106,1022.8999999910593,1669837792365,1023,HRV,HRV_0272,2022-11-30 19:51:52
55,"[{'imgObject': {}, 'id': 'raisin bran w milk', 'src': '/static/foodstim60/raisin bran w milk.jpg', 'key': 'u', 'origWidth': 411, 'origHeight': 411, 'width': 411, 'height': 411, 'widthPercent': 0.45, 'rescaleHeight': False, 'trialN': 55, 'loaded': True, 'loadedTime': 57259.79999999702, 'positionName': 'LEFT', 'positionCoords': [326.28, 155.5], 'bid': 7.3}, {'imgObject': {}, 'id': 'salmon', 'src': '/static/foodstim60/salmon.jpg', 'key': 'i', 'origWidth': 410, 'origHeight': 409, 'width': 410, 'height': 409, 'widthPercent': 0.45, 'rescaleHeight': False, 'trialN': 55, 'loaded': True, 'loadedTime': 57260.19999998808, 'positionName': 'RIGHT', 'positionCoords': [798.72, 156.5], 'bid': 7.03}]",57258.0,1669837792366,raisin bran w milk,salmon,7.3,7.03,-0.2699999999999996,,raisin bran w milk,253.19999998807907,253,253.59999999403954,True,u,58017.19999998808,759.1999999880791,1669837793125,759,HRV,HRV_0272,2022-11-30 19:51:52
56,"[{'imgObject': {}, 'id': 'eggsalad', 'src': '/static/foodstim60/eggsalad.jpg', 'key': 'u', 'origWidth': 410, 'origHeight': 409, 'width': 410, 'height': 409, 'widthPercent': 0.45, 'rescaleHeight': False, 'trialN': 56, 'loaded': True, 'loadedTime': 58020.19999998808, 'positionName': 'LEFT', 'positionCoords': [327.28, 156.5], 'bid': 9.11}, {'imgObject': {}, 'id': 'kiwi', 'src': '/static/foodstim60/kiwi.jpg', 'key': 'i', 'origWidth': 410, 'origHeight': 410, 'width': 410, 'height': 410, 'widthPercent': 0.45, 'rescaleHeight': False, 'trialN': 56, 'loaded': True, 'loadedTime': 58020.59999999404, 'positionName': 'RIGHT', 'positionCoords': [798.72, 156], 'bid': 8.71}]",58017.69999998808,1669837793125,eggsalad,kiwi,9.11,8.71,-0.3999999999999986,,eggsalad,280.6000000089407,281,281.1000000089407,True,u,58817.29999999702,799.6000000089407,1669837793925,800,HRV,HRV_0272,2022-11-30 19:51:52
57,"[{'imgObject': {}, 'id': 'seaweed', 'src': '/static/foodstim60/seaweed.jpg', 'key': 'u', 'origWidth': 410, 'origHeight': 410, 'width': 410, 'height': 410, 'widthPercent': 0.45, 'rescaleHeight': False, 'trialN': 57, 'loaded': True, 'loadedTime': 58820, 'positionName': 'LEFT', 'positionCoords': [327.28, 156], 'bid': 7.17}, {'imgObject': {}, 'id': 'cheerios', 'src': '/static/foodstim60/cheerios.jpg', 'key': 'i', 'origWidth': 409, 'origHeight': 410, 'width': 409, 'height': 410, 'widthPercent': 0.45, 'rescaleHeight': False, 'trialN': 57, 'loaded': True, 'loadedTime': 58820.39999999106, 'positionName': 'RIGHT', 'positionCoords': [798.72, 156], 'bid': 8}]",58817.79999999702,1669837793926,seaweed,cheerios,7.17,8.0,0.8300000000000001,,cheerios,434,434,434.5,True,i,59777.5,959.7000000029802,1669837794885,959,HRV,HRV_0272,2022-11-30 19:51:52
58,"[{'imgObject': {}, 'id': 'apple slices', 'src': '/static/foodstim60/apple slices.jpg', 'key': 'u', 'origWidth': 409, 'origHeight': 410, 'width': 409, 'height': 410, 'widthPercent': 0.45, 'rescaleHeight': False, 'trialN': 58, 'loaded': True, 'loadedTime': 59780.09999999404, 'positionName': 'LEFT', 'positionCoords': [328.28, 156], 'bid': 8.69}, {'imgObject': {}, 'id': 'strawberries', 'src': '/static/foodstim60/strawberries.jpg', 'key': 'i', 'origWidth': 410, 'origHeight': 410, 'width': 410, 'height': 410, 'widthPercent': 0.45, 'rescaleHeight': False, 'trialN': 58, 'loaded': True, 'loadedTime': 59780.59999999404, 'positionName': 'RIGHT', 'positionCoords': [798.72, 156], 'bid': 8.64}]",59778.09999999404,1669837794886,apple slices,strawberries,8.69,8.64,-0.049999999999998934,,apple slices,319.5,320,319.90000000596046,True,u,60617.29999999702,839.2000000029802,1669837795725,839,HRV,HRV_0272,2022-11-30 19:51:52
59,"[{'imgObject': {}, 'id': 'tacos', 'src': '/static/foodstim60/tacos.jpg', 'key': 'u', 'origWidth': 411, 'origHeight': 411, 'width': 411, 'height': 411, 'widthPercent': 0.45, 'rescaleHeight': False, 'trialN': 59, 'loaded': True, 'loadedTime': 60620.29999999702, 'positionName': 'LEFT', 'positionCoords': [326.28, 155.5], 'bid': 8.22}, {'imgObject': {}, 'id': 'cherries', 'src': '/static/foodstim60/cherries.jpg', 'key': 'i', 'origWidth': 410, 'origHeight': 411, 'width': 410, 'height': 411, 'widthPercent': 0.45, 'rescaleHeight': False, 'trialN': 59, 'loaded': True, 'loadedTime': 60620.69999998808, 'positionName': 'RIGHT', 'positionCoords': [798.72, 155.5], 'bid': 7.65}]",60617.89999999106,1669837795726,tacos,cherries,8.22,7.65,-0.5700000000000003,,tacos,163.29999999701977,163,163.90000000596046,True,u,61297.09999999404,679.2000000029802,1669837796405,679,HRV,HRV_0272,2022-11-30 19:51:52
60,"[{'imgObject': {}, 'id': 'salad w chicken', 'src': '/static/foodstim60/salad w chicken.jpg', 'key': 'u', 'origWidth': 411, 'origHeight': 411, 'width': 411, 'height': 411, 'widthPercent': 0.45, 'rescaleHeight': False, 'trialN': 60, 'loaded': True, 'loadedTime': 61299.69999998808, 'positionName': 'LEFT', 'positionCoords': [326.28, 155.5], 'bid': 8.78}, {'imgObject': {}, 'id': 'kiwi', 'src': '/static/foodstim60/kiwi.jpg', 'key': 'i', 'origWidth': 410, 'origHeight': 410, 'width': 410, 'height': 410, 'widthPercent': 0.45, 'rescaleHeight': False, 'trialN': 60, 'loaded': True, 'loadedTime': 61300.29999999702, 'positionName': 'RIGHT', 'positionCoords': [798.72, 156], 'bid': 8.71}]",61297.59999999404,1669837796405,salad w chicken,kiwi,8.78,8.71,-0.06999999999999851,,kiwi,687.2999999970198,688,687.7000000029802,True,i,62497.0,1199.4000000059605,1669837797605,1200,HRV,HRV_0272,2022-11-30 19:51:52
61,"[{'imgObject': {}, 'id': 'cantaloupe', 'src': '/static/foodstim60/cantaloupe.jpg', 'key': 'u', 'origWidth': 409, 'origHeight': 409, 'width': 409, 'height': 409, 'widthPercent': 0.45, 'rescaleHeight': False, 'trialN': 61, 'loaded': True, 'loadedTime': 62500.29999999702, 'positionName': 'LEFT', 'positionCoords': [328.28, 156.5], 'bid': 7.33}, {'imgObject': {}, 'id': 'corn cob', 'src': '/static/foodstim60/corn cob.jpg', 'key': 'i', 'origWidth': 411, 'origHeight': 411, 'width': 411, 'height': 411, 'widthPercent': 0.45, 'rescaleHeight': False, 'trialN': 61, 'loaded': True, 'loadedTime': 62500.59999999404, 'positionName': 'RIGHT', 'positionCoords': [798.72, 155.5], 'bid': 5.62}]",62497.69999998808,1669837797605,cantaloupe,corn cob,7.33,5.62,-1.71,,cantaloupe,353,354,353.40000000596046,True,u,63357.69999998808,860.0,1669837798465,860,HRV,HRV_0272,2022-11-30 19:51:52
62,"[{'imgObject': {}, 'id': 'hashbrowns', 'src': '/static/foodstim60/hashbrowns.jpg', 'key': 'u', 'origWidth': 411, 'origHeight': 410, 'width': 411, 'height': 410, 'widthPercent': 0.45, 'rescaleHeight': False, 'trialN': 62, 'loaded': True, 'loadedTime': 63360.29999999702, 'positionName': 'LEFT', 'positionCoords': [326.28, 156], 'bid': 7.09}, {'imgObject': {}, 'id': 'corn cob', 'src': '/static/foodstim60/corn cob.jpg', 'key': 'i', 'origWidth': 411, 'origHeight': 411, 'width': 411, 'height': 411, 'widthPercent': 0.45, 'rescaleHeight': False, 'trialN': 62, 'loaded': True, 'loadedTime': 63360.69999998808, 'positionName': 'RIGHT', 'positionCoords': [798.72, 155.5], 'bid': 5.62}]",63358.29999999702,1669837798466,hashbrowns,corn cob,7.09,5.62,-1.4699999999999998,,corn cob,886.2000000029802,887,886.7000000029802,True,i,64757.19999998808,1398.8999999910593,1669837799865,1399,HRV,HRV_0272,2022-11-30 19:51:52
63,"[{'imgObject': {}, 'id': 'blackbeanswithrice', 'src': '/static/foodstim60/blackbeanswithrice.jpg', 'key': 'u', 'origWidth': 410, 'origHeight': 410, 'width': 410, 'height': 410, 'widthPercent': 0.45, 'rescaleHeight': False, 'trialN': 63, 'loaded': True, 'loadedTime': 64759.59999999404, 'positionName': 'LEFT', 'positionCoords': [327.28, 156], 'bid': 7.86}, {'imgObject': {}, 'id': 'turkey sandwich', 'src': '/static/foodstim60/turkey sandwich.jpg', 'key': 'i', 'origWidth': 409, 'origHeight': 409, 'width': 409, 'height': 409, 'widthPercent': 0.45, 'rescaleHeight': False, 'trialN': 63, 'loaded': True, 'loadedTime': 64760.29999999702, 'positionName': 'RIGHT', 'positionCoords': [798.72, 156.5], 'bid': 7.86}]",64757.59999999404,1669837799865,blackbeanswithrice,turkey sandwich,7.86,7.86,0.0,,blackbeanswithrice,494.59999999403954,495,495.09999999403954,True,u,65777.09999999404,1019.5,1669837800885,1020,HRV,HRV_0272,2022-11-30 19:51:52
64,"[{'imgObject': {}, 'id': 'edamame', 'src': '/static/foodstim60/edamame.jpg', 'key': 'u', 'origWidth': 409, 'origHeight': 410, 'width': 409, 'height': 410, 'widthPercent': 0.45, 'rescaleHeight': False, 'trialN': 64, 'loaded': True, 'loadedTime': 65779.39999999106, 'positionName': 'LEFT', 'positionCoords': [328.28, 156], 'bid': 8.120000000000001}, {'imgObject': {}, 'id': 'hotdog w must', 'src': '/static/foodstim60/hotdog w must.jpg', 'key': 'i', 'origWidth': 409, 'origHeight': 409, 'width': 409, 'height': 409, 'widthPercent': 0.45, 'rescaleHeight': False, 'trialN': 64, 'loaded': True, 'loadedTime': 65779.69999998808, 'positionName': 'RIGHT', 'positionCoords': [798.72, 156.5], 'bid': 8.55}]",65777.59999999404,1669837800885,edamame,hotdog w must,8.120000000000001,8.55,0.4299999999999997,,edamame,1716.5,1710,1717.2000000029802,True,u,68007.19999998808,2229.5999999940395,1669837803107,2222,HRV,HRV_0272,2022-11-30 19:51:52
65,"[{'imgObject': {}, 'id': 'eggsalad', 'src': '/static/foodstim60/eggsalad.jpg', 'key': 'u', 'origWidth': 410, 'origHeight': 409, 'width': 410, 'height': 409, 'widthPercent': 0.45, 'rescaleHeight': False, 'trialN': 65, 'loaded': True, 'loadedTime': 68010.39999999106, 'positionName': 'LEFT', 'positionCoords': [327.28, 156.5], 'bid': 9.11}, {'imgObject': {}, 'id': 'blueberries', 'src': '/static/foodstim60/blueberries.jpg', 'key': 'i', 'origWidth': 411, 'origHeight': 411, 'width': 411, 'height': 411, 'widthPercent': 0.45, 'rescaleHeight': False, 'trialN': 65, 'loaded': True, 'loadedTime': 68010.79999999702, 'positionName': 'RIGHT', 'positionCoords': [798.72, 155.5], 'bid': 8.02}]",68008.39999999106,1669837803108,eggsalad,blueberries,9.11,8.02,-1.0899999999999999,,blueberries,430.6000000089407,431,431.0,True,i,68947.29999999702,938.9000000059605,1669837804047,939,HRV,HRV_0272,2022-11-30 19:51:52
66,"[{'imgObject': {}, 'id': 'cocktailshrimp', 'src': '/static/foodstim60/cocktailshrimp.jpg', 'key': 'u', 'origWidth': 410, 'origHeight': 410, 'width': 410, 'height': 410, 'widthPercent': 0.45, 'rescaleHeight': False, 'trialN': 66, 'loaded': True, 'loadedTime': 68950, 'positionName': 'LEFT', 'positionCoords': [327.28, 156], 'bid': 9.24}, {'imgObject': {}, 'id': 'froot loops w milk', 'src': '/static/foodstim60/froot loops w milk.jpg', 'key': 'i', 'origWidth': 410, 'origHeight': 410, 'width': 410, 'height': 410, 'widthPercent': 0.45, 'rescaleHeight': False, 'trialN': 66, 'loaded': True, 'loadedTime': 68950.29999999702, 'positionName': 'RIGHT', 'positionCoords': [798.72, 156], 'bid': 9.2}]",68947.89999999106,1669837804048,cocktailshrimp,froot loops w milk,9.24,9.2,-0.040000000000000924,,froot loops w milk,1255.7000000029802,1256,1256.1000000089407,True,i,70718.19999998808,1770.2999999970198,1669837805818,1770,HRV,HRV_0272,2022-11-30 19:51:52
67,"[{'imgObject': {}, 'id': 'bagel and cc', 'src': '/static/foodstim60/bagel and cc.jpg', 'key': 'u', 'origWidth': 410, 'origHeight': 410, 'width': 410, 'height': 410, 'widthPercent': 0.45, 'rescaleHeight': False, 'trialN': 67, 'loaded': True, 'loadedTime': 70720.69999998808, 'positionName': 'LEFT', 'positionCoords': [327.28, 156], 'bid': 7.43}, {'imgObject': {}, 'id': 'blackbeanswithrice', 'src': '/static/foodstim60/blackbeanswithrice.jpg', 'key': 'i', 'origWidth': 410, 'origHeight': 410, 'width': 410, 'height': 410, 'widthPercent': 0.45, 'rescaleHeight': False, 'trialN': 67, 'loaded': True, 'loadedTime': 70721.09999999404, 'positionName': 'RIGHT', 'positionCoords': [798.72, 156], 'bid': 7.86}]",70718.69999998808,1669837805819,bagel and cc,blackbeanswithrice,7.43,7.86,0.4300000000000006,,blackbeanswithrice,2294.4000000059605,2295,2294.9000000059605,True,i,73537.0,2818.300000011921,1669837808637,2818,HRV,HRV_0272,2022-11-30 19:51:52
68,"[{'imgObject': {}, 'id': 'cantaloupe', 'src': '/static/foodstim60/cantaloupe.jpg', 'key': 'u', 'origWidth': 409, 'origHeight': 409, 'width': 409, 'height': 409, 'widthPercent': 0.45, 'rescaleHeight': False, 'trialN': 68, 'loaded': True, 'loadedTime': 73539.59999999404, 'positionName': 'LEFT', 'positionCoords': [328.28, 156.5], 'bid': 7.33}, {'imgObject': {}, 'id': 'eggs', 'src': '/static/foodstim60/eggs.jpg', 'key': 'i', 'origWidth': 409, 'origHeight': 409, 'width': 409, 'height': 409, 'widthPercent': 0.45, 'rescaleHeight': False, 'trialN': 68, 'loaded': True, 'loadedTime': 73540.5, 'positionName': 'RIGHT', 'positionCoords': [798.72, 156.5], 'bid': 7.05}]",73537.59999999404,1669837808638,cantaloupe,eggs,7.33,7.05,-0.28000000000000025,,cantaloupe,1037.9000000059605,1038,1038.4000000059605,True,u,75097.09999999404,1559.5,1669837810197,1559,HRV,HRV_0272,2022-11-30 19:51:52
69,"[{'imgObject': {}, 'id': 'lox', 'src': '/static/foodstim60/lox.jpg', 'key': 'u', 'origWidth': 410, 'origHeight': 411, 'width': 410, 'height': 411, 'widthPercent': 0.45, 'rescaleHeight': False, 'trialN': 69, 'loaded': True, 'loadedTime': 75099.59999999404, 'positionName': 'LEFT', 'positionCoords': [327.28, 155.5], 'bid': 8.290000000000001}, {'imgObject': {}, 'id': 'baked potato', 'src': '/static/foodstim60/baked potato.jpg', 'key': 'i', 'origWidth': 409, 'origHeight': 410, 'width': 409, 'height': 410, 'widthPercent': 0.45, 'rescaleHeight': False, 'trialN': 69, 'loaded': True, 'loadedTime': 75099.89999999106, 'positionName': 'RIGHT', 'positionCoords': [798.72, 156], 'bid': 8.15}]",75097.59999999404,1669837810198,lox,baked potato,8.290000000000001,8.15,-0.14000000000000057,,baked potato,269,269,269.59999999403954,True,i,75877.09999999404,779.5,1669837810977,779,HRV,HRV_0272,2022-11-30 19:51:52
70,"[{'imgObject': {}, 'id': 'sushi w_condiments', 'src': '/static/foodstim60/sushi w_condiments.jpg', 'key': 'u', 'origWidth': 410, 'origHeight': 410, 'width': 410, 'height': 410, 'widthPercent': 0.45, 'rescaleHeight': False, 'trialN': 70, 'loaded': True, 'loadedTime': 75879.79999999702, 'positionName': 'LEFT', 'positionCoords': [327.28, 156], 'bid': 7.96}, {'imgObject': {}, 'id': 'burger', 'src': '/static/foodstim60/burger.jpg', 'key': 'i', 'origWidth': 409, 'origHeight': 409, 'width': 409, 'height': 409, 'widthPercent': 0.45, 'rescaleHeight': False, 'trialN': 70, 'loaded': True, 'loadedTime': 75880.19999998808, 'positionName': 'RIGHT', 'positionCoords': [798.72, 156.5], 'bid': 8.98}]",75877.59999999404,1669837810978,sushi w_condiments,burger,7.96,8.98,1.0200000000000005,,sushi w_condiments,283,283,283.40000000596046,True,u,76677.09999999404,799.5,1669837811777,799,HRV,HRV_0272,2022-11-30 19:51:52
71,"[{'imgObject': {}, 'id': 'sweetpotato', 'src': '/static/foodstim60/sweetpotato.jpg', 'key': 'u', 'origWidth': 410, 'origHeight': 410, 'width': 410, 'height': 410, 'widthPercent': 0.45, 'rescaleHeight': False, 'trialN': 71, 'loaded': True, 'loadedTime': 76678.59999999404, 'positionName': 'LEFT', 'positionCoords': [327.28, 156], 'bid': 8.41}, {'imgObject': {}, 'id': 'avocado', 'src': '/static/foodstim60/avocado.jpg', 'key': 'i', 'origWidth': 409, 'origHeight': 409, 'width': 409, 'height': 409, 'widthPercent': 0.45, 'rescaleHeight': False, 'trialN': 71, 'loaded': True, 'loadedTime': 76680.19999998808, 'positionName': 'RIGHT', 'positionCoords': [798.72, 156.5], 'bid': 8.84}]",76677.69999998808,1669837811778,sweetpotato,avocado,8.41,8.84,0.4299999999999997,,avocado,39,39,39.400000005960464,True,i,77237.29999999702,559.6000000089407,1669837812337,559,HRV,HRV_0272,2022-11-30 19:51:52
72,"[{'imgObject': {}, 'id': 'raisin bran w milk', 'src': '/static/foodstim60/raisin bran w milk.jpg', 'key': 'u', 'origWidth': 411, 'origHeight': 411, 'width': 411, 'height': 411, 'widthPercent': 0.45, 'rescaleHeight': False, 'trialN': 72, 'loaded': True, 'loadedTime': 77240.59999999404, 'positionName': 'LEFT', 'positionCoords': [326.28, 155.5], 'bid': 7.3}, {'imgObject': {}, 'id': 'blueberries', 'src': '/static/foodstim60/blueberries.jpg', 'key': 'i', 'origWidth': 411, 'origHeight': 411, 'width': 411, 'height': 411, 'widthPercent': 0.45, 'rescaleHeight': False, 'trialN': 72, 'loaded': True, 'loadedTime': 77241.29999999702, 'positionName': 'RIGHT', 'positionCoords': [798.72, 155.5], 'bid': 8.02}]",77237.89999999106,1669837812338,raisin bran w milk,blueberries,7.3,8.02,0.7199999999999998,,blueberries,429.70000000298023,430,430.20000000298023,True,i,78177.0,939.1000000089407,1669837813277,939,HRV,HRV_0272,2022-11-30 19:51:52
73,"[{'imgObject': {}, 'id': 'cantaloupe', 'src': '/static/foodstim60/cantaloupe.jpg', 'key': 'u', 'origWidth': 409, 'origHeight': 409, 'width': 409, 'height': 409, 'widthPercent': 0.45, 'rescaleHeight': False, 'trialN': 73, 'loaded': True, 'loadedTime': 78179.5, 'positionName': 'LEFT', 'positionCoords': [328.28, 156.5], 'bid': 7.33}, {'imgObject': {}, 'id': 'strawberries', 'src': '/static/foodstim60/strawberries.jpg', 'key': 'i', 'origWidth': 410, 'origHeight': 410, 'width': 410, 'height': 410, 'widthPercent': 0.45, 'rescaleHeight': False, 'trialN': 73, 'loaded': True, 'loadedTime': 78179.79999999702, 'positionName': 'RIGHT', 'positionCoords': [798.72, 156], 'bid': 8.64}]",78177.5,1669837813278,cantaloupe,strawberries,7.33,8.64,1.3100000000000005,,strawberries,670.6999999880791,671,671.1999999880791,True,i,79357.19999998808,1179.699999988079,1669837814457,1179,HRV,HRV_0272,2022-11-30 19:51:52
74,"[{'imgObject': {}, 'id': 'turkeysandwich', 'src': '/static/foodstim60/turkeysandwich.jpg', 'key': 'u', 'origWidth': 409, 'origHeight': 409, 'width': 409, 'height': 409, 'widthPercent': 0.45, 'rescaleHeight': False, 'trialN': 74, 'loaded': True, 'loadedTime': 79360, 'positionName': 'LEFT', 'positionCoords': [328.28, 156.5], 'bid': 8.07}, {'imgObject': {}, 'id': 'sweetpotato', 'src': '/static/foodstim60/sweetpotato.jpg', 'key': 'i', 'origWidth': 410, 'origHeight': 410, 'width': 410, 'height': 410, 'widthPercent': 0.45, 'rescaleHeight': False, 'trialN': 74, 'loaded': True, 'loadedTime': 79360.39999999106, 'positionName': 'RIGHT', 'positionCoords': [798.72, 156], 'bid': 8.41}]",79358.0,1669837814458,turkeysandwich,sweetpotato,8.07,8.41,0.33999999999999986,,turkeysandwich,595.5999999940395,596,596.0999999940395,True,u,80457.5,1099.5,1669837815557,1099,HRV,HRV_0272,2022-11-30 19:51:52
75,"[{'imgObject': {}, 'id': 'bagel and cc', 'src': '/static/foodstim60/bagel and cc.jpg', 'key': 'u', 'origWidth': 410, 'origHeight': 410, 'width': 410, 'height': 410, 'widthPercent': 0.45, 'rescaleHeight': False, 'trialN': 75, 'loaded': True, 'loadedTime': 80460.29999999702, 'positionName': 'LEFT', 'positionCoords': [327.28, 156], 'bid': 7.43}, {'imgObject': {}, 'id': 'edamame', 'src': '/static/foodstim60/edamame.jpg', 'key': 'i', 'origWidth': 409, 'origHeight': 410, 'width': 409, 'height': 410, 'widthPercent': 0.45, 'rescaleHeight': False, 'trialN': 75, 'loaded': True, 'loadedTime': 80460.69999998808, 'positionName': 'RIGHT', 'positionCoords': [798.72, 156], 'bid': 8.120000000000001}]",80458.09999999404,1669837815558,bagel and cc,edamame,7.43,8.120000000000001,0.6900000000000013,,bagel and cc,941.2999999970198,942,941.7999999970198,True,u,81907.29999999702,1449.2000000029802,1669837817007,1449,HRV,HRV_0272,2022-11-30 19:51:52
76,"[{'imgObject': {}, 'id': 'rigatoni and sauce', 'src': '/static/foodstim60/rigatoni and sauce.jpg', 'key': 'u', 'origWidth': 410, 'origHeight': 411, 'width': 410, 'height': 411, 'widthPercent': 0.45, 'rescaleHeight': False, 'trialN': 76, 'loaded': True, 'loadedTime': 81909.69999998808, 'positionName': 'LEFT', 'positionCoords': [327.28, 155.5], 'bid': 9.28}, {'imgObject': {}, 'id': 'orange slices', 'src': '/static/foodstim60/orange slices.jpg', 'key': 'i', 'origWidth': 409, 'origHeight': 410, 'width': 409, 'height': 410, 'widthPercent': 0.45, 'rescaleHeight': False, 'trialN': 76, 'loaded': True, 'loadedTime': 81910.39999999106, 'positionName': 'RIGHT', 'positionCoords': [798.72, 156], 'bid': 8.9}]",81907.89999999106,1669837817008,rigatoni and sauce,orange slices,9.28,8.9,-0.379999999999999,,rigatoni and sauce,588.2000000029802,589,588.7000000029802,True,u,83017.29999999702,1109.4000000059605,1669837818117,1109,HRV,HRV_0272,2022-11-30 19:51:52
77,"[{'imgObject': {}, 'id': 'Tribe humus pita', 'src': '/static/foodstim60/Tribe humus pita.jpg', 'key': 'u', 'origWidth': 411, 'origHeight': 411, 'width': 411, 'height': 411, 'widthPercent': 0.45, 'rescaleHeight': False, 'trialN': 77, 'loaded': True, 'loadedTime': 83019.79999999702, 'positionName': 'LEFT', 'positionCoords': [326.28, 155.5], 'bid': 7.16}, {'imgObject': {}, 'id': 'hotdog w must', 'src': '/static/foodstim60/hotdog w must.jpg', 'key': 'i', 'origWidth': 409, 'origHeight': 409, 'width': 409, 'height': 409, 'widthPercent': 0.45, 'rescaleHeight': False, 'trialN': 77, 'loaded': True, 'loadedTime': 83020.59999999404, 'positionName': 'RIGHT', 'positionCoords': [798.72, 156.5], 'bid': 8.55}]",83017.89999999106,1669837818118,Tribe humus pita,hotdog w must,7.16,8.55,1.3900000000000006,,hotdog w must,881.2000000029802,881,881.6000000089407,True,i,84417.09999999404,1399.2000000029802,1669837819517,1399,HRV,HRV_0272,2022-11-30 19:51:52
78,"[{'imgObject': {}, 'id': 'popsicles', 'src': '/static/foodstim60/popsicles.jpg', 'key': 'u', 'origWidth': 410, 'origHeight': 410, 'width': 410, 'height': 410, 'widthPercent': 0.45, 'rescaleHeight': False, 'trialN': 78, 'loaded': True, 'loadedTime': 84419.89999999106, 'positionName': 'LEFT', 'positionCoords': [327.28, 156], 'bid': 8.48}, {'imgObject': {}, 'id': 'olives', 'src': '/static/foodstim60/olives.jpg', 'key': 'i', 'origWidth': 410, 'origHeight': 410, 'width': 410, 'height': 410, 'widthPercent': 0.45, 'rescaleHeight': False, 'trialN': 78, 'loaded': True, 'loadedTime': 84420.39999999106, 'positionName': 'RIGHT', 'positionCoords': [798.72, 156], 'bid': 8.93}]",84417.59999999404,1669837819518,popsicles,olives,8.48,8.93,0.4499999999999993,,popsicles,971.2999999970198,971,971.7000000029802,True,u,85897.39999999106,1479.7999999970198,1669837820997,1479,HRV,HRV_0272,2022-11-30 19:51:52
79,"[{'imgObject': {}, 'id': 'ice cream sundae 002', 'src': '/static/foodstim60/ice cream sundae 002.jpg', 'key': 'u', 'origWidth': 409, 'origHeight': 409, 'width': 409, 'height': 409, 'widthPercent': 0.45, 'rescaleHeight': False, 'trialN': 79, 'loaded': True, 'loadedTime': 85899.89999999106, 'positionName': 'LEFT', 'positionCoords': [328.28, 156.5], 'bid': 7.98}, {'imgObject': {}, 'id': 'Tribe humus pita', 'src': '/static/foodstim60/Tribe humus pita.jpg', 'key': 'i', 'origWidth': 411, 'origHeight': 411, 'width': 411, 'height': 411, 'widthPercent': 0.45, 'rescaleHeight': False, 'trialN': 79, 'loaded': True, 'loadedTime': 85900.5, 'positionName': 'RIGHT', 'positionCoords': [798.72, 155.5], 'bid': 7.16}]",85897.89999999106,1669837820998,ice cream sundae 002,Tribe humus pita,7.98,7.16,-0.8200000000000003,,ice cream sundae 002,880.9000000059605,881,881.2999999970198,True,u,87297.29999999702,1399.4000000059605,1669837822397,1399,HRV,HRV_0272,2022-11-30 19:51:52
80,"[{'imgObject': {}, 'id': 'tacos', 'src': '/static/foodstim60/tacos.jpg', 'key': 'u', 'origWidth': 411, 'origHeight': 411, 'width': 411, 'height': 411, 'widthPercent': 0.45, 'rescaleHeight': False, 'trialN': 80, 'loaded': True, 'loadedTime': 87300.19999998808, 'positionName': 'LEFT', 'positionCoords': [326.28, 155.5], 'bid': 8.22}, {'imgObject': {}, 'id': 'Grapes', 'src': '/static/foodstim60/Grapes.jpg', 'key': 'i', 'origWidth': 411, 'origHeight': 411, 'width': 411, 'height': 411, 'widthPercent': 0.45, 'rescaleHeight': False, 'trialN': 80, 'loaded': True, 'loadedTime': 87300.5, 'positionName': 'RIGHT', 'positionCoords': [798.72, 155.5], 'bid': 8.51}]",87298.0,1669837822398,tacos,Grapes,8.22,8.51,0.28999999999999915,,tacos,558.0999999940395,558,558.5,True,u,88377.19999998808,1079.199999988079,1669837823477,1079,HRV,HRV_0272,2022-11-30 19:51:52
81,"[{'imgObject': {}, 'id': 'shreddedwheatwithmilk', 'src': '/static/foodstim60/shreddedwheatwithmilk.jpg', 'key': 'u', 'origWidth': 410, 'origHeight': 410, 'width': 410, 'height': 410, 'widthPercent': 0.45, 'rescaleHeight': False, 'trialN': 81, 'loaded': True, 'loadedTime': 88379.69999998808, 'positionName': 'LEFT', 'positionCoords': [327.28, 156], 'bid': 7.07}, {'imgObject': {}, 'id': 'raspberries', 'src': '/static/foodstim60/raspberries.jpg', 'key': 'i', 'origWidth': 411, 'origHeight': 411, 'width': 411, 'height': 411, 'widthPercent': 0.45, 'rescaleHeight': False, 'trialN': 81, 'loaded': True, 'loadedTime': 88380, 'positionName': 'RIGHT', 'positionCoords': [798.72, 155.5], 'bid': 7.43}]",88377.79999999702,1669837823478,shreddedwheatwithmilk,raspberries,7.07,7.43,0.35999999999999943,,shreddedwheatwithmilk,705.5999999940395,706,705.7999999970198,True,u,89597.29999999702,1219.5,1669837824697,1219,HRV,HRV_0272,2022-11-30 19:51:52
82,"[{'imgObject': {}, 'id': 'burger', 'src': '/static/foodstim60/burger.jpg', 'key': 'u', 'origWidth': 409, 'origHeight': 409, 'width': 409, 'height': 409, 'widthPercent': 0.45, 'rescaleHeight': False, 'trialN': 82, 'loaded': True, 'loadedTime': 89599.79999999702, 'positionName': 'LEFT', 'positionCoords': [328.28, 156.5], 'bid': 8.98}, {'imgObject': {}, 'id': 'olives', 'src': '/static/foodstim60/olives.jpg', 'key': 'i', 'origWidth': 410, 'origHeight': 410, 'width': 410, 'height': 410, 'widthPercent': 0.45, 'rescaleHeight': False, 'trialN': 82, 'loaded': True, 'loadedTime': 89600.29999999702, 'positionName': 'RIGHT', 'positionCoords': [798.72, 156], 'bid': 8.93}]",89597.79999999702,1669837824698,burger,olives,8.98,8.93,-0.05000000000000071,,burger,369.3999999910593,370,369.8999999910593,True,u,90477.0,879.2000000029802,1669837825577,879,HRV,HRV_0272,2022-11-30 19:51:52
83,"[{'imgObject': {}, 'id': 'olives', 'src': '/static/foodstim60/olives.jpg', 'key': 'u', 'origWidth': 410, 'origHeight': 410, 'width': 410, 'height': 410, 'widthPercent': 0.45, 'rescaleHeight': False, 'trialN': 83, 'loaded': True, 'loadedTime': 90480.39999999106, 'positionName': 'LEFT', 'positionCoords': [327.28, 156], 'bid': 8.93}, {'imgObject': {}, 'id': 'fruitsalad', 'src': '/static/foodstim60/fruitsalad.jpg', 'key': 'i', 'origWidth': 410, 'origHeight': 410, 'width': 410, 'height': 410, 'widthPercent': 0.45, 'rescaleHeight': False, 'trialN': 83, 'loaded': True, 'loadedTime': 90480.69999998808, 'positionName': 'RIGHT', 'positionCoords': [798.72, 156], 'bid': 9.36}]",90477.79999999702,1669837825578,olives,fruitsalad,8.93,9.36,0.4299999999999997,,fruitsalad,580.7000000029802,581,581.0999999940395,True,i,91577.39999999106,1099.5999999940395,1669837826677,1099,HRV,HRV_0272,2022-11-30 19:51:52
84,"[{'imgObject': {}, 'id': 'pear', 'src': '/static/foodstim60/pear.jpg', 'key': 'u', 'origWidth': 411, 'origHeight': 410, 'width': 411, 'height': 410, 'widthPercent': 0.45, 'rescaleHeight': False, 'trialN': 84, 'loaded': True, 'loadedTime': 91579.89999999106, 'positionName': 'LEFT', 'positionCoords': [326.28, 156], 'bid': 8.43}, {'imgObject': {}, 'id': 'salmon', 'src': '/static/foodstim60/salmon.jpg', 'key': 'i', 'origWidth': 410, 'origHeight': 409, 'width': 410, 'height': 409, 'widthPercent': 0.45, 'rescaleHeight': False, 'trialN': 84, 'loaded': True, 'loadedTime': 91580.29999999702, 'positionName': 'RIGHT', 'positionCoords': [798.72, 156.5], 'bid': 7.03}]",91577.89999999106,1669837826678,pear,salmon,8.43,7.03,-1.3999999999999995,"[{'event': 'onblur', 'details': 'out of focus', 'performance time': 92259.5, 'date time': 1669837827359}, {'event': 'visibilitychange', 'details': 'hidden', 'performance time': 93312.89999999106, 'date time': 1669837828413}]",NaN,NaN,NaN,,False,NaN,96411.09999999404,4833.20000000298,1669837831511,4833,HRV,HRV_0272,2022-11-30 19:51:52
85,"[{'imgObject': {}, 'id': 'banana', 'src': '/static/foodstim60/banana.jpg', 'key': 'u', 'origWidth': 410, 'origHeight': 410, 'width': 410, 'height': 410, 'widthPercent': 0.45, 'rescaleHeight': False, 'trialN': 85, 'loaded': True, 'loadedTime': 96416.89999999106, 'positionName': 'LEFT', 'positionCoords': [327.28, 156], 'bid': 8.82}, {'imgObject': {}, 'id': 'luckycharms', 'src': '/static/foodstim60/luckycharms.jpg', 'key': 'i', 'origWidth': 410, 'origHeight': 409, 'width': 410, 'height': 409, 'widthPercent': 0.45, 'rescaleHeight': False, 'trialN': 85, 'loaded': True, 'loadedTime': 96417.19999998808, 'positionName': 'RIGHT', 'positionCoords': [798.72, 156.5], 'bid': 8.39}]",96411.59999999404,1669837831512,banana,luckycharms,8.82,8.39,-0.4299999999999997,"[{'event': 'visibilitychange', 'details': 'visible', 'performance time': 98202, 'date time': 1669837833302}, {'event': 'onfocus', 'details': 'in focus', 'performance time': 98203.29999999702, 'date time': 1669837833303}]",luckycharms,2358.2999999970198,2358,2358.9000000059605,True,i,99277.09999999404,2865.5,1669837834377,2865,HRV,HRV_0272,2022-11-30 19:51:52
86,"[{'imgObject': {}, 'id': 'burrito', 'src': '/static/foodstim60/burrito.jpg', 'key': 'u', 'origWidth': 410, 'origHeight': 410, 'width': 410, 'height': 410, 'widthPercent': 0.45, 'rescaleHeight': False, 'trialN': 86, 'loaded': True, 'loadedTime': 99280, 'positionName': 'LEFT', 'positionCoords': [327.28, 156], 'bid': 9.15}, {'imgObject': {}, 'id': 'salad w chicken', 'src': '/static/foodstim60/salad w chicken.jpg', 'key': 'i', 'origWidth': 411, 'origHeight': 411, 'width': 411, 'height': 411, 'widthPercent': 0.45, 'rescaleHeight': False, 'trialN': 86, 'loaded': True, 'loadedTime': 99280.59999999404, 'positionName': 'RIGHT', 'positionCoords': [798.72, 155.5], 'bid': 8.78}]",99278.0,1669837834378,burrito,salad w chicken,9.15,8.78,-0.370000000000001,,burrito,384.29999999701977,385,384.69999998807907,True,u,100177.5,899.5,1669837835278,900,HRV,HRV_0272,2022-11-30 19:51:52
87,"[{'imgObject': {}, 'id': 'grilled chicken strips', 'src': '/static/foodstim60/grilled chicken strips.jpg', 'key': 'u', 'origWidth': 410, 'origHeight': 411, 'width': 410, 'height': 411, 'widthPercent': 0.45, 'rescaleHeight': False, 'trialN': 87, 'loaded': True, 'loadedTime': 100180.19999998808, 'positionName': 'LEFT', 'positionCoords': [327.28, 155.5], 'bid': 8.63}, {'imgObject': {}, 'id': 'eggsalad', 'src': '/static/foodstim60/eggsalad.jpg', 'key': 'i', 'origWidth': 410, 'origHeight': 409, 'width': 410, 'height': 409, 'widthPercent': 0.45, 'rescaleHeight': False, 'trialN': 87, 'loaded': True, 'loadedTime': 100180.5, 'positionName': 'RIGHT', 'positionCoords': [798.72, 156.5], 'bid': 9.11}]",100178.09999999404,1669837835278,grilled chicken strips,eggsalad,8.63,9.11,0.47999999999999865,,grilled chicken strips,694.5,695,695.0,True,u,101382.59999999404,1204.5,1669837836483,1205,HRV,HRV_0272,2022-11-30 19:51:52
88,"[{'imgObject': {}, 'id': 'Grapes', 'src': '/static/foodstim60/Grapes.jpg', 'key': 'u', 'origWidth': 411, 'origHeight': 411, 'width': 411, 'height': 411, 'widthPercent': 0.45, 'rescaleHeight': False, 'trialN': 88, 'loaded': True, 'loadedTime': 101384.89999999106, 'positionName': 'LEFT', 'positionCoords': [326.28, 155.5], 'bid': 8.51}, {'imgObject': {}, 'id': 'popsicles', 'src': '/static/foodstim60/popsicles.jpg', 'key': 'i', 'origWidth': 410, 'origHeight': 410, 'width': 410, 'height': 410, 'widthPercent': 0.45, 'rescaleHeight': False, 'trialN': 88, 'loaded': True, 'loadedTime': 101385.29999999702, 'positionName': 'RIGHT', 'positionCoords': [798.72, 156], 'bid': 8.48}]",101383.09999999404,1669837836483,Grapes,popsicles,8.51,8.48,-0.02999999999999936,,popsicles,18.200000002980232,19,18.599999994039536,True,i,101907.09999999404,524.0,1669837837007,524,HRV,HRV_0272,2022-11-30 19:51:52
89,"[{'imgObject': {}, 'id': 'turkey sandwich', 'src': '/static/foodstim60/turkey sandwich.jpg', 'key': 'u', 'origWidth': 409, 'origHeight': 409, 'width': 409, 'height': 409, 'widthPercent': 0.45, 'rescaleHeight': False, 'trialN': 89, 'loaded': True, 'loadedTime': 101909.89999999106, 'positionName': 'LEFT', 'positionCoords': [328.28, 156.5], 'bid': 7.86}, {'imgObject': {}, 'id': 'eggs', 'src': '/static/foodstim60/eggs.jpg', 'key': 'i', 'origWidth': 409, 'origHeight': 409, 'width': 409, 'height': 409, 'widthPercent': 0.45, 'rescaleHeight': False, 'trialN': 89, 'loaded': True, 'loadedTime': 101910.39999999106, 'positionName': 'RIGHT', 'positionCoords': [798.72, 156.5], 'bid': 7.05}]",101907.5,1669837837008,turkey sandwich,eggs,7.86,7.05,-0.8100000000000005,,eggs,30.799999997019768,31,31.19999998807907,True,i,102442.29999999702,534.7999999970198,1669837837542,534,HRV,HRV_0272,2022-11-30 19:51:52
90,"[{'imgObject': {}, 'id': 'corn cob', 'src': '/static/foodstim60/corn cob.jpg', 'key': 'u', 'origWidth': 411, 'origHeight': 411, 'width': 411, 'height': 411, 'widthPercent': 0.45, 'rescaleHeight': False, 'trialN': 90, 'loaded': True, 'loadedTime': 3411, 'positionName': 'LEFT', 'positionCoords': [326.28, 226.5], 'bid': 5.62}, {'imgObject': {}, 'id': 'fried eggs', 'src': '/static/foodstim60/fried eggs.jpg', 'key': 'i', 'origWidth': 410, 'origHeight': 410, 'width': 410, 'height': 410, 'widthPercent': 0.45, 'rescaleHeight': False, 'trialN': 90, 'loaded': True, 'loadedTime': 3411.0999999940395, 'positionName': 'RIGHT', 'positionCoords': [798.72, 227], 'bid': 6.53}]",104826.39999999106,1669837839926,corn cob,fried eggs,5.62,6.53,0.9100000000000001,"[{'event': 'fullscreenchange', 'details': 'fullscreenenter', 'performance time': 104827, 'date time': 1669837839927}, {'event': 'fullscreenchange', 'details': 'fullscreenexit', 'performance time': 106548.29999999702, 'date time': 1669837841648}]",corn cob,2349.6000000089407,2350,2350.0,True,u,107689.79999999702,2863.4000000059605,1669837842790,2864,HRV,HRV_0272,2022-11-30 19:51:52
91,"[{'imgObject': {}, 'id': 'chicken nuggets2', 'src': '/static/foodstim60/chicken nuggets2.jpg', 'key': 'u', 'origWidth': 410, 'origHeight': 409, 'width': 410, 'height': 409, 'widthPercent': 0.45, 'rescaleHeight': False, 'trialN': 91, 'loaded': True, 'loadedTime': 107692.19999998808, 'positionName': 'LEFT', 'positionCoords': [327.28, 156.5], 'bid': 8.950000000000001}, {'imgObject': {}, 'id': 'froot loops w milk', 'src': '/static/foodstim60/froot loops w milk.jpg', 'key': 'i', 'origWidth': 410, 'origHeight': 410, 'width': 410, 'height': 410, 'widthPercent': 0.45, 'rescaleHeight': False, 'trialN': 91, 'loaded': True, 'loadedTime': 107692.89999999106, 'positionName': 'RIGHT', 'positionCoords': [798.72, 156], 'bid': 9.2}]",107690.19999998808,1669837842790,chicken nuggets2,froot loops w milk,8.950000000000001,9.2,0.24999999999999822,,chicken nuggets2,930.8000000119209,931,931.2000000029802,True,u,109126.39999999106,1436.2000000029802,1669837844226,1436,HRV,HRV_0272,2022-11-30 19:51:52
92,"[{'imgObject': {}, 'id': 'popsicles', 'src': '/static/foodstim60/popsicles.jpg', 'key': 'u', 'origWidth': 410, 'origHeight': 410, 'width': 410, 'height': 410, 'widthPercent': 0.45, 'rescaleHeight': False, 'trialN': 92, 'loaded': True, 'loadedTime': 109127.79999999702, 'positionName': 'LEFT', 'positionCoords': [327.28, 156], 'bid': 8.48}, {'imgObject': {}, 'id': 'blueberries', 'src': '/static/foodstim60/blueberries.jpg', 'key': 'i', 'origWidth': 411, 'origHeight': 411, 'width': 411, 'height': 411, 'widthPercent': 0.45, 'rescaleHeight': False, 'trialN': 92, 'loaded': True, 'loadedTime': 109127.89999999106, 'positionName': 'RIGHT', 'positionCoords': [798.72, 155.5], 'bid': 8.02}]",109126.79999999702,1669837844227,popsicles,blueberries,8.48,8.02,-0.46000000000000085,,blueberries,484.79999999701977,485,485.29999999701977,True,i,110120.29999999702,993.5,1669837845220,993,HRV,HRV_0272,2022-11-30 19:51:52
93,"[{'imgObject': {}, 'id': 'popsicles', 'src': '/static/foodstim60/popsicles.jpg', 'key': 'u', 'origWidth': 410, 'origHeight': 410, 'width': 410, 'height': 410, 'widthPercent': 0.45, 'rescaleHeight': False, 'trialN': 93, 'loaded': True, 'loadedTime': 110121.59999999404, 'positionName': 'LEFT', 'positionCoords': [327.28, 156], 'bid': 8.48}, {'imgObject': {}, 'id': 'baked potato', 'src': '/static/foodstim60/baked potato.jpg', 'key': 'i', 'origWidth': 409, 'origHeight': 410, 'width': 409, 'height': 410, 'widthPercent': 0.45, 'rescaleHeight': False, 'trialN': 93, 'loaded': True, 'loadedTime': 110121.79999999702, 'positionName': 'RIGHT', 'positionCoords': [798.72, 156], 'bid': 8.15}]",110120.79999999702,1669837845221,popsicles,baked potato,8.48,8.15,-0.33000000000000007,,popsicles,380.70000000298023,381,381.09999999403954,True,u,111015.39999999106,894.5999999940395,1669837846115,894,HRV,HRV_0272,2022-11-30 19:51:52
94,"[{'imgObject': {}, 'id': 'rigatoni', 'src': '/static/foodstim60/rigatoni.jpg', 'key': 'u', 'origWidth': 411, 'origHeight': 411, 'width': 411, 'height': 411, 'widthPercent': 0.45, 'rescaleHeight': False, 'trialN': 94, 'loaded': True, 'loadedTime': 111018.19999998808, 'positionName': 'LEFT', 'positionCoords': [326.28, 155.5], 'bid': 7.66}, {'imgObject': {}, 'id': 'corn cob', 'src': '/static/foodstim60/corn cob.jpg', 'key': 'i', 'origWidth': 411, 'origHeight': 411, 'width': 411, 'height': 411, 'widthPercent': 0.45, 'rescaleHeight': False, 'trialN': 94, 'loaded': True, 'loadedTime': 111018.69999998808, 'positionName': 'RIGHT', 'positionCoords': [798.72, 155.5], 'bid': 5.62}]",111015.89999999106,1669837846116,rigatoni,corn cob,7.66,5.62,-2.04,,rigatoni,380.1000000089407,381,380.70000000298023,True,u,111916.59999999404,900.7000000029802,1669837847017,901,HRV,HRV_0272,2022-11-30 19:51:52
95,"[{'imgObject': {}, 'id': 'hotdog w must', 'src': '/static/foodstim60/hotdog w must.jpg', 'key': 'u', 'origWidth': 409, 'origHeight': 409, 'width': 409, 'height': 409, 'widthPercent': 0.45, 'rescaleHeight': False, 'trialN': 95, 'loaded': True, 'loadedTime': 111919.09999999404, 'positionName': 'LEFT', 'positionCoords': [328.28, 156.5], 'bid': 8.55}, {'imgObject': {}, 'id': 'roastedpotatoes', 'src': '/static/foodstim60/roastedpotatoes.jpg', 'key': 'i', 'origWidth': 409, 'origHeight': 410, 'width': 409, 'height': 410, 'widthPercent': 0.45, 'rescaleHeight': False, 'trialN': 95, 'loaded': True, 'loadedTime': 111919.39999999106, 'positionName': 'RIGHT', 'positionCoords': [798.72, 156], 'bid': 8.540000000000001}]",111917.19999998808,1669837847017,hotdog w must,roastedpotatoes,8.55,8.540000000000001,-0.009999999999999787,"[{'event': 'onblur', 'details': 'out of focus', 'performance time': 112363.09999999404, 'date time': 1669837847463}, {'event': 'visibilitychange', 'details': 'hidden', 'performance time': 112369.69999998808, 'date time': 1669837847470}]",roastedpotatoes,44.400000005960464,45,44.80000001192093,True,i,113400.59999999404,1483.4000000059605,1669837848501,1484,HRV,HRV_0272,2022-11-30 19:51:52
96,"[{'imgObject': {}, 'id': 'rigatoni', 'src': '/static/foodstim60/rigatoni.jpg', 'key': 'u', 'origWidth': 411, 'origHeight': 411, 'width': 411, 'height': 411, 'widthPercent': 0.45, 'rescaleHeight': False, 'trialN': 96, 'loaded': True, 'loadedTime': 113402.09999999404, 'positionName': 'LEFT', 'positionCoords': [326.28, 155.5], 'bid': 7.66}, {'imgObject': {}, 'id': 'salad w chicken', 'src': '/static/foodstim60/salad w chicken.jpg', 'key': 'i', 'origWidth': 411, 'origHeight': 411, 'width': 411, 'height': 411, 'widthPercent': 0.45, 'rescaleHeight': False, 'trialN': 96, 'loaded': True, 'loadedTime': 113402.29999999702, 'positionName': 'RIGHT', 'positionCoords': [798.72, 155.5], 'bid': 8.78}]",113401.19999998808,1669837848501,rigatoni,salad w chicken,7.66,8.78,1.1199999999999992,"[{'event': 'visibilitychange', 'details': 'visible', 'performance time': 119005.29999999702, 'date time': 1669837854105}, {'event': 'onfocus', 'details': 'in focus', 'performance time': 119006.09999999404, 'date time': 1669837854106}]",NaN,NaN,NaN,5605.0,False,NaN,119520.19999998808,6119.0,1669837854620,6119,HRV,HRV_0272,2022-11-30 19:51:52
97,"[{'imgObject': {}, 'id': 'salmon', 'src': '/static/foodstim60/salmon.jpg', 'key': 'u', 'origWidth': 410, 'origHeight': 409, 'width': 410, 'height': 409, 'widthPercent': 0.45, 'rescaleHeight': False, 'trialN': 97, 'loaded': True, 'loadedTime': 119523.09999999404, 'positionName': 'LEFT', 'positionCoords': [327.28, 156.5], 'bid': 7.03}, {'imgObject': {}, 'id': 'cherry tomato', 'src': '/static/foodstim60/cherry tomato.jpg', 'key': 'i', 'origWidth': 410, 'origHeight': 410, 'width': 410, 'height': 410, 'widthPercent': 0.45, 'rescaleHeight': False, 'trialN': 97, 'loaded': True, 'loadedTime': 119523.39999999106, 'positionName': 'RIGHT', 'positionCoords': [798.72, 156], 'bid': 5.95}]",119520.79999999702,1669837854621,salmon,cherry tomato,7.03,5.95,-1.08,,cherry tomato,82.3999999910593,83,82.79999999701977,True,i,120112.39999999106,591.5999999940395,1669837855212,591,HRV,HRV_0272,2022-11-30 19:51:52
98,"[{'imgObject': {}, 'id': 'turkey sandwich', 'src': '/static/foodstim60/turkey sandwich.jpg', 'key': 'u', 'origWidth': 409, 'origHeight': 409, 'width': 409, 'height': 409, 'widthPercent': 0.45, 'rescaleHeight': False, 'trialN': 98, 'loaded': True, 'loadedTime': 120115.09999999404, 'positionName': 'LEFT', 'positionCoords': [328.28, 156.5], 'bid': 7.86}, {'imgObject': {}, 'id': 'granola w milk', 'src': '/static/foodstim60/granola w milk.jpg', 'key': 'i', 'origWidth': 410, 'origHeight': 410, 'width': 410, 'height': 410, 'widthPercent': 0.45, 'rescaleHeight': False, 'trialN': 98, 'loaded': True, 'loadedTime': 120115.5, 'positionName': 'RIGHT', 'positionCoords': [798.72, 156], 'bid': 7.5}]",120113.09999999404,1669837855213,turkey sandwich,granola w milk,7.86,7.5,-0.3600000000000003,,granola w milk,165.79999999701977,166,166.20000000298023,True,i,120787.5,674.4000000059605,1669837855887,674,HRV,HRV_0272,2022-11-30 19:51:52
99,"[{'imgObject': {}, 'id': 'cherries', 'src': '/static/foodstim60/cherries.jpg', 'key': 'u', 'origWidth': 410, 'origHeight': 411, 'width': 410, 'height': 411, 'widthPercent': 0.45, 'rescaleHeight': False, 'trialN': 99, 'loaded': True, 'loadedTime': 120789.79999999702, 'positionName': 'LEFT', 'positionCoords': [327.28, 155.5], 'bid': 7.65}, {'imgObject': {}, 'id': 'rigatoni', 'src': '/static/foodstim60/rigatoni.jpg', 'key': 'i', 'origWidth': 411, 'origHeight': 411, 'width': 411, 'height': 411, 'widthPercent': 0.45, 'rescaleHeight': False, 'trialN': 99, 'loaded': True, 'loadedTime': 120790.39999999106, 'positionName': 'RIGHT', 'positionCoords': [798.72, 155.5], 'bid': 7.66}]",120788.0,1669837855888,cherries,rigatoni,7.65,7.66,0.009999999999999787,,rigatoni,33.599999994039536,34,34.099999994039536,True,i,121335.69999998808,547.6999999880791,1669837856436,548,HRV,HRV_0272,2022-11-30 19:51:52
100,"[{'imgObject': {}, 'id': 'omelette', 'src': '/static/foodstim60/omelette.jpg', 'key': 'u', 'origWidth': 410, 'origHeight': 409, 'width': 410, 'height': 409, 'widthPercent': 0.45, 'rescaleHeight': False, 'trialN': 100, 'loaded': True, 'loadedTime': 121338.29999999702, 'positionName': 'LEFT', 'positionCoords': [327.28, 156.5], 'bid': 8.03}, {'imgObject': {}, 'id': 'edamame', 'src': '/static/foodstim60/edamame.jpg', 'key': 'i', 'origWidth': 409, 'origHeight': 410, 'width': 409, 'height': 410, 'widthPercent': 0.45, 'rescaleHeight': False, 'trialN': 100, 'loaded': True, 'loadedTime': 121339, 'positionName': 'RIGHT', 'positionCoords': [798.72, 156], 'bid': 8.120000000000001}]",121336.5,1669837856436,omelette,edamame,8.03,8.120000000000001,0.09000000000000163,,omelette,18.5,19,19.0,True,u,121862.69999998808,526.1999999880791,1669837856963,527,HRV,HRV_0272,2022-11-30 19:51:52
101,"[{'imgObject': {}, 'id': 'froot loops w milk', 'src': '/static/foodstim60/froot loops w milk.jpg', 'key': 'u', 'origWidth': 410, 'origHeight': 410, 'width': 410, 'height': 410, 'widthPercent': 0.45, 'rescaleHeight': False, 'trialN': 101, 'loaded': True, 'loadedTime': 121865.29999999702, 'positionName': 'LEFT', 'positionCoords': [327.28, 156], 'bid': 9.2}, {'imgObject': {}, 'id': 'banana', 'src': '/static/foodstim60/banana.jpg', 'key': 'i', 'origWidth': 410, 'origHeight': 410, 'width': 410, 'height': 410, 'widthPercent': 0.45, 'rescaleHeight': False, 'trialN': 101, 'loaded': True, 'loadedTime': 121865.59999999404, 'positionName': 'RIGHT', 'positionCoords': [798.72, 156], 'bid': 8.82}]",121863.29999999702,1669837856963,froot loops w milk,banana,9.2,8.82,-0.379999999999999,,banana,73,74,73.3999999910593,True,i,122454.79999999702,591.5,1669837857555,592,HRV,HRV_0272,2022-11-30 19:51:52
102,"[{'imgObject': {}, 'id': 'cherry tomato', 'src': '/static/foodstim60/cherry tomato.jpg', 'key': 'u', 'origWidth': 410, 'origHeight': 410, 'width': 410, 'height': 410, 'widthPercent': 0.45, 'rescaleHeight': False, 'trialN': 102, 'loaded': True, 'loadedTime': 122458.19999998808, 'positionName': 'LEFT', 'positionCoords': [327.28, 156], 'bid': 5.95}, {'imgObject': {}, 'id': 'luckycharms', 'src': '/static/foodstim60/luckycharms.jpg', 'key': 'i', 'origWidth': 410, 'origHeight': 409, 'width': 410, 'height': 409, 'widthPercent': 0.45, 'rescaleHeight': False, 'trialN': 102, 'loaded': True, 'loadedTime': 122458.5, 'positionName': 'RIGHT', 'positionCoords': [798.72, 156.5], 'bid': 8.39}]",122455.39999999106,1669837857555,cherry tomato,luckycharms,5.95,8.39,2.4400000000000004,,cherry tomato,33.70000000298023,35,34.20000000298023,True,u,122996.09999999404,540.7000000029802,1669837858096,541,HRV,HRV_0272,2022-11-30 19:51:52
103,"[{'imgObject': {}, 'id': 'Grapes', 'src': '/static/foodstim60/Grapes.jpg', 'key': 'u', 'origWidth': 411, 'origHeight': 411, 'width': 411, 'height': 411, 'widthPercent': 0.45, 'rescaleHeight': False, 'trialN': 103, 'loaded': True, 'loadedTime': 122998.59999999404, 'positionName': 'LEFT', 'positionCoords': [326.28, 155.5], 'bid': 8.51}, {'imgObject': {}, 'id': 'chicken nuggets2', 'src': '/static/foodstim60/chicken nuggets2.jpg', 'key': 'i', 'origWidth': 410, 'origHeight': 409, 'width': 410, 'height': 409, 'widthPercent': 0.45, 'rescaleHeight': False, 'trialN': 103, 'loaded': True, 'loadedTime': 122999.29999999702, 'positionName': 'RIGHT', 'positionCoords': [798.72, 156.5], 'bid': 8.950000000000001}]",122996.59999999404,1669837858097,Grapes,chicken nuggets2,8.51,8.950000000000001,0.4400000000000013,,chicken nuggets2,93.5,94,94.0,True,i,123593.29999999702,596.7000000029802,1669837858693,596,HRV,HRV_0272,2022-11-30 19:51:52
104,"[{'imgObject': {}, 'id': 'hashbrowns', 'src': '/static/foodstim60/hashbrowns.jpg', 'key': 'u', 'origWidth': 411, 'origHeight': 410, 'width': 411, 'height': 410, 'widthPercent': 0.45, 'rescaleHeight': False, 'trialN': 104, 'loaded': True, 'loadedTime': 123596, 'positionName': 'LEFT', 'positionCoords': [326.28, 156], 'bid': 7.09}, {'imgObject': {}, 'id': 'eggs', 'src': '/static/foodstim60/eggs.jpg', 'key': 'i', 'origWidth': 409, 'origHeight': 409, 'width': 409, 'height': 409, 'widthPercent': 0.45, 'rescaleHeight': False, 'trialN': 104, 'loaded': True, 'loadedTime': 123596.5, 'positionName': 'RIGHT', 'positionCoords': [798.72, 156.5], 'bid': 7.05}]",123593.89999999106,1669837858694,hashbrowns,eggs,7.09,7.05,-0.040000000000000036,,hashbrowns,137.5,138,138.1000000089407,True,u,124243.79999999702,649.9000000059605,1669837859344,650,HRV,HRV_0272,2022-11-30 19:51:52
105,"[{'imgObject': {}, 'id': 'kiwi', 'src': '/static/foodstim60/kiwi.jpg', 'key': 'u', 'origWidth': 410, 'origHeight': 410, 'width': 410, 'height': 410, 'widthPercent': 0.45, 'rescaleHeight': False, 'trialN': 105, 'loaded': True, 'loadedTime': 124246.19999998808, 'positionName': 'LEFT', 'positionCoords': [327.28, 156], 'bid': 8.71}, {'imgObject': {}, 'id': 'banana', 'src': '/static/foodstim60/banana.jpg', 'key': 'i', 'origWidth': 410, 'origHeight': 410, 'width': 410, 'height': 410, 'widthPercent': 0.45, 'rescaleHeight': False, 'trialN': 105, 'loaded': True, 'loadedTime': 124246.5, 'positionName': 'RIGHT', 'positionCoords': [798.72, 156], 'bid': 8.82}]",124244.29999999702,1669837859344,kiwi,banana,8.71,8.82,0.10999999999999943,,banana,103,104,103.3999999910593,True,i,124852.0,607.7000000029802,1669837859952,608,HRV,HRV_0272,2022-11-30 19:51:52
106,"[{'imgObject': {}, 'id': 'steak', 'src': '/static/foodstim60/steak.jpg', 'key': 'u', 'origWidth': 410, 'origHeight': 410, 'width': 410, 'height': 410, 'widthPercent': 0.45, 'rescaleHeight': False, 'trialN': 106, 'loaded': True, 'loadedTime': 124854.59999999404, 'positionName': 'LEFT', 'positionCoords': [327.28, 156], 'bid': 7.73}, {'imgObject': {}, 'id': 'hashbrowns', 'src': '/static/foodstim60/hashbrowns.jpg', 'key': 'i', 'origWidth': 411, 'origHeight': 410, 'width': 411, 'height': 410, 'widthPercent': 0.45, 'rescaleHeight': False, 'trialN': 106, 'loaded': True, 'loadedTime': 124854.89999999106, 'positionName': 'RIGHT', 'positionCoords': [798.72, 156], 'bid': 7.09}]",124852.5,1669837859953,steak,hashbrowns,7.73,7.09,-0.6400000000000006,,hashbrowns,21.599999994039536,21,22.0,True,i,125391.29999999702,538.7999999970198,1669837860491,538,HRV,HRV_0272,2022-11-30 19:51:52
