trialN,stimuli,question,trialStartTime,trialStartTime_UNIX,stimulus1,trialEvents,rt,receivedResponse,rating,trialEndTime,trialDuration,stimulus1Loaded,exp,subjectId,date
0,"[{'imgObject': {}, 'id': 'eggs', 'src': '/static/foodstim60/eggs.jpg', 'key': 'NaN', 'origWidth': 409, 'origHeight': 409, 'width': 409, 'height': 409, 'widthPercent': 0.8, 'rescaleHeight': True, 'trialN': 0, 'loaded': True, 'loadedTime': 3407.9000000059605, 'positionName': 'CENTER', 'positionCoords': [563.5, 156.5]}]",Rate how much you want to eat this food from 0 (least) to 10 (most).,3127.0,1669837577564,eggs,"[{'event': 'fullscreenchange', 'details': 'fullscreenexit', 'performance time': 3130.1000000089407, 'date time': 1669837577567}]",1404.0,True,5.01,4531.0,1404.0,True,HRV,HRV_0272,2022-11-30 19:47:20
1,"[{'imgObject': {}, 'id': 'hashbrowns', 'src': '/static/foodstim60/hashbrowns.jpg', 'key': 'NaN', 'origWidth': 411, 'origHeight': 410, 'width': 411, 'height': 410, 'widthPercent': 0.8, 'rescaleHeight': True, 'trialN': 1, 'loaded': True, 'loadedTime': 5379.800000011921, 'positionName': 'CENTER', 'positionCoords': [562.5, 156]}]",Rate how much you want to eat this food from 0 (least) to 10 (most).,4532.9000000059605,1669837578970,hashbrowns,,1961.7999999970198,True,7.94,6494.70000000298,1961.7999999970198,True,HRV,HRV_0272,2022-11-30 19:47:20
2,"[{'imgObject': {}, 'id': 'salmon', 'src': '/static/foodstim60/salmon.jpg', 'key': 'NaN', 'origWidth': 410, 'origHeight': 409, 'width': 410, 'height': 409, 'widthPercent': 0.8, 'rescaleHeight': True, 'trialN': 2, 'loaded': True, 'loadedTime': 6498.4000000059605, 'positionName': 'CENTER', 'positionCoords': [563, 156.5]}]",Rate how much you want to eat this food from 0 (least) to 10 (most).,6495.800000011921,1669837580932,salmon,,878.8999999910593,True,6.43,7374.70000000298,878.8999999910593,True,HRV,HRV_0272,2022-11-30 19:47:20
3,"[{'imgObject': {}, 'id': 'salad w chicken', 'src': '/static/foodstim60/salad w chicken.jpg', 'key': 'NaN', 'origWidth': 411, 'origHeight': 411, 'width': 411, 'height': 411, 'widthPercent': 0.8, 'rescaleHeight': True, 'trialN': 3, 'loaded': True, 'loadedTime': 7383.70000000298, 'positionName': 'CENTER', 'positionCoords': [562.5, 155.5]}]",Rate how much you want to eat this food from 0 (least) to 10 (most).,7376.4000000059605,1669837581813,salad w chicken,,834.0,True,8.120000000000001,8210.40000000596,834.0,True,HRV,HRV_0272,2022-11-30 19:47:20
4,"[{'imgObject': {}, 'id': 'orange slices', 'src': '/static/foodstim60/orange slices.jpg', 'key': 'NaN', 'origWidth': 409, 'origHeight': 410, 'width': 409, 'height': 410, 'widthPercent': 0.8, 'rescaleHeight': True, 'trialN': 4, 'loaded': True, 'loadedTime': 8215.40000000596, 'positionName': 'CENTER', 'positionCoords': [563.5, 156]}]",Rate how much you want to eat this food from 0 (least) to 10 (most).,8211.70000000298,1669837582648,orange slices,,1450.9000000059605,True,9.1,9662.60000000894,1450.9000000059605,True,HRV,HRV_0272,2022-11-30 19:47:20
5,"[{'imgObject': {}, 'id': 'burrito', 'src': '/static/foodstim60/burrito.jpg', 'key': 'NaN', 'origWidth': 410, 'origHeight': 410, 'width': 410, 'height': 410, 'widthPercent': 0.8, 'rescaleHeight': True, 'trialN': 5, 'loaded': True, 'loadedTime': 9680, 'positionName': 'CENTER', 'positionCoords': [563, 156]}]",Rate how much you want to eat this food from 0 (least) to 10 (most).,9677.0,1669837584114,burrito,,1678.0,True,6.01,11355.0,1678.0,True,HRV,HRV_0272,2022-11-30 19:47:20
6,"[{'imgObject': {}, 'id': 'hotdog w must', 'src': '/static/foodstim60/hotdog w must.jpg', 'key': 'NaN', 'origWidth': 409, 'origHeight': 409, 'width': 409, 'height': 409, 'widthPercent': 0.8, 'rescaleHeight': True, 'trialN': 6, 'loaded': True, 'loadedTime': 11362.60000000894, 'positionName': 'CENTER', 'positionCoords': [563.5, 156.5]}]",Rate how much you want to eat this food from 0 (least) to 10 (most).,11356.60000000894,1669837585793,hotdog w must,,916.0,True,3.52,12272.60000000894,916.0,True,HRV,HRV_0272,2022-11-30 19:47:20
7,"[{'imgObject': {}, 'id': 'cherry tomato', 'src': '/static/foodstim60/cherry tomato.jpg', 'key': 'NaN', 'origWidth': 410, 'origHeight': 410, 'width': 410, 'height': 410, 'widthPercent': 0.8, 'rescaleHeight': True, 'trialN': 7, 'loaded': True, 'loadedTime': 12276.300000011921, 'positionName': 'CENTER', 'positionCoords': [563, 156]}]",Rate how much you want to eat this food from 0 (least) to 10 (most).,12273.5,1669837586710,cherry tomato,,1181.5,True,7.86,13455.0,1181.5,True,HRV,HRV_0272,2022-11-30 19:47:20
8,"[{'imgObject': {}, 'id': 'lox', 'src': '/static/foodstim60/lox.jpg', 'key': 'NaN', 'origWidth': 410, 'origHeight': 411, 'width': 410, 'height': 411, 'widthPercent': 0.8, 'rescaleHeight': True, 'trialN': 8, 'loaded': True, 'loadedTime': 13458.70000000298, 'positionName': 'CENTER', 'positionCoords': [563, 155.5]}]",Rate how much you want to eat this food from 0 (least) to 10 (most).,13456.0,1669837587893,lox,,766.7000000029802,True,8.75,14222.70000000298,766.7000000029802,True,HRV,HRV_0272,2022-11-30 19:47:20
9,"[{'imgObject': {}, 'id': 'cocktailshrimp', 'src': '/static/foodstim60/cocktailshrimp.jpg', 'key': 'NaN', 'origWidth': 410, 'origHeight': 410, 'width': 410, 'height': 410, 'widthPercent': 0.8, 'rescaleHeight': True, 'trialN': 9, 'loaded': True, 'loadedTime': 14226.60000000894, 'positionName': 'CENTER', 'positionCoords': [563, 156]}]",Rate how much you want to eat this food from 0 (least) to 10 (most).,14223.70000000298,1669837588661,cocktailshrimp,,831.2999999970198,True,6.3,15055.0,831.2999999970198,True,HRV,HRV_0272,2022-11-30 19:47:20
10,"[{'imgObject': {}, 'id': 'yogurt no spoon', 'src': '/static/foodstim60/yogurt no spoon.jpg', 'key': 'NaN', 'origWidth': 411, 'origHeight': 410, 'width': 411, 'height': 410, 'widthPercent': 0.8, 'rescaleHeight': True, 'trialN': 10, 'loaded': True, 'loadedTime': 15059.60000000894, 'positionName': 'CENTER', 'positionCoords': [562.5, 156]}]",Rate how much you want to eat this food from 0 (least) to 10 (most).,15056.0,1669837589493,yogurt no spoon,,710.7000000029802,True,4.7,15766.70000000298,710.7000000029802,True,HRV,HRV_0272,2022-11-30 19:47:20
11,"[{'imgObject': {}, 'id': 'luckycharms', 'src': '/static/foodstim60/luckycharms.jpg', 'key': 'NaN', 'origWidth': 410, 'origHeight': 409, 'width': 410, 'height': 409, 'widthPercent': 0.8, 'rescaleHeight': True, 'trialN': 11, 'loaded': True, 'loadedTime': 15770.40000000596, 'positionName': 'CENTER', 'positionCoords': [563, 156.5]}]",Rate how much you want to eat this food from 0 (least) to 10 (most).,15767.60000000894,1669837590204,luckycharms,,1801.0999999940395,True,9.98,17568.70000000298,1801.0999999940395,True,HRV,HRV_0272,2022-11-30 19:47:20
12,"[{'imgObject': {}, 'id': 'mango', 'src': '/static/foodstim60/mango.jpg', 'key': 'NaN', 'origWidth': 411, 'origHeight': 411, 'width': 411, 'height': 411, 'widthPercent': 0.8, 'rescaleHeight': True, 'trialN': 12, 'loaded': True, 'loadedTime': 17572.40000000596, 'positionName': 'CENTER', 'positionCoords': [562.5, 155.5]}]",Rate how much you want to eat this food from 0 (least) to 10 (most).,17569.70000000298,1669837592007,mango,,1084.7999999970198,True,10.0,18654.5,1084.7999999970198,True,HRV,HRV_0272,2022-11-30 19:47:20
13,"[{'imgObject': {}, 'id': 'sushi w_condiments', 'src': '/static/foodstim60/sushi w_condiments.jpg', 'key': 'NaN', 'origWidth': 410, 'origHeight': 410, 'width': 410, 'height': 410, 'widthPercent': 0.8, 'rescaleHeight': True, 'trialN': 13, 'loaded': True, 'loadedTime': 18659, 'positionName': 'CENTER', 'positionCoords': [563, 156]}]",Rate how much you want to eat this food from 0 (least) to 10 (most).,18655.70000000298,1669837593093,sushi w_condiments,,1068.9000000059605,True,9.51,19724.60000000894,1068.9000000059605,True,HRV,HRV_0272,2022-11-30 19:47:20
14,"[{'imgObject': {}, 'id': 'Tribe humus pita', 'src': '/static/foodstim60/Tribe humus pita.jpg', 'key': 'NaN', 'origWidth': 411, 'origHeight': 411, 'width': 411, 'height': 411, 'widthPercent': 0.8, 'rescaleHeight': True, 'trialN': 14, 'loaded': True, 'loadedTime': 19728.90000000596, 'positionName': 'CENTER', 'positionCoords': [562.5, 155.5]}]",Rate how much you want to eat this food from 0 (least) to 10 (most).,19725.80000001192,1669837594163,Tribe humus pita,,860.6999999880791,True,9.92,20586.5,860.6999999880791,True,HRV,HRV_0272,2022-11-30 19:47:20
15,"[{'imgObject': {}, 'id': 'froot loops w milk', 'src': '/static/foodstim60/froot loops w milk.jpg', 'key': 'NaN', 'origWidth': 410, 'origHeight': 410, 'width': 410, 'height': 410, 'widthPercent': 0.8, 'rescaleHeight': True, 'trialN': 15, 'loaded': True, 'loadedTime': 20590.80000001192, 'positionName': 'CENTER', 'positionCoords': [563, 156]}]",Rate how much you want to eat this food from 0 (least) to 10 (most).,20587.5,1669837595024,froot loops w milk,,869.2000000029802,True,9.72,21456.70000000298,869.2000000029802,True,HRV,HRV_0272,2022-11-30 19:47:20
16,"[{'imgObject': {}, 'id': 'bagel plain', 'src': '/static/foodstim60/bagel plain.jpg', 'key': 'NaN', 'origWidth': 410, 'origHeight': 410, 'width': 410, 'height': 410, 'widthPercent': 0.8, 'rescaleHeight': True, 'trialN': 16, 'loaded': True, 'loadedTime': 21460.70000000298, 'positionName': 'CENTER', 'positionCoords': [563, 156]}]",Rate how much you want to eat this food from 0 (least) to 10 (most).,21457.80000001192,1669837595895,bagel plain,,625.0999999940395,True,9.03,22082.90000000596,625.0999999940395,True,HRV,HRV_0272,2022-11-30 19:47:20
17,"[{'imgObject': {}, 'id': 'rigatoni and sauce', 'src': '/static/foodstim60/rigatoni and sauce.jpg', 'key': 'NaN', 'origWidth': 410, 'origHeight': 411, 'width': 410, 'height': 411, 'widthPercent': 0.8, 'rescaleHeight': True, 'trialN': 17, 'loaded': True, 'loadedTime': 22086, 'positionName': 'CENTER', 'positionCoords': [563, 155.5]}]",Rate how much you want to eat this food from 0 (least) to 10 (most).,22083.90000000596,1669837596521,rigatoni and sauce,,1866.5999999940395,True,8.040000000000001,23950.5,1866.5999999940395,True,HRV,HRV_0272,2022-11-30 19:47:20
18,"[{'imgObject': {}, 'id': 'grilled chicken strips', 'src': '/static/foodstim60/grilled chicken strips.jpg', 'key': 'NaN', 'origWidth': 410, 'origHeight': 411, 'width': 410, 'height': 411, 'widthPercent': 0.8, 'rescaleHeight': True, 'trialN': 18, 'loaded': True, 'loadedTime': 23954.10000000894, 'positionName': 'CENTER', 'positionCoords': [563, 155.5]}]",Rate how much you want to eat this food from 0 (least) to 10 (most).,23951.40000000596,1669837598388,grilled chicken strips,,835.2999999970198,True,6.99,24786.70000000298,835.2999999970198,True,HRV,HRV_0272,2022-11-30 19:47:20
19,"[{'imgObject': {}, 'id': 'eggsalad', 'src': '/static/foodstim60/eggsalad.jpg', 'key': 'NaN', 'origWidth': 410, 'origHeight': 409, 'width': 410, 'height': 409, 'widthPercent': 0.8, 'rescaleHeight': True, 'trialN': 19, 'loaded': True, 'loadedTime': 24791.10000000894, 'positionName': 'CENTER', 'positionCoords': [563, 156.5]}]",Rate how much you want to eat this food from 0 (least) to 10 (most).,24787.80000001192,1669837599225,eggsalad,,852.6999999880791,True,8.35,25640.5,852.6999999880791,True,HRV,HRV_0272,2022-11-30 19:47:20
20,"[{'imgObject': {}, 'id': 'mac & cheese', 'src': '/static/foodstim60/mac & cheese.jpg', 'key': 'NaN', 'origWidth': 410, 'origHeight': 410, 'width': 410, 'height': 410, 'widthPercent': 0.8, 'rescaleHeight': True, 'trialN': 20, 'loaded': True, 'loadedTime': 25644.20000000298, 'positionName': 'CENTER', 'positionCoords': [563, 156]}]",Rate how much you want to eat this food from 0 (least) to 10 (most).,25641.60000000894,1669837600078,mac & cheese,,791.0999999940395,True,6.28,26432.70000000298,791.0999999940395,True,HRV,HRV_0272,2022-11-30 19:47:20
21,"[{'imgObject': {}, 'id': 'turkeysandwich', 'src': '/static/foodstim60/turkeysandwich.jpg', 'key': 'NaN', 'origWidth': 409, 'origHeight': 409, 'width': 409, 'height': 409, 'widthPercent': 0.8, 'rescaleHeight': True, 'trialN': 21, 'loaded': True, 'loadedTime': 26436.30000001192, 'positionName': 'CENTER', 'positionCoords': [563.5, 156.5]}]",Rate how much you want to eat this food from 0 (least) to 10 (most).,26433.60000000894,1669837600870,turkeysandwich,,821.0999999940395,True,8.38,27254.70000000298,821.0999999940395,True,HRV,HRV_0272,2022-11-30 19:47:20
22,"[{'imgObject': {}, 'id': 'rigatoni', 'src': '/static/foodstim60/rigatoni.jpg', 'key': 'NaN', 'origWidth': 411, 'origHeight': 411, 'width': 411, 'height': 411, 'widthPercent': 0.8, 'rescaleHeight': True, 'trialN': 22, 'loaded': True, 'loadedTime': 27258.5, 'positionName': 'CENTER', 'positionCoords': [562.5, 155.5]}]",Rate how much you want to eat this food from 0 (least) to 10 (most).,27255.70000000298,1669837601692,rigatoni,,677.0,True,7.18,27932.70000000298,677.0,True,HRV,HRV_0272,2022-11-30 19:47:20
23,"[{'imgObject': {}, 'id': 'kiwi', 'src': '/static/foodstim60/kiwi.jpg', 'key': 'NaN', 'origWidth': 410, 'origHeight': 410, 'width': 410, 'height': 410, 'widthPercent': 0.8, 'rescaleHeight': True, 'trialN': 23, 'loaded': True, 'loadedTime': 27936.40000000596, 'positionName': 'CENTER', 'positionCoords': [563, 156]}]",Rate how much you want to eat this food from 0 (least) to 10 (most).,27933.70000000298,1669837602370,kiwi,,1032.9000000059605,True,9.03,28966.60000000894,1032.9000000059605,True,HRV,HRV_0272,2022-11-30 19:47:20
24,"[{'imgObject': {}, 'id': 'ice cream sundae 002', 'src': '/static/foodstim60/ice cream sundae 002.jpg', 'key': 'NaN', 'origWidth': 409, 'origHeight': 409, 'width': 409, 'height': 409, 'widthPercent': 0.8, 'rescaleHeight': True, 'trialN': 24, 'loaded': True, 'loadedTime': 28970.30000001192, 'positionName': 'CENTER', 'positionCoords': [563.5, 156.5]}]",Rate how much you want to eat this food from 0 (least) to 10 (most).,28967.70000000298,1669837603404,ice cream sundae 002,,771.0,True,5.88,29738.70000000298,771.0,True,HRV,HRV_0272,2022-11-30 19:47:20
25,"[{'imgObject': {}, 'id': 'mashed potato', 'src': '/static/foodstim60/mashed potato.jpg', 'key': 'NaN', 'origWidth': 409, 'origHeight': 409, 'width': 409, 'height': 409, 'widthPercent': 0.8, 'rescaleHeight': True, 'trialN': 25, 'loaded': True, 'loadedTime': 29742.70000000298, 'positionName': 'CENTER', 'positionCoords': [563.5, 156.5]}]",Rate how much you want to eat this food from 0 (least) to 10 (most).,29739.80000001192,1669837604177,mashed potato,,930.6999999880791,True,3.97,30670.5,930.6999999880791,True,HRV,HRV_0272,2022-11-30 19:47:20
26,"[{'imgObject': {}, 'id': 'burger', 'src': '/static/foodstim60/burger.jpg', 'key': 'NaN', 'origWidth': 409, 'origHeight': 409, 'width': 409, 'height': 409, 'widthPercent': 0.8, 'rescaleHeight': True, 'trialN': 26, 'loaded': True, 'loadedTime': 30674.5, 'positionName': 'CENTER', 'positionCoords': [563.5, 156.5]}]",Rate how much you want to eat this food from 0 (least) to 10 (most).,30671.70000000298,1669837605108,burger,,1053.0,True,7.2700000000000005,31724.70000000298,1053.0,True,HRV,HRV_0272,2022-11-30 19:47:20
27,"[{'imgObject': {}, 'id': 'tacos', 'src': '/static/foodstim60/tacos.jpg', 'key': 'NaN', 'origWidth': 411, 'origHeight': 411, 'width': 411, 'height': 411, 'widthPercent': 0.8, 'rescaleHeight': True, 'trialN': 27, 'loaded': True, 'loadedTime': 31728.80000001192, 'positionName': 'CENTER', 'positionCoords': [562.5, 155.5]}]",Rate how much you want to eat this food from 0 (least) to 10 (most).,31725.80000001192,1669837606163,tacos,,820.7999999970198,True,8.02,32546.60000000894,820.7999999970198,True,HRV,HRV_0272,2022-11-30 19:47:20
28,"[{'imgObject': {}, 'id': 'roastedpotatoes', 'src': '/static/foodstim60/roastedpotatoes.jpg', 'key': 'NaN', 'origWidth': 409, 'origHeight': 410, 'width': 409, 'height': 410, 'widthPercent': 0.8, 'rescaleHeight': True, 'trialN': 28, 'loaded': True, 'loadedTime': 32550.60000000894, 'positionName': 'CENTER', 'positionCoords': [563.5, 156]}]",Rate how much you want to eat this food from 0 (least) to 10 (most).,32547.80000001192,1669837606985,roastedpotatoes,,1452.699999988079,True,10.0,34000.5,1452.699999988079,True,HRV,HRV_0272,2022-11-30 19:47:20
29,"[{'imgObject': {}, 'id': 'shreddedwheatwithmilk', 'src': '/static/foodstim60/shreddedwheatwithmilk.jpg', 'key': 'NaN', 'origWidth': 410, 'origHeight': 410, 'width': 410, 'height': 410, 'widthPercent': 0.8, 'rescaleHeight': True, 'trialN': 29, 'loaded': True, 'loadedTime': 34004.40000000596, 'positionName': 'CENTER', 'positionCoords': [563, 156]}]",Rate how much you want to eat this food from 0 (least) to 10 (most).,34001.60000000894,1669837608438,shreddedwheatwithmilk,,1538.8999999910593,True,9.88,35540.5,1538.8999999910593,True,HRV,HRV_0272,2022-11-30 19:47:20
30,"[{'imgObject': {}, 'id': 'avocado', 'src': '/static/foodstim60/avocado.jpg', 'key': 'NaN', 'origWidth': 409, 'origHeight': 409, 'width': 409, 'height': 409, 'widthPercent': 0.8, 'rescaleHeight': True, 'trialN': 30, 'loaded': True, 'loadedTime': 35544.40000000596, 'positionName': 'CENTER', 'positionCoords': [563.5, 156.5]}]",Rate how much you want to eat this food from 0 (least) to 10 (most).,35541.5,1669837609978,avocado,,587.2000000029802,True,9.700000000000001,36128.70000000298,587.2000000029802,True,HRV,HRV_0272,2022-11-30 19:47:20
31,"[{'imgObject': {}, 'id': 'corn cob', 'src': '/static/foodstim60/corn cob.jpg', 'key': 'NaN', 'origWidth': 411, 'origHeight': 411, 'width': 411, 'height': 411, 'widthPercent': 0.8, 'rescaleHeight': True, 'trialN': 31, 'loaded': True, 'loadedTime': 36132.80000001192, 'positionName': 'CENTER', 'positionCoords': [562.5, 155.5]}]",Rate how much you want to eat this food from 0 (least) to 10 (most).,36129.90000000596,1669837610567,corn cob,,510.59999999403954,True,9.51,36640.5,510.59999999403954,True,HRV,HRV_0272,2022-11-30 19:47:20
32,"[{'imgObject': {}, 'id': 'chickenfingers', 'src': '/static/foodstim60/chickenfingers.jpg', 'key': 'NaN', 'origWidth': 410, 'origHeight': 410, 'width': 410, 'height': 410, 'widthPercent': 0.8, 'rescaleHeight': True, 'trialN': 32, 'loaded': True, 'loadedTime': 36645.20000000298, 'positionName': 'CENTER', 'positionCoords': [563, 156]}]",Rate how much you want to eat this food from 0 (least) to 10 (most).,36641.70000000298,1669837611078,chickenfingers,,802.9000000059605,True,7.46,37444.60000000894,802.9000000059605,True,HRV,HRV_0272,2022-11-30 19:47:20
33,"[{'imgObject': {}, 'id': 'Grapes', 'src': '/static/foodstim60/Grapes.jpg', 'key': 'NaN', 'origWidth': 411, 'origHeight': 411, 'width': 411, 'height': 411, 'widthPercent': 0.8, 'rescaleHeight': True, 'trialN': 33, 'loaded': True, 'loadedTime': 37449, 'positionName': 'CENTER', 'positionCoords': [562.5, 155.5]}]",Rate how much you want to eat this food from 0 (least) to 10 (most).,37446.20000000298,1669837611883,Grapes,,602.5,True,9.58,38048.70000000298,602.5,True,HRV,HRV_0272,2022-11-30 19:47:20
34,"[{'imgObject': {}, 'id': 'apple slices', 'src': '/static/foodstim60/apple slices.jpg', 'key': 'NaN', 'origWidth': 409, 'origHeight': 410, 'width': 409, 'height': 410, 'widthPercent': 0.8, 'rescaleHeight': True, 'trialN': 34, 'loaded': True, 'loadedTime': 38053, 'positionName': 'CENTER', 'positionCoords': [563.5, 156]}]",Rate how much you want to eat this food from 0 (least) to 10 (most).,38050.0,1669837612487,apple slices,,678.6000000089407,True,8.15,38728.60000000894,678.6000000089407,True,HRV,HRV_0272,2022-11-30 19:47:20
35,"[{'imgObject': {}, 'id': 'popsicles', 'src': '/static/foodstim60/popsicles.jpg', 'key': 'NaN', 'origWidth': 410, 'origHeight': 410, 'width': 410, 'height': 410, 'widthPercent': 0.8, 'rescaleHeight': True, 'trialN': 35, 'loaded': True, 'loadedTime': 38733.10000000894, 'positionName': 'CENTER', 'positionCoords': [563, 156]}]",Rate how much you want to eat this food from 0 (least) to 10 (most).,38730.20000000298,1669837613167,popsicles,,566.4000000059605,True,9.21,39296.60000000894,566.4000000059605,True,HRV,HRV_0272,2022-11-30 19:47:20
36,"[{'imgObject': {}, 'id': 'strawberries', 'src': '/static/foodstim60/strawberries.jpg', 'key': 'NaN', 'origWidth': 410, 'origHeight': 410, 'width': 410, 'height': 410, 'widthPercent': 0.8, 'rescaleHeight': True, 'trialN': 36, 'loaded': True, 'loadedTime': 39300.80000001192, 'positionName': 'CENTER', 'positionCoords': [563, 156]}]",Rate how much you want to eat this food from 0 (least) to 10 (most).,39297.90000000596,1669837613735,strawberries,,566.7000000029802,True,8.120000000000001,39864.60000000894,566.7000000029802,True,HRV,HRV_0272,2022-11-30 19:47:20
37,"[{'imgObject': {}, 'id': 'blueberries', 'src': '/static/foodstim60/blueberries.jpg', 'key': 'NaN', 'origWidth': 411, 'origHeight': 411, 'width': 411, 'height': 411, 'widthPercent': 0.8, 'rescaleHeight': True, 'trialN': 37, 'loaded': True, 'loadedTime': 39868.70000000298, 'positionName': 'CENTER', 'positionCoords': [562.5, 155.5]}]",Rate how much you want to eat this food from 0 (least) to 10 (most).,39865.80000001192,1669837614303,blueberries,,590.7999999970198,True,6.25,40456.60000000894,590.7999999970198,True,HRV,HRV_0272,2022-11-30 19:47:20
38,"[{'imgObject': {}, 'id': 'fruitsalad', 'src': '/static/foodstim60/fruitsalad.jpg', 'key': 'NaN', 'origWidth': 410, 'origHeight': 410, 'width': 410, 'height': 410, 'widthPercent': 0.8, 'rescaleHeight': True, 'trialN': 38, 'loaded': True, 'loadedTime': 40461, 'positionName': 'CENTER', 'positionCoords': [563, 156]}]",Rate how much you want to eat this food from 0 (least) to 10 (most).,40457.80000001192,1669837614895,fruitsalad,,1056.7999999970198,True,4.58,41514.60000000894,1056.7999999970198,True,HRV,HRV_0272,2022-11-30 19:47:20
39,"[{'imgObject': {}, 'id': 'bagel and cc', 'src': '/static/foodstim60/bagel and cc.jpg', 'key': 'NaN', 'origWidth': 410, 'origHeight': 410, 'width': 410, 'height': 410, 'widthPercent': 0.8, 'rescaleHeight': True, 'trialN': 39, 'loaded': True, 'loadedTime': 41518.90000000596, 'positionName': 'CENTER', 'positionCoords': [563, 156]}]",Rate how much you want to eat this food from 0 (least) to 10 (most).,41515.80000001192,1669837615953,bagel and cc,,955.0999999940395,True,7.61,42470.90000000596,955.0999999940395,True,HRV,HRV_0272,2022-11-30 19:47:20
40,"[{'imgObject': {}, 'id': 'cantaloupe', 'src': '/static/foodstim60/cantaloupe.jpg', 'key': 'NaN', 'origWidth': 409, 'origHeight': 409, 'width': 409, 'height': 409, 'widthPercent': 0.8, 'rescaleHeight': True, 'trialN': 40, 'loaded': True, 'loadedTime': 42474.70000000298, 'positionName': 'CENTER', 'positionCoords': [563.5, 156.5]}]",Rate how much you want to eat this food from 0 (least) to 10 (most).,42472.10000000894,1669837616909,cantaloupe,,644.5,True,5.41,43116.60000000894,644.5,True,HRV,HRV_0272,2022-11-30 19:47:20
41,"[{'imgObject': {}, 'id': 'olives', 'src': '/static/foodstim60/olives.jpg', 'key': 'NaN', 'origWidth': 410, 'origHeight': 410, 'width': 410, 'height': 410, 'widthPercent': 0.8, 'rescaleHeight': True, 'trialN': 41, 'loaded': True, 'loadedTime': 43120.20000000298, 'positionName': 'CENTER', 'positionCoords': [563, 156]}]",Rate how much you want to eat this food from 0 (least) to 10 (most).,43117.60000000894,1669837617554,olives,,692.8999999910593,True,8.05,43810.5,692.8999999910593,True,HRV,HRV_0272,2022-11-30 19:47:20
42,"[{'imgObject': {}, 'id': 'granola w milk', 'src': '/static/foodstim60/granola w milk.jpg', 'key': 'NaN', 'origWidth': 410, 'origHeight': 410, 'width': 410, 'height': 410, 'widthPercent': 0.8, 'rescaleHeight': True, 'trialN': 42, 'loaded': True, 'loadedTime': 43813.90000000596, 'positionName': 'CENTER', 'positionCoords': [563, 156]}]",Rate how much you want to eat this food from 0 (least) to 10 (most).,43811.40000000596,1669837618248,granola w milk,,645.2000000029802,True,5.29,44456.60000000894,645.2000000029802,True,HRV,HRV_0272,2022-11-30 19:47:20
43,"[{'imgObject': {}, 'id': 'turkey sandwich', 'src': '/static/foodstim60/turkey sandwich.jpg', 'key': 'NaN', 'origWidth': 409, 'origHeight': 409, 'width': 409, 'height': 409, 'widthPercent': 0.8, 'rescaleHeight': True, 'trialN': 43, 'loaded': True, 'loadedTime': 44460.20000000298, 'positionName': 'CENTER', 'positionCoords': [563.5, 156.5]}]",Rate how much you want to eat this food from 0 (least) to 10 (most).,44457.5,1669837618894,turkey sandwich,,591.0,True,8.63,45048.5,591.0,True,HRV,HRV_0272,2022-11-30 19:47:20
44,"[{'imgObject': {}, 'id': 'veggieswithdip', 'src': '/static/foodstim60/veggieswithdip.jpg', 'key': 'NaN', 'origWidth': 409, 'origHeight': 409, 'width': 409, 'height': 409, 'widthPercent': 0.8, 'rescaleHeight': True, 'trialN': 44, 'loaded': True, 'loadedTime': 45052.20000000298, 'positionName': 'CENTER', 'positionCoords': [563.5, 156.5]}]",Rate how much you want to eat this food from 0 (least) to 10 (most).,45049.60000000894,1669837619486,veggieswithdip,,603.0,True,5.83,45652.60000000894,603.0,True,HRV,HRV_0272,2022-11-30 19:47:20
45,"[{'imgObject': {}, 'id': 'fried eggs', 'src': '/static/foodstim60/fried eggs.jpg', 'key': 'NaN', 'origWidth': 410, 'origHeight': 410, 'width': 410, 'height': 410, 'widthPercent': 0.8, 'rescaleHeight': True, 'trialN': 45, 'loaded': True, 'loadedTime': 45656.60000000894, 'positionName': 'CENTER', 'positionCoords': [563, 156]}]",Rate how much you want to eat this food from 0 (least) to 10 (most).,45653.60000000894,1669837620090,fried eggs,,683.0999999940395,True,9.47,46336.70000000298,683.0999999940395,True,HRV,HRV_0272,2022-11-30 19:47:20
46,"[{'imgObject': {}, 'id': 'cheerios', 'src': '/static/foodstim60/cheerios.jpg', 'key': 'NaN', 'origWidth': 409, 'origHeight': 410, 'width': 409, 'height': 410, 'widthPercent': 0.8, 'rescaleHeight': True, 'trialN': 46, 'loaded': True, 'loadedTime': 46341.5, 'positionName': 'CENTER', 'positionCoords': [563.5, 156]}]",Rate how much you want to eat this food from 0 (least) to 10 (most).,46337.60000000894,1669837620774,cheerios,,807.0999999940395,True,4.62,47144.70000000298,807.0999999940395,True,HRV,HRV_0272,2022-11-30 19:47:20
47,"[{'imgObject': {}, 'id': 'omelette', 'src': '/static/foodstim60/omelette.jpg', 'key': 'NaN', 'origWidth': 410, 'origHeight': 409, 'width': 410, 'height': 409, 'widthPercent': 0.8, 'rescaleHeight': True, 'trialN': 47, 'loaded': True, 'loadedTime': 47148.30000001192, 'positionName': 'CENTER', 'positionCoords': [563, 156.5]}]",Rate how much you want to eat this food from 0 (least) to 10 (most).,47145.60000000894,1669837621576,omelette,,661.0,True,8.39,47806.60000000894,661.0,True,HRV,HRV_0272,2022-11-30 19:47:20
48,"[{'imgObject': {}, 'id': 'seaweed', 'src': '/static/foodstim60/seaweed.jpg', 'key': 'NaN', 'origWidth': 410, 'origHeight': 410, 'width': 410, 'height': 410, 'widthPercent': 0.8, 'rescaleHeight': True, 'trialN': 48, 'loaded': True, 'loadedTime': 47810.5, 'positionName': 'CENTER', 'positionCoords': [563, 156]}]",Rate how much you want to eat this food from 0 (least) to 10 (most).,47807.60000000894,1669837622238,seaweed,,681.0999999940395,True,4.8,48488.70000000298,681.0999999940395,True,HRV,HRV_0272,2022-11-30 19:47:20
49,"[{'imgObject': {}, 'id': 'pear', 'src': '/static/foodstim60/pear.jpg', 'key': 'NaN', 'origWidth': 411, 'origHeight': 410, 'width': 411, 'height': 410, 'widthPercent': 0.8, 'rescaleHeight': True, 'trialN': 49, 'loaded': True, 'loadedTime': 48492.90000000596, 'positionName': 'CENTER', 'positionCoords': [562.5, 156]}]",Rate how much you want to eat this food from 0 (least) to 10 (most).,48490.5,1669837622921,pear,,1342.0,True,2.61,49832.5,1342.0,True,HRV,HRV_0272,2022-11-30 19:47:20
50,"[{'imgObject': {}, 'id': 'cherries', 'src': '/static/foodstim60/cherries.jpg', 'key': 'NaN', 'origWidth': 410, 'origHeight': 411, 'width': 410, 'height': 411, 'widthPercent': 0.8, 'rescaleHeight': True, 'trialN': 50, 'loaded': True, 'loadedTime': 49836.40000000596, 'positionName': 'CENTER', 'positionCoords': [563, 155.5]}]",Rate how much you want to eat this food from 0 (least) to 10 (most).,49833.5,1669837624264,cherries,,1201.0,True,8.97,51034.5,1201.0,True,HRV,HRV_0272,2022-11-30 19:47:20
51,"[{'imgObject': {}, 'id': 'raspberries', 'src': '/static/foodstim60/raspberries.jpg', 'key': 'NaN', 'origWidth': 411, 'origHeight': 411, 'width': 411, 'height': 411, 'widthPercent': 0.8, 'rescaleHeight': True, 'trialN': 51, 'loaded': True, 'loadedTime': 51038.90000000596, 'positionName': 'CENTER', 'positionCoords': [562.5, 155.5]}]",Rate how much you want to eat this food from 0 (least) to 10 (most).,51035.5,1669837625466,raspberries,,555.0,True,8.99,51590.5,555.0,True,HRV,HRV_0272,2022-11-30 19:47:20
52,"[{'imgObject': {}, 'id': 'sweetpotato', 'src': '/static/foodstim60/sweetpotato.jpg', 'key': 'NaN', 'origWidth': 410, 'origHeight': 410, 'width': 410, 'height': 410, 'widthPercent': 0.8, 'rescaleHeight': True, 'trialN': 52, 'loaded': True, 'loadedTime': 51594.40000000596, 'positionName': 'CENTER', 'positionCoords': [563, 156]}]",Rate how much you want to eat this food from 0 (least) to 10 (most).,51591.60000000894,1669837626022,sweetpotato,,1135.0,True,7.07,52726.60000000894,1135.0,True,HRV,HRV_0272,2022-11-30 19:47:20
53,"[{'imgObject': {}, 'id': 'steak', 'src': '/static/foodstim60/steak.jpg', 'key': 'NaN', 'origWidth': 410, 'origHeight': 410, 'width': 410, 'height': 410, 'widthPercent': 0.8, 'rescaleHeight': True, 'trialN': 53, 'loaded': True, 'loadedTime': 52730.40000000596, 'positionName': 'CENTER', 'positionCoords': [563, 156]}]",Rate how much you want to eat this food from 0 (least) to 10 (most).,52727.60000000894,1669837627158,steak,,562.7999999970198,True,6.15,53290.40000000596,562.7999999970198,True,HRV,HRV_0272,2022-11-30 19:47:20
54,"[{'imgObject': {}, 'id': 'chicken nuggets2', 'src': '/static/foodstim60/chicken nuggets2.jpg', 'key': 'NaN', 'origWidth': 410, 'origHeight': 409, 'width': 410, 'height': 409, 'widthPercent': 0.8, 'rescaleHeight': True, 'trialN': 54, 'loaded': True, 'loadedTime': 53294.5, 'positionName': 'CENTER', 'positionCoords': [563, 156.5]}]",Rate how much you want to eat this food from 0 (least) to 10 (most).,53291.60000000894,1669837627722,chicken nuggets2,,2188.7999999970198,True,9.9,55480.40000000596,2188.7999999970198,True,HRV,HRV_0272,2022-11-30 19:47:20
55,"[{'imgObject': {}, 'id': 'banana', 'src': '/static/foodstim60/banana.jpg', 'key': 'NaN', 'origWidth': 410, 'origHeight': 410, 'width': 410, 'height': 410, 'widthPercent': 0.8, 'rescaleHeight': True, 'trialN': 55, 'loaded': True, 'loadedTime': 55484.5, 'positionName': 'CENTER', 'positionCoords': [563, 156]}]",Rate how much you want to eat this food from 0 (least) to 10 (most).,55481.60000000894,1669837629912,banana,,913.0,True,9.27,56394.60000000894,913.0,True,HRV,HRV_0272,2022-11-30 19:47:20
56,"[{'imgObject': {}, 'id': 'baked potato', 'src': '/static/foodstim60/baked potato.jpg', 'key': 'NaN', 'origWidth': 409, 'origHeight': 410, 'width': 409, 'height': 410, 'widthPercent': 0.8, 'rescaleHeight': True, 'trialN': 56, 'loaded': True, 'loadedTime': 56398.80000001192, 'positionName': 'CENTER', 'positionCoords': [563.5, 156]}]",Rate how much you want to eat this food from 0 (least) to 10 (most).,56395.70000000298,1669837630826,baked potato,,938.9000000059605,True,9.17,57334.60000000894,938.9000000059605,True,HRV,HRV_0272,2022-11-30 19:47:20
57,"[{'imgObject': {}, 'id': 'edamame', 'src': '/static/foodstim60/edamame.jpg', 'key': 'NaN', 'origWidth': 409, 'origHeight': 410, 'width': 409, 'height': 410, 'widthPercent': 0.8, 'rescaleHeight': True, 'trialN': 57, 'loaded': True, 'loadedTime': 57339.20000000298, 'positionName': 'CENTER', 'positionCoords': [563.5, 156]}]",Rate how much you want to eat this food from 0 (least) to 10 (most).,57335.80000001192,1669837631766,edamame,,2130.7999999970198,True,9.14,59466.60000000894,2130.7999999970198,True,HRV,HRV_0272,2022-11-30 19:47:20
58,"[{'imgObject': {}, 'id': 'raisin bran w milk', 'src': '/static/foodstim60/raisin bran w milk.jpg', 'key': 'NaN', 'origWidth': 411, 'origHeight': 411, 'width': 411, 'height': 411, 'widthPercent': 0.8, 'rescaleHeight': True, 'trialN': 58, 'loaded': True, 'loadedTime': 59470.80000001192, 'positionName': 'CENTER', 'positionCoords': [562.5, 155.5]}]",Rate how much you want to eat this food from 0 (least) to 10 (most).,59467.80000001192,1669837633898,raisin bran w milk,,5254.79999999702,True,8.950000000000001,64722.60000000894,5254.79999999702,True,HRV,HRV_0272,2022-11-30 19:47:20
59,"[{'imgObject': {}, 'id': 'blackbeanswithrice', 'src': '/static/foodstim60/blackbeanswithrice.jpg', 'key': 'NaN', 'origWidth': 410, 'origHeight': 410, 'width': 410, 'height': 410, 'widthPercent': 0.8, 'rescaleHeight': True, 'trialN': 59, 'loaded': True, 'loadedTime': 64726.70000000298, 'positionName': 'CENTER', 'positionCoords': [563, 156]}]",Rate how much you want to eat this food from 0 (least) to 10 (most).,64723.80000001192,1669837639154,blackbeanswithrice,,548.8999999910593,True,9.28,65272.70000000298,548.8999999910593,True,HRV,HRV_0272,2022-11-30 19:47:20
