success,trial_type,trial_index,time_elapsed,internal_node_id,missTrial,missTrialMsg,Block,TrialNumber,TrialTime,trialTimeDiff,FPS_avg,FPS_med,FPS_mode,TrialDur,winResizeTime,rt,block,button_pressed,MotCoh,MotDir,ColCoh,Color,ChoiceKey,Choice,Accuracy,RT,nFrames,FPS,PPD,onsetDelay,fullScreenExitTime,canvCenter,TrialType,Score,BlockTrial,stimulus,button_labels,exp,subjectId,date
True,fullscreen,0,4153,0.0-0.0,True,undefinedblurEvent ,0.0,0.0,,,,,,,,,,,,,,,,,,,,,,,,,,,,,,HRV,HRV_0272,2022-11-30 20:17:36
,wl-check-fps,1,13299,0.0-1.0,,,0.0,1.0,"[19972.4, 19982.9, 19999.5, 20016, 20033.1, 20049.6, 20066, 20083, 20099.6, 20116.2, 20132.5, 20149.8, 20166.6, 20183.2, 20199.6, 20216.1, 20233.2, 20249.4, 20266.1, 20282.9, 20299.4, 20315.8, 20332.7, 20349.6, 20365.9, 20382.5, 20399.2, 20416.1, 20433, 20449.5, 20466.1, 20482.9, 20499.6, 20516.5, 20533.1, 20549.6, 20566.1, 20582.8, 20599.4, 20615.9, 20633.1, 20649.1, 20666, 20684, 20699.5, 20716.3, 20732.8, 20749.7, 20766.4, 20782.8, 20799.7, 20816, 20833, 20849.3, 20866, 20882.9, 20899.5, 20916.2, 20932.7, 20949.3, 20966.3, 20982.8, 20999.6, 21015.9, 21032.7, 21049.6, 21065.9, 21082.8, 21099.3, 21116.1, 21132.8, 21149.4, 21166.1, 21182.4, 21199.3, 21217.1, 21232.8, 21249.4, 21266.1, 21282.9, 21299.3, 21315.8, 21332.4, 21349.3, 21366, 21383, 21399.5, 21416.5, 21432.9, 21449.2, 21466, 21482.7, 21499.5, 21516.2, 21532.9, 21549.4, 21565.9, 21582.5, 21599.4, 21616.1, 21632.5, 21649.2, 21665.9, 21683.9, 21699.6, 21716.1, 21732.5, 21749.2, 21765.8, 21782.5, 21799.3, 21816.2, 21832.8, 21849.5, 21866, 21882.7, 21899, 21915.8, 21932.4, 21949.4, 21966.1, 21982.9, 21999.2, 22016.1, 22032.8, 22049.5, 22065.9, 22082.4, 22099.2, 22116, 22132.6, 22149.3, 22165.9, 22182.8, 22199.4, 22216, 22232.7, 22249.5, 22265.8, 22282.5, 22299.2, 22316, 22332.6, 22349.2, 22365.8, 22382.4, 22399.2, 22415.8, 22432.5, 22449.2, 22466, 22482.5, 22499.2, 22517.5, 22532.2, 22549.3, 22565.7, 22582.6, 22599.3, 22615.9, 22632.6, 22649.4, 22666, 22683.2, 22699.2, 22716.1, 22732.7, 22749.1, 22766, 22782.5, 22798.8, 22815.5, 22832.2, 22848.8, 22865.6, 22882.6, 22899, 22916, 22932.7, 22949.5, 22965.9, 22982.6, 22998.9, 23015.6, 23032.4, 23049.1, 23065.5, 23082.2, 23099, 23115.9, 23132.3, 23148.9, 23165.6, 23182.1, 23198.9, 23215.8, 23232.4, 23249.4, 23265.8, 23282.5, 23299.5, 23315.7, 23332.4, 23349, 23365.9, 23382.5, 23399.1, 23415.7, 23432.4, 23449.1, 23467.7, 23482.3, 23499.1, 23515.8, 23532, 23549.1, 23565.5, 23582.5, 23599.2, 23615.9, 23632.5, 23649.1, 23665.9, 23682.6, 23699.1, 23715.7, 23732.3, 23749, 23765.6, 23782.4, 23799.1, 23815.7, 23832.5, 23849.2, 23865.4, 23882.2, 23899.1, 23915.6, 23932.5, 23949.1, 23965.8, 23982.6, 23999.2, 24015.8, 24032.4, 24048.8, 24065.7, 24082.4, 24099.1, 24115.9, 24132.4, 24149.2, 24165.5, 24182.5, 24199, 24215.5, 24232, 24249, 24265.8, 24282.3, 24299, 24315.6, 24332.7, 24349.3, 24365.8, 24382.5, 24399.4, 24415.9, 24432.9, 24449, 24466.3, 24482.5, 24499, 24515.8, 24532.4, 24549.2, 24565.7, 24582.5, 24599.1, 24615.8, 24632.9, 24649, 24665.6, 24684.2, 24699.4, 24716.3, 24732.9, 24749.4, 24766.9, 24782.4, 24799, 24815.7, 24832.4, 24849, 24865.7, 24883.1, 24899.8, 24916.1, 24932.7, 24949.6]","[0.6, 10.5, 16.6, 16.5, 17.1, 16.5, 16.4, 17, 16.6, 16.6, 16.3, 17.3, 16.8, 16.6, 16.4, 16.5, 17.1, 16.2, 16.7, 16.8, 16.5, 16.4, 16.9, 16.9, 16.3, 16.6, 16.7, 16.9, 16.9, 16.5, 16.6, 16.8, 16.7, 16.9, 16.6, 16.5, 16.5, 16.7, 16.6, 16.5, 17.2, 16, 16.9, 18, 15.5, 16.8, 16.5, 16.9, 16.7, 16.4, 16.9, 16.3, 17, 16.3, 16.7, 16.9, 16.6, 16.7, 16.5, 16.6, 17, 16.5, 16.8, 16.3, 16.8, 16.9, 16.3, 16.9, 16.5, 16.8, 16.7, 16.6, 16.7, 16.3, 16.9, 17.8, 15.7, 16.6, 16.7, 16.8, 16.4, 16.5, 16.6, 16.9, 16.7, 17, 16.5, 17, 16.4, 16.3, 16.8, 16.7, 16.8, 16.7, 16.7, 16.5, 16.5, 16.6, 16.9, 16.7, 16.4, 16.7, 16.7, 18, 15.7, 16.5, 16.4, 16.7, 16.6, 16.7, 16.8, 16.9, 16.6, 16.7, 16.5, 16.7, 16.3, 16.8, 16.6, 17, 16.7, 16.8, 16.3, 16.9, 16.7, 16.7, 16.4, 16.5, 16.8, 16.8, 16.6, 16.7, 16.6, 16.9, 16.6, 16.6, 16.7, 16.8, 16.3, 16.7, 16.7, 16.8, 16.6, 16.6, 16.6, 16.6, 16.8, 16.6, 16.7, 16.7, 16.8, 16.5, 16.7, 18.3, 14.7, 17.1, 16.4, 16.9, 16.7, 16.6, 16.7, 16.8, 16.6, 17.2, 16, 16.9, 16.6, 16.4, 16.9, 16.5, 16.3, 16.7, 16.7, 16.6, 16.8, 17, 16.4, 17, 16.7, 16.8, 16.4, 16.7, 16.3, 16.7, 16.8, 16.7, 16.4, 16.7, 16.8, 16.9, 16.4, 16.6, 16.7, 16.5, 16.8, 16.9, 16.6, 17, 16.4, 16.7, 17, 16.2, 16.7, 16.6, 16.9, 16.6, 16.6, 16.6, 16.7, 16.7, 18.6, 14.6, 16.8, 16.7, 16.2, 17.1, 16.4, 17, 16.7, 16.7, 16.6, 16.6, 16.8, 16.7, 16.5, 16.6, 16.6, 16.7, 16.6, 16.8, 16.7, 16.6, 16.8, 16.7, 16.2, 16.8, 16.9, 16.5, 16.9, 16.6, 16.7, 16.8, 16.6, 16.6, 16.6, 16.4, 16.9, 16.7, 16.7, 16.8, 16.5, 16.8, 16.3, 17, 16.5, 16.5, 16.5, 17, 16.8, 16.5, 16.7, 16.6, 17.1, 16.6, 16.5, 16.7, 16.9, 16.5, 17, 16.1, 17.3, 16.2, 16.5, 16.8, 16.6, 16.8, 16.5, 16.8, 16.6, 16.7, 17.1, 16.1, 16.6, 18.6, 15.2, 16.9, 16.6, 16.5, 17.5, 15.5, 16.6, 16.7, 16.7, 16.6, 16.7, 17.4, 16.7, 16.3, 16.6, 16.9]",60.0,60.0,60.0,4994.4,[],,,,,,,,,,,,,,,,,,,,,,,HRV,HRV_0272,2022-11-30 20:17:36
,wl-html-keyboard-response,2,20586,0.0-2.0-0.0,,,0.0,2.0,,,,,,,,5263.20000000298,0.0,0,,,,,,,,,,,,,,,,,,,,HRV,HRV_0272,2022-11-30 20:17:36
,wl-rdm,3,34041,0.0-3.0-0.0,False,too_early too_early too_early ,0.0,3.0,,,,,,,[],,,,0.0,0.0,87.9,0.0,u,0.0,True,592.5999999940395,36.0,60.0,40.0,3000.0,[],"[768, 432]",ColorTask_Demo,,,,,HRV,HRV_0272,2022-11-30 20:17:36
,wl-rdm,4,50389,0.0-3.0-1.0,False,too_early ,0.0,4.0,,,,,,,[],,,,0.0,0.0,87.9,1.0,i,1.0,True,3725.5999999940395,224.0,60.0,40.0,2000.0,[],"[768, 432]",ColorTask_Demo,,,,,HRV,HRV_0272,2022-11-30 20:17:36
,wl-html-keyboard-response,5,56272,0.0-3.0-2.0,,,0.0,5.0,,,,,,,,4126.600000008941,0.0,1,,,,,,,,,,,,,,,,,,,,HRV,HRV_0272,2022-11-30 20:17:36
,wl-html-keyboard-response,6,64991,0.0-4.0-0.0,,,0.0,6.0,,,,,,,,7370.29999999702,0.0,0,,,,,,,,,,,,,,,,,,,,HRV,HRV_0272,2022-11-30 20:17:36
,wl-html-keyboard-response,7,74881,0.0-5.0-0.0,,,0.0,7.0,,,,,,,,7872.79999999702,0.0,0,,,,,,,,,,,,,,,,,,,,HRV,HRV_0272,2022-11-30 20:17:36
,wl-rdm,8,77218,0.0-6.0-0.0,False,,0.0,8.0,,,,,,,[],,,,,,87.9,1.0,i,1.0,True,878.5999999940395,53.0,60.0,40.0,376.7623189526648,[],"[768, 432]",ColorTask,1.0,1.0,,,HRV,HRV_0272,2022-11-30 20:17:36
,wl-rdm,9,80717,0.0-6.1-0.1,False,,0.0,9.0,,,,,,,[],,,,,,56.4,0.0,i,1.0,False,2204.0999999940395,133.0,60.0,40.0,216.56949004791298,[],"[768, 432]",ColorTask,0.0,2.0,,,HRV,HRV_0272,2022-11-30 20:17:36
,wl-rdm,10,82750,0.0-6.2-0.2,False,,0.0,10.0,,,,,,,[],,,,,,50.0,1.0,u,0.0,False,731.7000000029802,44.0,60.0,40.0,230.31232745320392,[],"[768, 432]",ColorTask,-1.0,3.0,,,HRV,HRV_0272,2022-11-30 20:17:36
,wl-rdm,11,85083,0.0-6.3-0.3,False,,0.0,11.0,,,,,,,[],,,,,,62.5,0.0,i,1.0,False,911.9000000059605,55.0,60.0,40.0,360.9751212856422,[],"[768, 432]",ColorTask,-2.0,4.0,,,HRV,HRV_0272,2022-11-30 20:17:36
,wl-rdm,12,87200,0.0-6.4-0.4,False,,0.0,12.0,,,,,,,[],,,,,,73.6,1.0,u,0.0,False,727.0999999940395,44.0,60.0,40.0,332.07161052494314,[],"[768, 432]",ColorTask,-3.0,5.0,,,HRV,HRV_0272,2022-11-30 20:17:36
,wl-rdm,13,89217,0.0-6.5-0.5,False,,0.0,13.0,,,,,,,[],,,,,,56.4,1.0,i,1.0,True,635.0000000149012,39.0,60.0,40.0,302.2107943848277,[],"[768, 432]",ColorTask,-2.0,6.0,,,HRV,HRV_0272,2022-11-30 20:17:36
,wl-rdm,14,92266,0.0-6.6-0.6,False,,0.0,14.0,,,,,,,[],,,,,,53.2,1.0,i,1.0,True,1680.1000000089407,101.0,60.0,40.0,285.64336292147107,[],"[768, 432]",ColorTask,-1.0,7.0,,,HRV,HRV_0272,2022-11-30 20:17:36
,wl-rdm,15,94299,0.0-6.7-0.7,False,,0.0,15.0,,,,,,,[],,,,,,53.2,1.0,i,1.0,True,619.9999999850988,38.0,60.0,40.0,330.0746237121747,[],"[768, 432]",ColorTask,0.0,8.0,,,HRV,HRV_0272,2022-11-30 20:17:36
,wl-rdm,16,96165,0.0-6.8-0.8,False,,0.0,16.0,,,,,,,[],,,,,,56.4,0.0,i,1.0,False,538.5999999940395,33.0,60.0,40.0,254.22560981918815,[],"[768, 432]",ColorTask,-1.0,9.0,,,HRV,HRV_0272,2022-11-30 20:17:36
,wl-rdm,17,98331,0.0-6.9-0.9,False,,0.0,17.0,,,,,,,[],,,,,,73.6,1.0,i,1.0,True,841.6000000089407,51.0,60.0,40.0,246.1473958305584,[],"[768, 432]",ColorTask,0.0,10.0,,,HRV,HRV_0272,2022-11-30 20:17:36
,wl-rdm,18,101247,0.0-6.10-0.10,False,,0.0,18.0,,,,,,,[],,,,,,50.0,1.0,i,1.0,True,1631.800000011921,98.0,60.0,40.0,225.50206362473543,[],"[768, 432]",ColorTask,1.0,11.0,,,HRV,HRV_0272,2022-11-30 20:17:36
,wl-rdm,19,103447,0.0-6.11-0.11,False,,0.0,19.0,,,,,,,[],,,,,,62.5,1.0,i,1.0,True,912.5,55.0,60.0,40.0,207.78937541642318,[],"[768, 432]",ColorTask,2.0,12.0,,,HRV,HRV_0272,2022-11-30 20:17:36
,wl-rdm,20,106280,0.0-6.12-0.12,False,,0.0,20.0,,,,,,,[],,,,,,73.6,1.0,i,1.0,True,1538.6000000089407,93.0,60.0,40.0,223.92979331843586,[],"[768, 432]",ColorTask,3.0,13.0,,,HRV,HRV_0272,2022-11-30 20:17:36
,wl-rdm,21,108547,0.0-6.13-0.13,False,,0.0,21.0,,,,,,,[],,,,,,56.4,1.0,i,1.0,True,837.7999999821186,51.0,60.0,40.0,361.31003637030955,[],"[768, 432]",ColorTask,4.0,14.0,,,HRV,HRV_0272,2022-11-30 20:17:36
,wl-rdm,22,110597,0.0-6.14-0.14,False,,0.0,22.0,,,,,,,[],,,,,,62.5,1.0,i,1.0,True,620.5,38.0,60.0,40.0,336.6702423920659,[],"[768, 432]",ColorTask,5.0,15.0,,,HRV,HRV_0272,2022-11-30 20:17:36
,wl-rdm,23,112613,0.0-6.15-0.15,False,,0.0,23.0,,,,,,,[],,,,,,53.2,0.0,i,1.0,False,730.5,44.0,60.0,40.0,202.24663231475523,[],"[768, 432]",ColorTask,4.0,16.0,,,HRV,HRV_0272,2022-11-30 20:17:36
,wl-rdm,24,114446,0.0-6.16-0.16,False,,0.0,24.0,,,,,,,[],,,,,,50.0,0.0,u,0.0,True,395.1000000089407,24.0,60.0,40.0,359.6858440305617,[],"[768, 432]",ColorTask,5.0,17.0,,,HRV,HRV_0272,2022-11-30 20:17:36
,wl-rdm,25,116345,0.0-6.17-0.17,False,,0.0,25.0,,,,,,,[],,,,,,87.9,1.0,i,1.0,True,586.1000000089407,36.0,60.0,40.0,235.944143720864,[],"[768, 432]",ColorTask,6.0,18.0,,,HRV,HRV_0272,2022-11-30 20:17:36
,wl-rdm,26,118446,0.0-6.18-0.18,False,,0.0,26.0,,,,,,,[],,,,,,50.0,1.0,i,1.0,True,801.5999999940395,49.0,60.0,40.0,226.1238236063477,[],"[768, 432]",ColorTask,7.0,19.0,,,HRV,HRV_0272,2022-11-30 20:17:36
,wl-rdm,27,120128,0.0-6.19-0.19,False,,0.0,27.0,,,,,,,[],,,,,,53.2,0.0,i,1.0,False,337.59999999403954,21.0,60.0,40.0,262.35374445628895,[],"[768, 432]",ColorTask,6.0,20.0,,,HRV,HRV_0272,2022-11-30 20:17:36
,wl-rdm,28,122128,0.0-6.20-0.20,False,,0.0,28.0,,,,,,,[],,,,,,87.9,1.0,u,0.0,False,657.8999999910593,40.0,60.0,40.0,251.88776272939293,[],"[768, 432]",ColorTask,5.0,21.0,,,HRV,HRV_0272,2022-11-30 20:17:36
,wl-rdm,29,123195,0.0-6.21-0.21,True,too_early ,0.0,28.0,,,,,,,[],,,,,,87.9,1.0,i,,,117.90000000596046,0.0,60.0,40.0,297.50618829434364,[],"[768, 432]",ColorTask,4.0,22.0,,,HRV,HRV_0272,2022-11-30 20:17:36
,wl-rdm,30,124561,0.0-6.22-0.22,True,too_early ,0.0,28.0,,,,,,,[],,,,,,56.4,1.0,i,1.0,True,47.79999999701977,3.0,60.0,40.0,237.34012543660907,[],"[768, 432]",ColorTask,5.0,23.0,,,HRV,HRV_0272,2022-11-30 20:17:36
,wl-rdm,31,126044,0.0-6.23-0.23,False,,0.0,29.0,,,,,,,[],,,,,,56.4,0.0,i,1.0,False,145.3999999910593,9.0,60.0,40.0,266.3339929974527,[],"[768, 432]",ColorTask,4.0,24.0,,,HRV,HRV_0272,2022-11-30 20:17:36
,wl-rdm,32,127328,0.0-6.24-0.24,True,too_early ,0.0,29.0,,,,,,,[],,,,,,62.5,0.0,u,,,743.7999999970198,0.0,60.0,40.0,302.6241850357626,[],"[768, 432]",ColorTask,3.0,25.0,,,HRV,HRV_0272,2022-11-30 20:17:36
,wl-rdm,33,128494,0.0-6.25-0.25,True,too_early ,0.0,29.0,,,,,,,[],,,,,,50.0,1.0,i,,,621.3999999910593,0.0,60.0,40.0,358.5611967348,[],"[768, 432]",ColorTask,2.0,26.0,,,HRV,HRV_0272,2022-11-30 20:17:36
,wl-rdm,34,130694,0.0-6.26-0.26,False,,0.0,30.0,,,,,,,[],,,,,,56.4,0.0,i,1.0,False,724.7999999970198,44.0,60.0,40.0,394.99570684194555,[],"[768, 432]",ColorTask,1.0,27.0,,,HRV,HRV_0272,2022-11-30 20:17:36
,wl-rdm,35,132295,0.0-6.27-0.27,False,,0.0,31.0,,,,,,,[],,,,,,53.2,1.0,u,0.0,False,311.19999998807907,19.0,60.0,40.0,214.84433615453733,[],"[768, 432]",ColorTask,0.0,28.0,,,HRV,HRV_0272,2022-11-30 20:17:36
,wl-rdm,36,133794,0.0-6.28-0.28,True,too_early ,0.0,31.0,,,,,,,[],,,,,,56.4,0.0,i,1.0,False,27.5,2.0,60.0,40.0,398.7627768261308,[],"[768, 432]",ColorTask,-1.0,29.0,,,HRV,HRV_0272,2022-11-30 20:17:36
,wl-rdm,37,135727,0.0-6.29-0.29,False,,0.0,32.0,,,,,,,[],,,,,,73.6,1.0,i,1.0,True,508.5,31.0,60.0,40.0,344.01023826539824,[],"[768, 432]",ColorTask,0.0,30.0,,,HRV,HRV_0272,2022-11-30 20:17:36
,wl-rdm,38,137527,0.0-6.30-0.30,False,,0.0,33.0,,,,,,,[],,,,,,53.2,1.0,i,1.0,True,396.59999999403954,24.0,60.0,40.0,325.3670876069335,[],"[768, 432]",ColorTask,1.0,31.0,,,HRV,HRV_0272,2022-11-30 20:17:36
,wl-rdm,39,139376,0.0-6.31-0.31,False,,0.0,34.0,,,,,,,[],,,,,,62.5,0.0,i,1.0,False,422.1000000089407,26.0,60.0,40.0,335.29967784947576,[],"[768, 432]",ColorTask,0.0,32.0,,,HRV,HRV_0272,2022-11-30 20:17:36
,wl-rdm,40,141109,0.0-6.32-0.32,False,,0.0,35.0,,,,,,,[],,,,,,87.9,0.0,u,0.0,True,431.59999999403954,26.0,60.0,40.0,229.2442678808136,[],"[768, 432]",ColorTask,1.0,33.0,,,HRV,HRV_0272,2022-11-30 20:17:36
,wl-rdm,41,143159,0.0-6.33-0.33,False,,0.0,36.0,,,,,,,[],,,,,,50.0,1.0,i,1.0,True,600.7000000029802,37.0,60.0,40.0,361.4150372548859,[],"[768, 432]",ColorTask,2.0,34.0,,,HRV,HRV_0272,2022-11-30 20:17:36
,wl-rdm,42,144959,0.0-6.34-0.34,False,,0.0,37.0,,,,,,,[],,,,,,50.0,1.0,i,1.0,True,498.40000000596046,30.0,60.0,40.0,238.25177757964894,[],"[768, 432]",ColorTask,3.0,35.0,,,HRV,HRV_0272,2022-11-30 20:17:36
,wl-rdm,43,146859,0.0-6.35-0.35,False,,0.0,38.0,,,,,,,[],,,,,,56.4,1.0,i,1.0,True,444.5,27.0,60.0,40.0,373.3457698109779,[],"[768, 432]",ColorTask,4.0,36.0,,,HRV,HRV_0272,2022-11-30 20:17:36
,wl-rdm,44,148742,0.0-6.36-0.36,False,,0.0,39.0,,,,,,,[],,,,,,62.5,1.0,i,1.0,True,445.1000000089407,27.0,60.0,40.0,380.55732659447324,[],"[768, 432]",ColorTask,5.0,37.0,,,HRV,HRV_0272,2022-11-30 20:17:36
,wl-rdm,45,150575,0.0-6.37-0.37,False,,0.0,40.0,,,,,,,[],,,,,,56.4,1.0,i,1.0,True,400.80000001192093,25.0,60.0,40.0,346.9897074349528,[],"[768, 432]",ColorTask,6.0,38.0,,,HRV,HRV_0272,2022-11-30 20:17:36
,wl-rdm,46,152342,0.0-6.38-0.38,False,,0.0,41.0,,,,,,,[],,,,,,73.6,1.0,i,1.0,True,439.19999998807907,27.0,60.0,40.0,257.2714068517206,[],"[768, 432]",ColorTask,7.0,39.0,,,HRV,HRV_0272,2022-11-30 20:17:36
,wl-rdm,47,154160,0.0-6.39-0.39,False,,0.0,42.0,,,,,,,[],,,,,,56.4,0.0,i,1.0,False,397.6000000089407,24.0,60.0,40.0,345.685227858851,[],"[768, 432]",ColorTask,6.0,40.0,,,HRV,HRV_0272,2022-11-30 20:17:36
,wl-rdm,48,155959,0.0-6.40-0.40,False,,0.0,43.0,,,,,,,[],,,,,,73.6,1.0,i,1.0,True,418.20000000298023,26.0,60.0,40.0,297.93747059819293,[],"[768, 432]",ColorTask,7.0,41.0,,,HRV,HRV_0272,2022-11-30 20:17:36
,wl-rdm,49,157826,0.0-6.41-0.41,False,,0.0,44.0,,,,,,,[],,,,,,53.2,0.0,i,1.0,False,542.0999999940395,33.0,60.0,40.0,237.41209767941768,[],"[768, 432]",ColorTask,6.0,42.0,,,HRV,HRV_0272,2022-11-30 20:17:36
,wl-rdm,50,159925,0.0-6.42-0.42,False,,0.0,45.0,,,,,,,[],,,,,,87.9,0.0,u,0.0,True,793.0999999940395,48.0,60.0,40.0,216.57818282802512,[],"[768, 432]",ColorTask,7.0,43.0,,,HRV,HRV_0272,2022-11-30 20:17:36
,wl-rdm,51,161892,0.0-6.43-0.43,False,,0.0,46.0,,,,,,,[],,,,,,62.5,1.0,i,1.0,True,568.5999999940395,35.0,60.0,40.0,319.3675094193303,[],"[768, 432]",ColorTask,8.0,44.0,,,HRV,HRV_0272,2022-11-30 20:17:36
,wl-rdm,52,163591,0.0-6.44-0.44,False,,0.0,47.0,,,,,,,[],,,,,,62.5,0.0,i,1.0,False,408.79999999701977,25.0,60.0,40.0,209.384242294192,[],"[768, 432]",ColorTask,7.0,45.0,,,HRV,HRV_0272,2022-11-30 20:17:36
,wl-rdm,53,165292,0.0-6.45-0.45,False,,0.0,48.0,,,,,,,[],,,,,,53.2,1.0,u,0.0,False,293.5,18.0,60.0,40.0,325.1320211351446,[],"[768, 432]",ColorTask,6.0,46.0,,,HRV,HRV_0272,2022-11-30 20:17:36
,wl-rdm,54,166908,0.0-6.46-0.46,False,,0.0,49.0,,,,,,,[],,,,,,73.6,0.0,i,1.0,False,323.79999999701977,20.0,60.0,40.0,200.74392311033847,[],"[768, 432]",ColorTask,5.0,47.0,,,HRV,HRV_0272,2022-11-30 20:17:36
,wl-rdm,55,168574,0.0-6.47-0.47,False,,0.0,50.0,,,,,,,[],,,,,,87.9,1.0,u,0.0,False,355.0,22.0,60.0,40.0,231.23800407780908,[],"[768, 432]",ColorTask,4.0,48.0,,,HRV,HRV_0272,2022-11-30 20:17:36
,wl-rdm,56,170374,0.0-6.48-0.48,False,,0.0,51.0,,,,,,,[],,,,,,87.9,1.0,i,1.0,True,477.59999999403954,29.0,60.0,40.0,234.097342858128,[],"[768, 432]",ColorTask,5.0,49.0,,,HRV,HRV_0272,2022-11-30 20:17:36
,wl-rdm,57,172091,0.0-6.49-0.49,False,,0.0,52.0,,,,,,,[],,,,,,87.9,1.0,i,1.0,True,365.19999998807907,22.0,60.0,40.0,272.5366358595516,[],"[768, 432]",ColorTask,6.0,50.0,,,HRV,HRV_0272,2022-11-30 20:17:36
,wl-rdm,58,173924,0.0-6.50-0.50,False,,0.0,53.0,,,,,,,[],,,,,,50.0,1.0,i,1.0,True,381.29999999701977,23.0,60.0,40.0,376.4651038357426,[],"[768, 432]",ColorTask,7.0,51.0,,,HRV,HRV_0272,2022-11-30 20:17:36
,wl-rdm,59,176240,0.0-6.51-0.51,False,,0.0,54.0,,,,,,,[],,,,,,62.5,0.0,i,1.0,False,1005.5,61.0,60.0,40.0,218.68556606598275,[],"[768, 432]",ColorTask,6.0,52.0,,,HRV,HRV_0272,2022-11-30 20:17:36
,wl-rdm,60,177990,0.0-6.52-0.52,False,,0.0,55.0,,,,,,,[],,,,,,73.6,1.0,u,0.0,False,355.20000000298023,22.0,60.0,40.0,310.9136736354664,[],"[768, 432]",ColorTask,5.0,53.0,,,HRV,HRV_0272,2022-11-30 20:17:36
,wl-rdm,61,179540,0.0-6.53-0.53,True,too_early ,0.0,55.0,,,,,,,[],,,,,,56.4,0.0,i,1.0,False,68.70000000298023,5.0,60.0,40.0,399.41705288909134,[],"[768, 432]",ColorTask,4.0,54.0,,,HRV,HRV_0272,2022-11-30 20:17:36
,wl-rdm,62,181373,0.0-6.54-0.54,False,,0.0,56.0,,,,,,,[],,,,,,73.6,0.0,i,1.0,False,529.3000000119209,32.0,60.0,40.0,222.17034314573667,[],"[768, 432]",ColorTask,3.0,55.0,,,HRV,HRV_0272,2022-11-30 20:17:36
,wl-rdm,63,183222,0.0-6.55-0.55,False,,0.0,57.0,,,,,,,[],,,,,,50.0,1.0,u,0.0,False,570.9000000059605,35.0,60.0,40.0,214.93865921087396,[],"[768, 432]",ColorTask,2.0,56.0,,,HRV,HRV_0272,2022-11-30 20:17:36
,wl-rdm,64,185023,0.0-6.56-0.56,False,,0.0,58.0,,,,,,,[],,,,,,50.0,0.0,i,1.0,False,335.09999999403954,21.0,60.0,40.0,390.973335224552,[],"[768, 432]",ColorTask,1.0,57.0,,,HRV,HRV_0272,2022-11-30 20:17:36
,wl-rdm,65,186989,0.0-6.57-0.57,False,,0.0,59.0,,,,,,,[],,,,,,56.4,0.0,u,0.0,True,665.0,40.0,60.0,40.0,237.92617323401288,[],"[768, 432]",ColorTask,2.0,58.0,,,HRV,HRV_0272,2022-11-30 20:17:36
,wl-rdm,66,188989,0.0-6.58-0.58,False,,0.0,60.0,,,,,,,[],,,,,,50.0,0.0,i,1.0,False,683.0999999940395,41.0,60.0,40.0,263.35588896962565,[],"[768, 432]",ColorTask,1.0,59.0,,,HRV,HRV_0272,2022-11-30 20:17:36
,wl-rdm,67,190889,0.0-6.59-0.59,False,,0.0,61.0,,,,,,,[],,,,,,87.9,1.0,i,1.0,True,568.1000000089407,35.0,60.0,40.0,255.94773098747362,[],"[768, 432]",ColorTask,2.0,60.0,,,HRV,HRV_0272,2022-11-30 20:17:36
,wl-rdm,68,192538,0.0-6.60-0.60,False,,0.0,62.0,,,,,,,[],,,,,,50.0,0.0,i,1.0,False,359.8999999910593,22.0,60.0,40.0,209.71387602965262,[],"[768, 432]",ColorTask,1.0,61.0,,,HRV,HRV_0272,2022-11-30 20:17:36
,wl-rdm,69,194438,0.0-6.61-0.61,False,,0.0,63.0,,,,,,,[],,,,,,62.5,0.0,i,1.0,False,576.1000000089407,35.0,60.0,40.0,243.17709151629242,[],"[768, 432]",ColorTask,0.0,62.0,,,HRV,HRV_0272,2022-11-30 20:17:36
,wl-rdm,70,196138,0.0-6.62-0.62,False,,0.0,64.0,,,,,,,[],,,,,,56.4,1.0,u,0.0,False,331.09999999403954,20.0,60.0,40.0,307.7761173869244,[],"[768, 432]",ColorTask,-1.0,63.0,,,HRV,HRV_0272,2022-11-30 20:17:36
,wl-rdm,71,198222,0.0-6.63-0.63,False,,0.0,65.0,,,,,,,[],,,,,,87.9,0.0,u,0.0,True,789.4000000059605,48.0,60.0,40.0,215.04436712337557,[],"[768, 432]",ColorTask,0.0,64.0,,,HRV,HRV_0272,2022-11-30 20:17:36
,wl-rdm,72,200137,0.0-6.64-0.64,False,,0.0,66.0,,,,,,,[],,,,,,73.6,0.0,u,0.0,True,614.5,37.0,60.0,40.0,243.02430141435184,[],"[768, 432]",ColorTask,1.0,65.0,,,HRV,HRV_0272,2022-11-30 20:17:36
,wl-rdm,73,203737,0.0-6.65-0.65,False,,0.0,67.0,,,,,,,[],,,,,,87.9,1.0,i,1.0,True,2265.2999999970198,136.0,60.0,40.0,277.1673657863434,[],"[768, 432]",ColorTask,2.0,66.0,,,HRV,HRV_0272,2022-11-30 20:17:36
,wl-rdm,74,206353,0.0-6.66-0.66,False,,0.0,68.0,,,,,,,[],,,,,,53.2,1.0,i,1.0,True,1274.0,77.0,60.0,40.0,250.12992346036998,[],"[768, 432]",ColorTask,3.0,67.0,,,HRV,HRV_0272,2022-11-30 20:17:36
,wl-rdm,75,208403,0.0-6.67-0.67,False,,0.0,69.0,,,,,,,[],,,,,,87.9,0.0,u,0.0,True,671.4000000059605,41.0,60.0,40.0,289.0298728432367,[],"[768, 432]",ColorTask,4.0,68.0,,,HRV,HRV_0272,2022-11-30 20:17:36
,wl-rdm,76,210553,0.0-6.68-0.68,False,,0.0,70.0,,,,,,,[],,,,,,53.2,0.0,i,1.0,False,841.5999999940395,51.0,60.0,40.0,244.3616134857202,[],"[768, 432]",ColorTask,3.0,69.0,,,HRV,HRV_0272,2022-11-30 20:17:36
,wl-rdm,77,212836,0.0-6.69-0.69,False,,0.0,71.0,,,,,,,[],,,,,,62.5,1.0,u,0.0,False,953.2000000178814,58.0,60.0,40.0,241.93189431179817,[],"[768, 432]",ColorTask,2.0,70.0,,,HRV,HRV_0272,2022-11-30 20:17:36
,wl-rdm,78,215152,0.0-6.70-0.70,False,,0.0,72.0,,,,,,,[],,,,,,62.5,0.0,u,0.0,True,856.8999999910593,52.0,60.0,40.0,398.2791361044183,[],"[768, 432]",ColorTask,3.0,71.0,,,HRV,HRV_0272,2022-11-30 20:17:36
,wl-rdm,79,219501,0.0-6.71-0.71,True,RT_timeout ,0.0,72.0,,,,,,,[],,,,,,87.9,1.0,,,,,179.0,60.0,40.0,241.0672881820113,[],"[768, 432]",ColorTask,2.0,72.0,,,HRV,HRV_0272,2022-11-30 20:17:36
,wl-rdm,80,220584,0.0-6.72-0.72,True,too_early ,0.0,72.0,,,,,,,[],,,,,,50.0,1.0,i,,,104.6000000089407,0.0,60.0,40.0,351.86155499924985,[],"[768, 432]",ColorTask,1.0,73.0,,,HRV,HRV_0272,2022-11-30 20:17:36
,wl-rdm,81,221667,0.0-6.73-0.73,True,too_early ,0.0,72.0,,,,,,,[],,,,,,56.4,1.0,u,,,530.0999999940395,0.0,60.0,40.0,235.67707655530032,[],"[768, 432]",ColorTask,0.0,74.0,,,HRV,HRV_0272,2022-11-30 20:17:36
,wl-rdm,82,224833,0.0-6.74-0.74,False,,0.0,73.0,,,,,,,[],,,,,,56.4,0.0,i,1.0,False,1721.3999999910593,104.0,60.0,40.0,368.5097805004306,[],"[768, 432]",ColorTask,-1.0,75.0,,,HRV,HRV_0272,2022-11-30 20:17:36
,wl-rdm,83,227050,0.0-6.75-0.75,False,,0.0,74.0,,,,,,,[],,,,,,53.2,0.0,i,1.0,False,769.3000000119209,47.0,60.0,40.0,362.6283261462184,[],"[768, 432]",ColorTask,-2.0,76.0,,,HRV,HRV_0272,2022-11-30 20:17:36
,wl-rdm,84,228750,0.0-6.76-0.76,False,,0.0,75.0,,,,,,,[],,,,,,53.2,1.0,u,0.0,False,424.70000000298023,26.0,60.0,40.0,211.77591224594636,[],"[768, 432]",ColorTask,-3.0,77.0,,,HRV,HRV_0272,2022-11-30 20:17:36
,wl-rdm,85,230333,0.0-6.77-0.77,False,,0.0,76.0,,,,,,,[],,,,,,73.6,0.0,i,1.0,False,311.3999999910593,19.0,60.0,40.0,204.9779822151244,[],"[768, 432]",ColorTask,-4.0,78.0,,,HRV,HRV_0272,2022-11-30 20:17:36
,wl-rdm,86,232199,0.0-6.78-0.78,False,,0.0,77.0,,,,,,,[],,,,,,73.6,0.0,i,1.0,False,505.0,31.0,60.0,40.0,297.37580462611135,[],"[768, 432]",ColorTask,-5.0,79.0,,,HRV,HRV_0272,2022-11-30 20:17:36
,wl-rdm,87,234332,0.0-6.79-0.79,False,,0.0,78.0,,,,,,,[],,,,,,62.5,0.0,i,1.0,False,661.8999999910593,40.0,60.0,40.0,399.2138147493234,[],"[768, 432]",ColorTask,-6.0,80.0,,,HRV,HRV_0272,2022-11-30 20:17:36
,wl-rdm,88,235999,0.0-6.80-0.80,False,,0.0,79.0,,,,,,,[],,,,,,53.2,0.0,u,0.0,True,376.5,23.0,60.0,40.0,213.13990898849192,[],"[768, 432]",ColorTask,-5.0,81.0,,,HRV,HRV_0272,2022-11-30 20:17:36
,wl-rdm,89,237715,0.0-6.81-0.81,False,,0.0,80.0,,,,,,,[],,,,,,62.5,0.0,u,0.0,True,417.70000000298023,26.0,60.0,40.0,223.23675678678717,[],"[768, 432]",ColorTask,-4.0,82.0,,,HRV,HRV_0272,2022-11-30 20:17:36
,wl-rdm,90,239382,0.0-6.82-0.82,False,,0.0,81.0,,,,,,,[],,,,,,53.2,1.0,u,0.0,False,363.50000001490116,22.0,60.0,40.0,220.01465888845053,[],"[768, 432]",ColorTask,-5.0,83.0,,,HRV,HRV_0272,2022-11-30 20:17:36
,wl-rdm,91,241098,0.0-6.83-0.83,False,,0.0,82.0,,,,,,,[],,,,,,87.9,0.0,i,1.0,False,374.0,23.0,60.0,40.0,262.0318631333034,[],"[768, 432]",ColorTask,-6.0,84.0,,,HRV,HRV_0272,2022-11-30 20:17:36
,wl-rdm,92,243115,0.0-6.84-0.84,False,,0.0,83.0,,,,,,,[],,,,,,50.0,1.0,i,1.0,True,656.8999999910593,40.0,60.0,40.0,274.2396392562181,[],"[768, 432]",ColorTask,-5.0,85.0,,,HRV,HRV_0272,2022-11-30 20:17:36
,wl-rdm,93,245448,0.0-6.85-0.85,False,,0.0,84.0,,,,,,,[],,,,,,50.0,0.0,u,0.0,True,1004.8000000119209,61.0,60.0,40.0,248.5402827178917,[],"[768, 432]",ColorTask,-4.0,86.0,,,HRV,HRV_0272,2022-11-30 20:17:36
,wl-rdm,94,247465,0.0-6.86-0.86,False,,0.0,85.0,,,,,,,[],,,,,,73.6,1.0,i,1.0,True,631.0,38.0,60.0,40.0,305.1624427130006,[],"[768, 432]",ColorTask,-3.0,87.0,,,HRV,HRV_0272,2022-11-30 20:17:36
,wl-rdm,95,251780,0.0-6.87-0.87,True,RT_timeout ,0.0,85.0,,,,,,,[],,,,,,56.4,0.0,,,,,179.0,60.0,40.0,217.03285127132256,[],"[768, 432]",ColorTask,-4.0,88.0,,,HRV,HRV_0272,2022-11-30 20:17:36
,wl-rdm,96,253663,0.0-6.88-0.88,False,,0.0,86.0,,,,,,,[],,,,,,56.4,1.0,i,1.0,True,519.2000000029802,32.0,60.0,40.0,286.3718774897857,[],"[768, 432]",ColorTask,-3.0,89.0,,,HRV,HRV_0272,2022-11-30 20:17:36
,wl-rdm,97,255480,0.0-6.89-0.89,False,,0.0,87.0,,,,,,,[],,,,,,56.4,0.0,i,1.0,False,356.40000000596046,22.0,60.0,40.0,367.0166467497726,[],"[768, 432]",ColorTask,-4.0,90.0,,,HRV,HRV_0272,2022-11-30 20:17:36
,wl-rdm,98,257180,0.0-6.90-0.90,False,,0.0,88.0,,,,,,,[],,,,,,56.4,0.0,u,0.0,True,297.8999999910593,18.0,60.0,40.0,332.21430906745974,[],"[768, 432]",ColorTask,-3.0,91.0,,,HRV,HRV_0272,2022-11-30 20:17:36
,wl-rdm,99,258780,0.0-6.91-0.91,False,,0.0,89.0,,,,,,,[],,,,,,62.5,1.0,i,1.0,True,313.1000000089407,19.0,60.0,40.0,206.73743421201686,[],"[768, 432]",ColorTask,-2.0,92.0,,,HRV,HRV_0272,2022-11-30 20:17:36
,wl-rdm,100,260579,0.0-6.92-0.92,False,,0.0,90.0,,,,,,,[],,,,,,53.2,0.0,i,1.0,False,460.3999999910593,28.0,60.0,40.0,256.7837043218382,[],"[768, 432]",ColorTask,-3.0,93.0,,,HRV,HRV_0272,2022-11-30 20:17:36
,wl-rdm,101,262213,0.0-6.93-0.93,False,,0.0,91.0,,,,,,,[],,,,,,53.2,0.0,i,1.0,False,307.5,19.0,60.0,40.0,252.45708431524707,[],"[768, 432]",ColorTask,-4.0,94.0,,,HRV,HRV_0272,2022-11-30 20:17:36
,wl-rdm,102,263396,0.0-6.94-0.94,True,too_early ,0.0,91.0,,,,,,,[],,,,,,56.4,1.0,u,,,651.1000000089407,0.0,60.0,40.0,360.6473235617213,[],"[768, 432]",ColorTask,-5.0,95.0,,,HRV,HRV_0272,2022-11-30 20:17:36
,wl-rdm,103,265212,0.0-6.95-0.95,False,,0.0,92.0,,,,,,,[],,,,,,87.9,0.0,u,0.0,True,462.59999999403954,28.0,60.0,40.0,267.2656772343079,[],"[768, 432]",ColorTask,-4.0,96.0,,,HRV,HRV_0272,2022-11-30 20:17:36
,wl-rdm,104,266295,0.0-6.96-0.96,True,too_early ,0.0,92.0,,,,,,,[],,,,,,53.2,1.0,i,,,533.4000000059605,0.0,60.0,40.0,262.6182068905166,[],"[768, 432]",ColorTask,-5.0,97.0,,,HRV,HRV_0272,2022-11-30 20:17:36
,wl-rdm,105,267846,0.0-6.97-0.97,False,,0.0,93.0,,,,,,,[],,,,,,87.9,0.0,i,1.0,False,234.5,15.0,60.0,40.0,239.67452686440245,[],"[768, 432]",ColorTask,-6.0,98.0,,,HRV,HRV_0272,2022-11-30 20:17:36
,wl-rdm,106,270862,0.0-6.98-0.98,False,,0.0,94.0,,,,,,,[],,,,,,87.9,1.0,u,0.0,False,1658.7999999970198,100.0,60.0,40.0,272.0167604097729,[],"[768, 432]",ColorTask,-7.0,99.0,,,HRV,HRV_0272,2022-11-30 20:17:36
,wl-rdm,107,272978,0.0-6.99-0.99,False,,0.0,95.0,,,,,,,[],,,,,,73.6,0.0,i,1.0,False,673.7999999821186,41.0,60.0,40.0,351.44931894796775,[],"[768, 432]",ColorTask,-8.0,100.0,,,HRV,HRV_0272,2022-11-30 20:17:36
,wl-rdm,108,276511,0.0-6.100-0.100,False,,0.0,96.0,,,,,,,[],,,,,,56.4,1.0,i,1.0,True,2143.5999999940395,129.0,60.0,40.0,311.7122289570345,[],"[768, 432]",ColorTask,-7.0,101.0,,,HRV,HRV_0272,2022-11-30 20:17:36
,wl-rdm,109,279027,0.0-6.101-0.101,False,,0.0,97.0,,,,,,,[],,,,,,50.0,1.0,i,1.0,True,1142.1000000089407,69.0,60.0,40.0,294.104545566542,[],"[768, 432]",ColorTask,-6.0,102.0,,,HRV,HRV_0272,2022-11-30 20:17:36
,wl-rdm,110,280794,0.0-6.102-0.102,False,,0.0,98.0,,,,,,,[],,,,,,87.9,0.0,i,1.0,False,468.40000000596046,29.0,60.0,40.0,213.5555125077027,[],"[768, 432]",ColorTask,-7.0,103.0,,,HRV,HRV_0272,2022-11-30 20:17:36
,wl-rdm,111,282877,0.0-6.103-0.103,False,,0.0,99.0,,,,,,,[],,,,,,53.2,1.0,u,0.0,False,628.6000000089407,38.0,60.0,40.0,386.80481714229296,[],"[768, 432]",ColorTask,-8.0,104.0,,,HRV,HRV_0272,2022-11-30 20:17:36
,wl-rdm,112,284180,0.0-6.104-0.104,True,exitFullScreen exitFullScreen ,0.0,99.0,,,,,,,[1302.6000000089407],,,,,,53.2,0.0,,,,,29.0,60.0,40.0,283.1787600432657,[],"[768, 432]",ColorTask,-9.0,105.0,,,HRV,HRV_0272,2022-11-30 20:17:36
,wl-rdm,113,286849,0.0-6.105-0.105,True,enterFullScreen ,0.0,99.0,,,,,,,[],,,,,,73.6,0.0,,,,,0.0,60.0,40.0,277.52484002447466,[],"[None, None]",ColorTask,-10.0,106.0,,,HRV,HRV_0272,2022-11-30 20:17:36
,wl-rdm,114,288592,0.0-6.106-0.106,False,,0.0,100.0,,,,,,,[],,,,,,73.6,0.0,i,1.0,False,364.80000001192093,22.0,60.0,40.0,314.38919553041944,[],"[768, 432]",ColorTask,-11.0,107.0,,,HRV,HRV_0272,2022-11-30 20:17:36
,wl-rdm,115,290809,0.0-6.107-0.107,False,,0.0,101.0,,,,,,,[],,,,,,62.5,0.0,u,0.0,True,948.5,57.0,60.0,40.0,205.55195645264834,[],"[768, 432]",ColorTask,-10.0,108.0,,,HRV,HRV_0272,2022-11-30 20:17:36
,wl-rdm,116,294175,0.0-6.108-0.108,False,,0.0,102.0,,,,,,,[],,,,,,62.5,1.0,i,1.0,True,1976.2000000029802,119.0,60.0,40.0,330.31830294576105,[],"[768, 432]",ColorTask,-9.0,109.0,,,HRV,HRV_0272,2022-11-30 20:17:36
,wl-rdm,117,297258,0.0-6.109-0.109,False,,0.0,103.0,,,,,,,[],,,,,,62.5,1.0,i,1.0,True,1719.8999999910593,104.0,60.0,40.0,281.9528351452027,[],"[768, 432]",ColorTask,-8.0,110.0,,,HRV,HRV_0272,2022-11-30 20:17:36
,wl-rdm,118,299342,0.0-6.110-0.110,False,,0.0,104.0,,,,,,,[],,,,,,50.0,0.0,i,1.0,False,788.3999999910593,48.0,60.0,40.0,208.00245356971948,[],"[768, 432]",ColorTask,-9.0,111.0,,,HRV,HRV_0272,2022-11-30 20:17:36
,wl-rdm,119,301358,0.0-6.111-0.111,False,,0.0,105.0,,,,,,,[],,,,,,73.6,0.0,u,0.0,True,569.8999999910593,35.0,60.0,40.0,360.2328938312365,[],"[768, 432]",ColorTask,-8.0,112.0,,,HRV,HRV_0272,2022-11-30 20:17:36
,wl-rdm,120,303058,0.0-6.112-0.112,False,,0.0,106.0,,,,,,,[],,,,,,50.0,0.0,u,0.0,True,402.70000000298023,25.0,60.0,40.0,214.90470394172453,[],"[768, 432]",ColorTask,-7.0,113.0,,,HRV,HRV_0272,2022-11-30 20:17:36
,wl-rdm,121,305391,0.0-6.113-0.113,False,,0.0,107.0,,,,,,,[],,,,,,62.5,1.0,i,1.0,True,928.2000000029802,56.0,60.0,40.0,327.5024724355352,[],"[768, 432]",ColorTask,-6.0,114.0,,,HRV,HRV_0272,2022-11-30 20:17:36
,wl-rdm,122,307357,0.0-6.114-0.114,False,,0.0,108.0,,,,,,,[],,,,,,50.0,0.0,i,1.0,False,508.2000000178814,31.0,60.0,40.0,378.498736064067,[],"[768, 432]",ColorTask,-7.0,115.0,,,HRV,HRV_0272,2022-11-30 20:17:36
,wl-rdm,123,309107,0.0-6.115-0.115,False,,0.0,109.0,,,,,,,[],,,,,,87.9,0.0,u,0.0,True,461.59999999403954,28.0,60.0,40.0,205.38053824386427,[],"[768, 432]",ColorTask,-6.0,116.0,,,HRV,HRV_0272,2022-11-30 20:17:36
,wl-rdm,124,311357,0.0-6.116-0.116,False,,0.0,110.0,,,,,,,[],,,,,,53.2,0.0,u,0.0,True,926.1000000089407,56.0,60.0,40.0,266.26236921179793,[],"[768, 432]",ColorTask,-5.0,117.0,,,HRV,HRV_0272,2022-11-30 20:17:36
,wl-rdm,125,315706,0.0-6.117-0.117,True,RT_timeout ,0.0,110.0,,,,,,,[],,,,,,73.6,0.0,,,,,179.0,60.0,40.0,237.21712912208415,[],"[768, 432]",ColorTask,-6.0,118.0,,,HRV,HRV_0272,2022-11-30 20:17:36
,wl-rdm,126,319456,0.0-6.118-0.118,False,,0.0,111.0,,,,,,,[],,,,,,56.4,1.0,u,0.0,False,2465.0999999940395,148.0,60.0,40.0,215.91196862458625,[],"[768, 432]",ColorTask,-7.0,119.0,,,HRV,HRV_0272,2022-11-30 20:17:36
,wl-rdm,127,323789,0.0-6.119-0.119,True,RT_timeout ,0.0,111.0,,,,,,,[],,,,,,73.6,1.0,,,,,179.0,60.0,40.0,232.75974928791106,[],"[768, 432]",ColorTask,-8.0,120.0,,,HRV,HRV_0272,2022-11-30 20:17:36
,wl-rdm,128,325072,0.0-6.120-0.120,True,too_early ,0.0,111.0,,,,,,,[],,,,,,50.0,0.0,i,,,744.5999999940395,0.0,60.0,40.0,208.82515236577362,[],"[768, 432]",ColorTask,-9.0,121.0,,,HRV,HRV_0272,2022-11-30 20:17:36
,wl-rdm,129,328638,0.0-6.121-0.121,False,,0.0,112.0,,,,,,,[],,,,,,73.6,1.0,i,1.0,True,2236.8999999910593,135.0,60.0,40.0,244.96267847185078,[],"[768, 432]",ColorTask,-8.0,122.0,,,HRV,HRV_0272,2022-11-30 20:17:36
,wl-rdm,130,330421,0.0-6.122-0.122,False,,0.0,113.0,,,,,,,[],,,,,,56.4,1.0,u,0.0,False,456.5,28.0,60.0,40.0,243.5887658858825,[],"[768, 432]",ColorTask,-9.0,123.0,,,HRV,HRV_0272,2022-11-30 20:17:36
,wl-rdm,131,332488,0.0-6.123-0.123,False,,0.0,114.0,,,,,,,[],,,,,,50.0,0.0,i,1.0,False,729.7000000029802,44.0,60.0,40.0,259.57914009055645,[],"[768, 432]",ColorTask,-10.0,124.0,,,HRV,HRV_0272,2022-11-30 20:17:36
,wl-rdm,132,334521,0.0-6.124-0.124,False,,0.0,115.0,,,,,,,[],,,,,,73.6,0.0,i,1.0,False,681.5999999940395,41.0,60.0,40.0,281.5276162801475,[],"[768, 432]",ColorTask,-11.0,125.0,,,HRV,HRV_0272,2022-11-30 20:17:36
,wl-html-keyboard-response,133,342035,0.0-7.0-0.0,,,1.0,116.0,,,,,,,,5993.79999999702,1.0,0,,,,,,,,,,,,,,,,,,,,HRV,HRV_0272,2022-11-30 20:17:36
,wl-rdm,134,344003,0.0-8.0-0.0,False,,1.0,117.0,,,,,,,[],,,,,,87.9,1.0,i,1.0,True,521.6000000089407,32.0,60.0,40.0,370.2664401662886,[],"[768, 432]",ColorTask,-10.0,1.0,,,HRV,HRV_0272,2022-11-30 20:17:36
,wl-rdm,135,346720,0.0-8.1-0.1,False,,1.0,118.0,,,,,,,[],,,,,,53.2,0.0,u,0.0,True,1432.5999999940395,86.0,60.0,40.0,229.4186107759477,[],"[768, 432]",ColorTask,-9.0,2.0,,,HRV,HRV_0272,2022-11-30 20:17:36
,wl-rdm,136,348453,0.0-8.2-0.2,False,,1.0,119.0,,,,,,,[],,,,,,53.2,0.0,i,1.0,False,314.29999999701977,19.0,60.0,40.0,344.2355230594725,[],"[768, 432]",ColorTask,-10.0,3.0,,,HRV,HRV_0272,2022-11-30 20:17:36
,wl-rdm,137,350052,0.0-8.3-0.3,False,,1.0,120.0,,,,,,,[],,,,,,73.6,1.0,u,0.0,False,312.2000000178814,19.0,60.0,40.0,211.75177031271727,[],"[768, 432]",ColorTask,-11.0,4.0,,,HRV,HRV_0272,2022-11-30 20:17:36
,wl-rdm,138,351752,0.0-8.4-0.4,False,,1.0,121.0,,,,,,,[],,,,,,87.9,0.0,i,1.0,False,388.1000000089407,24.0,60.0,40.0,244.11524478153717,[],"[768, 432]",ColorTask,-12.0,5.0,,,HRV,HRV_0272,2022-11-30 20:17:36
,wl-rdm,139,353419,0.0-8.5-0.5,False,,1.0,122.0,,,,,,,[],,,,,,62.5,1.0,u,0.0,False,327.09999999403954,20.0,60.0,40.0,270.42300046751836,[],"[768, 432]",ColorTask,-13.0,6.0,,,HRV,HRV_0272,2022-11-30 20:17:36
,wl-rdm,140,354985,0.0-8.6-0.6,False,,1.0,123.0,,,,,,,[],,,,,,50.0,0.0,i,1.0,False,268.6000000089407,17.0,60.0,40.0,201.64304822017996,[],"[768, 432]",ColorTask,-14.0,7.0,,,HRV,HRV_0272,2022-11-30 20:17:36
,wl-rdm,141,356552,0.0-8.7-0.7,False,,1.0,124.0,,,,,,,[],,,,,,87.9,0.0,u,0.0,True,280.6000000089407,17.0,60.0,40.0,206.06042792467193,[],"[768, 432]",ColorTask,-13.0,8.0,,,HRV,HRV_0272,2022-11-30 20:17:36
,wl-rdm,142,358835,0.0-8.8-0.8,False,,1.0,125.0,,,,,,,[],,,,,,53.2,1.0,u,0.0,False,941.7999999970198,57.0,60.0,40.0,263.7477924544804,[],"[768, 432]",ColorTask,-14.0,9.0,,,HRV,HRV_0272,2022-11-30 20:17:36
,wl-rdm,143,360485,0.0-8.9-0.9,False,,1.0,126.0,,,,,,,[],,,,,,56.4,0.0,i,1.0,False,308.0,19.0,60.0,40.0,263.9203353504918,[],"[768, 432]",ColorTask,-15.0,10.0,,,HRV,HRV_0272,2022-11-30 20:17:36
,wl-rdm,144,362301,0.0-8.10-0.10,False,,1.0,127.0,,,,,,,[],,,,,,73.6,0.0,u,0.0,True,334.90000000596046,21.0,60.0,40.0,387.52565480405104,[],"[768, 432]",ColorTask,-14.0,11.0,,,HRV,HRV_0272,2022-11-30 20:17:36
,wl-rdm,145,364284,0.0-8.11-0.11,False,,1.0,128.0,,,,,,,[],,,,,,73.6,0.0,u,0.0,True,553.2000000029802,34.0,60.0,40.0,360.8343933276083,[],"[768, 432]",ColorTask,-13.0,12.0,,,HRV,HRV_0272,2022-11-30 20:17:36
,wl-rdm,146,366234,0.0-8.12-0.12,False,,1.0,129.0,,,,,,,[],,,,,,73.6,1.0,i,1.0,True,578.2999999970198,35.0,60.0,40.0,295.19460990237945,[],"[768, 432]",ColorTask,-12.0,13.0,,,HRV,HRV_0272,2022-11-30 20:17:36
,wl-rdm,147,368151,0.0-8.13-0.13,False,,1.0,130.0,,,,,,,[],,,,,,53.2,0.0,i,1.0,False,441.5,27.0,60.0,40.0,384.22560175302965,[],"[768, 432]",ColorTask,-13.0,14.0,,,HRV,HRV_0272,2022-11-30 20:17:36
,wl-rdm,148,370333,0.0-8.14-0.14,False,,1.0,131.0,,,,,,,[],,,,,,73.6,1.0,i,1.0,True,813.2000000029802,49.0,60.0,40.0,304.06879232395704,[],"[768, 432]",ColorTask,-12.0,15.0,,,HRV,HRV_0272,2022-11-30 20:17:36
,wl-rdm,149,372233,0.0-8.15-0.15,False,,1.0,132.0,,,,,,,[],,,,,,62.5,0.0,u,0.0,True,461.80000001192093,28.0,60.0,40.0,352.04685404380376,[],"[768, 432]",ColorTask,-11.0,16.0,,,HRV,HRV_0272,2022-11-30 20:17:36
,wl-rdm,150,375133,0.0-8.16-0.16,False,,1.0,133.0,,,,,,,[],,,,,,62.5,1.0,i,1.0,True,1593.8999999910593,96.0,60.0,40.0,231.45791894063413,[],"[768, 432]",ColorTask,-10.0,17.0,,,HRV,HRV_0272,2022-11-30 20:17:36
,wl-rdm,151,377033,0.0-8.17-0.17,False,,1.0,134.0,,,,,,,[],,,,,,50.0,1.0,u,0.0,False,631.7000000029802,38.0,60.0,40.0,202.0749341623773,[],"[768, 432]",ColorTask,-11.0,18.0,,,HRV,HRV_0272,2022-11-30 20:17:36
,wl-rdm,152,379133,0.0-8.18-0.18,False,,1.0,135.0,,,,,,,[],,,,,,73.6,1.0,i,1.0,True,753.9000000059605,46.0,60.0,40.0,253.77452666964462,[],"[768, 432]",ColorTask,-10.0,19.0,,,HRV,HRV_0272,2022-11-30 20:17:36
,wl-rdm,153,381282,0.0-8.19-0.19,False,,1.0,136.0,,,,,,,[],,,,,,50.0,0.0,u,0.0,True,855.8999999910593,52.0,60.0,40.0,209.98766756750808,[],"[768, 432]",ColorTask,-9.0,20.0,,,HRV,HRV_0272,2022-11-30 20:17:36
,wl-rdm,154,383516,0.0-8.20-0.20,False,,1.0,137.0,,,,,,,[],,,,,,53.2,0.0,u,0.0,True,919.2999999970198,56.0,60.0,40.0,240.68622980949496,[],"[768, 432]",ColorTask,-8.0,21.0,,,HRV,HRV_0272,2022-11-30 20:17:36
,wl-rdm,155,385198,0.0-8.21-0.21,False,,1.0,138.0,,,,,,,[],,,,,,50.0,1.0,i,1.0,True,319.09999999403954,20.0,60.0,40.0,279.98296377029226,[],"[768, 432]",ColorTask,-7.0,22.0,,,HRV,HRV_0272,2022-11-30 20:17:36
,wl-rdm,156,386982,0.0-8.22-0.22,False,,1.0,139.0,,,,,,,[],,,,,,53.2,0.0,u,0.0,True,358.69999998807907,22.0,60.0,40.0,349.3468217827257,[],"[768, 432]",ColorTask,-6.0,23.0,,,HRV,HRV_0272,2022-11-30 20:17:36
,wl-rdm,157,388798,0.0-8.23-0.23,False,,1.0,140.0,,,,,,,[],,,,,,53.2,1.0,u,0.0,False,405.0,25.0,60.0,40.0,330.04484867816643,[],"[768, 432]",ColorTask,-7.0,24.0,,,HRV,HRV_0272,2022-11-30 20:17:36
,wl-rdm,158,390532,0.0-8.24-0.24,False,,1.0,141.0,,,,,,,[],,,,,,73.6,0.0,i,1.0,False,276.29999999701977,17.0,60.0,40.0,382.75472930277647,[],"[768, 432]",ColorTask,-8.0,25.0,,,HRV,HRV_0272,2022-11-30 20:17:36
,wl-rdm,159,392165,0.0-8.25-0.25,False,,1.0,142.0,,,,,,,[],,,,,,62.5,0.0,u,0.0,True,243.30000001192093,15.0,60.0,40.0,321.98340413364815,[],"[768, 432]",ColorTask,-7.0,26.0,,,HRV,HRV_0272,2022-11-30 20:17:36
,wl-rdm,160,393967,0.0-8.26-0.26,False,,1.0,143.0,,,,,,,[],,,,,,62.5,1.0,u,0.0,False,505.3999999910593,31.0,60.0,40.0,205.25460301047858,[],"[768, 432]",ColorTask,-8.0,27.0,,,HRV,HRV_0272,2022-11-30 20:17:36
,wl-rdm,161,395633,0.0-8.27-0.27,False,,1.0,144.0,,,,,,,[],,,,,,50.0,1.0,i,1.0,True,378.09999999403954,23.0,60.0,40.0,201.17313058742636,[],"[768, 432]",ColorTask,-7.0,28.0,,,HRV,HRV_0272,2022-11-30 20:17:36
,wl-rdm,162,397717,0.0-8.28-0.28,False,,1.0,145.0,,,,,,,[],,,,,,87.9,0.0,u,0.0,True,603.0999999940395,37.0,60.0,40.0,394.88070972182413,[],"[768, 432]",ColorTask,-6.0,29.0,,,HRV,HRV_0272,2022-11-30 20:17:36
,wl-rdm,163,399983,0.0-8.29-0.29,False,,1.0,146.0,,,,,,,[],,,,,,87.9,1.0,i,1.0,True,934.7000000029802,57.0,60.0,40.0,249.67822466447285,[],"[768, 432]",ColorTask,-5.0,30.0,,,HRV,HRV_0272,2022-11-30 20:17:36
,wl-rdm,164,403366,0.0-8.30-0.30,False,,1.0,147.0,,,,,,,[],,,,,,62.5,1.0,u,0.0,False,2096.499999985099,126.0,60.0,40.0,202.29720883603022,[],"[768, 432]",ColorTask,-6.0,31.0,,,HRV,HRV_0272,2022-11-30 20:17:36
,wl-rdm,165,406149,0.0-8.31-0.31,False,,1.0,148.0,,,,,,,[],,,,,,50.0,0.0,i,1.0,False,1318.6000000089407,80.0,60.0,40.0,381.09084438519676,[],"[768, 432]",ColorTask,-7.0,32.0,,,HRV,HRV_0272,2022-11-30 20:17:36
,wl-rdm,166,408098,0.0-8.32-0.32,False,,1.0,149.0,,,,,,,[],,,,,,87.9,0.0,u,0.0,True,505.6000000089407,31.0,60.0,40.0,350.80006283544884,[],"[768, 432]",ColorTask,-6.0,33.0,,,HRV,HRV_0272,2022-11-30 20:17:36
,wl-rdm,167,409948,0.0-8.33-0.33,False,,1.0,150.0,,,,,,,[],,,,,,87.9,0.0,u,0.0,True,531.5,32.0,60.0,40.0,254.80704019087025,[],"[768, 432]",ColorTask,-5.0,34.0,,,HRV,HRV_0272,2022-11-30 20:17:36
,wl-rdm,168,412215,0.0-8.34-0.34,False,,1.0,151.0,,,,,,,[],,,,,,56.4,1.0,i,1.0,True,952.0,58.0,60.0,40.0,243.4314333884333,[],"[768, 432]",ColorTask,-4.0,35.0,,,HRV,HRV_0272,2022-11-30 20:17:36
,wl-rdm,169,414532,0.0-8.35-0.35,False,,1.0,152.0,,,,,,,[],,,,,,53.2,1.0,u,0.0,False,852.3999999910593,52.0,60.0,40.0,374.0268825467249,[],"[768, 432]",ColorTask,-5.0,36.0,,,HRV,HRV_0272,2022-11-30 20:17:36
,wl-rdm,170,416248,0.0-8.36-0.36,False,,1.0,153.0,,,,,,,[],,,,,,50.0,0.0,i,1.0,False,348.30000001192093,21.0,60.0,40.0,295.8251270900167,[],"[768, 432]",ColorTask,-6.0,37.0,,,HRV,HRV_0272,2022-11-30 20:17:36
,wl-rdm,171,418014,0.0-8.37-0.37,False,,1.0,154.0,,,,,,,[],,,,,,56.4,0.0,u,0.0,True,384.3999999910593,24.0,60.0,40.0,283.0396359855887,[],"[768, 432]",ColorTask,-5.0,38.0,,,HRV,HRV_0272,2022-11-30 20:17:36
,wl-rdm,172,419964,0.0-8.38-0.38,False,,1.0,155.0,,,,,,,[],,,,,,56.4,1.0,u,0.0,False,655.9000000208616,40.0,60.0,40.0,214.07993269075675,[],"[768, 432]",ColorTask,-6.0,39.0,,,HRV,HRV_0272,2022-11-30 20:17:36
,wl-rdm,173,422180,0.0-8.39-0.39,False,,1.0,156.0,,,,,,,[],,,,,,53.2,0.0,u,0.0,True,877.0999999940395,53.0,60.0,40.0,260.3514311429067,[],"[768, 432]",ColorTask,-5.0,40.0,,,HRV,HRV_0272,2022-11-30 20:17:36
,wl-rdm,174,424247,0.0-8.40-0.40,False,,1.0,157.0,,,,,,,[],,,,,,62.5,0.0,u,0.0,True,671.5000000149012,41.0,60.0,40.0,317.2348599050362,[],"[768, 432]",ColorTask,-4.0,41.0,,,HRV,HRV_0272,2022-11-30 20:17:36
,wl-rdm,175,426863,0.0-8.41-0.41,False,,1.0,158.0,,,,,,,[],,,,,,53.2,1.0,i,1.0,True,1293.2999999970198,78.0,60.0,40.0,251.73364625631592,[],"[768, 432]",ColorTask,-3.0,42.0,,,HRV,HRV_0272,2022-11-30 20:17:36
,wl-rdm,176,428797,0.0-8.42-0.42,False,,1.0,159.0,,,,,,,[],,,,,,87.9,1.0,i,1.0,True,577.7000000029802,35.0,60.0,40.0,287.3883084357019,[],"[768, 432]",ColorTask,-2.0,43.0,,,HRV,HRV_0272,2022-11-30 20:17:36
,wl-rdm,177,430646,0.0-8.43-0.43,False,,1.0,160.0,,,,,,,[],,,,,,87.9,1.0,i,1.0,True,546.2000000029802,33.0,60.0,40.0,221.15510726906678,[],"[768, 432]",ColorTask,-1.0,44.0,,,HRV,HRV_0272,2022-11-30 20:17:36
,wl-rdm,178,432446,0.0-8.44-0.44,False,,1.0,161.0,,,,,,,[],,,,,,73.6,1.0,i,1.0,True,376.99999998509884,23.0,60.0,40.0,345.66945759609564,[],"[768, 432]",ColorTask,0.0,45.0,,,HRV,HRV_0272,2022-11-30 20:17:36
,wl-rdm,179,434279,0.0-8.45-0.45,False,,1.0,162.0,,,,,,,[],,,,,,87.9,0.0,u,0.0,True,540.3000000119209,33.0,60.0,40.0,227.72464113792822,[],"[768, 432]",ColorTask,1.0,46.0,,,HRV,HRV_0272,2022-11-30 20:17:36
,wl-rdm,180,436029,0.0-8.46-0.46,False,,1.0,163.0,,,,,,,[],,,,,,87.9,0.0,u,0.0,True,341.90000000596046,21.0,60.0,40.0,323.6618223870223,[],"[768, 432]",ColorTask,2.0,47.0,,,HRV,HRV_0272,2022-11-30 20:17:36
,wl-rdm,181,438145,0.0-8.47-0.47,False,,1.0,164.0,,,,,,,[],,,,,,53.2,0.0,i,1.0,False,764.1000000089407,46.0,60.0,40.0,270.78455222855996,[],"[768, 432]",ColorTask,1.0,48.0,,,HRV,HRV_0272,2022-11-30 20:17:36
,wl-rdm,182,440062,0.0-8.48-0.48,False,,1.0,165.0,,,,,,,[],,,,,,62.5,1.0,u,0.0,False,605.5999999940395,37.0,60.0,40.0,230.96671809467819,[],"[768, 432]",ColorTask,0.0,49.0,,,HRV,HRV_0272,2022-11-30 20:17:36
,wl-rdm,183,442495,0.0-8.49-0.49,False,,1.0,166.0,,,,,,,[],,,,,,56.4,1.0,u,0.0,False,1120.7999999970198,68.0,60.0,40.0,221.62282575536807,[],"[768, 432]",ColorTask,-1.0,50.0,,,HRV,HRV_0272,2022-11-30 20:17:36
,wl-rdm,184,444411,0.0-8.50-0.50,False,,1.0,167.0,,,,,,,[],,,,,,56.4,0.0,i,1.0,False,468.20000000298023,29.0,60.0,40.0,350.5863323799297,[],"[768, 432]",ColorTask,-2.0,51.0,,,HRV,HRV_0272,2022-11-30 20:17:36
,wl-rdm,185,446461,0.0-8.51-0.51,False,,1.0,168.0,,,,,,,[],,,,,,56.4,1.0,u,0.0,False,757.5,46.0,60.0,40.0,217.2649833080408,[],"[768, 432]",ColorTask,-3.0,52.0,,,HRV,HRV_0272,2022-11-30 20:17:36
,wl-rdm,186,447894,0.0-8.52-0.52,True,too_early ,1.0,168.0,,,,,,,[],,,,,,53.2,1.0,i,1.0,True,96.40000000596046,6.0,60.0,40.0,264.74678781070736,[],"[768, 432]",ColorTask,-2.0,53.0,,,HRV,HRV_0272,2022-11-30 20:17:36
,wl-rdm,187,449827,0.0-8.53-0.53,False,,1.0,169.0,,,,,,,[],,,,,,73.6,0.0,u,0.0,True,533.0999999940395,32.0,60.0,40.0,321.2767753321393,[],"[768, 432]",ColorTask,-1.0,54.0,,,HRV,HRV_0272,2022-11-30 20:17:36
,wl-rdm,188,451744,0.0-8.54-0.54,False,,1.0,170.0,,,,,,,[],,,,,,87.9,1.0,i,1.0,True,555.6000000089407,34.0,60.0,40.0,287.85721390622666,[],"[768, 432]",ColorTask,0.0,55.0,,,HRV,HRV_0272,2022-11-30 20:17:36
,wl-rdm,189,453858,0.0-8.55-0.55,False,,1.0,171.0,,,,,,,[],,,,,,73.6,1.0,i,1.0,True,647.6000000089407,39.0,60.0,40.0,390.560745443865,[],"[768, 432]",ColorTask,1.0,56.0,,,HRV,HRV_0272,2022-11-30 20:17:36
,wl-rdm,190,457825,0.0-8.56-0.56,False,,1.0,172.0,,,,,,,[],,,,,,62.5,0.0,i,1.0,False,2659.1000000089407,160.0,60.0,40.0,225.66475988612177,[],"[768, 432]",ColorTask,0.0,57.0,,,HRV,HRV_0272,2022-11-30 20:17:36
,wl-rdm,191,459674,0.0-8.57-0.57,False,,1.0,173.0,,,,,,,[],,,,,,53.2,1.0,u,0.0,False,451.3999999910593,28.0,60.0,40.0,314.7717440831551,[],"[768, 432]",ColorTask,-1.0,58.0,,,HRV,HRV_0272,2022-11-30 20:17:36
,wl-rdm,192,461024,0.0-8.58-0.58,True,too_early ,1.0,173.0,,,,,,,[],,,,,,53.2,1.0,i,,,809.7000000029802,0.0,60.0,40.0,315.4195451593582,[],"[768, 432]",ColorTask,-2.0,59.0,,,HRV,HRV_0272,2022-11-30 20:17:36
,wl-rdm,193,462757,0.0-8.59-0.59,False,,1.0,174.0,,,,,,,[],,,,,,50.0,0.0,i,1.0,False,393.1000000089407,24.0,60.0,40.0,259.86911416038726,[],"[768, 432]",ColorTask,-3.0,60.0,,,HRV,HRV_0272,2022-11-30 20:17:36
,wl-rdm,194,464440,0.0-8.60-0.60,False,,1.0,175.0,,,,,,,[],,,,,,56.4,1.0,u,0.0,False,250.59999999403954,16.0,60.0,40.0,355.8561919201595,[],"[768, 432]",ColorTask,-4.0,61.0,,,HRV,HRV_0272,2022-11-30 20:17:36
,wl-rdm,195,466223,0.0-8.61-0.61,False,,1.0,176.0,,,,,,,[],,,,,,56.4,1.0,i,1.0,True,438.89999997615814,27.0,60.0,40.0,251.2322076604147,[],"[768, 432]",ColorTask,-3.0,62.0,,,HRV,HRV_0272,2022-11-30 20:17:36
,wl-rdm,196,467973,0.0-8.62-0.62,False,,1.0,177.0,,,,,,,[],,,,,,53.2,1.0,i,1.0,True,451.20000000298023,28.0,60.0,40.0,207.20068643595772,[],"[768, 432]",ColorTask,-2.0,63.0,,,HRV,HRV_0272,2022-11-30 20:17:36
,wl-rdm,197,470023,0.0-8.63-0.63,False,,1.0,178.0,,,,,,,[],,,,,,50.0,0.0,u,0.0,True,723.0999999940395,44.0,60.0,40.0,248.60396648203033,[],"[768, 432]",ColorTask,-1.0,64.0,,,HRV,HRV_0272,2022-11-30 20:17:36
,wl-rdm,198,472006,0.0-8.64-0.64,False,,1.0,179.0,,,,,,,[],,,,,,62.5,0.0,i,1.0,False,677.2000000178814,41.0,60.0,40.0,228.00989079048065,[],"[768, 432]",ColorTask,-2.0,65.0,,,HRV,HRV_0272,2022-11-30 20:17:36
,wl-rdm,199,473789,0.0-8.65-0.65,False,,1.0,180.0,,,,,,,[],,,,,,62.5,0.0,u,0.0,True,487.5,30.0,60.0,40.0,232.60328409819357,[],"[768, 432]",ColorTask,-1.0,66.0,,,HRV,HRV_0272,2022-11-30 20:17:36
,wl-rdm,200,476122,0.0-8.66-0.66,False,,1.0,181.0,,,,,,,[],,,,,,50.0,1.0,i,1.0,True,881.6000000089407,53.0,60.0,40.0,385.5072722123226,[],"[768, 432]",ColorTask,0.0,67.0,,,HRV,HRV_0272,2022-11-30 20:17:36
,wl-rdm,201,478505,0.0-8.67-0.67,False,,1.0,182.0,,,,,,,[],,,,,,62.5,1.0,u,0.0,False,1033.0999999940395,62.0,60.0,40.0,289.9262069975826,[],"[768, 432]",ColorTask,-1.0,68.0,,,HRV,HRV_0272,2022-11-30 20:17:36
,wl-rdm,202,480305,0.0-8.68-0.68,False,,1.0,183.0,,,,,,,[],,,,,,62.5,1.0,i,1.0,True,322.49999998509884,20.0,60.0,40.0,388.75132420672816,[],"[768, 432]",ColorTask,0.0,69.0,,,HRV,HRV_0272,2022-11-30 20:17:36
,wl-rdm,203,482138,0.0-8.69-0.69,False,,1.0,184.0,,,,,,,[],,,,,,53.2,1.0,i,1.0,True,472.5,29.0,60.0,40.0,282.63145261803413,[],"[768, 432]",ColorTask,1.0,70.0,,,HRV,HRV_0272,2022-11-30 20:17:36
,wl-rdm,204,483655,0.0-8.70-0.70,False,,1.0,185.0,,,,,,,[],,,,,,50.0,1.0,i,1.0,True,207.29999999701977,13.0,60.0,40.0,232.46493741451786,[],"[768, 432]",ColorTask,2.0,71.0,,,HRV,HRV_0272,2022-11-30 20:17:36
,wl-rdm,205,485738,0.0-8.71-0.71,False,,1.0,186.0,,,,,,,[],,,,,,73.6,0.0,i,1.0,False,778.7999999970198,47.0,60.0,40.0,225.82753153749684,[],"[768, 432]",ColorTask,1.0,72.0,,,HRV,HRV_0272,2022-11-30 20:17:36
,wl-rdm,206,486871,0.0-8.72-0.72,True,too_early ,1.0,186.0,,,,,,,[],,,,,,87.9,1.0,u,,,595.3000000119209,0.0,60.0,40.0,289.5758902189351,[],"[768, 432]",ColorTask,0.0,73.0,,,HRV,HRV_0272,2022-11-30 20:17:36
,wl-rdm,207,488505,0.0-8.73-0.73,False,,1.0,187.0,,,,,,,[],,,,,,73.6,1.0,i,1.0,True,242.40000000596046,15.0,60.0,40.0,318.4820773560474,[],"[768, 432]",ColorTask,1.0,74.0,,,HRV,HRV_0272,2022-11-30 20:17:36
,wl-rdm,208,490188,0.0-8.74-0.74,False,,1.0,188.0,,,,,,,[],,,,,,56.4,0.0,u,0.0,True,345.5,21.0,60.0,40.0,262.5152774358617,[],"[768, 432]",ColorTask,2.0,75.0,,,HRV,HRV_0272,2022-11-30 20:17:36
,wl-rdm,209,491637,0.0-8.75-0.75,False,,1.0,189.0,,,,,,,[],,,,,,73.6,1.0,i,1.0,True,116.5,7.0,60.0,40.0,249.9119089983012,[],"[768, 432]",ColorTask,3.0,76.0,,,HRV,HRV_0272,2022-11-30 20:17:36
,wl-rdm,210,493637,0.0-8.76-0.76,False,,1.0,190.0,,,,,,,[],,,,,,73.6,0.0,u,0.0,True,612.0,37.0,60.0,40.0,306.615960483581,[],"[768, 432]",ColorTask,4.0,77.0,,,HRV,HRV_0272,2022-11-30 20:17:36
,wl-rdm,211,495437,0.0-8.77-0.77,False,,1.0,191.0,,,,,,,[],,,,,,50.0,1.0,i,1.0,True,490.20000000298023,30.0,60.0,40.0,223.98059636056593,[],"[768, 432]",ColorTask,5.0,78.0,,,HRV,HRV_0272,2022-11-30 20:17:36
,wl-rdm,212,497370,0.0-8.78-0.78,False,,1.0,192.0,,,,,,,[],,,,,,87.9,0.0,u,0.0,True,643.2999999970198,39.0,60.0,40.0,200.4632186781337,[],"[768, 432]",ColorTask,6.0,79.0,,,HRV,HRV_0272,2022-11-30 20:17:36
,wl-rdm,213,499470,0.0-8.79-0.79,False,,1.0,193.0,,,,,,,[],,,,,,73.6,0.0,u,0.0,True,709.4000000059605,43.0,60.0,40.0,301.8724247064867,[],"[768, 432]",ColorTask,7.0,80.0,,,HRV,HRV_0272,2022-11-30 20:17:36
,wl-rdm,214,501520,0.0-8.80-0.80,False,,1.0,194.0,,,,,,,[],,,,,,56.4,0.0,i,1.0,False,651.5,40.0,60.0,40.0,310.320479032205,[],"[768, 432]",ColorTask,6.0,81.0,,,HRV,HRV_0272,2022-11-30 20:17:36
,wl-rdm,215,502920,0.0-8.81-0.81,True,too_early ,1.0,194.0,,,,,,,[],,,,,,56.4,1.0,u,0.0,False,39.0,3.0,60.0,40.0,277.53155960723535,[],"[768, 432]",ColorTask,5.0,82.0,,,HRV,HRV_0272,2022-11-30 20:17:36
,wl-rdm,216,504752,0.0-8.82-0.82,False,,1.0,195.0,,,,,,,[],,,,,,56.4,0.0,u,0.0,True,473.8999999910593,29.0,60.0,40.0,293.7577642291791,[],"[768, 432]",ColorTask,6.0,83.0,,,HRV,HRV_0272,2022-11-30 20:17:36
,wl-rdm,217,506669,0.0-8.83-0.83,False,,1.0,196.0,,,,,,,[],,,,,,73.6,0.0,u,0.0,True,536.5,33.0,60.0,40.0,300.85653330837744,[],"[768, 432]",ColorTask,7.0,84.0,,,HRV,HRV_0272,2022-11-30 20:17:36
,wl-rdm,218,508886,0.0-8.84-0.84,False,,1.0,197.0,,,,,,,[],,,,,,62.5,0.0,u,0.0,True,780.6000000089407,47.0,60.0,40.0,371.33882185651873,[],"[768, 432]",ColorTask,8.0,85.0,,,HRV,HRV_0272,2022-11-30 20:17:36
,wl-rdm,219,510735,0.0-8.85-0.85,False,,1.0,198.0,,,,,,,[],,,,,,87.9,1.0,u,0.0,False,488.8999999910593,30.0,60.0,40.0,279.12426670749693,[],"[768, 432]",ColorTask,7.0,86.0,,,HRV,HRV_0272,2022-11-30 20:17:36
,wl-rdm,220,512952,0.0-8.86-0.86,False,,1.0,199.0,,,,,,,[],,,,,,62.5,1.0,u,0.0,False,888.8000000119209,54.0,60.0,40.0,264.36806267042346,[],"[768, 432]",ColorTask,6.0,87.0,,,HRV,HRV_0272,2022-11-30 20:17:36
,wl-rdm,221,514886,0.0-8.87-0.87,False,,1.0,200.0,,,,,,,[],,,,,,53.2,1.0,i,1.0,True,592.2000000029802,36.0,60.0,40.0,264.6913693380315,[],"[768, 432]",ColorTask,7.0,88.0,,,HRV,HRV_0272,2022-11-30 20:17:36
,wl-rdm,222,516853,0.0-8.88-0.88,False,,1.0,201.0,,,,,,,[],,,,,,56.4,0.0,u,0.0,True,654.5999999940395,40.0,60.0,40.0,226.19097372093518,[],"[768, 432]",ColorTask,8.0,89.0,,,HRV,HRV_0272,2022-11-30 20:17:36
,wl-rdm,223,518802,0.0-8.89-0.89,False,,1.0,202.0,,,,,,,[],,,,,,53.2,0.0,i,1.0,False,602.4000000059605,37.0,60.0,40.0,281.06662549713485,[],"[768, 432]",ColorTask,7.0,90.0,,,HRV,HRV_0272,2022-11-30 20:17:36
,wl-rdm,224,520536,0.0-8.90-0.90,False,,1.0,203.0,,,,,,,[],,,,,,56.4,1.0,u,0.0,False,286.8999999910593,18.0,60.0,40.0,364.01797334406376,[],"[768, 432]",ColorTask,6.0,91.0,,,HRV,HRV_0272,2022-11-30 20:17:36
,wl-rdm,225,522036,0.0-8.91-0.91,False,,1.0,204.0,,,,,,,[],,,,,,73.6,1.0,i,1.0,True,216.40000000596046,13.0,60.0,40.0,200.0675793047605,[],"[768, 432]",ColorTask,7.0,92.0,,,HRV,HRV_0272,2022-11-30 20:17:36
,wl-rdm,226,523852,0.0-8.92-0.92,False,,1.0,205.0,,,,,,,[],,,,,,53.2,0.0,i,1.0,False,395.70000000298023,24.0,60.0,40.0,349.48343933481203,[],"[768, 432]",ColorTask,6.0,93.0,,,HRV,HRV_0272,2022-11-30 20:17:36
,wl-rdm,227,525552,0.0-8.93-0.93,False,,1.0,206.0,,,,,,,[],,,,,,50.0,1.0,u,0.0,False,282.3999999910593,17.0,60.0,40.0,352.51463966375735,[],"[768, 432]",ColorTask,5.0,94.0,,,HRV,HRV_0272,2022-11-30 20:17:36
,wl-rdm,228,527252,0.0-8.94-0.94,False,,1.0,207.0,,,,,,,[],,,,,,62.5,0.0,i,1.0,False,333.79999999701977,21.0,60.0,40.0,271.23455670139674,[],"[768, 432]",ColorTask,4.0,95.0,,,HRV,HRV_0272,2022-11-30 20:17:36
,wl-rdm,229,529251,0.0-8.95-0.95,False,,1.0,208.0,,,,,,,[],,,,,,62.5,0.0,i,1.0,False,594.5999999940395,36.0,60.0,40.0,321.78973913632694,[],"[768, 432]",ColorTask,3.0,96.0,,,HRV,HRV_0272,2022-11-30 20:17:36
,wl-rdm,230,530985,0.0-8.96-0.96,False,,1.0,209.0,,,,,,,[],,,,,,87.9,1.0,u,0.0,False,305.5,19.0,60.0,40.0,334.9342372635299,[],"[768, 432]",ColorTask,2.0,97.0,,,HRV,HRV_0272,2022-11-30 20:17:36
,wl-rdm,231,532917,0.0-8.97-0.97,False,,1.0,210.0,,,,,,,[],,,,,,87.9,0.0,u,0.0,True,602.2000000178814,37.0,60.0,40.0,248.90428999832935,[],"[768, 432]",ColorTask,3.0,98.0,,,HRV,HRV_0272,2022-11-30 20:17:36
,wl-rdm,232,534768,0.0-8.98-0.98,False,,1.0,211.0,,,,,,,[],,,,,,87.9,1.0,i,1.0,True,565.7999999970198,34.0,60.0,40.0,230.50158871309645,[],"[768, 432]",ColorTask,4.0,99.0,,,HRV,HRV_0272,2022-11-30 20:17:36
,wl-rdm,233,536900,0.0-8.99-0.99,False,,1.0,212.0,,,,,,,[],,,,,,50.0,0.0,u,0.0,True,831.6000000089407,50.0,60.0,40.0,231.64641199758677,[],"[768, 432]",ColorTask,5.0,100.0,,,HRV,HRV_0272,2022-11-30 20:17:36
,wl-rdm,234,539150,0.0-8.100-0.100,False,,1.0,213.0,,,,,,,[],,,,,,50.0,1.0,u,0.0,False,774.1000000089407,47.0,60.0,40.0,386.0821099538519,[],"[768, 432]",ColorTask,4.0,101.0,,,HRV,HRV_0272,2022-11-30 20:17:36
,wl-rdm,235,540983,0.0-8.101-0.101,False,,1.0,214.0,,,,,,,[],,,,,,73.6,0.0,i,1.0,False,484.40000000596046,29.0,60.0,40.0,268.8347266136058,[],"[768, 432]",ColorTask,3.0,102.0,,,HRV,HRV_0272,2022-11-30 20:17:36
,wl-rdm,236,543916,0.0-8.102-0.102,False,,1.0,215.0,,,,,,,[],,,,,,50.0,1.0,i,1.0,True,1501.5999999940395,91.0,60.0,40.0,348.4867876685716,[],"[768, 432]",ColorTask,4.0,103.0,,,HRV,HRV_0272,2022-11-30 20:17:36
,wl-rdm,237,546133,0.0-8.103-0.103,False,,1.0,216.0,,,,,,,[],,,,,,56.4,1.0,i,1.0,True,875.4000000059605,53.0,60.0,40.0,279.27243683279124,[],"[768, 432]",ColorTask,5.0,104.0,,,HRV,HRV_0272,2022-11-30 20:17:36
,wl-rdm,238,548366,0.0-8.104-0.104,False,,1.0,217.0,,,,,,,[],,,,,,50.0,0.0,u,0.0,True,912.0,55.0,60.0,40.0,264.4221987656285,[],"[768, 432]",ColorTask,6.0,105.0,,,HRV,HRV_0272,2022-11-30 20:17:36
,wl-rdm,239,550383,0.0-8.105-0.105,False,,1.0,218.0,,,,,,,[],,,,,,62.5,1.0,u,0.0,False,705.6000000089407,43.0,60.0,40.0,222.1975627274062,[],"[768, 432]",ColorTask,5.0,106.0,,,HRV,HRV_0272,2022-11-30 20:17:36
,wl-rdm,240,552049,0.0-8.106-0.106,False,,1.0,219.0,,,,,,,[],,,,,,53.2,1.0,i,1.0,True,326.2999999821186,20.0,60.0,40.0,263.1226844539818,[],"[768, 432]",ColorTask,6.0,107.0,,,HRV,HRV_0272,2022-11-30 20:17:36
,wl-rdm,241,554115,0.0-8.107-0.107,False,,1.0,220.0,,,,,,,[],,,,,,56.4,0.0,u,0.0,True,609.2999999970198,37.0,60.0,40.0,391.2997750492777,[],"[768, 432]",ColorTask,7.0,108.0,,,HRV,HRV_0272,2022-11-30 20:17:36
,wl-rdm,242,556115,0.0-8.108-0.108,False,,1.0,221.0,,,,,,,[],,,,,,56.4,0.0,i,1.0,False,621.0,38.0,60.0,40.0,295.1172520633712,[],"[768, 432]",ColorTask,6.0,109.0,,,HRV,HRV_0272,2022-11-30 20:17:36
,wl-rdm,243,557798,0.0-8.109-0.109,False,,1.0,222.0,,,,,,,[],,,,,,50.0,0.0,u,0.0,True,356.20000000298023,22.0,60.0,40.0,245.89008392199372,[],"[768, 432]",ColorTask,7.0,110.0,,,HRV,HRV_0272,2022-11-30 20:17:36
,wl-rdm,244,559698,0.0-8.110-0.110,False,,1.0,223.0,,,,,,,[],,,,,,87.9,1.0,i,1.0,True,556.7000000029802,34.0,60.0,40.0,265.67838232252495,[],"[768, 432]",ColorTask,8.0,111.0,,,HRV,HRV_0272,2022-11-30 20:17:36
,wl-rdm,245,561731,0.0-8.111-0.111,False,,1.0,224.0,,,,,,,[],,,,,,56.4,1.0,u,0.0,False,700.7999999970198,43.0,60.0,40.0,265.47056023386386,[],"[768, 432]",ColorTask,7.0,112.0,,,HRV,HRV_0272,2022-11-30 20:17:36
,wl-html-button-response,246,564695,0.0-9.0-0.0,,,,,,,,,,,,2957.2000000029802,,0,,,,,,,,,,,,,,,,,,<h3>End of this session. Thank you!</h3><br>,['Close window'],HRV,HRV_0272,2022-11-30 20:17:36
