success,trial_type,trial_index,time_elapsed,internal_node_id,Block,TrialNumber,TrialTime,trialTimeDiff,FPS_avg,FPS_med,FPS_mode,TrialDur,winResizeTime,rt,block,button_pressed,MotCoh,MotDir,ColCoh,Color,ChoiceKey,Choice,Accuracy,RT,nFrames,FPS,PPD,missTrial,missTrialMsg,onsetDelay,fullScreenExitTime,canvCenter,TrialType,Score,BlockTrial,stimulus,button_labels,exp,subjectId,date
True,fullscreen,0,38577,0.0-0.0,0.0,1.0,,,,,,,,,,,,,,,,,,,,,,,,,,,,,,,,HRV,HRV_0146,2022-11-30 18:17:06
,wl-check-fps,1,43647,0.0-1.0,0.0,2.0,"[39372.1, 39373.8, 39376, 39391.9, 39408.6, 39425.7, 39441.8, 39458.5, 39475.2, 39491.9, 39509.4, 39525.4, 39541.9, 39558.6, 39575.2, 39591.5, 39608.5, 39624.9, 39641.7, 39659.1, 39676, 39691.9, 39708.8, 39725, 39742.7, 39758.9, 39774.4, 39794, 39810.6, 39826.1, 39843.7, 39860.6, 39876.8, 39892.2, 39916.4, 39928.7, 39943.5, 39959.3, 39975.4, 39992.9, 40008.9, 40025.2, 40041.8, 40058.6, 40075.2, 40092.5, 40108.5, 40124.8, 40141.6, 40158.5, 40174.9, 40191.7, 40208.7, 40225.8, 40242.7, 40258.5, 40275.7, 40291.5, 40308.6, 40325, 40341.8, 40358.3, 40375.2, 40391.8, 40408.1, 40424.9, 40441.8, 40459, 40475.2, 40491.8, 40508.3, 40526.7, 40542.1, 40558.4, 40575.2, 40592, 40608.4, 40625.3, 40642.5, 40658.4, 40675.2, 40692.2, 40708.4, 40725.1, 40741.7, 40759, 40774.9, 40791.8, 40808.8, 40825.2, 40841.9, 40858.2, 40875, 40891.9, 40908.5, 40924.6, 40941.6, 40958.4, 40975.1, 40991.8, 41008.6, 41026.3, 41043.4, 41059.7, 41075.4, 41091.7, 41108.5, 41124.8, 41141.8, 41158, 41175.3, 41191, 41208.4, 41225.3, 41241.2, 41258.5, 41274.8, 41291.9, 41308.1, 41326.2, 41341.7, 41359.1, 41376.9, 41391.9, 41408.8, 41424.8, 41442.3, 41458.2, 41475.3, 41491.9, 41509, 41525.2, 41542.6, 41559.4, 41574.7, 41591.7, 41608.6, 41626.1, 41641.9, 41658.9, 41676.3, 41691.5, 41707.8, 41726.4, 41741.9, 41758.5, 41775.5, 41791.8, 41808.7, 41826.6, 41841.9, 41858.4, 41876, 41891.8, 41910.4, 41941.2, 41943.2, 41957.7, 41975.1, 41992, 42010.2, 42025.4, 42042.4, 42058.7, 42075.4, 42092, 42108.9, 42125.7, 42142, 42158.7, 42175.4, 42192.3, 42208.8, 42225.7, 42241.6, 42258.9, 42275.1, 42292, 42308.7, 42325.6, 42342, 42358.8, 42375.1, 42392.3, 42408.7, 42425.4, 42441.9, 42458.7, 42475.7, 42492, 42508.7, 42526.1, 42542, 42558.7, 42575.4, 42591.5, 42608.8, 42625.3, 42641.9, 42658.7, 42675.4, 42691.6, 42708.2, 42726.1, 42742.7, 42758.7, 42775.5, 42792, 42810.4, 42825.3, 42842.2, 42858.7, 42875.4, 42892, 42909.5, 42924.9, 42941.7, 42958.7, 42976.1, 42991.6, 43008.6, 43025.5, 43042.1, 43059.1, 43077.3, 43094.1, 43110, 43124.4, 43141.8, 43158.2, 43175.4, 43192.8, 43208.9, 43225.3, 43242, 43259.1, 43275.8, 43292.2, 43310, 43325.9, 43341.7, 43361.9, 43375.4, 43392, 43413.8, 43426.2, 43442, 43459.5, 43475.3, 43492.1, 43508.8, 43525.7, 43542.4, 43559, 43576.4, 43591.7, 43608.8, 43625.2, 43642, 43661.7, 43674.9, 43691.6, 43712.5, 43725.5, 43741.5, 43762, 43775.3, 43792.2, 43811.3, 43825.3, 43841.7, 43862.6, 43875.4, 43892.1, 43912.1, 43925.2, 43944.5, 43962.7, 43975.3, 43992.1, 44009.8, 44025.4, 44042.3, 44058.6, 44075.4, 44092.1, 44108.8, 44125.4, 44141.6, 44158.2, 44174.9, 44192.4, 44208.8, 44225.1, 44242.2, 44259.6, 44275.8, 44292.7, 44309.6, 44325]","[92.2, 1.7, 2.2, 15.9, 16.7, 17.1, 16.1, 16.7, 16.7, 16.7, 17.5, 16, 16.5, 16.7, 16.6, 16.3, 17, 16.4, 16.8, 17.4, 16.9, 15.9, 16.9, 16.2, 17.7, 16.2, 15.5, 19.6, 16.6, 15.5, 17.6, 16.9, 16.2, 15.4, 24.2, 12.3, 14.8, 15.8, 16.1, 17.5, 16, 16.3, 16.6, 16.8, 16.6, 17.3, 16, 16.3, 16.8, 16.9, 16.4, 16.8, 17, 17.1, 16.9, 15.8, 17.2, 15.8, 17.1, 16.4, 16.8, 16.5, 16.9, 16.6, 16.3, 16.8, 16.9, 17.2, 16.2, 16.6, 16.5, 18.4, 15.4, 16.3, 16.8, 16.8, 16.4, 16.9, 17.2, 15.9, 16.8, 17, 16.2, 16.7, 16.6, 17.3, 15.9, 16.9, 17, 16.4, 16.7, 16.3, 16.8, 16.9, 16.6, 16.1, 17, 16.8, 16.7, 16.7, 16.8, 17.7, 17.1, 16.3, 15.7, 16.3, 16.8, 16.3, 17, 16.2, 17.3, 15.7, 17.4, 16.9, 15.9, 17.3, 16.3, 17.1, 16.2, 18.1, 15.5, 17.4, 17.8, 15, 16.9, 16, 17.5, 15.9, 17.1, 16.6, 17.1, 16.2, 17.4, 16.8, 15.3, 17, 16.9, 17.5, 15.8, 17, 17.4, 15.2, 16.3, 18.6, 15.5, 16.6, 17, 16.3, 16.9, 17.9, 15.3, 16.5, 17.6, 15.8, 18.6, 30.8, 2, 14.5, 17.4, 16.9, 18.2, 15.2, 17, 16.3, 16.7, 16.6, 16.9, 16.8, 16.3, 16.7, 16.7, 16.9, 16.5, 16.9, 15.9, 17.3, 16.2, 16.9, 16.7, 16.9, 16.4, 16.8, 16.3, 17.2, 16.4, 16.7, 16.5, 16.8, 17, 16.3, 16.7, 17.4, 15.9, 16.7, 16.7, 16.1, 17.3, 16.5, 16.6, 16.8, 16.7, 16.2, 16.6, 17.9, 16.6, 16, 16.8, 16.5, 18.4, 14.9, 16.9, 16.5, 16.7, 16.6, 17.5, 15.4, 16.8, 17, 17.4, 15.5, 17, 16.9, 16.6, 17, 18.2, 16.8, 15.9, 14.4, 17.4, 16.4, 17.2, 17.4, 16.1, 16.4, 16.7, 17.1, 16.7, 16.4, 17.8, 15.9, 15.8, 20.2, 13.5, 16.6, 21.8, 12.4, 15.8, 17.5, 15.8, 16.8, 16.7, 16.9, 16.7, 16.6, 17.4, 15.3, 17.1, 16.4, 16.8, 19.7, 13.2, 16.7, 20.9, 13, 16, 20.5, 13.3, 16.9, 19.1, 14, 16.4, 20.9, 12.8, 16.7, 20, 13.1, 19.3, 18.2, 12.6, 16.8, 17.7, 15.6, 16.9, 16.3, 16.8, 16.7, 16.7, 16.6, 16.2, 16.6, 16.7, 17.5, 16.4, 16.3, 17.1, 17.4, 16.2, 16.9, 16.9, 15.4]",59.0,60.0,60.0,5062.2,[],,,,,,,,,,,,,,,,,,,,,,,,,HRV,HRV_0146,2022-11-30 18:17:06
,wl-html-keyboard-response,2,52010,0.0-2.0-0.0,0.0,3.0,,,,,,,,6353.599999964237,0.0,0,,,,,,,,,,,,,,,,,,,,,,HRV,HRV_0146,2022-11-30 18:17:06
,wl-rdm,3,70097,0.0-3.0-0.0,0.0,4.0,,,,,,,[],,,,0.0,0.0,87.9,0.0,u,0.0,True,1409.199999988079,85.0,60.0,40.0,False,too_early too_early too_early ,3000.0,[],"[683, 384]",ColorTask_Demo,,,,,HRV,HRV_0146,2022-11-30 18:17:06
,wl-rdm,4,75445,0.0-3.0-1.0,0.0,5.0,,,,,,,[],,,,0.0,0.0,87.9,1.0,i,1.0,True,1244.9999999403954,75.0,60.0,40.0,False,,2000.0,[],"[683, 384]",ColorTask_Demo,,,,,HRV,HRV_0146,2022-11-30 18:17:06
,wl-html-keyboard-response,5,81019,0.0-3.0-2.0,0.0,6.0,,,,,,,,3569.199999988079,0.0,1,,,,,,,,,,,,,,,,,,,,,,HRV,HRV_0146,2022-11-30 18:17:06
,wl-html-keyboard-response,6,89093,0.0-4.0-0.0,0.0,7.0,,,,,,,,6068.600000023842,0.0,0,,,,,,,,,,,,,,,,,,,,,,HRV,HRV_0146,2022-11-30 18:17:06
,wl-html-keyboard-response,7,131900,0.0-5.0-0.0,0.0,8.0,,,,,,,,40800.0,0.0,0,,,,,,,,,,,,,,,,,,,,,,HRV,HRV_0146,2022-11-30 18:17:06
,wl-rdm,8,135132,0.0-6.0-0.0,0.0,9.0,,,,,,,[],,,,,,87.9,1.0,u,0.0,False,1938.300000011921,117.0,60.0,40.0,False,,219.65052672579623,[],"[683, 384]",ColorTask,-1.0,1.0,,,HRV,HRV_0146,2022-11-30 18:17:06
,wl-rdm,9,138614,0.0-6.1-0.1,0.0,10.0,,,,,,,[],,,,,,62.5,0.0,i,1.0,False,2156.099999964237,129.0,60.0,40.0,False,,242.49365714683415,[],"[683, 384]",ColorTask,-2.0,2.0,,,HRV,HRV_0146,2022-11-30 18:17:06
,wl-rdm,10,142248,0.0-6.2-0.2,0.0,11.0,,,,,,,[],,,,,,73.6,1.0,u,0.0,False,2353.900000035763,142.0,60.0,40.0,False,,204.18570365049706,[],"[683, 384]",ColorTask,-3.0,3.0,,,HRV,HRV_0146,2022-11-30 18:17:06
,wl-rdm,11,145331,0.0-6.3-0.3,0.0,12.0,,,,,,,[],,,,,,62.5,0.0,i,1.0,False,1724.4999999403954,103.0,60.0,40.0,False,,283.9504481955952,[],"[683, 384]",ColorTask,-4.0,4.0,,,HRV,HRV_0146,2022-11-30 18:17:06
,wl-rdm,12,148781,0.0-6.4-0.4,0.0,13.0,,,,,,,[],,,,,,53.2,0.0,u,0.0,True,2112.599999964237,126.0,60.0,40.0,False,,252.5892241534787,[],"[683, 384]",ColorTask,-3.0,5.0,,,HRV,HRV_0146,2022-11-30 18:17:06
,wl-rdm,13,152631,0.0-6.5-0.5,0.0,14.0,,,,,,,[],,,,,,87.9,1.0,u,0.0,False,2525.699999988079,152.0,60.0,40.0,False,,262.41887479931984,[],"[683, 384]",ColorTask,-4.0,6.0,,,HRV,HRV_0146,2022-11-30 18:17:06
,wl-rdm,14,155747,0.0-6.6-0.6,0.0,15.0,,,,,,,[],,,,,,50.0,1.0,i,1.0,True,1778.5,107.0,60.0,40.0,False,,280.03878004069884,[],"[683, 384]",ColorTask,-3.0,7.0,,,HRV,HRV_0146,2022-11-30 18:17:06
,wl-rdm,15,158748,0.0-6.7-0.7,0.0,16.0,,,,,,,[],,,,,,73.6,0.0,i,1.0,False,1721.9000000357628,103.0,60.0,40.0,False,,206.29079427373802,[],"[683, 384]",ColorTask,-4.0,8.0,,,HRV,HRV_0146,2022-11-30 18:17:06
,wl-rdm,16,161466,0.0-6.8-0.8,0.0,17.0,,,,,,,[],,,,,,73.6,0.0,i,1.0,False,1288.699999988079,77.0,60.0,40.0,False,,343.5709966892585,[],"[683, 384]",ColorTask,-5.0,9.0,,,HRV,HRV_0146,2022-11-30 18:17:06
,wl-rdm,17,164248,0.0-6.9-0.9,0.0,18.0,,,,,,,[],,,,,,62.5,1.0,i,1.0,True,1397.300000011921,84.0,60.0,40.0,False,,327.07797111190587,[],"[683, 384]",ColorTask,-4.0,10.0,,,HRV,HRV_0146,2022-11-30 18:17:06
,wl-rdm,18,167048,0.0-6.10-0.10,0.0,19.0,,,,,,,[],,,,,,62.5,0.0,i,1.0,False,1443.800000011921,85.0,60.0,40.0,False,,284.20240013942004,[],"[683, 384]",ColorTask,-5.0,11.0,,,HRV,HRV_0146,2022-11-30 18:17:06
,wl-rdm,19,170099,0.0-6.11-0.11,0.0,20.0,,,,,,,[],,,,,,50.0,0.0,u,0.0,True,1771.1999999284744,107.0,60.0,40.0,False,,206.5285640972856,[],"[683, 384]",ColorTask,-4.0,12.0,,,HRV,HRV_0146,2022-11-30 18:17:06
,wl-rdm,20,172916,0.0-6.12-0.12,0.0,21.0,,,,,,,[],,,,,,73.6,1.0,i,1.0,True,1457.199999988079,88.0,60.0,40.0,False,,270.8636378749266,[],"[683, 384]",ColorTask,-3.0,13.0,,,HRV,HRV_0146,2022-11-30 18:17:06
,wl-rdm,21,175315,0.0-6.13-0.13,0.0,22.0,,,,,,,[],,,,,,53.2,0.0,u,0.0,True,999.7000000476837,60.0,60.0,40.0,False,,321.7636733869742,[],"[683, 384]",ColorTask,-2.0,14.0,,,HRV,HRV_0146,2022-11-30 18:17:06
,wl-rdm,22,177882,0.0-6.14-0.14,0.0,23.0,,,,,,,[],,,,,,50.0,1.0,u,0.0,False,1090.6000000238419,66.0,60.0,40.0,False,,270.4958781107136,[],"[683, 384]",ColorTask,-3.0,15.0,,,HRV,HRV_0146,2022-11-30 18:17:06
,wl-rdm,23,180399,0.0-6.15-0.15,0.0,24.0,,,,,,,[],,,,,,50.0,0.0,i,1.0,False,1171.9000000357628,71.0,60.0,40.0,False,,252.47352178249554,[],"[683, 384]",ColorTask,-4.0,16.0,,,HRV,HRV_0146,2022-11-30 18:17:06
,wl-rdm,24,182998,0.0-6.16-0.16,0.0,25.0,,,,,,,[],,,,,,53.2,0.0,u,0.0,True,1141.199999988079,68.0,60.0,40.0,False,,380.96868821616897,[],"[683, 384]",ColorTask,-3.0,17.0,,,HRV,HRV_0146,2022-11-30 18:17:06
,wl-rdm,25,185469,0.0-6.17-0.17,0.0,26.0,,,,,,,[],,,,,,56.4,0.0,i,1.0,False,1146.3999999761581,69.0,60.0,40.0,False,,258.65881812334646,[],"[683, 384]",ColorTask,-4.0,18.0,,,HRV,HRV_0146,2022-11-30 18:17:06
,wl-rdm,26,188732,0.0-6.18-0.18,0.0,27.0,,,,,,,[],,,,,,73.6,0.0,u,0.0,True,1931.199999988079,115.0,60.0,40.0,False,,272.6791147817438,[],"[683, 384]",ColorTask,-3.0,19.0,,,HRV,HRV_0146,2022-11-30 18:17:06
,wl-rdm,27,191232,0.0-6.19-0.19,0.0,28.0,,,,,,,[],,,,,,73.6,1.0,i,1.0,True,1170.4999999403954,71.0,60.0,40.0,False,,261.2827069813792,[],"[683, 384]",ColorTask,-2.0,20.0,,,HRV,HRV_0146,2022-11-30 18:17:06
,wl-rdm,28,193866,0.0-6.20-0.20,0.0,29.0,,,,,,,[],,,,,,62.5,1.0,i,1.0,True,1356.300000011921,81.0,60.0,40.0,False,,207.87105657039504,[],"[683, 384]",ColorTask,-1.0,21.0,,,HRV,HRV_0146,2022-11-30 18:17:06
,wl-rdm,29,196700,0.0-6.21-0.21,0.0,30.0,,,,,,,[],,,,,,62.5,0.0,u,0.0,True,1436.300000011921,87.0,60.0,40.0,False,,322.3160672801667,[],"[683, 384]",ColorTask,0.0,22.0,,,HRV,HRV_0146,2022-11-30 18:17:06
,wl-rdm,30,199335,0.0-6.22-0.22,0.0,31.0,,,,,,,[],,,,,,62.5,0.0,i,1.0,False,1286.8999999761581,77.0,60.0,40.0,False,,270.6173389014065,[],"[683, 384]",ColorTask,-1.0,23.0,,,HRV,HRV_0146,2022-11-30 18:17:06
,wl-rdm,31,202249,0.0-6.23-0.23,0.0,32.0,,,,,,,[],,,,,,50.0,1.0,u,0.0,False,1459.2000000476837,88.0,60.0,40.0,False,,380.8667389554579,[],"[683, 384]",ColorTask,-2.0,24.0,,,HRV,HRV_0146,2022-11-30 18:17:06
,wl-rdm,32,205049,0.0-6.24-0.24,0.0,33.0,,,,,,,[],,,,,,53.2,1.0,u,0.0,False,1493.699999988079,88.0,60.0,40.0,False,,228.1479141615996,[],"[683, 384]",ColorTask,-3.0,25.0,,,HRV,HRV_0146,2022-11-30 18:17:06
,wl-rdm,33,207916,0.0-6.25-0.25,0.0,34.0,,,,,,,[],,,,,,53.2,0.0,i,1.0,False,1546.0,92.0,60.0,40.0,False,,240.04392548746875,[],"[683, 384]",ColorTask,-4.0,26.0,,,HRV,HRV_0146,2022-11-30 18:17:06
,wl-rdm,34,210703,0.0-6.26-0.26,0.0,35.0,,,,,,,[],,,,,,50.0,1.0,u,0.0,False,1385.199999988079,84.0,60.0,40.0,False,,321.0837706237203,[],"[683, 384]",ColorTask,-5.0,27.0,,,HRV,HRV_0146,2022-11-30 18:17:06
,wl-rdm,35,213600,0.0-6.27-0.27,0.0,36.0,,,,,,,[],,,,,,50.0,1.0,i,1.0,True,1454.0,87.0,60.0,40.0,False,,369.8771117162638,[],"[683, 384]",ColorTask,-4.0,28.0,,,HRV,HRV_0146,2022-11-30 18:17:06
,wl-rdm,36,216084,0.0-6.28-0.28,0.0,37.0,,,,,,,[],,,,,,87.9,0.0,u,0.0,True,1210.9000000357628,73.0,60.0,40.0,False,,203.11823794676806,[],"[683, 384]",ColorTask,-3.0,29.0,,,HRV,HRV_0146,2022-11-30 18:17:06
,wl-rdm,37,218668,0.0-6.29-0.29,0.0,38.0,,,,,,,[],,,,,,56.4,1.0,u,0.0,False,1195.0000000596046,72.0,60.0,40.0,False,,319.42065277961757,[],"[683, 384]",ColorTask,-4.0,30.0,,,HRV,HRV_0146,2022-11-30 18:17:06
,wl-rdm,38,221117,0.0-6.30-0.30,0.0,39.0,,,,,,,[],,,,,,56.4,0.0,u,0.0,True,1112.1000000238419,67.0,60.0,40.0,False,,266.80959743409,[],"[683, 384]",ColorTask,-3.0,31.0,,,HRV,HRV_0146,2022-11-30 18:17:06
,wl-rdm,39,223767,0.0-6.31-0.31,0.0,40.0,,,,,,,[],,,,,,53.2,0.0,i,1.0,False,1198.6000000238419,71.0,60.0,40.0,False,,395.9927831308221,[],"[683, 384]",ColorTask,-4.0,32.0,,,HRV,HRV_0146,2022-11-30 18:17:06
,wl-rdm,40,226217,0.0-6.32-0.32,0.0,41.0,,,,,,,[],,,,,,73.6,0.0,u,0.0,True,1071.5999999642372,65.0,60.0,40.0,False,,288.1752749119654,[],"[683, 384]",ColorTask,-3.0,33.0,,,HRV,HRV_0146,2022-11-30 18:17:06
,wl-rdm,41,228551,0.0-6.33-0.33,0.0,42.0,,,,,,,[],,,,,,50.0,1.0,u,0.0,False,1005.0999999642372,61.0,60.0,40.0,False,,256.37923119645563,[],"[683, 384]",ColorTask,-4.0,34.0,,,HRV,HRV_0146,2022-11-30 18:17:06
,wl-rdm,42,230985,0.0-6.34-0.34,0.0,43.0,,,,,,,[],,,,,,73.6,1.0,i,1.0,True,1050.7999999523163,63.0,60.0,40.0,False,,308.0478096617003,[],"[683, 384]",ColorTask,-3.0,35.0,,,HRV,HRV_0146,2022-11-30 18:17:06
,wl-rdm,43,233218,0.0-6.35-0.35,0.0,44.0,,,,,,,[],,,,,,87.9,1.0,i,1.0,True,907.6000000238419,54.0,60.0,40.0,False,,240.9250496974047,[],"[683, 384]",ColorTask,-2.0,36.0,,,HRV,HRV_0146,2022-11-30 18:17:06
,wl-rdm,44,235617,0.0-6.36-0.36,0.0,45.0,,,,,,,[],,,,,,56.4,1.0,i,1.0,True,1068.4000000357628,64.0,60.0,40.0,False,,261.6680399799312,[],"[683, 384]",ColorTask,-1.0,37.0,,,HRV,HRV_0146,2022-11-30 18:17:06
,wl-rdm,45,237900,0.0-6.37-0.37,0.0,46.0,,,,,,,[],,,,,,50.0,0.0,u,0.0,True,935.0000000596046,56.0,60.0,40.0,False,,273.31938082613607,[],"[683, 384]",ColorTask,0.0,38.0,,,HRV,HRV_0146,2022-11-30 18:17:06
,wl-rdm,46,240267,0.0-6.38-0.38,0.0,47.0,,,,,,,[],,,,,,87.9,1.0,i,1.0,True,908.0000000596046,55.0,60.0,40.0,False,,388.2822199592225,[],"[683, 384]",ColorTask,1.0,39.0,,,HRV,HRV_0146,2022-11-30 18:17:06
,wl-rdm,47,242683,0.0-6.39-0.39,0.0,48.0,,,,,,,[],,,,,,87.9,1.0,i,1.0,True,1040.7000000476837,63.0,60.0,40.0,False,,304.57792221164254,[],"[683, 384]",ColorTask,2.0,40.0,,,HRV,HRV_0146,2022-11-30 18:17:06
,wl-rdm,48,244850,0.0-6.40-0.40,0.0,49.0,,,,,,,[],,,,,,62.5,0.0,u,0.0,True,826.3000000715256,50.0,60.0,40.0,False,,270.84796790969233,[],"[683, 384]",ColorTask,3.0,41.0,,,HRV,HRV_0146,2022-11-30 18:17:06
,wl-rdm,49,247101,0.0-6.41-0.41,0.0,50.0,,,,,,,[],,,,,,87.9,1.0,i,1.0,True,922.8000000119209,55.0,60.0,40.0,False,,235.7263925172557,[],"[683, 384]",ColorTask,4.0,42.0,,,HRV,HRV_0146,2022-11-30 18:17:06
,wl-rdm,50,249234,0.0-6.42-0.42,0.0,51.0,,,,,,,[],,,,,,73.6,1.0,i,1.0,True,786.0,47.0,60.0,40.0,False,,280.4286881471894,[],"[683, 384]",ColorTask,5.0,43.0,,,HRV,HRV_0146,2022-11-30 18:17:06
,wl-rdm,51,251434,0.0-6.43-0.43,0.0,52.0,,,,,,,[],,,,,,62.5,1.0,i,1.0,True,912.1999999880791,54.0,60.0,40.0,False,,210.82310210081428,[],"[683, 384]",ColorTask,6.0,44.0,,,HRV,HRV_0146,2022-11-30 18:17:06
,wl-rdm,52,253868,0.0-6.44-0.44,0.0,53.0,,,,,,,[],,,,,,56.4,1.0,u,0.0,False,1037.0999999642372,61.0,60.0,40.0,False,,330.80601933801006,[],"[683, 384]",ColorTask,5.0,45.0,,,HRV,HRV_0146,2022-11-30 18:17:06
,wl-rdm,53,256002,0.0-6.45-0.45,0.0,54.0,,,,,,,[],,,,,,62.5,1.0,i,1.0,True,702.6999999880791,43.0,60.0,40.0,False,,344.05024257589287,[],"[683, 384]",ColorTask,6.0,46.0,,,HRV,HRV_0146,2022-11-30 18:17:06
,wl-rdm,54,258018,0.0-6.46-0.46,0.0,55.0,,,,,,,[],,,,,,73.6,0.0,u,0.0,True,671.0999999642372,41.0,60.0,40.0,False,,279.62354194586965,[],"[683, 384]",ColorTask,7.0,47.0,,,HRV,HRV_0146,2022-11-30 18:17:06
,wl-rdm,55,260352,0.0-6.47-0.47,0.0,56.0,,,,,,,[],,,,,,50.0,0.0,i,1.0,False,974.0999999642372,59.0,60.0,40.0,False,,293.0150161022733,[],"[683, 384]",ColorTask,6.0,48.0,,,HRV,HRV_0146,2022-11-30 18:17:06
,wl-rdm,56,262718,0.0-6.48-0.48,0.0,57.0,,,,,,,[],,,,,,56.4,0.0,i,1.0,False,915.1000000238419,55.0,60.0,40.0,False,,377.87566192274505,[],"[683, 384]",ColorTask,5.0,49.0,,,HRV,HRV_0146,2022-11-30 18:17:06
,wl-rdm,57,264634,0.0-6.49-0.49,0.0,58.0,,,,,,,[],,,,,,87.9,0.0,u,0.0,True,638.3000000119209,39.0,60.0,40.0,False,,206.04150408255882,[],"[683, 384]",ColorTask,6.0,50.0,,,HRV,HRV_0146,2022-11-30 18:17:06
,wl-rdm,58,266651,0.0-6.50-0.50,0.0,59.0,,,,,,,[],,,,,,73.6,0.0,i,1.0,False,566.0,34.0,60.0,40.0,False,,382.49272186390056,[],"[683, 384]",ColorTask,5.0,51.0,,,HRV,HRV_0146,2022-11-30 18:17:06
,wl-rdm,59,268768,0.0-6.51-0.51,0.0,60.0,,,,,,,[],,,,,,87.9,1.0,i,1.0,True,708.1000000238419,43.0,60.0,40.0,False,,328.5399921630135,[],"[683, 384]",ColorTask,6.0,52.0,,,HRV,HRV_0146,2022-11-30 18:17:06
,wl-rdm,60,270835,0.0-6.52-0.52,0.0,61.0,,,,,,,[],,,,,,56.4,1.0,i,1.0,True,742.8999999761581,45.0,60.0,40.0,False,,259.9450859390885,[],"[683, 384]",ColorTask,7.0,53.0,,,HRV,HRV_0146,2022-11-30 18:17:06
,wl-rdm,61,273038,0.0-6.53-0.53,0.0,62.0,,,,,,,[],,,,,,73.6,1.0,i,1.0,True,786.0,48.0,60.0,40.0,False,,338.4509538680361,[],"[683, 384]",ColorTask,8.0,54.0,,,HRV,HRV_0146,2022-11-30 18:17:06
,wl-rdm,62,275053,0.0-6.54-0.54,0.0,63.0,,,,,,,[],,,,,,87.9,0.0,u,0.0,True,705.5999999642372,43.0,60.0,40.0,False,,240.61785017300826,[],"[683, 384]",ColorTask,9.0,55.0,,,HRV,HRV_0146,2022-11-30 18:17:06
,wl-rdm,63,277135,0.0-6.55-0.55,0.0,64.0,,,,,,,[],,,,,,62.5,1.0,i,1.0,True,741.9999999403954,45.0,60.0,40.0,False,,278.5249021999526,[],"[683, 384]",ColorTask,10.0,56.0,,,HRV,HRV_0146,2022-11-30 18:17:06
,wl-rdm,64,279169,0.0-6.56-0.56,0.0,65.0,,,,,,,[],,,,,,87.9,0.0,u,0.0,True,750.1000000238419,45.0,60.0,40.0,False,,208.33839306093222,[],"[683, 384]",ColorTask,11.0,57.0,,,HRV,HRV_0146,2022-11-30 18:17:06
,wl-rdm,65,281368,0.0-6.57-0.57,0.0,66.0,,,,,,,[],,,,,,50.0,0.0,i,1.0,False,724.6999999880791,44.0,60.0,40.0,False,,390.4344426167508,[],"[683, 384]",ColorTask,10.0,58.0,,,HRV,HRV_0146,2022-11-30 18:17:06
,wl-rdm,66,283485,0.0-6.58-0.58,0.0,67.0,,,,,,,[],,,,,,53.2,1.0,i,1.0,True,821.7000000476837,50.0,60.0,40.0,False,,207.44113340715398,[],"[683, 384]",ColorTask,11.0,59.0,,,HRV,HRV_0146,2022-11-30 18:17:06
,wl-rdm,67,285685,0.0-6.59-0.59,0.0,68.0,,,,,,,[],,,,,,73.6,0.0,u,0.0,True,770.3000000119209,46.0,60.0,40.0,False,,364.96328576310526,[],"[683, 384]",ColorTask,12.0,60.0,,,HRV,HRV_0146,2022-11-30 18:17:06
,wl-rdm,68,287768,0.0-6.60-0.60,0.0,69.0,,,,,,,[],,,,,,53.2,1.0,i,1.0,True,708.7999999523163,43.0,60.0,40.0,False,,288.9970483739895,[],"[683, 384]",ColorTask,13.0,61.0,,,HRV,HRV_0146,2022-11-30 18:17:06
,wl-rdm,69,289918,0.0-6.61-0.61,0.0,70.0,,,,,,,[],,,,,,62.5,1.0,u,0.0,False,854.6999999880791,51.0,60.0,40.0,False,,219.7695922910677,[],"[683, 384]",ColorTask,12.0,62.0,,,HRV,HRV_0146,2022-11-30 18:17:06
,wl-rdm,70,291952,0.0-6.62-0.62,0.0,71.0,,,,,,,[],,,,,,53.2,1.0,i,1.0,True,762.0,46.0,60.0,40.0,False,,205.26656956276992,[],"[683, 384]",ColorTask,13.0,63.0,,,HRV,HRV_0146,2022-11-30 18:17:06
,wl-rdm,71,294351,0.0-6.63-0.63,0.0,72.0,,,,,,,[],,,,,,73.6,0.0,u,0.0,True,1076.0000000596046,65.0,60.0,40.0,False,,250.11581700266788,[],"[683, 384]",ColorTask,14.0,64.0,,,HRV,HRV_0146,2022-11-30 18:17:06
,wl-rdm,72,296255,0.0-6.64-0.64,0.0,73.0,,,,,,,[],,,,,,50.0,0.0,i,1.0,False,622.0,38.0,60.0,40.0,False,,211.09160709486218,[],"[683, 384]",ColorTask,13.0,65.0,,,HRV,HRV_0146,2022-11-30 18:17:06
,wl-rdm,73,298302,0.0-6.65-0.65,0.0,74.0,,,,,,,[],,,,,,53.2,0.0,u,0.0,True,588.0,36.0,60.0,40.0,False,,374.3548169913567,[],"[683, 384]",ColorTask,14.0,66.0,,,HRV,HRV_0146,2022-11-30 18:17:06
,wl-rdm,74,300462,0.0-6.66-0.66,0.0,75.0,,,,,,,[],,,,,,62.5,0.0,u,0.0,True,825.8999999761581,50.0,60.0,40.0,False,,243.64626860347536,[],"[683, 384]",ColorTask,15.0,67.0,,,HRV,HRV_0146,2022-11-30 18:17:06
,wl-rdm,75,302785,0.0-6.67-0.67,0.0,76.0,,,,,,,[],,,,,,56.4,1.0,i,1.0,True,914.1999999284744,55.0,60.0,40.0,False,,343.6515662363234,[],"[683, 384]",ColorTask,16.0,68.0,,,HRV,HRV_0146,2022-11-30 18:17:06
,wl-rdm,76,305054,0.0-6.68-0.68,0.0,77.0,,,,,,,[],,,,,,56.4,1.0,i,1.0,True,926.8000000119209,56.0,60.0,40.0,False,,272.10927774285443,[],"[683, 384]",ColorTask,17.0,69.0,,,HRV,HRV_0146,2022-11-30 18:17:06
,wl-rdm,77,307152,0.0-6.69-0.69,0.0,78.0,,,,,,,[],,,,,,50.0,1.0,u,0.0,False,775.3000000119209,46.0,60.0,40.0,False,,245.77695521745602,[],"[683, 384]",ColorTask,16.0,70.0,,,HRV,HRV_0146,2022-11-30 18:17:06
,wl-rdm,78,309087,0.0-6.70-0.70,0.0,79.0,,,,,,,[],,,,,,62.5,1.0,i,1.0,True,658.7999999523163,39.0,60.0,40.0,False,,209.60123500424768,[],"[683, 384]",ColorTask,17.0,71.0,,,HRV,HRV_0146,2022-11-30 18:17:06
,wl-rdm,79,311169,0.0-6.71-0.71,0.0,80.0,,,,,,,[],,,,,,50.0,0.0,i,1.0,False,743.9000000357628,43.0,60.0,40.0,False,,283.0962994483934,[],"[683, 384]",ColorTask,16.0,72.0,,,HRV,HRV_0146,2022-11-30 18:17:06
,wl-rdm,80,313469,0.0-6.72-0.72,0.0,81.0,,,,,,,[],,,,,,56.4,1.0,i,1.0,True,884.2999999523163,53.0,60.0,40.0,False,,340.6394506940731,[],"[683, 384]",ColorTask,17.0,73.0,,,HRV,HRV_0146,2022-11-30 18:17:06
,wl-rdm,81,315419,0.0-6.73-0.73,0.0,82.0,,,,,,,[],,,,,,87.9,0.0,u,0.0,True,639.5999999642372,38.0,60.0,40.0,False,,240.80392452136448,[],"[683, 384]",ColorTask,18.0,74.0,,,HRV,HRV_0146,2022-11-30 18:17:06
,wl-rdm,82,317336,0.0-6.74-0.74,0.0,83.0,,,,,,,[],,,,,,56.4,0.0,i,1.0,False,573.1999999880791,35.0,60.0,40.0,False,,283.86017209791197,[],"[683, 384]",ColorTask,17.0,75.0,,,HRV,HRV_0146,2022-11-30 18:17:06
,wl-rdm,83,319353,0.0-6.75-0.75,0.0,84.0,,,,,,,[],,,,,,87.9,0.0,u,0.0,True,719.6999999880791,44.0,60.0,40.0,False,,218.03466045637813,[],"[683, 384]",ColorTask,18.0,76.0,,,HRV,HRV_0146,2022-11-30 18:17:06
,wl-rdm,84,321536,0.0-6.76-0.76,0.0,85.0,,,,,,,[],,,,,,73.6,1.0,i,1.0,True,861.8999999761581,50.0,60.0,40.0,False,,256.34354508117326,[],"[683, 384]",ColorTask,19.0,77.0,,,HRV,HRV_0146,2022-11-30 18:17:06
,wl-rdm,85,323519,0.0-6.77-0.77,0.0,86.0,,,,,,,[],,,,,,73.6,1.0,i,1.0,True,679.1999999880791,40.0,60.0,40.0,False,,242.11850823433784,[],"[683, 384]",ColorTask,20.0,78.0,,,HRV,HRV_0146,2022-11-30 18:17:06
,wl-rdm,86,325552,0.0-6.78-0.78,0.0,87.0,,,,,,,[],,,,,,56.4,1.0,u,0.0,False,751.9999999403954,42.0,60.0,40.0,False,,212.53560424287144,[],"[683, 384]",ColorTask,19.0,79.0,,,HRV,HRV_0146,2022-11-30 18:17:06
,wl-rdm,87,327572,0.0-6.79-0.79,0.0,88.0,,,,,,,[],,,,,,53.2,0.0,i,1.0,False,708.5,43.0,60.0,40.0,False,,245.45257497887098,[],"[683, 384]",ColorTask,18.0,80.0,,,HRV,HRV_0146,2022-11-30 18:17:06
,wl-rdm,88,329401,0.0-6.80-0.80,0.0,89.0,,,,,,,[],,,,,,50.0,1.0,u,0.0,False,392.80000001192093,24.0,60.0,40.0,False,,373.0954415793527,[],"[683, 384]",ColorTask,17.0,81.0,,,HRV,HRV_0146,2022-11-30 18:17:06
,wl-rdm,89,331272,0.0-6.81-0.81,0.0,90.0,,,,,,,[],,,,,,73.6,1.0,i,1.0,True,474.9000000357628,29.0,60.0,40.0,False,,317.4817829034512,[],"[683, 384]",ColorTask,18.0,82.0,,,HRV,HRV_0146,2022-11-30 18:17:06
,wl-rdm,90,333387,0.0-6.82-0.82,0.0,91.0,,,,,,,[],,,,,,53.2,1.0,i,1.0,True,775.6999999880791,47.0,60.0,40.0,False,,252.63413175608474,[],"[683, 384]",ColorTask,19.0,83.0,,,HRV,HRV_0146,2022-11-30 18:17:06
,wl-rdm,91,335622,0.0-6.83-0.83,0.0,92.0,,,,,,,[],,,,,,50.0,0.0,i,1.0,False,772.7999999523163,47.0,60.0,40.0,False,,386.43926333510734,[],"[683, 384]",ColorTask,18.0,84.0,,,HRV,HRV_0146,2022-11-30 18:17:06
,wl-rdm,92,337620,0.0-6.84-0.84,0.0,93.0,,,,,,,[],,,,,,56.4,0.0,u,0.0,True,676.5,41.0,60.0,40.0,False,,253.33914952271232,[],"[683, 384]",ColorTask,19.0,85.0,,,HRV,HRV_0146,2022-11-30 18:17:06
,wl-rdm,93,339487,0.0-6.85-0.85,0.0,94.0,,,,,,,[],,,,,,87.9,0.0,i,1.0,False,583.5999999642372,35.0,60.0,40.0,False,,229.85517318992677,[],"[683, 384]",ColorTask,18.0,86.0,,,HRV,HRV_0146,2022-11-30 18:17:06
,wl-rdm,94,341803,0.0-6.86-0.86,0.0,95.0,,,,,,,[],,,,,,62.5,0.0,u,0.0,True,968.1000000238419,57.0,60.0,40.0,False,,281.56064179511793,[],"[683, 384]",ColorTask,19.0,87.0,,,HRV,HRV_0146,2022-11-30 18:17:06
,wl-rdm,95,344137,0.0-6.87-0.87,0.0,96.0,,,,,,,[],,,,,,62.5,1.0,i,1.0,True,890.6000000238419,54.0,60.0,40.0,False,,380.44712387257687,[],"[683, 384]",ColorTask,20.0,88.0,,,HRV,HRV_0146,2022-11-30 18:17:06
,wl-rdm,96,346370,0.0-6.88-0.88,0.0,97.0,,,,,,,[],,,,,,50.0,1.0,i,1.0,True,854.6000000238419,52.0,60.0,40.0,False,,302.753305071178,[],"[683, 384]",ColorTask,21.0,89.0,,,HRV,HRV_0146,2022-11-30 18:17:06
,wl-rdm,97,348520,0.0-6.89-0.89,0.0,98.0,,,,,,,[],,,,,,53.2,0.0,u,0.0,True,839.2999999523163,51.0,60.0,40.0,False,,245.32149482688385,[],"[683, 384]",ColorTask,22.0,90.0,,,HRV,HRV_0146,2022-11-30 18:17:06
,wl-rdm,98,350537,0.0-6.90-0.90,0.0,99.0,,,,,,,[],,,,,,56.4,1.0,u,0.0,False,730.1000000238419,43.0,60.0,40.0,False,,227.816801022685,[],"[683, 384]",ColorTask,21.0,91.0,,,HRV,HRV_0146,2022-11-30 18:17:06
,wl-rdm,99,352705,0.0-6.91-0.91,0.0,100.0,,,,,,,[],,,,,,62.5,1.0,i,1.0,True,788.1999999284744,48.0,60.0,40.0,False,,308.5198677475744,[],"[683, 384]",ColorTask,22.0,92.0,,,HRV,HRV_0146,2022-11-30 18:17:06
,wl-rdm,100,354805,0.0-6.92-0.92,0.0,101.0,,,,,,,[],,,,,,53.2,1.0,u,0.0,False,756.6999999880791,46.0,60.0,40.0,False,,255.6777569331532,[],"[683, 384]",ColorTask,21.0,93.0,,,HRV,HRV_0146,2022-11-30 18:17:06
,wl-rdm,101,356887,0.0-6.93-0.93,0.0,102.0,,,,,,,[],,,,,,56.4,0.0,i,1.0,False,775.4000000357628,45.0,60.0,40.0,False,,238.39705867805782,[],"[683, 384]",ColorTask,20.0,94.0,,,HRV,HRV_0146,2022-11-30 18:17:06
,wl-rdm,102,358872,0.0-6.94-0.94,0.0,103.0,,,,,,,[],,,,,,87.9,0.0,u,0.0,True,671.6999999284744,41.0,60.0,40.0,False,,246.26477110534378,[],"[683, 384]",ColorTask,21.0,95.0,,,HRV,HRV_0146,2022-11-30 18:17:06
,wl-rdm,103,361059,0.0-6.95-0.95,0.0,104.0,,,,,,,[],,,,,,56.4,0.0,u,0.0,True,859.8000000119209,52.0,60.0,40.0,False,,234.3057794604021,[],"[683, 384]",ColorTask,22.0,96.0,,,HRV,HRV_0146,2022-11-30 18:17:06
,wl-rdm,104,363070,0.0-6.96-0.96,0.0,105.0,,,,,,,[],,,,,,53.2,0.0,i,1.0,False,695.8000000119209,42.0,60.0,40.0,False,,265.1709324968661,[],"[683, 384]",ColorTask,21.0,97.0,,,HRV,HRV_0146,2022-11-30 18:17:06
,wl-rdm,105,365103,0.0-6.97-0.97,0.0,106.0,,,,,,,[],,,,,,73.6,0.0,u,0.0,True,741.5999999642372,45.0,60.0,40.0,False,,205.05012302858088,[],"[683, 384]",ColorTask,22.0,98.0,,,HRV,HRV_0146,2022-11-30 18:17:06
,wl-rdm,106,367104,0.0-6.98-0.98,0.0,107.0,,,,,,,[],,,,,,87.9,0.0,u,0.0,True,725.8999999761581,44.0,60.0,40.0,False,,209.89139362661246,[],"[683, 384]",ColorTask,23.0,99.0,,,HRV,HRV_0146,2022-11-30 18:17:06
,wl-rdm,107,369123,0.0-6.99-0.99,0.0,108.0,,,,,,,[],,,,,,87.9,1.0,i,1.0,True,664.6999999880791,40.0,60.0,40.0,False,,291.309878247784,[],"[683, 384]",ColorTask,24.0,100.0,,,HRV,HRV_0146,2022-11-30 18:17:06
,wl-rdm,108,371189,0.0-6.100-0.100,0.0,109.0,,,,,,,[],,,,,,62.5,0.0,u,0.0,True,808.8000000715256,48.0,60.0,40.0,False,,201.54923532104792,[],"[683, 384]",ColorTask,25.0,101.0,,,HRV,HRV_0146,2022-11-30 18:17:06
,wl-rdm,109,373271,0.0-6.101-0.101,0.0,110.0,,,,,,,[],,,,,,53.2,1.0,i,1.0,True,726.5,44.0,60.0,40.0,False,,275.06028444863097,[],"[683, 384]",ColorTask,26.0,102.0,,,HRV,HRV_0146,2022-11-30 18:17:06
,wl-rdm,110,375405,0.0-6.102-0.102,0.0,111.0,,,,,,,[],,,,,,56.4,0.0,u,0.0,True,860.6000000238419,52.0,60.0,40.0,False,,216.50464660516795,[],"[683, 384]",ColorTask,27.0,103.0,,,HRV,HRV_0146,2022-11-30 18:17:06
,wl-rdm,111,377505,0.0-6.103-0.103,0.0,112.0,,,,,,,[],,,,,,53.2,1.0,u,0.0,False,808.1999999880791,49.0,60.0,40.0,False,,219.77758390770293,[],"[683, 384]",ColorTask,26.0,104.0,,,HRV,HRV_0146,2022-11-30 18:17:06
,wl-rdm,112,379657,0.0-6.104-0.104,0.0,113.0,,,,,,,[],,,,,,50.0,0.0,i,1.0,False,842.3999999761581,51.0,60.0,40.0,False,,243.74980045837736,[],"[683, 384]",ColorTask,25.0,105.0,,,HRV,HRV_0146,2022-11-30 18:17:06
,wl-rdm,113,381621,0.0-6.105-0.105,0.0,114.0,,,,,,,[],,,,,,53.2,1.0,i,1.0,True,667.4000000357628,40.0,60.0,40.0,False,,245.46223971684122,[],"[683, 384]",ColorTask,26.0,106.0,,,HRV,HRV_0146,2022-11-30 18:17:06
,wl-rdm,114,383655,0.0-6.106-0.106,0.0,115.0,,,,,,,[],,,,,,56.4,0.0,u,0.0,True,724.6999999880791,44.0,60.0,40.0,False,,241.23096170229962,[],"[683, 384]",ColorTask,27.0,107.0,,,HRV,HRV_0146,2022-11-30 18:17:06
,wl-rdm,115,385792,0.0-6.107-0.107,0.0,116.0,,,,,,,[],,,,,,87.9,1.0,i,1.0,True,748.2999999523163,45.0,60.0,40.0,False,,279.4109644659402,[],"[683, 384]",ColorTask,28.0,108.0,,,HRV,HRV_0146,2022-11-30 18:17:06
,wl-html-keyboard-response,116,451115,0.0-7.0-0.0,1.0,117.0,,,,,,,,63313.30000001192,1.0,0,,,,,,,,,,,,,,,,,,,,,,HRV,HRV_0146,2022-11-30 18:17:06
,wl-rdm,117,453190,0.0-8.0-0.0,1.0,118.0,,,,,,,[],,,,,,73.6,1.0,i,1.0,True,660.5999999642372,40.0,60.0,40.0,False,,338.0550408914929,[],"[683, 384]",ColorTask,29.0,1.0,,,HRV,HRV_0146,2022-11-30 18:17:06
,wl-rdm,118,455356,0.0-8.1-0.1,1.0,119.0,,,,,,,[],,,,,,53.2,0.0,u,0.0,True,846.7000000476837,50.0,60.0,40.0,False,,259.07820310384835,[],"[683, 384]",ColorTask,30.0,2.0,,,HRV,HRV_0146,2022-11-30 18:17:06
,wl-rdm,119,457490,0.0-8.2-0.2,1.0,120.0,,,,,,,[],,,,,,73.6,1.0,i,1.0,True,773.9999999403954,47.0,60.0,40.0,False,,273.70863019816795,[],"[683, 384]",ColorTask,31.0,3.0,,,HRV,HRV_0146,2022-11-30 18:17:06
,wl-rdm,120,459390,0.0-8.3-0.3,1.0,121.0,,,,,,,[],,,,,,87.9,0.0,u,0.0,True,558.3999999761581,34.0,60.0,40.0,False,,270.3867980431592,[],"[683, 384]",ColorTask,32.0,4.0,,,HRV,HRV_0146,2022-11-30 18:17:06
,wl-rdm,121,461491,0.0-8.4-0.4,1.0,122.0,,,,,,,[],,,,,,62.5,0.0,i,1.0,False,722.9999999403954,44.0,60.0,40.0,False,,299.4402539857206,[],"[683, 384]",ColorTask,31.0,5.0,,,HRV,HRV_0146,2022-11-30 18:17:06
,wl-rdm,122,463457,0.0-8.5-0.5,1.0,123.0,,,,,,,[],,,,,,87.9,0.0,i,1.0,False,573.5999999642372,35.0,60.0,40.0,False,,321.57862965822636,[],"[683, 384]",ColorTask,30.0,6.0,,,HRV,HRV_0146,2022-11-30 18:17:06
,wl-rdm,123,465542,0.0-8.6-0.6,1.0,124.0,,,,,,,[],,,,,,62.5,0.0,u,0.0,True,728.0000000596046,43.0,60.0,40.0,False,,296.90433627381884,[],"[683, 384]",ColorTask,31.0,7.0,,,HRV,HRV_0146,2022-11-30 18:17:06
,wl-rdm,124,467709,0.0-8.7-0.7,1.0,125.0,,,,,,,[],,,,,,53.2,0.0,u,0.0,True,713.2999999523163,43.0,60.0,40.0,False,,376.96003253149,[],"[683, 384]",ColorTask,32.0,8.0,,,HRV,HRV_0146,2022-11-30 18:17:06
,wl-rdm,125,469874,0.0-8.8-0.8,1.0,126.0,,,,,,,[],,,,,,50.0,1.0,u,0.0,False,890.2000000476837,54.0,60.0,40.0,False,,202.47326492990445,[],"[683, 384]",ColorTask,31.0,9.0,,,HRV,HRV_0146,2022-11-30 18:17:06
,wl-rdm,126,472140,0.0-8.9-0.9,1.0,127.0,,,,,,,[],,,,,,50.0,0.0,u,0.0,True,921.0,56.0,60.0,40.0,False,,279.1752960248067,[],"[683, 384]",ColorTask,32.0,10.0,,,HRV,HRV_0146,2022-11-30 18:17:06
,wl-rdm,127,474158,0.0-8.10-0.10,1.0,128.0,,,,,,,[],,,,,,56.4,1.0,u,0.0,False,748.6999999880791,45.0,60.0,40.0,False,,203.63113891221388,[],"[683, 384]",ColorTask,31.0,11.0,,,HRV,HRV_0146,2022-11-30 18:17:06
,wl-rdm,128,476300,0.0-8.11-0.11,1.0,129.0,,,,,,,[],,,,,,56.4,1.0,u,0.0,False,707.8000000119209,43.0,60.0,40.0,False,,342.8776567154917,[],"[683, 384]",ColorTask,30.0,12.0,,,HRV,HRV_0146,2022-11-30 18:17:06
,wl-rdm,129,478426,0.0-8.12-0.12,1.0,130.0,,,,,,,[],,,,,,73.6,0.0,u,0.0,True,754.7999999523163,46.0,60.0,40.0,False,,283.22620676509507,[],"[683, 384]",ColorTask,31.0,13.0,,,HRV,HRV_0146,2022-11-30 18:17:06
,wl-rdm,130,480424,0.0-8.13-0.13,1.0,131.0,,,,,,,[],,,,,,73.6,0.0,u,0.0,True,644.7000000476837,39.0,60.0,40.0,False,,298.1959998597937,[],"[683, 384]",ColorTask,32.0,14.0,,,HRV,HRV_0146,2022-11-30 18:17:06
,wl-rdm,131,482544,0.0-8.14-0.14,1.0,132.0,,,,,,,[],,,,,,56.4,0.0,u,0.0,True,751.0,45.0,60.0,40.0,False,,304.63590619751994,[],"[683, 384]",ColorTask,33.0,15.0,,,HRV,HRV_0146,2022-11-30 18:17:06
,wl-rdm,132,484658,0.0-8.15-0.15,1.0,133.0,,,,,,,[],,,,,,56.4,1.0,u,0.0,False,649.1000000238419,39.0,60.0,40.0,False,,384.6632474284819,[],"[683, 384]",ColorTask,32.0,16.0,,,HRV,HRV_0146,2022-11-30 18:17:06
,wl-rdm,133,487008,0.0-8.16-0.16,1.0,134.0,,,,,,,[],,,,,,53.2,0.0,u,0.0,True,926.8999999761581,56.0,60.0,40.0,False,,340.30012414023116,[],"[683, 384]",ColorTask,33.0,17.0,,,HRV,HRV_0146,2022-11-30 18:17:06
,wl-rdm,134,489124,0.0-8.17-0.17,1.0,135.0,,,,,,,[],,,,,,62.5,0.0,u,0.0,True,814.0000000596046,49.0,60.0,40.0,False,,234.47814016409262,[],"[683, 384]",ColorTask,34.0,18.0,,,HRV,HRV_0146,2022-11-30 18:17:06
,wl-rdm,135,491243,0.0-8.18-0.18,1.0,136.0,,,,,,,[],,,,,,53.2,0.0,i,1.0,False,824.0999999642372,49.0,60.0,40.0,False,,211.59058925652036,[],"[683, 384]",ColorTask,33.0,19.0,,,HRV,HRV_0146,2022-11-30 18:17:06
,wl-rdm,136,493311,0.0-8.19-0.19,1.0,137.0,,,,,,,[],,,,,,62.5,1.0,u,0.0,False,662.1999999880791,40.0,60.0,40.0,False,,320.826049527367,[],"[683, 384]",ColorTask,32.0,20.0,,,HRV,HRV_0146,2022-11-30 18:17:06
,wl-rdm,137,495359,0.0-8.20-0.20,1.0,138.0,,,,,,,[],,,,,,50.0,1.0,u,0.0,False,782.8000000119209,46.0,60.0,40.0,False,,205.39349029301155,[],"[683, 384]",ColorTask,31.0,21.0,,,HRV,HRV_0146,2022-11-30 18:17:06
,wl-rdm,138,497477,0.0-8.21-0.21,1.0,139.0,,,,,,,[],,,,,,53.2,1.0,u,0.0,False,774.5,47.0,60.0,40.0,False,,266.12377698250805,[],"[683, 384]",ColorTask,30.0,22.0,,,HRV,HRV_0146,2022-11-30 18:17:06
,wl-rdm,139,499558,0.0-8.22-0.22,1.0,140.0,,,,,,,[],,,,,,50.0,0.0,u,0.0,True,619.8000000119209,39.0,60.0,40.0,False,,365.1234788712027,[],"[683, 384]",ColorTask,31.0,23.0,,,HRV,HRV_0146,2022-11-30 18:17:06
,wl-rdm,140,501642,0.0-8.23-0.23,1.0,141.0,,,,,,,[],,,,,,56.4,0.0,u,0.0,True,776.6000000238419,47.0,60.0,40.0,False,,235.93052604729306,[],"[683, 384]",ColorTask,32.0,24.0,,,HRV,HRV_0146,2022-11-30 18:17:06
,wl-rdm,141,503693,0.0-8.24-0.24,1.0,142.0,,,,,,,[],,,,,,62.5,1.0,u,0.0,False,756.1000000238419,45.0,60.0,40.0,False,,228.28970087070863,[],"[683, 384]",ColorTask,31.0,25.0,,,HRV,HRV_0146,2022-11-30 18:17:06
,wl-rdm,142,505560,0.0-8.25-0.25,1.0,143.0,,,,,,,[],,,,,,73.6,1.0,i,1.0,True,532.4999999403954,32.0,60.0,40.0,False,,272.88695856108103,[],"[683, 384]",ColorTask,32.0,26.0,,,HRV,HRV_0146,2022-11-30 18:17:06
,wl-rdm,143,507525,0.0-8.26-0.26,1.0,144.0,,,,,,,[],,,,,,56.4,1.0,u,0.0,False,605.5,37.0,60.0,40.0,False,,267.8471647300593,[],"[683, 384]",ColorTask,31.0,27.0,,,HRV,HRV_0146,2022-11-30 18:17:06
,wl-rdm,144,509642,0.0-8.27-0.27,1.0,145.0,,,,,,,[],,,,,,53.2,1.0,u,0.0,False,820.5000000596046,49.0,60.0,40.0,False,,207.03389693412944,[],"[683, 384]",ColorTask,30.0,28.0,,,HRV,HRV_0146,2022-11-30 18:17:06
,wl-rdm,145,511742,0.0-8.28-0.28,1.0,146.0,,,,,,,[],,,,,,50.0,1.0,i,1.0,True,791.1000000238419,48.0,60.0,40.0,False,,239.8702832695377,[],"[683, 384]",ColorTask,31.0,29.0,,,HRV,HRV_0146,2022-11-30 18:17:06
,wl-rdm,146,513859,0.0-8.29-0.29,1.0,147.0,,,,,,,[],,,,,,50.0,1.0,i,1.0,True,808.5999999642372,49.0,60.0,40.0,False,,253.2481826225209,[],"[683, 384]",ColorTask,32.0,30.0,,,HRV,HRV_0146,2022-11-30 18:17:06
,wl-rdm,147,515859,0.0-8.30-0.30,1.0,148.0,,,,,,,[],,,,,,87.9,0.0,u,0.0,True,653.5,41.0,60.0,40.0,False,,272.0896297902015,[],"[683, 384]",ColorTask,33.0,31.0,,,HRV,HRV_0146,2022-11-30 18:17:06
,wl-rdm,148,517792,0.0-8.31-0.31,1.0,149.0,,,,,,,[],,,,,,50.0,0.0,i,1.0,False,655.0,40.0,60.0,40.0,False,,212.09606623561814,[],"[683, 384]",ColorTask,32.0,32.0,,,HRV,HRV_0146,2022-11-30 18:17:06
,wl-rdm,149,519809,0.0-8.32-0.32,1.0,150.0,,,,,,,[],,,,,,56.4,0.0,u,0.0,True,632.3000000119209,38.0,60.0,40.0,False,,301.4988261426769,[],"[683, 384]",ColorTask,33.0,33.0,,,HRV,HRV_0146,2022-11-30 18:17:06
,wl-rdm,150,521758,0.0-8.33-0.33,1.0,151.0,,,,,,,[],,,,,,73.6,0.0,u,0.0,True,609.0999999642372,37.0,60.0,40.0,False,,268.5719244472259,[],"[683, 384]",ColorTask,34.0,34.0,,,HRV,HRV_0146,2022-11-30 18:17:06
,wl-rdm,151,523875,0.0-8.34-0.34,1.0,152.0,,,,,,,[],,,,,,56.4,1.0,u,0.0,False,751.5,46.0,60.0,40.0,False,,270.8356054022871,[],"[683, 384]",ColorTask,33.0,35.0,,,HRV,HRV_0146,2022-11-30 18:17:06
,wl-rdm,152,525810,0.0-8.35-0.35,1.0,153.0,,,,,,,[],,,,,,62.5,0.0,u,0.0,True,616.9000000357628,37.0,60.0,40.0,False,,258.2364906120713,[],"[683, 384]",ColorTask,34.0,36.0,,,HRV,HRV_0146,2022-11-30 18:17:06
,wl-rdm,153,527927,0.0-8.36-0.36,1.0,154.0,,,,,,,[],,,,,,53.2,1.0,i,1.0,True,679.8000000119209,41.0,60.0,40.0,False,,359.7925974860741,[],"[683, 384]",ColorTask,35.0,37.0,,,HRV,HRV_0146,2022-11-30 18:17:06
,wl-rdm,154,529876,0.0-8.37-0.37,1.0,155.0,,,,,,,[],,,,,,87.9,0.0,u,0.0,True,544.3000000119209,33.0,60.0,40.0,False,,337.55191429793393,[],"[683, 384]",ColorTask,36.0,38.0,,,HRV,HRV_0146,2022-11-30 18:17:06
,wl-rdm,155,531876,0.0-8.38-0.38,1.0,156.0,,,,,,,[],,,,,,87.9,0.0,u,0.0,True,635.1999999880791,38.0,60.0,40.0,False,,291.64377556240686,[],"[683, 384]",ColorTask,37.0,39.0,,,HRV,HRV_0146,2022-11-30 18:17:06
,wl-rdm,156,533810,0.0-8.39-0.39,1.0,157.0,,,,,,,[],,,,,,56.4,0.0,u,0.0,True,594.0,36.0,60.0,40.0,False,,276.48734092402105,[],"[683, 384]",ColorTask,38.0,40.0,,,HRV,HRV_0146,2022-11-30 18:17:06
,wl-rdm,157,535726,0.0-8.40-0.40,1.0,158.0,,,,,,,[],,,,,,73.6,0.0,u,0.0,True,571.1999999880791,35.0,60.0,40.0,False,,263.4274226038877,[],"[683, 384]",ColorTask,39.0,41.0,,,HRV,HRV_0146,2022-11-30 18:17:06
,wl-rdm,158,537593,0.0-8.41-0.41,1.0,159.0,,,,,,,[],,,,,,87.9,1.0,u,0.0,False,511.69999998807907,30.0,60.0,40.0,False,,278.4535881307932,[],"[683, 384]",ColorTask,38.0,42.0,,,HRV,HRV_0146,2022-11-30 18:17:06
,wl-rdm,159,539660,0.0-8.42-0.42,1.0,160.0,,,,,,,[],,,,,,50.0,0.0,u,0.0,True,763.4000000357628,46.0,60.0,40.0,False,,231.3717612221025,[],"[683, 384]",ColorTask,39.0,43.0,,,HRV,HRV_0146,2022-11-30 18:17:06
,wl-rdm,160,541709,0.0-8.43-0.43,1.0,161.0,,,,,,,[],,,,,,50.0,1.0,i,1.0,True,658.2000000476837,40.0,60.0,40.0,False,,315.7861354873088,[],"[683, 384]",ColorTask,40.0,44.0,,,HRV,HRV_0146,2022-11-30 18:17:06
,wl-rdm,161,543876,0.0-8.44-0.44,1.0,162.0,,,,,,,[],,,,,,53.2,0.0,i,1.0,False,771.1999999880791,45.0,60.0,40.0,False,,307.31898951612857,[],"[683, 384]",ColorTask,39.0,45.0,,,HRV,HRV_0146,2022-11-30 18:17:06
,wl-rdm,162,545876,0.0-8.45-0.45,1.0,163.0,,,,,,,[],,,,,,62.5,1.0,u,0.0,False,691.1999999284744,42.0,60.0,40.0,False,,227.28403035204863,[],"[683, 384]",ColorTask,38.0,46.0,,,HRV,HRV_0146,2022-11-30 18:17:06
,wl-rdm,163,548175,0.0-8.46-0.46,1.0,164.0,,,,,,,[],,,,,,62.5,1.0,i,1.0,True,991.1000000238419,60.0,60.0,40.0,False,,220.05362122740473,[],"[683, 384]",ColorTask,39.0,47.0,,,HRV,HRV_0146,2022-11-30 18:17:06
,wl-rdm,164,550276,0.0-8.47-0.47,1.0,165.0,,,,,,,[],,,,,,50.0,0.0,u,0.0,True,722.8999999761581,43.0,60.0,40.0,False,,291.8108180690524,[],"[683, 384]",ColorTask,40.0,48.0,,,HRV,HRV_0146,2022-11-30 18:17:06
,wl-rdm,165,552360,0.0-8.48-0.48,1.0,166.0,,,,,,,[],,,,,,53.2,0.0,i,1.0,False,671.6999999880791,41.0,60.0,40.0,False,,335.19841523045403,[],"[683, 384]",ColorTask,39.0,49.0,,,HRV,HRV_0146,2022-11-30 18:17:06
,wl-rdm,166,554310,0.0-8.49-0.49,1.0,167.0,,,,,,,[],,,,,,73.6,1.0,i,1.0,True,587.5,36.0,60.0,40.0,False,,268.986086935285,[],"[683, 384]",ColorTask,40.0,50.0,,,HRV,HRV_0146,2022-11-30 18:17:06
,wl-rdm,167,556243,0.0-8.50-0.50,1.0,168.0,,,,,,,[],,,,,,56.4,1.0,i,1.0,True,642.4000000357628,39.0,60.0,40.0,False,,229.95027407785327,[],"[683, 384]",ColorTask,41.0,51.0,,,HRV,HRV_0146,2022-11-30 18:17:06
,wl-rdm,168,558193,0.0-8.51-0.51,1.0,169.0,,,,,,,[],,,,,,56.4,0.0,u,0.0,True,660.1999999880791,39.0,60.0,40.0,False,,217.99011464729574,[],"[683, 384]",ColorTask,42.0,52.0,,,HRV,HRV_0146,2022-11-30 18:17:06
,wl-rdm,169,560344,0.0-8.52-0.52,1.0,170.0,,,,,,,[],,,,,,53.2,0.0,i,1.0,False,692.0999999642372,42.0,60.0,40.0,False,,391.97368773807364,[],"[683, 384]",ColorTask,41.0,53.0,,,HRV,HRV_0146,2022-11-30 18:17:06
,wl-rdm,170,562510,0.0-8.53-0.53,1.0,171.0,,,,,,,[],,,,,,50.0,1.0,u,0.0,False,846.0999999642372,51.0,60.0,40.0,False,,266.06629180875996,[],"[683, 384]",ColorTask,40.0,54.0,,,HRV,HRV_0146,2022-11-30 18:17:06
,wl-rdm,171,564529,0.0-8.54-0.54,1.0,172.0,,,,,,,[],,,,,,73.6,1.0,i,1.0,True,625.7999999523163,38.0,60.0,40.0,False,,320.81444622354525,[],"[683, 384]",ColorTask,41.0,55.0,,,HRV,HRV_0146,2022-11-30 18:17:06
,wl-rdm,172,566544,0.0-8.55-0.55,1.0,173.0,,,,,,,[],,,,,,87.9,0.0,u,0.0,True,609.5999999642372,37.0,60.0,40.0,False,,325.3232226779465,[],"[683, 384]",ColorTask,42.0,56.0,,,HRV,HRV_0146,2022-11-30 18:17:06
,wl-rdm,173,568563,0.0-8.56-0.56,1.0,174.0,,,,,,,[],,,,,,53.2,1.0,i,1.0,True,623.0,38.0,60.0,40.0,False,,326.07145358901244,[],"[683, 384]",ColorTask,43.0,57.0,,,HRV,HRV_0146,2022-11-30 18:17:06
,wl-rdm,174,570527,0.0-8.57-0.57,1.0,175.0,,,,,,,[],,,,,,53.2,1.0,u,0.0,False,539.1999999880791,33.0,60.0,40.0,False,,350.1736239693712,[],"[683, 384]",ColorTask,42.0,58.0,,,HRV,HRV_0146,2022-11-30 18:17:06
,wl-rdm,175,572511,0.0-8.58-0.58,1.0,176.0,,,,,,,[],,,,,,53.2,1.0,u,0.0,False,573.5999999642372,34.0,60.0,40.0,False,,339.8583368569533,[],"[683, 384]",ColorTask,41.0,59.0,,,HRV,HRV_0146,2022-11-30 18:17:06
,wl-rdm,176,574612,0.0-8.59-0.59,1.0,177.0,,,,,,,[],,,,,,73.6,0.0,u,0.0,True,718.6999999880791,43.0,60.0,40.0,False,,302.3484757038571,[],"[683, 384]",ColorTask,42.0,60.0,,,HRV,HRV_0146,2022-11-30 18:17:06
,wl-rdm,177,576811,0.0-8.60-0.60,1.0,178.0,,,,,,,[],,,,,,56.4,0.0,u,0.0,True,782.8999999165535,47.0,60.0,40.0,False,,343.45488768789585,[],"[683, 384]",ColorTask,43.0,61.0,,,HRV,HRV_0146,2022-11-30 18:17:06
,wl-rdm,178,578961,0.0-8.61-0.61,1.0,179.0,,,,,,,[],,,,,,53.2,1.0,i,1.0,True,703.5,43.0,60.0,40.0,False,,357.7376632926944,[],"[683, 384]",ColorTask,44.0,62.0,,,HRV,HRV_0146,2022-11-30 18:17:06
,wl-rdm,179,581227,0.0-8.62-0.62,1.0,180.0,,,,,,,[],,,,,,53.2,1.0,u,0.0,False,855.5,52.0,60.0,40.0,False,,345.6103541240528,[],"[683, 384]",ColorTask,43.0,63.0,,,HRV,HRV_0146,2022-11-30 18:17:06
,wl-rdm,180,583095,0.0-8.63-0.63,1.0,181.0,,,,,,,[],,,,,,87.9,1.0,i,1.0,True,597.8000000119209,35.0,60.0,40.0,False,,203.50775861466525,[],"[683, 384]",ColorTask,44.0,64.0,,,HRV,HRV_0146,2022-11-30 18:17:06
,wl-rdm,181,585078,0.0-8.64-0.64,1.0,182.0,,,,,,,[],,,,,,87.9,1.0,i,1.0,True,556.2000000476837,34.0,60.0,40.0,False,,338.46765654520516,[],"[683, 384]",ColorTask,45.0,65.0,,,HRV,HRV_0146,2022-11-30 18:17:06
,wl-rdm,182,587446,0.0-8.65-0.65,1.0,183.0,,,,,,,[],,,,,,56.4,1.0,i,1.0,True,929.8999999761581,56.0,60.0,40.0,False,,368.62267472272384,[],"[683, 384]",ColorTask,46.0,66.0,,,HRV,HRV_0146,2022-11-30 18:17:06
,wl-rdm,183,589395,0.0-8.66-0.66,1.0,184.0,,,,,,,[],,,,,,62.5,0.0,i,1.0,False,525.9000000357628,32.0,60.0,40.0,False,,355.82860319943154,[],"[683, 384]",ColorTask,45.0,67.0,,,HRV,HRV_0146,2022-11-30 18:17:06
,wl-rdm,184,591262,0.0-8.67-0.67,1.0,185.0,,,,,,,[],,,,,,62.5,1.0,u,0.0,False,525.0999999642372,32.0,60.0,40.0,False,,275.5097705472311,[],"[683, 384]",ColorTask,44.0,68.0,,,HRV,HRV_0146,2022-11-30 18:17:06
,wl-rdm,185,593163,0.0-8.68-0.68,1.0,186.0,,,,,,,[],,,,,,87.9,0.0,u,0.0,True,598.3999999761581,36.0,60.0,40.0,False,,223.47456895909716,[],"[683, 384]",ColorTask,45.0,69.0,,,HRV,HRV_0146,2022-11-30 18:17:06
,wl-rdm,186,595178,0.0-8.69-0.69,1.0,187.0,,,,,,,[],,,,,,50.0,1.0,i,1.0,True,576.5,33.0,60.0,40.0,False,,355.34329024397925,[],"[683, 384]",ColorTask,46.0,70.0,,,HRV,HRV_0146,2022-11-30 18:17:06
,wl-rdm,187,597178,0.0-8.70-0.70,1.0,188.0,,,,,,,[],,,,,,50.0,0.0,i,1.0,False,635.6999999880791,39.0,60.0,40.0,False,,288.7345301835249,[],"[683, 384]",ColorTask,45.0,71.0,,,HRV,HRV_0146,2022-11-30 18:17:06
,wl-rdm,188,599211,0.0-8.71-0.71,1.0,189.0,,,,,,,[],,,,,,87.9,1.0,i,1.0,True,708.9000000357628,42.0,60.0,40.0,False,,237.24474018632037,[],"[683, 384]",ColorTask,46.0,72.0,,,HRV,HRV_0146,2022-11-30 18:17:06
,wl-rdm,189,601146,0.0-8.72-0.72,1.0,190.0,,,,,,,[],,,,,,73.6,0.0,u,0.0,True,558.3999999761581,34.0,60.0,40.0,False,,267.58883056740297,[],"[683, 384]",ColorTask,47.0,73.0,,,HRV,HRV_0146,2022-11-30 18:17:06
,wl-rdm,190,603046,0.0-8.73-0.73,1.0,191.0,,,,,,,[],,,,,,53.2,0.0,i,1.0,False,593.0,36.0,60.0,40.0,False,,245.5226963418939,[],"[683, 384]",ColorTask,46.0,74.0,,,HRV,HRV_0146,2022-11-30 18:17:06
,wl-rdm,191,605012,0.0-8.74-0.74,1.0,192.0,,,,,,,[],,,,,,56.4,1.0,i,1.0,True,600.2000000476837,36.0,60.0,40.0,False,,288.89224648589857,[],"[683, 384]",ColorTask,47.0,75.0,,,HRV,HRV_0146,2022-11-30 18:17:06
,wl-rdm,192,607112,0.0-8.75-0.75,1.0,193.0,,,,,,,[],,,,,,62.5,0.0,u,0.0,True,825.1000000238419,50.0,60.0,40.0,False,,212.82065185832752,[],"[683, 384]",ColorTask,48.0,76.0,,,HRV,HRV_0146,2022-11-30 18:17:06
,wl-rdm,193,609011,0.0-8.76-0.76,1.0,194.0,,,,,,,[],,,,,,73.6,0.0,i,1.0,False,623.6000000238419,38.0,60.0,40.0,False,,214.81495170110185,[],"[683, 384]",ColorTask,47.0,77.0,,,HRV,HRV_0146,2022-11-30 18:17:06
,wl-rdm,194,611095,0.0-8.77-0.77,1.0,195.0,,,,,,,[],,,,,,62.5,1.0,u,0.0,False,638.8000000715256,39.0,60.0,40.0,False,,381.01085315066535,[],"[683, 384]",ColorTask,46.0,78.0,,,HRV,HRV_0146,2022-11-30 18:17:06
,wl-rdm,195,613112,0.0-8.78-0.78,1.0,196.0,,,,,,,[],,,,,,53.2,1.0,u,0.0,False,703.0,43.0,60.0,40.0,False,,234.87009374104127,[],"[683, 384]",ColorTask,45.0,79.0,,,HRV,HRV_0146,2022-11-30 18:17:06
,wl-rdm,196,615079,0.0-8.79-0.79,1.0,197.0,,,,,,,[],,,,,,73.6,0.0,i,1.0,False,681.6999999880791,41.0,60.0,40.0,False,,200.4147799010907,[],"[683, 384]",ColorTask,44.0,80.0,,,HRV,HRV_0146,2022-11-30 18:17:06
,wl-rdm,197,616962,0.0-8.80-0.80,1.0,198.0,,,,,,,[],,,,,,56.4,0.0,i,1.0,False,611.3000000715256,37.0,60.0,40.0,False,,212.42545929426717,[],"[683, 384]",ColorTask,43.0,81.0,,,HRV,HRV_0146,2022-11-30 18:17:06
,wl-rdm,198,618712,0.0-8.81-0.81,1.0,199.0,,,,,,,[],,,,,,56.4,1.0,i,1.0,True,409.5,25.0,60.0,40.0,False,,281.6419601857913,[],"[683, 384]",ColorTask,44.0,82.0,,,HRV,HRV_0146,2022-11-30 18:17:06
,wl-rdm,199,620680,0.0-8.82-0.82,1.0,200.0,,,,,,,[],,,,,,87.9,0.0,u,0.0,True,671.7999999523163,41.0,60.0,40.0,False,,214.09866750803056,[],"[683, 384]",ColorTask,45.0,83.0,,,HRV,HRV_0146,2022-11-30 18:17:06
,wl-rdm,200,622613,0.0-8.83-0.83,1.0,201.0,,,,,,,[],,,,,,62.5,1.0,i,1.0,True,638.4999999403954,39.0,60.0,40.0,False,,230.7758636759966,[],"[683, 384]",ColorTask,46.0,84.0,,,HRV,HRV_0146,2022-11-30 18:17:06
,wl-rdm,201,624578,0.0-8.84-0.84,1.0,202.0,,,,,,,[],,,,,,73.6,0.0,u,0.0,True,507.69999998807907,30.0,60.0,40.0,False,,391.267918925024,[],"[683, 384]",ColorTask,47.0,85.0,,,HRV,HRV_0146,2022-11-30 18:17:06
,wl-rdm,202,626530,0.0-8.85-0.85,1.0,203.0,,,,,,,[],,,,,,87.9,1.0,i,1.0,True,642.6000000238419,39.0,60.0,40.0,False,,216.26820896309982,[],"[683, 384]",ColorTask,48.0,86.0,,,HRV,HRV_0146,2022-11-30 18:17:06
,wl-rdm,203,628512,0.0-8.86-0.86,1.0,204.0,,,,,,,[],,,,,,87.9,1.0,i,1.0,True,537.8000000715256,32.0,60.0,40.0,False,,351.8823123197527,[],"[683, 384]",ColorTask,49.0,87.0,,,HRV,HRV_0146,2022-11-30 18:17:06
,wl-rdm,204,630696,0.0-8.87-0.87,1.0,205.0,,,,,,,[],,,,,,73.6,1.0,i,1.0,True,786.7000000476837,48.0,60.0,40.0,False,,303.62939616264697,[],"[683, 384]",ColorTask,50.0,88.0,,,HRV,HRV_0146,2022-11-30 18:17:06
,wl-rdm,205,632763,0.0-8.88-0.88,1.0,206.0,,,,,,,[],,,,,,50.0,0.0,i,1.0,False,691.6999999880791,42.0,60.0,40.0,False,,313.96059904515334,[],"[683, 384]",ColorTask,49.0,89.0,,,HRV,HRV_0146,2022-11-30 18:17:06
,wl-rdm,206,634796,0.0-8.89-0.89,1.0,207.0,,,,,,,[],,,,,,53.2,0.0,u,0.0,True,628.0999999642372,36.0,60.0,40.0,False,,339.54162369257165,[],"[683, 384]",ColorTask,50.0,90.0,,,HRV,HRV_0146,2022-11-30 18:17:06
,wl-rdm,207,636763,0.0-8.90-0.90,1.0,208.0,,,,,,,[],,,,,,50.0,0.0,i,1.0,False,628.0,38.0,60.0,40.0,False,,282.67511772420306,[],"[683, 384]",ColorTask,49.0,91.0,,,HRV,HRV_0146,2022-11-30 18:17:06
,wl-rdm,208,638679,0.0-8.91-0.91,1.0,209.0,,,,,,,[],,,,,,62.5,0.0,u,0.0,True,579.8000000119209,36.0,60.0,40.0,False,,222.92633396992608,[],"[683, 384]",ColorTask,50.0,92.0,,,HRV,HRV_0146,2022-11-30 18:17:06
,wl-rdm,209,640713,0.0-8.92-0.92,1.0,210.0,,,,,,,[],,,,,,87.9,0.0,u,0.0,True,574.5000000596046,35.0,60.0,40.0,False,,384.0861805469383,[],"[683, 384]",ColorTask,51.0,93.0,,,HRV,HRV_0146,2022-11-30 18:17:06
,wl-rdm,210,642864,0.0-8.93-0.93,1.0,211.0,,,,,,,[],,,,,,56.4,0.0,u,0.0,True,709.2999999523163,43.0,60.0,40.0,False,,356.92577620663144,[],"[683, 384]",ColorTask,52.0,94.0,,,HRV,HRV_0146,2022-11-30 18:17:06
,wl-rdm,211,644714,0.0-8.94-0.94,1.0,212.0,,,,,,,[],,,,,,73.6,1.0,i,1.0,True,533.5999999642372,32.0,60.0,40.0,False,,245.45787793660122,[],"[683, 384]",ColorTask,53.0,95.0,,,HRV,HRV_0146,2022-11-30 18:17:06
,wl-rdm,212,646713,0.0-8.95-0.95,1.0,213.0,,,,,,,[],,,,,,73.6,1.0,i,1.0,True,640.3999999761581,39.0,60.0,40.0,False,,240.56485483756705,[],"[683, 384]",ColorTask,54.0,96.0,,,HRV,HRV_0146,2022-11-30 18:17:06
,wl-rdm,213,648697,0.0-8.96-0.96,1.0,214.0,,,,,,,[],,,,,,62.5,1.0,i,1.0,True,570.7999999523163,35.0,60.0,40.0,False,,347.57829912249633,[],"[683, 384]",ColorTask,55.0,97.0,,,HRV,HRV_0146,2022-11-30 18:17:06
,wl-rdm,214,650530,0.0-8.97-0.97,1.0,215.0,,,,,,,[],,,,,,56.4,0.0,i,1.0,False,491.30000001192093,30.0,60.0,40.0,False,,277.42029931485445,[],"[683, 384]",ColorTask,54.0,98.0,,,HRV,HRV_0146,2022-11-30 18:17:06
,wl-rdm,215,652313,0.0-8.98-0.98,1.0,216.0,,,,,,,[],,,,,,73.6,1.0,i,1.0,True,484.89999997615814,29.0,60.0,40.0,False,,223.68623985605467,[],"[683, 384]",ColorTask,55.0,99.0,,,HRV,HRV_0146,2022-11-30 18:17:06
,wl-rdm,216,654113,0.0-8.99-0.99,1.0,217.0,,,,,,,[],,,,,,87.9,1.0,i,1.0,True,462.19999998807907,28.0,60.0,40.0,False,,283.96047644250905,[],"[683, 384]",ColorTask,56.0,100.0,,,HRV,HRV_0146,2022-11-30 18:17:06
,wl-rdm,217,656030,0.0-8.100-0.100,1.0,218.0,,,,,,,[],,,,,,62.5,1.0,i,1.0,True,565.7999999523163,34.0,60.0,40.0,False,,293.8415613376201,[],"[683, 384]",ColorTask,57.0,101.0,,,HRV,HRV_0146,2022-11-30 18:17:06
,wl-rdm,218,657930,0.0-8.101-0.101,1.0,219.0,,,,,,,[],,,,,,62.5,0.0,i,1.0,False,519.0,32.0,60.0,40.0,False,,311.3153423216995,[],"[683, 384]",ColorTask,56.0,102.0,,,HRV,HRV_0146,2022-11-30 18:17:06
,wl-rdm,219,659797,0.0-8.102-0.102,1.0,220.0,,,,,,,[],,,,,,50.0,1.0,i,1.0,True,485.5,30.0,60.0,40.0,False,,294.19244356808895,[],"[683, 384]",ColorTask,57.0,103.0,,,HRV,HRV_0146,2022-11-30 18:17:06
,wl-rdm,220,661547,0.0-8.103-0.103,1.0,221.0,,,,,,,[],,,,,,87.9,1.0,i,1.0,True,456.69999998807907,28.0,60.0,40.0,False,,231.52226895154558,[],"[683, 384]",ColorTask,58.0,104.0,,,HRV,HRV_0146,2022-11-30 18:17:06
,wl-rdm,221,663399,0.0-8.104-0.104,1.0,222.0,,,,,,,[],,,,,,50.0,0.0,i,1.0,False,489.80000001192093,30.0,60.0,40.0,False,,298.6922853499608,[],"[683, 384]",ColorTask,57.0,105.0,,,HRV,HRV_0146,2022-11-30 18:17:06
,wl-rdm,222,665114,0.0-8.105-0.105,1.0,223.0,,,,,,,[],,,,,,50.0,1.0,i,1.0,True,416.10000002384186,25.0,60.0,40.0,False,,246.14459017384513,[],"[683, 384]",ColorTask,58.0,106.0,,,HRV,HRV_0146,2022-11-30 18:17:06
,wl-rdm,223,666965,0.0-8.106-0.106,1.0,224.0,,,,,,,[],,,,,,87.9,1.0,i,1.0,True,395.4000000357628,24.0,60.0,40.0,False,,368.94494073585463,[],"[683, 384]",ColorTask,59.0,107.0,,,HRV,HRV_0146,2022-11-30 18:17:06
,wl-rdm,224,668780,0.0-8.107-0.107,1.0,225.0,,,,,,,[],,,,,,62.5,0.0,i,1.0,False,480.10000002384186,29.0,60.0,40.0,False,,257.1508120916501,[],"[683, 384]",ColorTask,58.0,108.0,,,HRV,HRV_0146,2022-11-30 18:17:06
,wl-html-button-response,225,670705,0.0-9.0-0.0,,,,,,,,,,1917.300000011921,,0,,,,,,,,,,,,,,,,,,,,<h3>End of this session. Thank you!</h3><br>,['Close window'],HRV,HRV_0146,2022-11-30 18:17:06
