trialN,stimuli,trialStartTime,trialStartTime_UNIX,stimulus1,stimulus2,stimulus1Bid,stimulus2Bid,delta,selected,rt,rt_UNIX,rt_perfnow,receivedResponse,rsp,trialEndTime,trialDuration,trialEndTime_UNIX,trialDuration_UNIX,exp,subjectId,date
0,"[{'imgObject': {}, 'id': 'cocktailshrimp', 'src': '/static/foodstim60/cocktailshrimp.jpg', 'key': 'u', 'origWidth': 410, 'origHeight': 410, 'width': 410, 'height': 410, 'widthPercent': 0.45, 'rescaleHeight': False, 'trialN': 0, 'loaded': True, 'loadedTime': 2728.5, 'positionName': 'LEFT', 'positionCoords': [245.68, 179], 'bid': 5.43}, {'imgObject': {}, 'id': 'Grapes', 'src': '/static/foodstim60/Grapes.jpg', 'key': 'i', 'origWidth': 411, 'origHeight': 411, 'width': 411, 'height': 411, 'widthPercent': 0.45, 'rescaleHeight': False, 'trialN': 0, 'loaded': True, 'loadedTime': 2669.599999964237, 'positionName': 'RIGHT', 'positionCoords': [710.32, 178.5], 'bid': 5.2700000000000005}]",2457.0,1669830472392,cocktailshrimp,Grapes,5.43,5.2700000000000005,-0.15999999999999925,cocktailshrimp,45.80000001192093,53,52.5,True,u,3111.599999964237,654.5999999642372,1669830473047,655,HRV,HRV_0146,2022-11-30 17:49:57
1,"[{'imgObject': {}, 'id': 'kiwi', 'src': '/static/foodstim60/kiwi.jpg', 'key': 'u', 'origWidth': 410, 'origHeight': 410, 'width': 410, 'height': 410, 'widthPercent': 0.45, 'rescaleHeight': False, 'trialN': 1, 'loaded': True, 'loadedTime': 3392.899999976158, 'positionName': 'LEFT', 'positionCoords': [245.68, 179], 'bid': 5.86}, {'imgObject': {}, 'id': 'sushi w_condiments', 'src': '/static/foodstim60/sushi w_condiments.jpg', 'key': 'i', 'origWidth': 410, 'origHeight': 410, 'width': 410, 'height': 410, 'widthPercent': 0.45, 'rescaleHeight': False, 'trialN': 1, 'loaded': True, 'loadedTime': 3393.599999964237, 'positionName': 'RIGHT', 'positionCoords': [710.32, 179], 'bid': 5.73}]",3112.5,1669830473048,kiwi,sushi w_condiments,5.86,5.73,-0.1299999999999999,kiwi,78.19999998807907,104,103.89999997615814,True,u,4275.699999988079,1163.199999988079,1669830474211,1163,HRV,HRV_0146,2022-11-30 17:49:57
2,"[{'imgObject': {}, 'id': 'grilled chicken strips', 'src': '/static/foodstim60/grilled chicken strips.jpg', 'key': 'u', 'origWidth': 410, 'origHeight': 411, 'width': 410, 'height': 411, 'widthPercent': 0.45, 'rescaleHeight': False, 'trialN': 2, 'loaded': True, 'loadedTime': 4300, 'positionName': 'LEFT', 'positionCoords': [245.68, 178.5], 'bid': 4.48}, {'imgObject': {}, 'id': 'corn cob', 'src': '/static/foodstim60/corn cob.jpg', 'key': 'i', 'origWidth': 411, 'origHeight': 411, 'width': 411, 'height': 411, 'widthPercent': 0.45, 'rescaleHeight': False, 'trialN': 2, 'loaded': True, 'loadedTime': 4300.199999988079, 'positionName': 'RIGHT', 'positionCoords': [710.32, 178.5], 'bid': 4.3100000000000005}]",4278.099999964237,1669830474213,grilled chicken strips,corn cob,4.48,4.3100000000000005,-0.16999999999999993,corn cob,178.0,185,184.4000000357628,True,i,4968.199999988079,690.1000000238419,1669830474903,690,HRV,HRV_0146,2022-11-30 17:49:57
3,"[{'imgObject': {}, 'id': 'turkeysandwich', 'src': '/static/foodstim60/turkeysandwich.jpg', 'key': 'u', 'origWidth': 409, 'origHeight': 409, 'width': 409, 'height': 409, 'widthPercent': 0.45, 'rescaleHeight': False, 'trialN': 3, 'loaded': True, 'loadedTime': 4970.899999976158, 'positionName': 'LEFT', 'positionCoords': [246.68, 179.5], 'bid': 5.58}, {'imgObject': {}, 'id': 'Grapes', 'src': '/static/foodstim60/Grapes.jpg', 'key': 'i', 'origWidth': 411, 'origHeight': 411, 'width': 411, 'height': 411, 'widthPercent': 0.45, 'rescaleHeight': False, 'trialN': 3, 'loaded': True, 'loadedTime': 4971.300000011921, 'positionName': 'RIGHT', 'positionCoords': [710.32, 178.5], 'bid': 5.2700000000000005}]",4968.899999976158,1669830474904,turkeysandwich,Grapes,5.58,5.2700000000000005,-0.3099999999999996,Grapes,33.80000001192093,39,39.0,True,i,5509.5,540.6000000238419,1669830475445,541,HRV,HRV_0146,2022-11-30 17:49:57
4,"[{'imgObject': {}, 'id': 'bagel plain', 'src': '/static/foodstim60/bagel plain.jpg', 'key': 'u', 'origWidth': 410, 'origHeight': 410, 'width': 410, 'height': 410, 'widthPercent': 0.45, 'rescaleHeight': False, 'trialN': 4, 'loaded': True, 'loadedTime': 5512.199999988079, 'positionName': 'LEFT', 'positionCoords': [245.68, 179], 'bid': 4.54}, {'imgObject': {}, 'id': 'popsicles', 'src': '/static/foodstim60/popsicles.jpg', 'key': 'i', 'origWidth': 410, 'origHeight': 410, 'width': 410, 'height': 410, 'widthPercent': 0.45, 'rescaleHeight': False, 'trialN': 4, 'loaded': True, 'loadedTime': 5513, 'positionName': 'RIGHT', 'positionCoords': [710.32, 179], 'bid': 4.64}]",5510.199999988079,1669830475445,bagel plain,popsicles,4.54,4.64,0.09999999999999964,popsicles,140.39999997615814,147,146.69999998807907,True,i,6160.800000011921,650.6000000238419,1669830476096,651,HRV,HRV_0146,2022-11-30 17:49:57
5,"[{'imgObject': {}, 'id': 'popsicles', 'src': '/static/foodstim60/popsicles.jpg', 'key': 'u', 'origWidth': 410, 'origHeight': 410, 'width': 410, 'height': 410, 'widthPercent': 0.45, 'rescaleHeight': False, 'trialN': 5, 'loaded': True, 'loadedTime': 6164.5, 'positionName': 'LEFT', 'positionCoords': [245.68, 179], 'bid': 4.64}, {'imgObject': {}, 'id': 'kiwi', 'src': '/static/foodstim60/kiwi.jpg', 'key': 'i', 'origWidth': 410, 'origHeight': 410, 'width': 410, 'height': 410, 'widthPercent': 0.45, 'rescaleHeight': False, 'trialN': 5, 'loaded': True, 'loadedTime': 6165.199999988079, 'positionName': 'RIGHT', 'positionCoords': [710.32, 179], 'bid': 5.86}]",6162.099999964237,1669830476097,popsicles,kiwi,4.64,5.86,1.2200000000000006,kiwi,84.60000002384186,91,91.20000004768372,True,i,6754.800000011921,592.7000000476837,1669830476690,593,HRV,HRV_0146,2022-11-30 17:49:57
6,"[{'imgObject': {}, 'id': 'rigatoni', 'src': '/static/foodstim60/rigatoni.jpg', 'key': 'u', 'origWidth': 411, 'origHeight': 411, 'width': 411, 'height': 411, 'widthPercent': 0.45, 'rescaleHeight': False, 'trialN': 6, 'loaded': True, 'loadedTime': 6757.699999988079, 'positionName': 'LEFT', 'positionCoords': [244.68, 178.5], 'bid': 4.8500000000000005}, {'imgObject': {}, 'id': 'hashbrowns', 'src': '/static/foodstim60/hashbrowns.jpg', 'key': 'i', 'origWidth': 411, 'origHeight': 410, 'width': 411, 'height': 410, 'widthPercent': 0.45, 'rescaleHeight': False, 'trialN': 6, 'loaded': True, 'loadedTime': 6758, 'positionName': 'RIGHT', 'positionCoords': [710.32, 179], 'bid': 6.5200000000000005}]",6755.599999964237,1669830476691,rigatoni,hashbrowns,4.8500000000000005,6.5200000000000005,1.67,hashbrowns,75.10000002384186,80,80.5,True,i,7341.599999964237,586.0,1669830477277,586,HRV,HRV_0146,2022-11-30 17:49:57
7,"[{'imgObject': {}, 'id': 'blueberries', 'src': '/static/foodstim60/blueberries.jpg', 'key': 'u', 'origWidth': 411, 'origHeight': 411, 'width': 411, 'height': 411, 'widthPercent': 0.45, 'rescaleHeight': False, 'trialN': 7, 'loaded': True, 'loadedTime': 7344.399999976158, 'positionName': 'LEFT', 'positionCoords': [244.68, 178.5], 'bid': 5.1000000000000005}, {'imgObject': {}, 'id': 'ice cream sundae 002', 'src': '/static/foodstim60/ice cream sundae 002.jpg', 'key': 'i', 'origWidth': 409, 'origHeight': 409, 'width': 409, 'height': 409, 'widthPercent': 0.45, 'rescaleHeight': False, 'trialN': 7, 'loaded': True, 'loadedTime': 7344.800000011921, 'positionName': 'RIGHT', 'positionCoords': [710.32, 179.5], 'bid': 5.62}]",7342.399999976158,1669830477278,blueberries,ice cream sundae 002,5.1000000000000005,5.62,0.5199999999999996,ice cream sundae 002,58.19999998807907,64,64.0,True,i,7908.0,565.6000000238419,1669830477843,565,HRV,HRV_0146,2022-11-30 17:49:57
8,"[{'imgObject': {}, 'id': 'burger', 'src': '/static/foodstim60/burger.jpg', 'key': 'u', 'origWidth': 409, 'origHeight': 409, 'width': 409, 'height': 409, 'widthPercent': 0.45, 'rescaleHeight': False, 'trialN': 8, 'loaded': True, 'loadedTime': 7910.800000011921, 'positionName': 'LEFT', 'positionCoords': [246.68, 179.5], 'bid': 4.29}, {'imgObject': {}, 'id': 'hotdog w must', 'src': '/static/foodstim60/hotdog w must.jpg', 'key': 'i', 'origWidth': 409, 'origHeight': 409, 'width': 409, 'height': 409, 'widthPercent': 0.45, 'rescaleHeight': False, 'trialN': 8, 'loaded': True, 'loadedTime': 7911.5, 'positionName': 'RIGHT', 'positionCoords': [710.32, 179.5], 'bid': 4.16}]",7908.699999988079,1669830477844,burger,hotdog w must,4.29,4.16,-0.1299999999999999,hotdog w must,59.89999997615814,65,65.10000002384186,True,i,8474.300000011921,565.6000000238419,1669830478409,565,HRV,HRV_0146,2022-11-30 17:49:57
9,"[{'imgObject': {}, 'id': 'froot loops w milk', 'src': '/static/foodstim60/froot loops w milk.jpg', 'key': 'u', 'origWidth': 410, 'origHeight': 410, 'width': 410, 'height': 410, 'widthPercent': 0.45, 'rescaleHeight': False, 'trialN': 9, 'loaded': True, 'loadedTime': 8477.099999964237, 'positionName': 'LEFT', 'positionCoords': [245.68, 179], 'bid': 5.13}, {'imgObject': {}, 'id': 'turkey sandwich', 'src': '/static/foodstim60/turkey sandwich.jpg', 'key': 'i', 'origWidth': 409, 'origHeight': 409, 'width': 409, 'height': 409, 'widthPercent': 0.45, 'rescaleHeight': False, 'trialN': 9, 'loaded': True, 'loadedTime': 8477.800000011921, 'positionName': 'RIGHT', 'positionCoords': [710.32, 179.5], 'bid': 4.82}]",8474.899999976158,1669830478410,froot loops w milk,turkey sandwich,5.13,4.82,-0.3099999999999996,turkey sandwich,73.5,79,78.90000003576279,True,i,9059.300000011921,584.4000000357628,1669830478994,584,HRV,HRV_0146,2022-11-30 17:49:57
10,"[{'imgObject': {}, 'id': 'cheerios', 'src': '/static/foodstim60/cheerios.jpg', 'key': 'u', 'origWidth': 409, 'origHeight': 410, 'width': 409, 'height': 410, 'widthPercent': 0.45, 'rescaleHeight': False, 'trialN': 10, 'loaded': True, 'loadedTime': 9062, 'positionName': 'LEFT', 'positionCoords': [246.68, 179], 'bid': 4.13}, {'imgObject': {}, 'id': 'salmon', 'src': '/static/foodstim60/salmon.jpg', 'key': 'i', 'origWidth': 410, 'origHeight': 409, 'width': 410, 'height': 409, 'widthPercent': 0.45, 'rescaleHeight': False, 'trialN': 10, 'loaded': True, 'loadedTime': 9062.399999976158, 'positionName': 'RIGHT', 'positionCoords': [710.32, 179.5], 'bid': 4.13}]",9059.899999976158,1669830478995,cheerios,salmon,4.13,4.13,0.0,salmon,64.5,72,71.80000001192093,True,i,9632.599999964237,572.6999999880791,1669830479568,573,HRV,HRV_0146,2022-11-30 17:49:57
11,"[{'imgObject': {}, 'id': 'cantaloupe', 'src': '/static/foodstim60/cantaloupe.jpg', 'key': 'u', 'origWidth': 409, 'origHeight': 409, 'width': 409, 'height': 409, 'widthPercent': 0.45, 'rescaleHeight': False, 'trialN': 11, 'loaded': True, 'loadedTime': 9635.199999988079, 'positionName': 'LEFT', 'positionCoords': [246.68, 179.5], 'bid': 4.41}, {'imgObject': {}, 'id': 'hotdog w must', 'src': '/static/foodstim60/hotdog w must.jpg', 'key': 'i', 'origWidth': 409, 'origHeight': 409, 'width': 409, 'height': 409, 'widthPercent': 0.45, 'rescaleHeight': False, 'trialN': 11, 'loaded': True, 'loadedTime': 9635.599999964237, 'positionName': 'RIGHT', 'positionCoords': [710.32, 179.5], 'bid': 4.16}]",9633.199999988079,1669830479568,cantaloupe,hotdog w must,4.41,4.16,-0.25,hotdog w must,96.10000002384186,101,100.39999997615814,True,i,10238.800000011921,605.6000000238419,1669830480174,606,HRV,HRV_0146,2022-11-30 17:49:57
12,"[{'imgObject': {}, 'id': 'blackbeanswithrice', 'src': '/static/foodstim60/blackbeanswithrice.jpg', 'key': 'u', 'origWidth': 410, 'origHeight': 410, 'width': 410, 'height': 410, 'widthPercent': 0.45, 'rescaleHeight': False, 'trialN': 12, 'loaded': True, 'loadedTime': 10241.399999976158, 'positionName': 'LEFT', 'positionCoords': [245.68, 179], 'bid': 5.17}, {'imgObject': {}, 'id': 'salad w chicken', 'src': '/static/foodstim60/salad w chicken.jpg', 'key': 'i', 'origWidth': 411, 'origHeight': 411, 'width': 411, 'height': 411, 'widthPercent': 0.45, 'rescaleHeight': False, 'trialN': 12, 'loaded': True, 'loadedTime': 10242, 'positionName': 'RIGHT', 'positionCoords': [710.32, 178.5], 'bid': 5.21}]",10239.399999976158,1669830480175,blackbeanswithrice,salad w chicken,5.17,5.21,0.040000000000000036,salad w chicken,142.0,147,147.60000002384186,True,i,10887.300000011921,647.9000000357628,1669830480823,648,HRV,HRV_0146,2022-11-30 17:49:57
13,"[{'imgObject': {}, 'id': 'apple slices', 'src': '/static/foodstim60/apple slices.jpg', 'key': 'u', 'origWidth': 409, 'origHeight': 410, 'width': 409, 'height': 410, 'widthPercent': 0.45, 'rescaleHeight': False, 'trialN': 13, 'loaded': True, 'loadedTime': 10891, 'positionName': 'LEFT', 'positionCoords': [246.68, 179], 'bid': 5.48}, {'imgObject': {}, 'id': 'fruitsalad', 'src': '/static/foodstim60/fruitsalad.jpg', 'key': 'i', 'origWidth': 410, 'origHeight': 410, 'width': 410, 'height': 410, 'widthPercent': 0.45, 'rescaleHeight': False, 'trialN': 13, 'loaded': True, 'loadedTime': 10891.599999964237, 'positionName': 'RIGHT', 'positionCoords': [710.32, 179], 'bid': 5.23}]",10888.099999964237,1669830480823,apple slices,fruitsalad,5.48,5.23,-0.25,fruitsalad,106.30000001192093,112,111.5,True,i,11501.0,612.9000000357628,1669830481436,613,HRV,HRV_0146,2022-11-30 17:49:57
14,"[{'imgObject': {}, 'id': 'chickenfingers', 'src': '/static/foodstim60/chickenfingers.jpg', 'key': 'u', 'origWidth': 410, 'origHeight': 410, 'width': 410, 'height': 410, 'widthPercent': 0.45, 'rescaleHeight': False, 'trialN': 14, 'loaded': True, 'loadedTime': 11503.800000011921, 'positionName': 'LEFT', 'positionCoords': [245.68, 179], 'bid': 4.41}, {'imgObject': {}, 'id': 'cantaloupe', 'src': '/static/foodstim60/cantaloupe.jpg', 'key': 'i', 'origWidth': 409, 'origHeight': 409, 'width': 409, 'height': 409, 'widthPercent': 0.45, 'rescaleHeight': False, 'trialN': 14, 'loaded': True, 'loadedTime': 11504.199999988079, 'positionName': 'RIGHT', 'positionCoords': [710.32, 179.5], 'bid': 4.41}]",11501.800000011921,1669830481437,chickenfingers,cantaloupe,4.41,4.41,0.0,cantaloupe,38.59999996423721,44,44.0,True,i,12047.099999964237,545.2999999523163,1669830481982,545,HRV,HRV_0146,2022-11-30 17:49:57
15,"[{'imgObject': {}, 'id': 'shreddedwheatwithmilk', 'src': '/static/foodstim60/shreddedwheatwithmilk.jpg', 'key': 'u', 'origWidth': 410, 'origHeight': 410, 'width': 410, 'height': 410, 'widthPercent': 0.45, 'rescaleHeight': False, 'trialN': 15, 'loaded': True, 'loadedTime': 12049.599999964237, 'positionName': 'LEFT', 'positionCoords': [245.68, 179], 'bid': 4.79}, {'imgObject': {}, 'id': 'tacos', 'src': '/static/foodstim60/tacos.jpg', 'key': 'i', 'origWidth': 411, 'origHeight': 411, 'width': 411, 'height': 411, 'widthPercent': 0.45, 'rescaleHeight': False, 'trialN': 15, 'loaded': True, 'loadedTime': 12049.899999976158, 'positionName': 'RIGHT', 'positionCoords': [710.32, 178.5], 'bid': 5.04}]",12047.899999976158,1669830481983,shreddedwheatwithmilk,tacos,4.79,5.04,0.25,tacos,59.5,65,64.69999998807907,True,i,12616.099999964237,568.1999999880791,1669830482551,568,HRV,HRV_0146,2022-11-30 17:49:57
16,"[{'imgObject': {}, 'id': 'rigatoni', 'src': '/static/foodstim60/rigatoni.jpg', 'key': 'u', 'origWidth': 411, 'origHeight': 411, 'width': 411, 'height': 411, 'widthPercent': 0.45, 'rescaleHeight': False, 'trialN': 16, 'loaded': True, 'loadedTime': 12618.699999988079, 'positionName': 'LEFT', 'positionCoords': [244.68, 178.5], 'bid': 4.8500000000000005}, {'imgObject': {}, 'id': 'seaweed', 'src': '/static/foodstim60/seaweed.jpg', 'key': 'i', 'origWidth': 410, 'origHeight': 410, 'width': 410, 'height': 410, 'widthPercent': 0.45, 'rescaleHeight': False, 'trialN': 16, 'loaded': True, 'loadedTime': 12619, 'positionName': 'RIGHT', 'positionCoords': [710.32, 179], 'bid': 4.94}]",12616.800000011921,1669830482552,rigatoni,seaweed,4.8500000000000005,4.94,0.08999999999999986,seaweed,45.5,51,50.799999952316284,True,i,13169.399999976158,552.5999999642372,1669830483105,553,HRV,HRV_0146,2022-11-30 17:49:57
17,"[{'imgObject': {}, 'id': 'tacos', 'src': '/static/foodstim60/tacos.jpg', 'key': 'u', 'origWidth': 411, 'origHeight': 411, 'width': 411, 'height': 411, 'widthPercent': 0.45, 'rescaleHeight': False, 'trialN': 17, 'loaded': True, 'loadedTime': 13172.099999964237, 'positionName': 'LEFT', 'positionCoords': [244.68, 178.5], 'bid': 5.04}, {'imgObject': {}, 'id': 'froot loops w milk', 'src': '/static/foodstim60/froot loops w milk.jpg', 'key': 'i', 'origWidth': 410, 'origHeight': 410, 'width': 410, 'height': 410, 'widthPercent': 0.45, 'rescaleHeight': False, 'trialN': 17, 'loaded': True, 'loadedTime': 13173.599999964237, 'positionName': 'RIGHT', 'positionCoords': [710.32, 179], 'bid': 5.13}]",13170.099999964237,1669830483105,tacos,froot loops w milk,5.04,5.13,0.08999999999999986,froot loops w milk,49.10000002384186,54,53.700000047683716,True,i,13724.199999988079,554.1000000238419,1669830483660,555,HRV,HRV_0146,2022-11-30 17:49:57
18,"[{'imgObject': {}, 'id': 'chicken nuggets2', 'src': '/static/foodstim60/chicken nuggets2.jpg', 'key': 'u', 'origWidth': 410, 'origHeight': 409, 'width': 410, 'height': 409, 'widthPercent': 0.45, 'rescaleHeight': False, 'trialN': 18, 'loaded': True, 'loadedTime': 13728.099999964237, 'positionName': 'LEFT', 'positionCoords': [245.68, 179.5], 'bid': 4.32}, {'imgObject': {}, 'id': 'fruitsalad', 'src': '/static/foodstim60/fruitsalad.jpg', 'key': 'i', 'origWidth': 410, 'origHeight': 410, 'width': 410, 'height': 410, 'widthPercent': 0.45, 'rescaleHeight': False, 'trialN': 18, 'loaded': True, 'loadedTime': 13728.699999988079, 'positionName': 'RIGHT', 'positionCoords': [710.32, 179], 'bid': 5.23}]",13725.800000011921,1669830483661,chicken nuggets2,fruitsalad,4.32,5.23,0.9100000000000001,fruitsalad,120.39999997615814,127,126.5,True,i,14353.800000011921,628.0,1669830484289,628,HRV,HRV_0146,2022-11-30 17:49:57
19,"[{'imgObject': {}, 'id': 'turkey sandwich', 'src': '/static/foodstim60/turkey sandwich.jpg', 'key': 'u', 'origWidth': 409, 'origHeight': 409, 'width': 409, 'height': 409, 'widthPercent': 0.45, 'rescaleHeight': False, 'trialN': 19, 'loaded': True, 'loadedTime': 14355.899999976158, 'positionName': 'LEFT', 'positionCoords': [246.68, 179.5], 'bid': 4.82}, {'imgObject': {}, 'id': 'yogurt no spoon', 'src': '/static/foodstim60/yogurt no spoon.jpg', 'key': 'i', 'origWidth': 411, 'origHeight': 410, 'width': 411, 'height': 410, 'widthPercent': 0.45, 'rescaleHeight': False, 'trialN': 19, 'loaded': True, 'loadedTime': 14356.399999976158, 'positionName': 'RIGHT', 'positionCoords': [710.32, 179], 'bid': 4.8500000000000005}]",14354.5,1669830484290,turkey sandwich,yogurt no spoon,4.82,4.8500000000000005,0.03000000000000025,turkey sandwich,122.69999998807907,128,127.89999997615814,True,u,14983.0,628.5,1669830484918,628,HRV,HRV_0146,2022-11-30 17:49:57
20,"[{'imgObject': {}, 'id': 'baked potato', 'src': '/static/foodstim60/baked potato.jpg', 'key': 'u', 'origWidth': 409, 'origHeight': 410, 'width': 409, 'height': 410, 'widthPercent': 0.45, 'rescaleHeight': False, 'trialN': 20, 'loaded': True, 'loadedTime': 14986.099999964237, 'positionName': 'LEFT', 'positionCoords': [246.68, 179], 'bid': 3.79}, {'imgObject': {}, 'id': 'granola w milk', 'src': '/static/foodstim60/granola w milk.jpg', 'key': 'i', 'origWidth': 410, 'origHeight': 410, 'width': 410, 'height': 410, 'widthPercent': 0.45, 'rescaleHeight': False, 'trialN': 20, 'loaded': True, 'loadedTime': 14986.5, 'positionName': 'RIGHT', 'positionCoords': [710.32, 179], 'bid': 4.41}]",14984.0,1669830484919,baked potato,granola w milk,3.79,4.41,0.6200000000000001,baked potato,113.0,119,118.39999997615814,True,u,15606.599999964237,622.5999999642372,1669830485542,623,HRV,HRV_0146,2022-11-30 17:49:57
21,"[{'imgObject': {}, 'id': 'hashbrowns', 'src': '/static/foodstim60/hashbrowns.jpg', 'key': 'u', 'origWidth': 411, 'origHeight': 410, 'width': 411, 'height': 410, 'widthPercent': 0.45, 'rescaleHeight': False, 'trialN': 21, 'loaded': True, 'loadedTime': 15611.199999988079, 'positionName': 'LEFT', 'positionCoords': [244.68, 179], 'bid': 6.5200000000000005}, {'imgObject': {}, 'id': 'mac & cheese', 'src': '/static/foodstim60/mac & cheese.jpg', 'key': 'i', 'origWidth': 410, 'origHeight': 410, 'width': 410, 'height': 410, 'widthPercent': 0.45, 'rescaleHeight': False, 'trialN': 21, 'loaded': True, 'loadedTime': 15611.599999964237, 'positionName': 'RIGHT', 'positionCoords': [710.32, 179], 'bid': 5.43}]",15607.800000011921,1669830485543,hashbrowns,mac & cheese,6.5200000000000005,5.43,-1.0900000000000007,mac & cheese,158.29999995231628,164,163.89999997615814,True,i,16272.199999988079,664.3999999761581,1669830486208,665,HRV,HRV_0146,2022-11-30 17:49:57
22,"[{'imgObject': {}, 'id': 'yogurt no spoon', 'src': '/static/foodstim60/yogurt no spoon.jpg', 'key': 'u', 'origWidth': 411, 'origHeight': 410, 'width': 411, 'height': 410, 'widthPercent': 0.45, 'rescaleHeight': False, 'trialN': 22, 'loaded': True, 'loadedTime': 16277.699999988079, 'positionName': 'LEFT', 'positionCoords': [244.68, 179], 'bid': 4.8500000000000005}, {'imgObject': {}, 'id': 'baked potato', 'src': '/static/foodstim60/baked potato.jpg', 'key': 'i', 'origWidth': 409, 'origHeight': 410, 'width': 409, 'height': 410, 'widthPercent': 0.45, 'rescaleHeight': False, 'trialN': 22, 'loaded': True, 'loadedTime': 16278.099999964237, 'positionName': 'RIGHT', 'positionCoords': [710.32, 179], 'bid': 3.79}]",16274.899999976158,1669830486210,yogurt no spoon,baked potato,4.8500000000000005,3.79,-1.0600000000000005,baked potato,13.199999988079071,17,17.0,True,i,16830.19999998808,555.3000000119209,1669830486766,556,HRV,HRV_0146,2022-11-30 17:49:57
23,"[{'imgObject': {}, 'id': 'orange slices', 'src': '/static/foodstim60/orange slices.jpg', 'key': 'u', 'origWidth': 409, 'origHeight': 410, 'width': 409, 'height': 410, 'widthPercent': 0.45, 'rescaleHeight': False, 'trialN': 23, 'loaded': True, 'loadedTime': 17510.5, 'positionName': 'LEFT', 'positionCoords': [246.68, 179], 'bid': 4.04}, {'imgObject': {}, 'id': 'raspberries', 'src': '/static/foodstim60/raspberries.jpg', 'key': 'i', 'origWidth': 411, 'origHeight': 411, 'width': 411, 'height': 411, 'widthPercent': 0.45, 'rescaleHeight': False, 'trialN': 23, 'loaded': True, 'loadedTime': 17548.19999998808, 'positionName': 'RIGHT', 'positionCoords': [710.32, 178.5], 'bid': 4.38}]",16988.5,1669830486924,orange slices,raspberries,4.04,4.38,0.33999999999999986,raspberries,107.5,431,431.69999998807907,True,i,17923.0,934.5,1669830487858,934,HRV,HRV_0146,2022-11-30 17:49:57
24,"[{'imgObject': {}, 'id': 'steak', 'src': '/static/foodstim60/steak.jpg', 'key': 'u', 'origWidth': 410, 'origHeight': 410, 'width': 410, 'height': 410, 'widthPercent': 0.45, 'rescaleHeight': False, 'trialN': 24, 'loaded': True, 'loadedTime': 17964.099999964237, 'positionName': 'LEFT', 'positionCoords': [245.68, 179], 'bid': 4.67}, {'imgObject': {}, 'id': 'cherry tomato', 'src': '/static/foodstim60/cherry tomato.jpg', 'key': 'i', 'origWidth': 410, 'origHeight': 410, 'width': 410, 'height': 410, 'widthPercent': 0.45, 'rescaleHeight': False, 'trialN': 24, 'loaded': True, 'loadedTime': 17967, 'positionName': 'RIGHT', 'positionCoords': [710.32, 179], 'bid': 4.34}]",17958.0,1669830487893,steak,cherry tomato,4.67,4.34,-0.33000000000000007,steak,150.89999997615814,158,157.19999998807907,True,u,18619.5,661.5,1669830488555,662,HRV,HRV_0146,2022-11-30 17:49:57
25,"[{'imgObject': {}, 'id': 'ice cream sundae 002', 'src': '/static/foodstim60/ice cream sundae 002.jpg', 'key': 'u', 'origWidth': 409, 'origHeight': 409, 'width': 409, 'height': 409, 'widthPercent': 0.45, 'rescaleHeight': False, 'trialN': 25, 'loaded': True, 'loadedTime': 18620.69999998808, 'positionName': 'LEFT', 'positionCoords': [246.68, 179.5], 'bid': 5.62}, {'imgObject': {}, 'id': 'Tribe humus pita', 'src': '/static/foodstim60/Tribe humus pita.jpg', 'key': 'i', 'origWidth': 411, 'origHeight': 411, 'width': 411, 'height': 411, 'widthPercent': 0.45, 'rescaleHeight': False, 'trialN': 25, 'loaded': True, 'loadedTime': 18620.899999976158, 'positionName': 'RIGHT', 'positionCoords': [710.32, 178.5], 'bid': 6.47}]",18620.099999964237,1669830488555,ice cream sundae 002,Tribe humus pita,5.62,6.47,0.8499999999999996,Tribe humus pita,12.800000011920929,66,65.70000004768372,True,i,19189.599999964237,569.5,1669830489125,570,HRV,HRV_0146,2022-11-30 17:49:57
26,"[{'imgObject': {}, 'id': 'Grapes', 'src': '/static/foodstim60/Grapes.jpg', 'key': 'u', 'origWidth': 411, 'origHeight': 411, 'width': 411, 'height': 411, 'widthPercent': 0.45, 'rescaleHeight': False, 'trialN': 26, 'loaded': True, 'loadedTime': 19192.19999998808, 'positionName': 'LEFT', 'positionCoords': [244.68, 178.5], 'bid': 5.2700000000000005}, {'imgObject': {}, 'id': 'edamame', 'src': '/static/foodstim60/edamame.jpg', 'key': 'i', 'origWidth': 409, 'origHeight': 410, 'width': 409, 'height': 410, 'widthPercent': 0.45, 'rescaleHeight': False, 'trialN': 26, 'loaded': True, 'loadedTime': 19192.899999976158, 'positionName': 'RIGHT', 'positionCoords': [710.32, 179], 'bid': 4.3500000000000005}]",19190.19999998808,1669830489126,Grapes,edamame,5.2700000000000005,4.3500000000000005,-0.9199999999999999,edamame,28.5,32,32.19999998807907,True,i,19722.599999964237,532.3999999761581,1669830489658,532,HRV,HRV_0146,2022-11-30 17:49:57
27,"[{'imgObject': {}, 'id': 'apple slices', 'src': '/static/foodstim60/apple slices.jpg', 'key': 'u', 'origWidth': 409, 'origHeight': 410, 'width': 409, 'height': 410, 'widthPercent': 0.45, 'rescaleHeight': False, 'trialN': 27, 'loaded': True, 'loadedTime': 19725.19999998808, 'positionName': 'LEFT', 'positionCoords': [246.68, 179], 'bid': 5.48}, {'imgObject': {}, 'id': 'yogurt no spoon', 'src': '/static/foodstim60/yogurt no spoon.jpg', 'key': 'i', 'origWidth': 411, 'origHeight': 410, 'width': 411, 'height': 410, 'widthPercent': 0.45, 'rescaleHeight': False, 'trialN': 27, 'loaded': True, 'loadedTime': 19726, 'positionName': 'RIGHT', 'positionCoords': [710.32, 179], 'bid': 4.8500000000000005}]",19723.30000001192,1669830489659,apple slices,yogurt no spoon,5.48,4.8500000000000005,-0.6299999999999999,yogurt no spoon,101.5,107,106.89999997615814,True,i,20330.80000001192,607.5,1669830490266,607,HRV,HRV_0146,2022-11-30 17:49:57
28,"[{'imgObject': {}, 'id': 'olives', 'src': '/static/foodstim60/olives.jpg', 'key': 'u', 'origWidth': 410, 'origHeight': 410, 'width': 410, 'height': 410, 'widthPercent': 0.45, 'rescaleHeight': False, 'trialN': 28, 'loaded': True, 'loadedTime': 20333.399999976158, 'positionName': 'LEFT', 'positionCoords': [245.68, 179], 'bid': 5.99}, {'imgObject': {}, 'id': 'steak', 'src': '/static/foodstim60/steak.jpg', 'key': 'i', 'origWidth': 410, 'origHeight': 410, 'width': 410, 'height': 410, 'widthPercent': 0.45, 'rescaleHeight': False, 'trialN': 28, 'loaded': True, 'loadedTime': 20334.099999964237, 'positionName': 'RIGHT', 'positionCoords': [710.32, 179], 'bid': 4.67}]",20331.399999976158,1669830490267,olives,steak,5.99,4.67,-1.3200000000000003,steak,66.5,72,71.90000003576279,True,i,20904.80000001192,573.4000000357628,1669830490840,573,HRV,HRV_0146,2022-11-30 17:49:57
29,"[{'imgObject': {}, 'id': 'bagel and cc', 'src': '/static/foodstim60/bagel and cc.jpg', 'key': 'u', 'origWidth': 410, 'origHeight': 410, 'width': 410, 'height': 410, 'widthPercent': 0.45, 'rescaleHeight': False, 'trialN': 29, 'loaded': True, 'loadedTime': 20907.30000001192, 'positionName': 'LEFT', 'positionCoords': [245.68, 179], 'bid': 5.54}, {'imgObject': {}, 'id': 'turkeysandwich', 'src': '/static/foodstim60/turkeysandwich.jpg', 'key': 'i', 'origWidth': 409, 'origHeight': 409, 'width': 409, 'height': 409, 'widthPercent': 0.45, 'rescaleHeight': False, 'trialN': 29, 'loaded': True, 'loadedTime': 20907.80000001192, 'positionName': 'RIGHT', 'positionCoords': [710.32, 179.5], 'bid': 5.58}]",20905.30000001192,1669830490841,bagel and cc,turkeysandwich,5.54,5.58,0.040000000000000036,turkeysandwich,58.5,63,63.5,True,i,21470.099999964237,564.7999999523163,1669830491405,564,HRV,HRV_0146,2022-11-30 17:49:57
30,"[{'imgObject': {}, 'id': 'orange slices', 'src': '/static/foodstim60/orange slices.jpg', 'key': 'u', 'origWidth': 409, 'origHeight': 410, 'width': 409, 'height': 410, 'widthPercent': 0.45, 'rescaleHeight': False, 'trialN': 30, 'loaded': True, 'loadedTime': 21472.599999964237, 'positionName': 'LEFT', 'positionCoords': [246.68, 179], 'bid': 4.04}, {'imgObject': {}, 'id': 'grilled chicken strips', 'src': '/static/foodstim60/grilled chicken strips.jpg', 'key': 'i', 'origWidth': 410, 'origHeight': 411, 'width': 410, 'height': 411, 'widthPercent': 0.45, 'rescaleHeight': False, 'trialN': 30, 'loaded': True, 'loadedTime': 21472.899999976158, 'positionName': 'RIGHT', 'positionCoords': [710.32, 178.5], 'bid': 4.48}]",21470.69999998808,1669830491406,orange slices,grilled chicken strips,4.04,4.48,0.4400000000000004,grilled chicken strips,132.89999997615814,139,138.60000002384186,True,i,22113.099999964237,642.3999999761581,1669830492048,642,HRV,HRV_0146,2022-11-30 17:49:57
31,"[{'imgObject': {}, 'id': 'bagel and cc', 'src': '/static/foodstim60/bagel and cc.jpg', 'key': 'u', 'origWidth': 410, 'origHeight': 410, 'width': 410, 'height': 410, 'widthPercent': 0.45, 'rescaleHeight': False, 'trialN': 31, 'loaded': True, 'loadedTime': 22114.599999964237, 'positionName': 'LEFT', 'positionCoords': [245.68, 179], 'bid': 5.54}, {'imgObject': {}, 'id': 'cantaloupe', 'src': '/static/foodstim60/cantaloupe.jpg', 'key': 'i', 'origWidth': 409, 'origHeight': 409, 'width': 409, 'height': 409, 'widthPercent': 0.45, 'rescaleHeight': False, 'trialN': 31, 'loaded': True, 'loadedTime': 22114.899999976158, 'positionName': 'RIGHT', 'positionCoords': [710.32, 179.5], 'bid': 4.41}]",22113.599999964237,1669830492049,bagel and cc,cantaloupe,5.54,4.41,-1.13,cantaloupe,104.10000002384186,109,109.40000003576279,True,i,22724.19999998808,610.6000000238419,1669830492660,611,HRV,HRV_0146,2022-11-30 17:49:57
32,"[{'imgObject': {}, 'id': 'bagel plain', 'src': '/static/foodstim60/bagel plain.jpg', 'key': 'u', 'origWidth': 410, 'origHeight': 410, 'width': 410, 'height': 410, 'widthPercent': 0.45, 'rescaleHeight': False, 'trialN': 32, 'loaded': True, 'loadedTime': 22725.69999998808, 'positionName': 'LEFT', 'positionCoords': [245.68, 179], 'bid': 4.54}, {'imgObject': {}, 'id': 'avocado', 'src': '/static/foodstim60/avocado.jpg', 'key': 'i', 'origWidth': 409, 'origHeight': 409, 'width': 409, 'height': 409, 'widthPercent': 0.45, 'rescaleHeight': False, 'trialN': 32, 'loaded': True, 'loadedTime': 22726.30000001192, 'positionName': 'RIGHT', 'positionCoords': [710.32, 179.5], 'bid': 5.71}]",22724.69999998808,1669830492660,bagel plain,avocado,4.54,5.71,1.17,avocado,172.80000001192093,178,178.10000002384186,True,i,23403.30000001192,678.6000000238419,1669830493339,679,HRV,HRV_0146,2022-11-30 17:49:57
33,"[{'imgObject': {}, 'id': 'granola w milk', 'src': '/static/foodstim60/granola w milk.jpg', 'key': 'u', 'origWidth': 410, 'origHeight': 410, 'width': 410, 'height': 410, 'widthPercent': 0.45, 'rescaleHeight': False, 'trialN': 33, 'loaded': True, 'loadedTime': 23453.69999998808, 'positionName': 'LEFT', 'positionCoords': [245.68, 179], 'bid': 4.41}, {'imgObject': {}, 'id': 'apple slices', 'src': '/static/foodstim60/apple slices.jpg', 'key': 'i', 'origWidth': 409, 'origHeight': 410, 'width': 409, 'height': 410, 'widthPercent': 0.45, 'rescaleHeight': False, 'trialN': 33, 'loaded': True, 'loadedTime': 23454.5, 'positionName': 'RIGHT', 'positionCoords': [710.32, 179], 'bid': 5.48}]",23404.0,1669830493339,granola w milk,apple slices,4.41,5.48,1.0700000000000003,apple slices,164.69999998807907,171,170.19999998807907,True,i,24082.30000001192,678.3000000119209,1669830494018,679,HRV,HRV_0146,2022-11-30 17:49:57
34,"[{'imgObject': {}, 'id': 'raisin bran w milk', 'src': '/static/foodstim60/raisin bran w milk.jpg', 'key': 'u', 'origWidth': 411, 'origHeight': 411, 'width': 411, 'height': 411, 'widthPercent': 0.45, 'rescaleHeight': False, 'trialN': 34, 'loaded': True, 'loadedTime': 24106.599999964237, 'positionName': 'LEFT', 'positionCoords': [244.68, 178.5], 'bid': 4.01}, {'imgObject': {}, 'id': 'eggs', 'src': '/static/foodstim60/eggs.jpg', 'key': 'i', 'origWidth': 409, 'origHeight': 409, 'width': 409, 'height': 409, 'widthPercent': 0.45, 'rescaleHeight': False, 'trialN': 34, 'loaded': True, 'loadedTime': 24107.099999964237, 'positionName': 'RIGHT', 'positionCoords': [710.32, 179.5], 'bid': 4.3500000000000005}]",24083.0,1669830494018,raisin bran w milk,eggs,4.01,4.3500000000000005,0.34000000000000075,eggs,98.39999997615814,105,104.30000001192093,True,i,24688.399999976158,605.3999999761581,1669830494624,606,HRV,HRV_0146,2022-11-30 17:49:57
35,"[{'imgObject': {}, 'id': 'pear', 'src': '/static/foodstim60/pear.jpg', 'key': 'u', 'origWidth': 411, 'origHeight': 410, 'width': 411, 'height': 410, 'widthPercent': 0.45, 'rescaleHeight': False, 'trialN': 35, 'loaded': True, 'loadedTime': 24690.599999964237, 'positionName': 'LEFT', 'positionCoords': [244.68, 179], 'bid': 4.64}, {'imgObject': {}, 'id': 'froot loops w milk', 'src': '/static/foodstim60/froot loops w milk.jpg', 'key': 'i', 'origWidth': 410, 'origHeight': 410, 'width': 410, 'height': 410, 'widthPercent': 0.45, 'rescaleHeight': False, 'trialN': 35, 'loaded': True, 'loadedTime': 24690.80000001192, 'positionName': 'RIGHT', 'positionCoords': [710.32, 179], 'bid': 5.13}]",24689.0,1669830494624,pear,froot loops w milk,4.64,5.13,0.4900000000000002,froot loops w milk,86.59999996423721,93,92.09999996423721,True,i,25286.099999964237,597.0999999642372,1669830495222,598,HRV,HRV_0146,2022-11-30 17:49:57
36,"[{'imgObject': {}, 'id': 'blackbeanswithrice', 'src': '/static/foodstim60/blackbeanswithrice.jpg', 'key': 'u', 'origWidth': 410, 'origHeight': 410, 'width': 410, 'height': 410, 'widthPercent': 0.45, 'rescaleHeight': False, 'trialN': 36, 'loaded': True, 'loadedTime': 25288.899999976158, 'positionName': 'LEFT', 'positionCoords': [245.68, 179], 'bid': 5.17}, {'imgObject': {}, 'id': 'eggsalad', 'src': '/static/foodstim60/eggsalad.jpg', 'key': 'i', 'origWidth': 410, 'origHeight': 409, 'width': 410, 'height': 409, 'widthPercent': 0.45, 'rescaleHeight': False, 'trialN': 36, 'loaded': True, 'loadedTime': 25289.19999998808, 'positionName': 'RIGHT', 'positionCoords': [710.32, 179.5], 'bid': 5.19}]",25286.69999998808,1669830495222,blackbeanswithrice,eggsalad,5.17,5.19,0.020000000000000462,eggsalad,90.89999997615814,96,96.0,True,i,25884.899999976158,598.1999999880791,1669830495820,598,HRV,HRV_0146,2022-11-30 17:49:57
37,"[{'imgObject': {}, 'id': 'granola w milk', 'src': '/static/foodstim60/granola w milk.jpg', 'key': 'u', 'origWidth': 410, 'origHeight': 410, 'width': 410, 'height': 410, 'widthPercent': 0.45, 'rescaleHeight': False, 'trialN': 37, 'loaded': True, 'loadedTime': 25887.80000001192, 'positionName': 'LEFT', 'positionCoords': [245.68, 179], 'bid': 4.41}, {'imgObject': {}, 'id': 'bagel plain', 'src': '/static/foodstim60/bagel plain.jpg', 'key': 'i', 'origWidth': 410, 'origHeight': 410, 'width': 410, 'height': 410, 'widthPercent': 0.45, 'rescaleHeight': False, 'trialN': 37, 'loaded': True, 'loadedTime': 25888.19999998808, 'positionName': 'RIGHT', 'positionCoords': [710.32, 179], 'bid': 4.54}]",25885.399999976158,1669830495821,granola w milk,bagel plain,4.41,4.54,0.1299999999999999,bagel plain,73.10000002384186,78,78.60000002384186,True,i,26589.5,704.1000000238419,1669830496525,704,HRV,HRV_0146,2022-11-30 17:49:57
38,"[{'imgObject': {}, 'id': 'burger', 'src': '/static/foodstim60/burger.jpg', 'key': 'u', 'origWidth': 409, 'origHeight': 409, 'width': 409, 'height': 409, 'widthPercent': 0.45, 'rescaleHeight': False, 'trialN': 38, 'loaded': True, 'loadedTime': 26862.099999964237, 'positionName': 'LEFT', 'positionCoords': [246.68, 179.5], 'bid': 4.29}, {'imgObject': {}, 'id': 'cherries', 'src': '/static/foodstim60/cherries.jpg', 'key': 'i', 'origWidth': 410, 'origHeight': 411, 'width': 410, 'height': 411, 'widthPercent': 0.45, 'rescaleHeight': False, 'trialN': 38, 'loaded': True, 'loadedTime': 26869.399999976158, 'positionName': 'RIGHT', 'positionCoords': [710.32, 178.5], 'bid': 4}]",26644.099999964237,1669830496580,burger,cherries,4.29,4.0,-0.29000000000000004,burger,43.200000047683716,172,172.10000002384186,True,u,27318.899999976158,674.8000000119209,1669830497254,674,HRV,HRV_0146,2022-11-30 17:49:57
39,"[{'imgObject': {}, 'id': 'steak', 'src': '/static/foodstim60/steak.jpg', 'key': 'u', 'origWidth': 410, 'origHeight': 410, 'width': 410, 'height': 410, 'widthPercent': 0.45, 'rescaleHeight': False, 'trialN': 39, 'loaded': True, 'loadedTime': 27320.69999998808, 'positionName': 'LEFT', 'positionCoords': [245.68, 179], 'bid': 4.67}, {'imgObject': {}, 'id': 'mango', 'src': '/static/foodstim60/mango.jpg', 'key': 'i', 'origWidth': 411, 'origHeight': 411, 'width': 411, 'height': 411, 'widthPercent': 0.45, 'rescaleHeight': False, 'trialN': 39, 'loaded': True, 'loadedTime': 27321, 'positionName': 'RIGHT', 'positionCoords': [710.32, 178.5], 'bid': 5.14}]",27319.599999964237,1669830497255,steak,mango,4.67,5.14,0.46999999999999975,mango,152.70000004768372,159,158.60000002384186,True,i,27979.80000001192,660.2000000476837,1669830497915,660,HRV,HRV_0146,2022-11-30 17:49:57
40,"[{'imgObject': {}, 'id': 'strawberries', 'src': '/static/foodstim60/strawberries.jpg', 'key': 'u', 'origWidth': 410, 'origHeight': 410, 'width': 410, 'height': 410, 'widthPercent': 0.45, 'rescaleHeight': False, 'trialN': 40, 'loaded': True, 'loadedTime': 27982.19999998808, 'positionName': 'LEFT', 'positionCoords': [245.68, 179], 'bid': 4.51}, {'imgObject': {}, 'id': 'omelette', 'src': '/static/foodstim60/omelette.jpg', 'key': 'i', 'origWidth': 410, 'origHeight': 409, 'width': 410, 'height': 409, 'widthPercent': 0.45, 'rescaleHeight': False, 'trialN': 40, 'loaded': True, 'loadedTime': 27982.599999964237, 'positionName': 'RIGHT', 'positionCoords': [710.32, 179.5], 'bid': 5.68}]",27980.399999976158,1669830497916,strawberries,omelette,4.51,5.68,1.17,omelette,183.9000000357628,188,188.19999998807907,True,i,28670.69999998808,690.3000000119209,1669830498606,690,HRV,HRV_0146,2022-11-30 17:49:57
41,"[{'imgObject': {}, 'id': 'seaweed', 'src': '/static/foodstim60/seaweed.jpg', 'key': 'u', 'origWidth': 410, 'origHeight': 410, 'width': 410, 'height': 410, 'widthPercent': 0.45, 'rescaleHeight': False, 'trialN': 41, 'loaded': True, 'loadedTime': 28672.19999998808, 'positionName': 'LEFT', 'positionCoords': [245.68, 179], 'bid': 4.94}, {'imgObject': {}, 'id': 'bagel plain', 'src': '/static/foodstim60/bagel plain.jpg', 'key': 'i', 'origWidth': 410, 'origHeight': 410, 'width': 410, 'height': 410, 'widthPercent': 0.45, 'rescaleHeight': False, 'trialN': 41, 'loaded': True, 'loadedTime': 28672.399999976158, 'positionName': 'RIGHT', 'positionCoords': [710.32, 179], 'bid': 4.54}]",28671.30000001192,1669830498607,seaweed,bagel plain,4.94,4.54,-0.40000000000000036,bagel plain,133.0999999642372,138,138.19999998807907,True,i,29310.099999964237,638.7999999523163,1669830499246,639,HRV,HRV_0146,2022-11-30 17:49:57
42,"[{'imgObject': {}, 'id': 'cherries', 'src': '/static/foodstim60/cherries.jpg', 'key': 'u', 'origWidth': 410, 'origHeight': 411, 'width': 410, 'height': 411, 'widthPercent': 0.45, 'rescaleHeight': False, 'trialN': 42, 'loaded': True, 'loadedTime': 29312.69999998808, 'positionName': 'LEFT', 'positionCoords': [245.68, 178.5], 'bid': 4}, {'imgObject': {}, 'id': 'baked potato', 'src': '/static/foodstim60/baked potato.jpg', 'key': 'i', 'origWidth': 409, 'origHeight': 410, 'width': 409, 'height': 410, 'widthPercent': 0.45, 'rescaleHeight': False, 'trialN': 42, 'loaded': True, 'loadedTime': 29313.099999964237, 'positionName': 'RIGHT', 'positionCoords': [710.32, 179], 'bid': 3.79}]",29310.69999998808,1669830499246,cherries,baked potato,4.0,3.79,-0.20999999999999996,baked potato,178.60000002384186,185,184.30000001192093,True,i,29996.30000001192,685.6000000238419,1669830499932,686,HRV,HRV_0146,2022-11-30 17:49:57
43,"[{'imgObject': {}, 'id': 'edamame', 'src': '/static/foodstim60/edamame.jpg', 'key': 'u', 'origWidth': 409, 'origHeight': 410, 'width': 409, 'height': 410, 'widthPercent': 0.45, 'rescaleHeight': False, 'trialN': 43, 'loaded': True, 'loadedTime': 29997.80000001192, 'positionName': 'LEFT', 'positionCoords': [246.68, 179], 'bid': 4.3500000000000005}, {'imgObject': {}, 'id': 'cherries', 'src': '/static/foodstim60/cherries.jpg', 'key': 'i', 'origWidth': 410, 'origHeight': 411, 'width': 410, 'height': 411, 'widthPercent': 0.45, 'rescaleHeight': False, 'trialN': 43, 'loaded': True, 'loadedTime': 29999.099999964237, 'positionName': 'RIGHT', 'positionCoords': [710.32, 178.5], 'bid': 4}]",29996.80000001192,1669830499932,edamame,cherries,4.3500000000000005,4.0,-0.35000000000000053,edamame,69.5,76,75.39999997615814,True,u,30574.899999976158,578.0999999642372,1669830500510,578,HRV,HRV_0146,2022-11-30 17:49:57
44,"[{'imgObject': {}, 'id': 'avocado', 'src': '/static/foodstim60/avocado.jpg', 'key': 'u', 'origWidth': 409, 'origHeight': 409, 'width': 409, 'height': 409, 'widthPercent': 0.45, 'rescaleHeight': False, 'trialN': 44, 'loaded': True, 'loadedTime': 30577.5, 'positionName': 'LEFT', 'positionCoords': [246.68, 179.5], 'bid': 5.71}, {'imgObject': {}, 'id': 'omelette', 'src': '/static/foodstim60/omelette.jpg', 'key': 'i', 'origWidth': 410, 'origHeight': 409, 'width': 410, 'height': 409, 'widthPercent': 0.45, 'rescaleHeight': False, 'trialN': 44, 'loaded': True, 'loadedTime': 30578.30000001192, 'positionName': 'RIGHT', 'positionCoords': [710.32, 179.5], 'bid': 5.68}]",30575.5,1669830500511,avocado,omelette,5.71,5.68,-0.03000000000000025,omelette,22.69999998807907,28,28.099999964237213,True,i,31109.099999964237,533.5999999642372,1669830501045,534,HRV,HRV_0146,2022-11-30 17:49:57
45,"[{'imgObject': {}, 'id': 'baked potato', 'src': '/static/foodstim60/baked potato.jpg', 'key': 'u', 'origWidth': 409, 'origHeight': 410, 'width': 409, 'height': 410, 'widthPercent': 0.45, 'rescaleHeight': False, 'trialN': 45, 'loaded': True, 'loadedTime': 31124.599999964237, 'positionName': 'LEFT', 'positionCoords': [246.68, 179], 'bid': 3.79}, {'imgObject': {}, 'id': 'raisin bran w milk', 'src': '/static/foodstim60/raisin bran w milk.jpg', 'key': 'i', 'origWidth': 411, 'origHeight': 411, 'width': 411, 'height': 411, 'widthPercent': 0.45, 'rescaleHeight': False, 'trialN': 45, 'loaded': True, 'loadedTime': 31125, 'positionName': 'RIGHT', 'positionCoords': [710.32, 178.5], 'bid': 4.01}]",31109.69999998808,1669830501045,baked potato,raisin bran w milk,3.79,4.01,0.21999999999999975,baked potato,186.5,194,193.69999998807907,True,u,31804.099999964237,694.3999999761581,1669830501740,695,HRV,HRV_0146,2022-11-30 17:49:57
46,"[{'imgObject': {}, 'id': 'Grapes', 'src': '/static/foodstim60/Grapes.jpg', 'key': 'u', 'origWidth': 411, 'origHeight': 411, 'width': 411, 'height': 411, 'widthPercent': 0.45, 'rescaleHeight': False, 'trialN': 46, 'loaded': True, 'loadedTime': 31807.19999998808, 'positionName': 'LEFT', 'positionCoords': [244.68, 178.5], 'bid': 5.2700000000000005}, {'imgObject': {}, 'id': 'luckycharms', 'src': '/static/foodstim60/luckycharms.jpg', 'key': 'i', 'origWidth': 410, 'origHeight': 409, 'width': 410, 'height': 409, 'widthPercent': 0.45, 'rescaleHeight': False, 'trialN': 46, 'loaded': True, 'loadedTime': 31807.69999998808, 'positionName': 'RIGHT', 'positionCoords': [710.32, 179.5], 'bid': 6.01}]",31804.69999998808,1669830501740,Grapes,luckycharms,5.2700000000000005,6.01,0.7399999999999993,Grapes,43.30000001192093,48,47.30000001192093,True,u,32357.30000001192,552.6000000238419,1669830502293,553,HRV,HRV_0146,2022-11-30 17:49:57
47,"[{'imgObject': {}, 'id': 'omelette', 'src': '/static/foodstim60/omelette.jpg', 'key': 'u', 'origWidth': 410, 'origHeight': 409, 'width': 410, 'height': 409, 'widthPercent': 0.45, 'rescaleHeight': False, 'trialN': 47, 'loaded': True, 'loadedTime': 32359.899999976158, 'positionName': 'LEFT', 'positionCoords': [245.68, 179.5], 'bid': 5.68}, {'imgObject': {}, 'id': 'ice cream sundae 002', 'src': '/static/foodstim60/ice cream sundae 002.jpg', 'key': 'i', 'origWidth': 409, 'origHeight': 409, 'width': 409, 'height': 409, 'widthPercent': 0.45, 'rescaleHeight': False, 'trialN': 47, 'loaded': True, 'loadedTime': 32360.19999998808, 'positionName': 'RIGHT', 'positionCoords': [710.32, 179.5], 'bid': 5.62}]",32357.899999976158,1669830502293,omelette,ice cream sundae 002,5.68,5.62,-0.05999999999999961,omelette,90.19999998807907,96,95.5,True,u,32954.19999998808,596.3000000119209,1669830502890,597,HRV,HRV_0146,2022-11-30 17:49:57
48,"[{'imgObject': {}, 'id': 'Tribe humus pita', 'src': '/static/foodstim60/Tribe humus pita.jpg', 'key': 'u', 'origWidth': 411, 'origHeight': 411, 'width': 411, 'height': 411, 'widthPercent': 0.45, 'rescaleHeight': False, 'trialN': 48, 'loaded': True, 'loadedTime': 32956.5, 'positionName': 'LEFT', 'positionCoords': [244.68, 178.5], 'bid': 6.47}, {'imgObject': {}, 'id': 'hashbrowns', 'src': '/static/foodstim60/hashbrowns.jpg', 'key': 'i', 'origWidth': 411, 'origHeight': 410, 'width': 411, 'height': 410, 'widthPercent': 0.45, 'rescaleHeight': False, 'trialN': 48, 'loaded': True, 'loadedTime': 32957.30000001192, 'positionName': 'RIGHT', 'positionCoords': [710.32, 179], 'bid': 6.5200000000000005}]",32954.59999996424,1669830502890,Tribe humus pita,hashbrowns,6.47,6.5200000000000005,0.05000000000000071,Tribe humus pita,129.30000001192093,133,133.30000001192093,True,u,33590.09999996424,635.5,1669830503526,636,HRV,HRV_0146,2022-11-30 17:49:57
49,"[{'imgObject': {}, 'id': 'banana', 'src': '/static/foodstim60/banana.jpg', 'key': 'u', 'origWidth': 410, 'origHeight': 410, 'width': 410, 'height': 410, 'widthPercent': 0.45, 'rescaleHeight': False, 'trialN': 49, 'loaded': True, 'loadedTime': 33592.59999996424, 'positionName': 'LEFT', 'positionCoords': [245.68, 179], 'bid': 6.12}, {'imgObject': {}, 'id': 'luckycharms', 'src': '/static/foodstim60/luckycharms.jpg', 'key': 'i', 'origWidth': 410, 'origHeight': 409, 'width': 410, 'height': 409, 'widthPercent': 0.45, 'rescaleHeight': False, 'trialN': 49, 'loaded': True, 'loadedTime': 33593.30000001192, 'positionName': 'RIGHT', 'positionCoords': [710.32, 179.5], 'bid': 6.01}]",33590.69999998808,1669830503526,banana,luckycharms,6.12,6.01,-0.11000000000000032,banana,97.19999998807907,103,102.69999998807907,True,u,34198.59999996424,607.8999999761581,1669830504134,608,HRV,HRV_0146,2022-11-30 17:49:57
50,"[{'imgObject': {}, 'id': 'froot loops w milk', 'src': '/static/foodstim60/froot loops w milk.jpg', 'key': 'u', 'origWidth': 410, 'origHeight': 410, 'width': 410, 'height': 410, 'widthPercent': 0.45, 'rescaleHeight': False, 'trialN': 50, 'loaded': True, 'loadedTime': 34201.19999998808, 'positionName': 'LEFT', 'positionCoords': [245.68, 179], 'bid': 5.13}, {'imgObject': {}, 'id': 'mango', 'src': '/static/foodstim60/mango.jpg', 'key': 'i', 'origWidth': 411, 'origHeight': 411, 'width': 411, 'height': 411, 'widthPercent': 0.45, 'rescaleHeight': False, 'trialN': 50, 'loaded': True, 'loadedTime': 34201.5, 'positionName': 'RIGHT', 'positionCoords': [710.32, 178.5], 'bid': 5.14}]",34199.19999998808,1669830504135,froot loops w milk,mango,5.13,5.14,0.009999999999999787,froot loops w milk,92.80000001192093,98,98.0,True,u,34802.5,603.3000000119209,1669830504738,603,HRV,HRV_0146,2022-11-30 17:49:57
51,"[{'imgObject': {}, 'id': 'grilled chicken strips', 'src': '/static/foodstim60/grilled chicken strips.jpg', 'key': 'u', 'origWidth': 410, 'origHeight': 411, 'width': 410, 'height': 411, 'widthPercent': 0.45, 'rescaleHeight': False, 'trialN': 51, 'loaded': True, 'loadedTime': 34805, 'positionName': 'LEFT', 'positionCoords': [245.68, 178.5], 'bid': 4.48}, {'imgObject': {}, 'id': 'ice cream sundae 002', 'src': '/static/foodstim60/ice cream sundae 002.jpg', 'key': 'i', 'origWidth': 409, 'origHeight': 409, 'width': 409, 'height': 409, 'widthPercent': 0.45, 'rescaleHeight': False, 'trialN': 51, 'loaded': True, 'loadedTime': 34805.5, 'positionName': 'RIGHT', 'positionCoords': [710.32, 179.5], 'bid': 5.62}]",34803.09999996424,1669830504739,grilled chicken strips,ice cream sundae 002,4.48,5.62,1.1399999999999997,grilled chicken strips,57.90000003576279,63,63.30000001192093,True,u,35366.80000001192,563.7000000476837,1669830505302,563,HRV,HRV_0146,2022-11-30 17:49:57
52,"[{'imgObject': {}, 'id': 'sushi w_condiments', 'src': '/static/foodstim60/sushi w_condiments.jpg', 'key': 'u', 'origWidth': 410, 'origHeight': 410, 'width': 410, 'height': 410, 'widthPercent': 0.45, 'rescaleHeight': False, 'trialN': 52, 'loaded': True, 'loadedTime': 35370, 'positionName': 'LEFT', 'positionCoords': [245.68, 179], 'bid': 5.73}, {'imgObject': {}, 'id': 'mashed potato', 'src': '/static/foodstim60/mashed potato.jpg', 'key': 'i', 'origWidth': 409, 'origHeight': 409, 'width': 409, 'height': 409, 'widthPercent': 0.45, 'rescaleHeight': False, 'trialN': 52, 'loaded': True, 'loadedTime': 35370.69999998808, 'positionName': 'RIGHT', 'positionCoords': [710.32, 179.5], 'bid': 4.6000000000000005}]",35367.39999997616,1669830505303,sushi w_condiments,mashed potato,5.73,4.6000000000000005,-1.13,sushi w_condiments,79.69999998807907,86,85.90000003576279,True,u,35957.89999997616,590.5,1669830505893,590,HRV,HRV_0146,2022-11-30 17:49:57
53,"[{'imgObject': {}, 'id': 'roastedpotatoes', 'src': '/static/foodstim60/roastedpotatoes.jpg', 'key': 'u', 'origWidth': 409, 'origHeight': 410, 'width': 409, 'height': 410, 'widthPercent': 0.45, 'rescaleHeight': False, 'trialN': 53, 'loaded': True, 'loadedTime': 35960.59999996424, 'positionName': 'LEFT', 'positionCoords': [246.68, 179], 'bid': 5.7}, {'imgObject': {}, 'id': 'sweetpotato', 'src': '/static/foodstim60/sweetpotato.jpg', 'key': 'i', 'origWidth': 410, 'origHeight': 410, 'width': 410, 'height': 410, 'widthPercent': 0.45, 'rescaleHeight': False, 'trialN': 53, 'loaded': True, 'loadedTime': 35961.09999996424, 'positionName': 'RIGHT', 'positionCoords': [710.32, 179], 'bid': 5.23}]",35958.5,1669830505894,roastedpotatoes,sweetpotato,5.7,5.23,-0.46999999999999975,roastedpotatoes,110.39999997615814,116,115.5,True,u,36577.0,618.5,1669830506513,619,HRV,HRV_0146,2022-11-30 17:49:57
54,"[{'imgObject': {}, 'id': 'steak', 'src': '/static/foodstim60/steak.jpg', 'key': 'u', 'origWidth': 410, 'origHeight': 410, 'width': 410, 'height': 410, 'widthPercent': 0.45, 'rescaleHeight': False, 'trialN': 54, 'loaded': True, 'loadedTime': 36579.5, 'positionName': 'LEFT', 'positionCoords': [245.68, 179], 'bid': 4.67}, {'imgObject': {}, 'id': 'seaweed', 'src': '/static/foodstim60/seaweed.jpg', 'key': 'i', 'origWidth': 410, 'origHeight': 410, 'width': 410, 'height': 410, 'widthPercent': 0.45, 'rescaleHeight': False, 'trialN': 54, 'loaded': True, 'loadedTime': 36580.30000001192, 'positionName': 'RIGHT', 'positionCoords': [710.32, 179], 'bid': 4.94}]",36577.69999998808,1669830506513,steak,seaweed,4.67,4.94,0.27000000000000046,steak,83.0,87,86.80000001192093,True,u,37205.89999997616,628.1999999880791,1669830507141,628,HRV,HRV_0146,2022-11-30 17:49:57
55,"[{'imgObject': {}, 'id': 'pear', 'src': '/static/foodstim60/pear.jpg', 'key': 'u', 'origWidth': 411, 'origHeight': 410, 'width': 411, 'height': 410, 'widthPercent': 0.45, 'rescaleHeight': False, 'trialN': 55, 'loaded': True, 'loadedTime': 38083.30000001192, 'positionName': 'LEFT', 'positionCoords': [244.68, 179], 'bid': 4.64}, {'imgObject': {}, 'id': 'yogurt no spoon', 'src': '/static/foodstim60/yogurt no spoon.jpg', 'key': 'i', 'origWidth': 411, 'origHeight': 410, 'width': 411, 'height': 410, 'widthPercent': 0.45, 'rescaleHeight': False, 'trialN': 55, 'loaded': True, 'loadedTime': 38094, 'positionName': 'RIGHT', 'positionCoords': [710.32, 179], 'bid': 4.8500000000000005}]",37525.39999997616,1669830507461,pear,yogurt no spoon,4.64,4.8500000000000005,0.21000000000000085,pear,269.4000000357628,343,343.5,True,u,38385.5,860.1000000238419,1669830508321,860,HRV,HRV_0146,2022-11-30 17:49:57
56,"[{'imgObject': {}, 'id': 'chicken nuggets2', 'src': '/static/foodstim60/chicken nuggets2.jpg', 'key': 'u', 'origWidth': 410, 'origHeight': 409, 'width': 410, 'height': 409, 'widthPercent': 0.45, 'rescaleHeight': False, 'trialN': 56, 'loaded': True, 'loadedTime': 38387.89999997616, 'positionName': 'LEFT', 'positionCoords': [245.68, 179.5], 'bid': 4.32}, {'imgObject': {}, 'id': 'pear', 'src': '/static/foodstim60/pear.jpg', 'key': 'i', 'origWidth': 411, 'origHeight': 410, 'width': 411, 'height': 410, 'widthPercent': 0.45, 'rescaleHeight': False, 'trialN': 56, 'loaded': True, 'loadedTime': 38388.19999998808, 'positionName': 'RIGHT', 'positionCoords': [710.32, 179], 'bid': 4.64}]",38386.5,1669830508322,chicken nuggets2,pear,4.32,4.64,0.3199999999999994,pear,256.19999998807907,261,260.5999999642372,True,i,39148.0,761.5,1669830509083,761,HRV,HRV_0146,2022-11-30 17:49:57
57,"[{'imgObject': {}, 'id': 'strawberries', 'src': '/static/foodstim60/strawberries.jpg', 'key': 'u', 'origWidth': 410, 'origHeight': 410, 'width': 410, 'height': 410, 'widthPercent': 0.45, 'rescaleHeight': False, 'trialN': 57, 'loaded': True, 'loadedTime': 39150.89999997616, 'positionName': 'LEFT', 'positionCoords': [245.68, 179], 'bid': 4.51}, {'imgObject': {}, 'id': 'grilled chicken strips', 'src': '/static/foodstim60/grilled chicken strips.jpg', 'key': 'i', 'origWidth': 410, 'origHeight': 411, 'width': 410, 'height': 411, 'widthPercent': 0.45, 'rescaleHeight': False, 'trialN': 57, 'loaded': True, 'loadedTime': 39151.59999996424, 'positionName': 'RIGHT', 'positionCoords': [710.32, 178.5], 'bid': 4.48}]",39149.0,1669830509085,strawberries,grilled chicken strips,4.51,4.48,-0.02999999999999936,grilled chicken strips,59.69999998807907,65,65.30000001192093,True,i,39714.59999996424,565.5999999642372,1669830509650,565,HRV,HRV_0146,2022-11-30 17:49:57
58,"[{'imgObject': {}, 'id': 'corn cob', 'src': '/static/foodstim60/corn cob.jpg', 'key': 'u', 'origWidth': 411, 'origHeight': 411, 'width': 411, 'height': 411, 'widthPercent': 0.45, 'rescaleHeight': False, 'trialN': 58, 'loaded': True, 'loadedTime': 39718.89999997616, 'positionName': 'LEFT', 'positionCoords': [244.68, 178.5], 'bid': 4.3100000000000005}, {'imgObject': {}, 'id': 'cherry tomato', 'src': '/static/foodstim60/cherry tomato.jpg', 'key': 'i', 'origWidth': 410, 'origHeight': 410, 'width': 410, 'height': 410, 'widthPercent': 0.45, 'rescaleHeight': False, 'trialN': 58, 'loaded': True, 'loadedTime': 39720.30000001192, 'positionName': 'RIGHT', 'positionCoords': [710.32, 179], 'bid': 4.34}]",39715.59999996424,1669830509651,corn cob,cherry tomato,4.3100000000000005,4.34,0.02999999999999936,cherry tomato,9.100000023841858,17,16.400000035762787,True,i,40234.59999996424,519.0,1669830510170,519,HRV,HRV_0146,2022-11-30 17:49:57
59,"[{'imgObject': {}, 'id': 'veggieswithdip', 'src': '/static/foodstim60/veggieswithdip.jpg', 'key': 'u', 'origWidth': 409, 'origHeight': 409, 'width': 409, 'height': 409, 'widthPercent': 0.45, 'rescaleHeight': False, 'trialN': 59, 'loaded': True, 'loadedTime': 40236.80000001192, 'positionName': 'LEFT', 'positionCoords': [246.68, 179.5], 'bid': 4.79}, {'imgObject': {}, 'id': 'eggs', 'src': '/static/foodstim60/eggs.jpg', 'key': 'i', 'origWidth': 409, 'origHeight': 409, 'width': 409, 'height': 409, 'widthPercent': 0.45, 'rescaleHeight': False, 'trialN': 59, 'loaded': True, 'loadedTime': 40237.19999998808, 'positionName': 'RIGHT', 'positionCoords': [710.32, 179.5], 'bid': 4.3500000000000005}]",40235.5,1669830510171,veggieswithdip,eggs,4.79,4.3500000000000005,-0.4399999999999995,veggieswithdip,210.0,220,220.30000001192093,True,u,40958.89999997616,723.3999999761581,1669830510894,723,HRV,HRV_0146,2022-11-30 17:49:57
60,"[{'imgObject': {}, 'id': 'mango', 'src': '/static/foodstim60/mango.jpg', 'key': 'u', 'origWidth': 411, 'origHeight': 411, 'width': 411, 'height': 411, 'widthPercent': 0.45, 'rescaleHeight': False, 'trialN': 60, 'loaded': True, 'loadedTime': 40961.5, 'positionName': 'LEFT', 'positionCoords': [244.68, 178.5], 'bid': 5.14}, {'imgObject': {}, 'id': 'cheerios', 'src': '/static/foodstim60/cheerios.jpg', 'key': 'i', 'origWidth': 409, 'origHeight': 410, 'width': 409, 'height': 410, 'widthPercent': 0.45, 'rescaleHeight': False, 'trialN': 60, 'loaded': True, 'loadedTime': 40961.80000001192, 'positionName': 'RIGHT', 'positionCoords': [710.32, 179], 'bid': 4.13}]",40959.5,1669830510895,mango,cheerios,5.14,4.13,-1.0099999999999998,mango,28.099999964237213,73,73.19999998807907,True,u,41536.39999997616,576.8999999761581,1669830511472,577,HRV,HRV_0146,2022-11-30 17:49:57
61,"[{'imgObject': {}, 'id': 'mac & cheese', 'src': '/static/foodstim60/mac & cheese.jpg', 'key': 'u', 'origWidth': 410, 'origHeight': 410, 'width': 410, 'height': 410, 'widthPercent': 0.45, 'rescaleHeight': False, 'trialN': 61, 'loaded': True, 'loadedTime': 41539.80000001192, 'positionName': 'LEFT', 'positionCoords': [245.68, 179], 'bid': 5.43}, {'imgObject': {}, 'id': 'burrito', 'src': '/static/foodstim60/burrito.jpg', 'key': 'i', 'origWidth': 410, 'origHeight': 410, 'width': 410, 'height': 410, 'widthPercent': 0.45, 'rescaleHeight': False, 'trialN': 61, 'loaded': True, 'loadedTime': 41540.19999998808, 'positionName': 'RIGHT', 'positionCoords': [710.32, 179], 'bid': 4.38}]",41537.5,1669830511473,mac & cheese,burrito,5.43,4.38,-1.0499999999999998,burrito,238.0999999642372,243,243.30000001192093,True,i,42281.5,744.0,1669830512217,744,HRV,HRV_0146,2022-11-30 17:49:57
62,"[{'imgObject': {}, 'id': 'salmon', 'src': '/static/foodstim60/salmon.jpg', 'key': 'u', 'origWidth': 410, 'origHeight': 409, 'width': 410, 'height': 409, 'widthPercent': 0.45, 'rescaleHeight': False, 'trialN': 62, 'loaded': True, 'loadedTime': 42284.39999997616, 'positionName': 'LEFT', 'positionCoords': [245.68, 179.5], 'bid': 4.13}, {'imgObject': {}, 'id': 'strawberries', 'src': '/static/foodstim60/strawberries.jpg', 'key': 'i', 'origWidth': 410, 'origHeight': 410, 'width': 410, 'height': 410, 'widthPercent': 0.45, 'rescaleHeight': False, 'trialN': 62, 'loaded': True, 'loadedTime': 42284.69999998808, 'positionName': 'RIGHT', 'positionCoords': [710.32, 179], 'bid': 4.51}]",42282.19999998808,1669830512218,salmon,strawberries,4.13,4.51,0.3799999999999999,strawberries,36.39999997615814,44,44.19999998807907,True,i,42831.59999996424,549.3999999761581,1669830512767,549,HRV,HRV_0146,2022-11-30 17:49:57
63,"[{'imgObject': {}, 'id': 'salmon', 'src': '/static/foodstim60/salmon.jpg', 'key': 'u', 'origWidth': 410, 'origHeight': 409, 'width': 410, 'height': 409, 'widthPercent': 0.45, 'rescaleHeight': False, 'trialN': 63, 'loaded': True, 'loadedTime': 42834.39999997616, 'positionName': 'LEFT', 'positionCoords': [245.68, 179.5], 'bid': 4.13}, {'imgObject': {}, 'id': 'hotdog w must', 'src': '/static/foodstim60/hotdog w must.jpg', 'key': 'i', 'origWidth': 409, 'origHeight': 409, 'width': 409, 'height': 409, 'widthPercent': 0.45, 'rescaleHeight': False, 'trialN': 63, 'loaded': True, 'loadedTime': 42835.09999996424, 'positionName': 'RIGHT', 'positionCoords': [710.32, 179.5], 'bid': 4.16}]",42832.19999998808,1669830512768,salmon,hotdog w must,4.13,4.16,0.03000000000000025,hotdog w must,27.899999976158142,35,35.39999997615814,True,i,43368.09999996424,535.8999999761581,1669830513304,536,HRV,HRV_0146,2022-11-30 17:49:57
64,"[{'imgObject': {}, 'id': 'banana', 'src': '/static/foodstim60/banana.jpg', 'key': 'u', 'origWidth': 410, 'origHeight': 410, 'width': 410, 'height': 410, 'widthPercent': 0.45, 'rescaleHeight': False, 'trialN': 64, 'loaded': True, 'loadedTime': 43369.09999996424, 'positionName': 'LEFT', 'positionCoords': [245.68, 179], 'bid': 6.12}, {'imgObject': {}, 'id': 'lox', 'src': '/static/foodstim60/lox.jpg', 'key': 'i', 'origWidth': 410, 'origHeight': 411, 'width': 410, 'height': 411, 'widthPercent': 0.45, 'rescaleHeight': False, 'trialN': 64, 'loaded': True, 'loadedTime': 43369.30000001192, 'positionName': 'RIGHT', 'positionCoords': [710.32, 178.5], 'bid': 5.3500000000000005}]",43368.5,1669830513304,banana,lox,6.12,5.3500000000000005,-0.7699999999999996,banana,236.0,242,241.80000001192093,True,u,44110.80000001192,742.3000000119209,1669830514046,742,HRV,HRV_0146,2022-11-30 17:49:57
65,"[{'imgObject': {}, 'id': 'sweetpotato', 'src': '/static/foodstim60/sweetpotato.jpg', 'key': 'u', 'origWidth': 410, 'origHeight': 410, 'width': 410, 'height': 410, 'widthPercent': 0.45, 'rescaleHeight': False, 'trialN': 65, 'loaded': True, 'loadedTime': 44113, 'positionName': 'LEFT', 'positionCoords': [245.68, 179], 'bid': 5.23}, {'imgObject': {}, 'id': 'olives', 'src': '/static/foodstim60/olives.jpg', 'key': 'i', 'origWidth': 410, 'origHeight': 410, 'width': 410, 'height': 410, 'widthPercent': 0.45, 'rescaleHeight': False, 'trialN': 65, 'loaded': True, 'loadedTime': 44114.5, 'positionName': 'RIGHT', 'positionCoords': [710.32, 179], 'bid': 5.99}]",44111.89999997616,1669830514048,sweetpotato,olives,5.23,5.99,0.7599999999999998,olives,185.5,190,190.9000000357628,True,i,44804.39999997616,692.5,1669830514740,692,HRV,HRV_0146,2022-11-30 17:49:57
66,"[{'imgObject': {}, 'id': 'shreddedwheatwithmilk', 'src': '/static/foodstim60/shreddedwheatwithmilk.jpg', 'key': 'u', 'origWidth': 410, 'origHeight': 410, 'width': 410, 'height': 410, 'widthPercent': 0.45, 'rescaleHeight': False, 'trialN': 66, 'loaded': True, 'loadedTime': 44808.09999996424, 'positionName': 'LEFT', 'positionCoords': [245.68, 179], 'bid': 4.79}, {'imgObject': {}, 'id': 'pear', 'src': '/static/foodstim60/pear.jpg', 'key': 'i', 'origWidth': 411, 'origHeight': 410, 'width': 411, 'height': 410, 'widthPercent': 0.45, 'rescaleHeight': False, 'trialN': 66, 'loaded': True, 'loadedTime': 44816.39999997616, 'positionName': 'RIGHT', 'positionCoords': [710.32, 179], 'bid': 4.64}]",44805.0,1669830514741,shreddedwheatwithmilk,pear,4.79,4.64,-0.15000000000000036,shreddedwheatwithmilk,202.39999997615814,207,207.80000001192093,True,u,45516.19999998808,711.1999999880791,1669830515452,711,HRV,HRV_0146,2022-11-30 17:49:57
67,"[{'imgObject': {}, 'id': 'baked potato', 'src': '/static/foodstim60/baked potato.jpg', 'key': 'u', 'origWidth': 409, 'origHeight': 410, 'width': 409, 'height': 410, 'widthPercent': 0.45, 'rescaleHeight': False, 'trialN': 67, 'loaded': True, 'loadedTime': 45519.09999996424, 'positionName': 'LEFT', 'positionCoords': [246.68, 179], 'bid': 3.79}, {'imgObject': {}, 'id': 'hotdog w must', 'src': '/static/foodstim60/hotdog w must.jpg', 'key': 'i', 'origWidth': 409, 'origHeight': 409, 'width': 409, 'height': 409, 'widthPercent': 0.45, 'rescaleHeight': False, 'trialN': 67, 'loaded': True, 'loadedTime': 45519.5, 'positionName': 'RIGHT', 'positionCoords': [710.32, 179.5], 'bid': 4.16}]",45516.89999997616,1669830515452,baked potato,hotdog w must,3.79,4.16,0.3700000000000001,baked potato,11.400000035762787,18,17.69999998807907,True,u,46039.89999997616,523.0,1669830515976,524,HRV,HRV_0146,2022-11-30 17:49:57
68,"[{'imgObject': {}, 'id': 'bagel plain', 'src': '/static/foodstim60/bagel plain.jpg', 'key': 'u', 'origWidth': 410, 'origHeight': 410, 'width': 410, 'height': 410, 'widthPercent': 0.45, 'rescaleHeight': False, 'trialN': 68, 'loaded': True, 'loadedTime': 46042.59999996424, 'positionName': 'LEFT', 'positionCoords': [245.68, 179], 'bid': 4.54}, {'imgObject': {}, 'id': 'fried eggs', 'src': '/static/foodstim60/fried eggs.jpg', 'key': 'i', 'origWidth': 410, 'origHeight': 410, 'width': 410, 'height': 410, 'widthPercent': 0.45, 'rescaleHeight': False, 'trialN': 68, 'loaded': True, 'loadedTime': 46043.30000001192, 'positionName': 'RIGHT', 'positionCoords': [710.32, 179], 'bid': 4.51}]",46040.5,1669830515976,bagel plain,fried eggs,4.54,4.51,-0.03000000000000025,bagel plain,63.89999997615814,69,69.39999997615814,True,u,46615.09999996424,574.5999999642372,1669830516551,575,HRV,HRV_0146,2022-11-30 17:49:57
69,"[{'imgObject': {}, 'id': 'lox', 'src': '/static/foodstim60/lox.jpg', 'key': 'u', 'origWidth': 410, 'origHeight': 411, 'width': 410, 'height': 411, 'widthPercent': 0.45, 'rescaleHeight': False, 'trialN': 69, 'loaded': True, 'loadedTime': 46617.80000001192, 'positionName': 'LEFT', 'positionCoords': [245.68, 178.5], 'bid': 5.3500000000000005}, {'imgObject': {}, 'id': 'eggs', 'src': '/static/foodstim60/eggs.jpg', 'key': 'i', 'origWidth': 409, 'origHeight': 409, 'width': 409, 'height': 409, 'widthPercent': 0.45, 'rescaleHeight': False, 'trialN': 69, 'loaded': True, 'loadedTime': 46621.30000001192, 'positionName': 'RIGHT', 'positionCoords': [710.32, 179.5], 'bid': 4.3500000000000005}]",46615.69999998808,1669830516551,lox,eggs,5.3500000000000005,4.3500000000000005,-1.0,lox,4.5,11,10.399999976158142,True,u,47131.39999997616,515.6999999880791,1669830517067,516,HRV,HRV_0146,2022-11-30 17:49:57
70,"[{'imgObject': {}, 'id': 'strawberries', 'src': '/static/foodstim60/strawberries.jpg', 'key': 'u', 'origWidth': 410, 'origHeight': 410, 'width': 410, 'height': 410, 'widthPercent': 0.45, 'rescaleHeight': False, 'trialN': 70, 'loaded': True, 'loadedTime': 47134.19999998808, 'positionName': 'LEFT', 'positionCoords': [245.68, 179], 'bid': 4.51}, {'imgObject': {}, 'id': 'chicken nuggets2', 'src': '/static/foodstim60/chicken nuggets2.jpg', 'key': 'i', 'origWidth': 410, 'origHeight': 409, 'width': 410, 'height': 409, 'widthPercent': 0.45, 'rescaleHeight': False, 'trialN': 70, 'loaded': True, 'loadedTime': 47134.59999996424, 'positionName': 'RIGHT', 'positionCoords': [710.32, 179.5], 'bid': 4.32}]",47132.0,1669830517068,strawberries,chicken nuggets2,4.51,4.32,-0.1899999999999995,strawberries,68.19999998807907,73,73.0,True,u,47706.0,574.0,1669830517642,574,HRV,HRV_0146,2022-11-30 17:49:57
71,"[{'imgObject': {}, 'id': 'salad w chicken', 'src': '/static/foodstim60/salad w chicken.jpg', 'key': 'u', 'origWidth': 411, 'origHeight': 411, 'width': 411, 'height': 411, 'widthPercent': 0.45, 'rescaleHeight': False, 'trialN': 71, 'loaded': True, 'loadedTime': 47708.5, 'positionName': 'LEFT', 'positionCoords': [244.68, 178.5], 'bid': 5.21}, {'imgObject': {}, 'id': 'turkey sandwich', 'src': '/static/foodstim60/turkey sandwich.jpg', 'key': 'i', 'origWidth': 409, 'origHeight': 409, 'width': 409, 'height': 409, 'widthPercent': 0.45, 'rescaleHeight': False, 'trialN': 71, 'loaded': True, 'loadedTime': 47708.80000001192, 'positionName': 'RIGHT', 'positionCoords': [710.32, 179.5], 'bid': 4.82}]",47706.39999997616,1669830517642,salad w chicken,turkey sandwich,5.21,4.82,-0.3899999999999997,turkey sandwich,237.9000000357628,243,243.10000002384186,True,i,48454.59999996424,748.1999999880791,1669830518390,748,HRV,HRV_0146,2022-11-30 17:49:57
72,"[{'imgObject': {}, 'id': 'turkeysandwich', 'src': '/static/foodstim60/turkeysandwich.jpg', 'key': 'u', 'origWidth': 409, 'origHeight': 409, 'width': 409, 'height': 409, 'widthPercent': 0.45, 'rescaleHeight': False, 'trialN': 72, 'loaded': True, 'loadedTime': 48456.30000001192, 'positionName': 'LEFT', 'positionCoords': [246.68, 179.5], 'bid': 5.58}, {'imgObject': {}, 'id': 'banana', 'src': '/static/foodstim60/banana.jpg', 'key': 'i', 'origWidth': 410, 'origHeight': 410, 'width': 410, 'height': 410, 'widthPercent': 0.45, 'rescaleHeight': False, 'trialN': 72, 'loaded': True, 'loadedTime': 48456.5, 'positionName': 'RIGHT', 'positionCoords': [710.32, 179], 'bid': 6.12}]",48455.30000001192,1669830518391,turkeysandwich,banana,5.58,6.12,0.54,banana,52.89999997615814,58,58.09999996423721,True,i,49014.5,559.1999999880791,1669830518950,559,HRV,HRV_0146,2022-11-30 17:49:57
73,"[{'imgObject': {}, 'id': 'cantaloupe', 'src': '/static/foodstim60/cantaloupe.jpg', 'key': 'u', 'origWidth': 409, 'origHeight': 409, 'width': 409, 'height': 409, 'widthPercent': 0.45, 'rescaleHeight': False, 'trialN': 73, 'loaded': True, 'loadedTime': 49016.19999998808, 'positionName': 'LEFT', 'positionCoords': [246.68, 179.5], 'bid': 4.41}, {'imgObject': {}, 'id': 'grilled chicken strips', 'src': '/static/foodstim60/grilled chicken strips.jpg', 'key': 'i', 'origWidth': 410, 'origHeight': 411, 'width': 410, 'height': 411, 'widthPercent': 0.45, 'rescaleHeight': False, 'trialN': 73, 'loaded': True, 'loadedTime': 49016.5, 'positionName': 'RIGHT', 'positionCoords': [710.32, 178.5], 'bid': 4.48}]",49015.19999998808,1669830518951,cantaloupe,grilled chicken strips,4.41,4.48,0.07000000000000028,grilled chicken strips,65.0,70,70.60000002384186,True,i,49588.69999998808,573.5,1669830519524,573,HRV,HRV_0146,2022-11-30 17:49:57
74,"[{'imgObject': {}, 'id': 'veggieswithdip', 'src': '/static/foodstim60/veggieswithdip.jpg', 'key': 'u', 'origWidth': 409, 'origHeight': 409, 'width': 409, 'height': 409, 'widthPercent': 0.45, 'rescaleHeight': False, 'trialN': 74, 'loaded': True, 'loadedTime': 49591.5, 'positionName': 'LEFT', 'positionCoords': [246.68, 179.5], 'bid': 4.79}, {'imgObject': {}, 'id': 'shreddedwheatwithmilk', 'src': '/static/foodstim60/shreddedwheatwithmilk.jpg', 'key': 'i', 'origWidth': 410, 'origHeight': 410, 'width': 410, 'height': 410, 'widthPercent': 0.45, 'rescaleHeight': False, 'trialN': 74, 'loaded': True, 'loadedTime': 49592.19999998808, 'positionName': 'RIGHT', 'positionCoords': [710.32, 179], 'bid': 4.79}]",49589.30000001192,1669830519525,veggieswithdip,shreddedwheatwithmilk,4.79,4.79,0.0,shreddedwheatwithmilk,5.799999952316284,11,11.0,True,i,50102.19999998808,512.8999999761581,1669830520038,513,HRV,HRV_0146,2022-11-30 17:49:57
75,"[{'imgObject': {}, 'id': 'bagel and cc', 'src': '/static/foodstim60/bagel and cc.jpg', 'key': 'u', 'origWidth': 410, 'origHeight': 410, 'width': 410, 'height': 410, 'widthPercent': 0.45, 'rescaleHeight': False, 'trialN': 75, 'loaded': True, 'loadedTime': 50105.19999998808, 'positionName': 'LEFT', 'positionCoords': [245.68, 179], 'bid': 5.54}, {'imgObject': {}, 'id': 'mac & cheese', 'src': '/static/foodstim60/mac & cheese.jpg', 'key': 'i', 'origWidth': 410, 'origHeight': 410, 'width': 410, 'height': 410, 'widthPercent': 0.45, 'rescaleHeight': False, 'trialN': 75, 'loaded': True, 'loadedTime': 50106, 'positionName': 'RIGHT', 'positionCoords': [710.32, 179], 'bid': 5.43}]",50102.69999998808,1669830520038,bagel and cc,mac & cheese,5.54,5.43,-0.11000000000000032,bagel and cc,181.30000001192093,185,185.10000002384186,True,u,50793.19999998808,690.5,1669830520729,691,HRV,HRV_0146,2022-11-30 17:49:57
76,"[{'imgObject': {}, 'id': 'edamame', 'src': '/static/foodstim60/edamame.jpg', 'key': 'u', 'origWidth': 409, 'origHeight': 410, 'width': 409, 'height': 410, 'widthPercent': 0.45, 'rescaleHeight': False, 'trialN': 76, 'loaded': True, 'loadedTime': 50796, 'positionName': 'LEFT', 'positionCoords': [246.68, 179], 'bid': 4.3500000000000005}, {'imgObject': {}, 'id': 'chicken nuggets2', 'src': '/static/foodstim60/chicken nuggets2.jpg', 'key': 'i', 'origWidth': 410, 'origHeight': 409, 'width': 410, 'height': 409, 'widthPercent': 0.45, 'rescaleHeight': False, 'trialN': 76, 'loaded': True, 'loadedTime': 50796.39999997616, 'positionName': 'RIGHT', 'positionCoords': [710.32, 179.5], 'bid': 4.32}]",50793.80000001192,1669830520729,edamame,chicken nuggets2,4.3500000000000005,4.32,-0.03000000000000025,edamame,74.29999995231628,80,79.5,True,u,51373.69999998808,579.8999999761581,1669830521309,580,HRV,HRV_0146,2022-11-30 17:49:57
77,"[{'imgObject': {}, 'id': 'omelette', 'src': '/static/foodstim60/omelette.jpg', 'key': 'u', 'origWidth': 410, 'origHeight': 409, 'width': 410, 'height': 409, 'widthPercent': 0.45, 'rescaleHeight': False, 'trialN': 77, 'loaded': True, 'loadedTime': 51375.89999997616, 'positionName': 'LEFT', 'positionCoords': [245.68, 179.5], 'bid': 5.68}, {'imgObject': {}, 'id': 'froot loops w milk', 'src': '/static/foodstim60/froot loops w milk.jpg', 'key': 'i', 'origWidth': 410, 'origHeight': 410, 'width': 410, 'height': 410, 'widthPercent': 0.45, 'rescaleHeight': False, 'trialN': 77, 'loaded': True, 'loadedTime': 51376.19999998808, 'positionName': 'RIGHT', 'positionCoords': [710.32, 179], 'bid': 5.13}]",51374.19999998808,1669830521310,omelette,froot loops w milk,5.68,5.13,-0.5499999999999998,omelette,44.89999997615814,50,50.10000002384186,True,u,51926.19999998808,552.0,1669830521862,552,HRV,HRV_0146,2022-11-30 17:49:57
78,"[{'imgObject': {}, 'id': 'avocado', 'src': '/static/foodstim60/avocado.jpg', 'key': 'u', 'origWidth': 409, 'origHeight': 409, 'width': 409, 'height': 409, 'widthPercent': 0.45, 'rescaleHeight': False, 'trialN': 78, 'loaded': True, 'loadedTime': 51929.39999997616, 'positionName': 'LEFT', 'positionCoords': [246.68, 179.5], 'bid': 5.71}, {'imgObject': {}, 'id': 'blackbeanswithrice', 'src': '/static/foodstim60/blackbeanswithrice.jpg', 'key': 'i', 'origWidth': 410, 'origHeight': 410, 'width': 410, 'height': 410, 'widthPercent': 0.45, 'rescaleHeight': False, 'trialN': 78, 'loaded': True, 'loadedTime': 51929.69999998808, 'positionName': 'RIGHT', 'positionCoords': [710.32, 179], 'bid': 5.17}]",51926.80000001192,1669830521862,avocado,blackbeanswithrice,5.71,5.17,-0.54,blackbeanswithrice,256.0999999642372,262,261.39999997615814,True,i,52689.5,762.6999999880791,1669830522625,763,HRV,HRV_0146,2022-11-30 17:49:57
79,"[{'imgObject': {}, 'id': 'cherries', 'src': '/static/foodstim60/cherries.jpg', 'key': 'u', 'origWidth': 410, 'origHeight': 411, 'width': 410, 'height': 411, 'widthPercent': 0.45, 'rescaleHeight': False, 'trialN': 79, 'loaded': True, 'loadedTime': 52692.30000001192, 'positionName': 'LEFT', 'positionCoords': [245.68, 178.5], 'bid': 4}, {'imgObject': {}, 'id': 'orange slices', 'src': '/static/foodstim60/orange slices.jpg', 'key': 'i', 'origWidth': 409, 'origHeight': 410, 'width': 409, 'height': 410, 'widthPercent': 0.45, 'rescaleHeight': False, 'trialN': 79, 'loaded': True, 'loadedTime': 52693, 'positionName': 'RIGHT', 'positionCoords': [710.32, 179], 'bid': 4.04}]",52690.0,1669830522626,cherries,orange slices,4.0,4.04,0.040000000000000036,orange slices,4.800000011920929,11,10.899999976158142,True,i,53201.30000001192,511.30000001192093,1669830523137,511,HRV,HRV_0146,2022-11-30 17:49:57
80,"[{'imgObject': {}, 'id': 'turkeysandwich', 'src': '/static/foodstim60/turkeysandwich.jpg', 'key': 'u', 'origWidth': 409, 'origHeight': 409, 'width': 409, 'height': 409, 'widthPercent': 0.45, 'rescaleHeight': False, 'trialN': 80, 'loaded': True, 'loadedTime': 53204.09999996424, 'positionName': 'LEFT', 'positionCoords': [246.68, 179.5], 'bid': 5.58}, {'imgObject': {}, 'id': 'apple slices', 'src': '/static/foodstim60/apple slices.jpg', 'key': 'i', 'origWidth': 409, 'origHeight': 410, 'width': 409, 'height': 410, 'widthPercent': 0.45, 'rescaleHeight': False, 'trialN': 80, 'loaded': True, 'loadedTime': 53204.5, 'positionName': 'RIGHT', 'positionCoords': [710.32, 179], 'bid': 5.48}]",53202.0,1669830523138,turkeysandwich,apple slices,5.58,5.48,-0.09999999999999964,apple slices,56.80000001192093,62,62.69999998807907,True,i,53769.80000001192,567.8000000119209,1669830523706,568,HRV,HRV_0146,2022-11-30 17:49:57
81,"[{'imgObject': {}, 'id': 'fruitsalad', 'src': '/static/foodstim60/fruitsalad.jpg', 'key': 'u', 'origWidth': 410, 'origHeight': 410, 'width': 410, 'height': 410, 'widthPercent': 0.45, 'rescaleHeight': False, 'trialN': 81, 'loaded': True, 'loadedTime': 53775.69999998808, 'positionName': 'LEFT', 'positionCoords': [245.68, 179], 'bid': 5.23}, {'imgObject': {}, 'id': 'rigatoni', 'src': '/static/foodstim60/rigatoni.jpg', 'key': 'i', 'origWidth': 411, 'origHeight': 411, 'width': 411, 'height': 411, 'widthPercent': 0.45, 'rescaleHeight': False, 'trialN': 81, 'loaded': True, 'loadedTime': 53776.09999996424, 'positionName': 'RIGHT', 'positionCoords': [710.32, 178.5], 'bid': 4.8500000000000005}]",53770.59999996424,1669830523706,fruitsalad,rigatoni,5.23,4.8500000000000005,-0.3799999999999999,rigatoni,0.20000004768371582,8,8.100000023841858,True,i,54283.89999997616,513.3000000119209,1669830524220,514,HRV,HRV_0146,2022-11-30 17:49:57
82,"[{'imgObject': {}, 'id': 'salmon', 'src': '/static/foodstim60/salmon.jpg', 'key': 'u', 'origWidth': 410, 'origHeight': 409, 'width': 410, 'height': 409, 'widthPercent': 0.45, 'rescaleHeight': False, 'trialN': 82, 'loaded': True, 'loadedTime': 54286.80000001192, 'positionName': 'LEFT', 'positionCoords': [245.68, 179.5], 'bid': 4.13}, {'imgObject': {}, 'id': 'cherry tomato', 'src': '/static/foodstim60/cherry tomato.jpg', 'key': 'i', 'origWidth': 410, 'origHeight': 410, 'width': 410, 'height': 410, 'widthPercent': 0.45, 'rescaleHeight': False, 'trialN': 82, 'loaded': True, 'loadedTime': 54287.19999998808, 'positionName': 'RIGHT', 'positionCoords': [710.32, 179], 'bid': 4.34}]",54284.59999996424,1669830524220,salmon,cherry tomato,4.13,4.34,0.20999999999999996,salmon,190.30000001192093,196,195.4000000357628,True,u,54983.09999996424,698.5,1669830524919,699,HRV,HRV_0146,2022-11-30 17:49:57
83,"[{'imgObject': {}, 'id': 'granola w milk', 'src': '/static/foodstim60/granola w milk.jpg', 'key': 'u', 'origWidth': 410, 'origHeight': 410, 'width': 410, 'height': 410, 'widthPercent': 0.45, 'rescaleHeight': False, 'trialN': 83, 'loaded': True, 'loadedTime': 54986, 'positionName': 'LEFT', 'positionCoords': [245.68, 179], 'bid': 4.41}, {'imgObject': {}, 'id': 'raspberries', 'src': '/static/foodstim60/raspberries.jpg', 'key': 'i', 'origWidth': 411, 'origHeight': 411, 'width': 411, 'height': 411, 'widthPercent': 0.45, 'rescaleHeight': False, 'trialN': 83, 'loaded': True, 'loadedTime': 54986.69999998808, 'positionName': 'RIGHT', 'positionCoords': [710.32, 178.5], 'bid': 4.38}]",54983.69999998808,1669830524919,granola w milk,raspberries,4.41,4.38,-0.03000000000000025,raspberries,259.10000002384186,265,264.39999997615814,True,i,55753.30000001192,769.6000000238419,1669830525689,770,HRV,HRV_0146,2022-11-30 17:49:57
84,"[{'imgObject': {}, 'id': 'Grapes', 'src': '/static/foodstim60/Grapes.jpg', 'key': 'u', 'origWidth': 411, 'origHeight': 411, 'width': 411, 'height': 411, 'widthPercent': 0.45, 'rescaleHeight': False, 'trialN': 84, 'loaded': True, 'loadedTime': 55756.19999998808, 'positionName': 'LEFT', 'positionCoords': [244.68, 178.5], 'bid': 5.2700000000000005}, {'imgObject': {}, 'id': 'avocado', 'src': '/static/foodstim60/avocado.jpg', 'key': 'i', 'origWidth': 409, 'origHeight': 409, 'width': 409, 'height': 409, 'widthPercent': 0.45, 'rescaleHeight': False, 'trialN': 84, 'loaded': True, 'loadedTime': 55757, 'positionName': 'RIGHT', 'positionCoords': [710.32, 179.5], 'bid': 5.71}]",55753.89999997616,1669830525690,Grapes,avocado,5.2700000000000005,5.71,0.4399999999999995,avocado,104.80000001192093,110,110.5,True,i,56367.89999997616,614.0,1669830526304,614,HRV,HRV_0146,2022-11-30 17:49:57
85,"[{'imgObject': {}, 'id': 'shreddedwheatwithmilk', 'src': '/static/foodstim60/shreddedwheatwithmilk.jpg', 'key': 'u', 'origWidth': 410, 'origHeight': 410, 'width': 410, 'height': 410, 'widthPercent': 0.45, 'rescaleHeight': False, 'trialN': 85, 'loaded': True, 'loadedTime': 56370.80000001192, 'positionName': 'LEFT', 'positionCoords': [245.68, 179], 'bid': 4.79}, {'imgObject': {}, 'id': 'luckycharms', 'src': '/static/foodstim60/luckycharms.jpg', 'key': 'i', 'origWidth': 410, 'origHeight': 409, 'width': 410, 'height': 409, 'widthPercent': 0.45, 'rescaleHeight': False, 'trialN': 85, 'loaded': True, 'loadedTime': 56371.19999998808, 'positionName': 'RIGHT', 'positionCoords': [710.32, 179.5], 'bid': 6.01}]",56368.5,1669830526304,shreddedwheatwithmilk,luckycharms,4.79,6.01,1.2199999999999998,luckycharms,6.199999988079071,13,13.0,True,i,56884.0,515.5,1669830526820,516,HRV,HRV_0146,2022-11-30 17:49:57
86,"[{'imgObject': {}, 'id': 'apple slices', 'src': '/static/foodstim60/apple slices.jpg', 'key': 'u', 'origWidth': 409, 'origHeight': 410, 'width': 409, 'height': 410, 'widthPercent': 0.45, 'rescaleHeight': False, 'trialN': 86, 'loaded': True, 'loadedTime': 56886.19999998808, 'positionName': 'LEFT', 'positionCoords': [246.68, 179], 'bid': 5.48}, {'imgObject': {}, 'id': 'olives', 'src': '/static/foodstim60/olives.jpg', 'key': 'i', 'origWidth': 410, 'origHeight': 410, 'width': 410, 'height': 410, 'widthPercent': 0.45, 'rescaleHeight': False, 'trialN': 86, 'loaded': True, 'loadedTime': 56886.39999997616, 'positionName': 'RIGHT', 'positionCoords': [710.32, 179], 'bid': 5.99}]",56884.69999998808,1669830526820,apple slices,olives,5.48,5.99,0.5099999999999998,olives,77.80000001192093,84,83.30000001192093,True,i,57473.19999998808,588.5,1669830527409,589,HRV,HRV_0146,2022-11-30 17:49:57
87,"[{'imgObject': {}, 'id': 'omelette', 'src': '/static/foodstim60/omelette.jpg', 'key': 'u', 'origWidth': 410, 'origHeight': 409, 'width': 410, 'height': 409, 'widthPercent': 0.45, 'rescaleHeight': False, 'trialN': 87, 'loaded': True, 'loadedTime': 57476, 'positionName': 'LEFT', 'positionCoords': [245.68, 179.5], 'bid': 5.68}, {'imgObject': {}, 'id': 'olives', 'src': '/static/foodstim60/olives.jpg', 'key': 'i', 'origWidth': 410, 'origHeight': 410, 'width': 410, 'height': 410, 'widthPercent': 0.45, 'rescaleHeight': False, 'trialN': 87, 'loaded': True, 'loadedTime': 57476.69999998808, 'positionName': 'RIGHT', 'positionCoords': [710.32, 179], 'bid': 5.99}]",57473.80000001192,1669830527410,omelette,olives,5.68,5.99,0.3100000000000005,olives,12.799999952316284,18,18.19999998807907,True,i,57997.0,523.1999999880791,1669830527933,523,HRV,HRV_0146,2022-11-30 17:49:57
88,"[{'imgObject': {}, 'id': 'burrito', 'src': '/static/foodstim60/burrito.jpg', 'key': 'u', 'origWidth': 410, 'origHeight': 410, 'width': 410, 'height': 410, 'widthPercent': 0.45, 'rescaleHeight': False, 'trialN': 88, 'loaded': True, 'loadedTime': 57999.69999998808, 'positionName': 'LEFT', 'positionCoords': [245.68, 179], 'bid': 4.38}, {'imgObject': {}, 'id': 'fried eggs', 'src': '/static/foodstim60/fried eggs.jpg', 'key': 'i', 'origWidth': 410, 'origHeight': 410, 'width': 410, 'height': 410, 'widthPercent': 0.45, 'rescaleHeight': False, 'trialN': 88, 'loaded': True, 'loadedTime': 58000.59999996424, 'positionName': 'RIGHT', 'positionCoords': [710.32, 179], 'bid': 4.51}]",57997.5,1669830527933,burrito,fried eggs,4.38,4.51,0.1299999999999999,fried eggs,45.30000001192093,51,50.69999998807907,True,i,58550.5,553.0,1669830528486,553,HRV,HRV_0146,2022-11-30 17:49:57
89,"[{'imgObject': {}, 'id': 'rigatoni and sauce', 'src': '/static/foodstim60/rigatoni and sauce.jpg', 'key': 'u', 'origWidth': 410, 'origHeight': 411, 'width': 410, 'height': 411, 'widthPercent': 0.45, 'rescaleHeight': False, 'trialN': 89, 'loaded': True, 'loadedTime': 58553.59999996424, 'positionName': 'LEFT', 'positionCoords': [245.68, 178.5], 'bid': 5.87}, {'imgObject': {}, 'id': 'sushi w_condiments', 'src': '/static/foodstim60/sushi w_condiments.jpg', 'key': 'i', 'origWidth': 410, 'origHeight': 410, 'width': 410, 'height': 410, 'widthPercent': 0.45, 'rescaleHeight': False, 'trialN': 89, 'loaded': True, 'loadedTime': 58554.09999996424, 'positionName': 'RIGHT', 'positionCoords': [710.32, 179], 'bid': 5.73}]",58551.09999996424,1669830528487,rigatoni and sauce,sushi w_condiments,5.87,5.73,-0.13999999999999968,rigatoni and sauce,123.5,129,128.80000001192093,True,u,59184.69999998808,633.6000000238419,1669830529120,633,HRV,HRV_0146,2022-11-30 17:49:57
90,"[{'imgObject': {}, 'id': 'burrito', 'src': '/static/foodstim60/burrito.jpg', 'key': 'u', 'origWidth': 410, 'origHeight': 410, 'width': 410, 'height': 410, 'widthPercent': 0.45, 'rescaleHeight': False, 'trialN': 90, 'loaded': True, 'loadedTime': 65907, 'positionName': 'LEFT', 'positionCoords': [245.68, 179], 'bid': 4.38}, {'imgObject': {}, 'id': 'granola w milk', 'src': '/static/foodstim60/granola w milk.jpg', 'key': 'i', 'origWidth': 410, 'origHeight': 410, 'width': 410, 'height': 410, 'widthPercent': 0.45, 'rescaleHeight': False, 'trialN': 90, 'loaded': True, 'loadedTime': 65907.30000001192, 'positionName': 'RIGHT', 'positionCoords': [710.32, 179], 'bid': 4.41}]",65906.30000001192,1669830535842,burrito,granola w milk,4.38,4.41,0.03000000000000025,burrito,836.5999999642372,935,933.5,True,u,67350.0,1443.699999988079,1669830537286,1444,HRV,HRV_0146,2022-11-30 17:49:57
91,"[{'imgObject': {}, 'id': 'popsicles', 'src': '/static/foodstim60/popsicles.jpg', 'key': 'u', 'origWidth': 410, 'origHeight': 410, 'width': 410, 'height': 410, 'widthPercent': 0.45, 'rescaleHeight': False, 'trialN': 91, 'loaded': True, 'loadedTime': 67421.69999998808, 'positionName': 'LEFT', 'positionCoords': [245.68, 179], 'bid': 4.64}, {'imgObject': {}, 'id': 'corn cob', 'src': '/static/foodstim60/corn cob.jpg', 'key': 'i', 'origWidth': 411, 'origHeight': 411, 'width': 411, 'height': 411, 'widthPercent': 0.45, 'rescaleHeight': False, 'trialN': 91, 'loaded': True, 'loadedTime': 67425.80000001192, 'positionName': 'RIGHT', 'positionCoords': [710.32, 178.5], 'bid': 4.3100000000000005}]",67359.39999997616,1669830537295,popsicles,corn cob,4.64,4.3100000000000005,-0.3299999999999992,popsicles,38.5,58,58.10000002384186,True,u,67922.89999997616,563.5,1669830537859,564,HRV,HRV_0146,2022-11-30 17:49:57
92,"[{'imgObject': {}, 'id': 'luckycharms', 'src': '/static/foodstim60/luckycharms.jpg', 'key': 'u', 'origWidth': 410, 'origHeight': 409, 'width': 410, 'height': 409, 'widthPercent': 0.45, 'rescaleHeight': False, 'trialN': 92, 'loaded': True, 'loadedTime': 67926.30000001192, 'positionName': 'LEFT', 'positionCoords': [245.68, 179.5], 'bid': 6.01}, {'imgObject': {}, 'id': 'Tribe humus pita', 'src': '/static/foodstim60/Tribe humus pita.jpg', 'key': 'i', 'origWidth': 411, 'origHeight': 411, 'width': 411, 'height': 411, 'widthPercent': 0.45, 'rescaleHeight': False, 'trialN': 92, 'loaded': True, 'loadedTime': 67926.69999998808, 'positionName': 'RIGHT', 'positionCoords': [710.32, 178.5], 'bid': 6.47}]",67923.5,1669830537859,luckycharms,Tribe humus pita,6.01,6.47,0.45999999999999996,Tribe humus pita,158.5999999642372,164,163.89999997615814,True,i,68592.80000001192,669.3000000119209,1669830538529,670,HRV,HRV_0146,2022-11-30 17:49:57
93,"[{'imgObject': {}, 'id': 'rigatoni', 'src': '/static/foodstim60/rigatoni.jpg', 'key': 'u', 'origWidth': 411, 'origHeight': 411, 'width': 411, 'height': 411, 'widthPercent': 0.45, 'rescaleHeight': False, 'trialN': 93, 'loaded': True, 'loadedTime': 68595.5, 'positionName': 'LEFT', 'positionCoords': [244.68, 178.5], 'bid': 4.8500000000000005}, {'imgObject': {}, 'id': 'mango', 'src': '/static/foodstim60/mango.jpg', 'key': 'i', 'origWidth': 411, 'origHeight': 411, 'width': 411, 'height': 411, 'widthPercent': 0.45, 'rescaleHeight': False, 'trialN': 93, 'loaded': True, 'loadedTime': 68596.30000001192, 'positionName': 'RIGHT', 'positionCoords': [710.32, 178.5], 'bid': 5.14}]",68593.39999997616,1669830538529,rigatoni,mango,4.8500000000000005,5.14,0.28999999999999915,rigatoni,23.5,28,27.5,True,u,69122.59999996424,529.1999999880791,1669830539058,529,HRV,HRV_0146,2022-11-30 17:49:57
94,"[{'imgObject': {}, 'id': 'Grapes', 'src': '/static/foodstim60/Grapes.jpg', 'key': 'u', 'origWidth': 411, 'origHeight': 411, 'width': 411, 'height': 411, 'widthPercent': 0.45, 'rescaleHeight': False, 'trialN': 94, 'loaded': True, 'loadedTime': 69125.59999996424, 'positionName': 'LEFT', 'positionCoords': [244.68, 178.5], 'bid': 5.2700000000000005}, {'imgObject': {}, 'id': 'sweetpotato', 'src': '/static/foodstim60/sweetpotato.jpg', 'key': 'i', 'origWidth': 410, 'origHeight': 410, 'width': 410, 'height': 410, 'widthPercent': 0.45, 'rescaleHeight': False, 'trialN': 94, 'loaded': True, 'loadedTime': 69125.89999997616, 'positionName': 'RIGHT', 'positionCoords': [710.32, 179], 'bid': 5.23}]",69123.30000001192,1669830539059,Grapes,sweetpotato,5.2700000000000005,5.23,-0.040000000000000036,sweetpotato,157.5999999642372,164,163.79999995231628,True,i,69789.59999996424,666.2999999523163,1669830539725,666,HRV,HRV_0146,2022-11-30 17:49:57
95,"[{'imgObject': {}, 'id': 'chickenfingers', 'src': '/static/foodstim60/chickenfingers.jpg', 'key': 'u', 'origWidth': 410, 'origHeight': 410, 'width': 410, 'height': 410, 'widthPercent': 0.45, 'rescaleHeight': False, 'trialN': 95, 'loaded': True, 'loadedTime': 69792.39999997616, 'positionName': 'LEFT', 'positionCoords': [245.68, 179], 'bid': 4.41}, {'imgObject': {}, 'id': 'raisin bran w milk', 'src': '/static/foodstim60/raisin bran w milk.jpg', 'key': 'i', 'origWidth': 411, 'origHeight': 411, 'width': 411, 'height': 411, 'widthPercent': 0.45, 'rescaleHeight': False, 'trialN': 95, 'loaded': True, 'loadedTime': 69792.80000001192, 'positionName': 'RIGHT', 'positionCoords': [710.32, 178.5], 'bid': 4.01}]",69790.19999998808,1669830539726,chickenfingers,raisin bran w milk,4.41,4.01,-0.40000000000000036,chickenfingers,182.60000002384186,189,189.39999997615814,True,u,70482.39999997616,692.1999999880791,1669830540418,692,HRV,HRV_0146,2022-11-30 17:49:57
96,"[{'imgObject': {}, 'id': 'blueberries', 'src': '/static/foodstim60/blueberries.jpg', 'key': 'u', 'origWidth': 411, 'origHeight': 411, 'width': 411, 'height': 411, 'widthPercent': 0.45, 'rescaleHeight': False, 'trialN': 96, 'loaded': True, 'loadedTime': 70483.89999997616, 'positionName': 'LEFT', 'positionCoords': [244.68, 178.5], 'bid': 5.1000000000000005}, {'imgObject': {}, 'id': 'tacos', 'src': '/static/foodstim60/tacos.jpg', 'key': 'i', 'origWidth': 411, 'origHeight': 411, 'width': 411, 'height': 411, 'widthPercent': 0.45, 'rescaleHeight': False, 'trialN': 96, 'loaded': True, 'loadedTime': 70484.09999996424, 'positionName': 'RIGHT', 'positionCoords': [710.32, 178.5], 'bid': 5.04}]",70483.0,1669830540419,blueberries,tacos,5.1000000000000005,5.04,-0.0600000000000005,tacos,107.80000001192093,113,112.59999996423721,True,i,71096.69999998808,613.6999999880791,1669830541032,613,HRV,HRV_0146,2022-11-30 17:49:57
97,"[{'imgObject': {}, 'id': 'mac & cheese', 'src': '/static/foodstim60/mac & cheese.jpg', 'key': 'u', 'origWidth': 410, 'origHeight': 410, 'width': 410, 'height': 410, 'widthPercent': 0.45, 'rescaleHeight': False, 'trialN': 97, 'loaded': True, 'loadedTime': 71098.30000001192, 'positionName': 'LEFT', 'positionCoords': [245.68, 179], 'bid': 5.43}, {'imgObject': {}, 'id': 'rigatoni and sauce', 'src': '/static/foodstim60/rigatoni and sauce.jpg', 'key': 'i', 'origWidth': 410, 'origHeight': 411, 'width': 410, 'height': 411, 'widthPercent': 0.45, 'rescaleHeight': False, 'trialN': 97, 'loaded': True, 'loadedTime': 71098.5, 'positionName': 'RIGHT', 'positionCoords': [710.32, 178.5], 'bid': 5.87}]",71097.59999996424,1669830541033,mac & cheese,rigatoni and sauce,5.43,5.87,0.4400000000000004,rigatoni and sauce,54.10000002384186,83,82.40000003576279,True,i,71680.59999996424,583.0,1669830541616,583,HRV,HRV_0146,2022-11-30 17:49:57
98,"[{'imgObject': {}, 'id': 'avocado', 'src': '/static/foodstim60/avocado.jpg', 'key': 'u', 'origWidth': 409, 'origHeight': 409, 'width': 409, 'height': 409, 'widthPercent': 0.45, 'rescaleHeight': False, 'trialN': 98, 'loaded': True, 'loadedTime': 71683.89999997616, 'positionName': 'LEFT', 'positionCoords': [246.68, 179.5], 'bid': 5.71}, {'imgObject': {}, 'id': 'banana', 'src': '/static/foodstim60/banana.jpg', 'key': 'i', 'origWidth': 410, 'origHeight': 410, 'width': 410, 'height': 410, 'widthPercent': 0.45, 'rescaleHeight': False, 'trialN': 98, 'loaded': True, 'loadedTime': 71684.19999998808, 'positionName': 'RIGHT', 'positionCoords': [710.32, 179], 'bid': 6.12}]",71682.30000001192,1669830541618,avocado,banana,5.71,6.12,0.41000000000000014,avocado,217.5,223,223.19999998807907,True,u,72407.09999996424,724.7999999523163,1669830542343,725,HRV,HRV_0146,2022-11-30 17:49:57
99,"[{'imgObject': {}, 'id': 'eggsalad', 'src': '/static/foodstim60/eggsalad.jpg', 'key': 'u', 'origWidth': 410, 'origHeight': 409, 'width': 410, 'height': 409, 'widthPercent': 0.45, 'rescaleHeight': False, 'trialN': 99, 'loaded': True, 'loadedTime': 72411.09999996424, 'positionName': 'LEFT', 'positionCoords': [245.68, 179.5], 'bid': 5.19}, {'imgObject': {}, 'id': 'cocktailshrimp', 'src': '/static/foodstim60/cocktailshrimp.jpg', 'key': 'i', 'origWidth': 410, 'origHeight': 410, 'width': 410, 'height': 410, 'widthPercent': 0.45, 'rescaleHeight': False, 'trialN': 99, 'loaded': True, 'loadedTime': 72411.59999996424, 'positionName': 'RIGHT', 'positionCoords': [710.32, 179], 'bid': 5.43}]",72408.0,1669830542344,eggsalad,cocktailshrimp,5.19,5.43,0.23999999999999932,cocktailshrimp,116.89999997615814,122,122.0,True,i,73035.5,627.5,1669830542971,627,HRV,HRV_0146,2022-11-30 17:49:57
100,"[{'imgObject': {}, 'id': 'kiwi', 'src': '/static/foodstim60/kiwi.jpg', 'key': 'u', 'origWidth': 410, 'origHeight': 410, 'width': 410, 'height': 410, 'widthPercent': 0.45, 'rescaleHeight': False, 'trialN': 100, 'loaded': True, 'loadedTime': 73038.19999998808, 'positionName': 'LEFT', 'positionCoords': [245.68, 179], 'bid': 5.86}, {'imgObject': {}, 'id': 'salad w chicken', 'src': '/static/foodstim60/salad w chicken.jpg', 'key': 'i', 'origWidth': 411, 'origHeight': 411, 'width': 411, 'height': 411, 'widthPercent': 0.45, 'rescaleHeight': False, 'trialN': 100, 'loaded': True, 'loadedTime': 73039, 'positionName': 'RIGHT', 'positionCoords': [710.32, 178.5], 'bid': 5.21}]",73036.09999996424,1669830542972,kiwi,salad w chicken,5.86,5.21,-0.6500000000000004,salad w chicken,33.700000047683716,39,39.0,True,i,73578.30000001192,542.2000000476837,1669830543514,542,HRV,HRV_0146,2022-11-30 17:49:57
101,"[{'imgObject': {}, 'id': 'cocktailshrimp', 'src': '/static/foodstim60/cocktailshrimp.jpg', 'key': 'u', 'origWidth': 410, 'origHeight': 410, 'width': 410, 'height': 410, 'widthPercent': 0.45, 'rescaleHeight': False, 'trialN': 101, 'loaded': True, 'loadedTime': 73581.19999998808, 'positionName': 'LEFT', 'positionCoords': [245.68, 179], 'bid': 5.43}, {'imgObject': {}, 'id': 'Tribe humus pita', 'src': '/static/foodstim60/Tribe humus pita.jpg', 'key': 'i', 'origWidth': 411, 'origHeight': 411, 'width': 411, 'height': 411, 'widthPercent': 0.45, 'rescaleHeight': False, 'trialN': 101, 'loaded': True, 'loadedTime': 73581.59999996424, 'positionName': 'RIGHT', 'positionCoords': [710.32, 178.5], 'bid': 6.47}]",73579.0,1669830543515,cocktailshrimp,Tribe humus pita,5.43,6.47,1.04,Tribe humus pita,211.80000001192093,218,218.0999999642372,True,i,74302.5,723.5,1669830544238,723,HRV,HRV_0146,2022-11-30 17:49:57
102,"[{'imgObject': {}, 'id': 'blackbeanswithrice', 'src': '/static/foodstim60/blackbeanswithrice.jpg', 'key': 'u', 'origWidth': 410, 'origHeight': 410, 'width': 410, 'height': 410, 'widthPercent': 0.45, 'rescaleHeight': False, 'trialN': 102, 'loaded': True, 'loadedTime': 74305.39999997616, 'positionName': 'LEFT', 'positionCoords': [245.68, 179], 'bid': 5.17}, {'imgObject': {}, 'id': 'hotdog w must', 'src': '/static/foodstim60/hotdog w must.jpg', 'key': 'i', 'origWidth': 409, 'origHeight': 409, 'width': 409, 'height': 409, 'widthPercent': 0.45, 'rescaleHeight': False, 'trialN': 102, 'loaded': True, 'loadedTime': 74305.89999997616, 'positionName': 'RIGHT', 'positionCoords': [710.32, 179.5], 'bid': 4.16}]",74303.19999998808,1669830544239,blackbeanswithrice,hotdog w must,5.17,4.16,-1.0099999999999998,blackbeanswithrice,5.5,12,12.100000023841858,True,u,74820.5,517.3000000119209,1669830544756,517,HRV,HRV_0146,2022-11-30 17:49:57
103,"[{'imgObject': {}, 'id': 'tacos', 'src': '/static/foodstim60/tacos.jpg', 'key': 'u', 'origWidth': 411, 'origHeight': 411, 'width': 411, 'height': 411, 'widthPercent': 0.45, 'rescaleHeight': False, 'trialN': 103, 'loaded': True, 'loadedTime': 74823.30000001192, 'positionName': 'LEFT', 'positionCoords': [244.68, 178.5], 'bid': 5.04}, {'imgObject': {}, 'id': 'raisin bran w milk', 'src': '/static/foodstim60/raisin bran w milk.jpg', 'key': 'i', 'origWidth': 411, 'origHeight': 411, 'width': 411, 'height': 411, 'widthPercent': 0.45, 'rescaleHeight': False, 'trialN': 103, 'loaded': True, 'loadedTime': 74824, 'positionName': 'RIGHT', 'positionCoords': [710.32, 178.5], 'bid': 4.01}]",74821.09999996424,1669830544757,tacos,raisin bran w milk,5.04,4.01,-1.0300000000000002,raisin bran w milk,162.60000002384186,168,167.80000001192093,True,i,75491.39999997616,670.3000000119209,1669830545427,670,HRV,HRV_0146,2022-11-30 17:49:57
104,"[{'imgObject': {}, 'id': 'raisin bran w milk', 'src': '/static/foodstim60/raisin bran w milk.jpg', 'key': 'u', 'origWidth': 411, 'origHeight': 411, 'width': 411, 'height': 411, 'widthPercent': 0.45, 'rescaleHeight': False, 'trialN': 104, 'loaded': True, 'loadedTime': 75495.19999998808, 'positionName': 'LEFT', 'positionCoords': [244.68, 178.5], 'bid': 4.01}, {'imgObject': {}, 'id': 'orange slices', 'src': '/static/foodstim60/orange slices.jpg', 'key': 'i', 'origWidth': 409, 'origHeight': 410, 'width': 409, 'height': 410, 'widthPercent': 0.45, 'rescaleHeight': False, 'trialN': 104, 'loaded': True, 'loadedTime': 75495.69999998808, 'positionName': 'RIGHT', 'positionCoords': [710.32, 179], 'bid': 4.04}]",75492.0,1669830545428,raisin bran w milk,orange slices,4.01,4.04,0.03000000000000025,raisin bran w milk,23.69999998807907,34,33.89999997615814,True,u,76030.0,538.0,1669830545966,538,HRV,HRV_0146,2022-11-30 17:49:57
105,"[{'imgObject': {}, 'id': 'cocktailshrimp', 'src': '/static/foodstim60/cocktailshrimp.jpg', 'key': 'u', 'origWidth': 410, 'origHeight': 410, 'width': 410, 'height': 410, 'widthPercent': 0.45, 'rescaleHeight': False, 'trialN': 105, 'loaded': True, 'loadedTime': 76032.89999997616, 'positionName': 'LEFT', 'positionCoords': [245.68, 179], 'bid': 5.43}, {'imgObject': {}, 'id': 'raspberries', 'src': '/static/foodstim60/raspberries.jpg', 'key': 'i', 'origWidth': 411, 'origHeight': 411, 'width': 411, 'height': 411, 'widthPercent': 0.45, 'rescaleHeight': False, 'trialN': 105, 'loaded': True, 'loadedTime': 76033.39999997616, 'positionName': 'RIGHT', 'positionCoords': [710.32, 178.5], 'bid': 4.38}]",76030.69999998808,1669830545967,cocktailshrimp,raspberries,5.43,4.38,-1.0499999999999998,raspberries,188.89999997615814,194,194.19999998807907,True,i,76730.09999996424,699.3999999761581,1669830546666,699,HRV,HRV_0146,2022-11-30 17:49:57
106,"[{'imgObject': {}, 'id': 'rigatoni and sauce', 'src': '/static/foodstim60/rigatoni and sauce.jpg', 'key': 'u', 'origWidth': 410, 'origHeight': 411, 'width': 410, 'height': 411, 'widthPercent': 0.45, 'rescaleHeight': False, 'trialN': 106, 'loaded': True, 'loadedTime': 76732.89999997616, 'positionName': 'LEFT', 'positionCoords': [245.68, 178.5], 'bid': 5.87}, {'imgObject': {}, 'id': 'fruitsalad', 'src': '/static/foodstim60/fruitsalad.jpg', 'key': 'i', 'origWidth': 410, 'origHeight': 410, 'width': 410, 'height': 410, 'widthPercent': 0.45, 'rescaleHeight': False, 'trialN': 106, 'loaded': True, 'loadedTime': 76733.30000001192, 'positionName': 'RIGHT', 'positionCoords': [710.32, 179], 'bid': 5.23}]",76730.69999998808,1669830546667,rigatoni and sauce,fruitsalad,5.87,5.23,-0.6399999999999997,rigatoni and sauce,31.69999998807907,37,37.69999998807907,True,u,77268.89999997616,538.1999999880791,1669830547205,538,HRV,HRV_0146,2022-11-30 17:49:57
107,"[{'imgObject': {}, 'id': 'rigatoni', 'src': '/static/foodstim60/rigatoni.jpg', 'key': 'u', 'origWidth': 411, 'origHeight': 411, 'width': 411, 'height': 411, 'widthPercent': 0.45, 'rescaleHeight': False, 'trialN': 107, 'loaded': True, 'loadedTime': 77271.59999996424, 'positionName': 'LEFT', 'positionCoords': [244.68, 178.5], 'bid': 4.8500000000000005}, {'imgObject': {}, 'id': 'burrito', 'src': '/static/foodstim60/burrito.jpg', 'key': 'i', 'origWidth': 410, 'origHeight': 410, 'width': 410, 'height': 410, 'widthPercent': 0.45, 'rescaleHeight': False, 'trialN': 107, 'loaded': True, 'loadedTime': 77272.30000001192, 'positionName': 'RIGHT', 'positionCoords': [710.32, 179], 'bid': 4.38}]",77269.5,1669830547205,rigatoni,burrito,4.8500000000000005,4.38,-0.47000000000000064,burrito,49.89999997615814,55,54.89999997615814,True,i,77825.5,556.0,1669830547761,556,HRV,HRV_0146,2022-11-30 17:49:57
108,"[{'imgObject': {}, 'id': 'olives', 'src': '/static/foodstim60/olives.jpg', 'key': 'u', 'origWidth': 410, 'origHeight': 410, 'width': 410, 'height': 410, 'widthPercent': 0.45, 'rescaleHeight': False, 'trialN': 108, 'loaded': True, 'loadedTime': 77828.39999997616, 'positionName': 'LEFT', 'positionCoords': [245.68, 179], 'bid': 5.99}, {'imgObject': {}, 'id': 'kiwi', 'src': '/static/foodstim60/kiwi.jpg', 'key': 'i', 'origWidth': 410, 'origHeight': 410, 'width': 410, 'height': 410, 'widthPercent': 0.45, 'rescaleHeight': False, 'trialN': 108, 'loaded': True, 'loadedTime': 77829.09999996424, 'positionName': 'RIGHT', 'positionCoords': [710.32, 179], 'bid': 5.86}]",77826.09999996424,1669830547762,olives,kiwi,5.99,5.86,-0.1299999999999999,olives,31.400000035762787,42,42.0,True,u,78380.59999996424,554.5,1669830548317,555,HRV,HRV_0146,2022-11-30 17:49:57
