success,trial_type,trial_index,time_elapsed,internal_node_id,Block,TrialNumber,TrialTime,trialTimeDiff,FPS_avg,FPS_med,FPS_mode,TrialDur,winResizeTime,rt,block,button_pressed,MotCoh,MotDir,ColCoh,Color,ChoiceKey,Choice,Accuracy,RT,nFrames,FPS,PPD,missTrial,missTrialMsg,onsetDelay,fullScreenExitTime,canvCenter,TrialType,Score,BlockTrial,stimulus,button_labels,exp,subjectId,date
True,fullscreen,0,1576,0.0-0.0,0.0,1.0,,,,,,,,,,,,,,,,,,,,,,,,,,,,,,,,HRV,HRV_0235,2022-11-30 20:32:24
,wl-check-fps,1,6611,0.0-1.0,0.0,2.0,"[2031, 2044.7, 2061.4, 2095.3, 2111.6, 2128.7, 2145.5, 2161.6, 2178.6, 2195, 2211.7, 2228.8, 2245.4, 2261.4, 2278.3, 2295, 2311.6, 2328.3, 2344.7, 2361.6, 2378.6, 2394.8, 2411.4, 2428.6, 2445.1, 2461.6, 2478.5, 2495.2, 2511.4, 2528.7, 2544.9, 2561.5, 2578.3, 2594.8, 2611.4, 2628.1, 2644.8, 2661.3, 2678.5, 2694.7, 2711.4, 2729.3, 2744.8, 2761.6, 2778, 2794.7, 2811.3, 2828.3, 2844.7, 2861.5, 2878.2, 2895.3, 2911.4, 2928.4, 2944.7, 2961.5, 2978.4, 2994.7, 3011.7, 3027.9, 3044.6, 3061.4, 3078.4, 3095.1, 3111.3, 3128.4, 3145, 3161.4, 3178.1, 3194.6, 3211.5, 3228.5, 3244.5, 3261.3, 3278.3, 3294.8, 3311.3, 3328.3, 3344.8, 3361.5, 3378.3, 3394.7, 3411.3, 3428, 3444.5, 3461.3, 3478, 3494.8, 3511.1, 3528.2, 3544.7, 3561.2, 3578.8, 3594.4, 3611.4, 3628.3, 3645, 3661.1, 3678, 3694.7, 3711.2, 3727.9, 3744.6, 3761.2, 3778.2, 3796.2, 3811.4, 3827.9, 3844.7, 3861.2, 3878.6, 3894.9, 3911.4, 3928.5, 3944.8, 3962.4, 3978.4, 3994.5, 4011.3, 4028.4, 4044.8, 4061.4, 4078.3, 4094.9, 4112.2, 4128.5, 4144.5, 4161.4, 4178.1, 4195, 4211.3, 4228.4, 4245.1, 4261.5, 4278, 4294.8, 4312.3, 4328.4, 4344.4, 4361.4, 4378.6, 4394.8, 4411.3, 4428, 4444.7, 4461.1, 4479.1, 4494.4, 4511.4, 4528.3, 4544.4, 4561.9, 4578, 4594.7, 4611.1, 4628.3, 4644.6, 4661.2, 4678, 4694.7, 4711.6, 4727.8, 4744.3, 4761.2, 4778.2, 4794.3, 4811.3, 4828.2, 4844.5, 4861.2, 4878, 4894.3, 4911.3, 4928.2, 4944.3, 4961.2, 4978.1, 4994.6, 5012.2, 5028.3, 5044.3, 5060.9, 5077.9, 5094.4, 5111.2, 5127.9, 5144.7, 5161.2, 5178.1, 5194.4, 5211.3, 5228.2, 5244.6, 5261.6, 5278.2, 5294.2, 5311.1, 5327.8, 5344.9, 5361.2, 5378.1, 5394.6, 5411.2, 5428.1, 5444.1, 5461.5, 5478.1, 5494.1, 5511.2, 5528, 5544.2, 5561.1, 5577.8, 5594.5, 5611.5, 5628, 5644.3, 5661.5, 5678.1, 5694.1, 5711.2, 5728, 5744.1, 5761.3, 5778.2, 5794.5, 5811.1, 5827.7, 5844, 5860.7, 5878, 5894, 5911.2, 5927.4, 5944.4, 5961.4, 5978.1, 5994, 6011.6, 6028.2, 6044.1, 6061.2, 6077.6, 6094, 6111, 6128, 6144.6, 6161.1, 6177.6, 6194.2, 6211.5, 6227.9, 6243.9, 6261.2, 6277.9, 6294, 6311.4, 6327.9, 6344.1, 6361.3, 6377.3, 6394, 6412, 6445.1, 6462.4, 6479.5, 6495.1, 6512.3, 6528.9, 6545.7, 6562.6, 6578.2, 6594.8, 6611.7, 6628.7, 6645, 6662.1, 6679.3, 6695.1, 6712.2, 6728.9, 6745.4, 6762.4, 6778.6, 6795.2, 6811.9, 6829.4, 6844.9, 6862.2, 6878.4, 6895.9, 6911.7, 6928.7, 6945.3, 6961.8, 6979.3, 6995, 7012.3, 7028.6, 7044.9]","[1.2, 13.7, 16.7, 33.9, 16.3, 17.1, 16.8, 16.1, 17, 16.4, 16.7, 17.1, 16.6, 16, 16.9, 16.7, 16.6, 16.7, 16.4, 16.9, 17, 16.2, 16.6, 17.2, 16.5, 16.5, 16.9, 16.7, 16.2, 17.3, 16.2, 16.6, 16.8, 16.5, 16.6, 16.7, 16.7, 16.5, 17.2, 16.2, 16.7, 17.9, 15.5, 16.8, 16.4, 16.7, 16.6, 17, 16.4, 16.8, 16.7, 17.1, 16.1, 17, 16.3, 16.8, 16.9, 16.3, 17, 16.2, 16.7, 16.8, 17, 16.7, 16.2, 17.1, 16.6, 16.4, 16.7, 16.5, 16.9, 17, 16, 16.8, 17, 16.5, 16.5, 17, 16.5, 16.7, 16.8, 16.4, 16.6, 16.7, 16.5, 16.8, 16.7, 16.8, 16.3, 17.1, 16.5, 16.5, 17.6, 15.6, 17, 16.9, 16.7, 16.1, 16.9, 16.7, 16.5, 16.7, 16.7, 16.6, 17, 18, 15.2, 16.5, 16.8, 16.5, 17.4, 16.3, 16.5, 17.1, 16.3, 17.6, 16, 16.1, 16.8, 17.1, 16.4, 16.6, 16.9, 16.6, 17.3, 16.3, 16, 16.9, 16.7, 16.9, 16.3, 17.1, 16.7, 16.4, 16.5, 16.8, 17.5, 16.1, 16, 17, 17.2, 16.2, 16.5, 16.7, 16.7, 16.4, 18, 15.3, 17, 16.9, 16.1, 17.5, 16.1, 16.7, 16.4, 17.2, 16.3, 16.6, 16.8, 16.7, 16.9, 16.2, 16.5, 16.9, 17, 16.1, 17, 16.9, 16.3, 16.7, 16.8, 16.3, 17, 16.9, 16.1, 16.9, 16.9, 16.5, 17.6, 16.1, 16, 16.6, 17, 16.5, 16.8, 16.7, 16.8, 16.5, 16.9, 16.3, 16.9, 16.9, 16.4, 17, 16.6, 16, 16.9, 16.7, 17.1, 16.3, 16.9, 16.5, 16.6, 16.9, 16, 17.4, 16.6, 16, 17.1, 16.8, 16.2, 16.9, 16.7, 16.7, 17, 16.5, 16.3, 17.2, 16.6, 16, 17.1, 16.8, 16.1, 17.2, 16.9, 16.3, 16.6, 16.6, 16.3, 16.7, 17.3, 16, 17.2, 16.2, 17, 17, 16.7, 15.9, 17.6, 16.6, 15.9, 17.1, 16.4, 16.4, 17, 17, 16.6, 16.5, 16.5, 16.6, 17.3, 16.4, 16, 17.3, 16.7, 16.1, 17.4, 16.5, 16.2, 17.2, 16, 16.7, 18, 33.1, 17.3, 17.1, 15.6, 17.2, 16.6, 16.8, 16.9, 15.6, 16.6, 16.9, 17, 16.3, 17.1, 17.2, 15.8, 17.1, 16.7, 16.5, 17, 16.2, 16.6, 16.7, 17.5, 15.5, 17.3, 16.2, 17.5, 15.8, 17, 16.6, 16.5, 17.5, 15.7, 17.3, 16.3, 16.3]",60.0,61.0,60.0,5032.4,[],,,,,,,,,,,,,,,,,,,,,,,,,HRV,HRV_0235,2022-11-30 20:32:24
,wl-html-keyboard-response,2,53857,0.0-2.0-0.0,0.0,3.0,,,,,,,,45234.80000000447,0.0,0,,,,,,,,,,,,,,,,,,,,,,HRV,HRV_0235,2022-11-30 20:32:24
,wl-rdm,3,60379,0.0-3.0-0.0,0.0,4.0,,,,,,,[],,,,0.0,0.0,87.9,0.0,u,0.0,True,925.5,56.0,60.0,40.0,False,,3000.0,[],"[768, 432]",ColorTask_Demo,,,,,HRV,HRV_0235,2022-11-30 20:32:24
,wl-rdm,4,65628,0.0-3.0-1.0,0.0,5.0,,,,,,,[],,,,0.0,0.0,87.9,1.0,i,1.0,True,1151.0,70.0,60.0,40.0,False,,2000.0,[],"[768, 432]",ColorTask_Demo,,,,,HRV,HRV_0235,2022-11-30 20:32:24
,wl-html-keyboard-response,5,71473,0.0-3.0-2.0,0.0,6.0,,,,,,,,3836.6999999955297,0.0,1,,,,,,,,,,,,,,,,,,,,,,HRV,HRV_0235,2022-11-30 20:32:24
,wl-html-keyboard-response,6,81649,0.0-4.0-0.0,0.0,7.0,,,,,,,,8169.89999999851,0.0,0,,,,,,,,,,,,,,,,,,,,,,HRV,HRV_0235,2022-11-30 20:32:24
,wl-html-keyboard-response,7,108016,0.0-5.0-0.0,0.0,8.0,,,,,,,,24358.89999999851,0.0,0,,,,,,,,,,,,,,,,,,,,,,HRV,HRV_0235,2022-11-30 20:32:24
,wl-rdm,8,110184,0.0-6.0-0.0,0.0,9.0,,,,,,,[],,,,,,50.0,0.0,i,1.0,False,869.5,53.0,60.0,40.0,False,,206.22255001531295,[],"[768, 432]",ColorTask,-1.0,1.0,,,HRV,HRV_0235,2022-11-30 20:32:24
,wl-rdm,9,112434,0.0-6.1-0.1,0.0,10.0,,,,,,,[],,,,,,50.0,0.0,i,1.0,False,782.6000000014901,47.0,60.0,40.0,False,,388.51352014467363,[],"[768, 432]",ColorTask,-2.0,2.0,,,HRV,HRV_0235,2022-11-30 20:32:24
,wl-rdm,10,114517,0.0-6.2-0.2,0.0,11.0,,,,,,,[],,,,,,73.6,1.0,i,1.0,True,669.0,41.0,60.0,40.0,False,,316.8385589073817,[],"[768, 432]",ColorTask,-1.0,3.0,,,HRV,HRV_0235,2022-11-30 20:32:24
,wl-rdm,11,116400,0.0-6.3-0.3,0.0,12.0,,,,,,,[],,,,,,62.5,0.0,u,0.0,True,602.2000000029802,37.0,60.0,40.0,False,,202.5041751734477,[],"[768, 432]",ColorTask,0.0,4.0,,,HRV,HRV_0235,2022-11-30 20:32:24
,wl-rdm,12,118382,0.0-6.4-0.4,0.0,13.0,,,,,,,[],,,,,,56.4,1.0,i,1.0,True,698.8999999985099,42.0,60.0,40.0,False,,202.9166721893353,[],"[768, 432]",ColorTask,1.0,5.0,,,HRV,HRV_0235,2022-11-30 20:32:24
,wl-rdm,13,120232,0.0-6.5-0.5,0.0,14.0,,,,,,,[],,,,,,50.0,1.0,u,0.0,False,546.5,33.0,60.0,40.0,False,,247.7944371270703,[],"[768, 432]",ColorTask,0.0,6.0,,,HRV,HRV_0235,2022-11-30 20:32:24
,wl-rdm,14,122365,0.0-6.6-0.6,0.0,15.0,,,,,,,[],,,,,,50.0,1.0,u,0.0,False,790.3999999985099,48.0,60.0,40.0,False,,262.59841779752355,[],"[768, 432]",ColorTask,-1.0,7.0,,,HRV,HRV_0235,2022-11-30 20:32:24
,wl-rdm,15,124348,0.0-6.7-0.7,0.0,16.0,,,,,,,[],,,,,,56.4,1.0,i,1.0,True,673.2000000029802,41.0,60.0,40.0,False,,225.8862457599237,[],"[768, 432]",ColorTask,0.0,8.0,,,HRV,HRV_0235,2022-11-30 20:32:24
,wl-rdm,16,126214,0.0-6.8-0.8,0.0,17.0,,,,,,,[],,,,,,87.9,0.0,u,0.0,True,514.3000000044703,31.0,60.0,40.0,False,,295.9630952145911,[],"[768, 432]",ColorTask,1.0,9.0,,,HRV,HRV_0235,2022-11-30 20:32:24
,wl-rdm,17,128230,0.0-6.9-0.9,0.0,18.0,,,,,,,[],,,,,,56.4,0.0,i,1.0,False,671.3000000044703,41.0,60.0,40.0,False,,261.231139314416,[],"[768, 432]",ColorTask,0.0,10.0,,,HRV,HRV_0235,2022-11-30 20:32:24
,wl-rdm,18,130296,0.0-6.10-0.10,0.0,19.0,,,,,,,[],,,,,,87.9,1.0,i,1.0,True,738.8000000044703,45.0,60.0,40.0,False,,238.73671212460727,[],"[768, 432]",ColorTask,1.0,11.0,,,HRV,HRV_0235,2022-11-30 20:32:24
,wl-rdm,19,132529,0.0-6.11-0.11,0.0,20.0,,,,,,,[],,,,,,73.6,1.0,i,1.0,True,856.2999999970198,52.0,60.0,40.0,False,,286.2479778398632,[],"[768, 432]",ColorTask,2.0,12.0,,,HRV,HRV_0235,2022-11-30 20:32:24
,wl-rdm,20,134495,0.0-6.12-0.12,0.0,21.0,,,,,,,[],,,,,,73.6,0.0,u,0.0,True,662.7000000029802,40.0,60.0,40.0,False,,249.4244425145502,[],"[768, 432]",ColorTask,3.0,13.0,,,HRV,HRV_0235,2022-11-30 20:32:24
,wl-rdm,21,136611,0.0-6.13-0.13,0.0,22.0,,,,,,,[],,,,,,87.9,1.0,i,1.0,True,831.5,50.0,60.0,40.0,False,,210.83010224573135,[],"[768, 432]",ColorTask,4.0,14.0,,,HRV,HRV_0235,2022-11-30 20:32:24
,wl-rdm,22,138710,0.0-6.14-0.14,0.0,23.0,,,,,,,[],,,,,,73.6,1.0,i,1.0,True,791.2000000029802,48.0,60.0,40.0,False,,218.37393258779045,[],"[768, 432]",ColorTask,5.0,15.0,,,HRV,HRV_0235,2022-11-30 20:32:24
,wl-rdm,23,140626,0.0-6.15-0.15,0.0,24.0,,,,,,,[],,,,,,56.4,1.0,i,1.0,True,632.8999999985099,38.0,60.0,40.0,False,,217.68383535661138,[],"[768, 432]",ColorTask,6.0,16.0,,,HRV,HRV_0235,2022-11-30 20:32:24
,wl-rdm,24,142825,0.0-6.16-0.16,0.0,25.0,,,,,,,[],,,,,,53.2,0.0,u,0.0,True,862.5,52.0,60.0,40.0,False,,264.3595391274482,[],"[768, 432]",ColorTask,7.0,17.0,,,HRV,HRV_0235,2022-11-30 20:32:24
,wl-rdm,25,144975,0.0-6.17-0.17,0.0,26.0,,,,,,,[],,,,,,53.2,1.0,u,0.0,False,857.5,52.0,60.0,40.0,False,,224.60366528917987,[],"[768, 432]",ColorTask,6.0,18.0,,,HRV,HRV_0235,2022-11-30 20:32:24
,wl-rdm,26,146991,0.0-6.18-0.18,0.0,27.0,,,,,,,[],,,,,,87.9,1.0,i,1.0,True,698.0,42.0,60.0,40.0,False,,236.34077453595597,[],"[768, 432]",ColorTask,7.0,19.0,,,HRV,HRV_0235,2022-11-30 20:32:24
,wl-rdm,27,149124,0.0-6.19-0.19,0.0,28.0,,,,,,,[],,,,,,56.4,1.0,u,0.0,False,702.0,43.0,60.0,40.0,False,,346.3131769274064,[],"[768, 432]",ColorTask,6.0,20.0,,,HRV,HRV_0235,2022-11-30 20:32:24
,wl-rdm,28,151141,0.0-6.20-0.20,0.0,29.0,,,,,,,[],,,,,,73.6,1.0,i,1.0,True,724.3000000044703,44.0,60.0,40.0,False,,213.97122558573415,[],"[768, 432]",ColorTask,7.0,21.0,,,HRV,HRV_0235,2022-11-30 20:32:24
,wl-rdm,29,153007,0.0-6.21-0.21,0.0,30.0,,,,,,,[],,,,,,53.2,0.0,i,1.0,False,504.5,31.0,60.0,40.0,False,,272.247092032001,[],"[768, 432]",ColorTask,6.0,22.0,,,HRV,HRV_0235,2022-11-30 20:32:24
,wl-rdm,30,155023,0.0-6.22-0.22,0.0,31.0,,,,,,,[],,,,,,87.9,0.0,i,1.0,False,525.6999999955297,32.0,60.0,40.0,False,,399.9635043200187,[],"[768, 432]",ColorTask,5.0,23.0,,,HRV,HRV_0235,2022-11-30 20:32:24
,wl-rdm,31,157139,0.0-6.23-0.23,0.0,32.0,,,,,,,[],,,,,,53.2,1.0,i,1.0,True,702.0999999940395,43.0,60.0,40.0,False,,339.7213548053341,[],"[768, 432]",ColorTask,6.0,24.0,,,HRV,HRV_0235,2022-11-30 20:32:24
,wl-rdm,32,159338,0.0-6.24-0.24,0.0,33.0,,,,,,,[],,,,,,53.2,0.0,u,0.0,True,925.6999999955297,56.0,60.0,40.0,False,,216.0910655054187,[],"[768, 432]",ColorTask,7.0,25.0,,,HRV,HRV_0235,2022-11-30 20:32:24
,wl-rdm,33,161155,0.0-6.25-0.25,0.0,34.0,,,,,,,[],,,,,,87.9,0.0,u,0.0,True,532.8000000044703,32.0,60.0,40.0,False,,206.4957466552594,[],"[768, 432]",ColorTask,8.0,26.0,,,HRV,HRV_0235,2022-11-30 20:32:24
,wl-rdm,34,163104,0.0-6.26-0.26,0.0,35.0,,,,,,,[],,,,,,87.9,1.0,i,1.0,True,476.70000000298023,29.0,60.0,40.0,False,,389.89331913078826,[],"[768, 432]",ColorTask,9.0,27.0,,,HRV,HRV_0235,2022-11-30 20:32:24
,wl-rdm,35,165004,0.0-6.27-0.27,0.0,36.0,,,,,,,[],,,,,,73.6,0.0,u,0.0,True,560.6000000014901,34.0,60.0,40.0,False,,252.16431831844088,[],"[768, 432]",ColorTask,10.0,28.0,,,HRV,HRV_0235,2022-11-30 20:32:24
,wl-rdm,36,166870,0.0-6.28-0.28,0.0,37.0,,,,,,,[],,,,,,87.9,0.0,u,0.0,True,458.30000000447035,28.0,60.0,40.0,False,,327.1866195575432,[],"[768, 432]",ColorTask,11.0,29.0,,,HRV,HRV_0235,2022-11-30 20:32:24
,wl-rdm,37,168702,0.0-6.29-0.29,0.0,38.0,,,,,,,[],,,,,,56.4,0.0,i,1.0,False,536.1000000014901,33.0,60.0,40.0,False,,202.92527660825695,[],"[768, 432]",ColorTask,10.0,30.0,,,HRV,HRV_0235,2022-11-30 20:32:24
,wl-rdm,38,170736,0.0-6.30-0.30,0.0,39.0,,,,,,,[],,,,,,50.0,1.0,i,1.0,True,743.3999999985099,45.0,60.0,40.0,False,,213.30664098022524,[],"[768, 432]",ColorTask,11.0,31.0,,,HRV,HRV_0235,2022-11-30 20:32:24
,wl-rdm,39,172702,0.0-6.31-0.31,0.0,40.0,,,,,,,[],,,,,,73.6,0.0,u,0.0,True,613.5,37.0,60.0,40.0,False,,276.51854895846645,[],"[768, 432]",ColorTask,12.0,32.0,,,HRV,HRV_0235,2022-11-30 20:32:24
,wl-rdm,40,174818,0.0-6.32-0.32,0.0,41.0,,,,,,,[],,,,,,53.2,1.0,i,1.0,True,676.7999999970198,41.0,60.0,40.0,False,,374.72511742960364,[],"[768, 432]",ColorTask,13.0,33.0,,,HRV,HRV_0235,2022-11-30 20:32:24
,wl-rdm,41,176551,0.0-6.33-0.33,0.0,42.0,,,,,,,[],,,,,,62.5,1.0,i,1.0,True,394.69999999552965,24.0,60.0,40.0,False,,276.46031233242184,[],"[768, 432]",ColorTask,14.0,34.0,,,HRV,HRV_0235,2022-11-30 20:32:24
,wl-rdm,42,178450,0.0-6.34-0.34,0.0,43.0,,,,,,,[],,,,,,53.2,0.0,u,0.0,True,568.5,35.0,60.0,40.0,False,,247.4886141584733,[],"[768, 432]",ColorTask,15.0,35.0,,,HRV,HRV_0235,2022-11-30 20:32:24
,wl-rdm,43,180383,0.0-6.35-0.35,0.0,44.0,,,,,,,[],,,,,,62.5,1.0,i,1.0,True,526.2999999970198,32.0,60.0,40.0,False,,318.81012597459863,[],"[768, 432]",ColorTask,16.0,36.0,,,HRV,HRV_0235,2022-11-30 20:32:24
,wl-rdm,44,182416,0.0-6.36-0.36,0.0,45.0,,,,,,,[],,,,,,73.6,1.0,i,1.0,True,717.4000000059605,44.0,60.0,40.0,False,,222.0209431929825,[],"[768, 432]",ColorTask,17.0,37.0,,,HRV,HRV_0235,2022-11-30 20:32:24
,wl-rdm,45,184382,0.0-6.37-0.37,0.0,46.0,,,,,,,[],,,,,,87.9,0.0,u,0.0,True,521.6000000014901,32.0,60.0,40.0,False,,357.1554299796739,[],"[768, 432]",ColorTask,18.0,38.0,,,HRV,HRV_0235,2022-11-30 20:32:24
,wl-rdm,46,186248,0.0-6.38-0.38,0.0,47.0,,,,,,,[],,,,,,56.4,0.0,u,0.0,True,537.6000000014901,33.0,60.0,40.0,False,,250.45074599785787,[],"[768, 432]",ColorTask,19.0,39.0,,,HRV,HRV_0235,2022-11-30 20:32:24
,wl-rdm,47,188131,0.0-6.39-0.39,0.0,48.0,,,,,,,[],,,,,,50.0,0.0,u,0.0,True,515.1000000014901,31.0,60.0,40.0,False,,303.5964726135862,[],"[768, 432]",ColorTask,20.0,40.0,,,HRV,HRV_0235,2022-11-30 20:32:24
,wl-rdm,48,189898,0.0-6.40-0.40,0.0,49.0,,,,,,,[],,,,,,73.6,1.0,i,1.0,True,465.0,28.0,60.0,40.0,False,,242.05984051795423,[],"[768, 432]",ColorTask,21.0,41.0,,,HRV,HRV_0235,2022-11-30 20:32:24
,wl-rdm,49,191780,0.0-6.41-0.41,0.0,50.0,,,,,,,[],,,,,,50.0,0.0,u,0.0,True,565.2999999895692,34.0,60.0,40.0,False,,263.45919717896396,[],"[768, 432]",ColorTask,22.0,42.0,,,HRV,HRV_0235,2022-11-30 20:32:24
,wl-rdm,50,193613,0.0-6.42-0.42,0.0,51.0,,,,,,,[],,,,,,53.2,0.0,u,0.0,True,544.5,33.0,60.0,40.0,False,,228.14525845693396,[],"[768, 432]",ColorTask,23.0,43.0,,,HRV,HRV_0235,2022-11-30 20:32:24
,wl-rdm,51,195663,0.0-6.43-0.43,0.0,52.0,,,,,,,[],,,,,,50.0,0.0,u,0.0,True,778.2000000029802,47.0,60.0,40.0,False,,210.96214535608834,[],"[768, 432]",ColorTask,24.0,44.0,,,HRV,HRV_0235,2022-11-30 20:32:24
,wl-rdm,52,197629,0.0-6.44-0.44,0.0,53.0,,,,,,,[],,,,,,62.5,1.0,i,1.0,True,607.6000000014901,37.0,60.0,40.0,False,,286.4250982334687,[],"[768, 432]",ColorTask,25.0,45.0,,,HRV,HRV_0235,2022-11-30 20:32:24
,wl-rdm,53,199412,0.0-6.45-0.45,0.0,54.0,,,,,,,[],,,,,,87.9,1.0,i,1.0,True,506.5,31.0,60.0,40.0,False,,206.50414026688537,[],"[768, 432]",ColorTask,26.0,46.0,,,HRV,HRV_0235,2022-11-30 20:32:24
,wl-rdm,54,201311,0.0-6.46-0.46,0.0,55.0,,,,,,,[],,,,,,62.5,1.0,i,1.0,True,438.5,27.0,60.0,40.0,False,,372.9926278677426,[],"[768, 432]",ColorTask,27.0,47.0,,,HRV,HRV_0235,2022-11-30 20:32:24
,wl-rdm,55,203178,0.0-6.47-0.47,0.0,56.0,,,,,,,[],,,,,,56.4,0.0,i,1.0,False,541.6999999955297,33.0,60.0,40.0,False,,247.27779769044642,[],"[768, 432]",ColorTask,26.0,48.0,,,HRV,HRV_0235,2022-11-30 20:32:24
,wl-rdm,56,205178,0.0-6.48-0.48,0.0,57.0,,,,,,,[],,,,,,50.0,1.0,u,0.0,False,690.6000000014901,42.0,60.0,40.0,False,,221.73464962885367,[],"[768, 432]",ColorTask,25.0,49.0,,,HRV,HRV_0235,2022-11-30 20:32:24
,wl-rdm,57,206976,0.0-6.49-0.49,0.0,58.0,,,,,,,[],,,,,,87.9,1.0,i,1.0,True,506.80000000447035,31.0,60.0,40.0,False,,206.18461765813197,[],"[768, 432]",ColorTask,26.0,50.0,,,HRV,HRV_0235,2022-11-30 20:32:24
,wl-rdm,58,208793,0.0-6.50-0.50,0.0,59.0,,,,,,,[],,,,,,56.4,1.0,i,1.0,True,462.5,28.0,60.0,40.0,False,,298.506120581534,[],"[768, 432]",ColorTask,27.0,51.0,,,HRV,HRV_0235,2022-11-30 20:32:24
,wl-rdm,59,210493,0.0-6.51-0.51,0.0,60.0,,,,,,,[],,,,,,62.5,0.0,i,1.0,False,408.30000000447035,25.0,60.0,40.0,False,,218.14019818411745,[],"[768, 432]",ColorTask,26.0,52.0,,,HRV,HRV_0235,2022-11-30 20:32:24
,wl-rdm,60,212442,0.0-6.52-0.52,0.0,61.0,,,,,,,[],,,,,,73.6,0.0,u,0.0,True,645.1000000014901,39.0,60.0,40.0,False,,226.44817253465783,[],"[768, 432]",ColorTask,27.0,53.0,,,HRV,HRV_0235,2022-11-30 20:32:24
,wl-rdm,61,214375,0.0-6.53-0.53,0.0,62.0,,,,,,,[],,,,,,56.4,0.0,i,1.0,False,648.8999999985099,39.0,60.0,40.0,False,,219.9161723282206,[],"[768, 432]",ColorTask,26.0,54.0,,,HRV,HRV_0235,2022-11-30 20:32:24
,wl-rdm,62,216257,0.0-6.54-0.54,0.0,63.0,,,,,,,[],,,,,,73.6,0.0,u,0.0,True,585.7000000029802,36.0,60.0,40.0,False,,202.4741359233832,[],"[768, 432]",ColorTask,27.0,55.0,,,HRV,HRV_0235,2022-11-30 20:32:24
,wl-rdm,63,218024,0.0-6.55-0.55,0.0,64.0,,,,,,,[],,,,,,50.0,1.0,u,0.0,False,450.80000000447035,28.0,60.0,40.0,False,,223.09386421731745,[],"[768, 432]",ColorTask,26.0,56.0,,,HRV,HRV_0235,2022-11-30 20:32:24
,wl-rdm,64,219873,0.0-6.56-0.56,0.0,65.0,,,,,,,[],,,,,,50.0,1.0,u,0.0,False,431.6000000014901,26.0,60.0,40.0,False,,333.6912821605696,[],"[768, 432]",ColorTask,25.0,57.0,,,HRV,HRV_0235,2022-11-30 20:32:24
,wl-rdm,65,221623,0.0-6.57-0.57,0.0,66.0,,,,,,,[],,,,,,53.2,1.0,i,1.0,True,454.3999999985099,28.0,60.0,40.0,False,,219.6959981271017,[],"[768, 432]",ColorTask,26.0,58.0,,,HRV,HRV_0235,2022-11-30 20:32:24
,wl-rdm,66,223539,0.0-6.58-0.58,0.0,67.0,,,,,,,[],,,,,,62.5,0.0,u,0.0,True,547.0,33.0,60.0,40.0,False,,303.58438432932485,[],"[768, 432]",ColorTask,27.0,59.0,,,HRV,HRV_0235,2022-11-30 20:32:24
,wl-rdm,67,225456,0.0-6.59-0.59,0.0,68.0,,,,,,,[],,,,,,53.2,1.0,u,0.0,False,562.1999999955297,34.0,60.0,40.0,False,,290.9772970841951,[],"[768, 432]",ColorTask,26.0,60.0,,,HRV,HRV_0235,2022-11-30 20:32:24
,wl-rdm,68,227405,0.0-6.60-0.60,0.0,69.0,,,,,,,[],,,,,,53.2,0.0,u,0.0,True,639.2999999970198,39.0,60.0,40.0,False,,221.08020330975617,[],"[768, 432]",ColorTask,27.0,61.0,,,HRV,HRV_0235,2022-11-30 20:32:24
,wl-rdm,69,229371,0.0-6.61-0.61,0.0,70.0,,,,,,,[],,,,,,56.4,1.0,i,1.0,True,551.8000000044703,34.0,60.0,40.0,False,,329.4161665736105,[],"[768, 432]",ColorTask,28.0,62.0,,,HRV,HRV_0235,2022-11-30 20:32:24
,wl-rdm,70,231221,0.0-6.62-0.62,0.0,71.0,,,,,,,[],,,,,,50.0,0.0,i,1.0,False,452.40000000596046,28.0,60.0,40.0,False,,312.7984179286285,[],"[768, 432]",ColorTask,27.0,63.0,,,HRV,HRV_0235,2022-11-30 20:32:24
,wl-rdm,71,232854,0.0-6.63-0.63,0.0,72.0,,,,,,,[],,,,,,87.9,0.0,i,1.0,False,334.6000000014901,21.0,60.0,40.0,False,,200.00630026691937,[],"[768, 432]",ColorTask,26.0,64.0,,,HRV,HRV_0235,2022-11-30 20:32:24
,wl-rdm,72,234820,0.0-6.64-0.64,0.0,73.0,,,,,,,[],,,,,,62.5,1.0,i,1.0,True,584.2000000029802,36.0,60.0,40.0,False,,300.6494248603618,[],"[768, 432]",ColorTask,27.0,65.0,,,HRV,HRV_0235,2022-11-30 20:32:24
,wl-rdm,73,236570,0.0-6.65-0.65,0.0,74.0,,,,,,,[],,,,,,56.4,1.0,i,1.0,True,431.20000000298023,26.0,60.0,40.0,False,,264.24067581368723,[],"[768, 432]",ColorTask,28.0,66.0,,,HRV,HRV_0235,2022-11-30 20:32:24
,wl-rdm,74,238402,0.0-6.66-0.66,0.0,75.0,,,,,,,[],,,,,,56.4,0.0,u,0.0,True,514.3999999985099,31.0,60.0,40.0,False,,262.91778712767905,[],"[768, 432]",ColorTask,29.0,67.0,,,HRV,HRV_0235,2022-11-30 20:32:24
,wl-rdm,75,240468,0.0-6.67-0.67,0.0,76.0,,,,,,,[],,,,,,62.5,1.0,u,0.0,False,687.0,42.0,60.0,40.0,False,,295.2286014359845,[],"[768, 432]",ColorTask,28.0,68.0,,,HRV,HRV_0235,2022-11-30 20:32:24
,wl-rdm,76,242418,0.0-6.68-0.68,0.0,77.0,,,,,,,[],,,,,,73.6,0.0,i,1.0,False,546.1000000014901,33.0,60.0,40.0,False,,318.170879043663,[],"[768, 432]",ColorTask,27.0,69.0,,,HRV,HRV_0235,2022-11-30 20:32:24
,wl-rdm,77,244834,0.0-6.69-0.69,0.0,78.0,,,,,,,[],,,,,,50.0,1.0,u,0.0,False,961.5999999940395,58.0,60.0,40.0,False,,370.96722884277006,[],"[768, 432]",ColorTask,26.0,70.0,,,HRV,HRV_0235,2022-11-30 20:32:24
,wl-rdm,78,246950,0.0-6.70-0.70,0.0,79.0,,,,,,,[],,,,,,56.4,0.0,u,0.0,True,779.7000000029802,47.0,60.0,40.0,False,,269.1779238226742,[],"[768, 432]",ColorTask,27.0,71.0,,,HRV,HRV_0235,2022-11-30 20:32:24
,wl-rdm,79,248951,0.0-6.71-0.71,0.0,80.0,,,,,,,[],,,,,,73.6,0.0,u,0.0,True,601.5,37.0,60.0,40.0,False,,322.5126641953816,[],"[768, 432]",ColorTask,28.0,72.0,,,HRV,HRV_0235,2022-11-30 20:32:24
,wl-rdm,80,250949,0.0-6.72-0.72,0.0,81.0,,,,,,,[],,,,,,62.5,1.0,i,1.0,True,701.5,43.0,60.0,40.0,False,,203.27592337007977,[],"[768, 432]",ColorTask,29.0,73.0,,,HRV,HRV_0235,2022-11-30 20:32:24
,wl-rdm,81,252765,0.0-6.73-0.73,0.0,82.0,,,,,,,[],,,,,,73.6,1.0,i,1.0,True,528.2000000029802,32.0,60.0,40.0,False,,227.34835647826156,[],"[768, 432]",ColorTask,30.0,74.0,,,HRV,HRV_0235,2022-11-30 20:32:24
,wl-rdm,82,254615,0.0-6.74-0.74,0.0,83.0,,,,,,,[],,,,,,56.4,1.0,i,1.0,True,459.0000000074506,28.0,60.0,40.0,False,,319.50372941807456,[],"[768, 432]",ColorTask,31.0,75.0,,,HRV,HRV_0235,2022-11-30 20:32:24
,wl-rdm,83,256614,0.0-6.75-0.75,0.0,84.0,,,,,,,[],,,,,,62.5,0.0,u,0.0,True,602.0,37.0,60.0,40.0,False,,302.010336968615,[],"[768, 432]",ColorTask,32.0,76.0,,,HRV,HRV_0235,2022-11-30 20:32:24
,wl-rdm,84,258831,0.0-6.76-0.76,0.0,85.0,,,,,,,[],,,,,,53.2,0.0,i,1.0,False,801.2999999970198,48.0,60.0,40.0,False,,342.70328954612376,[],"[768, 432]",ColorTask,31.0,77.0,,,HRV,HRV_0235,2022-11-30 20:32:24
,wl-rdm,85,260797,0.0-6.77-0.77,0.0,86.0,,,,,,,[],,,,,,53.2,1.0,i,1.0,True,595.8999999985099,36.0,60.0,40.0,False,,311.8842413709651,[],"[768, 432]",ColorTask,32.0,78.0,,,HRV,HRV_0235,2022-11-30 20:32:24
,wl-rdm,86,262947,0.0-6.78-0.78,0.0,87.0,,,,,,,[],,,,,,87.9,1.0,i,1.0,True,677.3999999985099,41.0,60.0,40.0,False,,383.7540597124523,[],"[768, 432]",ColorTask,33.0,79.0,,,HRV,HRV_0235,2022-11-30 20:32:24
,wl-rdm,87,264930,0.0-6.79-0.79,0.0,88.0,,,,,,,[],,,,,,62.5,0.0,u,0.0,True,696.7000000029802,42.0,60.0,40.0,False,,203.89900602100408,[],"[768, 432]",ColorTask,34.0,80.0,,,HRV,HRV_0235,2022-11-30 20:32:24
,wl-rdm,88,266846,0.0-6.80-0.80,0.0,89.0,,,,,,,[],,,,,,87.9,1.0,i,1.0,True,592.0,36.0,60.0,40.0,False,,236.25205093470507,[],"[768, 432]",ColorTask,35.0,81.0,,,HRV,HRV_0235,2022-11-30 20:32:24
,wl-rdm,89,268728,0.0-6.81-0.81,0.0,90.0,,,,,,,[],,,,,,73.6,1.0,i,1.0,True,508.20000000298023,31.0,60.0,40.0,False,,285.47580854249634,[],"[768, 432]",ColorTask,36.0,82.0,,,HRV,HRV_0235,2022-11-30 20:32:24
,wl-rdm,90,270562,0.0-6.82-0.82,0.0,91.0,,,,,,,[],,,,,,73.6,1.0,i,1.0,True,440.5,27.0,60.0,40.0,False,,330.9404648176787,[],"[768, 432]",ColorTask,37.0,83.0,,,HRV,HRV_0235,2022-11-30 20:32:24
,wl-rdm,91,272278,0.0-6.83-0.83,0.0,92.0,,,,,,,[],,,,,,56.4,1.0,i,1.0,True,377.79999999701977,23.0,60.0,40.0,False,,271.8383023720236,[],"[768, 432]",ColorTask,38.0,84.0,,,HRV,HRV_0235,2022-11-30 20:32:24
,wl-rdm,92,274311,0.0-6.84-0.84,0.0,93.0,,,,,,,[],,,,,,53.2,0.0,i,1.0,False,591.4999999925494,36.0,60.0,40.0,False,,359.3844634272947,[],"[768, 432]",ColorTask,37.0,85.0,,,HRV,HRV_0235,2022-11-30 20:32:24
,wl-rdm,93,276377,0.0-6.85-0.85,0.0,94.0,,,,,,,[],,,,,,62.5,0.0,i,1.0,False,601.5,37.0,60.0,40.0,False,,372.96135823208397,[],"[768, 432]",ColorTask,36.0,86.0,,,HRV,HRV_0235,2022-11-30 20:32:24
,wl-rdm,94,278476,0.0-6.86-0.86,0.0,95.0,,,,,,,[],,,,,,62.5,1.0,u,0.0,False,685.8000000044703,42.0,60.0,40.0,False,,318.17316759412506,[],"[768, 432]",ColorTask,35.0,87.0,,,HRV,HRV_0235,2022-11-30 20:32:24
,wl-rdm,95,280843,0.0-6.87-0.87,0.0,96.0,,,,,,,[],,,,,,53.2,0.0,u,0.0,True,911.7000000029802,55.0,60.0,40.0,False,,372.3503293846644,[],"[768, 432]",ColorTask,36.0,88.0,,,HRV,HRV_0235,2022-11-30 20:32:24
,wl-rdm,96,282759,0.0-6.88-0.88,0.0,97.0,,,,,,,[],,,,,,87.9,0.0,u,0.0,True,507.69999999552965,31.0,60.0,40.0,False,,341.3865375779742,[],"[768, 432]",ColorTask,37.0,89.0,,,HRV,HRV_0235,2022-11-30 20:32:24
,wl-rdm,97,284675,0.0-6.89-0.89,0.0,98.0,,,,,,,[],,,,,,73.6,0.0,u,0.0,True,497.20000000298023,30.0,60.0,40.0,False,,349.6742861089135,[],"[768, 432]",ColorTask,38.0,90.0,,,HRV,HRV_0235,2022-11-30 20:32:24
,wl-rdm,98,286541,0.0-6.90-0.90,0.0,99.0,,,,,,,[],,,,,,50.0,1.0,i,1.0,True,525.0999999940395,32.0,60.0,40.0,False,,252.7147434571233,[],"[768, 432]",ColorTask,39.0,91.0,,,HRV,HRV_0235,2022-11-30 20:32:24
,wl-rdm,99,288407,0.0-6.91-0.91,0.0,100.0,,,,,,,[],,,,,,62.5,0.0,i,1.0,False,444.5,27.0,60.0,40.0,False,,358.1422232133646,[],"[768, 432]",ColorTask,38.0,92.0,,,HRV,HRV_0235,2022-11-30 20:32:24
,wl-rdm,100,290290,0.0-6.92-0.92,0.0,101.0,,,,,,,[],,,,,,62.5,0.0,i,1.0,False,578.0999999940395,35.0,60.0,40.0,False,,223.51505514131787,[],"[768, 432]",ColorTask,37.0,93.0,,,HRV,HRV_0235,2022-11-30 20:32:24
,wl-rdm,101,292340,0.0-6.93-0.93,0.0,102.0,,,,,,,[],,,,,,50.0,0.0,u,0.0,True,708.0,43.0,60.0,40.0,False,,262.7365304544051,[],"[768, 432]",ColorTask,38.0,94.0,,,HRV,HRV_0235,2022-11-30 20:32:24
,wl-rdm,102,294256,0.0-6.94-0.94,0.0,103.0,,,,,,,[],,,,,,53.2,1.0,u,0.0,False,563.2999999895692,34.0,60.0,40.0,False,,275.837888499115,[],"[768, 432]",ColorTask,37.0,95.0,,,HRV,HRV_0235,2022-11-30 20:32:24
,wl-rdm,103,296289,0.0-6.95-0.95,0.0,104.0,,,,,,,[],,,,,,50.0,1.0,i,1.0,True,680.8999999985099,41.0,60.0,40.0,False,,286.93446600495747,[],"[768, 432]",ColorTask,38.0,96.0,,,HRV,HRV_0235,2022-11-30 20:32:24
,wl-rdm,104,298155,0.0-6.96-0.96,0.0,105.0,,,,,,,[],,,,,,50.0,0.0,u,0.0,True,534.1999999955297,33.0,60.0,40.0,False,,245.56603252265725,[],"[768, 432]",ColorTask,39.0,97.0,,,HRV,HRV_0235,2022-11-30 20:32:24
,wl-rdm,105,299988,0.0-6.97-0.97,0.0,106.0,,,,,,,[],,,,,,62.5,1.0,i,1.0,True,534.7999999970198,33.0,60.0,40.0,False,,215.88534903028227,[],"[768, 432]",ColorTask,40.0,98.0,,,HRV,HRV_0235,2022-11-30 20:32:24
,wl-rdm,106,301804,0.0-6.98-0.98,0.0,107.0,,,,,,,[],,,,,,73.6,0.0,i,1.0,False,411.1000000014901,25.0,60.0,40.0,False,,330.5339019947945,[],"[768, 432]",ColorTask,39.0,99.0,,,HRV,HRV_0235,2022-11-30 20:32:24
,wl-rdm,107,303670,0.0-6.99-0.99,0.0,108.0,,,,,,,[],,,,,,56.4,0.0,i,1.0,False,596.8999999985099,36.0,60.0,40.0,False,,202.84072303824826,[],"[768, 432]",ColorTask,38.0,100.0,,,HRV,HRV_0235,2022-11-30 20:32:24
,wl-rdm,108,305687,0.0-6.100-0.100,0.0,109.0,,,,,,,[],,,,,,87.9,1.0,i,1.0,True,668.1999999955297,41.0,60.0,40.0,False,,252.32934666772633,[],"[768, 432]",ColorTask,39.0,101.0,,,HRV,HRV_0235,2022-11-30 20:32:24
,wl-rdm,109,307519,0.0-6.101-0.101,0.0,110.0,,,,,,,[],,,,,,87.9,0.0,u,0.0,True,539.5000000074506,33.0,60.0,40.0,False,,215.0113592225217,[],"[768, 432]",ColorTask,40.0,102.0,,,HRV,HRV_0235,2022-11-30 20:32:24
,wl-rdm,110,309286,0.0-6.102-0.102,0.0,111.0,,,,,,,[],,,,,,62.5,0.0,u,0.0,True,451.3999999985099,28.0,60.0,40.0,False,,240.1558699631651,[],"[768, 432]",ColorTask,41.0,103.0,,,HRV,HRV_0235,2022-11-30 20:32:24
,wl-rdm,111,311202,0.0-6.103-0.103,0.0,112.0,,,,,,,[],,,,,,53.2,1.0,i,1.0,True,620.4000000059605,38.0,60.0,40.0,False,,206.14401796740233,[],"[768, 432]",ColorTask,42.0,104.0,,,HRV,HRV_0235,2022-11-30 20:32:24
,wl-rdm,112,312935,0.0-6.104-0.104,0.0,113.0,,,,,,,[],,,,,,53.2,1.0,i,1.0,True,458.1000000014901,28.0,60.0,40.0,False,,215.2795003146518,[],"[768, 432]",ColorTask,43.0,105.0,,,HRV,HRV_0235,2022-11-30 20:32:24
,wl-rdm,113,314868,0.0-6.105-0.105,0.0,114.0,,,,,,,[],,,,,,56.4,0.0,i,1.0,False,606.1000000089407,37.0,60.0,40.0,False,,249.73848138402136,[],"[768, 432]",ColorTask,42.0,106.0,,,HRV,HRV_0235,2022-11-30 20:32:24
,wl-rdm,114,316833,0.0-6.106-0.106,0.0,115.0,,,,,,,[],,,,,,87.9,0.0,u,0.0,True,589.2000000029802,36.0,60.0,40.0,False,,298.36685751554586,[],"[768, 432]",ColorTask,43.0,107.0,,,HRV,HRV_0235,2022-11-30 20:32:24
,wl-rdm,115,318517,0.0-6.107-0.107,0.0,116.0,,,,,,,[],,,,,,50.0,0.0,u,0.0,True,399.6000000014901,24.0,60.0,40.0,False,,226.1630637743822,[],"[768, 432]",ColorTask,44.0,108.0,,,HRV,HRV_0235,2022-11-30 20:32:24
,wl-html-keyboard-response,116,327159,0.0-7.0-0.0,1.0,117.0,,,,,,,,6619.29999999702,1.0,0,,,,,,,,,,,,,,,,,,,,,,HRV,HRV_0235,2022-11-30 20:32:24
,wl-rdm,117,329598,0.0-8.0-0.0,1.0,118.0,,,,,,,[],,,,,,50.0,1.0,u,0.0,False,1166.3000000044703,70.0,60.0,40.0,False,,211.76341642916506,[],"[768, 432]",ColorTask,43.0,1.0,,,HRV,HRV_0235,2022-11-30 20:32:24
,wl-rdm,118,331531,0.0-8.1-0.1,1.0,119.0,,,,,,,[],,,,,,87.9,1.0,i,1.0,True,601.2999999970198,37.0,60.0,40.0,False,,255.54233824589073,[],"[768, 432]",ColorTask,44.0,2.0,,,HRV,HRV_0235,2022-11-30 20:32:24
,wl-rdm,119,333613,0.0-8.2-0.2,1.0,120.0,,,,,,,[],,,,,,56.4,1.0,u,0.0,False,781.2000000029802,47.0,60.0,40.0,False,,228.44519706006588,[],"[768, 432]",ColorTask,43.0,3.0,,,HRV,HRV_0235,2022-11-30 20:32:24
,wl-rdm,120,335513,0.0-8.3-0.3,1.0,121.0,,,,,,,[],,,,,,87.9,1.0,i,1.0,True,555.7000000029802,34.0,60.0,40.0,False,,269.4559192694084,[],"[768, 432]",ColorTask,44.0,4.0,,,HRV,HRV_0235,2022-11-30 20:32:24
,wl-rdm,121,337429,0.0-8.4-0.4,1.0,122.0,,,,,,,[],,,,,,50.0,0.0,i,1.0,False,462.30000000447035,28.0,60.0,40.0,False,,395.7849260000429,[],"[768, 432]",ColorTask,43.0,5.0,,,HRV,HRV_0235,2022-11-30 20:32:24
,wl-rdm,122,339296,0.0-8.5-0.5,1.0,123.0,,,,,,,[],,,,,,62.5,0.0,i,1.0,False,559.3999999985099,34.0,60.0,40.0,False,,222.20218603665194,[],"[768, 432]",ColorTask,42.0,6.0,,,HRV,HRV_0235,2022-11-30 20:32:24
,wl-rdm,123,341111,0.0-8.6-0.6,1.0,124.0,,,,,,,[],,,,,,73.6,0.0,u,0.0,True,474.8999999985099,29.0,60.0,40.0,False,,252.41760394404886,[],"[768, 432]",ColorTask,43.0,7.0,,,HRV,HRV_0235,2022-11-30 20:32:24
,wl-rdm,124,343027,0.0-8.7-0.7,1.0,125.0,,,,,,,[],,,,,,56.4,1.0,u,0.0,False,556.3000000044703,34.0,60.0,40.0,False,,276.291555455637,[],"[768, 432]",ColorTask,42.0,8.0,,,HRV,HRV_0235,2022-11-30 20:32:24
,wl-rdm,125,345044,0.0-8.8-0.8,1.0,126.0,,,,,,,[],,,,,,87.9,1.0,i,1.0,True,556.3999999985099,34.0,60.0,40.0,False,,369.73264368500486,[],"[768, 432]",ColorTask,43.0,9.0,,,HRV,HRV_0235,2022-11-30 20:32:24
,wl-rdm,126,346993,0.0-8.9-0.9,1.0,127.0,,,,,,,[],,,,,,53.2,0.0,u,0.0,True,635.7999999970198,39.0,60.0,40.0,False,,219.19083972619646,[],"[768, 432]",ColorTask,44.0,10.0,,,HRV,HRV_0235,2022-11-30 20:32:24
,wl-rdm,127,348977,0.0-8.10-0.10,1.0,128.0,,,,,,,[],,,,,,73.6,1.0,u,0.0,False,638.1999999955297,39.0,60.0,40.0,False,,257.0851816984598,[],"[768, 432]",ColorTask,43.0,11.0,,,HRV,HRV_0235,2022-11-30 20:32:24
,wl-rdm,128,351009,0.0-8.11-0.11,1.0,129.0,,,,,,,[],,,,,,50.0,1.0,u,0.0,False,601.6999999955297,37.0,60.0,40.0,False,,346.55876514407373,[],"[768, 432]",ColorTask,42.0,12.0,,,HRV,HRV_0235,2022-11-30 20:32:24
,wl-rdm,129,352908,0.0-8.12-0.12,1.0,130.0,,,,,,,[],,,,,,62.5,1.0,i,1.0,True,454.3999999985099,28.0,60.0,40.0,False,,349.8742361715356,[],"[768, 432]",ColorTask,43.0,13.0,,,HRV,HRV_0235,2022-11-30 20:32:24
,wl-rdm,130,354792,0.0-8.13-0.13,1.0,131.0,,,,,,,[],,,,,,50.0,0.0,i,1.0,False,542.4000000059605,33.0,60.0,40.0,False,,266.7467717587218,[],"[768, 432]",ColorTask,42.0,14.0,,,HRV,HRV_0235,2022-11-30 20:32:24
,wl-rdm,131,356708,0.0-8.14-0.14,1.0,132.0,,,,,,,[],,,,,,56.4,0.0,i,1.0,False,548.7000000029802,33.0,60.0,40.0,False,,309.06766720058795,[],"[768, 432]",ColorTask,41.0,15.0,,,HRV,HRV_0235,2022-11-30 20:32:24
,wl-rdm,132,358874,0.0-8.15-0.15,1.0,133.0,,,,,,,[],,,,,,56.4,1.0,u,0.0,False,801.0,49.0,60.0,40.0,False,,279.3064115850607,[],"[768, 432]",ColorTask,40.0,16.0,,,HRV,HRV_0235,2022-11-30 20:32:24
,wl-rdm,133,360907,0.0-8.16-0.16,1.0,134.0,,,,,,,[],,,,,,53.2,0.0,u,0.0,True,738.4000000059605,45.0,60.0,40.0,False,,230.66556689113864,[],"[768, 432]",ColorTask,41.0,17.0,,,HRV,HRV_0235,2022-11-30 20:32:24
,wl-rdm,134,362890,0.0-8.17-0.17,1.0,135.0,,,,,,,[],,,,,,62.5,0.0,u,0.0,True,561.7999999970198,34.0,60.0,40.0,False,,339.1835999596574,[],"[768, 432]",ColorTask,42.0,18.0,,,HRV,HRV_0235,2022-11-30 20:32:24
,wl-rdm,135,364856,0.0-8.18-0.18,1.0,136.0,,,,,,,[],,,,,,62.5,0.0,u,0.0,True,575.3999999985099,35.0,60.0,40.0,False,,306.179228786855,[],"[768, 432]",ColorTask,43.0,19.0,,,HRV,HRV_0235,2022-11-30 20:32:24
,wl-rdm,136,366772,0.0-8.19-0.19,1.0,137.0,,,,,,,[],,,,,,73.6,0.0,u,0.0,True,454.3999999985099,28.0,60.0,40.0,False,,367.543689809105,[],"[768, 432]",ColorTask,44.0,20.0,,,HRV,HRV_0235,2022-11-30 20:32:24
,wl-rdm,137,368672,0.0-8.20-0.20,1.0,138.0,,,,,,,[],,,,,,73.6,0.0,u,0.0,True,517.7999999970198,32.0,60.0,40.0,False,,299.8275692344809,[],"[768, 432]",ColorTask,45.0,21.0,,,HRV,HRV_0235,2022-11-30 20:32:24
,wl-rdm,138,370571,0.0-8.21-0.21,1.0,139.0,,,,,,,[],,,,,,62.5,1.0,u,0.0,False,581.3999999985099,35.0,60.0,40.0,False,,237.9863801406795,[],"[768, 432]",ColorTask,44.0,22.0,,,HRV,HRV_0235,2022-11-30 20:32:24
,wl-rdm,139,372421,0.0-8.22-0.22,1.0,140.0,,,,,,,[],,,,,,73.6,0.0,u,0.0,True,543.8000000044703,33.0,60.0,40.0,False,,232.4119877508789,[],"[768, 432]",ColorTask,45.0,23.0,,,HRV,HRV_0235,2022-11-30 20:32:24
,wl-rdm,140,374420,0.0-8.23-0.23,1.0,141.0,,,,,,,[],,,,,,50.0,1.0,i,1.0,True,615.4000000059605,37.0,60.0,40.0,False,,332.07976667861595,[],"[768, 432]",ColorTask,46.0,24.0,,,HRV,HRV_0235,2022-11-30 20:32:24
,wl-rdm,141,376687,0.0-8.24-0.24,1.0,142.0,,,,,,,[],,,,,,62.5,0.0,u,0.0,True,792.5,48.0,60.0,40.0,False,,386.1593910876137,[],"[768, 432]",ColorTask,47.0,25.0,,,HRV,HRV_0235,2022-11-30 20:32:24
,wl-rdm,142,378619,0.0-8.25-0.25,1.0,143.0,,,,,,,[],,,,,,56.4,0.0,u,0.0,True,459.1000000014901,28.0,60.0,40.0,False,,384.3294696735398,[],"[768, 432]",ColorTask,48.0,26.0,,,HRV,HRV_0235,2022-11-30 20:32:24
,wl-rdm,143,380418,0.0-8.26-0.26,1.0,144.0,,,,,,,[],,,,,,73.6,0.0,i,1.0,False,418.4999999925494,26.0,60.0,40.0,False,,303.6188192685601,[],"[768, 432]",ColorTask,47.0,27.0,,,HRV,HRV_0235,2022-11-30 20:32:24
,wl-rdm,144,382384,0.0-8.27-0.27,1.0,145.0,,,,,,,[],,,,,,56.4,1.0,i,1.0,True,682.4999999925494,41.0,60.0,40.0,False,,213.83619416924014,[],"[768, 432]",ColorTask,48.0,28.0,,,HRV,HRV_0235,2022-11-30 20:32:24
,wl-rdm,145,384301,0.0-8.28-0.28,1.0,146.0,,,,,,,[],,,,,,73.6,0.0,u,0.0,True,561.6000000014901,34.0,60.0,40.0,False,,298.5722449703146,[],"[768, 432]",ColorTask,49.0,29.0,,,HRV,HRV_0235,2022-11-30 20:32:24
,wl-rdm,146,386167,0.0-8.29-0.29,1.0,147.0,,,,,,,[],,,,,,87.9,0.0,u,0.0,True,481.29999999701977,29.0,60.0,40.0,False,,309.233269320602,[],"[768, 432]",ColorTask,50.0,30.0,,,HRV,HRV_0235,2022-11-30 20:32:24
,wl-rdm,147,388117,0.0-8.30-0.30,1.0,148.0,,,,,,,[],,,,,,50.0,1.0,i,1.0,True,635.0,39.0,60.0,40.0,False,,228.18516284336457,[],"[768, 432]",ColorTask,51.0,31.0,,,HRV,HRV_0235,2022-11-30 20:32:24
,wl-rdm,148,389933,0.0-8.31-0.31,1.0,149.0,,,,,,,[],,,,,,53.2,0.0,u,0.0,True,538.7000000029802,33.0,60.0,40.0,False,,200.55348193983633,[],"[768, 432]",ColorTask,52.0,32.0,,,HRV,HRV_0235,2022-11-30 20:32:24
,wl-rdm,149,391866,0.0-8.32-0.32,1.0,150.0,,,,,,,[],,,,,,73.6,1.0,i,1.0,True,484.59999999403954,30.0,60.0,40.0,False,,365.74973112602595,[],"[768, 432]",ColorTask,53.0,33.0,,,HRV,HRV_0235,2022-11-30 20:32:24
,wl-rdm,150,393749,0.0-8.33-0.33,1.0,151.0,,,,,,,[],,,,,,73.6,1.0,i,1.0,True,555.1000000014901,34.0,60.0,40.0,False,,234.6813796859134,[],"[768, 432]",ColorTask,54.0,34.0,,,HRV,HRV_0235,2022-11-30 20:32:24
,wl-rdm,151,395865,0.0-8.34-0.34,1.0,152.0,,,,,,,[],,,,,,53.2,0.0,i,1.0,False,699.1000000014901,42.0,60.0,40.0,False,,345.0604689134852,[],"[768, 432]",ColorTask,53.0,35.0,,,HRV,HRV_0235,2022-11-30 20:32:24
,wl-rdm,152,397948,0.0-8.35-0.35,1.0,153.0,,,,,,,[],,,,,,62.5,0.0,u,0.0,True,656.1999999955297,40.0,60.0,40.0,False,,350.8283630669215,[],"[768, 432]",ColorTask,54.0,36.0,,,HRV,HRV_0235,2022-11-30 20:32:24
,wl-rdm,153,400031,0.0-8.36-0.36,1.0,154.0,,,,,,,[],,,,,,56.4,1.0,u,0.0,False,658.7999999970198,40.0,60.0,40.0,False,,359.3468288058872,[],"[768, 432]",ColorTask,53.0,37.0,,,HRV,HRV_0235,2022-11-30 20:32:24
,wl-rdm,154,401963,0.0-8.37-0.37,1.0,155.0,,,,,,,[],,,,,,50.0,1.0,u,0.0,False,572.7000000029802,35.0,60.0,40.0,False,,273.067520849482,[],"[768, 432]",ColorTask,52.0,38.0,,,HRV,HRV_0235,2022-11-30 20:32:24
,wl-rdm,155,403813,0.0-8.38-0.38,1.0,156.0,,,,,,,[],,,,,,87.9,0.0,u,0.0,True,534.0,33.0,60.0,40.0,False,,232.2312951749659,[],"[768, 432]",ColorTask,53.0,39.0,,,HRV,HRV_0235,2022-11-30 20:32:24
,wl-rdm,156,405862,0.0-8.39-0.39,1.0,157.0,,,,,,,[],,,,,,53.2,0.0,u,0.0,True,724.0,44.0,60.0,40.0,False,,233.5530551446516,[],"[768, 432]",ColorTask,54.0,40.0,,,HRV,HRV_0235,2022-11-30 20:32:24
,wl-rdm,157,408012,0.0-8.40-0.40,1.0,158.0,,,,,,,[],,,,,,62.5,1.0,u,0.0,False,764.1000000014901,46.0,60.0,40.0,False,,306.8090623366405,[],"[768, 432]",ColorTask,53.0,41.0,,,HRV,HRV_0235,2022-11-30 20:32:24
,wl-rdm,158,409978,0.0-8.41-0.41,1.0,159.0,,,,,,,[],,,,,,56.4,1.0,i,1.0,True,488.8999999985099,30.0,60.0,40.0,False,,384.51765438952026,[],"[768, 432]",ColorTask,54.0,42.0,,,HRV,HRV_0235,2022-11-30 20:32:24
,wl-rdm,159,411777,0.0-8.42-0.42,1.0,160.0,,,,,,,[],,,,,,50.0,0.0,i,1.0,False,450.4999999925494,28.0,60.0,40.0,False,,277.9505603037982,[],"[768, 432]",ColorTask,53.0,43.0,,,HRV,HRV_0235,2022-11-30 20:32:24
,wl-rdm,160,413644,0.0-8.43-0.43,1.0,161.0,,,,,,,[],,,,,,50.0,1.0,i,1.0,True,576.5999999940395,35.0,60.0,40.0,False,,216.32624018164756,[],"[768, 432]",ColorTask,54.0,44.0,,,HRV,HRV_0235,2022-11-30 20:32:24
,wl-rdm,161,415494,0.0-8.44-0.44,1.0,162.0,,,,,,,[],,,,,,73.6,1.0,i,1.0,True,438.5,27.0,60.0,40.0,False,,337.8839324287229,[],"[768, 432]",ColorTask,55.0,45.0,,,HRV,HRV_0235,2022-11-30 20:32:24
,wl-rdm,162,417427,0.0-8.45-0.45,1.0,163.0,,,,,,,[],,,,,,50.0,0.0,u,0.0,True,512.9000000059605,31.0,60.0,40.0,False,,348.80517413938935,[],"[768, 432]",ColorTask,56.0,46.0,,,HRV,HRV_0235,2022-11-30 20:32:24
,wl-rdm,163,419326,0.0-8.46-0.46,1.0,164.0,,,,,,,[],,,,,,53.2,1.0,u,0.0,False,605.8999999985099,37.0,60.0,40.0,False,,200.86476886572373,[],"[768, 432]",ColorTask,55.0,47.0,,,HRV,HRV_0235,2022-11-30 20:32:24
,wl-rdm,164,421242,0.0-8.47-0.47,1.0,165.0,,,,,,,[],,,,,,62.5,1.0,u,0.0,False,637.4000000059605,39.0,60.0,40.0,False,,206.09746598150676,[],"[768, 432]",ColorTask,54.0,48.0,,,HRV,HRV_0235,2022-11-30 20:32:24
,wl-rdm,165,423258,0.0-8.48-0.48,1.0,166.0,,,,,,,[],,,,,,56.4,0.0,u,0.0,True,650.1000000014901,39.0,60.0,40.0,False,,286.81933600415545,[],"[768, 432]",ColorTask,55.0,49.0,,,HRV,HRV_0235,2022-11-30 20:32:24
,wl-rdm,166,425324,0.0-8.49-0.49,1.0,167.0,,,,,,,[],,,,,,50.0,0.0,u,0.0,True,684.1999999955297,42.0,60.0,40.0,False,,284.8850938602669,[],"[768, 432]",ColorTask,56.0,50.0,,,HRV,HRV_0235,2022-11-30 20:32:24
,wl-rdm,167,427057,0.0-8.50-0.50,1.0,168.0,,,,,,,[],,,,,,62.5,0.0,u,0.0,True,418.3999999985099,26.0,60.0,40.0,False,,221.53248499242608,[],"[768, 432]",ColorTask,57.0,51.0,,,HRV,HRV_0235,2022-11-30 20:32:24
,wl-rdm,168,428890,0.0-8.51-0.51,1.0,169.0,,,,,,,[],,,,,,56.4,0.0,u,0.0,True,391.79999999701977,24.0,60.0,40.0,False,,374.8283572733713,[],"[768, 432]",ColorTask,58.0,52.0,,,HRV,HRV_0235,2022-11-30 20:32:24
,wl-rdm,169,430723,0.0-8.52-0.52,1.0,170.0,,,,,,,[],,,,,,87.9,0.0,u,0.0,True,459.5,28.0,60.0,40.0,False,,284.6748843242696,[],"[768, 432]",ColorTask,59.0,53.0,,,HRV,HRV_0235,2022-11-30 20:32:24
,wl-rdm,170,432506,0.0-8.53-0.53,1.0,171.0,,,,,,,[],,,,,,56.4,1.0,i,1.0,True,515.1000000014901,31.0,60.0,40.0,False,,201.66842302701278,[],"[768, 432]",ColorTask,60.0,54.0,,,HRV,HRV_0235,2022-11-30 20:32:24
,wl-rdm,171,434389,0.0-8.54-0.54,1.0,172.0,,,,,,,[],,,,,,62.5,1.0,i,1.0,True,541.2999999970198,33.0,60.0,40.0,False,,266.20840601959674,[],"[768, 432]",ColorTask,61.0,55.0,,,HRV,HRV_0235,2022-11-30 20:32:24
,wl-rdm,172,436221,0.0-8.55-0.55,1.0,173.0,,,,,,,[],,,,,,73.6,0.0,u,0.0,True,491.70000000298023,30.0,60.0,40.0,False,,260.4278228139858,[],"[768, 432]",ColorTask,62.0,56.0,,,HRV,HRV_0235,2022-11-30 20:32:24
,wl-rdm,173,438038,0.0-8.56-0.56,1.0,174.0,,,,,,,[],,,,,,56.4,0.0,u,0.0,True,401.40000000596046,25.0,60.0,40.0,False,,327.61468016274114,[],"[768, 432]",ColorTask,63.0,57.0,,,HRV,HRV_0235,2022-11-30 20:32:24
,wl-rdm,174,439854,0.0-8.57-0.57,1.0,175.0,,,,,,,[],,,,,,56.4,1.0,u,0.0,False,446.19999999552965,27.0,60.0,40.0,False,,300.13611435796633,[],"[768, 432]",ColorTask,62.0,58.0,,,HRV,HRV_0235,2022-11-30 20:32:24
,wl-rdm,175,441603,0.0-8.58-0.58,1.0,176.0,,,,,,,[],,,,,,62.5,0.0,u,0.0,True,415.5,25.0,60.0,40.0,False,,277.013075544362,[],"[768, 432]",ColorTask,63.0,59.0,,,HRV,HRV_0235,2022-11-30 20:32:24
,wl-rdm,176,443453,0.0-8.59-0.59,1.0,177.0,,,,,,,[],,,,,,73.6,1.0,u,0.0,False,478.69999999552965,29.0,60.0,40.0,False,,286.44068915936356,[],"[768, 432]",ColorTask,62.0,60.0,,,HRV,HRV_0235,2022-11-30 20:32:24
,wl-rdm,177,445236,0.0-8.60-0.60,1.0,178.0,,,,,,,[],,,,,,62.5,1.0,i,1.0,True,407.90000000596046,25.0,60.0,40.0,False,,297.3129691205312,[],"[768, 432]",ColorTask,63.0,61.0,,,HRV,HRV_0235,2022-11-30 20:32:24
,wl-rdm,178,447053,0.0-8.61-0.61,1.0,179.0,,,,,,,[],,,,,,53.2,1.0,i,1.0,True,447.0,27.0,60.0,40.0,False,,310.95555810452294,[],"[768, 432]",ColorTask,64.0,62.0,,,HRV,HRV_0235,2022-11-30 20:32:24
,wl-rdm,179,448868,0.0-8.62-0.62,1.0,180.0,,,,,,,[],,,,,,53.2,1.0,i,1.0,True,524.5999999940395,32.0,60.0,40.0,False,,210.9562253463438,[],"[768, 432]",ColorTask,65.0,63.0,,,HRV,HRV_0235,2022-11-30 20:32:24
,wl-rdm,180,450884,0.0-8.63-0.63,1.0,181.0,,,,,,,[],,,,,,87.9,1.0,i,1.0,True,568.1999999955297,35.0,60.0,40.0,False,,363.6016788939042,[],"[768, 432]",ColorTask,66.0,64.0,,,HRV,HRV_0235,2022-11-30 20:32:24
,wl-rdm,181,452917,0.0-8.64-0.64,1.0,182.0,,,,,,,[],,,,,,53.2,1.0,u,0.0,False,569.2999999970198,35.0,60.0,40.0,False,,368.54795534442155,[],"[768, 432]",ColorTask,65.0,65.0,,,HRV,HRV_0235,2022-11-30 20:32:24
,wl-rdm,182,455016,0.0-8.65-0.65,1.0,183.0,,,,,,,[],,,,,,53.2,1.0,i,1.0,True,770.4000000059605,47.0,60.0,40.0,False,,233.65351011389725,[],"[768, 432]",ColorTask,66.0,66.0,,,HRV,HRV_0235,2022-11-30 20:32:24
,wl-rdm,183,456899,0.0-8.66-0.66,1.0,184.0,,,,,,,[],,,,,,56.4,0.0,u,0.0,True,574.2000000029802,35.0,60.0,40.0,False,,225.05907856515554,[],"[768, 432]",ColorTask,67.0,67.0,,,HRV,HRV_0235,2022-11-30 20:32:24
,wl-rdm,184,458866,0.0-8.67-0.67,1.0,185.0,,,,,,,[],,,,,,62.5,0.0,u,0.0,True,545.1000000014901,33.0,60.0,40.0,False,,349.4235559874753,[],"[768, 432]",ColorTask,68.0,68.0,,,HRV,HRV_0235,2022-11-30 20:32:24
,wl-rdm,185,460715,0.0-8.68-0.68,1.0,186.0,,,,,,,[],,,,,,73.6,1.0,i,1.0,True,532.2999999970198,32.0,60.0,40.0,False,,251.28315921865166,[],"[768, 432]",ColorTask,69.0,69.0,,,HRV,HRV_0235,2022-11-30 20:32:24
,wl-rdm,186,462748,0.0-8.69-0.69,1.0,187.0,,,,,,,[],,,,,,87.9,0.0,u,0.0,True,571.5,35.0,60.0,40.0,False,,368.4947920507597,[],"[768, 432]",ColorTask,70.0,70.0,,,HRV,HRV_0235,2022-11-30 20:32:24
,wl-rdm,187,464981,0.0-8.70-0.70,1.0,188.0,,,,,,,[],,,,,,62.5,1.0,i,1.0,True,759.1000000014901,46.0,60.0,40.0,False,,394.17196385384807,[],"[768, 432]",ColorTask,71.0,71.0,,,HRV,HRV_0235,2022-11-30 20:32:24
,wl-rdm,188,466897,0.0-8.71-0.71,1.0,189.0,,,,,,,[],,,,,,62.5,0.0,i,1.0,False,489.69999999552965,30.0,60.0,40.0,False,,334.64772140382433,[],"[768, 432]",ColorTask,70.0,72.0,,,HRV,HRV_0235,2022-11-30 20:32:24
,wl-rdm,189,468947,0.0-8.72-0.72,1.0,190.0,,,,,,,[],,,,,,87.9,1.0,i,1.0,True,599.5,36.0,60.0,40.0,False,,393.52263936445456,[],"[768, 432]",ColorTask,71.0,73.0,,,HRV,HRV_0235,2022-11-30 20:32:24
,wl-rdm,190,470880,0.0-8.73-0.73,1.0,191.0,,,,,,,[],,,,,,87.9,0.0,u,0.0,True,635.1000000014901,39.0,60.0,40.0,False,,229.67012762915897,[],"[768, 432]",ColorTask,72.0,74.0,,,HRV,HRV_0235,2022-11-30 20:32:24
,wl-rdm,191,472696,0.0-8.74-0.74,1.0,192.0,,,,,,,[],,,,,,56.4,0.0,u,0.0,True,541.2999999970198,33.0,60.0,40.0,False,,208.6295638154857,[],"[768, 432]",ColorTask,73.0,75.0,,,HRV,HRV_0235,2022-11-30 20:32:24
,wl-rdm,192,474445,0.0-8.75-0.75,1.0,193.0,,,,,,,[],,,,,,53.2,1.0,u,0.0,False,367.70000000298023,23.0,60.0,40.0,False,,300.5940808877525,[],"[768, 432]",ColorTask,72.0,76.0,,,HRV,HRV_0235,2022-11-30 20:32:24
,wl-rdm,193,476162,0.0-8.76-0.76,1.0,194.0,,,,,,,[],,,,,,50.0,0.0,i,1.0,False,417.6000000014901,26.0,60.0,40.0,False,,215.2383287150407,[],"[768, 432]",ColorTask,71.0,77.0,,,HRV,HRV_0235,2022-11-30 20:32:24
,wl-rdm,194,477911,0.0-8.77-0.77,1.0,195.0,,,,,,,[],,,,,,56.4,1.0,i,1.0,True,379.80000000447035,23.0,60.0,40.0,False,,312.12075603660986,[],"[768, 432]",ColorTask,72.0,78.0,,,HRV,HRV_0235,2022-11-30 20:32:24
,wl-rdm,195,479927,0.0-8.78-0.78,1.0,196.0,,,,,,,[],,,,,,50.0,0.0,i,1.0,False,609.7000000029802,37.0,60.0,40.0,False,,326.0321494577533,[],"[768, 432]",ColorTask,71.0,79.0,,,HRV,HRV_0235,2022-11-30 20:32:24
,wl-rdm,196,481794,0.0-8.79-0.79,1.0,197.0,,,,,,,[],,,,,,53.2,0.0,i,1.0,False,476.59999999403954,29.0,60.0,40.0,False,,305.17736459914454,[],"[768, 432]",ColorTask,70.0,80.0,,,HRV,HRV_0235,2022-11-30 20:32:24
,wl-rdm,197,483660,0.0-8.80-0.80,1.0,198.0,,,,,,,[],,,,,,50.0,0.0,u,0.0,True,555.4000000059605,34.0,60.0,40.0,False,,220.28732208988154,[],"[768, 432]",ColorTask,71.0,81.0,,,HRV,HRV_0235,2022-11-30 20:32:24
,wl-rdm,198,485443,0.0-8.81-0.81,1.0,199.0,,,,,,,[],,,,,,62.5,1.0,i,1.0,True,497.1000000014901,30.0,60.0,40.0,False,,201.81069418937213,[],"[768, 432]",ColorTask,72.0,82.0,,,HRV,HRV_0235,2022-11-30 20:32:24
,wl-rdm,199,487242,0.0-8.82-0.82,1.0,200.0,,,,,,,[],,,,,,87.9,1.0,i,1.0,True,442.5,27.0,60.0,40.0,False,,276.40808668310683,[],"[768, 432]",ColorTask,73.0,83.0,,,HRV,HRV_0235,2022-11-30 20:32:24
,wl-rdm,200,489025,0.0-8.83-0.83,1.0,201.0,,,,,,,[],,,,,,87.9,1.0,i,1.0,True,457.40000000596046,28.0,60.0,40.0,False,,240.28313768482604,[],"[768, 432]",ColorTask,74.0,84.0,,,HRV,HRV_0235,2022-11-30 20:32:24
,wl-rdm,201,490858,0.0-8.84-0.84,1.0,202.0,,,,,,,[],,,,,,50.0,1.0,u,0.0,False,549.3999999985099,33.0,60.0,40.0,False,,211.89968507046797,[],"[768, 432]",ColorTask,73.0,85.0,,,HRV,HRV_0235,2022-11-30 20:32:24
,wl-rdm,202,492890,0.0-8.85-0.85,1.0,203.0,,,,,,,[],,,,,,73.6,1.0,i,1.0,True,692.2999999970198,42.0,60.0,40.0,False,,259.51850620186974,[],"[768, 432]",ColorTask,74.0,86.0,,,HRV,HRV_0235,2022-11-30 20:32:24
,wl-rdm,203,494873,0.0-8.86-0.86,1.0,204.0,,,,,,,[],,,,,,73.6,1.0,i,1.0,True,685.2999999970198,42.0,60.0,40.0,False,,215.8729729390293,[],"[768, 432]",ColorTask,75.0,87.0,,,HRV,HRV_0235,2022-11-30 20:32:24
,wl-rdm,204,496890,0.0-8.87-0.87,1.0,205.0,,,,,,,[],,,,,,73.6,0.0,u,0.0,True,571.3000000044703,35.0,60.0,40.0,False,,381.70806508017847,[],"[768, 432]",ColorTask,76.0,88.0,,,HRV,HRV_0235,2022-11-30 20:32:24
,wl-rdm,205,499056,0.0-8.88-0.88,1.0,206.0,,,,,,,[],,,,,,53.2,1.0,i,1.0,True,804.3999999985099,49.0,60.0,40.0,False,,270.91266643011477,[],"[768, 432]",ColorTask,77.0,89.0,,,HRV,HRV_0235,2022-11-30 20:32:24
,wl-rdm,206,500956,0.0-8.89-0.89,1.0,207.0,,,,,,,[],,,,,,53.2,0.0,u,0.0,True,609.4000000059605,37.0,60.0,40.0,False,,215.51930709277414,[],"[768, 432]",ColorTask,78.0,90.0,,,HRV,HRV_0235,2022-11-30 20:32:24
,wl-rdm,207,502972,0.0-8.90-0.90,1.0,208.0,,,,,,,[],,,,,,62.5,1.0,i,1.0,True,607.1999999955297,37.0,60.0,40.0,False,,323.9391074926473,[],"[768, 432]",ColorTask,79.0,91.0,,,HRV,HRV_0235,2022-11-30 20:32:24
,wl-rdm,208,504705,0.0-8.91-0.91,1.0,209.0,,,,,,,[],,,,,,87.9,0.0,i,1.0,False,414.3999999985099,25.0,60.0,40.0,False,,239.4522113762834,[],"[768, 432]",ColorTask,78.0,92.0,,,HRV,HRV_0235,2022-11-30 20:32:24
,wl-rdm,209,506788,0.0-8.92-0.92,1.0,210.0,,,,,,,[],,,,,,50.0,1.0,u,0.0,False,727.8999999985099,44.0,60.0,40.0,False,,274.50613687395554,[],"[768, 432]",ColorTask,77.0,93.0,,,HRV,HRV_0235,2022-11-30 20:32:24
,wl-rdm,210,508620,0.0-8.93-0.93,1.0,211.0,,,,,,,[],,,,,,73.6,0.0,u,0.0,True,525.7999999970198,32.0,60.0,40.0,False,,225.8265214854372,[],"[768, 432]",ColorTask,78.0,94.0,,,HRV,HRV_0235,2022-11-30 20:32:24
,wl-rdm,211,510470,0.0-8.94-0.94,1.0,212.0,,,,,,,[],,,,,,53.2,1.0,u,0.0,False,534.2000000029802,33.0,60.0,40.0,False,,226.00218131070633,[],"[768, 432]",ColorTask,77.0,95.0,,,HRV,HRV_0235,2022-11-30 20:32:24
,wl-rdm,212,512536,0.0-8.95-0.95,1.0,213.0,,,,,,,[],,,,,,50.0,0.0,u,0.0,True,640.6000000014901,39.0,60.0,40.0,False,,332.9858831547847,[],"[768, 432]",ColorTask,78.0,96.0,,,HRV,HRV_0235,2022-11-30 20:32:24
,wl-rdm,213,514436,0.0-8.96-0.96,1.0,214.0,,,,,,,[],,,,,,53.2,0.0,i,1.0,False,476.70000000298023,29.0,60.0,40.0,False,,337.59444940608347,[],"[768, 432]",ColorTask,77.0,97.0,,,HRV,HRV_0235,2022-11-30 20:32:24
,wl-rdm,214,516536,0.0-8.97-0.97,1.0,215.0,,,,,,,[],,,,,,53.2,0.0,u,0.0,True,747.3999999985099,45.0,60.0,40.0,False,,268.2295482318762,[],"[768, 432]",ColorTask,78.0,98.0,,,HRV,HRV_0235,2022-11-30 20:32:24
,wl-rdm,215,518652,0.0-8.98-0.98,1.0,216.0,,,,,,,[],,,,,,53.2,1.0,u,0.0,False,793.6000000014901,48.0,60.0,40.0,False,,244.27064457369613,[],"[768, 432]",ColorTask,77.0,99.0,,,HRV,HRV_0235,2022-11-30 20:32:24
,wl-rdm,216,520568,0.0-8.99-0.99,1.0,217.0,,,,,,,[],,,,,,56.4,0.0,u,0.0,True,501.5,31.0,60.0,40.0,False,,325.66205008679543,[],"[768, 432]",ColorTask,78.0,100.0,,,HRV,HRV_0235,2022-11-30 20:32:24
,wl-rdm,217,522518,0.0-8.100-0.100,1.0,218.0,,,,,,,[],,,,,,87.9,0.0,u,0.0,True,624.2999999970198,38.0,60.0,40.0,False,,243.8604880190906,[],"[768, 432]",ColorTask,79.0,101.0,,,HRV,HRV_0235,2022-11-30 20:32:24
,wl-rdm,218,524550,0.0-8.101-0.101,1.0,219.0,,,,,,,[],,,,,,87.9,1.0,i,1.0,True,672.2000000029802,41.0,60.0,40.0,False,,279.64190480868757,[],"[768, 432]",ColorTask,80.0,102.0,,,HRV,HRV_0235,2022-11-30 20:32:24
,wl-rdm,219,526533,0.0-8.102-0.102,1.0,220.0,,,,,,,[],,,,,,87.9,0.0,u,0.0,True,593.6999999955297,36.0,60.0,40.0,False,,318.1769829626039,[],"[768, 432]",ColorTask,81.0,103.0,,,HRV,HRV_0235,2022-11-30 20:32:24
,wl-rdm,220,528299,0.0-8.103-0.103,1.0,221.0,,,,,,,[],,,,,,87.9,0.0,u,0.0,True,451.5,28.0,60.0,40.0,False,,226.49486828698272,[],"[768, 432]",ColorTask,82.0,104.0,,,HRV,HRV_0235,2022-11-30 20:32:24
,wl-rdm,221,530116,0.0-8.104-0.104,1.0,222.0,,,,,,,[],,,,,,56.4,0.0,u,0.0,True,383.20000000298023,23.0,60.0,40.0,False,,360.83469487667463,[],"[768, 432]",ColorTask,83.0,105.0,,,HRV,HRV_0235,2022-11-30 20:32:24
,wl-rdm,222,532032,0.0-8.105-0.105,1.0,223.0,,,,,,,[],,,,,,73.6,1.0,i,1.0,True,565.1000000014901,34.0,60.0,40.0,False,,288.796760276359,[],"[768, 432]",ColorTask,84.0,106.0,,,HRV,HRV_0235,2022-11-30 20:32:24
,wl-rdm,223,533831,0.0-8.106-0.106,1.0,224.0,,,,,,,[],,,,,,50.0,1.0,i,1.0,True,463.3999999985099,28.0,60.0,40.0,False,,278.088896375234,[],"[768, 432]",ColorTask,85.0,107.0,,,HRV,HRV_0235,2022-11-30 20:32:24
,wl-rdm,224,535564,0.0-8.107-0.107,1.0,225.0,,,,,,,[],,,,,,87.9,1.0,i,1.0,True,465.80000000447035,28.0,60.0,40.0,False,,201.3188650750095,[],"[768, 432]",ColorTask,86.0,108.0,,,HRV,HRV_0235,2022-11-30 20:32:24
,wl-html-button-response,225,539024,0.0-9.0-0.0,,,,,,,,,,3455.10000000149,,0,,,,,,,,,,,,,,,,,,,,<h3>End of this session. Thank you!</h3><br>,['Close window'],HRV,HRV_0235,2022-11-30 20:32:24
