trialN,stimuli,trialStartTime,trialStartTime_UNIX,stimulus1,stimulus2,stimulus1Bid,stimulus2Bid,delta,selected,rt,rt_UNIX,rt_perfnow,receivedResponse,rsp,trialEndTime,trialDuration,trialEndTime_UNIX,trialDuration_UNIX,exp,subjectId,date
0,"[{'imgObject': {}, 'id': 'apple slices', 'src': '/static/foodstim60/apple slices.jpg', 'key': 'u', 'origWidth': 409, 'origHeight': 410, 'width': 409, 'height': 410, 'widthPercent': 0.45, 'rescaleHeight': False, 'trialN': 0, 'loaded': True, 'loadedTime': 2047.3999999985099, 'positionName': 'LEFT', 'positionCoords': [328.28, 227], 'bid': 6.94}, {'imgObject': {}, 'id': 'yogurt no spoon', 'src': '/static/foodstim60/yogurt no spoon.jpg', 'key': 'i', 'origWidth': 411, 'origHeight': 410, 'width': 411, 'height': 410, 'widthPercent': 0.45, 'rescaleHeight': False, 'trialN': 0, 'loaded': True, 'loadedTime': 2074, 'positionName': 'RIGHT', 'positionCoords': [798.72, 227], 'bid': 7.36}]",2398.89999999851,1669839549135,apple slices,yogurt no spoon,6.94,7.36,0.41999999999999993,apple slices,1271.7000000029802,1273,1272.3999999985099,True,u,4181.19999999553,1782.2999999970198,1669839550917,1782,HRV,HRV_0235,2022-11-30 20:23:22
1,"[{'imgObject': {}, 'id': 'seaweed', 'src': '/static/foodstim60/seaweed.jpg', 'key': 'u', 'origWidth': 410, 'origHeight': 410, 'width': 410, 'height': 410, 'widthPercent': 0.45, 'rescaleHeight': False, 'trialN': 1, 'loaded': True, 'loadedTime': 2078.89999999851, 'positionName': 'LEFT', 'positionCoords': [327.28, 227], 'bid': 0.72}, {'imgObject': {}, 'id': 'omelette', 'src': '/static/foodstim60/omelette.jpg', 'key': 'i', 'origWidth': 410, 'origHeight': 409, 'width': 410, 'height': 409, 'widthPercent': 0.45, 'rescaleHeight': False, 'trialN': 1, 'loaded': True, 'loadedTime': 2083.10000000149, 'positionName': 'RIGHT', 'positionCoords': [798.72, 227.5], 'bid': 0.59}]",4181.5,1669839550918,seaweed,omelette,0.72,0.59,-0.13,omelette,948.0,948,948.3999999985099,True,i,5640.10000000149,1458.6000000014901,1669839552376,1458,HRV,HRV_0235,2022-11-30 20:23:22
2,"[{'imgObject': {}, 'id': 'cheerios', 'src': '/static/foodstim60/cheerios.jpg', 'key': 'u', 'origWidth': 409, 'origHeight': 410, 'width': 409, 'height': 410, 'widthPercent': 0.45, 'rescaleHeight': False, 'trialN': 2, 'loaded': True, 'loadedTime': 2084.60000000149, 'positionName': 'LEFT', 'positionCoords': [328.28, 227], 'bid': 2.08}, {'imgObject': {}, 'id': 'salad w chicken', 'src': '/static/foodstim60/salad w chicken.jpg', 'key': 'i', 'origWidth': 411, 'origHeight': 411, 'width': 411, 'height': 411, 'widthPercent': 0.45, 'rescaleHeight': False, 'trialN': 2, 'loaded': True, 'loadedTime': 2087, 'positionName': 'RIGHT', 'positionCoords': [798.72, 226.5], 'bid': 7.65}]",5640.29999999702,1669839552377,cheerios,salad w chicken,2.08,7.65,5.57,salad w chicken,776.3000000044703,776,776.7000000029802,True,i,6925.19999999553,1284.8999999985099,1669839553662,1285,HRV,HRV_0235,2022-11-30 20:23:22
3,"[{'imgObject': {}, 'id': 'apple slices', 'src': '/static/foodstim60/apple slices.jpg', 'key': 'u', 'origWidth': 409, 'origHeight': 410, 'width': 409, 'height': 410, 'widthPercent': 0.45, 'rescaleHeight': False, 'trialN': 3, 'loaded': True, 'loadedTime': 2009.7999999970198, 'positionName': 'LEFT', 'positionCoords': [328.28, 227], 'bid': 6.94}, {'imgObject': {}, 'id': 'mashed potato', 'src': '/static/foodstim60/mashed potato.jpg', 'key': 'i', 'origWidth': 409, 'origHeight': 409, 'width': 409, 'height': 409, 'widthPercent': 0.45, 'rescaleHeight': False, 'trialN': 3, 'loaded': True, 'loadedTime': 2088.60000000149, 'positionName': 'RIGHT', 'positionCoords': [798.72, 227.5], 'bid': 4.97}]",6925.5,1669839553662,apple slices,mashed potato,6.94,4.97,-1.9700000000000006,mashed potato,843.6000000014901,844,844.0,True,i,8275.19999999553,1349.6999999955297,1669839555012,1350,HRV,HRV_0235,2022-11-30 20:23:22
4,"[{'imgObject': {}, 'id': 'grilled chicken strips', 'src': '/static/foodstim60/grilled chicken strips.jpg', 'key': 'u', 'origWidth': 410, 'origHeight': 411, 'width': 410, 'height': 411, 'widthPercent': 0.45, 'rescaleHeight': False, 'trialN': 4, 'loaded': True, 'loadedTime': 2089.10000000149, 'positionName': 'LEFT', 'positionCoords': [327.28, 226.5], 'bid': 8.69}, {'imgObject': {}, 'id': 'olives', 'src': '/static/foodstim60/olives.jpg', 'key': 'i', 'origWidth': 410, 'origHeight': 410, 'width': 410, 'height': 410, 'widthPercent': 0.45, 'rescaleHeight': False, 'trialN': 4, 'loaded': True, 'loadedTime': 2092.39999999851, 'positionName': 'RIGHT', 'positionCoords': [798.72, 227], 'bid': 8.75}]",8275.5,1669839555012,grilled chicken strips,olives,8.69,8.75,0.0600000000000005,grilled chicken strips,734.2999999970198,734,734.6999999955297,True,u,9527.0,1251.5,1669839556263,1251,HRV,HRV_0235,2022-11-30 20:23:22
5,"[{'imgObject': {}, 'id': 'mashed potato', 'src': '/static/foodstim60/mashed potato.jpg', 'key': 'u', 'origWidth': 409, 'origHeight': 409, 'width': 409, 'height': 409, 'widthPercent': 0.45, 'rescaleHeight': False, 'trialN': 5, 'loaded': True, 'loadedTime': 2087.2999999970198, 'positionName': 'LEFT', 'positionCoords': [328.28, 227.5], 'bid': 4.97}, {'imgObject': {}, 'id': 'rigatoni', 'src': '/static/foodstim60/rigatoni.jpg', 'key': 'i', 'origWidth': 411, 'origHeight': 411, 'width': 411, 'height': 411, 'widthPercent': 0.45, 'rescaleHeight': False, 'trialN': 5, 'loaded': True, 'loadedTime': 2093.7999999970198, 'positionName': 'RIGHT', 'positionCoords': [798.72, 226.5], 'bid': 1.66}]",9527.19999999553,1669839556263,mashed potato,rigatoni,4.97,1.66,-3.3099999999999996,mashed potato,817.6000000014901,818,818.0,True,u,10854.5,1327.3000000044703,1669839557591,1328,HRV,HRV_0235,2022-11-30 20:23:22
6,"[{'imgObject': {}, 'id': 'froot loops w milk', 'src': '/static/foodstim60/froot loops w milk.jpg', 'key': 'u', 'origWidth': 410, 'origHeight': 410, 'width': 410, 'height': 410, 'widthPercent': 0.45, 'rescaleHeight': False, 'trialN': 6, 'loaded': True, 'loadedTime': 2095.89999999851, 'positionName': 'LEFT', 'positionCoords': [327.28, 227], 'bid': 3.0700000000000003}, {'imgObject': {}, 'id': 'corn cob', 'src': '/static/foodstim60/corn cob.jpg', 'key': 'i', 'origWidth': 411, 'origHeight': 411, 'width': 411, 'height': 411, 'widthPercent': 0.45, 'rescaleHeight': False, 'trialN': 6, 'loaded': True, 'loadedTime': 2097.6999999955297, 'positionName': 'RIGHT', 'positionCoords': [798.72, 226.5], 'bid': 6.44}]",10854.79999999702,1669839557591,froot loops w milk,corn cob,3.0700000000000003,6.44,3.37,corn cob,767.3000000044703,768,767.8000000044703,True,i,12134.39999999851,1279.6000000014901,1669839558871,1280,HRV,HRV_0235,2022-11-30 20:23:22
7,"[{'imgObject': {}, 'id': 'rigatoni and sauce', 'src': '/static/foodstim60/rigatoni and sauce.jpg', 'key': 'u', 'origWidth': 410, 'origHeight': 411, 'width': 410, 'height': 411, 'widthPercent': 0.45, 'rescaleHeight': False, 'trialN': 7, 'loaded': True, 'loadedTime': 2099.89999999851, 'positionName': 'LEFT', 'positionCoords': [327.28, 226.5], 'bid': 3.94}, {'imgObject': {}, 'id': 'mashed potato', 'src': '/static/foodstim60/mashed potato.jpg', 'key': 'i', 'origWidth': 409, 'origHeight': 409, 'width': 409, 'height': 409, 'widthPercent': 0.45, 'rescaleHeight': False, 'trialN': 7, 'loaded': True, 'loadedTime': 2088.5, 'positionName': 'RIGHT', 'positionCoords': [798.72, 227.5], 'bid': 4.97}]",12134.5,1669839558871,rigatoni and sauce,mashed potato,3.94,4.97,1.0299999999999998,mashed potato,996.2999999970198,996,996.6000000014901,True,i,13649.29999999702,1514.7999999970198,1669839560386,1515,HRV,HRV_0235,2022-11-30 20:23:22
8,"[{'imgObject': {}, 'id': 'cantaloupe', 'src': '/static/foodstim60/cantaloupe.jpg', 'key': 'u', 'origWidth': 409, 'origHeight': 409, 'width': 409, 'height': 409, 'widthPercent': 0.45, 'rescaleHeight': False, 'trialN': 8, 'loaded': True, 'loadedTime': 2100.2999999970198, 'positionName': 'LEFT', 'positionCoords': [328.28, 227.5], 'bid': 9.4}, {'imgObject': {}, 'id': 'mac & cheese', 'src': '/static/foodstim60/mac & cheese.jpg', 'key': 'i', 'origWidth': 410, 'origHeight': 410, 'width': 410, 'height': 410, 'widthPercent': 0.45, 'rescaleHeight': False, 'trialN': 8, 'loaded': True, 'loadedTime': 2114.39999999851, 'positionName': 'RIGHT', 'positionCoords': [798.72, 227], 'bid': 8.05}]",13649.5,1669839560386,cantaloupe,mac & cheese,9.4,8.05,-1.3499999999999996,mac & cheese,647.3999999985099,648,647.7999999970198,True,i,14799.0,1149.5,1669839561535,1149,HRV,HRV_0235,2022-11-30 20:23:22
9,"[{'imgObject': {}, 'id': 'burrito', 'src': '/static/foodstim60/burrito.jpg', 'key': 'u', 'origWidth': 410, 'origHeight': 410, 'width': 410, 'height': 410, 'widthPercent': 0.45, 'rescaleHeight': False, 'trialN': 9, 'loaded': True, 'loadedTime': 2114.5, 'positionName': 'LEFT', 'positionCoords': [327.28, 227], 'bid': 8.89}, {'imgObject': {}, 'id': 'sweetpotato', 'src': '/static/foodstim60/sweetpotato.jpg', 'key': 'i', 'origWidth': 410, 'origHeight': 410, 'width': 410, 'height': 410, 'widthPercent': 0.45, 'rescaleHeight': False, 'trialN': 9, 'loaded': True, 'loadedTime': 2128.60000000149, 'positionName': 'RIGHT', 'positionCoords': [798.72, 227], 'bid': 8.76}]",14799.29999999702,1669839561536,burrito,sweetpotato,8.89,8.76,-0.13000000000000078,burrito,739.8999999985099,740,740.3000000044703,True,u,16059.10000000149,1259.8000000044703,1669839562795,1259,HRV,HRV_0235,2022-11-30 20:23:22
10,"[{'imgObject': {}, 'id': 'lox', 'src': '/static/foodstim60/lox.jpg', 'key': 'u', 'origWidth': 410, 'origHeight': 411, 'width': 410, 'height': 411, 'widthPercent': 0.45, 'rescaleHeight': False, 'trialN': 10, 'loaded': True, 'loadedTime': 2143.10000000149, 'positionName': 'LEFT', 'positionCoords': [327.28, 226.5], 'bid': 7.96}, {'imgObject': {}, 'id': 'chicken nuggets2', 'src': '/static/foodstim60/chicken nuggets2.jpg', 'key': 'i', 'origWidth': 410, 'origHeight': 409, 'width': 410, 'height': 409, 'widthPercent': 0.45, 'rescaleHeight': False, 'trialN': 10, 'loaded': True, 'loadedTime': 2154.7999999970198, 'positionName': 'RIGHT', 'positionCoords': [798.72, 227.5], 'bid': 7.81}]",16059.5,1669839562796,lox,chicken nuggets2,7.96,7.81,-0.15000000000000036,chicken nuggets2,635.1999999955297,635,635.6000000014901,True,i,17202.5,1143.0,1669839563939,1143,HRV,HRV_0235,2022-11-30 20:23:22
11,"[{'imgObject': {}, 'id': 'sushi w_condiments', 'src': '/static/foodstim60/sushi w_condiments.jpg', 'key': 'u', 'origWidth': 410, 'origHeight': 410, 'width': 410, 'height': 410, 'widthPercent': 0.45, 'rescaleHeight': False, 'trialN': 11, 'loaded': True, 'loadedTime': 2165.39999999851, 'positionName': 'LEFT', 'positionCoords': [327.28, 227], 'bid': 8.61}, {'imgObject': {}, 'id': 'fried eggs', 'src': '/static/foodstim60/fried eggs.jpg', 'key': 'i', 'origWidth': 410, 'origHeight': 410, 'width': 410, 'height': 410, 'widthPercent': 0.45, 'rescaleHeight': False, 'trialN': 11, 'loaded': True, 'loadedTime': 2168.10000000149, 'positionName': 'RIGHT', 'positionCoords': [798.72, 227], 'bid': 8.48}]",17202.79999999702,1669839563939,sushi w_condiments,fried eggs,8.61,8.48,-0.129999999999999,sushi w_condiments,711.3999999985099,712,711.8000000044703,True,u,18437.89999999851,1235.1000000014901,1669839565174,1235,HRV,HRV_0235,2022-11-30 20:23:22
12,"[{'imgObject': {}, 'id': 'eggsalad', 'src': '/static/foodstim60/eggsalad.jpg', 'key': 'u', 'origWidth': 410, 'origHeight': 409, 'width': 410, 'height': 409, 'widthPercent': 0.45, 'rescaleHeight': False, 'trialN': 12, 'loaded': True, 'loadedTime': 2181.89999999851, 'positionName': 'LEFT', 'positionCoords': [327.28, 227.5], 'bid': 5.96}, {'imgObject': {}, 'id': 'edamame', 'src': '/static/foodstim60/edamame.jpg', 'key': 'i', 'origWidth': 409, 'origHeight': 410, 'width': 409, 'height': 410, 'widthPercent': 0.45, 'rescaleHeight': False, 'trialN': 12, 'loaded': True, 'loadedTime': 2196.2999999970198, 'positionName': 'RIGHT', 'positionCoords': [798.72, 227], 'bid': 3.63}]",18438.19999999553,1669839565174,eggsalad,edamame,5.96,3.63,-2.33,eggsalad,920.7000000029802,921,920.9000000059605,True,u,19862.60000000149,1424.4000000059605,1669839566599,1425,HRV,HRV_0235,2022-11-30 20:23:22
13,"[{'imgObject': {}, 'id': 'mango', 'src': '/static/foodstim60/mango.jpg', 'key': 'u', 'origWidth': 411, 'origHeight': 411, 'width': 411, 'height': 411, 'widthPercent': 0.45, 'rescaleHeight': False, 'trialN': 13, 'loaded': True, 'loadedTime': 2208.2999999970198, 'positionName': 'LEFT', 'positionCoords': [326.28, 226.5], 'bid': 6.54}, {'imgObject': {}, 'id': 'corn cob', 'src': '/static/foodstim60/corn cob.jpg', 'key': 'i', 'origWidth': 411, 'origHeight': 411, 'width': 411, 'height': 411, 'widthPercent': 0.45, 'rescaleHeight': False, 'trialN': 13, 'loaded': True, 'loadedTime': 2097.5, 'positionName': 'RIGHT', 'positionCoords': [798.72, 226.5], 'bid': 6.44}]",19862.89999999851,1669839566599,mango,corn cob,6.54,6.44,-0.09999999999999964,corn cob,684.3999999985099,685,684.7999999970198,True,i,21062.69999999553,1199.7999999970198,1669839567799,1200,HRV,HRV_0235,2022-11-30 20:23:22
14,"[{'imgObject': {}, 'id': 'mango', 'src': '/static/foodstim60/mango.jpg', 'key': 'u', 'origWidth': 411, 'origHeight': 411, 'width': 411, 'height': 411, 'widthPercent': 0.45, 'rescaleHeight': False, 'trialN': 14, 'loaded': True, 'loadedTime': 2207.7999999970198, 'positionName': 'LEFT', 'positionCoords': [326.28, 226.5], 'bid': 6.54}, {'imgObject': {}, 'id': 'hotdog w must', 'src': '/static/foodstim60/hotdog w must.jpg', 'key': 'i', 'origWidth': 409, 'origHeight': 409, 'width': 409, 'height': 409, 'widthPercent': 0.45, 'rescaleHeight': False, 'trialN': 14, 'loaded': True, 'loadedTime': 2208.89999999851, 'positionName': 'RIGHT', 'positionCoords': [798.72, 227.5], 'bid': 3.43}]",21062.89999999851,1669839567799,mango,hotdog w must,6.54,3.43,-3.11,mango,737.2999999970198,738,737.6000000014901,True,u,22310.79999999702,1247.8999999985099,1669839569047,1248,HRV,HRV_0235,2022-11-30 20:23:22
15,"[{'imgObject': {}, 'id': 'salad w chicken', 'src': '/static/foodstim60/salad w chicken.jpg', 'key': 'u', 'origWidth': 411, 'origHeight': 411, 'width': 411, 'height': 411, 'widthPercent': 0.45, 'rescaleHeight': False, 'trialN': 15, 'loaded': True, 'loadedTime': 2087.10000000149, 'positionName': 'LEFT', 'positionCoords': [326.28, 226.5], 'bid': 7.65}, {'imgObject': {}, 'id': 'sushi w_condiments', 'src': '/static/foodstim60/sushi w_condiments.jpg', 'key': 'i', 'origWidth': 410, 'origHeight': 410, 'width': 410, 'height': 410, 'widthPercent': 0.45, 'rescaleHeight': False, 'trialN': 15, 'loaded': True, 'loadedTime': 2168, 'positionName': 'RIGHT', 'positionCoords': [798.72, 227], 'bid': 8.61}]",22311.0,1669839569047,salad w chicken,sushi w_condiments,7.65,8.61,0.9599999999999991,salad w chicken,837.0,838,837.5,True,u,23667.5,1356.5,1669839570404,1357,HRV,HRV_0235,2022-11-30 20:23:22
16,"[{'imgObject': {}, 'id': 'baked potato', 'src': '/static/foodstim60/baked potato.jpg', 'key': 'u', 'origWidth': 409, 'origHeight': 410, 'width': 409, 'height': 410, 'widthPercent': 0.45, 'rescaleHeight': False, 'trialN': 16, 'loaded': True, 'loadedTime': 2223.1999999955297, 'positionName': 'LEFT', 'positionCoords': [328.28, 227], 'bid': 6.17}, {'imgObject': {}, 'id': 'mango', 'src': '/static/foodstim60/mango.jpg', 'key': 'i', 'origWidth': 411, 'origHeight': 411, 'width': 411, 'height': 411, 'widthPercent': 0.45, 'rescaleHeight': False, 'trialN': 16, 'loaded': True, 'loadedTime': 2196.60000000149, 'positionName': 'RIGHT', 'positionCoords': [798.72, 226.5], 'bid': 6.54}]",23667.69999999553,1669839570404,baked potato,mango,6.17,6.54,0.3700000000000001,mango,834.0,835,834.6000000014901,True,i,25014.39999999851,1346.7000000029802,1669839571751,1347,HRV,HRV_0235,2022-11-30 20:23:22
17,"[{'imgObject': {}, 'id': 'cherry tomato', 'src': '/static/foodstim60/cherry tomato.jpg', 'key': 'u', 'origWidth': 410, 'origHeight': 410, 'width': 410, 'height': 410, 'widthPercent': 0.45, 'rescaleHeight': False, 'trialN': 17, 'loaded': True, 'loadedTime': 2235.60000000149, 'positionName': 'LEFT', 'positionCoords': [327.28, 227], 'bid': 2.33}, {'imgObject': {}, 'id': 'burger', 'src': '/static/foodstim60/burger.jpg', 'key': 'i', 'origWidth': 409, 'origHeight': 409, 'width': 409, 'height': 409, 'widthPercent': 0.45, 'rescaleHeight': False, 'trialN': 17, 'loaded': True, 'loadedTime': 2236.6999999955297, 'positionName': 'RIGHT', 'positionCoords': [798.72, 227.5], 'bid': 6.01}]",25014.60000000149,1669839571751,cherry tomato,burger,2.33,6.01,3.6799999999999997,burger,621.1999999955297,622,621.5999999940395,True,i,26153.79999999702,1139.1999999955297,1669839572890,1139,HRV,HRV_0235,2022-11-30 20:23:22
18,"[{'imgObject': {}, 'id': 'luckycharms', 'src': '/static/foodstim60/luckycharms.jpg', 'key': 'u', 'origWidth': 410, 'origHeight': 409, 'width': 410, 'height': 409, 'widthPercent': 0.45, 'rescaleHeight': False, 'trialN': 18, 'loaded': True, 'loadedTime': 2249.1999999955297, 'positionName': 'LEFT', 'positionCoords': [327.28, 227.5], 'bid': 3.86}, {'imgObject': {}, 'id': 'turkeysandwich', 'src': '/static/foodstim60/turkeysandwich.jpg', 'key': 'i', 'origWidth': 409, 'origHeight': 409, 'width': 409, 'height': 409, 'widthPercent': 0.45, 'rescaleHeight': False, 'trialN': 18, 'loaded': True, 'loadedTime': 2250.6999999955297, 'positionName': 'RIGHT', 'positionCoords': [798.72, 227.5], 'bid': 8.120000000000001}]",26154.10000000149,1669839572890,luckycharms,turkeysandwich,3.86,8.120000000000001,4.260000000000002,turkeysandwich,638.3999999985099,639,638.8999999985099,True,i,27302.60000000149,1148.5,1669839574039,1149,HRV,HRV_0235,2022-11-30 20:23:22
19,"[{'imgObject': {}, 'id': 'Grapes', 'src': '/static/foodstim60/Grapes.jpg', 'key': 'u', 'origWidth': 411, 'origHeight': 411, 'width': 411, 'height': 411, 'widthPercent': 0.45, 'rescaleHeight': False, 'trialN': 19, 'loaded': True, 'loadedTime': 2264.6999999955297, 'positionName': 'LEFT', 'positionCoords': [326.28, 226.5], 'bid': 7.76}, {'imgObject': {}, 'id': 'salmon', 'src': '/static/foodstim60/salmon.jpg', 'key': 'i', 'origWidth': 410, 'origHeight': 409, 'width': 410, 'height': 409, 'widthPercent': 0.45, 'rescaleHeight': False, 'trialN': 19, 'loaded': True, 'loadedTime': 2268.5, 'positionName': 'RIGHT', 'positionCoords': [798.72, 227.5], 'bid': 7.29}]",27302.79999999702,1669839574039,Grapes,salmon,7.76,7.29,-0.46999999999999975,Grapes,676.7000000029802,677,677.1000000014901,True,u,28499.79999999702,1197.0,1669839575236,1197,HRV,HRV_0235,2022-11-30 20:23:22
20,"[{'imgObject': {}, 'id': 'cheerios', 'src': '/static/foodstim60/cheerios.jpg', 'key': 'u', 'origWidth': 409, 'origHeight': 410, 'width': 409, 'height': 410, 'widthPercent': 0.45, 'rescaleHeight': False, 'trialN': 20, 'loaded': True, 'loadedTime': 2084.89999999851, 'positionName': 'LEFT', 'positionCoords': [328.28, 227], 'bid': 2.08}, {'imgObject': {}, 'id': 'Tribe humus pita', 'src': '/static/foodstim60/Tribe humus pita.jpg', 'key': 'i', 'origWidth': 411, 'origHeight': 411, 'width': 411, 'height': 411, 'widthPercent': 0.45, 'rescaleHeight': False, 'trialN': 20, 'loaded': True, 'loadedTime': 2270.10000000149, 'positionName': 'RIGHT', 'positionCoords': [798.72, 226.5], 'bid': 5.11}]",28500.10000000149,1669839575236,cheerios,Tribe humus pita,2.08,5.11,3.0300000000000002,Tribe humus pita,985.2999999970198,986,985.6999999955297,True,i,30006.39999999851,1506.2999999970198,1669839576743,1507,HRV,HRV_0235,2022-11-30 20:23:22
21,"[{'imgObject': {}, 'id': 'pear', 'src': '/static/foodstim60/pear.jpg', 'key': 'u', 'origWidth': 411, 'origHeight': 410, 'width': 411, 'height': 410, 'widthPercent': 0.45, 'rescaleHeight': False, 'trialN': 21, 'loaded': True, 'loadedTime': 2272.10000000149, 'positionName': 'LEFT', 'positionCoords': [326.28, 227], 'bid': 7.47}, {'imgObject': {}, 'id': 'fried eggs', 'src': '/static/foodstim60/fried eggs.jpg', 'key': 'i', 'origWidth': 410, 'origHeight': 410, 'width': 410, 'height': 410, 'widthPercent': 0.45, 'rescaleHeight': False, 'trialN': 21, 'loaded': True, 'loadedTime': 2180.2999999970198, 'positionName': 'RIGHT', 'positionCoords': [798.72, 227], 'bid': 8.48}]",30006.60000000149,1669839576743,pear,fried eggs,7.47,8.48,1.0100000000000007,fried eggs,635.6999999955297,636,636.0999999940395,True,i,31155.69999999553,1149.0999999940395,1669839577892,1149,HRV,HRV_0235,2022-11-30 20:23:22
22,"[{'imgObject': {}, 'id': 'turkeysandwich', 'src': '/static/foodstim60/turkeysandwich.jpg', 'key': 'u', 'origWidth': 409, 'origHeight': 409, 'width': 409, 'height': 409, 'widthPercent': 0.45, 'rescaleHeight': False, 'trialN': 22, 'loaded': True, 'loadedTime': 2260, 'positionName': 'LEFT', 'positionCoords': [328.28, 227.5], 'bid': 8.120000000000001}, {'imgObject': {}, 'id': 'popsicles', 'src': '/static/foodstim60/popsicles.jpg', 'key': 'i', 'origWidth': 410, 'origHeight': 410, 'width': 410, 'height': 410, 'widthPercent': 0.45, 'rescaleHeight': False, 'trialN': 22, 'loaded': True, 'loadedTime': 2273.7999999970198, 'positionName': 'RIGHT', 'positionCoords': [798.72, 227], 'bid': 8.17}]",31155.89999999851,1669839577892,turkeysandwich,popsicles,8.120000000000001,8.17,0.049999999999998934,turkeysandwich,636.3999999985099,637,636.7999999970198,True,u,32309.60000000149,1153.7000000029802,1669839579046,1154,HRV,HRV_0235,2022-11-30 20:23:22
23,"[{'imgObject': {}, 'id': 'rigatoni', 'src': '/static/foodstim60/rigatoni.jpg', 'key': 'u', 'origWidth': 411, 'origHeight': 411, 'width': 411, 'height': 411, 'widthPercent': 0.45, 'rescaleHeight': False, 'trialN': 23, 'loaded': True, 'loadedTime': 2092.60000000149, 'positionName': 'LEFT', 'positionCoords': [326.28, 226.5], 'bid': 1.66}, {'imgObject': {}, 'id': 'pear', 'src': '/static/foodstim60/pear.jpg', 'key': 'i', 'origWidth': 411, 'origHeight': 410, 'width': 411, 'height': 410, 'widthPercent': 0.45, 'rescaleHeight': False, 'trialN': 23, 'loaded': True, 'loadedTime': 2270.60000000149, 'positionName': 'RIGHT', 'positionCoords': [798.72, 227], 'bid': 7.47}]",32309.89999999851,1669839579046,rigatoni,pear,1.66,7.47,5.81,pear,743.6000000014901,744,744.0,True,i,33564.19999999553,1254.2999999970198,1669839580301,1255,HRV,HRV_0235,2022-11-30 20:23:22
24,"[{'imgObject': {}, 'id': 'rigatoni and sauce', 'src': '/static/foodstim60/rigatoni and sauce.jpg', 'key': 'u', 'origWidth': 410, 'origHeight': 411, 'width': 410, 'height': 411, 'widthPercent': 0.45, 'rescaleHeight': False, 'trialN': 24, 'loaded': True, 'loadedTime': 2100.10000000149, 'positionName': 'LEFT', 'positionCoords': [327.28, 226.5], 'bid': 3.94}, {'imgObject': {}, 'id': 'banana', 'src': '/static/foodstim60/banana.jpg', 'key': 'i', 'origWidth': 410, 'origHeight': 410, 'width': 410, 'height': 410, 'widthPercent': 0.45, 'rescaleHeight': False, 'trialN': 24, 'loaded': True, 'loadedTime': 2275.5, 'positionName': 'RIGHT', 'positionCoords': [798.72, 227], 'bid': 6.92}]",33564.39999999851,1669839580301,rigatoni and sauce,banana,3.94,6.92,2.98,banana,1015.3999999985099,1016,1015.8999999985099,True,i,35096.60000000149,1532.2000000029802,1669839581833,1532,HRV,HRV_0235,2022-11-30 20:23:22
25,"[{'imgObject': {}, 'id': 'raspberries', 'src': '/static/foodstim60/raspberries.jpg', 'key': 'u', 'origWidth': 411, 'origHeight': 411, 'width': 411, 'height': 411, 'widthPercent': 0.45, 'rescaleHeight': False, 'trialN': 25, 'loaded': True, 'loadedTime': 2283.5, 'positionName': 'LEFT', 'positionCoords': [326.28, 226.5], 'bid': 8.3}, {'imgObject': {}, 'id': 'veggieswithdip', 'src': '/static/foodstim60/veggieswithdip.jpg', 'key': 'i', 'origWidth': 409, 'origHeight': 409, 'width': 409, 'height': 409, 'widthPercent': 0.45, 'rescaleHeight': False, 'trialN': 25, 'loaded': True, 'loadedTime': 2285.2999999970198, 'positionName': 'RIGHT', 'positionCoords': [798.72, 227.5], 'bid': 5.5}]",35096.79999999702,1669839581833,raspberries,veggieswithdip,8.3,5.5,-2.8000000000000007,raspberries,1013.6000000014901,1014,1014.0,True,u,36628.39999999851,1531.6000000014901,1669839583365,1532,HRV,HRV_0235,2022-11-30 20:23:22
26,"[{'imgObject': {}, 'id': 'omelette', 'src': '/static/foodstim60/omelette.jpg', 'key': 'u', 'origWidth': 410, 'origHeight': 409, 'width': 410, 'height': 409, 'widthPercent': 0.45, 'rescaleHeight': False, 'trialN': 26, 'loaded': True, 'loadedTime': 2082.39999999851, 'positionName': 'LEFT', 'positionCoords': [327.28, 227.5], 'bid': 0.59}, {'imgObject': {}, 'id': 'ice cream sundae 002', 'src': '/static/foodstim60/ice cream sundae 002.jpg', 'key': 'i', 'origWidth': 409, 'origHeight': 409, 'width': 409, 'height': 409, 'widthPercent': 0.45, 'rescaleHeight': False, 'trialN': 26, 'loaded': True, 'loadedTime': 2297.7999999970198, 'positionName': 'RIGHT', 'positionCoords': [798.72, 227.5], 'bid': 1.19}]",36628.60000000149,1669839583365,omelette,ice cream sundae 002,0.59,1.19,0.6,omelette,1161.5999999940395,1162,1162.0,True,u,38306.69999999553,1678.0999999940395,1669839585043,1678,HRV,HRV_0235,2022-11-30 20:23:22
27,"[{'imgObject': {}, 'id': 'kiwi', 'src': '/static/foodstim60/kiwi.jpg', 'key': 'u', 'origWidth': 410, 'origHeight': 410, 'width': 410, 'height': 410, 'widthPercent': 0.45, 'rescaleHeight': False, 'trialN': 27, 'loaded': True, 'loadedTime': 2300.10000000149, 'positionName': 'LEFT', 'positionCoords': [327.28, 227], 'bid': 8.9}, {'imgObject': {}, 'id': 'turkey sandwich', 'src': '/static/foodstim60/turkey sandwich.jpg', 'key': 'i', 'origWidth': 409, 'origHeight': 409, 'width': 409, 'height': 409, 'widthPercent': 0.45, 'rescaleHeight': False, 'trialN': 27, 'loaded': True, 'loadedTime': 2310.7999999970198, 'positionName': 'RIGHT', 'positionCoords': [798.72, 227.5], 'bid': 8.3}]",38306.89999999851,1669839585043,kiwi,turkey sandwich,8.9,8.3,-0.5999999999999996,kiwi,1078.7000000029802,1079,1079.0,True,u,39899.79999999702,1592.8999999985099,1669839586636,1593,HRV,HRV_0235,2022-11-30 20:23:22
28,"[{'imgObject': {}, 'id': 'chickenfingers', 'src': '/static/foodstim60/chickenfingers.jpg', 'key': 'u', 'origWidth': 410, 'origHeight': 410, 'width': 410, 'height': 410, 'widthPercent': 0.45, 'rescaleHeight': False, 'trialN': 28, 'loaded': True, 'loadedTime': 2312.2999999970198, 'positionName': 'LEFT', 'positionCoords': [327.28, 227], 'bid': 9.81}, {'imgObject': {}, 'id': 'burrito', 'src': '/static/foodstim60/burrito.jpg', 'key': 'i', 'origWidth': 410, 'origHeight': 410, 'width': 410, 'height': 410, 'widthPercent': 0.45, 'rescaleHeight': False, 'trialN': 28, 'loaded': True, 'loadedTime': 2115.6999999955297, 'positionName': 'RIGHT', 'positionCoords': [798.72, 227], 'bid': 8.89}]",39900.0,1669839586636,chickenfingers,burrito,9.81,8.89,-0.9199999999999999,chickenfingers,661.8999999985099,663,662.2999999970198,True,u,41076.69999999553,1176.6999999955297,1669839587813,1177,HRV,HRV_0235,2022-11-30 20:23:22
29,"[{'imgObject': {}, 'id': 'edamame', 'src': '/static/foodstim60/edamame.jpg', 'key': 'u', 'origWidth': 409, 'origHeight': 410, 'width': 409, 'height': 410, 'widthPercent': 0.45, 'rescaleHeight': False, 'trialN': 29, 'loaded': True, 'loadedTime': 2196.39999999851, 'positionName': 'LEFT', 'positionCoords': [328.28, 227], 'bid': 3.63}, {'imgObject': {}, 'id': 'rigatoni', 'src': '/static/foodstim60/rigatoni.jpg', 'key': 'i', 'origWidth': 411, 'origHeight': 411, 'width': 411, 'height': 411, 'widthPercent': 0.45, 'rescaleHeight': False, 'trialN': 29, 'loaded': True, 'loadedTime': 2093.60000000149, 'positionName': 'RIGHT', 'positionCoords': [798.72, 226.5], 'bid': 1.66}]",41076.89999999851,1669839587813,edamame,rigatoni,3.63,1.66,-1.97,rigatoni,962.7999999970198,964,963.3999999985099,True,i,42543.29999999702,1466.3999999985099,1669839589280,1467,HRV,HRV_0235,2022-11-30 20:23:22
30,"[{'imgObject': {}, 'id': 'popsicles', 'src': '/static/foodstim60/popsicles.jpg', 'key': 'u', 'origWidth': 410, 'origHeight': 410, 'width': 410, 'height': 410, 'widthPercent': 0.45, 'rescaleHeight': False, 'trialN': 30, 'loaded': True, 'loadedTime': 2273.2999999970198, 'positionName': 'LEFT', 'positionCoords': [327.28, 227], 'bid': 8.17}, {'imgObject': {}, 'id': 'fruitsalad', 'src': '/static/foodstim60/fruitsalad.jpg', 'key': 'i', 'origWidth': 410, 'origHeight': 410, 'width': 410, 'height': 410, 'widthPercent': 0.45, 'rescaleHeight': False, 'trialN': 30, 'loaded': True, 'loadedTime': 2313.89999999851, 'positionName': 'RIGHT', 'positionCoords': [798.72, 227], 'bid': 9.73}]",42543.5,1669839589280,popsicles,fruitsalad,8.17,9.73,1.5600000000000005,fruitsalad,780.5,781,781.0,True,i,43836.19999999553,1292.6999999955297,1669839590573,1293,HRV,HRV_0235,2022-11-30 20:23:22
31,"[{'imgObject': {}, 'id': 'fruitsalad', 'src': '/static/foodstim60/fruitsalad.jpg', 'key': 'u', 'origWidth': 410, 'origHeight': 410, 'width': 410, 'height': 410, 'widthPercent': 0.45, 'rescaleHeight': False, 'trialN': 31, 'loaded': True, 'loadedTime': 2312.7999999970198, 'positionName': 'LEFT', 'positionCoords': [327.28, 227], 'bid': 9.73}, {'imgObject': {}, 'id': 'chickenfingers', 'src': '/static/foodstim60/chickenfingers.jpg', 'key': 'i', 'origWidth': 410, 'origHeight': 410, 'width': 410, 'height': 410, 'widthPercent': 0.45, 'rescaleHeight': False, 'trialN': 31, 'loaded': True, 'loadedTime': 2312.6999999955297, 'positionName': 'RIGHT', 'positionCoords': [798.72, 227], 'bid': 9.81}]",43836.29999999702,1669839590573,fruitsalad,chickenfingers,9.73,9.81,0.08000000000000007,chickenfingers,565.8000000044703,566,566.2000000029802,True,i,44918.19999999553,1081.8999999985099,1669839591655,1082,HRV,HRV_0235,2022-11-30 20:23:22
32,"[{'imgObject': {}, 'id': 'bagel plain', 'src': '/static/foodstim60/bagel plain.jpg', 'key': 'u', 'origWidth': 410, 'origHeight': 410, 'width': 410, 'height': 410, 'widthPercent': 0.45, 'rescaleHeight': False, 'trialN': 32, 'loaded': True, 'loadedTime': 2326.39999999851, 'positionName': 'LEFT', 'positionCoords': [327.28, 227], 'bid': 5.54}, {'imgObject': {}, 'id': 'corn cob', 'src': '/static/foodstim60/corn cob.jpg', 'key': 'i', 'origWidth': 411, 'origHeight': 411, 'width': 411, 'height': 411, 'widthPercent': 0.45, 'rescaleHeight': False, 'trialN': 32, 'loaded': True, 'loadedTime': 2098.10000000149, 'positionName': 'RIGHT', 'positionCoords': [798.72, 226.5], 'bid': 6.44}]",44918.29999999702,1669839591655,bagel plain,corn cob,5.54,6.44,0.9000000000000004,corn cob,1026.5,1027,1027.0,True,i,46460.10000000149,1541.8000000044703,1669839593196,1541,HRV,HRV_0235,2022-11-30 20:23:22
33,"[{'imgObject': {}, 'id': 'fruitsalad', 'src': '/static/foodstim60/fruitsalad.jpg', 'key': 'u', 'origWidth': 410, 'origHeight': 410, 'width': 410, 'height': 410, 'widthPercent': 0.45, 'rescaleHeight': False, 'trialN': 33, 'loaded': True, 'loadedTime': 2314, 'positionName': 'LEFT', 'positionCoords': [327.28, 227], 'bid': 9.73}, {'imgObject': {}, 'id': 'fried eggs', 'src': '/static/foodstim60/fried eggs.jpg', 'key': 'i', 'origWidth': 410, 'origHeight': 410, 'width': 410, 'height': 410, 'widthPercent': 0.45, 'rescaleHeight': False, 'trialN': 33, 'loaded': True, 'loadedTime': 2169.7999999970198, 'positionName': 'RIGHT', 'positionCoords': [798.72, 227], 'bid': 8.48}]",46460.29999999702,1669839593197,fruitsalad,fried eggs,9.73,8.48,-1.25,fruitsalad,941.5,942,941.8000000044703,True,u,47917.89999999851,1457.6000000014901,1669839594654,1457,HRV,HRV_0235,2022-11-30 20:23:22
34,"[{'imgObject': {}, 'id': 'raspberries', 'src': '/static/foodstim60/raspberries.jpg', 'key': 'u', 'origWidth': 411, 'origHeight': 411, 'width': 411, 'height': 411, 'widthPercent': 0.45, 'rescaleHeight': False, 'trialN': 34, 'loaded': True, 'loadedTime': 2285, 'positionName': 'LEFT', 'positionCoords': [326.28, 226.5], 'bid': 8.3}, {'imgObject': {}, 'id': 'steak', 'src': '/static/foodstim60/steak.jpg', 'key': 'i', 'origWidth': 410, 'origHeight': 410, 'width': 410, 'height': 410, 'widthPercent': 0.45, 'rescaleHeight': False, 'trialN': 34, 'loaded': True, 'loadedTime': 2326.6999999955297, 'positionName': 'RIGHT', 'positionCoords': [798.72, 227], 'bid': 7.98}]",47918.0,1669839594654,raspberries,steak,8.3,7.98,-0.3200000000000003,steak,935.6999999955297,936,936.0,True,i,49367.10000000149,1449.1000000014901,1669839596103,1449,HRV,HRV_0235,2022-11-30 20:23:22
35,"[{'imgObject': {}, 'id': 'turkeysandwich', 'src': '/static/foodstim60/turkeysandwich.jpg', 'key': 'u', 'origWidth': 409, 'origHeight': 409, 'width': 409, 'height': 409, 'widthPercent': 0.45, 'rescaleHeight': False, 'trialN': 35, 'loaded': True, 'loadedTime': 2249.39999999851, 'positionName': 'LEFT', 'positionCoords': [328.28, 227.5], 'bid': 8.120000000000001}, {'imgObject': {}, 'id': 'olives', 'src': '/static/foodstim60/olives.jpg', 'key': 'i', 'origWidth': 410, 'origHeight': 410, 'width': 410, 'height': 410, 'widthPercent': 0.45, 'rescaleHeight': False, 'trialN': 35, 'loaded': True, 'loadedTime': 2091.7999999970198, 'positionName': 'RIGHT', 'positionCoords': [798.72, 227], 'bid': 8.75}]",49367.10000000149,1669839596104,turkeysandwich,olives,8.120000000000001,8.75,0.629999999999999,turkeysandwich,665.3999999985099,665,665.8999999985099,True,u,50535.39999999851,1168.2999999970198,1669839597272,1168,HRV,HRV_0235,2022-11-30 20:23:22
36,"[{'imgObject': {}, 'id': 'bagel and cc', 'src': '/static/foodstim60/bagel and cc.jpg', 'key': 'u', 'origWidth': 410, 'origHeight': 410, 'width': 410, 'height': 410, 'widthPercent': 0.45, 'rescaleHeight': False, 'trialN': 36, 'loaded': True, 'loadedTime': 2329.5, 'positionName': 'LEFT', 'positionCoords': [327.28, 227], 'bid': 5.65}, {'imgObject': {}, 'id': 'avocado', 'src': '/static/foodstim60/avocado.jpg', 'key': 'i', 'origWidth': 409, 'origHeight': 409, 'width': 409, 'height': 409, 'widthPercent': 0.45, 'rescaleHeight': False, 'trialN': 36, 'loaded': True, 'loadedTime': 2343.89999999851, 'positionName': 'RIGHT', 'positionCoords': [798.72, 227.5], 'bid': 8.43}]",50535.5,1669839597272,bagel and cc,avocado,5.65,8.43,2.7799999999999994,avocado,939.5,940,939.8999999985099,True,i,51987.69999999553,1452.1999999955297,1669839598724,1452,HRV,HRV_0235,2022-11-30 20:23:22
37,"[{'imgObject': {}, 'id': 'apple slices', 'src': '/static/foodstim60/apple slices.jpg', 'key': 'u', 'origWidth': 409, 'origHeight': 410, 'width': 409, 'height': 410, 'widthPercent': 0.45, 'rescaleHeight': False, 'trialN': 37, 'loaded': True, 'loadedTime': 2047.6000000014901, 'positionName': 'LEFT', 'positionCoords': [328.28, 227], 'bid': 6.94}, {'imgObject': {}, 'id': 'salmon', 'src': '/static/foodstim60/salmon.jpg', 'key': 'i', 'origWidth': 410, 'origHeight': 409, 'width': 410, 'height': 409, 'widthPercent': 0.45, 'rescaleHeight': False, 'trialN': 37, 'loaded': True, 'loadedTime': 2268.60000000149, 'positionName': 'RIGHT', 'positionCoords': [798.72, 227.5], 'bid': 7.29}]",51987.89999999851,1669839598724,apple slices,salmon,6.94,7.29,0.34999999999999964,salmon,624.1000000014901,625,624.2999999970198,True,i,53132.5,1144.6000000014901,1669839599869,1145,HRV,HRV_0235,2022-11-30 20:23:22
38,"[{'imgObject': {}, 'id': 'froot loops w milk', 'src': '/static/foodstim60/froot loops w milk.jpg', 'key': 'u', 'origWidth': 410, 'origHeight': 410, 'width': 410, 'height': 410, 'widthPercent': 0.45, 'rescaleHeight': False, 'trialN': 38, 'loaded': True, 'loadedTime': 2096.10000000149, 'positionName': 'LEFT', 'positionCoords': [327.28, 227], 'bid': 3.0700000000000003}, {'imgObject': {}, 'id': 'bagel and cc', 'src': '/static/foodstim60/bagel and cc.jpg', 'key': 'i', 'origWidth': 410, 'origHeight': 410, 'width': 410, 'height': 410, 'widthPercent': 0.45, 'rescaleHeight': False, 'trialN': 38, 'loaded': True, 'loadedTime': 2329.2999999970198, 'positionName': 'RIGHT', 'positionCoords': [798.72, 227], 'bid': 5.65}]",53132.69999999553,1669839599869,froot loops w milk,bagel and cc,3.0700000000000003,5.65,2.58,froot loops w milk,605.2000000029802,606,605.5,True,u,54250.69999999553,1118.0,1669839600987,1118,HRV,HRV_0235,2022-11-30 20:23:22
39,"[{'imgObject': {}, 'id': 'olives', 'src': '/static/foodstim60/olives.jpg', 'key': 'u', 'origWidth': 410, 'origHeight': 410, 'width': 410, 'height': 410, 'widthPercent': 0.45, 'rescaleHeight': False, 'trialN': 39, 'loaded': True, 'loadedTime': 2092.10000000149, 'positionName': 'LEFT', 'positionCoords': [327.28, 227], 'bid': 8.75}, {'imgObject': {}, 'id': 'cocktailshrimp', 'src': '/static/foodstim60/cocktailshrimp.jpg', 'key': 'i', 'origWidth': 410, 'origHeight': 410, 'width': 410, 'height': 410, 'widthPercent': 0.45, 'rescaleHeight': False, 'trialN': 39, 'loaded': True, 'loadedTime': 2343.89999999851, 'positionName': 'RIGHT', 'positionCoords': [798.72, 227], 'bid': 9.7}]",54250.89999999851,1669839600987,olives,cocktailshrimp,8.75,9.7,0.9499999999999993,olives,766.1000000014901,767,766.3999999985099,True,u,55524.0,1273.1000000014901,1669839602260,1273,HRV,HRV_0235,2022-11-30 20:23:22
40,"[{'imgObject': {}, 'id': 'granola w milk', 'src': '/static/foodstim60/granola w milk.jpg', 'key': 'u', 'origWidth': 410, 'origHeight': 410, 'width': 410, 'height': 410, 'widthPercent': 0.45, 'rescaleHeight': False, 'trialN': 40, 'loaded': True, 'loadedTime': 2356.7999999970198, 'positionName': 'LEFT', 'positionCoords': [327.28, 227], 'bid': 6.640000000000001}, {'imgObject': {}, 'id': 'Grapes', 'src': '/static/foodstim60/Grapes.jpg', 'key': 'i', 'origWidth': 411, 'origHeight': 411, 'width': 411, 'height': 411, 'widthPercent': 0.45, 'rescaleHeight': False, 'trialN': 40, 'loaded': True, 'loadedTime': 2264.39999999851, 'positionName': 'RIGHT', 'positionCoords': [798.72, 226.5], 'bid': 7.76}]",55524.10000000149,1669839602261,granola w milk,Grapes,6.640000000000001,7.76,1.1199999999999992,Grapes,1570.0999999940395,1570,1570.5,True,i,57600.19999999553,2076.0999999940395,1669839604337,2076,HRV,HRV_0235,2022-11-30 20:23:22
41,"[{'imgObject': {}, 'id': 'cantaloupe', 'src': '/static/foodstim60/cantaloupe.jpg', 'key': 'u', 'origWidth': 409, 'origHeight': 409, 'width': 409, 'height': 409, 'widthPercent': 0.45, 'rescaleHeight': False, 'trialN': 41, 'loaded': True, 'loadedTime': 2102.1999999955297, 'positionName': 'LEFT', 'positionCoords': [328.28, 227.5], 'bid': 9.4}, {'imgObject': {}, 'id': 'raspberries', 'src': '/static/foodstim60/raspberries.jpg', 'key': 'i', 'origWidth': 411, 'origHeight': 411, 'width': 411, 'height': 411, 'widthPercent': 0.45, 'rescaleHeight': False, 'trialN': 41, 'loaded': True, 'loadedTime': 2285.2999999970198, 'positionName': 'RIGHT', 'positionCoords': [798.72, 226.5], 'bid': 8.3}]",57600.39999999851,1669839604337,cantaloupe,raspberries,9.4,8.3,-1.0999999999999996,cantaloupe,988.2000000029802,988,988.6000000014901,True,u,59109.39999999851,1509.0,1669839605846,1509,HRV,HRV_0235,2022-11-30 20:23:22
42,"[{'imgObject': {}, 'id': 'shreddedwheatwithmilk', 'src': '/static/foodstim60/shreddedwheatwithmilk.jpg', 'key': 'u', 'origWidth': 410, 'origHeight': 410, 'width': 410, 'height': 410, 'widthPercent': 0.45, 'rescaleHeight': False, 'trialN': 42, 'loaded': True, 'loadedTime': 2358.10000000149, 'positionName': 'LEFT', 'positionCoords': [327.28, 227], 'bid': 3.78}, {'imgObject': {}, 'id': 'hotdog w must', 'src': '/static/foodstim60/hotdog w must.jpg', 'key': 'i', 'origWidth': 409, 'origHeight': 409, 'width': 409, 'height': 409, 'widthPercent': 0.45, 'rescaleHeight': False, 'trialN': 42, 'loaded': True, 'loadedTime': 2210.39999999851, 'positionName': 'RIGHT', 'positionCoords': [798.72, 227.5], 'bid': 3.43}]",59109.60000000149,1669839605846,shreddedwheatwithmilk,hotdog w must,3.78,3.43,-0.34999999999999964,hotdog w must,1195.6999999955297,1196,1196.0999999940395,True,i,60814.29999999702,1704.6999999955297,1669839607551,1705,HRV,HRV_0235,2022-11-30 20:23:22
43,"[{'imgObject': {}, 'id': 'hotdog w must', 'src': '/static/foodstim60/hotdog w must.jpg', 'key': 'u', 'origWidth': 409, 'origHeight': 409, 'width': 409, 'height': 409, 'widthPercent': 0.45, 'rescaleHeight': False, 'trialN': 43, 'loaded': True, 'loadedTime': 2220.7999999970198, 'positionName': 'LEFT', 'positionCoords': [328.28, 227.5], 'bid': 3.43}, {'imgObject': {}, 'id': 'orange slices', 'src': '/static/foodstim60/orange slices.jpg', 'key': 'i', 'origWidth': 409, 'origHeight': 410, 'width': 409, 'height': 410, 'widthPercent': 0.45, 'rescaleHeight': False, 'trialN': 43, 'loaded': True, 'loadedTime': 2359.2999999970198, 'positionName': 'RIGHT', 'positionCoords': [798.72, 227], 'bid': 5.83}]",60814.5,1669839607551,hotdog w must,orange slices,3.43,5.83,2.4,orange slices,904.2999999970198,905,904.6999999955297,True,i,62230.29999999702,1415.7999999970198,1669839608967,1416,HRV,HRV_0235,2022-11-30 20:23:22
44,"[{'imgObject': {}, 'id': 'granola w milk', 'src': '/static/foodstim60/granola w milk.jpg', 'key': 'u', 'origWidth': 410, 'origHeight': 410, 'width': 410, 'height': 410, 'widthPercent': 0.45, 'rescaleHeight': False, 'trialN': 44, 'loaded': True, 'loadedTime': 2356.89999999851, 'positionName': 'LEFT', 'positionCoords': [327.28, 227], 'bid': 6.640000000000001}, {'imgObject': {}, 'id': 'shreddedwheatwithmilk', 'src': '/static/foodstim60/shreddedwheatwithmilk.jpg', 'key': 'i', 'origWidth': 410, 'origHeight': 410, 'width': 410, 'height': 410, 'widthPercent': 0.45, 'rescaleHeight': False, 'trialN': 44, 'loaded': True, 'loadedTime': 2357.10000000149, 'positionName': 'RIGHT', 'positionCoords': [798.72, 227], 'bid': 3.78}]",62230.5,1669839608967,granola w milk,shreddedwheatwithmilk,6.640000000000001,3.78,-2.8600000000000008,granola w milk,997.5,998,997.7999999970198,True,u,63749.5,1519.0,1669839610486,1519,HRV,HRV_0235,2022-11-30 20:23:22
45,"[{'imgObject': {}, 'id': 'raisin bran w milk', 'src': '/static/foodstim60/raisin bran w milk.jpg', 'key': 'u', 'origWidth': 411, 'origHeight': 411, 'width': 411, 'height': 411, 'widthPercent': 0.45, 'rescaleHeight': False, 'trialN': 45, 'loaded': True, 'loadedTime': 2360.7999999970198, 'positionName': 'LEFT', 'positionCoords': [326.28, 226.5], 'bid': 8.370000000000001}, {'imgObject': {}, 'id': 'tacos', 'src': '/static/foodstim60/tacos.jpg', 'key': 'i', 'origWidth': 411, 'origHeight': 411, 'width': 411, 'height': 411, 'widthPercent': 0.45, 'rescaleHeight': False, 'trialN': 45, 'loaded': True, 'loadedTime': 2374.89999999851, 'positionName': 'RIGHT', 'positionCoords': [798.72, 226.5], 'bid': 9.58}]",63749.60000000149,1669839610486,raisin bran w milk,tacos,8.370000000000001,9.58,1.209999999999999,raisin bran w milk,727.0,727,727.3999999985099,True,u,64982.10000000149,1232.5,1669839611718,1232,HRV,HRV_0235,2022-11-30 20:23:22
46,"[{'imgObject': {}, 'id': 'roastedpotatoes', 'src': '/static/foodstim60/roastedpotatoes.jpg', 'key': 'u', 'origWidth': 409, 'origHeight': 410, 'width': 409, 'height': 410, 'widthPercent': 0.45, 'rescaleHeight': False, 'trialN': 46, 'loaded': True, 'loadedTime': 2376.39999999851, 'positionName': 'LEFT', 'positionCoords': [328.28, 227], 'bid': 7.390000000000001}, {'imgObject': {}, 'id': 'raisin bran w milk', 'src': '/static/foodstim60/raisin bran w milk.jpg', 'key': 'i', 'origWidth': 411, 'origHeight': 411, 'width': 411, 'height': 411, 'widthPercent': 0.45, 'rescaleHeight': False, 'trialN': 46, 'loaded': True, 'loadedTime': 2360.89999999851, 'positionName': 'RIGHT', 'positionCoords': [798.72, 226.5], 'bid': 8.370000000000001}]",64982.19999999553,1669839611719,roastedpotatoes,raisin bran w milk,7.390000000000001,8.370000000000001,0.9800000000000004,raisin bran w milk,1387.1000000014901,1387,1387.6000000014901,True,i,66879.0,1896.8000000044703,1669839613615,1896,HRV,HRV_0235,2022-11-30 20:23:22
47,"[{'imgObject': {}, 'id': 'fried eggs', 'src': '/static/foodstim60/fried eggs.jpg', 'key': 'u', 'origWidth': 410, 'origHeight': 410, 'width': 410, 'height': 410, 'widthPercent': 0.45, 'rescaleHeight': False, 'trialN': 47, 'loaded': True, 'loadedTime': 2181.6999999955297, 'positionName': 'LEFT', 'positionCoords': [327.28, 227], 'bid': 8.48}, {'imgObject': {}, 'id': 'grilled chicken strips', 'src': '/static/foodstim60/grilled chicken strips.jpg', 'key': 'i', 'origWidth': 410, 'origHeight': 411, 'width': 410, 'height': 411, 'widthPercent': 0.45, 'rescaleHeight': False, 'trialN': 47, 'loaded': True, 'loadedTime': 2090.2999999970198, 'positionName': 'RIGHT', 'positionCoords': [798.72, 226.5], 'bid': 8.69}]",66879.19999999553,1669839613616,fried eggs,grilled chicken strips,8.48,8.69,0.20999999999999908,grilled chicken strips,863.3000000044703,863,863.7000000029802,True,i,68247.39999999851,1368.2000000029802,1669839614984,1368,HRV,HRV_0235,2022-11-30 20:23:22
48,"[{'imgObject': {}, 'id': 'ice cream sundae 002', 'src': '/static/foodstim60/ice cream sundae 002.jpg', 'key': 'u', 'origWidth': 409, 'origHeight': 409, 'width': 409, 'height': 409, 'widthPercent': 0.45, 'rescaleHeight': False, 'trialN': 48, 'loaded': True, 'loadedTime': 2286.7999999970198, 'positionName': 'LEFT', 'positionCoords': [328.28, 227.5], 'bid': 1.19}, {'imgObject': {}, 'id': 'hotdog w must', 'src': '/static/foodstim60/hotdog w must.jpg', 'key': 'i', 'origWidth': 409, 'origHeight': 409, 'width': 409, 'height': 409, 'widthPercent': 0.45, 'rescaleHeight': False, 'trialN': 48, 'loaded': True, 'loadedTime': 2210.1999999955297, 'positionName': 'RIGHT', 'positionCoords': [798.72, 227.5], 'bid': 3.43}]",68247.60000000149,1669839614984,ice cream sundae 002,hotdog w must,1.19,3.43,2.24,hotdog w must,689.0,689,689.3999999985099,True,i,69451.19999999553,1203.5999999940395,1669839616188,1204,HRV,HRV_0235,2022-11-30 20:23:22
49,"[{'imgObject': {}, 'id': 'pear', 'src': '/static/foodstim60/pear.jpg', 'key': 'u', 'origWidth': 411, 'origHeight': 410, 'width': 411, 'height': 410, 'widthPercent': 0.45, 'rescaleHeight': False, 'trialN': 49, 'loaded': True, 'loadedTime': 2271.7999999970198, 'positionName': 'LEFT', 'positionCoords': [326.28, 227], 'bid': 7.47}, {'imgObject': {}, 'id': 'banana', 'src': '/static/foodstim60/banana.jpg', 'key': 'i', 'origWidth': 410, 'origHeight': 410, 'width': 410, 'height': 410, 'widthPercent': 0.45, 'rescaleHeight': False, 'trialN': 49, 'loaded': True, 'loadedTime': 2276.6999999955297, 'positionName': 'RIGHT', 'positionCoords': [798.72, 227], 'bid': 6.92}]",69451.39999999851,1669839616188,pear,banana,7.47,6.92,-0.5499999999999998,pear,927.7000000029802,928,928.1000000014901,True,u,70893.19999999553,1441.7999999970198,1669839617630,1442,HRV,HRV_0235,2022-11-30 20:23:22
50,"[{'imgObject': {}, 'id': 'rigatoni', 'src': '/static/foodstim60/rigatoni.jpg', 'key': 'u', 'origWidth': 411, 'origHeight': 411, 'width': 411, 'height': 411, 'widthPercent': 0.45, 'rescaleHeight': False, 'trialN': 50, 'loaded': True, 'loadedTime': 2094.2999999970198, 'positionName': 'LEFT', 'positionCoords': [326.28, 226.5], 'bid': 1.66}, {'imgObject': {}, 'id': 'ice cream sundae 002', 'src': '/static/foodstim60/ice cream sundae 002.jpg', 'key': 'i', 'origWidth': 409, 'origHeight': 409, 'width': 409, 'height': 409, 'widthPercent': 0.45, 'rescaleHeight': False, 'trialN': 50, 'loaded': True, 'loadedTime': 2298.5, 'positionName': 'RIGHT', 'positionCoords': [798.72, 227.5], 'bid': 1.19}]",70893.39999999851,1669839617630,rigatoni,ice cream sundae 002,1.66,1.19,-0.47,rigatoni,1235.3999999985099,1236,1235.7999999970198,True,u,72636.69999999553,1743.2999999970198,1669839619373,1743,HRV,HRV_0235,2022-11-30 20:23:22
51,"[{'imgObject': {}, 'id': 'fruitsalad', 'src': '/static/foodstim60/fruitsalad.jpg', 'key': 'u', 'origWidth': 410, 'origHeight': 410, 'width': 410, 'height': 410, 'widthPercent': 0.45, 'rescaleHeight': False, 'trialN': 51, 'loaded': True, 'loadedTime': 2314, 'positionName': 'LEFT', 'positionCoords': [327.28, 227], 'bid': 9.73}, {'imgObject': {}, 'id': 'apple slices', 'src': '/static/foodstim60/apple slices.jpg', 'key': 'i', 'origWidth': 409, 'origHeight': 410, 'width': 409, 'height': 410, 'widthPercent': 0.45, 'rescaleHeight': False, 'trialN': 51, 'loaded': True, 'loadedTime': 2047.1999999955297, 'positionName': 'RIGHT', 'positionCoords': [798.72, 227], 'bid': 6.94}]",72637.0,1669839619373,fruitsalad,apple slices,9.73,6.94,-2.79,fruitsalad,808.7999999970198,810,809.1999999955297,True,u,73954.29999999702,1317.2999999970198,1669839620691,1318,HRV,HRV_0235,2022-11-30 20:23:22
52,"[{'imgObject': {}, 'id': 'burrito', 'src': '/static/foodstim60/burrito.jpg', 'key': 'u', 'origWidth': 410, 'origHeight': 410, 'width': 410, 'height': 410, 'widthPercent': 0.45, 'rescaleHeight': False, 'trialN': 52, 'loaded': True, 'loadedTime': 2126.5, 'positionName': 'LEFT', 'positionCoords': [327.28, 227], 'bid': 8.89}, {'imgObject': {}, 'id': 'cantaloupe', 'src': '/static/foodstim60/cantaloupe.jpg', 'key': 'i', 'origWidth': 409, 'origHeight': 409, 'width': 409, 'height': 409, 'widthPercent': 0.45, 'rescaleHeight': False, 'trialN': 52, 'loaded': True, 'loadedTime': 2101.7999999970198, 'positionName': 'RIGHT', 'positionCoords': [798.72, 227.5], 'bid': 9.4}]",73954.60000000149,1669839620691,burrito,cantaloupe,8.89,9.4,0.5099999999999998,burrito,1276.0,1276,1276.3999999985099,True,u,75737.39999999851,1782.7999999970198,1669839622474,1783,HRV,HRV_0235,2022-11-30 20:23:22
53,"[{'imgObject': {}, 'id': 'chicken nuggets2', 'src': '/static/foodstim60/chicken nuggets2.jpg', 'key': 'u', 'origWidth': 410, 'origHeight': 409, 'width': 410, 'height': 409, 'widthPercent': 0.45, 'rescaleHeight': False, 'trialN': 53, 'loaded': True, 'loadedTime': 2154.89999999851, 'positionName': 'LEFT', 'positionCoords': [327.28, 227.5], 'bid': 7.81}, {'imgObject': {}, 'id': 'blackbeanswithrice', 'src': '/static/foodstim60/blackbeanswithrice.jpg', 'key': 'i', 'origWidth': 410, 'origHeight': 410, 'width': 410, 'height': 410, 'widthPercent': 0.45, 'rescaleHeight': False, 'trialN': 53, 'loaded': True, 'loadedTime': 2377.5, 'positionName': 'RIGHT', 'positionCoords': [798.72, 227], 'bid': 7.81}]",75737.60000000149,1669839622474,chicken nuggets2,blackbeanswithrice,7.81,7.81,0.0,chicken nuggets2,1486.0999999940395,1486,1486.5,True,u,77733.89999999851,1996.2999999970198,1669839624470,1996,HRV,HRV_0235,2022-11-30 20:23:22
54,"[{'imgObject': {}, 'id': 'blueberries', 'src': '/static/foodstim60/blueberries.jpg', 'key': 'u', 'origWidth': 411, 'origHeight': 411, 'width': 411, 'height': 411, 'widthPercent': 0.45, 'rescaleHeight': False, 'trialN': 54, 'loaded': True, 'loadedTime': 2378.89999999851, 'positionName': 'LEFT', 'positionCoords': [326.28, 226.5], 'bid': 7.46}, {'imgObject': {}, 'id': 'corn cob', 'src': '/static/foodstim60/corn cob.jpg', 'key': 'i', 'origWidth': 411, 'origHeight': 411, 'width': 411, 'height': 411, 'widthPercent': 0.45, 'rescaleHeight': False, 'trialN': 54, 'loaded': True, 'loadedTime': 2098, 'positionName': 'RIGHT', 'positionCoords': [798.72, 226.5], 'bid': 6.44}]",77734.19999999553,1669839624471,blueberries,corn cob,7.46,6.44,-1.0199999999999996,corn cob,835.7000000029802,836,836.1000000014901,True,i,79092.10000000149,1357.9000000059605,1669839625829,1358,HRV,HRV_0235,2022-11-30 20:23:22
55,"[{'imgObject': {}, 'id': 'popsicles', 'src': '/static/foodstim60/popsicles.jpg', 'key': 'u', 'origWidth': 410, 'origHeight': 410, 'width': 410, 'height': 410, 'widthPercent': 0.45, 'rescaleHeight': False, 'trialN': 55, 'loaded': True, 'loadedTime': 2273.6999999955297, 'positionName': 'LEFT', 'positionCoords': [327.28, 227], 'bid': 8.17}, {'imgObject': {}, 'id': 'mashed potato', 'src': '/static/foodstim60/mashed potato.jpg', 'key': 'i', 'origWidth': 409, 'origHeight': 409, 'width': 409, 'height': 409, 'widthPercent': 0.45, 'rescaleHeight': False, 'trialN': 55, 'loaded': True, 'loadedTime': 2088.7999999970198, 'positionName': 'RIGHT', 'positionCoords': [798.72, 227.5], 'bid': 4.97}]",79092.39999999851,1669839625829,popsicles,mashed potato,8.17,4.97,-3.2,mashed potato,1361.5,1362,1361.8999999985099,True,i,80964.39999999851,1872.0,1669839627701,1872,HRV,HRV_0235,2022-11-30 20:23:22
56,"[{'imgObject': {}, 'id': 'mac & cheese', 'src': '/static/foodstim60/mac & cheese.jpg', 'key': 'u', 'origWidth': 410, 'origHeight': 410, 'width': 410, 'height': 410, 'widthPercent': 0.45, 'rescaleHeight': False, 'trialN': 56, 'loaded': True, 'loadedTime': 2102.39999999851, 'positionName': 'LEFT', 'positionCoords': [327.28, 227], 'bid': 8.05}, {'imgObject': {}, 'id': 'eggs', 'src': '/static/foodstim60/eggs.jpg', 'key': 'i', 'origWidth': 409, 'origHeight': 409, 'width': 409, 'height': 409, 'widthPercent': 0.45, 'rescaleHeight': False, 'trialN': 56, 'loaded': True, 'loadedTime': 2380.60000000149, 'positionName': 'RIGHT', 'positionCoords': [798.72, 227.5], 'bid': 8.120000000000001}]",80964.60000000149,1669839627701,mac & cheese,eggs,8.05,8.120000000000001,0.07000000000000028,eggs,1061.5999999940395,1062,1062.0,True,i,82541.69999999553,1577.0999999940395,1669839629278,1577,HRV,HRV_0235,2022-11-30 20:23:22
57,"[{'imgObject': {}, 'id': 'granola w milk', 'src': '/static/foodstim60/granola w milk.jpg', 'key': 'u', 'origWidth': 410, 'origHeight': 410, 'width': 410, 'height': 410, 'widthPercent': 0.45, 'rescaleHeight': False, 'trialN': 57, 'loaded': True, 'loadedTime': 2356.7999999970198, 'positionName': 'LEFT', 'positionCoords': [327.28, 227], 'bid': 6.640000000000001}, {'imgObject': {}, 'id': 'banana', 'src': '/static/foodstim60/banana.jpg', 'key': 'i', 'origWidth': 410, 'origHeight': 410, 'width': 410, 'height': 410, 'widthPercent': 0.45, 'rescaleHeight': False, 'trialN': 57, 'loaded': True, 'loadedTime': 2275.6999999955297, 'positionName': 'RIGHT', 'positionCoords': [798.72, 227], 'bid': 6.92}]",82541.79999999702,1669839629278,granola w milk,banana,6.640000000000001,6.92,0.27999999999999936,granola w milk,810.5,811,810.7000000029802,True,u,83854.79999999702,1313.0,1669839630591,1313,HRV,HRV_0235,2022-11-30 20:23:22
58,"[{'imgObject': {}, 'id': 'cherries', 'src': '/static/foodstim60/cherries.jpg', 'key': 'u', 'origWidth': 410, 'origHeight': 411, 'width': 410, 'height': 411, 'widthPercent': 0.45, 'rescaleHeight': False, 'trialN': 58, 'loaded': True, 'loadedTime': 2386.60000000149, 'positionName': 'LEFT', 'positionCoords': [327.28, 226.5], 'bid': 6.88}, {'imgObject': {}, 'id': 'tacos', 'src': '/static/foodstim60/tacos.jpg', 'key': 'i', 'origWidth': 411, 'origHeight': 411, 'width': 411, 'height': 411, 'widthPercent': 0.45, 'rescaleHeight': False, 'trialN': 58, 'loaded': True, 'loadedTime': 2375.10000000149, 'positionName': 'RIGHT', 'positionCoords': [798.72, 226.5], 'bid': 9.58}]",83854.89999999851,1669839630591,cherries,tacos,6.88,9.58,2.7,tacos,633.7000000029802,634,633.8999999985099,True,i,84993.19999999553,1138.2999999970198,1669839631730,1139,HRV,HRV_0235,2022-11-30 20:23:22
59,"[{'imgObject': {}, 'id': 'seaweed', 'src': '/static/foodstim60/seaweed.jpg', 'key': 'u', 'origWidth': 410, 'origHeight': 410, 'width': 410, 'height': 410, 'widthPercent': 0.45, 'rescaleHeight': False, 'trialN': 59, 'loaded': True, 'loadedTime': 2079.1999999955297, 'positionName': 'LEFT', 'positionCoords': [327.28, 227], 'bid': 0.72}, {'imgObject': {}, 'id': 'rigatoni', 'src': '/static/foodstim60/rigatoni.jpg', 'key': 'i', 'origWidth': 411, 'origHeight': 411, 'width': 411, 'height': 411, 'widthPercent': 0.45, 'rescaleHeight': False, 'trialN': 59, 'loaded': True, 'loadedTime': 2094, 'positionName': 'RIGHT', 'positionCoords': [798.72, 226.5], 'bid': 1.66}]",84993.39999999851,1669839631730,seaweed,rigatoni,0.72,1.66,0.94,rigatoni,973.3999999985099,974,973.7000000029802,True,i,86476.10000000149,1482.7000000029802,1669839633213,1483,HRV,HRV_0235,2022-11-30 20:23:22
60,"[{'imgObject': {}, 'id': 'baked potato', 'src': '/static/foodstim60/baked potato.jpg', 'key': 'u', 'origWidth': 409, 'origHeight': 410, 'width': 409, 'height': 410, 'widthPercent': 0.45, 'rescaleHeight': False, 'trialN': 60, 'loaded': True, 'loadedTime': 2223.2999999970198, 'positionName': 'LEFT', 'positionCoords': [328.28, 227], 'bid': 6.17}, {'imgObject': {}, 'id': 'veggieswithdip', 'src': '/static/foodstim60/veggieswithdip.jpg', 'key': 'i', 'origWidth': 409, 'origHeight': 409, 'width': 409, 'height': 409, 'widthPercent': 0.45, 'rescaleHeight': False, 'trialN': 60, 'loaded': True, 'loadedTime': 2286.39999999851, 'positionName': 'RIGHT', 'positionCoords': [798.72, 227.5], 'bid': 5.5}]",86476.39999999851,1669839633213,baked potato,veggieswithdip,6.17,5.5,-0.6699999999999999,veggieswithdip,1030.2000000029802,1030,1030.6000000014901,True,i,88025.10000000149,1548.7000000029802,1669839634761,1548,HRV,HRV_0235,2022-11-30 20:23:22
61,"[{'imgObject': {}, 'id': 'cocktailshrimp', 'src': '/static/foodstim60/cocktailshrimp.jpg', 'key': 'u', 'origWidth': 410, 'origHeight': 410, 'width': 410, 'height': 410, 'widthPercent': 0.45, 'rescaleHeight': False, 'trialN': 61, 'loaded': True, 'loadedTime': 2345.1999999955297, 'positionName': 'LEFT', 'positionCoords': [327.28, 227], 'bid': 9.7}, {'imgObject': {}, 'id': 'eggs', 'src': '/static/foodstim60/eggs.jpg', 'key': 'i', 'origWidth': 409, 'origHeight': 409, 'width': 409, 'height': 409, 'widthPercent': 0.45, 'rescaleHeight': False, 'trialN': 61, 'loaded': True, 'loadedTime': 2380.5, 'positionName': 'RIGHT', 'positionCoords': [798.72, 227.5], 'bid': 8.120000000000001}]",88025.29999999702,1669839634762,cocktailshrimp,eggs,9.7,8.120000000000001,-1.5799999999999983,cocktailshrimp,800.3000000044703,800,800.6000000014901,True,u,89330.0,1304.7000000029802,1669839636066,1304,HRV,HRV_0235,2022-11-30 20:23:22
62,"[{'imgObject': {}, 'id': 'kiwi', 'src': '/static/foodstim60/kiwi.jpg', 'key': 'u', 'origWidth': 410, 'origHeight': 410, 'width': 410, 'height': 410, 'widthPercent': 0.45, 'rescaleHeight': False, 'trialN': 62, 'loaded': True, 'loadedTime': 2298.60000000149, 'positionName': 'LEFT', 'positionCoords': [327.28, 227], 'bid': 8.9}, {'imgObject': {}, 'id': 'strawberries', 'src': '/static/foodstim60/strawberries.jpg', 'key': 'i', 'origWidth': 410, 'origHeight': 410, 'width': 410, 'height': 410, 'widthPercent': 0.45, 'rescaleHeight': False, 'trialN': 62, 'loaded': True, 'loadedTime': 2388.60000000149, 'positionName': 'RIGHT', 'positionCoords': [798.72, 227], 'bid': 6.58}]",89330.19999999553,1669839636067,kiwi,strawberries,8.9,6.58,-2.3200000000000003,kiwi,1064.0,1064,1064.4000000059605,True,u,90906.69999999553,1576.5,1669839637643,1576,HRV,HRV_0235,2022-11-30 20:23:22
63,"[{'imgObject': {}, 'id': 'roastedpotatoes', 'src': '/static/foodstim60/roastedpotatoes.jpg', 'key': 'u', 'origWidth': 409, 'origHeight': 410, 'width': 409, 'height': 410, 'widthPercent': 0.45, 'rescaleHeight': False, 'trialN': 63, 'loaded': True, 'loadedTime': 2376.5, 'positionName': 'LEFT', 'positionCoords': [328.28, 227], 'bid': 7.390000000000001}, {'imgObject': {}, 'id': 'baked potato', 'src': '/static/foodstim60/baked potato.jpg', 'key': 'i', 'origWidth': 409, 'origHeight': 410, 'width': 409, 'height': 410, 'widthPercent': 0.45, 'rescaleHeight': False, 'trialN': 63, 'loaded': True, 'loadedTime': 2223.5, 'positionName': 'RIGHT', 'positionCoords': [798.72, 227], 'bid': 6.17}]",90907.0,1669839637643,roastedpotatoes,baked potato,7.390000000000001,6.17,-1.2200000000000006,baked potato,1027.5,1028,1028.0,True,i,92445.0,1538.0,1669839639181,1538,HRV,HRV_0235,2022-11-30 20:23:22
64,"[{'imgObject': {}, 'id': 'turkeysandwich', 'src': '/static/foodstim60/turkeysandwich.jpg', 'key': 'u', 'origWidth': 409, 'origHeight': 409, 'width': 409, 'height': 409, 'widthPercent': 0.45, 'rescaleHeight': False, 'trialN': 64, 'loaded': True, 'loadedTime': 2250.7999999970198, 'positionName': 'LEFT', 'positionCoords': [328.28, 227.5], 'bid': 8.120000000000001}, {'imgObject': {}, 'id': 'mac & cheese', 'src': '/static/foodstim60/mac & cheese.jpg', 'key': 'i', 'origWidth': 410, 'origHeight': 410, 'width': 410, 'height': 410, 'widthPercent': 0.45, 'rescaleHeight': False, 'trialN': 64, 'loaded': True, 'loadedTime': 2114.1999999955297, 'positionName': 'RIGHT', 'positionCoords': [798.72, 227], 'bid': 8.05}]",92445.10000000149,1669839639182,turkeysandwich,mac & cheese,8.120000000000001,8.05,-0.07000000000000028,turkeysandwich,976.8999999985099,977,977.1999999955297,True,u,93933.79999999702,1488.6999999955297,1669839640670,1488,HRV,HRV_0235,2022-11-30 20:23:22
65,"[{'imgObject': {}, 'id': 'eggsalad', 'src': '/static/foodstim60/eggsalad.jpg', 'key': 'u', 'origWidth': 410, 'origHeight': 409, 'width': 410, 'height': 409, 'widthPercent': 0.45, 'rescaleHeight': False, 'trialN': 65, 'loaded': True, 'loadedTime': 2183.2999999970198, 'positionName': 'LEFT', 'positionCoords': [327.28, 227.5], 'bid': 5.96}, {'imgObject': {}, 'id': 'orange slices', 'src': '/static/foodstim60/orange slices.jpg', 'key': 'i', 'origWidth': 409, 'origHeight': 410, 'width': 409, 'height': 410, 'widthPercent': 0.45, 'rescaleHeight': False, 'trialN': 65, 'loaded': True, 'loadedTime': 2359.60000000149, 'positionName': 'RIGHT', 'positionCoords': [798.72, 227], 'bid': 5.83}]",93934.10000000149,1669839640670,eggsalad,orange slices,5.96,5.83,-0.1299999999999999,eggsalad,1138.8999999985099,1140,1139.1999999955297,True,u,95579.69999999553,1645.5999999940395,1669839642316,1646,HRV,HRV_0235,2022-11-30 20:23:22
66,"[{'imgObject': {}, 'id': 'cheerios', 'src': '/static/foodstim60/cheerios.jpg', 'key': 'u', 'origWidth': 409, 'origHeight': 410, 'width': 409, 'height': 410, 'widthPercent': 0.45, 'rescaleHeight': False, 'trialN': 66, 'loaded': True, 'loadedTime': 2083.2999999970198, 'positionName': 'LEFT', 'positionCoords': [328.28, 227], 'bid': 2.08}, {'imgObject': {}, 'id': 'cherry tomato', 'src': '/static/foodstim60/cherry tomato.jpg', 'key': 'i', 'origWidth': 410, 'origHeight': 410, 'width': 410, 'height': 410, 'widthPercent': 0.45, 'rescaleHeight': False, 'trialN': 66, 'loaded': True, 'loadedTime': 2235.2999999970198, 'positionName': 'RIGHT', 'positionCoords': [798.72, 227], 'bid': 2.33}]",95579.89999999851,1669839642316,cheerios,cherry tomato,2.08,2.33,0.25,cherry tomato,668.7000000029802,669,669.0,True,i,96764.89999999851,1185.0,1669839643501,1185,HRV,HRV_0235,2022-11-30 20:23:22
67,"[{'imgObject': {}, 'id': 'granola w milk', 'src': '/static/foodstim60/granola w milk.jpg', 'key': 'u', 'origWidth': 410, 'origHeight': 410, 'width': 410, 'height': 410, 'widthPercent': 0.45, 'rescaleHeight': False, 'trialN': 67, 'loaded': True, 'loadedTime': 2356.1999999955297, 'positionName': 'LEFT', 'positionCoords': [327.28, 227], 'bid': 6.640000000000001}, {'imgObject': {}, 'id': 'strawberries', 'src': '/static/foodstim60/strawberries.jpg', 'key': 'i', 'origWidth': 410, 'origHeight': 410, 'width': 410, 'height': 410, 'widthPercent': 0.45, 'rescaleHeight': False, 'trialN': 67, 'loaded': True, 'loadedTime': 2388.6999999955297, 'positionName': 'RIGHT', 'positionCoords': [798.72, 227], 'bid': 6.58}]",96765.0,1669839643501,granola w milk,strawberries,6.640000000000001,6.58,-0.0600000000000005,granola w milk,825.2999999970198,826,825.6000000014901,True,u,98104.5,1339.5,1669839644841,1340,HRV,HRV_0235,2022-11-30 20:23:22
68,"[{'imgObject': {}, 'id': 'mashed potato', 'src': '/static/foodstim60/mashed potato.jpg', 'key': 'u', 'origWidth': 409, 'origHeight': 409, 'width': 409, 'height': 409, 'widthPercent': 0.45, 'rescaleHeight': False, 'trialN': 68, 'loaded': True, 'loadedTime': 2088.6999999955297, 'positionName': 'LEFT', 'positionCoords': [328.28, 227.5], 'bid': 4.97}, {'imgObject': {}, 'id': 'veggieswithdip', 'src': '/static/foodstim60/veggieswithdip.jpg', 'key': 'i', 'origWidth': 409, 'origHeight': 409, 'width': 409, 'height': 409, 'widthPercent': 0.45, 'rescaleHeight': False, 'trialN': 68, 'loaded': True, 'loadedTime': 2286.6999999955297, 'positionName': 'RIGHT', 'positionCoords': [798.72, 227.5], 'bid': 5.5}]",98104.69999999553,1669839644841,mashed potato,veggieswithdip,4.97,5.5,0.5300000000000002,veggieswithdip,947.7000000029802,948,948.1000000014901,True,i,99564.10000000149,1459.4000000059605,1669839646301,1460,HRV,HRV_0235,2022-11-30 20:23:22
69,"[{'imgObject': {}, 'id': 'raisin bran w milk', 'src': '/static/foodstim60/raisin bran w milk.jpg', 'key': 'u', 'origWidth': 411, 'origHeight': 411, 'width': 411, 'height': 411, 'widthPercent': 0.45, 'rescaleHeight': False, 'trialN': 69, 'loaded': True, 'loadedTime': 2359.6999999955297, 'positionName': 'LEFT', 'positionCoords': [326.28, 226.5], 'bid': 8.370000000000001}, {'imgObject': {}, 'id': 'bagel plain', 'src': '/static/foodstim60/bagel plain.jpg', 'key': 'i', 'origWidth': 410, 'origHeight': 410, 'width': 410, 'height': 410, 'widthPercent': 0.45, 'rescaleHeight': False, 'trialN': 69, 'loaded': True, 'loadedTime': 2326.2999999970198, 'positionName': 'RIGHT', 'positionCoords': [798.72, 227], 'bid': 5.54}]",99564.39999999851,1669839646301,raisin bran w milk,bagel plain,8.370000000000001,5.54,-2.830000000000001,raisin bran w milk,740.0,740,740.3999999985099,True,u,100822.39999999851,1258.0,1669839647559,1258,HRV,HRV_0235,2022-11-30 20:23:22
70,"[{'imgObject': {}, 'id': 'sushi w_condiments', 'src': '/static/foodstim60/sushi w_condiments.jpg', 'key': 'u', 'origWidth': 410, 'origHeight': 410, 'width': 410, 'height': 410, 'widthPercent': 0.45, 'rescaleHeight': False, 'trialN': 70, 'loaded': True, 'loadedTime': 2167.10000000149, 'positionName': 'LEFT', 'positionCoords': [327.28, 227], 'bid': 8.61}, {'imgObject': {}, 'id': 'chickenfingers', 'src': '/static/foodstim60/chickenfingers.jpg', 'key': 'i', 'origWidth': 410, 'origHeight': 410, 'width': 410, 'height': 410, 'widthPercent': 0.45, 'rescaleHeight': False, 'trialN': 70, 'loaded': True, 'loadedTime': 2312.39999999851, 'positionName': 'RIGHT', 'positionCoords': [798.72, 227], 'bid': 9.81}]",100822.5,1669839647559,sushi w_condiments,chickenfingers,8.61,9.81,1.200000000000001,chickenfingers,607.6999999955297,608,608.1000000014901,True,i,101943.10000000149,1120.6000000014901,1669839648679,1120,HRV,HRV_0235,2022-11-30 20:23:22
71,"[{'imgObject': {}, 'id': 'froot loops w milk', 'src': '/static/foodstim60/froot loops w milk.jpg', 'key': 'u', 'origWidth': 410, 'origHeight': 410, 'width': 410, 'height': 410, 'widthPercent': 0.45, 'rescaleHeight': False, 'trialN': 71, 'loaded': True, 'loadedTime': 2096.2999999970198, 'positionName': 'LEFT', 'positionCoords': [327.28, 227], 'bid': 3.0700000000000003}, {'imgObject': {}, 'id': 'seaweed', 'src': '/static/foodstim60/seaweed.jpg', 'key': 'i', 'origWidth': 410, 'origHeight': 410, 'width': 410, 'height': 410, 'widthPercent': 0.45, 'rescaleHeight': False, 'trialN': 71, 'loaded': True, 'loadedTime': 2078.6999999955297, 'positionName': 'RIGHT', 'positionCoords': [798.72, 227], 'bid': 0.72}]",101943.29999999702,1669839648680,froot loops w milk,seaweed,3.0700000000000003,0.72,-2.3500000000000005,froot loops w milk,872.3999999985099,872,872.7000000029802,True,u,103321.10000000149,1377.8000000044703,1669839650058,1378,HRV,HRV_0235,2022-11-30 20:23:22
72,"[{'imgObject': {}, 'id': 'shreddedwheatwithmilk', 'src': '/static/foodstim60/shreddedwheatwithmilk.jpg', 'key': 'u', 'origWidth': 410, 'origHeight': 410, 'width': 410, 'height': 410, 'widthPercent': 0.45, 'rescaleHeight': False, 'trialN': 72, 'loaded': True, 'loadedTime': 2358.10000000149, 'positionName': 'LEFT', 'positionCoords': [327.28, 227], 'bid': 3.78}, {'imgObject': {}, 'id': 'omelette', 'src': '/static/foodstim60/omelette.jpg', 'key': 'i', 'origWidth': 410, 'origHeight': 409, 'width': 410, 'height': 409, 'widthPercent': 0.45, 'rescaleHeight': False, 'trialN': 72, 'loaded': True, 'loadedTime': 2080, 'positionName': 'RIGHT', 'positionCoords': [798.72, 227.5], 'bid': 0.59}]",103321.39999999851,1669839650058,shreddedwheatwithmilk,omelette,3.78,0.59,-3.19,omelette,945.7999999970198,946,946.1000000014901,True,i,104788.60000000149,1467.2000000029802,1669839651525,1467,HRV,HRV_0235,2022-11-30 20:23:22
73,"[{'imgObject': {}, 'id': 'lox', 'src': '/static/foodstim60/lox.jpg', 'key': 'u', 'origWidth': 410, 'origHeight': 411, 'width': 410, 'height': 411, 'widthPercent': 0.45, 'rescaleHeight': False, 'trialN': 73, 'loaded': True, 'loadedTime': 2140.89999999851, 'positionName': 'LEFT', 'positionCoords': [327.28, 226.5], 'bid': 7.96}, {'imgObject': {}, 'id': 'apple slices', 'src': '/static/foodstim60/apple slices.jpg', 'key': 'i', 'origWidth': 409, 'origHeight': 410, 'width': 409, 'height': 410, 'widthPercent': 0.45, 'rescaleHeight': False, 'trialN': 73, 'loaded': True, 'loadedTime': 2057.1999999955297, 'positionName': 'RIGHT', 'positionCoords': [798.72, 227], 'bid': 6.94}]",104788.79999999702,1669839651525,lox,apple slices,7.96,6.94,-1.0199999999999996,lox,820.0,821,820.5,True,u,106121.5,1332.7000000029802,1669839652858,1333,HRV,HRV_0235,2022-11-30 20:23:22
74,"[{'imgObject': {}, 'id': 'blueberries', 'src': '/static/foodstim60/blueberries.jpg', 'key': 'u', 'origWidth': 411, 'origHeight': 411, 'width': 411, 'height': 411, 'widthPercent': 0.45, 'rescaleHeight': False, 'trialN': 74, 'loaded': True, 'loadedTime': 2378, 'positionName': 'LEFT', 'positionCoords': [326.28, 226.5], 'bid': 7.46}, {'imgObject': {}, 'id': 'pear', 'src': '/static/foodstim60/pear.jpg', 'key': 'i', 'origWidth': 411, 'origHeight': 410, 'width': 411, 'height': 410, 'widthPercent': 0.45, 'rescaleHeight': False, 'trialN': 74, 'loaded': True, 'loadedTime': 2271.5, 'positionName': 'RIGHT', 'positionCoords': [798.72, 227], 'bid': 7.47}]",106121.69999999553,1669839652858,blueberries,pear,7.46,7.47,0.009999999999999787,pear,1019.1000000014901,1020,1019.5,True,i,107654.39999999851,1532.7000000029802,1669839654391,1533,HRV,HRV_0235,2022-11-30 20:23:22
75,"[{'imgObject': {}, 'id': 'raspberries', 'src': '/static/foodstim60/raspberries.jpg', 'key': 'u', 'origWidth': 411, 'origHeight': 411, 'width': 411, 'height': 411, 'widthPercent': 0.45, 'rescaleHeight': False, 'trialN': 75, 'loaded': True, 'loadedTime': 2284.7999999970198, 'positionName': 'LEFT', 'positionCoords': [326.28, 226.5], 'bid': 8.3}, {'imgObject': {}, 'id': 'turkey sandwich', 'src': '/static/foodstim60/turkey sandwich.jpg', 'key': 'i', 'origWidth': 409, 'origHeight': 409, 'width': 409, 'height': 409, 'widthPercent': 0.45, 'rescaleHeight': False, 'trialN': 75, 'loaded': True, 'loadedTime': 2300.5, 'positionName': 'RIGHT', 'positionCoords': [798.72, 227.5], 'bid': 8.3}]",107654.60000000149,1669839654391,raspberries,turkey sandwich,8.3,8.3,0.0,turkey sandwich,1214.6999999955297,1215,1215.0,True,i,109387.10000000149,1732.5,1669839656124,1733,HRV,HRV_0235,2022-11-30 20:23:22
76,"[{'imgObject': {}, 'id': 'eggs', 'src': '/static/foodstim60/eggs.jpg', 'key': 'u', 'origWidth': 409, 'origHeight': 409, 'width': 409, 'height': 409, 'widthPercent': 0.45, 'rescaleHeight': False, 'trialN': 76, 'loaded': True, 'loadedTime': 2380.60000000149, 'positionName': 'LEFT', 'positionCoords': [328.28, 227.5], 'bid': 8.120000000000001}, {'imgObject': {}, 'id': 'chicken nuggets2', 'src': '/static/foodstim60/chicken nuggets2.jpg', 'key': 'i', 'origWidth': 410, 'origHeight': 409, 'width': 410, 'height': 409, 'widthPercent': 0.45, 'rescaleHeight': False, 'trialN': 76, 'loaded': True, 'loadedTime': 2154.39999999851, 'positionName': 'RIGHT', 'positionCoords': [798.72, 227.5], 'bid': 7.81}]",109387.29999999702,1669839656124,eggs,chicken nuggets2,8.120000000000001,7.81,-0.3100000000000014,chicken nuggets2,806.7000000029802,807,807.0,True,i,110717.69999999553,1330.3999999985099,1669839657454,1330,HRV,HRV_0235,2022-11-30 20:23:22
77,"[{'imgObject': {}, 'id': 'pear', 'src': '/static/foodstim60/pear.jpg', 'key': 'u', 'origWidth': 411, 'origHeight': 410, 'width': 411, 'height': 410, 'widthPercent': 0.45, 'rescaleHeight': False, 'trialN': 77, 'loaded': True, 'loadedTime': 2272, 'positionName': 'LEFT', 'positionCoords': [326.28, 227], 'bid': 7.47}, {'imgObject': {}, 'id': 'mango', 'src': '/static/foodstim60/mango.jpg', 'key': 'i', 'origWidth': 411, 'origHeight': 411, 'width': 411, 'height': 411, 'widthPercent': 0.45, 'rescaleHeight': False, 'trialN': 77, 'loaded': True, 'loadedTime': 2208.5, 'positionName': 'RIGHT', 'positionCoords': [798.72, 226.5], 'bid': 6.54}]",110718.0,1669839657454,pear,mango,7.47,6.54,-0.9299999999999997,mango,941.1000000014901,942,941.3999999985099,True,i,112168.69999999553,1450.6999999955297,1669839658905,1451,HRV,HRV_0235,2022-11-30 20:23:22
78,"[{'imgObject': {}, 'id': 'hotdog w must', 'src': '/static/foodstim60/hotdog w must.jpg', 'key': 'u', 'origWidth': 409, 'origHeight': 409, 'width': 409, 'height': 409, 'widthPercent': 0.45, 'rescaleHeight': False, 'trialN': 78, 'loaded': True, 'loadedTime': 2221.7999999970198, 'positionName': 'LEFT', 'positionCoords': [328.28, 227.5], 'bid': 3.43}, {'imgObject': {}, 'id': 'lox', 'src': '/static/foodstim60/lox.jpg', 'key': 'i', 'origWidth': 410, 'origHeight': 411, 'width': 410, 'height': 411, 'widthPercent': 0.45, 'rescaleHeight': False, 'trialN': 78, 'loaded': True, 'loadedTime': 2143, 'positionName': 'RIGHT', 'positionCoords': [798.72, 226.5], 'bid': 7.96}]",112168.79999999702,1669839658905,hotdog w must,lox,3.43,7.96,4.529999999999999,lox,947.3000000044703,948,947.6000000014901,True,i,113635.69999999553,1466.8999999985099,1669839660372,1467,HRV,HRV_0235,2022-11-30 20:23:22
79,"[{'imgObject': {}, 'id': 'popsicles', 'src': '/static/foodstim60/popsicles.jpg', 'key': 'u', 'origWidth': 410, 'origHeight': 410, 'width': 410, 'height': 410, 'widthPercent': 0.45, 'rescaleHeight': False, 'trialN': 79, 'loaded': True, 'loadedTime': 2273.1999999955297, 'positionName': 'LEFT', 'positionCoords': [327.28, 227], 'bid': 8.17}, {'imgObject': {}, 'id': 'burrito', 'src': '/static/foodstim60/burrito.jpg', 'key': 'i', 'origWidth': 410, 'origHeight': 410, 'width': 410, 'height': 410, 'widthPercent': 0.45, 'rescaleHeight': False, 'trialN': 79, 'loaded': True, 'loadedTime': 2127.2999999970198, 'positionName': 'RIGHT', 'positionCoords': [798.72, 227], 'bid': 8.89}]",113636.0,1669839660372,popsicles,burrito,8.17,8.89,0.7200000000000006,burrito,646.8999999985099,648,647.3999999985099,True,i,114802.79999999702,1166.7999999970198,1669839661539,1167,HRV,HRV_0235,2022-11-30 20:23:22
80,"[{'imgObject': {}, 'id': 'bagel and cc', 'src': '/static/foodstim60/bagel and cc.jpg', 'key': 'u', 'origWidth': 410, 'origHeight': 410, 'width': 410, 'height': 410, 'widthPercent': 0.45, 'rescaleHeight': False, 'trialN': 80, 'loaded': True, 'loadedTime': 2341.7999999970198, 'positionName': 'LEFT', 'positionCoords': [327.28, 227], 'bid': 5.65}, {'imgObject': {}, 'id': 'bagel plain', 'src': '/static/foodstim60/bagel plain.jpg', 'key': 'i', 'origWidth': 410, 'origHeight': 410, 'width': 410, 'height': 410, 'widthPercent': 0.45, 'rescaleHeight': False, 'trialN': 80, 'loaded': True, 'loadedTime': 2326.60000000149, 'positionName': 'RIGHT', 'positionCoords': [798.72, 227], 'bid': 5.54}]",114803.0,1669839661539,bagel and cc,bagel plain,5.65,5.54,-0.11000000000000032,bagel and cc,873.6999999955297,874,874.0,True,u,116184.69999999553,1381.6999999955297,1669839662921,1382,HRV,HRV_0235,2022-11-30 20:23:22
81,"[{'imgObject': {}, 'id': 'cocktailshrimp', 'src': '/static/foodstim60/cocktailshrimp.jpg', 'key': 'u', 'origWidth': 410, 'origHeight': 410, 'width': 410, 'height': 410, 'widthPercent': 0.45, 'rescaleHeight': False, 'trialN': 81, 'loaded': True, 'loadedTime': 2345.7999999970198, 'positionName': 'LEFT', 'positionCoords': [327.28, 227], 'bid': 9.7}, {'imgObject': {}, 'id': 'tacos', 'src': '/static/foodstim60/tacos.jpg', 'key': 'i', 'origWidth': 411, 'origHeight': 411, 'width': 411, 'height': 411, 'widthPercent': 0.45, 'rescaleHeight': False, 'trialN': 81, 'loaded': True, 'loadedTime': 2375, 'positionName': 'RIGHT', 'positionCoords': [798.72, 226.5], 'bid': 9.58}]",116184.89999999851,1669839662921,cocktailshrimp,tacos,9.7,9.58,-0.11999999999999922,tacos,643.3999999985099,644,643.7999999970198,True,i,117335.79999999702,1150.8999999985099,1669839664072,1151,HRV,HRV_0235,2022-11-30 20:23:22
82,"[{'imgObject': {}, 'id': 'Grapes', 'src': '/static/foodstim60/Grapes.jpg', 'key': 'u', 'origWidth': 411, 'origHeight': 411, 'width': 411, 'height': 411, 'widthPercent': 0.45, 'rescaleHeight': False, 'trialN': 82, 'loaded': True, 'loadedTime': 2262.2999999970198, 'positionName': 'LEFT', 'positionCoords': [326.28, 226.5], 'bid': 7.76}, {'imgObject': {}, 'id': 'salad w chicken', 'src': '/static/foodstim60/salad w chicken.jpg', 'key': 'i', 'origWidth': 411, 'origHeight': 411, 'width': 411, 'height': 411, 'widthPercent': 0.45, 'rescaleHeight': False, 'trialN': 82, 'loaded': True, 'loadedTime': 2086.7999999970198, 'positionName': 'RIGHT', 'positionCoords': [798.72, 226.5], 'bid': 7.65}]",117335.89999999851,1669839664072,Grapes,salad w chicken,7.76,7.65,-0.10999999999999943,salad w chicken,1292.8999999985099,1294,1293.2999999970198,True,i,119146.10000000149,1810.2000000029802,1669839665883,1811,HRV,HRV_0235,2022-11-30 20:23:22
83,"[{'imgObject': {}, 'id': 'apple slices', 'src': '/static/foodstim60/apple slices.jpg', 'key': 'u', 'origWidth': 409, 'origHeight': 410, 'width': 409, 'height': 410, 'widthPercent': 0.45, 'rescaleHeight': False, 'trialN': 83, 'loaded': True, 'loadedTime': 2046.8999999985099, 'positionName': 'LEFT', 'positionCoords': [328.28, 227], 'bid': 6.94}, {'imgObject': {}, 'id': 'salad w chicken', 'src': '/static/foodstim60/salad w chicken.jpg', 'key': 'i', 'origWidth': 411, 'origHeight': 411, 'width': 411, 'height': 411, 'widthPercent': 0.45, 'rescaleHeight': False, 'trialN': 83, 'loaded': True, 'loadedTime': 2085.60000000149, 'positionName': 'RIGHT', 'positionCoords': [798.72, 226.5], 'bid': 7.65}]",119146.29999999702,1669839665883,apple slices,salad w chicken,6.94,7.65,0.71,salad w chicken,995.8000000044703,996,996.2000000029802,True,i,120651.19999999553,1504.8999999985099,1669839667388,1505,HRV,HRV_0235,2022-11-30 20:23:22
84,"[{'imgObject': {}, 'id': 'granola w milk', 'src': '/static/foodstim60/granola w milk.jpg', 'key': 'u', 'origWidth': 410, 'origHeight': 410, 'width': 410, 'height': 410, 'widthPercent': 0.45, 'rescaleHeight': False, 'trialN': 84, 'loaded': True, 'loadedTime': 2356.39999999851, 'positionName': 'LEFT', 'positionCoords': [327.28, 227], 'bid': 6.640000000000001}, {'imgObject': {}, 'id': 'roastedpotatoes', 'src': '/static/foodstim60/roastedpotatoes.jpg', 'key': 'i', 'origWidth': 409, 'origHeight': 410, 'width': 409, 'height': 410, 'widthPercent': 0.45, 'rescaleHeight': False, 'trialN': 84, 'loaded': True, 'loadedTime': 2376.5, 'positionName': 'RIGHT', 'positionCoords': [798.72, 227], 'bid': 7.390000000000001}]",120651.39999999851,1669839667388,granola w milk,roastedpotatoes,6.640000000000001,7.390000000000001,0.75,roastedpotatoes,924.7999999970198,925,925.1000000014901,True,i,122093.79999999702,1442.3999999985099,1669839668830,1442,HRV,HRV_0235,2022-11-30 20:23:22
85,"[{'imgObject': {}, 'id': 'roastedpotatoes', 'src': '/static/foodstim60/roastedpotatoes.jpg', 'key': 'u', 'origWidth': 409, 'origHeight': 410, 'width': 409, 'height': 410, 'widthPercent': 0.45, 'rescaleHeight': False, 'trialN': 85, 'loaded': True, 'loadedTime': 2375.2999999970198, 'positionName': 'LEFT', 'positionCoords': [328.28, 227], 'bid': 7.390000000000001}, {'imgObject': {}, 'id': 'seaweed', 'src': '/static/foodstim60/seaweed.jpg', 'key': 'i', 'origWidth': 410, 'origHeight': 410, 'width': 410, 'height': 410, 'widthPercent': 0.45, 'rescaleHeight': False, 'trialN': 85, 'loaded': True, 'loadedTime': 2078, 'positionName': 'RIGHT', 'positionCoords': [798.72, 227], 'bid': 0.72}]",122094.0,1669839668830,roastedpotatoes,seaweed,7.390000000000001,0.72,-6.670000000000001,roastedpotatoes,780.8999999985099,782,781.3999999985099,True,u,123386.89999999851,1292.8999999985099,1669839670123,1293,HRV,HRV_0235,2022-11-30 20:23:22
86,"[{'imgObject': {}, 'id': 'avocado', 'src': '/static/foodstim60/avocado.jpg', 'key': 'u', 'origWidth': 409, 'origHeight': 409, 'width': 409, 'height': 409, 'widthPercent': 0.45, 'rescaleHeight': False, 'trialN': 86, 'loaded': True, 'loadedTime': 2343.6999999955297, 'positionName': 'LEFT', 'positionCoords': [328.28, 227.5], 'bid': 8.43}, {'imgObject': {}, 'id': 'raspberries', 'src': '/static/foodstim60/raspberries.jpg', 'key': 'i', 'origWidth': 411, 'origHeight': 411, 'width': 411, 'height': 411, 'widthPercent': 0.45, 'rescaleHeight': False, 'trialN': 86, 'loaded': True, 'loadedTime': 2285.1999999955297, 'positionName': 'RIGHT', 'positionCoords': [798.72, 226.5], 'bid': 8.3}]",123387.10000000149,1669839670124,avocado,raspberries,8.43,8.3,-0.129999999999999,avocado,865.6999999955297,866,866.0999999940395,True,u,124766.19999999553,1379.0999999940395,1669839671503,1379,HRV,HRV_0235,2022-11-30 20:23:22
87,"[{'imgObject': {}, 'id': 'strawberries', 'src': '/static/foodstim60/strawberries.jpg', 'key': 'u', 'origWidth': 410, 'origHeight': 410, 'width': 410, 'height': 410, 'widthPercent': 0.45, 'rescaleHeight': False, 'trialN': 87, 'loaded': True, 'loadedTime': 2388.5, 'positionName': 'LEFT', 'positionCoords': [327.28, 227], 'bid': 6.58}, {'imgObject': {}, 'id': 'salad w chicken', 'src': '/static/foodstim60/salad w chicken.jpg', 'key': 'i', 'origWidth': 411, 'origHeight': 411, 'width': 411, 'height': 411, 'widthPercent': 0.45, 'rescaleHeight': False, 'trialN': 87, 'loaded': True, 'loadedTime': 2086.89999999851, 'positionName': 'RIGHT', 'positionCoords': [798.72, 226.5], 'bid': 7.65}]",124766.39999999851,1669839671503,strawberries,salad w chicken,6.58,7.65,1.0700000000000003,salad w chicken,924.7999999970198,925,925.0,True,i,126200.19999999553,1433.7999999970198,1669839672937,1434,HRV,HRV_0235,2022-11-30 20:23:22
88,"[{'imgObject': {}, 'id': 'cherries', 'src': '/static/foodstim60/cherries.jpg', 'key': 'u', 'origWidth': 410, 'origHeight': 411, 'width': 410, 'height': 411, 'widthPercent': 0.45, 'rescaleHeight': False, 'trialN': 88, 'loaded': True, 'loadedTime': 2386.6999999955297, 'positionName': 'LEFT', 'positionCoords': [327.28, 226.5], 'bid': 6.88}, {'imgObject': {}, 'id': 'chicken nuggets2', 'src': '/static/foodstim60/chicken nuggets2.jpg', 'key': 'i', 'origWidth': 410, 'origHeight': 409, 'width': 410, 'height': 409, 'widthPercent': 0.45, 'rescaleHeight': False, 'trialN': 88, 'loaded': True, 'loadedTime': 2155.2999999970198, 'positionName': 'RIGHT', 'positionCoords': [798.72, 227.5], 'bid': 7.81}]",126200.29999999702,1669839672937,cherries,chicken nuggets2,6.88,7.81,0.9299999999999997,chicken nuggets2,791.6000000014901,792,792.0,True,i,127499.69999999553,1299.3999999985099,1669839674236,1299,HRV,HRV_0235,2022-11-30 20:23:22
89,"[{'imgObject': {}, 'id': 'sweetpotato', 'src': '/static/foodstim60/sweetpotato.jpg', 'key': 'u', 'origWidth': 410, 'origHeight': 410, 'width': 410, 'height': 410, 'widthPercent': 0.45, 'rescaleHeight': False, 'trialN': 89, 'loaded': True, 'loadedTime': 2140.1999999955297, 'positionName': 'LEFT', 'positionCoords': [327.28, 227], 'bid': 8.76}, {'imgObject': {}, 'id': 'kiwi', 'src': '/static/foodstim60/kiwi.jpg', 'key': 'i', 'origWidth': 410, 'origHeight': 410, 'width': 410, 'height': 410, 'widthPercent': 0.45, 'rescaleHeight': False, 'trialN': 89, 'loaded': True, 'loadedTime': 2300.5, 'positionName': 'RIGHT', 'positionCoords': [798.72, 227], 'bid': 8.9}]",127499.79999999702,1669839674236,sweetpotato,kiwi,8.76,8.9,0.14000000000000057,sweetpotato,1127.3000000044703,1128,1127.7000000029802,True,u,129148.0,1648.2000000029802,1669839675884,1648,HRV,HRV_0235,2022-11-30 20:23:22
90,"[{'imgObject': {}, 'id': 'avocado', 'src': '/static/foodstim60/avocado.jpg', 'key': 'u', 'origWidth': 409, 'origHeight': 409, 'width': 409, 'height': 409, 'widthPercent': 0.45, 'rescaleHeight': False, 'trialN': 90, 'loaded': True, 'loadedTime': 2343.7999999970198, 'positionName': 'LEFT', 'positionCoords': [328.28, 227.5], 'bid': 8.43}, {'imgObject': {}, 'id': 'cocktailshrimp', 'src': '/static/foodstim60/cocktailshrimp.jpg', 'key': 'i', 'origWidth': 410, 'origHeight': 410, 'width': 410, 'height': 410, 'widthPercent': 0.45, 'rescaleHeight': False, 'trialN': 90, 'loaded': True, 'loadedTime': 2345.6999999955297, 'positionName': 'RIGHT', 'positionCoords': [798.72, 227], 'bid': 9.7}]",132115.79999999702,1669839678852,avocado,cocktailshrimp,8.43,9.7,1.2699999999999996,cocktailshrimp,1280.0,1281,1280.3999999985099,True,i,133913.8999999985,1798.1000000014901,1669839680650,1798,HRV,HRV_0235,2022-11-30 20:23:22
91,"[{'imgObject': {}, 'id': 'raisin bran w milk', 'src': '/static/foodstim60/raisin bran w milk.jpg', 'key': 'u', 'origWidth': 411, 'origHeight': 411, 'width': 411, 'height': 411, 'widthPercent': 0.45, 'rescaleHeight': False, 'trialN': 91, 'loaded': True, 'loadedTime': 2360.60000000149, 'positionName': 'LEFT', 'positionCoords': [326.28, 226.5], 'bid': 8.370000000000001}, {'imgObject': {}, 'id': 'mac & cheese', 'src': '/static/foodstim60/mac & cheese.jpg', 'key': 'i', 'origWidth': 410, 'origHeight': 410, 'width': 410, 'height': 410, 'widthPercent': 0.45, 'rescaleHeight': False, 'trialN': 91, 'loaded': True, 'loadedTime': 2114.39999999851, 'positionName': 'RIGHT', 'positionCoords': [798.72, 227], 'bid': 8.05}]",133914.1000000015,1669839680650,raisin bran w milk,mac & cheese,8.370000000000001,8.05,-0.3200000000000003,mac & cheese,1011.0999999940395,1012,1011.5999999940395,True,i,135431.5,1517.3999999985099,1669839682168,1518,HRV,HRV_0235,2022-11-30 20:23:22
92,"[{'imgObject': {}, 'id': 'burger', 'src': '/static/foodstim60/burger.jpg', 'key': 'u', 'origWidth': 409, 'origHeight': 409, 'width': 409, 'height': 409, 'widthPercent': 0.45, 'rescaleHeight': False, 'trialN': 92, 'loaded': True, 'loadedTime': 2237, 'positionName': 'LEFT', 'positionCoords': [328.28, 227.5], 'bid': 6.01}, {'imgObject': {}, 'id': 'Tribe humus pita', 'src': '/static/foodstim60/Tribe humus pita.jpg', 'key': 'i', 'origWidth': 411, 'origHeight': 411, 'width': 411, 'height': 411, 'widthPercent': 0.45, 'rescaleHeight': False, 'trialN': 92, 'loaded': True, 'loadedTime': 2268.6999999955297, 'positionName': 'RIGHT', 'positionCoords': [798.72, 226.5], 'bid': 5.11}]",135431.79999999702,1669839682168,burger,Tribe humus pita,6.01,5.11,-0.8999999999999995,burger,1095.3999999985099,1096,1095.8000000044703,True,u,137033.19999999553,1601.3999999985099,1669839683770,1602,HRV,HRV_0235,2022-11-30 20:23:22
93,"[{'imgObject': {}, 'id': 'Tribe humus pita', 'src': '/static/foodstim60/Tribe humus pita.jpg', 'key': 'u', 'origWidth': 411, 'origHeight': 411, 'width': 411, 'height': 411, 'widthPercent': 0.45, 'rescaleHeight': False, 'trialN': 93, 'loaded': True, 'loadedTime': 2270.60000000149, 'positionName': 'LEFT', 'positionCoords': [326.28, 226.5], 'bid': 5.11}, {'imgObject': {}, 'id': 'salmon', 'src': '/static/foodstim60/salmon.jpg', 'key': 'i', 'origWidth': 410, 'origHeight': 409, 'width': 410, 'height': 409, 'widthPercent': 0.45, 'rescaleHeight': False, 'trialN': 93, 'loaded': True, 'loadedTime': 2267.7999999970198, 'positionName': 'RIGHT', 'positionCoords': [798.72, 227.5], 'bid': 7.29}]",137033.5,1669839683770,Tribe humus pita,salmon,5.11,7.29,2.1799999999999997,salmon,687.6000000014901,688,688.0,True,i,138223.0,1189.5,1669839684959,1189,HRV,HRV_0235,2022-11-30 20:23:22
94,"[{'imgObject': {}, 'id': 'corn cob', 'src': '/static/foodstim60/corn cob.jpg', 'key': 'u', 'origWidth': 411, 'origHeight': 411, 'width': 411, 'height': 411, 'widthPercent': 0.45, 'rescaleHeight': False, 'trialN': 94, 'loaded': True, 'loadedTime': 2097.7999999970198, 'positionName': 'LEFT', 'positionCoords': [326.28, 226.5], 'bid': 6.44}, {'imgObject': {}, 'id': 'burger', 'src': '/static/foodstim60/burger.jpg', 'key': 'i', 'origWidth': 409, 'origHeight': 409, 'width': 409, 'height': 409, 'widthPercent': 0.45, 'rescaleHeight': False, 'trialN': 94, 'loaded': True, 'loadedTime': 2235.7999999970198, 'positionName': 'RIGHT', 'positionCoords': [798.72, 227.5], 'bid': 6.01}]",138223.19999999553,1669839684960,corn cob,burger,6.44,6.01,-0.4300000000000006,burger,712.2000000029802,712,712.6000000014901,True,i,139445.1000000015,1221.9000000059605,1669839686182,1222,HRV,HRV_0235,2022-11-30 20:23:22
95,"[{'imgObject': {}, 'id': 'cheerios', 'src': '/static/foodstim60/cheerios.jpg', 'key': 'u', 'origWidth': 409, 'origHeight': 410, 'width': 409, 'height': 410, 'widthPercent': 0.45, 'rescaleHeight': False, 'trialN': 95, 'loaded': True, 'loadedTime': 2085.39999999851, 'positionName': 'LEFT', 'positionCoords': [328.28, 227], 'bid': 2.08}, {'imgObject': {}, 'id': 'shreddedwheatwithmilk', 'src': '/static/foodstim60/shreddedwheatwithmilk.jpg', 'key': 'i', 'origWidth': 410, 'origHeight': 410, 'width': 410, 'height': 410, 'widthPercent': 0.45, 'rescaleHeight': False, 'trialN': 95, 'loaded': True, 'loadedTime': 2357.89999999851, 'positionName': 'RIGHT', 'positionCoords': [798.72, 227], 'bid': 3.78}]",139445.29999999702,1669839686182,cheerios,shreddedwheatwithmilk,2.08,3.78,1.6999999999999997,shreddedwheatwithmilk,962.8999999985099,963,963.3000000044703,True,i,140915.5,1470.2000000029802,1669839687652,1470,HRV,HRV_0235,2022-11-30 20:23:22
96,"[{'imgObject': {}, 'id': 'hashbrowns', 'src': '/static/foodstim60/hashbrowns.jpg', 'key': 'u', 'origWidth': 411, 'origHeight': 410, 'width': 411, 'height': 410, 'widthPercent': 0.45, 'rescaleHeight': False, 'trialN': 96, 'loaded': True, 'loadedTime': 2389.89999999851, 'positionName': 'LEFT', 'positionCoords': [326.28, 227], 'bid': 2.65}, {'imgObject': {}, 'id': 'froot loops w milk', 'src': '/static/foodstim60/froot loops w milk.jpg', 'key': 'i', 'origWidth': 410, 'origHeight': 410, 'width': 410, 'height': 410, 'widthPercent': 0.45, 'rescaleHeight': False, 'trialN': 96, 'loaded': True, 'loadedTime': 2095.39999999851, 'positionName': 'RIGHT', 'positionCoords': [798.72, 227], 'bid': 3.0700000000000003}]",140915.79999999702,1669839687652,hashbrowns,froot loops w milk,2.65,3.0700000000000003,0.4200000000000004,hashbrowns,1004.3000000044703,1005,1004.6000000014901,True,u,142422.6000000015,1506.8000000044703,1669839689159,1507,HRV,HRV_0235,2022-11-30 20:23:22
97,"[{'imgObject': {}, 'id': 'cheerios', 'src': '/static/foodstim60/cheerios.jpg', 'key': 'u', 'origWidth': 409, 'origHeight': 410, 'width': 409, 'height': 410, 'widthPercent': 0.45, 'rescaleHeight': False, 'trialN': 97, 'loaded': True, 'loadedTime': 2085.2999999970198, 'positionName': 'LEFT', 'positionCoords': [328.28, 227], 'bid': 2.08}, {'imgObject': {}, 'id': 'eggsalad', 'src': '/static/foodstim60/eggsalad.jpg', 'key': 'i', 'origWidth': 410, 'origHeight': 409, 'width': 410, 'height': 409, 'widthPercent': 0.45, 'rescaleHeight': False, 'trialN': 97, 'loaded': True, 'loadedTime': 2194.7999999970198, 'positionName': 'RIGHT', 'positionCoords': [798.72, 227.5], 'bid': 5.96}]",142422.69999999553,1669839689159,cheerios,eggsalad,2.08,5.96,3.88,eggsalad,929.7000000029802,930,930.0,True,i,143861.0,1438.3000000044703,1669839690597,1438,HRV,HRV_0235,2022-11-30 20:23:22
98,"[{'imgObject': {}, 'id': 'eggsalad', 'src': '/static/foodstim60/eggsalad.jpg', 'key': 'u', 'origWidth': 410, 'origHeight': 409, 'width': 410, 'height': 409, 'widthPercent': 0.45, 'rescaleHeight': False, 'trialN': 98, 'loaded': True, 'loadedTime': 2193.89999999851, 'positionName': 'LEFT', 'positionCoords': [327.28, 227.5], 'bid': 5.96}, {'imgObject': {}, 'id': 'mashed potato', 'src': '/static/foodstim60/mashed potato.jpg', 'key': 'i', 'origWidth': 409, 'origHeight': 409, 'width': 409, 'height': 409, 'widthPercent': 0.45, 'rescaleHeight': False, 'trialN': 98, 'loaded': True, 'loadedTime': 2088.1999999955297, 'positionName': 'RIGHT', 'positionCoords': [798.72, 227.5], 'bid': 4.97}]",143861.19999999553,1669839690598,eggsalad,mashed potato,5.96,4.97,-0.9900000000000002,eggsalad,961.8000000044703,962,962.2000000029802,True,u,145340.3999999985,1479.2000000029802,1669839692077,1479,HRV,HRV_0235,2022-11-30 20:23:22
99,"[{'imgObject': {}, 'id': 'tacos', 'src': '/static/foodstim60/tacos.jpg', 'key': 'u', 'origWidth': 411, 'origHeight': 411, 'width': 411, 'height': 411, 'widthPercent': 0.45, 'rescaleHeight': False, 'trialN': 99, 'loaded': True, 'loadedTime': 2374.7999999970198, 'positionName': 'LEFT', 'positionCoords': [326.28, 226.5], 'bid': 9.58}, {'imgObject': {}, 'id': 'fruitsalad', 'src': '/static/foodstim60/fruitsalad.jpg', 'key': 'i', 'origWidth': 410, 'origHeight': 410, 'width': 410, 'height': 410, 'widthPercent': 0.45, 'rescaleHeight': False, 'trialN': 99, 'loaded': True, 'loadedTime': 2314.10000000149, 'positionName': 'RIGHT', 'positionCoords': [798.72, 227], 'bid': 9.73}]",145340.6000000015,1669839692077,tacos,fruitsalad,9.58,9.73,0.15000000000000036,tacos,639.6999999955297,640,640.1999999955297,True,u,146501.6000000015,1161.0,1669839693238,1161,HRV,HRV_0235,2022-11-30 20:23:22
100,"[{'imgObject': {}, 'id': 'fried eggs', 'src': '/static/foodstim60/fried eggs.jpg', 'key': 'u', 'origWidth': 410, 'origHeight': 410, 'width': 410, 'height': 410, 'widthPercent': 0.45, 'rescaleHeight': False, 'trialN': 100, 'loaded': True, 'loadedTime': 2169.39999999851, 'positionName': 'LEFT', 'positionCoords': [327.28, 227], 'bid': 8.48}, {'imgObject': {}, 'id': 'orange slices', 'src': '/static/foodstim60/orange slices.jpg', 'key': 'i', 'origWidth': 409, 'origHeight': 410, 'width': 409, 'height': 410, 'widthPercent': 0.45, 'rescaleHeight': False, 'trialN': 100, 'loaded': True, 'loadedTime': 2359.39999999851, 'positionName': 'RIGHT', 'positionCoords': [798.72, 227], 'bid': 5.83}]",146501.8999999985,1669839693238,fried eggs,orange slices,8.48,5.83,-2.6500000000000004,orange slices,725.7999999970198,727,726.2999999970198,True,i,147735.3999999985,1233.5,1669839694472,1234,HRV,HRV_0235,2022-11-30 20:23:22
101,"[{'imgObject': {}, 'id': 'yogurt no spoon', 'src': '/static/foodstim60/yogurt no spoon.jpg', 'key': 'u', 'origWidth': 411, 'origHeight': 410, 'width': 411, 'height': 410, 'widthPercent': 0.45, 'rescaleHeight': False, 'trialN': 101, 'loaded': True, 'loadedTime': 2075.1999999955297, 'positionName': 'LEFT', 'positionCoords': [326.28, 227], 'bid': 7.36}, {'imgObject': {}, 'id': 'roastedpotatoes', 'src': '/static/foodstim60/roastedpotatoes.jpg', 'key': 'i', 'origWidth': 409, 'origHeight': 410, 'width': 409, 'height': 410, 'widthPercent': 0.45, 'rescaleHeight': False, 'trialN': 101, 'loaded': True, 'loadedTime': 2376.2999999970198, 'positionName': 'RIGHT', 'positionCoords': [798.72, 227], 'bid': 7.390000000000001}]",147735.69999999553,1669839694472,yogurt no spoon,roastedpotatoes,7.36,7.390000000000001,0.03000000000000025,roastedpotatoes,712.5,713,713.0,True,i,148961.6000000015,1225.9000000059605,1669839695698,1226,HRV,HRV_0235,2022-11-30 20:23:22
102,"[{'imgObject': {}, 'id': 'kiwi', 'src': '/static/foodstim60/kiwi.jpg', 'key': 'u', 'origWidth': 410, 'origHeight': 410, 'width': 410, 'height': 410, 'widthPercent': 0.45, 'rescaleHeight': False, 'trialN': 102, 'loaded': True, 'loadedTime': 2300.39999999851, 'positionName': 'LEFT', 'positionCoords': [327.28, 227], 'bid': 8.9}, {'imgObject': {}, 'id': 'cantaloupe', 'src': '/static/foodstim60/cantaloupe.jpg', 'key': 'i', 'origWidth': 409, 'origHeight': 409, 'width': 409, 'height': 409, 'widthPercent': 0.45, 'rescaleHeight': False, 'trialN': 102, 'loaded': True, 'loadedTime': 2101.39999999851, 'positionName': 'RIGHT', 'positionCoords': [798.72, 227.5], 'bid': 9.4}]",148961.79999999702,1669839695698,kiwi,cantaloupe,8.9,9.4,0.5,kiwi,1012.8999999985099,1014,1013.3000000044703,True,u,150479.29999999702,1517.5,1669839697216,1518,HRV,HRV_0235,2022-11-30 20:23:22
103,"[{'imgObject': {}, 'id': 'yogurt no spoon', 'src': '/static/foodstim60/yogurt no spoon.jpg', 'key': 'u', 'origWidth': 411, 'origHeight': 410, 'width': 411, 'height': 410, 'widthPercent': 0.45, 'rescaleHeight': False, 'trialN': 103, 'loaded': True, 'loadedTime': 2075.5, 'positionName': 'LEFT', 'positionCoords': [326.28, 227], 'bid': 7.36}, {'imgObject': {}, 'id': 'raspberries', 'src': '/static/foodstim60/raspberries.jpg', 'key': 'i', 'origWidth': 411, 'origHeight': 411, 'width': 411, 'height': 411, 'widthPercent': 0.45, 'rescaleHeight': False, 'trialN': 103, 'loaded': True, 'loadedTime': 2284.60000000149, 'positionName': 'RIGHT', 'positionCoords': [798.72, 226.5], 'bid': 8.3}]",150479.5,1669839697216,yogurt no spoon,raspberries,7.36,8.3,0.9400000000000004,raspberries,735.3999999985099,736,735.8999999985099,True,i,151732.1000000015,1252.6000000014901,1669839698469,1253,HRV,HRV_0235,2022-11-30 20:23:22
104,"[{'imgObject': {}, 'id': 'salmon', 'src': '/static/foodstim60/salmon.jpg', 'key': 'u', 'origWidth': 410, 'origHeight': 409, 'width': 410, 'height': 409, 'widthPercent': 0.45, 'rescaleHeight': False, 'trialN': 104, 'loaded': True, 'loadedTime': 2268.2999999970198, 'positionName': 'LEFT', 'positionCoords': [327.28, 227.5], 'bid': 7.29}, {'imgObject': {}, 'id': 'roastedpotatoes', 'src': '/static/foodstim60/roastedpotatoes.jpg', 'key': 'i', 'origWidth': 409, 'origHeight': 410, 'width': 409, 'height': 410, 'widthPercent': 0.45, 'rescaleHeight': False, 'trialN': 104, 'loaded': True, 'loadedTime': 2376.39999999851, 'positionName': 'RIGHT', 'positionCoords': [798.72, 227], 'bid': 7.390000000000001}]",151732.3999999985,1669839698469,salmon,roastedpotatoes,7.29,7.390000000000001,0.10000000000000053,salmon,879.5,880,879.8999999985099,True,u,153123.79999999702,1391.3999999985099,1669839699860,1391,HRV,HRV_0235,2022-11-30 20:23:22
105,"[{'imgObject': {}, 'id': 'mango', 'src': '/static/foodstim60/mango.jpg', 'key': 'u', 'origWidth': 411, 'origHeight': 411, 'width': 411, 'height': 411, 'widthPercent': 0.45, 'rescaleHeight': False, 'trialN': 105, 'loaded': True, 'loadedTime': 2208.60000000149, 'positionName': 'LEFT', 'positionCoords': [326.28, 226.5], 'bid': 6.54}, {'imgObject': {}, 'id': 'bagel and cc', 'src': '/static/foodstim60/bagel and cc.jpg', 'key': 'i', 'origWidth': 410, 'origHeight': 410, 'width': 410, 'height': 410, 'widthPercent': 0.45, 'rescaleHeight': False, 'trialN': 105, 'loaded': True, 'loadedTime': 2328.2999999970198, 'positionName': 'RIGHT', 'positionCoords': [798.72, 227], 'bid': 5.65}]",153124.0,1669839699860,mango,bagel and cc,6.54,5.65,-0.8899999999999997,bagel and cc,625.3999999985099,625,625.7999999970198,True,i,154264.19999999553,1140.1999999955297,1669839700999,1139,HRV,HRV_0235,2022-11-30 20:23:22
106,"[{'imgObject': {}, 'id': 'chickenfingers', 'src': '/static/foodstim60/chickenfingers.jpg', 'key': 'u', 'origWidth': 410, 'origHeight': 410, 'width': 410, 'height': 410, 'widthPercent': 0.45, 'rescaleHeight': False, 'trialN': 106, 'loaded': True, 'loadedTime': 2312.5, 'positionName': 'LEFT', 'positionCoords': [327.28, 227], 'bid': 9.81}, {'imgObject': {}, 'id': 'cocktailshrimp', 'src': '/static/foodstim60/cocktailshrimp.jpg', 'key': 'i', 'origWidth': 410, 'origHeight': 410, 'width': 410, 'height': 410, 'widthPercent': 0.45, 'rescaleHeight': False, 'trialN': 106, 'loaded': True, 'loadedTime': 2345.6999999955297, 'positionName': 'RIGHT', 'positionCoords': [798.72, 227], 'bid': 9.7}]",154264.29999999702,1669839701000,chickenfingers,cocktailshrimp,9.81,9.7,-0.11000000000000121,cocktailshrimp,609.2000000029802,609,609.6000000014901,True,i,155388.1000000015,1123.8000000044703,1669839702123,1123,HRV,HRV_0235,2022-11-30 20:23:22
107,"[{'imgObject': {}, 'id': 'turkey sandwich', 'src': '/static/foodstim60/turkey sandwich.jpg', 'key': 'u', 'origWidth': 409, 'origHeight': 409, 'width': 409, 'height': 409, 'widthPercent': 0.45, 'rescaleHeight': False, 'trialN': 107, 'loaded': True, 'loadedTime': 2310.89999999851, 'positionName': 'LEFT', 'positionCoords': [328.28, 227.5], 'bid': 8.3}, {'imgObject': {}, 'id': 'lox', 'src': '/static/foodstim60/lox.jpg', 'key': 'i', 'origWidth': 410, 'origHeight': 411, 'width': 410, 'height': 411, 'widthPercent': 0.45, 'rescaleHeight': False, 'trialN': 107, 'loaded': True, 'loadedTime': 2152.6999999955297, 'positionName': 'RIGHT', 'positionCoords': [798.72, 226.5], 'bid': 7.96}]",155388.29999999702,1669839702124,turkey sandwich,lox,8.3,7.96,-0.34000000000000075,lox,1082.8999999985099,1083,1083.3999999985099,True,i,156975.1000000015,1586.8000000044703,1669839703710,1586,HRV,HRV_0235,2022-11-30 20:23:22
108,"[{'imgObject': {}, 'id': 'luckycharms', 'src': '/static/foodstim60/luckycharms.jpg', 'key': 'u', 'origWidth': 410, 'origHeight': 409, 'width': 410, 'height': 409, 'widthPercent': 0.45, 'rescaleHeight': False, 'trialN': 108, 'loaded': True, 'loadedTime': 2247.60000000149, 'positionName': 'LEFT', 'positionCoords': [327.28, 227.5], 'bid': 3.86}, {'imgObject': {}, 'id': 'edamame', 'src': '/static/foodstim60/edamame.jpg', 'key': 'i', 'origWidth': 409, 'origHeight': 410, 'width': 409, 'height': 410, 'widthPercent': 0.45, 'rescaleHeight': False, 'trialN': 108, 'loaded': True, 'loadedTime': 2194.89999999851, 'positionName': 'RIGHT', 'positionCoords': [798.72, 227], 'bid': 3.63}]",156975.29999999702,1669839703711,luckycharms,edamame,3.86,3.63,-0.22999999999999998,luckycharms,933.0,933,933.3000000044703,True,u,158419.5,1444.2000000029802,1669839705155,1444,HRV,HRV_0235,2022-11-30 20:23:22
