success,trial_type,trial_index,time_elapsed,internal_node_id,missTrial,missTrialMsg,Block,TrialNumber,TrialTime,trialTimeDiff,FPS_avg,FPS_med,FPS_mode,TrialDur,winResizeTime,rt,block,button_pressed,MotCoh,MotDir,ColCoh,Color,ChoiceKey,Choice,Accuracy,RT,nFrames,FPS,PPD,onsetDelay,fullScreenExitTime,canvCenter,TrialType,Score,BlockTrial,stimulus,button_labels,exp,subjectId,date
True,fullscreen,0,5955,0.0-0.0,True,undefinedblurEvent ,0.0,0.0,,,,,,,,,,,,,,,,,,,,,,,,,,,,,,HRV,HRV_0099,2022-11-30 18:41:33
,wl-check-fps,1,10968,0.0-1.0,,,0.0,1.0,"[6710.1, 6726.4, 6743.1, 6760.1, 6777.4, 6793.1, 6809.7, 6826.6, 6843.4, 6859.8, 6876.4, 6893.1, 6909.9, 6926.3, 6944.3, 6959.7, 6976.3, 6993, 7009.7, 7026.3, 7043.1, 7060.1, 7076.5, 7093.1, 7109.8, 7126.5, 7143.5, 7160.1, 7176.7, 7193.3, 7210.1, 7226.5, 7243, 7259.8, 7276.4, 7293.2, 7309.8, 7326.4, 7343.2, 7359.9, 7376.4, 7393.1, 7409.6, 7426.3, 7443.1, 7459.6, 7476.4, 7492.9, 7509.5, 7526.3, 7542.9, 7559.6, 7576.3, 7593.1, 7609.7, 7626.5, 7643.1, 7659.8, 7676.7, 7693.9, 7709.9, 7726.5, 7743.1, 7759.6, 7776.4, 7793.3, 7809.9, 7826.7, 7843.3, 7859.8, 7876.4, 7893.1, 7910.1, 7926.6, 7943.1, 7959.6, 7976.7, 7993, 8009.8, 8026.4, 8043.3, 8059.8, 8076.4, 8093, 8109.9, 8126.4, 8143.1, 8159.8, 8176.5, 8193, 8210.2, 8226.7, 8243, 8259.8, 8276.6, 8293, 8309.9, 8326.4, 8343.3, 8360.1, 8376.6, 8393.4, 8409.8, 8426.4, 8442.9, 8459.6, 8476.5, 8492.9, 8509.5, 8526.5, 8543.1, 8559.8, 8576.5, 8593.3, 8609.9, 8626.5, 8643.2, 8659.8, 8676.5, 8693.1, 8709.6, 8726.5, 8743.2, 8759.9, 8776.5, 8793.1, 8809.8, 8826.5, 8843.3, 8859.8, 8876.5, 8893.1, 8909.8, 8926.5, 8943.1, 8959.5, 8976.9, 8993.3, 9009.8, 9026.3, 9043.2, 9064.4, 9076.3, 9093.1, 9109.6, 9126.4, 9142.9, 9159.5, 9176.5, 9193.1, 9209.8, 9226.3, 9243.2, 9259.8, 9276.4, 9293, 9309.9, 9326.4, 9343.1, 9359.6, 9376.6, 9392.9, 9409.7, 9426.5, 9443.1, 9459.8, 9476.3, 9493.1, 9509.9, 9526.5, 9542.9, 9559.9, 9576.4, 9593.1, 9609.8, 9626.4, 9643.2, 9659.8, 9676.5, 9693, 9709.9, 9726.6, 9743.1, 9759.6, 9776.6, 9793.2, 9810, 9826.1, 9843.1, 9859.8, 9876.5, 9893, 9909.7, 9926.3, 9943.1, 9959.9, 9976.2, 9993.1, 10009.6, 10026.5, 10043.1, 10059.8, 10076.4, 10093.1, 10109.9, 10126.5, 10143.1, 10159.9, 10176.4, 10193.1, 10209.8, 10226.5, 10243, 10259.8, 10276.5, 10293.2, 10309.9, 10326.4, 10343.2, 10359.8, 10376.3, 10393.2, 10409.8, 10426.5, 10443.1, 10459.9, 10476.4, 10493.2, 10510, 10526.4, 10543, 10559.8, 10576.5, 10593.2, 10609.6, 10626.3, 10643.2, 10660, 10676.5, 10692.9, 10709.9, 10726.5, 10743.2, 10759.7, 10776.5, 10793.1, 10809.8, 10826.5, 10842.9, 10859.6, 10876.5, 10893.1, 10909.8, 10926.4, 10943.2, 10959.8, 10976.5, 10993, 11009.9, 11026.5, 11043.1, 11059.9, 11076.5, 11093, 11109.9, 11126.4, 11143.2, 11159.8, 11176.6, 11193.3, 11209.9, 11226.5, 11243.2, 11259.8, 11276.3, 11293.1, 11310, 11326.5, 11343.4, 11359.5, 11376.4, 11393.2, 11409.8, 11426.4, 11443.2, 11459.5, 11476.3, 11493, 11509.9, 11526.4, 11543.2, 11559.9, 11576.2, 11592.9, 11609.6, 11626.2, 11642.9, 11659.5, 11676.3, 11693]","[10.7, 16.3, 16.7, 17, 17.3, 15.7, 16.6, 16.9, 16.8, 16.4, 16.6, 16.7, 16.8, 16.4, 18, 15.4, 16.6, 16.7, 16.7, 16.6, 16.8, 17, 16.4, 16.6, 16.7, 16.7, 17, 16.6, 16.6, 16.6, 16.8, 16.4, 16.5, 16.8, 16.6, 16.8, 16.6, 16.6, 16.8, 16.7, 16.5, 16.7, 16.5, 16.7, 16.8, 16.5, 16.8, 16.5, 16.6, 16.8, 16.6, 16.7, 16.7, 16.8, 16.6, 16.8, 16.6, 16.7, 16.9, 17.2, 16, 16.6, 16.6, 16.5, 16.8, 16.9, 16.6, 16.8, 16.6, 16.5, 16.6, 16.7, 17, 16.5, 16.5, 16.5, 17.1, 16.3, 16.8, 16.6, 16.9, 16.5, 16.6, 16.6, 16.9, 16.5, 16.7, 16.7, 16.7, 16.5, 17.2, 16.5, 16.3, 16.8, 16.8, 16.4, 16.9, 16.5, 16.9, 16.8, 16.5, 16.8, 16.4, 16.6, 16.5, 16.7, 16.9, 16.4, 16.6, 17, 16.6, 16.7, 16.7, 16.8, 16.6, 16.6, 16.7, 16.6, 16.7, 16.6, 16.5, 16.9, 16.7, 16.7, 16.6, 16.6, 16.7, 16.7, 16.8, 16.5, 16.7, 16.6, 16.7, 16.7, 16.6, 16.4, 17.4, 16.4, 16.5, 16.5, 16.9, 21.2, 11.9, 16.8, 16.5, 16.8, 16.5, 16.6, 17, 16.6, 16.7, 16.5, 16.9, 16.6, 16.6, 16.6, 16.9, 16.5, 16.7, 16.5, 17, 16.3, 16.8, 16.8, 16.6, 16.7, 16.5, 16.8, 16.8, 16.6, 16.4, 17, 16.5, 16.7, 16.7, 16.6, 16.8, 16.6, 16.7, 16.5, 16.9, 16.7, 16.5, 16.5, 17, 16.6, 16.8, 16.1, 17, 16.7, 16.7, 16.5, 16.7, 16.6, 16.8, 16.8, 16.3, 16.9, 16.5, 16.9, 16.6, 16.7, 16.6, 16.7, 16.8, 16.6, 16.6, 16.8, 16.5, 16.7, 16.7, 16.7, 16.5, 16.8, 16.7, 16.7, 16.7, 16.5, 16.8, 16.6, 16.5, 16.9, 16.6, 16.7, 16.6, 16.8, 16.5, 16.8, 16.8, 16.4, 16.6, 16.8, 16.7, 16.7, 16.4, 16.7, 16.9, 16.8, 16.5, 16.4, 17, 16.6, 16.7, 16.5, 16.8, 16.6, 16.7, 16.7, 16.4, 16.7, 16.9, 16.6, 16.7, 16.6, 16.8, 16.6, 16.7, 16.5, 16.9, 16.6, 16.6, 16.8, 16.6, 16.5, 16.9, 16.5, 16.8, 16.6, 16.8, 16.7, 16.6, 16.6, 16.7, 16.6, 16.5, 16.8, 16.9, 16.5, 16.9, 16.1, 16.9, 16.8, 16.6, 16.6, 16.8, 16.3, 16.8, 16.7, 16.9, 16.5, 16.8, 16.7, 16.3, 16.7, 16.7, 16.6, 16.7, 16.6, 16.8, 16.7]",60.0,60.0,60.0,5010.6,[],,,,,,,,,,,,,,,,,,,,,,,HRV,HRV_0099,2022-11-30 18:41:33
,wl-html-keyboard-response,2,20968,0.0-2.0-0.0,,,0.0,2.0,,,,,,,,7958.0999999940395,0.0,0,,,,,,,,,,,,,,,,,,,,HRV,HRV_0099,2022-11-30 18:41:33
,wl-rdm,3,27852,0.0-3.0-0.0,False,,0.0,3.0,,,,,,,[],,,,0.0,0.0,87.9,0.0,u,0.0,True,1299.5000000149012,78.0,60.0,40.0,3000.0,[],"[940.5, 444]",ColorTask_Demo,,,,,HRV,HRV_0099,2022-11-30 18:41:33
,wl-rdm,4,32651,0.0-3.0-1.0,False,,0.0,4.0,,,,,,,[],,,,0.0,0.0,87.9,1.0,i,1.0,True,731.9000000208616,44.0,60.0,40.0,2000.0,[],"[940.5, 444]",ColorTask_Demo,,,,,HRV,HRV_0099,2022-11-30 18:41:33
,wl-html-keyboard-response,5,37096,0.0-3.0-2.0,,,0.0,5.0,,,,,,,,2441.7999999970198,0.0,1,,,,,,,,,,,,,,,,,,,,HRV,HRV_0099,2022-11-30 18:41:33
,wl-html-keyboard-response,6,72332,0.0-4.0-0.0,,,0.0,6.0,,,,,,,,33233.39999999106,0.0,0,,,,,,,,,,,,,,,,,,,,HRV,HRV_0099,2022-11-30 18:41:33
,wl-html-keyboard-response,7,95276,0.0-5.0-0.0,,,0.0,7.0,,,,,,,,20939.30000001192,0.0,0,,,,,,,,,,,,,,,,,,,,HRV,HRV_0099,2022-11-30 18:41:33
,wl-rdm,8,97368,0.0-6.0-0.0,False,,0.0,8.0,,,,,,,[],,,,,,73.6,0.0,u,0.0,True,806.9000000059605,49.0,60.0,40.0,230.8936469977538,[],"[940.5, 444]",ColorTask,1.0,1.0,,,HRV,HRV_0099,2022-11-30 18:41:33
,wl-rdm,9,99268,0.0-6.1-0.1,False,,0.0,9.0,,,,,,,[],,,,,,87.9,1.0,i,1.0,True,607.2999999970198,37.0,60.0,40.0,206.90884460090723,[],"[940.5, 444]",ColorTask,2.0,2.0,,,HRV,HRV_0099,2022-11-30 18:41:33
,wl-rdm,10,101252,0.0-6.2-0.2,False,,0.0,10.0,,,,,,,[],,,,,,87.9,1.0,i,1.0,True,575.0,35.0,60.0,40.0,340.40732718971765,[],"[940.5, 444]",ColorTask,3.0,3.0,,,HRV,HRV_0099,2022-11-30 18:41:33
,wl-rdm,11,103568,0.0-6.3-0.3,False,,0.0,11.0,,,,,,,[],,,,,,62.5,0.0,u,0.0,True,854.2000000029802,52.0,60.0,40.0,380.69821524769134,[],"[940.5, 444]",ColorTask,4.0,4.0,,,HRV,HRV_0099,2022-11-30 18:41:33
,wl-rdm,12,105887,0.0-6.4-0.4,False,,0.0,12.0,,,,,,,[],,,,,,53.2,0.0,u,0.0,True,864.8999999910593,52.0,60.0,40.0,380.23631441952534,[],"[940.5, 444]",ColorTask,5.0,5.0,,,HRV,HRV_0099,2022-11-30 18:41:33
,wl-rdm,13,107952,0.0-6.5-0.5,False,,0.0,13.0,,,,,,,[],,,,,,73.6,1.0,i,1.0,True,670.4000000059605,41.0,60.0,40.0,310.4779675216515,[],"[940.5, 444]",ColorTask,6.0,6.0,,,HRV,HRV_0099,2022-11-30 18:41:33
,wl-rdm,14,109867,0.0-6.6-0.6,False,,0.0,14.0,,,,,,,[],,,,,,87.9,1.0,i,1.0,True,534.9000000059605,33.0,60.0,40.0,311.212262829859,[],"[940.5, 444]",ColorTask,7.0,7.0,,,HRV,HRV_0099,2022-11-30 18:41:33
,wl-rdm,15,111801,0.0-6.7-0.7,False,,0.0,15.0,,,,,,,[],,,,,,87.9,0.0,u,0.0,True,551.3000000119209,34.0,60.0,40.0,289.22794439322263,[],"[940.5, 444]",ColorTask,8.0,8.0,,,HRV,HRV_0099,2022-11-30 18:41:33
,wl-rdm,16,114001,0.0-6.8-0.8,False,,0.0,16.0,,,,,,,[],,,,,,87.9,0.0,u,0.0,True,837.2999999970198,51.0,60.0,40.0,274.9831640570298,[],"[940.5, 444]",ColorTask,9.0,9.0,,,HRV,HRV_0099,2022-11-30 18:41:33
,wl-rdm,17,116351,0.0-6.9-0.9,False,,0.0,17.0,,,,,,,[],,,,,,50.0,0.0,i,1.0,False,1015.2999999970198,61.0,60.0,40.0,267.5386063146167,[],"[940.5, 444]",ColorTask,8.0,10.0,,,HRV,HRV_0099,2022-11-30 18:41:33
,wl-rdm,18,118418,0.0-6.10-0.10,False,,0.0,18.0,,,,,,,[],,,,,,56.4,1.0,u,0.0,False,783.7000000029802,47.0,60.0,40.0,208.1185744305877,[],"[940.5, 444]",ColorTask,7.0,11.0,,,HRV,HRV_0099,2022-11-30 18:41:33
,wl-rdm,19,120734,0.0-6.11-0.11,False,,0.0,19.0,,,,,,,[],,,,,,56.4,1.0,u,0.0,False,918.9000000059605,56.0,60.0,40.0,318.3382156785655,[],"[940.5, 444]",ColorTask,6.0,12.0,,,HRV,HRV_0099,2022-11-30 18:41:33
,wl-rdm,20,122918,0.0-6.12-0.12,False,,0.0,20.0,,,,,,,[],,,,,,87.9,0.0,u,0.0,True,804.6000000089407,49.0,60.0,40.0,311.13729200247394,[],"[940.5, 444]",ColorTask,7.0,13.0,,,HRV,HRV_0099,2022-11-30 18:41:33
,wl-rdm,21,124951,0.0-6.13-0.13,False,,0.0,21.0,,,,,,,[],,,,,,56.4,1.0,i,1.0,True,668.7999999970198,41.0,60.0,40.0,273.05337484765886,[],"[940.5, 444]",ColorTask,8.0,14.0,,,HRV,HRV_0099,2022-11-30 18:41:33
,wl-rdm,22,127668,0.0-6.14-0.14,False,,0.0,22.0,,,,,,,[],,,,,,53.2,1.0,i,1.0,True,1390.0,84.0,60.0,40.0,252.0488869615849,[],"[940.5, 444]",ColorTask,9.0,15.0,,,HRV,HRV_0099,2022-11-30 18:41:33
,wl-rdm,23,131084,0.0-6.15-0.15,False,,0.0,23.0,,,,,,,[],,,,,,56.4,0.0,u,0.0,True,2102.5999999940395,127.0,60.0,40.0,223.33043365361485,[],"[940.5, 444]",ColorTask,10.0,16.0,,,HRV,HRV_0099,2022-11-30 18:41:33
,wl-rdm,24,133534,0.0-6.16-0.16,False,,0.0,24.0,,,,,,,[],,,,,,53.2,0.0,u,0.0,True,1007.0999999940395,61.0,60.0,40.0,355.59761715892535,[],"[940.5, 444]",ColorTask,11.0,17.0,,,HRV,HRV_0099,2022-11-30 18:41:33
,wl-rdm,25,135951,0.0-6.17-0.17,False,,0.0,25.0,,,,,,,[],,,,,,53.2,1.0,i,1.0,True,1148.8999999910593,69.0,60.0,40.0,200.55387532335683,[],"[940.5, 444]",ColorTask,12.0,18.0,,,HRV,HRV_0099,2022-11-30 18:41:33
,wl-rdm,26,138101,0.0-6.18-0.18,False,,0.0,26.0,,,,,,,[],,,,,,73.6,0.0,u,0.0,True,828.7999999970198,50.0,60.0,40.0,238.99902849754616,[],"[940.5, 444]",ColorTask,13.0,19.0,,,HRV,HRV_0099,2022-11-30 18:41:33
,wl-rdm,27,140284,0.0-6.19-0.19,False,,0.0,27.0,,,,,,,[],,,,,,87.9,0.0,u,0.0,True,798.2999999970198,48.0,60.0,40.0,327.52801753725623,[],"[940.5, 444]",ColorTask,14.0,20.0,,,HRV,HRV_0099,2022-11-30 18:41:33
,wl-rdm,28,142484,0.0-6.20-0.20,False,,0.0,28.0,,,,,,,[],,,,,,73.6,1.0,i,1.0,True,781.4000000208616,47.0,60.0,40.0,349.28521823080234,[],"[940.5, 444]",ColorTask,15.0,21.0,,,HRV,HRV_0099,2022-11-30 18:41:33
,wl-rdm,29,145751,0.0-6.21-0.21,False,,0.0,29.0,,,,,,,[],,,,,,53.2,1.0,i,1.0,True,1935.0,117.0,60.0,40.0,245.50136164697915,[],"[940.5, 444]",ColorTask,16.0,22.0,,,HRV,HRV_0099,2022-11-30 18:41:33
,wl-rdm,30,147884,0.0-6.22-0.22,False,,0.0,30.0,,,,,,,[],,,,,,87.9,1.0,i,1.0,True,818.7999999970198,50.0,60.0,40.0,233.4706288573287,[],"[940.5, 444]",ColorTask,17.0,23.0,,,HRV,HRV_0099,2022-11-30 18:41:33
,wl-rdm,31,150118,0.0-6.23-0.23,False,,0.0,31.0,,,,,,,[],,,,,,62.5,0.0,u,0.0,True,932.5999999940395,56.0,60.0,40.0,241.6668401383775,[],"[940.5, 444]",ColorTask,18.0,24.0,,,HRV,HRV_0099,2022-11-30 18:41:33
,wl-rdm,32,152184,0.0-6.24-0.24,False,,0.0,32.0,,,,,,,[],,,,,,73.6,0.0,u,0.0,True,779.4000000059605,47.0,60.0,40.0,203.0057430865851,[],"[940.5, 444]",ColorTask,19.0,25.0,,,HRV,HRV_0099,2022-11-30 18:41:33
,wl-rdm,33,154351,0.0-6.25-0.25,False,,0.0,33.0,,,,,,,[],,,,,,73.6,0.0,u,0.0,True,685.5999999940395,42.0,60.0,40.0,388.5905918126313,[],"[940.5, 444]",ColorTask,20.0,26.0,,,HRV,HRV_0099,2022-11-30 18:41:33
,wl-rdm,34,157784,0.0-6.26-0.26,False,,0.0,34.0,,,,,,,[],,,,,,53.2,0.0,i,1.0,False,2102.5999999940395,127.0,60.0,40.0,260.04286563361677,[],"[940.5, 444]",ColorTask,19.0,27.0,,,HRV,HRV_0099,2022-11-30 18:41:33
,wl-rdm,35,160551,0.0-6.27-0.27,False,,0.0,35.0,,,,,,,[],,,,,,50.0,0.0,i,1.0,False,1444.1000000089407,87.0,60.0,40.0,243.0153595374986,[],"[940.5, 444]",ColorTask,18.0,28.0,,,HRV,HRV_0099,2022-11-30 18:41:33
,wl-rdm,36,162568,0.0-6.28-0.28,False,,0.0,36.0,,,,,,,[],,,,,,87.9,0.0,u,0.0,True,728.2000000178814,44.0,60.0,40.0,213.6673267726888,[],"[940.5, 444]",ColorTask,19.0,29.0,,,HRV,HRV_0099,2022-11-30 18:41:33
,wl-rdm,37,165068,0.0-6.29-0.29,False,,0.0,37.0,,,,,,,[],,,,,,53.2,0.0,u,0.0,True,1081.4000000059605,65.0,60.0,40.0,355.2875252067253,[],"[940.5, 444]",ColorTask,20.0,30.0,,,HRV,HRV_0099,2022-11-30 18:41:33
,wl-rdm,38,167468,0.0-6.30-0.30,False,,0.0,38.0,,,,,,,[],,,,,,62.5,1.0,i,1.0,True,1095.0,66.0,60.0,40.0,240.96196606119972,[],"[940.5, 444]",ColorTask,21.0,31.0,,,HRV,HRV_0099,2022-11-30 18:41:33
,wl-rdm,39,170151,0.0-6.31-0.31,False,,0.0,39.0,,,,,,,[],,,,,,53.2,1.0,i,1.0,True,1207.2000000029802,73.0,60.0,40.0,388.20347830617766,[],"[940.5, 444]",ColorTask,22.0,32.0,,,HRV,HRV_0099,2022-11-30 18:41:33
,wl-rdm,40,172351,0.0-6.32-0.32,False,,0.0,40.0,,,,,,,[],,,,,,62.5,1.0,i,1.0,True,898.7999999970198,54.0,60.0,40.0,242.9196693069751,[],"[940.5, 444]",ColorTask,23.0,33.0,,,HRV,HRV_0099,2022-11-30 18:41:33
,wl-rdm,41,174968,0.0-6.33-0.33,False,,0.0,41.0,,,,,,,[],,,,,,50.0,1.0,i,1.0,True,1218.7999999821186,74.0,60.0,40.0,299.98156252259855,[],"[940.5, 444]",ColorTask,24.0,34.0,,,HRV,HRV_0099,2022-11-30 18:41:33
,wl-rdm,42,177150,0.0-6.34-0.34,False,,0.0,42.0,,,,,,,[],,,,,,87.9,1.0,i,1.0,True,842.0000000149012,51.0,60.0,40.0,256.02658791860364,[],"[940.5, 444]",ColorTask,25.0,35.0,,,HRV,HRV_0099,2022-11-30 18:41:33
,wl-rdm,43,179518,0.0-6.35-0.35,False,,0.0,43.0,,,,,,,[],,,,,,53.2,0.0,i,1.0,False,1076.7999999970198,65.0,60.0,40.0,211.8875634817142,[],"[940.5, 444]",ColorTask,24.0,36.0,,,HRV,HRV_0099,2022-11-30 18:41:33
,wl-rdm,44,181917,0.0-6.36-0.36,False,,0.0,44.0,,,,,,,[],,,,,,53.2,1.0,u,0.0,False,1052.2000000029802,64.0,60.0,40.0,250.00315521236487,[],"[940.5, 444]",ColorTask,23.0,37.0,,,HRV,HRV_0099,2022-11-30 18:41:33
,wl-rdm,45,184067,0.0-6.37-0.37,False,,0.0,45.0,,,,,,,[],,,,,,87.9,0.0,u,0.0,True,807.8000000119209,49.0,60.0,40.0,273.12424537081876,[],"[940.5, 444]",ColorTask,24.0,38.0,,,HRV,HRV_0099,2022-11-30 18:41:33
,wl-rdm,46,186984,0.0-6.38-0.38,False,,0.0,46.0,,,,,,,[],,,,,,56.4,0.0,u,0.0,True,1452.0,88.0,60.0,40.0,368.30186729787056,[],"[940.5, 444]",ColorTask,25.0,39.0,,,HRV,HRV_0099,2022-11-30 18:41:33
,wl-rdm,47,189468,0.0-6.39-0.39,False,,0.0,47.0,,,,,,,[],,,,,,56.4,0.0,u,0.0,True,1031.7999999821186,62.0,60.0,40.0,389.9475187363053,[],"[940.5, 444]",ColorTask,26.0,40.0,,,HRV,HRV_0099,2022-11-30 18:41:33
,wl-rdm,48,192401,0.0-6.40-0.40,False,,0.0,48.0,,,,,,,[],,,,,,56.4,1.0,i,1.0,True,1624.7999999970198,98.0,60.0,40.0,217.67430197380475,[],"[940.5, 444]",ColorTask,27.0,41.0,,,HRV,HRV_0099,2022-11-30 18:41:33
,wl-rdm,49,194419,0.0-6.41-0.41,False,,0.0,49.0,,,,,,,[],,,,,,73.6,1.0,i,1.0,True,701.2999999970198,42.0,60.0,40.0,235.1404111511193,[],"[940.5, 444]",ColorTask,28.0,42.0,,,HRV,HRV_0099,2022-11-30 18:41:33
,wl-rdm,50,196651,0.0-6.42-0.42,False,,0.0,50.0,,,,,,,[],,,,,,73.6,0.0,u,0.0,True,814.3999999910593,49.0,60.0,40.0,343.3225539299694,[],"[940.5, 444]",ColorTask,29.0,43.0,,,HRV,HRV_0099,2022-11-30 18:41:33
,wl-rdm,51,200667,0.0-6.43-0.43,False,,0.0,51.0,,,,,,,[],,,,,,50.0,1.0,i,1.0,True,2658.0999999940395,160.0,60.0,40.0,295.0617150776203,[],"[940.5, 444]",ColorTask,30.0,44.0,,,HRV,HRV_0099,2022-11-30 18:41:33
,wl-rdm,52,202834,0.0-6.44-0.44,False,,0.0,52.0,,,,,,,[],,,,,,73.6,0.0,u,0.0,True,722.9999999850988,44.0,60.0,40.0,373.27221307563553,[],"[940.5, 444]",ColorTask,31.0,45.0,,,HRV,HRV_0099,2022-11-30 18:41:33
,wl-rdm,53,205551,0.0-6.45-0.45,False,,0.0,53.0,,,,,,,[],,,,,,50.0,1.0,u,0.0,False,1327.1000000089407,80.0,60.0,40.0,300.74187509348127,[],"[940.5, 444]",ColorTask,30.0,46.0,,,HRV,HRV_0099,2022-11-30 18:41:33
,wl-rdm,54,207617,0.0-6.46-0.46,False,,0.0,54.0,,,,,,,[],,,,,,62.5,1.0,i,1.0,True,701.8999999910593,43.0,60.0,40.0,279.2174026034494,[],"[940.5, 444]",ColorTask,31.0,47.0,,,HRV,HRV_0099,2022-11-30 18:41:33
,wl-rdm,55,209734,0.0-6.47-0.47,False,,0.0,55.0,,,,,,,[],,,,,,62.5,1.0,i,1.0,True,752.2000000029802,46.0,60.0,40.0,275.2946193523484,[],"[940.5, 444]",ColorTask,32.0,48.0,,,HRV,HRV_0099,2022-11-30 18:41:33
,wl-rdm,56,212533,0.0-6.48-0.48,False,,0.0,56.0,,,,,,,[],,,,,,62.5,0.0,u,0.0,True,1496.5,90.0,60.0,40.0,236.56649182746293,[],"[940.5, 444]",ColorTask,33.0,49.0,,,HRV,HRV_0099,2022-11-30 18:41:33
,wl-rdm,57,215400,0.0-6.49-0.49,False,,0.0,57.0,,,,,,,[],,,,,,50.0,0.0,i,1.0,False,1588.8999999910593,96.0,60.0,40.0,211.3632966075352,[],"[940.5, 444]",ColorTask,32.0,50.0,,,HRV,HRV_0099,2022-11-30 18:41:33
,wl-rdm,58,218300,0.0-6.50-0.50,False,,0.0,58.0,,,,,,,[],,,,,,53.2,1.0,u,0.0,False,1493.5999999940395,90.0,60.0,40.0,318.85998106308034,[],"[940.5, 444]",ColorTask,31.0,51.0,,,HRV,HRV_0099,2022-11-30 18:41:33
,wl-rdm,59,221200,0.0-6.51-0.51,False,,0.0,59.0,,,,,,,[],,,,,,53.2,0.0,u,0.0,True,1477.2000000178814,89.0,60.0,40.0,340.0455935870806,[],"[940.5, 444]",ColorTask,32.0,52.0,,,HRV,HRV_0099,2022-11-30 18:41:33
,wl-rdm,60,223150,0.0-6.52-0.52,False,,0.0,60.0,,,,,,,[],,,,,,87.9,1.0,i,1.0,True,663.3000000119209,40.0,60.0,40.0,214.84477573230834,[],"[940.5, 444]",ColorTask,33.0,53.0,,,HRV,HRV_0099,2022-11-30 18:41:33
,wl-rdm,61,225267,0.0-6.53-0.53,False,,0.0,61.0,,,,,,,[],,,,,,62.5,0.0,u,0.0,True,696.2000000029802,42.0,60.0,40.0,336.10809288127587,[],"[940.5, 444]",ColorTask,34.0,54.0,,,HRV,HRV_0099,2022-11-30 18:41:33
,wl-rdm,62,227883,0.0-6.54-0.54,False,,0.0,62.0,,,,,,,[],,,,,,56.4,0.0,u,0.0,True,1276.5999999940395,77.0,60.0,40.0,264.3385854296151,[],"[940.5, 444]",ColorTask,35.0,55.0,,,HRV,HRV_0099,2022-11-30 18:41:33
,wl-rdm,63,230033,0.0-6.55-0.55,False,,0.0,63.0,,,,,,,[],,,,,,62.5,0.0,u,0.0,True,835.0999999940395,51.0,60.0,40.0,234.88160768284357,[],"[940.5, 444]",ColorTask,36.0,56.0,,,HRV,HRV_0099,2022-11-30 18:41:33
,wl-rdm,64,232883,0.0-6.56-0.56,False,,0.0,64.0,,,,,,,[],,,,,,50.0,0.0,i,1.0,False,1554.0999999940395,94.0,60.0,40.0,212.3746051880215,[],"[940.5, 444]",ColorTask,35.0,57.0,,,HRV,HRV_0099,2022-11-30 18:41:33
,wl-rdm,65,235500,0.0-6.57-0.57,False,,0.0,65.0,,,,,,,[],,,,,,56.4,1.0,i,1.0,True,1318.3999999910593,80.0,60.0,40.0,208.35749110697267,[],"[940.5, 444]",ColorTask,36.0,58.0,,,HRV,HRV_0099,2022-11-30 18:41:33
,wl-rdm,66,238750,0.0-6.58-0.58,False,,0.0,66.0,,,,,,,[],,,,,,56.4,1.0,i,1.0,True,1864.7999999970198,112.0,60.0,40.0,328.26579466570115,[],"[940.5, 444]",ColorTask,37.0,59.0,,,HRV,HRV_0099,2022-11-30 18:41:33
,wl-rdm,67,242933,0.0-6.59-0.59,False,,0.0,67.0,,,,,,,[],,,,,,50.0,1.0,u,0.0,False,2852.0,172.0,60.0,40.0,260.34623013645654,[],"[940.5, 444]",ColorTask,36.0,60.0,,,HRV,HRV_0099,2022-11-30 18:41:33
,wl-rdm,68,245033,0.0-6.60-0.60,False,,0.0,68.0,,,,,,,[],,,,,,62.5,1.0,i,1.0,True,771.6000000089407,47.0,60.0,40.0,237.82404501406612,[],"[940.5, 444]",ColorTask,37.0,61.0,,,HRV,HRV_0099,2022-11-30 18:41:33
,wl-rdm,69,247116,0.0-6.61-0.61,False,,0.0,69.0,,,,,,,[],,,,,,87.9,0.0,u,0.0,True,687.0999999940395,42.0,60.0,40.0,313.6449043086169,[],"[940.5, 444]",ColorTask,38.0,62.0,,,HRV,HRV_0099,2022-11-30 18:41:33
,wl-rdm,70,249350,0.0-6.62-0.62,False,,0.0,70.0,,,,,,,[],,,,,,73.6,0.0,u,0.0,True,937.7000000029802,57.0,60.0,40.0,202.98195290371828,[],"[940.5, 444]",ColorTask,39.0,63.0,,,HRV,HRV_0099,2022-11-30 18:41:33
,wl-rdm,71,251917,0.0-6.63-0.63,False,,0.0,71.0,,,,,,,[],,,,,,62.5,1.0,i,1.0,True,1241.0999999940395,75.0,60.0,40.0,246.09799429881957,[],"[940.5, 444]",ColorTask,40.0,64.0,,,HRV,HRV_0099,2022-11-30 18:41:33
,wl-rdm,72,254733,0.0-6.64-0.64,False,,0.0,72.0,,,,,,,[],,,,,,62.5,0.0,u,0.0,True,1504.199999988079,91.0,60.0,40.0,217.52058564846314,[],"[940.5, 444]",ColorTask,41.0,65.0,,,HRV,HRV_0099,2022-11-30 18:41:33
,wl-rdm,73,257033,0.0-6.65-0.65,False,,0.0,73.0,,,,,,,[],,,,,,56.4,0.0,u,0.0,True,1004.6000000089407,61.0,60.0,40.0,213.87051512432978,[],"[940.5, 444]",ColorTask,42.0,66.0,,,HRV,HRV_0099,2022-11-30 18:41:33
,wl-rdm,74,259450,0.0-6.66-0.66,False,,0.0,74.0,,,,,,,[],,,,,,62.5,1.0,i,1.0,True,989.1999999880791,60.0,60.0,40.0,364.94357193425503,[],"[940.5, 444]",ColorTask,43.0,67.0,,,HRV,HRV_0099,2022-11-30 18:41:33
,wl-rdm,75,262633,0.0-6.67-0.67,False,,0.0,75.0,,,,,,,[],,,,,,56.4,0.0,u,0.0,True,1712.5000000149012,103.0,60.0,40.0,393.7657259278159,[],"[940.5, 444]",ColorTask,44.0,68.0,,,HRV,HRV_0099,2022-11-30 18:41:33
,wl-rdm,76,266350,0.0-6.68-0.68,False,,0.0,76.0,,,,,,,[],,,,,,53.2,1.0,u,0.0,False,2269.000000014901,137.0,60.0,40.0,355.849623907916,[],"[940.5, 444]",ColorTask,43.0,69.0,,,HRV,HRV_0099,2022-11-30 18:41:33
,wl-rdm,77,268400,0.0-6.69-0.69,False,,0.0,77.0,,,,,,,[],,,,,,73.6,1.0,i,1.0,True,737.5999999940395,45.0,60.0,40.0,248.434622936069,[],"[940.5, 444]",ColorTask,44.0,70.0,,,HRV,HRV_0099,2022-11-30 18:41:33
,wl-rdm,78,271033,0.0-6.70-0.70,False,,0.0,78.0,,,,,,,[],,,,,,53.2,0.0,i,1.0,False,1264.2999999970198,76.0,60.0,40.0,313.66215702283654,[],"[940.5, 444]",ColorTask,43.0,71.0,,,HRV,HRV_0099,2022-11-30 18:41:33
,wl-rdm,79,273933,0.0-6.71-0.71,False,,0.0,79.0,,,,,,,[],,,,,,62.5,0.0,u,0.0,True,1505.4000000059605,91.0,60.0,40.0,329.56345713616685,[],"[940.5, 444]",ColorTask,44.0,72.0,,,HRV,HRV_0099,2022-11-30 18:41:33
,wl-rdm,80,278283,0.0-6.72-0.72,False,,0.0,80.0,,,,,,,[],,,,,,53.2,0.0,u,0.0,True,2887.0999999940395,174.0,60.0,40.0,393.990005641251,[],"[940.5, 444]",ColorTask,45.0,73.0,,,HRV,HRV_0099,2022-11-30 18:41:33
,wl-rdm,81,281200,0.0-6.73-0.73,False,,0.0,81.0,,,,,,,[],,,,,,50.0,1.0,u,0.0,False,1435.0999999940395,87.0,60.0,40.0,394.18048583788254,[],"[940.5, 444]",ColorTask,44.0,74.0,,,HRV,HRV_0099,2022-11-30 18:41:33
,wl-rdm,82,283683,0.0-6.74-0.74,False,,0.0,82.0,,,,,,,[],,,,,,62.5,1.0,i,1.0,True,1001.9000000059605,61.0,60.0,40.0,394.8404795309625,[],"[940.5, 444]",ColorTask,45.0,75.0,,,HRV,HRV_0099,2022-11-30 18:41:33
,wl-rdm,83,286050,0.0-6.75-0.75,False,,0.0,83.0,,,,,,,[],,,,,,53.2,0.0,u,0.0,True,1033.7000000029802,62.0,60.0,40.0,252.2585792916185,[],"[940.5, 444]",ColorTask,46.0,76.0,,,HRV,HRV_0099,2022-11-30 18:41:33
,wl-rdm,84,289317,0.0-6.76-0.76,False,,0.0,84.0,,,,,,,[],,,,,,62.5,0.0,u,0.0,True,1946.800000011921,117.0,60.0,40.0,264.26086926696155,[],"[940.5, 444]",ColorTask,47.0,77.0,,,HRV,HRV_0099,2022-11-30 18:41:33
,wl-rdm,85,292183,0.0-6.77-0.77,False,,0.0,85.0,,,,,,,[],,,,,,56.4,1.0,i,1.0,True,1530.0,92.0,60.0,40.0,267.46959387032155,[],"[940.5, 444]",ColorTask,48.0,78.0,,,HRV,HRV_0099,2022-11-30 18:41:33
,wl-rdm,86,294383,0.0-6.78-0.78,False,,0.0,86.0,,,,,,,[],,,,,,73.6,1.0,i,1.0,True,902.4000000059605,55.0,60.0,40.0,209.6336706672997,[],"[940.5, 444]",ColorTask,49.0,79.0,,,HRV,HRV_0099,2022-11-30 18:41:33
,wl-rdm,87,296483,0.0-6.79-0.79,False,,0.0,87.0,,,,,,,[],,,,,,73.6,0.0,u,0.0,True,752.2000000029802,46.0,60.0,40.0,265.24481857175005,[],"[940.5, 444]",ColorTask,50.0,80.0,,,HRV,HRV_0099,2022-11-30 18:41:33
,wl-rdm,88,299983,0.0-6.80-0.80,False,,0.0,88.0,,,,,,,[],,,,,,50.0,0.0,u,0.0,True,2064.2000000029802,124.0,60.0,40.0,356.7650229305552,[],"[940.5, 444]",ColorTask,51.0,81.0,,,HRV,HRV_0099,2022-11-30 18:41:33
,wl-rdm,89,302083,0.0-6.81-0.81,False,,0.0,89.0,,,,,,,[],,,,,,73.6,1.0,i,1.0,True,697.0999999940395,42.0,60.0,40.0,325.83664824986613,[],"[940.5, 444]",ColorTask,52.0,82.0,,,HRV,HRV_0099,2022-11-30 18:41:33
,wl-rdm,90,304767,0.0-6.82-0.82,False,,0.0,90.0,,,,,,,[],,,,,,50.0,1.0,i,1.0,True,1398.699999988079,84.0,60.0,40.0,217.18341354986632,[],"[940.5, 444]",ColorTask,53.0,83.0,,,HRV,HRV_0099,2022-11-30 18:41:33
,wl-rdm,91,306817,0.0-6.83-0.83,False,,0.0,91.0,,,,,,,[],,,,,,87.9,1.0,i,1.0,True,594.2999999970198,36.0,60.0,40.0,379.18779910444346,[],"[940.5, 444]",ColorTask,54.0,84.0,,,HRV,HRV_0099,2022-11-30 18:41:33
,wl-rdm,92,308867,0.0-6.84-0.84,False,,0.0,92.0,,,,,,,[],,,,,,73.6,1.0,i,1.0,True,687.7000000178814,42.0,60.0,40.0,280.8840838010093,[],"[940.5, 444]",ColorTask,55.0,85.0,,,HRV,HRV_0099,2022-11-30 18:41:33
,wl-rdm,93,311317,0.0-6.85-0.85,False,,0.0,93.0,,,,,,,[],,,,,,56.4,0.0,u,0.0,True,1126.7999999970198,68.0,60.0,40.0,244.12583510747106,[],"[940.5, 444]",ColorTask,56.0,86.0,,,HRV,HRV_0099,2022-11-30 18:41:33
,wl-rdm,94,314050,0.0-6.86-0.86,False,,0.0,94.0,,,,,,,[],,,,,,56.4,0.0,u,0.0,True,1368.7999999970198,83.0,60.0,40.0,269.66146422273073,[],"[940.5, 444]",ColorTask,57.0,87.0,,,HRV,HRV_0099,2022-11-30 18:41:33
,wl-rdm,95,316068,0.0-6.87-0.87,False,,0.0,95.0,,,,,,,[],,,,,,87.9,1.0,i,1.0,True,629.7999999970198,38.0,60.0,40.0,327.64503814241436,[],"[940.5, 444]",ColorTask,58.0,88.0,,,HRV,HRV_0099,2022-11-30 18:41:33
,wl-rdm,96,318566,0.0-6.88-0.88,False,,0.0,96.0,,,,,,,[],,,,,,62.5,1.0,i,1.0,True,1107.7000000029802,67.0,60.0,40.0,300.42612533224275,[],"[940.5, 444]",ColorTask,59.0,89.0,,,HRV,HRV_0099,2022-11-30 18:41:33
,wl-rdm,97,321100,0.0-6.89-0.89,False,,0.0,97.0,,,,,,,[],,,,,,50.0,0.0,i,1.0,False,1064.7000000029802,64.0,60.0,40.0,390.0538082432282,[],"[940.5, 444]",ColorTask,58.0,90.0,,,HRV,HRV_0099,2022-11-30 18:41:33
,wl-rdm,98,323517,0.0-6.90-0.90,False,,0.0,98.0,,,,,,,[],,,,,,50.0,1.0,u,0.0,False,1068.7000000029802,65.0,60.0,40.0,253.22361379507237,[],"[940.5, 444]",ColorTask,57.0,91.0,,,HRV,HRV_0099,2022-11-30 18:41:33
,wl-rdm,99,327516,0.0-6.91-0.91,False,,0.0,99.0,,,,,,,[],,,,,,50.0,0.0,u,0.0,True,2613.5,157.0,60.0,40.0,323.1848959687166,[],"[940.5, 444]",ColorTask,58.0,92.0,,,HRV,HRV_0099,2022-11-30 18:41:33
,wl-rdm,100,330133,0.0-6.92-0.92,False,,0.0,100.0,,,,,,,[],,,,,,53.2,1.0,i,1.0,True,1282.4000000208616,77.0,60.0,40.0,276.6714967386318,[],"[940.5, 444]",ColorTask,59.0,93.0,,,HRV,HRV_0099,2022-11-30 18:41:33
,wl-rdm,101,332467,0.0-6.93-0.93,False,,0.0,101.0,,,,,,,[],,,,,,56.4,0.0,u,0.0,True,882.9000000059605,53.0,60.0,40.0,381.69486894652636,[],"[940.5, 444]",ColorTask,60.0,94.0,,,HRV,HRV_0099,2022-11-30 18:41:33
,wl-rdm,102,335100,0.0-6.94-0.94,False,,0.0,102.0,,,,,,,[],,,,,,56.4,1.0,i,1.0,True,1304.4000000059605,79.0,60.0,40.0,255.34234450544054,[],"[940.5, 444]",ColorTask,61.0,95.0,,,HRV,HRV_0099,2022-11-30 18:41:33
,wl-rdm,103,337217,0.0-6.95-0.95,False,,0.0,103.0,,,,,,,[],,,,,,87.9,0.0,u,0.0,True,738.0999999940395,45.0,60.0,40.0,287.48415170589095,[],"[940.5, 444]",ColorTask,62.0,96.0,,,HRV,HRV_0099,2022-11-30 18:41:33
,wl-rdm,104,339433,0.0-6.96-0.96,False,,0.0,104.0,,,,,,,[],,,,,,73.6,1.0,i,1.0,True,859.5999999940395,52.0,60.0,40.0,279.6105027408782,[],"[940.5, 444]",ColorTask,63.0,97.0,,,HRV,HRV_0099,2022-11-30 18:41:33
,wl-rdm,105,342517,0.0-6.97-0.97,False,,0.0,105.0,,,,,,,[],,,,,,50.0,0.0,i,1.0,False,1791.0999999940395,108.0,60.0,40.0,206.0245787041129,[],"[940.5, 444]",ColorTask,62.0,98.0,,,HRV,HRV_0099,2022-11-30 18:41:33
,wl-rdm,106,345267,0.0-6.98-0.98,False,,0.0,106.0,,,,,,,[],,,,,,73.6,0.0,u,0.0,True,1291.2999999970198,78.0,60.0,40.0,357.8166583970731,[],"[940.5, 444]",ColorTask,63.0,99.0,,,HRV,HRV_0099,2022-11-30 18:41:33
,wl-rdm,107,348800,0.0-6.99-0.99,False,,0.0,107.0,,,,,,,[],,,,,,50.0,1.0,i,1.0,True,2202.5,133.0,60.0,40.0,240.04181312943837,[],"[940.5, 444]",ColorTask,64.0,100.0,,,HRV,HRV_0099,2022-11-30 18:41:33
,wl-rdm,108,351150,0.0-6.100-0.100,False,,0.0,108.0,,,,,,,[],,,,,,87.9,0.0,u,0.0,True,968.7999999970198,59.0,60.0,40.0,289.35052423856155,[],"[940.5, 444]",ColorTask,65.0,101.0,,,HRV,HRV_0099,2022-11-30 18:41:33
,wl-rdm,109,353767,0.0-6.101-0.101,False,,0.0,109.0,,,,,,,[],,,,,,62.5,0.0,u,0.0,True,1194.5,72.0,60.0,40.0,349.34345127290896,[],"[940.5, 444]",ColorTask,66.0,102.0,,,HRV,HRV_0099,2022-11-30 18:41:33
,wl-rdm,110,355900,0.0-6.102-0.102,False,,0.0,110.0,,,,,,,[],,,,,,73.6,1.0,i,1.0,True,697.0999999940395,42.0,60.0,40.0,357.65010205231556,[],"[940.5, 444]",ColorTask,67.0,103.0,,,HRV,HRV_0099,2022-11-30 18:41:33
,wl-rdm,111,358700,0.0-6.103-0.103,False,,0.0,111.0,,,,,,,[],,,,,,87.9,1.0,i,1.0,True,1496.0999999940395,90.0,60.0,40.0,241.60407134132348,[],"[940.5, 444]",ColorTask,68.0,104.0,,,HRV,HRV_0099,2022-11-30 18:41:33
,wl-rdm,112,363117,0.0-6.104-0.104,True,RT_timeout ,0.0,111.0,,,,,,,[],,,,,,53.2,1.0,,,,,179.0,60.0,40.0,327.8680144273532,[],"[940.5, 444]",ColorTask,67.0,105.0,,,HRV,HRV_0099,2022-11-30 18:41:33
,wl-rdm,113,366234,0.0-6.105-0.105,False,,0.0,112.0,,,,,,,[],,,,,,56.4,1.0,i,1.0,True,1727.7000000029802,104.0,60.0,40.0,307.78929254331024,[],"[940.5, 444]",ColorTask,68.0,106.0,,,HRV,HRV_0099,2022-11-30 18:41:33
,wl-rdm,114,368917,0.0-6.106-0.106,False,,0.0,113.0,,,,,,,[],,,,,,50.0,1.0,u,0.0,False,1324.7000000029802,80.0,60.0,40.0,280.4024263485935,[],"[940.5, 444]",ColorTask,67.0,107.0,,,HRV,HRV_0099,2022-11-30 18:41:33
,wl-rdm,115,371367,0.0-6.107-0.107,False,,0.0,114.0,,,,,,,[],,,,,,53.2,1.0,i,1.0,True,1079.2999999970198,65.0,60.0,40.0,305.2413383607082,[],"[940.5, 444]",ColorTask,68.0,108.0,,,HRV,HRV_0099,2022-11-30 18:41:33
,wl-rdm,116,374233,0.0-6.108-0.108,False,,0.0,115.0,,,,,,,[],,,,,,50.0,0.0,i,1.0,False,1564.7999999970198,94.0,60.0,40.0,231.76475310125946,[],"[940.5, 444]",ColorTask,67.0,109.0,,,HRV,HRV_0099,2022-11-30 18:41:33
,wl-html-keyboard-response,117,490881,0.0-7.0-0.0,True,undefinedblurEvent ,1.0,115.0,,,,,,,,114643.40000000596,1.0,0,,,,,,,,,,,,,,,,,,,,HRV,HRV_0099,2022-11-30 18:41:33
,wl-rdm,118,493400,0.0-8.0-0.0,False,,1.0,116.0,,,,,,,[],,,,,,50.0,0.0,i,1.0,False,1135.2999999970198,69.0,60.0,40.0,316.22945865120755,[],"[940.5, 444]",ColorTask,66.0,1.0,,,HRV,HRV_0099,2022-11-30 18:41:33
,wl-rdm,119,496783,0.0-8.1-0.1,False,,1.0,117.0,,,,,,,[],,,,,,53.2,1.0,i,1.0,True,2064.7999999970198,124.0,60.0,40.0,257.3309808144108,[],"[940.5, 444]",ColorTask,67.0,2.0,,,HRV,HRV_0099,2022-11-30 18:41:33
,wl-rdm,120,499850,0.0-8.2-0.2,False,,1.0,118.0,,,,,,,[],,,,,,56.4,0.0,u,0.0,True,1703.5,103.0,60.0,40.0,289.94070376383445,[],"[940.5, 444]",ColorTask,68.0,3.0,,,HRV,HRV_0099,2022-11-30 18:41:33
,wl-rdm,121,502217,0.0-8.3-0.3,False,,1.0,119.0,,,,,,,[],,,,,,53.2,1.0,u,0.0,False,1075.1000000089407,65.0,60.0,40.0,216.4153387154654,[],"[940.5, 444]",ColorTask,67.0,4.0,,,HRV,HRV_0099,2022-11-30 18:41:33
,wl-rdm,122,505117,0.0-8.4-0.4,False,,1.0,120.0,,,,,,,[],,,,,,53.2,0.0,i,1.0,False,1544.2999999970198,93.0,60.0,40.0,291.25784099804116,[],"[940.5, 444]",ColorTask,66.0,5.0,,,HRV,HRV_0099,2022-11-30 18:41:33
,wl-rdm,123,507200,0.0-8.5-0.5,False,,1.0,121.0,,,,,,,[],,,,,,62.5,0.0,u,0.0,True,796.0,48.0,60.0,40.0,227.83281318902237,[],"[940.5, 444]",ColorTask,67.0,6.0,,,HRV,HRV_0099,2022-11-30 18:41:33
,wl-rdm,124,510650,0.0-8.6-0.6,False,,1.0,122.0,,,,,,,[],,,,,,50.0,1.0,i,1.0,True,2126.5999999940395,128.0,60.0,40.0,244.04972371911174,[],"[940.5, 444]",ColorTask,68.0,7.0,,,HRV,HRV_0099,2022-11-30 18:41:33
,wl-rdm,125,512917,0.0-8.7-0.7,False,,1.0,123.0,,,,,,,[],,,,,,56.4,1.0,i,1.0,True,987.0999999940395,60.0,60.0,40.0,213.55202231687005,[],"[940.5, 444]",ColorTask,69.0,8.0,,,HRV,HRV_0099,2022-11-30 18:41:33
,wl-rdm,126,515183,0.0-8.8-0.8,False,,1.0,124.0,,,,,,,[],,,,,,87.9,1.0,i,1.0,True,823.5,50.0,60.0,40.0,366.68139207085414,[],"[940.5, 444]",ColorTask,70.0,9.0,,,HRV,HRV_0099,2022-11-30 18:41:33
,wl-rdm,127,517366,0.0-8.9-0.9,False,,1.0,125.0,,,,,,,[],,,,,,62.5,0.0,u,0.0,True,806.4000000059605,49.0,60.0,40.0,292.42203488401026,[],"[940.5, 444]",ColorTask,71.0,10.0,,,HRV,HRV_0099,2022-11-30 18:41:33
,wl-rdm,128,519783,0.0-8.10-0.10,False,,1.0,126.0,,,,,,,[],,,,,,73.6,0.0,u,0.0,True,1108.0999999940395,67.0,60.0,40.0,228.15786935655547,[],"[940.5, 444]",ColorTask,72.0,11.0,,,HRV,HRV_0099,2022-11-30 18:41:33
,wl-rdm,129,522433,0.0-8.11-0.11,False,,1.0,127.0,,,,,,,[],,,,,,62.5,0.0,u,0.0,True,1353.5999999940395,82.0,60.0,40.0,209.07641455364404,[],"[940.5, 444]",ColorTask,73.0,12.0,,,HRV,HRV_0099,2022-11-30 18:41:33
,wl-rdm,130,524666,0.0-8.12-0.12,False,,1.0,128.0,,,,,,,[],,,,,,73.6,0.0,u,0.0,True,921.2999999970198,56.0,60.0,40.0,230.5506795266692,[],"[940.5, 444]",ColorTask,74.0,13.0,,,HRV,HRV_0099,2022-11-30 18:41:33
,wl-rdm,131,526716,0.0-8.13-0.13,False,,1.0,129.0,,,,,,,[],,,,,,73.6,0.0,u,0.0,True,727.2999999970198,44.0,60.0,40.0,236.26150499478615,[],"[940.5, 444]",ColorTask,75.0,14.0,,,HRV,HRV_0099,2022-11-30 18:41:33
,wl-rdm,132,528666,0.0-8.14-0.14,False,,1.0,130.0,,,,,,,[],,,,,,87.9,0.0,u,0.0,True,625.5,38.0,60.0,40.0,250.91631841339242,[],"[940.5, 444]",ColorTask,76.0,15.0,,,HRV,HRV_0099,2022-11-30 18:41:33
,wl-rdm,133,531783,0.0-8.15-0.15,False,,1.0,131.0,,,,,,,[],,,,,,53.2,1.0,i,1.0,True,1652.5999999940395,100.0,60.0,40.0,375.967971088794,[],"[940.5, 444]",ColorTask,77.0,16.0,,,HRV,HRV_0099,2022-11-30 18:41:33
,wl-rdm,134,534149,0.0-8.16-0.16,False,,1.0,132.0,,,,,,,[],,,,,,62.5,0.0,u,0.0,True,1068.8999999910593,65.0,60.0,40.0,210.06435381452854,[],"[940.5, 444]",ColorTask,78.0,17.0,,,HRV,HRV_0099,2022-11-30 18:41:33
,wl-rdm,135,536749,0.0-8.17-0.17,False,,1.0,133.0,,,,,,,[],,,,,,53.2,0.0,u,0.0,True,1289.4000000059605,78.0,60.0,40.0,227.77880095153384,[],"[940.5, 444]",ColorTask,79.0,18.0,,,HRV,HRV_0099,2022-11-30 18:41:33
,wl-rdm,136,539183,0.0-8.18-0.18,False,,1.0,134.0,,,,,,,[],,,,,,53.2,0.0,u,0.0,True,1111.800000011921,67.0,60.0,40.0,242.57881247157135,[],"[940.5, 444]",ColorTask,80.0,19.0,,,HRV,HRV_0099,2022-11-30 18:41:33
,wl-rdm,137,542266,0.0-8.19-0.19,False,,1.0,135.0,,,,,,,[],,,,,,50.0,1.0,i,1.0,True,1626.7999999821186,98.0,60.0,40.0,385.2016793734519,[],"[940.5, 444]",ColorTask,81.0,20.0,,,HRV,HRV_0099,2022-11-30 18:41:33
,wl-rdm,138,544717,0.0-8.20-0.20,False,,1.0,136.0,,,,,,,[],,,,,,53.2,0.0,i,1.0,False,1096.1000000089407,66.0,60.0,40.0,290.04897397482205,[],"[940.5, 444]",ColorTask,80.0,21.0,,,HRV,HRV_0099,2022-11-30 18:41:33
,wl-rdm,139,546983,0.0-8.21-0.21,False,,1.0,137.0,,,,,,,[],,,,,,73.6,1.0,i,1.0,True,947.3999999910593,57.0,60.0,40.0,257.7427249057077,[],"[940.5, 444]",ColorTask,81.0,22.0,,,HRV,HRV_0099,2022-11-30 18:41:33
,wl-rdm,140,549716,0.0-8.22-0.22,False,,1.0,138.0,,,,,,,[],,,,,,73.6,1.0,i,1.0,True,1275.0,77.0,60.0,40.0,382.2636708522365,[],"[940.5, 444]",ColorTask,82.0,23.0,,,HRV,HRV_0099,2022-11-30 18:41:33
,wl-rdm,141,552149,0.0-8.23-0.23,False,,1.0,139.0,,,,,,,[],,,,,,87.9,0.0,u,0.0,True,1006.0999999940395,61.0,60.0,40.0,352.1679563795471,[],"[940.5, 444]",ColorTask,83.0,24.0,,,HRV,HRV_0099,2022-11-30 18:41:33
,wl-rdm,142,554983,0.0-8.24-0.24,False,,1.0,140.0,,,,,,,[],,,,,,56.4,0.0,u,0.0,True,1374.7000000029802,83.0,60.0,40.0,375.7117559848913,[],"[940.5, 444]",ColorTask,84.0,25.0,,,HRV,HRV_0099,2022-11-30 18:41:33
,wl-rdm,143,558249,0.0-8.25-0.25,False,,1.0,141.0,,,,,,,[],,,,,,50.0,0.0,u,0.0,True,1837.0,111.0,60.0,40.0,339.5095746819656,[],"[940.5, 444]",ColorTask,85.0,26.0,,,HRV,HRV_0099,2022-11-30 18:41:33
,wl-rdm,144,560416,0.0-8.26-0.26,False,,1.0,142.0,,,,,,,[],,,,,,73.6,1.0,i,1.0,True,733.5,44.0,60.0,40.0,352.1256384151743,[],"[940.5, 444]",ColorTask,86.0,27.0,,,HRV,HRV_0099,2022-11-30 18:41:33
,wl-rdm,145,563616,0.0-8.27-0.27,False,,1.0,143.0,,,,,,,[],,,,,,62.5,0.0,u,0.0,True,1763.6000000089407,106.0,60.0,40.0,352.17691330632385,[],"[940.5, 444]",ColorTask,87.0,28.0,,,HRV,HRV_0099,2022-11-30 18:41:33
,wl-rdm,146,566249,0.0-8.28-0.28,False,,1.0,144.0,,,,,,,[],,,,,,56.4,0.0,i,1.0,False,1279.7000000029802,77.0,60.0,40.0,274.6597095790979,[],"[940.5, 444]",ColorTask,86.0,29.0,,,HRV,HRV_0099,2022-11-30 18:41:33
,wl-rdm,147,568333,0.0-8.29-0.29,False,,1.0,145.0,,,,,,,[],,,,,,87.9,0.0,u,0.0,True,768.1000000089407,47.0,60.0,40.0,240.0325283185525,[],"[940.5, 444]",ColorTask,87.0,30.0,,,HRV,HRV_0099,2022-11-30 18:41:33
,wl-rdm,148,571533,0.0-8.30-0.30,False,,1.0,146.0,,,,,,,[],,,,,,50.0,0.0,i,1.0,False,1810.2000000029802,109.0,60.0,40.0,317.1743806185197,[],"[940.5, 444]",ColorTask,86.0,31.0,,,HRV,HRV_0099,2022-11-30 18:41:33
,wl-rdm,149,573583,0.0-8.31-0.31,False,,1.0,147.0,,,,,,,[],,,,,,73.6,1.0,i,1.0,True,758.0999999940395,46.0,60.0,40.0,214.4688479604274,[],"[940.5, 444]",ColorTask,87.0,32.0,,,HRV,HRV_0099,2022-11-30 18:41:33
,wl-rdm,150,576750,0.0-8.32-0.32,False,,1.0,148.0,,,,,,,[],,,,,,53.2,0.0,u,0.0,True,1856.0,112.0,60.0,40.0,236.2435450218856,[],"[940.5, 444]",ColorTask,88.0,33.0,,,HRV,HRV_0099,2022-11-30 18:41:33
,wl-rdm,151,579366,0.0-8.33-0.33,False,,1.0,149.0,,,,,,,[],,,,,,53.2,1.0,u,0.0,False,1261.699999988079,76.0,60.0,40.0,289.89886777973805,[],"[940.5, 444]",ColorTask,87.0,34.0,,,HRV,HRV_0099,2022-11-30 18:41:33
,wl-rdm,152,582433,0.0-8.34-0.34,False,,1.0,150.0,,,,,,,[],,,,,,50.0,1.0,u,0.0,False,1778.7999999970198,107.0,60.0,40.0,212.7299189514784,[],"[940.5, 444]",ColorTask,86.0,35.0,,,HRV,HRV_0099,2022-11-30 18:41:33
,wl-rdm,153,584933,0.0-8.35-0.35,False,,1.0,151.0,,,,,,,[],,,,,,62.5,0.0,u,0.0,True,1167.2000000178814,70.0,60.0,40.0,258.94718513478716,[],"[940.5, 444]",ColorTask,87.0,36.0,,,HRV,HRV_0099,2022-11-30 18:41:33
,wl-rdm,154,586951,0.0-8.36-0.36,False,,1.0,152.0,,,,,,,[],,,,,,73.6,1.0,i,1.0,True,718.3999999910593,44.0,60.0,40.0,206.48186512116675,[],"[940.5, 444]",ColorTask,88.0,37.0,,,HRV,HRV_0099,2022-11-30 18:41:33
,wl-rdm,155,588900,0.0-8.37-0.37,False,,1.0,153.0,,,,,,,[],,,,,,73.6,1.0,i,1.0,True,671.5,41.0,60.0,40.0,207.8303077577257,[],"[940.5, 444]",ColorTask,89.0,38.0,,,HRV,HRV_0099,2022-11-30 18:41:33
,wl-rdm,156,591383,0.0-8.38-0.38,False,,1.0,154.0,,,,,,,[],,,,,,62.5,1.0,i,1.0,True,1125.5999999940395,68.0,60.0,40.0,275.2278613573352,[],"[940.5, 444]",ColorTask,90.0,39.0,,,HRV,HRV_0099,2022-11-30 18:41:33
,wl-rdm,157,594050,0.0-8.39-0.39,False,,1.0,155.0,,,,,,,[],,,,,,56.4,1.0,i,1.0,True,1395.0,84.0,60.0,40.0,201.70023281351217,[],"[940.5, 444]",ColorTask,91.0,40.0,,,HRV,HRV_0099,2022-11-30 18:41:33
,wl-rdm,158,596433,0.0-8.40-0.40,False,,1.0,156.0,,,,,,,[],,,,,,62.5,0.0,u,0.0,True,938.0,57.0,60.0,40.0,355.0989927759347,[],"[940.5, 444]",ColorTask,92.0,41.0,,,HRV,HRV_0099,2022-11-30 18:41:33
,wl-rdm,159,599383,0.0-8.41-0.41,False,,1.0,157.0,,,,,,,[],,,,,,53.2,1.0,u,0.0,False,1604.5,97.0,60.0,40.0,260.40706224881376,[],"[940.5, 444]",ColorTask,91.0,42.0,,,HRV,HRV_0099,2022-11-30 18:41:33
,wl-rdm,160,602383,0.0-8.42-0.42,False,,1.0,158.0,,,,,,,[],,,,,,56.4,1.0,i,1.0,True,1630.8999999910593,98.0,60.0,40.0,313.2497727867609,[],"[940.5, 444]",ColorTask,92.0,43.0,,,HRV,HRV_0099,2022-11-30 18:41:33
,wl-rdm,161,605367,0.0-8.43-0.43,False,,1.0,159.0,,,,,,,[],,,,,,56.4,0.0,u,0.0,True,1569.0999999940395,95.0,60.0,40.0,320.8095932494584,[],"[940.5, 444]",ColorTask,93.0,44.0,,,HRV,HRV_0099,2022-11-30 18:41:33
,wl-rdm,162,607983,0.0-8.44-0.44,False,,1.0,160.0,,,,,,,[],,,,,,62.5,1.0,i,1.0,True,1285.0999999940395,78.0,60.0,40.0,244.57316491628558,[],"[940.5, 444]",ColorTask,94.0,45.0,,,HRV,HRV_0099,2022-11-30 18:41:33
,wl-rdm,163,609983,0.0-8.45-0.45,False,,1.0,161.0,,,,,,,[],,,,,,56.4,0.0,u,0.0,True,676.5,41.0,60.0,40.0,238.94597209726268,[],"[940.5, 444]",ColorTask,95.0,46.0,,,HRV,HRV_0099,2022-11-30 18:41:33
,wl-rdm,164,612133,0.0-8.46-0.46,False,,1.0,162.0,,,,,,,[],,,,,,50.0,1.0,u,0.0,False,709.0000000149012,43.0,60.0,40.0,357.8409152339084,[],"[940.5, 444]",ColorTask,94.0,47.0,,,HRV,HRV_0099,2022-11-30 18:41:33
,wl-rdm,165,614700,0.0-8.47-0.47,False,,1.0,163.0,,,,,,,[],,,,,,62.5,0.0,u,0.0,True,1289.7000000029802,78.0,60.0,40.0,206.2673957908167,[],"[940.5, 444]",ColorTask,95.0,48.0,,,HRV,HRV_0099,2022-11-30 18:41:33
,wl-rdm,166,617300,0.0-8.48-0.48,False,,1.0,164.0,,,,,,,[],,,,,,56.4,1.0,i,1.0,True,1206.0999999940395,73.0,60.0,40.0,310.51626445471425,[],"[940.5, 444]",ColorTask,96.0,49.0,,,HRV,HRV_0099,2022-11-30 18:41:33
,wl-rdm,167,619783,0.0-8.49-0.49,False,,1.0,165.0,,,,,,,[],,,,,,56.4,1.0,i,1.0,True,1192.300000011921,72.0,60.0,40.0,208.25217041488924,[],"[940.5, 444]",ColorTask,97.0,50.0,,,HRV,HRV_0099,2022-11-30 18:41:33
,wl-rdm,168,622766,0.0-8.50-0.50,False,,1.0,166.0,,,,,,,[],,,,,,53.2,1.0,i,1.0,True,1672.5999999940395,101.0,60.0,40.0,247.80836220833726,[],"[940.5, 444]",ColorTask,98.0,51.0,,,HRV,HRV_0099,2022-11-30 18:41:33
,wl-rdm,169,625350,0.0-8.51-0.51,False,,1.0,167.0,,,,,,,[],,,,,,56.4,0.0,u,0.0,True,1168.6000000089407,71.0,60.0,40.0,324.4258344062622,[],"[940.5, 444]",ColorTask,99.0,52.0,,,HRV,HRV_0099,2022-11-30 18:41:33
,wl-rdm,170,627750,0.0-8.52-0.52,False,,1.0,168.0,,,,,,,[],,,,,,50.0,0.0,u,0.0,True,1066.199999988079,64.0,60.0,40.0,258.8446013156694,[],"[940.5, 444]",ColorTask,100.0,53.0,,,HRV,HRV_0099,2022-11-30 18:41:33
,wl-rdm,171,630100,0.0-8.53-0.53,False,,1.0,169.0,,,,,,,[],,,,,,62.5,1.0,i,1.0,True,989.0999999940395,60.0,60.0,40.0,290.4278008347575,[],"[940.5, 444]",ColorTask,101.0,54.0,,,HRV,HRV_0099,2022-11-30 18:41:33
,wl-rdm,172,632183,0.0-8.54-0.54,False,,1.0,170.0,,,,,,,[],,,,,,87.9,0.0,u,0.0,True,731.8000000119209,44.0,60.0,40.0,273.78928151165894,[],"[940.5, 444]",ColorTask,102.0,55.0,,,HRV,HRV_0099,2022-11-30 18:41:33
,wl-rdm,173,634916,0.0-8.55-0.55,False,,1.0,171.0,,,,,,,[],,,,,,50.0,0.0,u,0.0,True,1344.1000000089407,81.0,60.0,40.0,325.0341439379458,[],"[940.5, 444]",ColorTask,103.0,56.0,,,HRV,HRV_0099,2022-11-30 18:41:33
,wl-rdm,174,636933,0.0-8.56-0.56,False,,1.0,172.0,,,,,,,[],,,,,,87.9,1.0,i,1.0,True,697.3000000119209,42.0,60.0,40.0,243.43643475368822,[],"[940.5, 444]",ColorTask,104.0,57.0,,,HRV,HRV_0099,2022-11-30 18:41:33
,wl-rdm,175,639533,0.0-8.57-0.57,False,,1.0,173.0,,,,,,,[],,,,,,56.4,1.0,i,1.0,True,1278.2999999970198,77.0,60.0,40.0,252.25732342870944,[],"[940.5, 444]",ColorTask,105.0,58.0,,,HRV,HRV_0099,2022-11-30 18:41:33
,wl-rdm,176,642400,0.0-8.58-0.58,False,,1.0,174.0,,,,,,,[],,,,,,53.2,0.0,u,0.0,True,1496.7000000029802,90.0,60.0,40.0,307.7408361703098,[],"[940.5, 444]",ColorTask,106.0,59.0,,,HRV,HRV_0099,2022-11-30 18:41:33
,wl-rdm,177,645266,0.0-8.59-0.59,False,,1.0,175.0,,,,,,,[],,,,,,56.4,1.0,i,1.0,True,1393.4000000059605,84.0,60.0,40.0,398.5381069370572,[],"[940.5, 444]",ColorTask,107.0,60.0,,,HRV,HRV_0099,2022-11-30 18:41:33
,wl-rdm,178,648033,0.0-8.60-0.60,False,,1.0,176.0,,,,,,,[],,,,,,56.4,1.0,i,1.0,True,1461.3999999910593,88.0,60.0,40.0,238.57837118185694,[],"[940.5, 444]",ColorTask,108.0,61.0,,,HRV,HRV_0099,2022-11-30 18:41:33
,wl-rdm,179,650083,0.0-8.61-0.61,False,,1.0,177.0,,,,,,,[],,,,,,87.9,0.0,u,0.0,True,651.7999999970198,40.0,60.0,40.0,300.67610395313073,[],"[940.5, 444]",ColorTask,109.0,62.0,,,HRV,HRV_0099,2022-11-30 18:41:33
,wl-rdm,180,652016,0.0-8.62-0.62,False,,1.0,178.0,,,,,,,[],,,,,,87.9,1.0,i,1.0,True,546.8000000119209,33.0,60.0,40.0,314.31355725914403,[],"[940.5, 444]",ColorTask,110.0,63.0,,,HRV,HRV_0099,2022-11-30 18:41:33
,wl-rdm,181,654166,0.0-8.63-0.63,False,,1.0,179.0,,,,,,,[],,,,,,56.4,0.0,u,0.0,True,781.8000000119209,47.0,60.0,40.0,308.9262018346143,[],"[940.5, 444]",ColorTask,111.0,64.0,,,HRV,HRV_0099,2022-11-30 18:41:33
,wl-rdm,182,656433,0.0-8.64-0.64,False,,1.0,180.0,,,,,,,[],,,,,,73.6,1.0,i,1.0,True,820.7000000029802,50.0,60.0,40.0,360.09874385048533,[],"[940.5, 444]",ColorTask,112.0,65.0,,,HRV,HRV_0099,2022-11-30 18:41:33
,wl-rdm,183,658333,0.0-8.65-0.65,False,,1.0,181.0,,,,,,,[],,,,,,87.9,1.0,i,1.0,True,602.2000000029802,37.0,60.0,40.0,224.05961500476164,[],"[940.5, 444]",ColorTask,113.0,66.0,,,HRV,HRV_0099,2022-11-30 18:41:33
,wl-rdm,184,660266,0.0-8.66-0.66,False,,1.0,182.0,,,,,,,[],,,,,,73.6,0.0,u,0.0,True,601.8999999910593,37.0,60.0,40.0,254.4745955547947,[],"[940.5, 444]",ColorTask,114.0,67.0,,,HRV,HRV_0099,2022-11-30 18:41:33
,wl-rdm,185,662416,0.0-8.67-0.67,False,,1.0,183.0,,,,,,,[],,,,,,73.6,0.0,u,0.0,True,819.2000000029802,50.0,60.0,40.0,234.30501035830292,[],"[940.5, 444]",ColorTask,115.0,68.0,,,HRV,HRV_0099,2022-11-30 18:41:33
,wl-rdm,186,665066,0.0-8.68-0.68,False,,1.0,184.0,,,,,,,[],,,,,,73.6,0.0,u,0.0,True,1186.0,72.0,60.0,40.0,386.4895782932121,[],"[940.5, 444]",ColorTask,116.0,69.0,,,HRV,HRV_0099,2022-11-30 18:41:33
,wl-rdm,187,667683,0.0-8.69-0.69,False,,1.0,185.0,,,,,,,[],,,,,,50.0,0.0,u,0.0,True,1215.6000000089407,73.0,60.0,40.0,335.404483417499,[],"[940.5, 444]",ColorTask,117.0,70.0,,,HRV,HRV_0099,2022-11-30 18:41:33
,wl-rdm,188,669783,0.0-8.70-0.70,False,,1.0,186.0,,,,,,,[],,,,,,87.9,0.0,u,0.0,True,624.6000000089407,38.0,60.0,40.0,387.1854786377213,[],"[940.5, 444]",ColorTask,118.0,71.0,,,HRV,HRV_0099,2022-11-30 18:41:33
,wl-rdm,189,671999,0.0-8.71-0.71,False,,1.0,187.0,,,,,,,[],,,,,,53.2,0.0,u,0.0,True,824.9000000059605,50.0,60.0,40.0,304.482727333856,[],"[940.5, 444]",ColorTask,119.0,72.0,,,HRV,HRV_0099,2022-11-30 18:41:33
,wl-rdm,190,674366,0.0-8.72-0.72,False,,1.0,188.0,,,,,,,[],,,,,,53.2,1.0,u,0.0,False,938.2000000029802,57.0,60.0,40.0,356.9338267697108,[],"[940.5, 444]",ColorTask,118.0,73.0,,,HRV,HRV_0099,2022-11-30 18:41:33
,wl-rdm,191,676683,0.0-8.73-0.73,False,,1.0,189.0,,,,,,,[],,,,,,62.5,1.0,i,1.0,True,894.0,54.0,60.0,40.0,341.2015817659486,[],"[940.5, 444]",ColorTask,119.0,74.0,,,HRV,HRV_0099,2022-11-30 18:41:33
,wl-rdm,192,680316,0.0-8.74-0.74,False,,1.0,190.0,,,,,,,[],,,,,,50.0,1.0,i,1.0,True,2191.9000000059605,132.0,60.0,40.0,349.91675829275295,[],"[940.5, 444]",ColorTask,120.0,75.0,,,HRV,HRV_0099,2022-11-30 18:41:33
,wl-rdm,193,682832,0.0-8.75-0.75,False,,1.0,191.0,,,,,,,[],,,,,,50.0,1.0,i,1.0,True,1237.3999999910593,75.0,60.0,40.0,205.20087120423227,[],"[940.5, 444]",ColorTask,121.0,76.0,,,HRV,HRV_0099,2022-11-30 18:41:33
,wl-rdm,194,684900,0.0-8.76-0.76,False,,1.0,192.0,,,,,,,[],,,,,,73.6,0.0,u,0.0,True,668.8999999910593,41.0,60.0,40.0,302.45042332476714,[],"[940.5, 444]",ColorTask,122.0,77.0,,,HRV,HRV_0099,2022-11-30 18:41:33
,wl-rdm,195,687333,0.0-8.77-0.77,False,,1.0,193.0,,,,,,,[],,,,,,62.5,1.0,i,1.0,True,1089.9000000059605,66.0,60.0,40.0,273.2669591162353,[],"[940.5, 444]",ColorTask,123.0,78.0,,,HRV,HRV_0099,2022-11-30 18:41:33
,wl-rdm,196,689466,0.0-8.78-0.78,False,,1.0,194.0,,,,,,,[],,,,,,53.2,1.0,i,1.0,True,697.3000000119209,42.0,60.0,40.0,356.84032971257017,[],"[940.5, 444]",ColorTask,124.0,79.0,,,HRV,HRV_0099,2022-11-30 18:41:33
,wl-rdm,197,691466,0.0-8.79-0.79,False,,1.0,195.0,,,,,,,[],,,,,,87.9,1.0,i,1.0,True,625.2000000029802,38.0,60.0,40.0,298.7988756640191,[],"[940.5, 444]",ColorTask,125.0,80.0,,,HRV,HRV_0099,2022-11-30 18:41:33
,wl-rdm,198,693383,0.0-8.80-0.80,False,,1.0,196.0,,,,,,,[],,,,,,87.9,1.0,i,1.0,True,553.8999999910593,34.0,60.0,40.0,274.9521898999301,[],"[940.5, 444]",ColorTask,126.0,81.0,,,HRV,HRV_0099,2022-11-30 18:41:33
,wl-rdm,199,696016,0.0-8.81-0.81,False,,1.0,197.0,,,,,,,[],,,,,,50.0,0.0,i,1.0,False,1322.5999999940395,80.0,60.0,40.0,220.25983282131347,[],"[940.5, 444]",ColorTask,125.0,82.0,,,HRV,HRV_0099,2022-11-30 18:41:33
,wl-rdm,200,698166,0.0-8.82-0.82,False,,1.0,198.0,,,,,,,[],,,,,,87.9,1.0,i,1.0,True,732.2000000029802,44.0,60.0,40.0,346.9991414211052,[],"[940.5, 444]",ColorTask,126.0,83.0,,,HRV,HRV_0099,2022-11-30 18:41:33
,wl-rdm,201,700516,0.0-8.83-0.83,False,,1.0,199.0,,,,,,,[],,,,,,62.5,1.0,i,1.0,True,923.8000000119209,56.0,60.0,40.0,334.5935707593525,[],"[940.5, 444]",ColorTask,127.0,84.0,,,HRV,HRV_0099,2022-11-30 18:41:33
,wl-rdm,202,702633,0.0-8.84-0.84,False,,1.0,200.0,,,,,,,[],,,,,,73.6,1.0,i,1.0,True,715.2000000178814,43.0,60.0,40.0,345.59177947553707,[],"[940.5, 444]",ColorTask,128.0,85.0,,,HRV,HRV_0099,2022-11-30 18:41:33
,wl-rdm,203,706166,0.0-8.85-0.85,False,,1.0,201.0,,,,,,,[],,,,,,53.2,0.0,u,0.0,True,2212.0999999940395,133.0,60.0,40.0,241.9259691890575,[],"[940.5, 444]",ColorTask,129.0,86.0,,,HRV,HRV_0099,2022-11-30 18:41:33
,wl-rdm,204,708983,0.0-8.86-0.86,False,,1.0,202.0,,,,,,,[],,,,,,62.5,1.0,i,1.0,True,1427.9000000059605,86.0,60.0,40.0,311.93686613294443,[],"[940.5, 444]",ColorTask,130.0,87.0,,,HRV,HRV_0099,2022-11-30 18:41:33
,wl-rdm,205,711099,0.0-8.87-0.87,False,,1.0,203.0,,,,,,,[],,,,,,87.9,0.0,u,0.0,True,695.2999999970198,42.0,60.0,40.0,350.13247540965887,[],"[940.5, 444]",ColorTask,131.0,88.0,,,HRV,HRV_0099,2022-11-30 18:41:33
,wl-rdm,206,713266,0.0-8.88-0.88,False,,1.0,204.0,,,,,,,[],,,,,,87.9,0.0,u,0.0,True,735.7999999970198,45.0,60.0,40.0,349.849342987617,[],"[940.5, 444]",ColorTask,132.0,89.0,,,HRV,HRV_0099,2022-11-30 18:41:33
,wl-rdm,207,715683,0.0-8.89-0.89,False,,1.0,205.0,,,,,,,[],,,,,,53.2,0.0,i,1.0,False,1035.3999999910593,63.0,60.0,40.0,302.69540883273805,[],"[940.5, 444]",ColorTask,131.0,90.0,,,HRV,HRV_0099,2022-11-30 18:41:33
,wl-rdm,208,717750,0.0-8.90-0.90,False,,1.0,206.0,,,,,,,[],,,,,,87.9,1.0,i,1.0,True,715.9000000208616,43.0,60.0,40.0,298.49261951385705,[],"[940.5, 444]",ColorTask,132.0,91.0,,,HRV,HRV_0099,2022-11-30 18:41:33
,wl-rdm,209,720566,0.0-8.91-0.91,False,,1.0,207.0,,,,,,,[],,,,,,56.4,1.0,i,1.0,True,1492.5000000149012,90.0,60.0,40.0,251.6479312890802,[],"[940.5, 444]",ColorTask,133.0,92.0,,,HRV,HRV_0099,2022-11-30 18:41:33
,wl-rdm,210,723099,0.0-8.92-0.92,False,,1.0,208.0,,,,,,,[],,,,,,56.4,0.0,u,0.0,True,1226.0,74.0,60.0,40.0,232.57201460275934,[],"[940.5, 444]",ColorTask,134.0,93.0,,,HRV,HRV_0099,2022-11-30 18:41:33
,wl-rdm,211,725199,0.0-8.93-0.93,False,,1.0,209.0,,,,,,,[],,,,,,87.9,0.0,u,0.0,True,681.4000000059605,41.0,60.0,40.0,347.18927262757927,[],"[940.5, 444]",ColorTask,135.0,94.0,,,HRV,HRV_0099,2022-11-30 18:41:33
,wl-rdm,212,727649,0.0-8.94-0.94,False,,1.0,210.0,,,,,,,[],,,,,,56.4,0.0,u,0.0,True,974.0999999940395,59.0,60.0,40.0,388.0312347291149,[],"[940.5, 444]",ColorTask,136.0,95.0,,,HRV,HRV_0099,2022-11-30 18:41:33
,wl-rdm,213,729768,0.0-8.95-0.95,False,,1.0,211.0,,,,,,,[],,,,,,62.5,1.0,i,1.0,True,727.1000000089407,44.0,60.0,40.0,316.3229724161322,[],"[940.5, 444]",ColorTask,137.0,96.0,,,HRV,HRV_0099,2022-11-30 18:41:33
,wl-rdm,214,732216,0.0-8.96-0.96,False,,1.0,212.0,,,,,,,[],,,,,,62.5,1.0,i,1.0,True,1093.5999999940395,66.0,60.0,40.0,289.76223827607305,[],"[940.5, 444]",ColorTask,138.0,97.0,,,HRV,HRV_0099,2022-11-30 18:41:33
,wl-rdm,215,734483,0.0-8.97-0.97,False,,1.0,213.0,,,,,,,[],,,,,,73.6,0.0,u,0.0,True,815.5,49.0,60.0,40.0,398.40177343714026,[],"[940.5, 444]",ColorTask,139.0,98.0,,,HRV,HRV_0099,2022-11-30 18:41:33
,wl-rdm,216,736900,0.0-8.98-0.98,False,,1.0,214.0,,,,,,,[],,,,,,53.2,1.0,u,0.0,False,1075.2000000029802,65.0,60.0,40.0,257.03925308111525,[],"[940.5, 444]",ColorTask,138.0,99.0,,,HRV,HRV_0099,2022-11-30 18:41:33
,wl-rdm,217,739533,0.0-8.99-0.99,False,,1.0,215.0,,,,,,,[],,,,,,50.0,0.0,u,0.0,True,1308.6000000089407,79.0,60.0,40.0,236.88554081664535,[],"[940.5, 444]",ColorTask,139.0,100.0,,,HRV,HRV_0099,2022-11-30 18:41:33
,wl-rdm,218,741666,0.0-8.100-0.100,False,,1.0,216.0,,,,,,,[],,,,,,73.6,1.0,i,1.0,True,796.3000000119209,48.0,60.0,40.0,266.75223809129506,[],"[940.5, 444]",ColorTask,140.0,101.0,,,HRV,HRV_0099,2022-11-30 18:41:33
,wl-rdm,219,744316,0.0-8.101-0.101,False,,1.0,217.0,,,,,,,[],,,,,,62.5,0.0,u,0.0,True,1333.0,80.0,60.0,40.0,247.00390076985948,[],"[940.5, 444]",ColorTask,141.0,102.0,,,HRV,HRV_0099,2022-11-30 18:41:33
,wl-rdm,220,746866,0.0-8.102-0.102,False,,1.0,218.0,,,,,,,[],,,,,,50.0,0.0,i,1.0,False,1208.6000000089407,73.0,60.0,40.0,255.26248446802362,[],"[940.5, 444]",ColorTask,140.0,103.0,,,HRV,HRV_0099,2022-11-30 18:41:33
,wl-rdm,221,749184,0.0-8.103-0.103,False,,1.0,219.0,,,,,,,[],,,,,,73.6,0.0,u,0.0,True,835.5000000149012,51.0,60.0,40.0,396.87231361352633,[],"[940.5, 444]",ColorTask,141.0,104.0,,,HRV,HRV_0099,2022-11-30 18:41:33
,wl-rdm,222,753266,0.0-8.104-0.104,False,,1.0,220.0,,,,,,,[],,,,,,50.0,1.0,i,1.0,True,2651.999999985099,160.0,60.0,40.0,344.7254350211798,[],"[940.5, 444]",ColorTask,142.0,105.0,,,HRV,HRV_0099,2022-11-30 18:41:33
,wl-rdm,223,756766,0.0-8.105-0.105,False,,1.0,221.0,,,,,,,[],,,,,,50.0,1.0,i,1.0,True,2126.800000011921,128.0,60.0,40.0,283.60930519790014,[],"[940.5, 444]",ColorTask,143.0,106.0,,,HRV,HRV_0099,2022-11-30 18:41:33
,wl-rdm,224,758899,0.0-8.106-0.106,False,,1.0,222.0,,,,,,,[],,,,,,87.9,1.0,i,1.0,True,846.0999999940395,51.0,60.0,40.0,215.531655871823,[],"[940.5, 444]",ColorTask,144.0,107.0,,,HRV,HRV_0099,2022-11-30 18:41:33
,wl-rdm,225,761816,0.0-8.107-0.107,False,,1.0,223.0,,,,,,,[],,,,,,50.0,1.0,u,0.0,False,1585.0999999940395,96.0,60.0,40.0,262.8628822206741,[],"[940.5, 444]",ColorTask,143.0,108.0,,,HRV,HRV_0099,2022-11-30 18:41:33
,wl-html-button-response,226,764563,0.0-9.0-0.0,,,,,,,,,,,,2744.1000000089407,,0,,,,,,,,,,,,,,,,,,<h3>End of this session. Thank you!</h3><br>,['Close window'],HRV,HRV_0099,2022-11-30 18:41:33
