trialN,stimuli,trialStartTime,trialStartTime_UNIX,stimulus1,stimulus2,stimulus1Bid,stimulus2Bid,delta,selected,rt,rt_UNIX,rt_perfnow,receivedResponse,rsp,trialEndTime,trialDuration,trialEndTime_UNIX,trialDuration_UNIX,exp,subjectId,date
0,"[{'imgObject': {}, 'id': 'hotdog w must', 'src': '/static/foodstim60/hotdog w must.jpg', 'key': 'u', 'origWidth': 409, 'origHeight': 409, 'width': 409, 'height': 409, 'widthPercent': 0.45, 'rescaleHeight': False, 'trialN': 0, 'loaded': True, 'loadedTime': 6552.79999999702, 'positionName': 'LEFT', 'positionCoords': [493.88, 239.5], 'bid': 5.53}, {'imgObject': {}, 'id': 'froot loops w milk', 'src': '/static/foodstim60/froot loops w milk.jpg', 'key': 'i', 'origWidth': 410, 'origHeight': 410, 'width': 410, 'height': 410, 'widthPercent': 0.45, 'rescaleHeight': False, 'trialN': 0, 'loaded': True, 'loadedTime': 6561.0999999940395, 'positionName': 'RIGHT', 'positionCoords': [978.12, 239], 'bid': 6.97}]",6830.29999999702,1669832524397,hotdog w must,froot loops w milk,5.53,6.97,1.4399999999999995,hotdog w must,1869.2999999970198,1870,1870.2999999970198,True,u,9207.70000000298,2377.4000000059605,1669832526774,2377,HRV,HRV_0099,2022-11-30 18:28:44
1,"[{'imgObject': {}, 'id': 'cherries', 'src': '/static/foodstim60/cherries.jpg', 'key': 'u', 'origWidth': 410, 'origHeight': 411, 'width': 410, 'height': 411, 'widthPercent': 0.45, 'rescaleHeight': False, 'trialN': 1, 'loaded': True, 'loadedTime': 6564.5, 'positionName': 'LEFT', 'positionCoords': [492.88, 238.5], 'bid': 3.14}, {'imgObject': {}, 'id': 'edamame', 'src': '/static/foodstim60/edamame.jpg', 'key': 'i', 'origWidth': 409, 'origHeight': 410, 'width': 409, 'height': 410, 'widthPercent': 0.45, 'rescaleHeight': False, 'trialN': 1, 'loaded': True, 'loadedTime': 6568.4000000059605, 'positionName': 'RIGHT', 'positionCoords': [978.12, 239], 'bid': 2.08}]",9208.09999999404,1669832526774,cherries,edamame,3.14,2.08,-1.06,cherries,1408.5,1410,1409.300000011921,True,u,11119.09999999404,1911.0,1669832528686,1912,HRV,HRV_0099,2022-11-30 18:28:44
2,"[{'imgObject': {}, 'id': 'burger', 'src': '/static/foodstim60/burger.jpg', 'key': 'u', 'origWidth': 409, 'origHeight': 409, 'width': 409, 'height': 409, 'widthPercent': 0.45, 'rescaleHeight': False, 'trialN': 2, 'loaded': True, 'loadedTime': 6573.5, 'positionName': 'LEFT', 'positionCoords': [493.88, 239.5], 'bid': 5.71}, {'imgObject': {}, 'id': 'sushi w_condiments', 'src': '/static/foodstim60/sushi w_condiments.jpg', 'key': 'i', 'origWidth': 410, 'origHeight': 410, 'width': 410, 'height': 410, 'widthPercent': 0.45, 'rescaleHeight': False, 'trialN': 2, 'loaded': True, 'loadedTime': 6578.4000000059605, 'positionName': 'RIGHT', 'positionCoords': [978.12, 239], 'bid': 1.9}]",11119.5,1669832528686,burger,sushi w_condiments,5.71,1.9,-3.81,burger,781.2000000029802,782,782.0,True,u,12408.70000000298,1289.2000000029802,1669832529975,1289,HRV,HRV_0099,2022-11-30 18:28:44
3,"[{'imgObject': {}, 'id': 'orange slices', 'src': '/static/foodstim60/orange slices.jpg', 'key': 'u', 'origWidth': 409, 'origHeight': 410, 'width': 409, 'height': 410, 'widthPercent': 0.45, 'rescaleHeight': False, 'trialN': 3, 'loaded': True, 'loadedTime': 6581.9000000059605, 'positionName': 'LEFT', 'positionCoords': [493.88, 239], 'bid': 4.54}, {'imgObject': {}, 'id': 'yogurt no spoon', 'src': '/static/foodstim60/yogurt no spoon.jpg', 'key': 'i', 'origWidth': 411, 'origHeight': 410, 'width': 411, 'height': 410, 'widthPercent': 0.45, 'rescaleHeight': False, 'trialN': 3, 'loaded': True, 'loadedTime': 6585.20000000298, 'positionName': 'RIGHT', 'positionCoords': [978.12, 239], 'bid': 5.78}]",12409.0,1669832529975,orange slices,yogurt no spoon,4.54,5.78,1.2400000000000002,yogurt no spoon,1324.7000000029802,1326,1325.4000000059605,True,i,14246.20000000298,1837.2000000029802,1669832531813,1838,HRV,HRV_0099,2022-11-30 18:28:44
4,"[{'imgObject': {}, 'id': 'ice cream sundae 002', 'src': '/static/foodstim60/ice cream sundae 002.jpg', 'key': 'u', 'origWidth': 409, 'origHeight': 409, 'width': 409, 'height': 409, 'widthPercent': 0.45, 'rescaleHeight': False, 'trialN': 4, 'loaded': True, 'loadedTime': 6588.0999999940395, 'positionName': 'LEFT', 'positionCoords': [493.88, 239.5], 'bid': 4.11}, {'imgObject': {}, 'id': 'cantaloupe', 'src': '/static/foodstim60/cantaloupe.jpg', 'key': 'i', 'origWidth': 409, 'origHeight': 409, 'width': 409, 'height': 409, 'widthPercent': 0.45, 'rescaleHeight': False, 'trialN': 4, 'loaded': True, 'loadedTime': 6591.4000000059605, 'positionName': 'RIGHT', 'positionCoords': [978.12, 239.5], 'bid': 3.41}]",14246.5,1669832531813,ice cream sundae 002,cantaloupe,4.11,3.41,-0.7000000000000002,ice cream sundae 002,1412.0,1413,1412.5999999940395,True,u,16169.29999999702,1922.7999999970198,1669832533736,1923,HRV,HRV_0099,2022-11-30 18:28:44
5,"[{'imgObject': {}, 'id': 'froot loops w milk', 'src': '/static/foodstim60/froot loops w milk.jpg', 'key': 'u', 'origWidth': 410, 'origHeight': 410, 'width': 410, 'height': 410, 'widthPercent': 0.45, 'rescaleHeight': False, 'trialN': 5, 'loaded': True, 'loadedTime': 6561.79999999702, 'positionName': 'LEFT', 'positionCoords': [492.88, 239], 'bid': 6.97}, {'imgObject': {}, 'id': 'mac & cheese', 'src': '/static/foodstim60/mac & cheese.jpg', 'key': 'i', 'origWidth': 410, 'origHeight': 410, 'width': 410, 'height': 410, 'widthPercent': 0.45, 'rescaleHeight': False, 'trialN': 5, 'loaded': True, 'loadedTime': 6597.9000000059605, 'positionName': 'RIGHT', 'positionCoords': [978.12, 239], 'bid': 6.83}]",16169.59999999404,1669832533736,froot loops w milk,mac & cheese,6.97,6.83,-0.13999999999999968,mac & cheese,897.2000000029802,898,897.9000000059605,True,i,17580.5,1410.9000000059605,1669832535147,1411,HRV,HRV_0099,2022-11-30 18:28:44
6,"[{'imgObject': {}, 'id': 'bagel and cc', 'src': '/static/foodstim60/bagel and cc.jpg', 'key': 'u', 'origWidth': 410, 'origHeight': 410, 'width': 410, 'height': 410, 'widthPercent': 0.45, 'rescaleHeight': False, 'trialN': 6, 'loaded': True, 'loadedTime': 6607.5999999940395, 'positionName': 'LEFT', 'positionCoords': [492.88, 239], 'bid': 8.47}, {'imgObject': {}, 'id': 'rigatoni and sauce', 'src': '/static/foodstim60/rigatoni and sauce.jpg', 'key': 'i', 'origWidth': 410, 'origHeight': 411, 'width': 410, 'height': 411, 'widthPercent': 0.45, 'rescaleHeight': False, 'trialN': 6, 'loaded': True, 'loadedTime': 6618.5999999940395, 'positionName': 'RIGHT', 'positionCoords': [978.12, 238.5], 'bid': 6.67}]",17580.90000000596,1669832535147,bagel and cc,rigatoni and sauce,8.47,6.67,-1.8000000000000007,bagel and cc,974.8999999910593,976,975.6999999880791,True,u,19071.5,1490.5999999940395,1669832536638,1491,HRV,HRV_0099,2022-11-30 18:28:44
7,"[{'imgObject': {}, 'id': 'baked potato', 'src': '/static/foodstim60/baked potato.jpg', 'key': 'u', 'origWidth': 409, 'origHeight': 410, 'width': 409, 'height': 410, 'widthPercent': 0.45, 'rescaleHeight': False, 'trialN': 7, 'loaded': True, 'loadedTime': 6619.9000000059605, 'positionName': 'LEFT', 'positionCoords': [493.88, 239], 'bid': 8.92}, {'imgObject': {}, 'id': 'bagel and cc', 'src': '/static/foodstim60/bagel and cc.jpg', 'key': 'i', 'origWidth': 410, 'origHeight': 410, 'width': 410, 'height': 410, 'widthPercent': 0.45, 'rescaleHeight': False, 'trialN': 7, 'loaded': True, 'loadedTime': 6599.5999999940395, 'positionName': 'RIGHT', 'positionCoords': [978.12, 239], 'bid': 8.47}]",19071.79999999702,1669832536638,baked potato,bagel and cc,8.92,8.47,-0.4499999999999993,baked potato,978.9000000059605,980,979.5,True,u,20562.5,1490.7000000029802,1669832538129,1491,HRV,HRV_0099,2022-11-30 18:28:44
8,"[{'imgObject': {}, 'id': 'rigatoni and sauce', 'src': '/static/foodstim60/rigatoni and sauce.jpg', 'key': 'u', 'origWidth': 410, 'origHeight': 411, 'width': 410, 'height': 411, 'widthPercent': 0.45, 'rescaleHeight': False, 'trialN': 8, 'loaded': True, 'loadedTime': 6618.70000000298, 'positionName': 'LEFT', 'positionCoords': [492.88, 238.5], 'bid': 6.67}, {'imgObject': {}, 'id': 'fried eggs', 'src': '/static/foodstim60/fried eggs.jpg', 'key': 'i', 'origWidth': 410, 'origHeight': 410, 'width': 410, 'height': 410, 'widthPercent': 0.45, 'rescaleHeight': False, 'trialN': 8, 'loaded': True, 'loadedTime': 6632.4000000059605, 'positionName': 'RIGHT', 'positionCoords': [978.12, 239], 'bid': 6.61}]",20562.70000000298,1669832538129,rigatoni and sauce,fried eggs,6.67,6.61,-0.05999999999999961,rigatoni and sauce,1304.0,1305,1304.7000000029802,True,u,22383.5,1820.7999999970198,1669832539950,1821,HRV,HRV_0099,2022-11-30 18:28:44
9,"[{'imgObject': {}, 'id': 'mac & cheese', 'src': '/static/foodstim60/mac & cheese.jpg', 'key': 'u', 'origWidth': 410, 'origHeight': 410, 'width': 410, 'height': 410, 'widthPercent': 0.45, 'rescaleHeight': False, 'trialN': 9, 'loaded': True, 'loadedTime': 6593.70000000298, 'positionName': 'LEFT', 'positionCoords': [492.88, 239], 'bid': 6.83}, {'imgObject': {}, 'id': 'turkeysandwich', 'src': '/static/foodstim60/turkeysandwich.jpg', 'key': 'i', 'origWidth': 409, 'origHeight': 409, 'width': 409, 'height': 409, 'widthPercent': 0.45, 'rescaleHeight': False, 'trialN': 9, 'loaded': True, 'loadedTime': 6638.9000000059605, 'positionName': 'RIGHT', 'positionCoords': [978.12, 239.5], 'bid': 8.59}]",22383.90000000596,1669832539950,mac & cheese,turkeysandwich,6.83,8.59,1.7599999999999998,turkeysandwich,1665.5999999940395,1666,1666.199999988079,True,i,24560.40000000596,2176.5,1669832542127,2177,HRV,HRV_0099,2022-11-30 18:28:44
10,"[{'imgObject': {}, 'id': 'lox', 'src': '/static/foodstim60/lox.jpg', 'key': 'u', 'origWidth': 410, 'origHeight': 411, 'width': 410, 'height': 411, 'widthPercent': 0.45, 'rescaleHeight': False, 'trialN': 10, 'loaded': True, 'loadedTime': 6641.79999999702, 'positionName': 'LEFT', 'positionCoords': [492.88, 238.5], 'bid': 3.18}, {'imgObject': {}, 'id': 'cocktailshrimp', 'src': '/static/foodstim60/cocktailshrimp.jpg', 'key': 'i', 'origWidth': 410, 'origHeight': 410, 'width': 410, 'height': 410, 'widthPercent': 0.45, 'rescaleHeight': False, 'trialN': 10, 'loaded': True, 'loadedTime': 6651.29999999702, 'positionName': 'RIGHT', 'positionCoords': [978.12, 239], 'bid': 3.14}]",24560.90000000596,1669832542127,lox,cocktailshrimp,3.18,3.14,-0.040000000000000036,lox,1365.699999988079,1367,1366.3999999910593,True,u,26438.5,1877.5999999940395,1669832544005,1878,HRV,HRV_0099,2022-11-30 18:28:44
11,"[{'imgObject': {}, 'id': 'eggsalad', 'src': '/static/foodstim60/eggsalad.jpg', 'key': 'u', 'origWidth': 410, 'origHeight': 409, 'width': 410, 'height': 409, 'widthPercent': 0.45, 'rescaleHeight': False, 'trialN': 11, 'loaded': True, 'loadedTime': 6658.4000000059605, 'positionName': 'LEFT', 'positionCoords': [492.88, 239.5], 'bid': 6.5600000000000005}, {'imgObject': {}, 'id': 'cherries', 'src': '/static/foodstim60/cherries.jpg', 'key': 'i', 'origWidth': 410, 'origHeight': 411, 'width': 410, 'height': 411, 'widthPercent': 0.45, 'rescaleHeight': False, 'trialN': 11, 'loaded': True, 'loadedTime': 6565, 'positionName': 'RIGHT', 'positionCoords': [978.12, 238.5], 'bid': 3.14}]",26438.70000000298,1669832544005,eggsalad,cherries,6.5600000000000005,3.14,-3.4200000000000004,eggsalad,1111.8999999910593,1113,1112.3999999910593,True,u,28058.0,1619.2999999970198,1669832545624,1619,HRV,HRV_0099,2022-11-30 18:28:44
12,"[{'imgObject': {}, 'id': 'pear', 'src': '/static/foodstim60/pear.jpg', 'key': 'u', 'origWidth': 411, 'origHeight': 410, 'width': 411, 'height': 410, 'widthPercent': 0.45, 'rescaleHeight': False, 'trialN': 12, 'loaded': True, 'loadedTime': 6664.5, 'positionName': 'LEFT', 'positionCoords': [491.88, 239], 'bid': 3.3200000000000003}, {'imgObject': {}, 'id': 'raisin bran w milk', 'src': '/static/foodstim60/raisin bran w milk.jpg', 'key': 'i', 'origWidth': 411, 'origHeight': 411, 'width': 411, 'height': 411, 'widthPercent': 0.45, 'rescaleHeight': False, 'trialN': 12, 'loaded': True, 'loadedTime': 6665.0999999940395, 'positionName': 'RIGHT', 'positionCoords': [978.12, 238.5], 'bid': 3.22}]",28058.29999999702,1669832545625,pear,raisin bran w milk,3.3200000000000003,3.22,-0.10000000000000009,pear,1362.5,1363,1363.2999999970198,True,u,29928.29999999702,1870.0,1669832547495,1870,HRV,HRV_0099,2022-11-30 18:28:44
13,"[{'imgObject': {}, 'id': 'avocado', 'src': '/static/foodstim60/avocado.jpg', 'key': 'u', 'origWidth': 409, 'origHeight': 409, 'width': 409, 'height': 409, 'widthPercent': 0.45, 'rescaleHeight': False, 'trialN': 13, 'loaded': True, 'loadedTime': 6678.0999999940395, 'positionName': 'LEFT', 'positionCoords': [493.88, 239.5], 'bid': 2.16}, {'imgObject': {}, 'id': 'corn cob', 'src': '/static/foodstim60/corn cob.jpg', 'key': 'i', 'origWidth': 411, 'origHeight': 411, 'width': 411, 'height': 411, 'widthPercent': 0.45, 'rescaleHeight': False, 'trialN': 13, 'loaded': True, 'loadedTime': 6684.9000000059605, 'positionName': 'RIGHT', 'positionCoords': [978.12, 238.5], 'bid': 5.91}]",29928.59999999404,1669832547495,avocado,corn cob,2.16,5.91,3.75,corn cob,882.9000000059605,884,883.7000000029802,True,i,31321.29999999702,1392.7000000029802,1669832548888,1393,HRV,HRV_0099,2022-11-30 18:28:44
14,"[{'imgObject': {}, 'id': 'popsicles', 'src': '/static/foodstim60/popsicles.jpg', 'key': 'u', 'origWidth': 410, 'origHeight': 410, 'width': 410, 'height': 410, 'widthPercent': 0.45, 'rescaleHeight': False, 'trialN': 14, 'loaded': True, 'loadedTime': 6686.20000000298, 'positionName': 'LEFT', 'positionCoords': [492.88, 239], 'bid': 3.97}, {'imgObject': {}, 'id': 'mashed potato', 'src': '/static/foodstim60/mashed potato.jpg', 'key': 'i', 'origWidth': 409, 'origHeight': 409, 'width': 409, 'height': 409, 'widthPercent': 0.45, 'rescaleHeight': False, 'trialN': 14, 'loaded': True, 'loadedTime': 6692.20000000298, 'positionName': 'RIGHT', 'positionCoords': [978.12, 239.5], 'bid': 7.38}]",31321.59999999404,1669832548888,popsicles,mashed potato,3.97,7.38,3.4099999999999997,mashed potato,881.2000000029802,882,881.9000000059605,True,i,32716.70000000298,1395.1000000089407,1669832550283,1395,HRV,HRV_0099,2022-11-30 18:28:44
15,"[{'imgObject': {}, 'id': 'salad w chicken', 'src': '/static/foodstim60/salad w chicken.jpg', 'key': 'u', 'origWidth': 411, 'origHeight': 411, 'width': 411, 'height': 411, 'widthPercent': 0.45, 'rescaleHeight': False, 'trialN': 15, 'loaded': True, 'loadedTime': 6692.70000000298, 'positionName': 'LEFT', 'positionCoords': [491.88, 238.5], 'bid': 8.69}, {'imgObject': {}, 'id': 'raspberries', 'src': '/static/foodstim60/raspberries.jpg', 'key': 'i', 'origWidth': 411, 'origHeight': 411, 'width': 411, 'height': 411, 'widthPercent': 0.45, 'rescaleHeight': False, 'trialN': 15, 'loaded': True, 'loadedTime': 6707.70000000298, 'positionName': 'RIGHT', 'positionCoords': [978.12, 238.5], 'bid': 5.16}]",32716.90000000596,1669832550283,salad w chicken,raspberries,8.69,5.16,-3.5299999999999994,salad w chicken,691.0,692,691.6999999880791,True,u,33909.5,1192.5999999940395,1669832551476,1193,HRV,HRV_0099,2022-11-30 18:28:44
16,"[{'imgObject': {}, 'id': 'blueberries', 'src': '/static/foodstim60/blueberries.jpg', 'key': 'u', 'origWidth': 411, 'origHeight': 411, 'width': 411, 'height': 411, 'widthPercent': 0.45, 'rescaleHeight': False, 'trialN': 16, 'loaded': True, 'loadedTime': 6708.70000000298, 'positionName': 'LEFT', 'positionCoords': [491.88, 238.5], 'bid': 5.54}, {'imgObject': {}, 'id': 'Tribe humus pita', 'src': '/static/foodstim60/Tribe humus pita.jpg', 'key': 'i', 'origWidth': 411, 'origHeight': 411, 'width': 411, 'height': 411, 'widthPercent': 0.45, 'rescaleHeight': False, 'trialN': 16, 'loaded': True, 'loadedTime': 6720.29999999702, 'positionName': 'RIGHT', 'positionCoords': [978.12, 238.5], 'bid': 5.44}]",33909.70000000298,1669832551476,blueberries,Tribe humus pita,5.54,5.44,-0.09999999999999964,Tribe humus pita,1880.5,1881,1881.0999999940395,True,i,36299.59999999404,2389.8999999910593,1669832553866,2390,HRV,HRV_0099,2022-11-30 18:28:44
17,"[{'imgObject': {}, 'id': 'turkeysandwich', 'src': '/static/foodstim60/turkeysandwich.jpg', 'key': 'u', 'origWidth': 409, 'origHeight': 409, 'width': 409, 'height': 409, 'widthPercent': 0.45, 'rescaleHeight': False, 'trialN': 17, 'loaded': True, 'loadedTime': 6640.0999999940395, 'positionName': 'LEFT', 'positionCoords': [493.88, 239.5], 'bid': 8.59}, {'imgObject': {}, 'id': 'omelette', 'src': '/static/foodstim60/omelette.jpg', 'key': 'i', 'origWidth': 410, 'origHeight': 409, 'width': 410, 'height': 409, 'widthPercent': 0.45, 'rescaleHeight': False, 'trialN': 17, 'loaded': True, 'loadedTime': 6720.79999999702, 'positionName': 'RIGHT', 'positionCoords': [978.12, 239.5], 'bid': 8.65}]",36299.90000000596,1669832553866,turkeysandwich,omelette,8.59,8.65,0.0600000000000005,turkeysandwich,616.7999999970198,618,617.5,True,u,37429.20000000298,1129.2999999970198,1669832554996,1130,HRV,HRV_0099,2022-11-30 18:28:44
18,"[{'imgObject': {}, 'id': 'froot loops w milk', 'src': '/static/foodstim60/froot loops w milk.jpg', 'key': 'u', 'origWidth': 410, 'origHeight': 410, 'width': 410, 'height': 410, 'widthPercent': 0.45, 'rescaleHeight': False, 'trialN': 18, 'loaded': True, 'loadedTime': 6561.29999999702, 'positionName': 'LEFT', 'positionCoords': [492.88, 239], 'bid': 6.97}, {'imgObject': {}, 'id': 'luckycharms', 'src': '/static/foodstim60/luckycharms.jpg', 'key': 'i', 'origWidth': 410, 'origHeight': 409, 'width': 410, 'height': 409, 'widthPercent': 0.45, 'rescaleHeight': False, 'trialN': 18, 'loaded': True, 'loadedTime': 6723.79999999702, 'positionName': 'RIGHT', 'positionCoords': [978.12, 239.5], 'bid': 6.49}]",37429.5,1669832554996,froot loops w milk,luckycharms,6.97,6.49,-0.47999999999999954,luckycharms,1442.2000000029802,1443,1443.0999999940395,True,i,39375.70000000298,1946.2000000029802,1669832556942,1946,HRV,HRV_0099,2022-11-30 18:28:44
19,"[{'imgObject': {}, 'id': 'lox', 'src': '/static/foodstim60/lox.jpg', 'key': 'u', 'origWidth': 410, 'origHeight': 411, 'width': 410, 'height': 411, 'widthPercent': 0.45, 'rescaleHeight': False, 'trialN': 19, 'loaded': True, 'loadedTime': 6646.4000000059605, 'positionName': 'LEFT', 'positionCoords': [492.88, 238.5], 'bid': 3.18}, {'imgObject': {}, 'id': 'olives', 'src': '/static/foodstim60/olives.jpg', 'key': 'i', 'origWidth': 410, 'origHeight': 410, 'width': 410, 'height': 410, 'widthPercent': 0.45, 'rescaleHeight': False, 'trialN': 19, 'loaded': True, 'loadedTime': 6729.29999999702, 'positionName': 'RIGHT', 'positionCoords': [978.12, 239], 'bid': 0.86}]",39375.90000000596,1669832556942,lox,olives,3.18,0.86,-2.3200000000000003,lox,1096.8999999910593,1098,1097.7999999970198,True,u,40977.79999999702,1601.8999999910593,1669832558544,1602,HRV,HRV_0099,2022-11-30 18:28:44
20,"[{'imgObject': {}, 'id': 'fruitsalad', 'src': '/static/foodstim60/fruitsalad.jpg', 'key': 'u', 'origWidth': 410, 'origHeight': 410, 'width': 410, 'height': 410, 'widthPercent': 0.45, 'rescaleHeight': False, 'trialN': 20, 'loaded': True, 'loadedTime': 6729.5, 'positionName': 'LEFT', 'positionCoords': [492.88, 239], 'bid': 4.5200000000000005}, {'imgObject': {}, 'id': 'bagel and cc', 'src': '/static/foodstim60/bagel and cc.jpg', 'key': 'i', 'origWidth': 410, 'origHeight': 410, 'width': 410, 'height': 410, 'widthPercent': 0.45, 'rescaleHeight': False, 'trialN': 20, 'loaded': True, 'loadedTime': 6611.79999999702, 'positionName': 'RIGHT', 'positionCoords': [978.12, 239], 'bid': 8.47}]",40978.20000000298,1669832558545,fruitsalad,bagel and cc,4.5200000000000005,8.47,3.95,bagel and cc,898.2999999970198,899,898.8999999910593,True,i,42378.09999999404,1399.8999999910593,1669832559945,1400,HRV,HRV_0099,2022-11-30 18:28:44
21,"[{'imgObject': {}, 'id': 'hashbrowns', 'src': '/static/foodstim60/hashbrowns.jpg', 'key': 'u', 'origWidth': 411, 'origHeight': 410, 'width': 411, 'height': 410, 'widthPercent': 0.45, 'rescaleHeight': False, 'trialN': 21, 'loaded': True, 'loadedTime': 6740.70000000298, 'positionName': 'LEFT', 'positionCoords': [491.88, 239], 'bid': 2.54}, {'imgObject': {}, 'id': 'rigatoni', 'src': '/static/foodstim60/rigatoni.jpg', 'key': 'i', 'origWidth': 411, 'origHeight': 411, 'width': 411, 'height': 411, 'widthPercent': 0.45, 'rescaleHeight': False, 'trialN': 21, 'loaded': True, 'loadedTime': 6747.5, 'positionName': 'RIGHT', 'positionCoords': [978.12, 238.5], 'bid': 6.03}]",42378.5,1669832559945,hashbrowns,rigatoni,2.54,6.03,3.49,rigatoni,2550.2000000029802,2551,2551.0,True,i,45441.79999999702,3063.2999999970198,1669832563008,3063,HRV,HRV_0099,2022-11-30 18:28:44
22,"[{'imgObject': {}, 'id': 'bagel plain', 'src': '/static/foodstim60/bagel plain.jpg', 'key': 'u', 'origWidth': 410, 'origHeight': 410, 'width': 410, 'height': 410, 'widthPercent': 0.45, 'rescaleHeight': False, 'trialN': 22, 'loaded': True, 'loadedTime': 6755.29999999702, 'positionName': 'LEFT', 'positionCoords': [492.88, 239], 'bid': 7.17}, {'imgObject': {}, 'id': 'chickenfingers', 'src': '/static/foodstim60/chickenfingers.jpg', 'key': 'i', 'origWidth': 410, 'origHeight': 410, 'width': 410, 'height': 410, 'widthPercent': 0.45, 'rescaleHeight': False, 'trialN': 22, 'loaded': True, 'loadedTime': 6756, 'positionName': 'RIGHT', 'positionCoords': [978.12, 239], 'bid': 8.73}]",45442.0,1669832563008,bagel plain,chickenfingers,7.17,8.73,1.5600000000000005,chickenfingers,1176.5999999940395,1178,1177.2999999970198,True,i,47122.90000000596,1680.9000000059605,1669832564689,1681,HRV,HRV_0099,2022-11-30 18:28:44
23,"[{'imgObject': {}, 'id': 'sushi w_condiments', 'src': '/static/foodstim60/sushi w_condiments.jpg', 'key': 'u', 'origWidth': 410, 'origHeight': 410, 'width': 410, 'height': 410, 'widthPercent': 0.45, 'rescaleHeight': False, 'trialN': 23, 'loaded': True, 'loadedTime': 6579.29999999702, 'positionName': 'LEFT', 'positionCoords': [492.88, 239], 'bid': 1.9}, {'imgObject': {}, 'id': 'cherry tomato', 'src': '/static/foodstim60/cherry tomato.jpg', 'key': 'i', 'origWidth': 410, 'origHeight': 410, 'width': 410, 'height': 410, 'widthPercent': 0.45, 'rescaleHeight': False, 'trialN': 23, 'loaded': True, 'loadedTime': 6768.4000000059605, 'positionName': 'RIGHT', 'positionCoords': [978.12, 239], 'bid': 1.74}]",47123.0,1669832564689,sushi w_condiments,cherry tomato,1.9,1.74,-0.15999999999999992,cherry tomato,1586.7000000029802,1588,1587.2999999970198,True,i,49221.29999999702,2098.2999999970198,1669832566788,2099,HRV,HRV_0099,2022-11-30 18:28:44
24,"[{'imgObject': {}, 'id': 'froot loops w milk', 'src': '/static/foodstim60/froot loops w milk.jpg', 'key': 'u', 'origWidth': 410, 'origHeight': 410, 'width': 410, 'height': 410, 'widthPercent': 0.45, 'rescaleHeight': False, 'trialN': 24, 'loaded': True, 'loadedTime': 6560.70000000298, 'positionName': 'LEFT', 'positionCoords': [492.88, 239], 'bid': 6.97}, {'imgObject': {}, 'id': 'bagel plain', 'src': '/static/foodstim60/bagel plain.jpg', 'key': 'i', 'origWidth': 410, 'origHeight': 410, 'width': 410, 'height': 410, 'widthPercent': 0.45, 'rescaleHeight': False, 'trialN': 24, 'loaded': True, 'loadedTime': 6748.4000000059605, 'positionName': 'RIGHT', 'positionCoords': [978.12, 239], 'bid': 7.17}]",49221.5,1669832566788,froot loops w milk,bagel plain,6.97,7.17,0.20000000000000018,bagel plain,805.2000000029802,806,805.9000000059605,True,i,50539.29999999702,1317.7999999970198,1669832568106,1318,HRV,HRV_0099,2022-11-30 18:28:44
25,"[{'imgObject': {}, 'id': 'seaweed', 'src': '/static/foodstim60/seaweed.jpg', 'key': 'u', 'origWidth': 410, 'origHeight': 410, 'width': 410, 'height': 410, 'widthPercent': 0.45, 'rescaleHeight': False, 'trialN': 25, 'loaded': True, 'loadedTime': 6770.29999999702, 'positionName': 'LEFT', 'positionCoords': [492.88, 239], 'bid': 0.8300000000000001}, {'imgObject': {}, 'id': 'cherries', 'src': '/static/foodstim60/cherries.jpg', 'key': 'i', 'origWidth': 410, 'origHeight': 411, 'width': 410, 'height': 411, 'widthPercent': 0.45, 'rescaleHeight': False, 'trialN': 25, 'loaded': True, 'loadedTime': 6563.4000000059605, 'positionName': 'RIGHT', 'positionCoords': [978.12, 238.5], 'bid': 3.14}]",50539.5,1669832568106,seaweed,cherries,0.8300000000000001,3.14,2.31,cherries,1803.2999999970198,1804,1804.0,True,i,52851.0,2311.5,1669832570417,2311,HRV,HRV_0099,2022-11-30 18:28:44
26,"[{'imgObject': {}, 'id': 'baked potato', 'src': '/static/foodstim60/baked potato.jpg', 'key': 'u', 'origWidth': 409, 'origHeight': 410, 'width': 409, 'height': 410, 'widthPercent': 0.45, 'rescaleHeight': False, 'trialN': 26, 'loaded': True, 'loadedTime': 6621, 'positionName': 'LEFT', 'positionCoords': [493.88, 239], 'bid': 8.92}, {'imgObject': {}, 'id': 'mashed potato', 'src': '/static/foodstim60/mashed potato.jpg', 'key': 'i', 'origWidth': 409, 'origHeight': 409, 'width': 409, 'height': 409, 'widthPercent': 0.45, 'rescaleHeight': False, 'trialN': 26, 'loaded': True, 'loadedTime': 6691.79999999702, 'positionName': 'RIGHT', 'positionCoords': [978.12, 239.5], 'bid': 7.38}]",52851.09999999404,1669832570418,baked potato,mashed potato,8.92,7.38,-1.54,baked potato,1791.2000000029802,1791,1791.9000000059605,True,u,55153.40000000596,2302.300000011921,1669832572719,2301,HRV,HRV_0099,2022-11-30 18:28:44
27,"[{'imgObject': {}, 'id': 'roastedpotatoes', 'src': '/static/foodstim60/roastedpotatoes.jpg', 'key': 'u', 'origWidth': 409, 'origHeight': 410, 'width': 409, 'height': 410, 'widthPercent': 0.45, 'rescaleHeight': False, 'trialN': 27, 'loaded': True, 'loadedTime': 6771.9000000059605, 'positionName': 'LEFT', 'positionCoords': [493.88, 239], 'bid': 8.01}, {'imgObject': {}, 'id': 'grilled chicken strips', 'src': '/static/foodstim60/grilled chicken strips.jpg', 'key': 'i', 'origWidth': 410, 'origHeight': 411, 'width': 410, 'height': 411, 'widthPercent': 0.45, 'rescaleHeight': False, 'trialN': 27, 'loaded': True, 'loadedTime': 6773.5999999940395, 'positionName': 'RIGHT', 'positionCoords': [978.12, 238.5], 'bid': 7.87}]",55153.5,1669832572719,roastedpotatoes,grilled chicken strips,8.01,7.87,-0.13999999999999968,roastedpotatoes,668.2999999970198,669,669.0,True,u,56328.20000000298,1174.7000000029802,1669832573894,1175,HRV,HRV_0099,2022-11-30 18:28:44
28,"[{'imgObject': {}, 'id': 'yogurt no spoon', 'src': '/static/foodstim60/yogurt no spoon.jpg', 'key': 'u', 'origWidth': 411, 'origHeight': 410, 'width': 411, 'height': 410, 'widthPercent': 0.45, 'rescaleHeight': False, 'trialN': 28, 'loaded': True, 'loadedTime': 6585.4000000059605, 'positionName': 'LEFT', 'positionCoords': [491.88, 239], 'bid': 5.78}, {'imgObject': {}, 'id': 'edamame', 'src': '/static/foodstim60/edamame.jpg', 'key': 'i', 'origWidth': 409, 'origHeight': 410, 'width': 409, 'height': 410, 'widthPercent': 0.45, 'rescaleHeight': False, 'trialN': 28, 'loaded': True, 'loadedTime': 6568.5999999940395, 'positionName': 'RIGHT', 'positionCoords': [978.12, 239], 'bid': 2.08}]",56328.29999999702,1669832573894,yogurt no spoon,edamame,5.78,2.08,-3.7,yogurt no spoon,832.5,834,833.2999999970198,True,u,57665.40000000596,1337.1000000089407,1669832575231,1337,HRV,HRV_0099,2022-11-30 18:28:44
29,"[{'imgObject': {}, 'id': 'popsicles', 'src': '/static/foodstim60/popsicles.jpg', 'key': 'u', 'origWidth': 410, 'origHeight': 410, 'width': 410, 'height': 410, 'widthPercent': 0.45, 'rescaleHeight': False, 'trialN': 29, 'loaded': True, 'loadedTime': 6685.20000000298, 'positionName': 'LEFT', 'positionCoords': [492.88, 239], 'bid': 3.97}, {'imgObject': {}, 'id': 'sweetpotato', 'src': '/static/foodstim60/sweetpotato.jpg', 'key': 'i', 'origWidth': 410, 'origHeight': 410, 'width': 410, 'height': 410, 'widthPercent': 0.45, 'rescaleHeight': False, 'trialN': 29, 'loaded': True, 'loadedTime': 6778.70000000298, 'positionName': 'RIGHT', 'positionCoords': [978.12, 239], 'bid': 3.83}]",57665.70000000298,1669832575232,popsicles,sweetpotato,3.97,3.83,-0.14000000000000012,popsicles,2122.0999999940395,2122,2122.7000000029802,True,u,60297.79999999702,2632.0999999940395,1669832577864,2632,HRV,HRV_0099,2022-11-30 18:28:44
30,"[{'imgObject': {}, 'id': 'turkey sandwich', 'src': '/static/foodstim60/turkey sandwich.jpg', 'key': 'u', 'origWidth': 409, 'origHeight': 409, 'width': 409, 'height': 409, 'widthPercent': 0.45, 'rescaleHeight': False, 'trialN': 30, 'loaded': True, 'loadedTime': 6785.5999999940395, 'positionName': 'LEFT', 'positionCoords': [493.88, 239.5], 'bid': 8.24}, {'imgObject': {}, 'id': 'tacos', 'src': '/static/foodstim60/tacos.jpg', 'key': 'i', 'origWidth': 411, 'origHeight': 411, 'width': 411, 'height': 411, 'widthPercent': 0.45, 'rescaleHeight': False, 'trialN': 30, 'loaded': True, 'loadedTime': 6787.29999999702, 'positionName': 'RIGHT', 'positionCoords': [978.12, 238.5], 'bid': 6.24}]",60298.0,1669832577864,turkey sandwich,tacos,8.24,6.24,-2.0,turkey sandwich,1056.7000000029802,1057,1057.4000000059605,True,u,61867.90000000596,1569.9000000059605,1669832579434,1570,HRV,HRV_0099,2022-11-30 18:28:44
31,"[{'imgObject': {}, 'id': 'strawberries', 'src': '/static/foodstim60/strawberries.jpg', 'key': 'u', 'origWidth': 410, 'origHeight': 410, 'width': 410, 'height': 410, 'widthPercent': 0.45, 'rescaleHeight': False, 'trialN': 31, 'loaded': True, 'loadedTime': 6793.79999999702, 'positionName': 'LEFT', 'positionCoords': [492.88, 239], 'bid': 5.28}, {'imgObject': {}, 'id': 'shreddedwheatwithmilk', 'src': '/static/foodstim60/shreddedwheatwithmilk.jpg', 'key': 'i', 'origWidth': 410, 'origHeight': 410, 'width': 410, 'height': 410, 'widthPercent': 0.45, 'rescaleHeight': False, 'trialN': 31, 'loaded': True, 'loadedTime': 6794, 'positionName': 'RIGHT', 'positionCoords': [978.12, 239], 'bid': 5.1000000000000005}]",61868.09999999404,1669832579434,strawberries,shreddedwheatwithmilk,5.28,5.1000000000000005,-0.17999999999999972,strawberries,1863.5,1864,1864.2000000029802,True,u,64247.70000000298,2379.6000000089407,1669832581814,2380,HRV,HRV_0099,2022-11-30 18:28:44
32,"[{'imgObject': {}, 'id': 'fruitsalad', 'src': '/static/foodstim60/fruitsalad.jpg', 'key': 'u', 'origWidth': 410, 'origHeight': 410, 'width': 410, 'height': 410, 'widthPercent': 0.45, 'rescaleHeight': False, 'trialN': 32, 'loaded': True, 'loadedTime': 6735, 'positionName': 'LEFT', 'positionCoords': [492.88, 239], 'bid': 4.5200000000000005}, {'imgObject': {}, 'id': 'ice cream sundae 002', 'src': '/static/foodstim60/ice cream sundae 002.jpg', 'key': 'i', 'origWidth': 409, 'origHeight': 409, 'width': 409, 'height': 409, 'widthPercent': 0.45, 'rescaleHeight': False, 'trialN': 32, 'loaded': True, 'loadedTime': 6588.29999999702, 'positionName': 'RIGHT', 'positionCoords': [978.12, 239.5], 'bid': 4.11}]",64248.0,1669832581814,fruitsalad,ice cream sundae 002,4.5200000000000005,4.11,-0.41000000000000014,ice cream sundae 002,2642.7000000029802,2643,2643.4000000059605,True,i,67398.20000000298,3150.2000000029802,1669832584964,3150,HRV,HRV_0099,2022-11-30 18:28:44
33,"[{'imgObject': {}, 'id': 'avocado', 'src': '/static/foodstim60/avocado.jpg', 'key': 'u', 'origWidth': 409, 'origHeight': 409, 'width': 409, 'height': 409, 'widthPercent': 0.45, 'rescaleHeight': False, 'trialN': 33, 'loaded': True, 'loadedTime': 6678.5999999940395, 'positionName': 'LEFT', 'positionCoords': [493.88, 239.5], 'bid': 2.16}, {'imgObject': {}, 'id': 'lox', 'src': '/static/foodstim60/lox.jpg', 'key': 'i', 'origWidth': 410, 'origHeight': 411, 'width': 410, 'height': 411, 'widthPercent': 0.45, 'rescaleHeight': False, 'trialN': 33, 'loaded': True, 'loadedTime': 6646, 'positionName': 'RIGHT', 'positionCoords': [978.12, 238.5], 'bid': 3.18}]",67398.29999999702,1669832584964,avocado,lox,2.16,3.18,1.02,lox,2662.4000000059605,2663,2663.1000000089407,True,i,70571.09999999404,3172.7999999970198,1669832588137,3173,HRV,HRV_0099,2022-11-30 18:28:44
34,"[{'imgObject': {}, 'id': 'edamame', 'src': '/static/foodstim60/edamame.jpg', 'key': 'u', 'origWidth': 409, 'origHeight': 410, 'width': 409, 'height': 410, 'widthPercent': 0.45, 'rescaleHeight': False, 'trialN': 34, 'loaded': True, 'loadedTime': 6569.20000000298, 'positionName': 'LEFT', 'positionCoords': [493.88, 239], 'bid': 2.08}, {'imgObject': {}, 'id': 'avocado', 'src': '/static/foodstim60/avocado.jpg', 'key': 'i', 'origWidth': 409, 'origHeight': 409, 'width': 409, 'height': 409, 'widthPercent': 0.45, 'rescaleHeight': False, 'trialN': 34, 'loaded': True, 'loadedTime': 6672.70000000298, 'positionName': 'RIGHT', 'positionCoords': [978.12, 239.5], 'bid': 2.16}]",70571.20000000298,1669832588137,edamame,avocado,2.08,2.16,0.08000000000000007,avocado,1508.7999999970198,1510,1509.5,True,i,72582.20000000298,2011.0,1669832590148,2011,HRV,HRV_0099,2022-11-30 18:28:44
35,"[{'imgObject': {}, 'id': 'grilled chicken strips', 'src': '/static/foodstim60/grilled chicken strips.jpg', 'key': 'u', 'origWidth': 410, 'origHeight': 411, 'width': 410, 'height': 411, 'widthPercent': 0.45, 'rescaleHeight': False, 'trialN': 35, 'loaded': True, 'loadedTime': 6773.5999999940395, 'positionName': 'LEFT', 'positionCoords': [492.88, 238.5], 'bid': 7.87}, {'imgObject': {}, 'id': 'eggsalad', 'src': '/static/foodstim60/eggsalad.jpg', 'key': 'i', 'origWidth': 410, 'origHeight': 409, 'width': 410, 'height': 409, 'widthPercent': 0.45, 'rescaleHeight': False, 'trialN': 35, 'loaded': True, 'loadedTime': 6657.9000000059605, 'positionName': 'RIGHT', 'positionCoords': [978.12, 239.5], 'bid': 6.5600000000000005}]",72582.40000000596,1669832590148,grilled chicken strips,eggsalad,7.87,6.5600000000000005,-1.3099999999999996,grilled chicken strips,1511.2999999970198,1512,1512.0999999940395,True,u,74603.79999999702,2021.3999999910593,1669832592170,2022,HRV,HRV_0099,2022-11-30 18:28:44
36,"[{'imgObject': {}, 'id': 'hashbrowns', 'src': '/static/foodstim60/hashbrowns.jpg', 'key': 'u', 'origWidth': 411, 'origHeight': 410, 'width': 411, 'height': 410, 'widthPercent': 0.45, 'rescaleHeight': False, 'trialN': 36, 'loaded': True, 'loadedTime': 6741.0999999940395, 'positionName': 'LEFT', 'positionCoords': [491.88, 239], 'bid': 2.54}, {'imgObject': {}, 'id': 'ice cream sundae 002', 'src': '/static/foodstim60/ice cream sundae 002.jpg', 'key': 'i', 'origWidth': 409, 'origHeight': 409, 'width': 409, 'height': 409, 'widthPercent': 0.45, 'rescaleHeight': False, 'trialN': 36, 'loaded': True, 'loadedTime': 6588.5, 'positionName': 'RIGHT', 'positionCoords': [978.12, 239.5], 'bid': 4.11}]",74603.90000000596,1669832592170,hashbrowns,ice cream sundae 002,2.54,4.11,1.5700000000000003,ice cream sundae 002,1026.7999999970198,1027,1027.5,True,i,76137.79999999702,1533.8999999910593,1669832593704,1534,HRV,HRV_0099,2022-11-30 18:28:44
37,"[{'imgObject': {}, 'id': 'Grapes', 'src': '/static/foodstim60/Grapes.jpg', 'key': 'u', 'origWidth': 411, 'origHeight': 411, 'width': 411, 'height': 411, 'widthPercent': 0.45, 'rescaleHeight': False, 'trialN': 37, 'loaded': True, 'loadedTime': 6801.70000000298, 'positionName': 'LEFT', 'positionCoords': [491.88, 238.5], 'bid': 4.18}, {'imgObject': {}, 'id': 'turkey sandwich', 'src': '/static/foodstim60/turkey sandwich.jpg', 'key': 'i', 'origWidth': 409, 'origHeight': 409, 'width': 409, 'height': 409, 'widthPercent': 0.45, 'rescaleHeight': False, 'trialN': 37, 'loaded': True, 'loadedTime': 6786, 'positionName': 'RIGHT', 'positionCoords': [978.12, 239.5], 'bid': 8.24}]",76137.90000000596,1669832593704,Grapes,turkey sandwich,4.18,8.24,4.0600000000000005,turkey sandwich,699.7999999970198,700,700.5999999940395,True,i,77347.70000000298,1209.7999999970198,1669832594914,1210,HRV,HRV_0099,2022-11-30 18:28:44
38,"[{'imgObject': {}, 'id': 'lox', 'src': '/static/foodstim60/lox.jpg', 'key': 'u', 'origWidth': 410, 'origHeight': 411, 'width': 410, 'height': 411, 'widthPercent': 0.45, 'rescaleHeight': False, 'trialN': 38, 'loaded': True, 'loadedTime': 6646.9000000059605, 'positionName': 'LEFT', 'positionCoords': [492.88, 238.5], 'bid': 3.18}, {'imgObject': {}, 'id': 'fried eggs', 'src': '/static/foodstim60/fried eggs.jpg', 'key': 'i', 'origWidth': 410, 'origHeight': 410, 'width': 410, 'height': 410, 'widthPercent': 0.45, 'rescaleHeight': False, 'trialN': 38, 'loaded': True, 'loadedTime': 6631.79999999702, 'positionName': 'RIGHT', 'positionCoords': [978.12, 239], 'bid': 6.61}]",77348.0,1669832594914,lox,fried eggs,3.18,6.61,3.43,fried eggs,839.7000000029802,840,840.5,True,i,78699.40000000596,1351.4000000059605,1669832596265,1351,HRV,HRV_0099,2022-11-30 18:28:44
39,"[{'imgObject': {}, 'id': 'veggieswithdip', 'src': '/static/foodstim60/veggieswithdip.jpg', 'key': 'u', 'origWidth': 409, 'origHeight': 409, 'width': 409, 'height': 409, 'widthPercent': 0.45, 'rescaleHeight': False, 'trialN': 39, 'loaded': True, 'loadedTime': 6803, 'positionName': 'LEFT', 'positionCoords': [493.88, 239.5], 'bid': 5.36}, {'imgObject': {}, 'id': 'steak', 'src': '/static/foodstim60/steak.jpg', 'key': 'i', 'origWidth': 410, 'origHeight': 410, 'width': 410, 'height': 410, 'widthPercent': 0.45, 'rescaleHeight': False, 'trialN': 39, 'loaded': True, 'loadedTime': 6809.5, 'positionName': 'RIGHT', 'positionCoords': [978.12, 239], 'bid': 8.84}]",78699.5,1669832596266,veggieswithdip,steak,5.36,8.84,3.4799999999999995,steak,732.2000000029802,732,732.9000000059605,True,i,79946.09999999404,1246.5999999940395,1669832597512,1246,HRV,HRV_0099,2022-11-30 18:28:44
40,"[{'imgObject': {}, 'id': 'mango', 'src': '/static/foodstim60/mango.jpg', 'key': 'u', 'origWidth': 411, 'origHeight': 411, 'width': 411, 'height': 411, 'widthPercent': 0.45, 'rescaleHeight': False, 'trialN': 40, 'loaded': True, 'loadedTime': 6811, 'positionName': 'LEFT', 'positionCoords': [491.88, 238.5], 'bid': 3.62}, {'imgObject': {}, 'id': 'fruitsalad', 'src': '/static/foodstim60/fruitsalad.jpg', 'key': 'i', 'origWidth': 410, 'origHeight': 410, 'width': 410, 'height': 410, 'widthPercent': 0.45, 'rescaleHeight': False, 'trialN': 40, 'loaded': True, 'loadedTime': 6735.0999999940395, 'positionName': 'RIGHT', 'positionCoords': [978.12, 239], 'bid': 4.5200000000000005}]",79946.40000000596,1669832597512,mango,fruitsalad,3.62,4.5200000000000005,0.9000000000000004,fruitsalad,1305.3999999910593,1306,1306.0,True,i,81768.40000000596,1822.0,1669832599334,1822,HRV,HRV_0099,2022-11-30 18:28:44
41,"[{'imgObject': {}, 'id': 'cheerios', 'src': '/static/foodstim60/cheerios.jpg', 'key': 'u', 'origWidth': 409, 'origHeight': 410, 'width': 409, 'height': 410, 'widthPercent': 0.45, 'rescaleHeight': False, 'trialN': 41, 'loaded': True, 'loadedTime': 6811.0999999940395, 'positionName': 'LEFT', 'positionCoords': [493.88, 239], 'bid': 5.62}, {'imgObject': {}, 'id': 'cherry tomato', 'src': '/static/foodstim60/cherry tomato.jpg', 'key': 'i', 'origWidth': 410, 'origHeight': 410, 'width': 410, 'height': 410, 'widthPercent': 0.45, 'rescaleHeight': False, 'trialN': 41, 'loaded': True, 'loadedTime': 6762.29999999702, 'positionName': 'RIGHT', 'positionCoords': [978.12, 239], 'bid': 1.74}]",81768.79999999702,1669832599335,cheerios,cherry tomato,5.62,1.74,-3.88,cheerios,1020.4000000059605,1021,1021.1000000089407,True,u,83304.09999999404,1535.2999999970198,1669832600870,1535,HRV,HRV_0099,2022-11-30 18:28:44
42,"[{'imgObject': {}, 'id': 'cantaloupe', 'src': '/static/foodstim60/cantaloupe.jpg', 'key': 'u', 'origWidth': 409, 'origHeight': 409, 'width': 409, 'height': 409, 'widthPercent': 0.45, 'rescaleHeight': False, 'trialN': 42, 'loaded': True, 'loadedTime': 6591.9000000059605, 'positionName': 'LEFT', 'positionCoords': [493.88, 239.5], 'bid': 3.41}, {'imgObject': {}, 'id': 'seaweed', 'src': '/static/foodstim60/seaweed.jpg', 'key': 'i', 'origWidth': 410, 'origHeight': 410, 'width': 410, 'height': 410, 'widthPercent': 0.45, 'rescaleHeight': False, 'trialN': 42, 'loaded': True, 'loadedTime': 6770.20000000298, 'positionName': 'RIGHT', 'positionCoords': [978.12, 239], 'bid': 0.8300000000000001}]",83304.20000000298,1669832600870,cantaloupe,seaweed,3.41,0.8300000000000001,-2.58,cantaloupe,854.2000000029802,855,854.8999999910593,True,u,84666.59999999404,1362.3999999910593,1669832602233,1363,HRV,HRV_0099,2022-11-30 18:28:44
43,"[{'imgObject': {}, 'id': 'kiwi', 'src': '/static/foodstim60/kiwi.jpg', 'key': 'u', 'origWidth': 410, 'origHeight': 410, 'width': 410, 'height': 410, 'widthPercent': 0.45, 'rescaleHeight': False, 'trialN': 43, 'loaded': True, 'loadedTime': 6818.0999999940395, 'positionName': 'LEFT', 'positionCoords': [492.88, 239], 'bid': 2.61}, {'imgObject': {}, 'id': 'cherry tomato', 'src': '/static/foodstim60/cherry tomato.jpg', 'key': 'i', 'origWidth': 410, 'origHeight': 410, 'width': 410, 'height': 410, 'widthPercent': 0.45, 'rescaleHeight': False, 'trialN': 43, 'loaded': True, 'loadedTime': 6763.5, 'positionName': 'RIGHT', 'positionCoords': [978.12, 239], 'bid': 1.74}]",84666.90000000596,1669832602233,kiwi,cherry tomato,2.61,1.74,-0.8699999999999999,cherry tomato,1290.8999999910593,1292,1291.5999999940395,True,i,86467.59999999404,1800.699999988079,1669832604034,1801,HRV,HRV_0099,2022-11-30 18:28:44
44,"[{'imgObject': {}, 'id': 'mango', 'src': '/static/foodstim60/mango.jpg', 'key': 'u', 'origWidth': 411, 'origHeight': 411, 'width': 411, 'height': 411, 'widthPercent': 0.45, 'rescaleHeight': False, 'trialN': 44, 'loaded': True, 'loadedTime': 6810.4000000059605, 'positionName': 'LEFT', 'positionCoords': [491.88, 238.5], 'bid': 3.62}, {'imgObject': {}, 'id': 'cherry tomato', 'src': '/static/foodstim60/cherry tomato.jpg', 'key': 'i', 'origWidth': 410, 'origHeight': 410, 'width': 410, 'height': 410, 'widthPercent': 0.45, 'rescaleHeight': False, 'trialN': 44, 'loaded': True, 'loadedTime': 6768.70000000298, 'positionName': 'RIGHT', 'positionCoords': [978.12, 239], 'bid': 1.74}]",86467.90000000596,1669832604034,mango,cherry tomato,3.62,1.74,-1.8800000000000001,mango,2124.699999988079,2125,2125.5,True,u,89106.0,2638.0999999940395,1669832606672,2638,HRV,HRV_0099,2022-11-30 18:28:44
45,"[{'imgObject': {}, 'id': 'salad w chicken', 'src': '/static/foodstim60/salad w chicken.jpg', 'key': 'u', 'origWidth': 411, 'origHeight': 411, 'width': 411, 'height': 411, 'widthPercent': 0.45, 'rescaleHeight': False, 'trialN': 45, 'loaded': True, 'loadedTime': 6700.5999999940395, 'positionName': 'LEFT', 'positionCoords': [491.88, 238.5], 'bid': 8.69}, {'imgObject': {}, 'id': 'chickenfingers', 'src': '/static/foodstim60/chickenfingers.jpg', 'key': 'i', 'origWidth': 410, 'origHeight': 410, 'width': 410, 'height': 410, 'widthPercent': 0.45, 'rescaleHeight': False, 'trialN': 45, 'loaded': True, 'loadedTime': 6757, 'positionName': 'RIGHT', 'positionCoords': [978.12, 239], 'bid': 8.73}]",89106.09999999404,1669832606672,salad w chicken,chickenfingers,8.69,8.73,0.040000000000000924,salad w chicken,625.7000000029802,627,626.4000000059605,True,u,90247.59999999404,1141.5,1669832607814,1142,HRV,HRV_0099,2022-11-30 18:28:44
46,"[{'imgObject': {}, 'id': 'froot loops w milk', 'src': '/static/foodstim60/froot loops w milk.jpg', 'key': 'u', 'origWidth': 410, 'origHeight': 410, 'width': 410, 'height': 410, 'widthPercent': 0.45, 'rescaleHeight': False, 'trialN': 46, 'loaded': True, 'loadedTime': 6561.20000000298, 'positionName': 'LEFT', 'positionCoords': [492.88, 239], 'bid': 6.97}, {'imgObject': {}, 'id': 'cantaloupe', 'src': '/static/foodstim60/cantaloupe.jpg', 'key': 'i', 'origWidth': 409, 'origHeight': 409, 'width': 409, 'height': 409, 'widthPercent': 0.45, 'rescaleHeight': False, 'trialN': 46, 'loaded': True, 'loadedTime': 6591.9000000059605, 'positionName': 'RIGHT', 'positionCoords': [978.12, 239.5], 'bid': 3.41}]",90247.79999999702,1669832607814,froot loops w milk,cantaloupe,6.97,3.41,-3.5599999999999996,froot loops w milk,1092.1000000089407,1093,1092.7999999970198,True,u,91845.5,1597.7000000029802,1669832609411,1597,HRV,HRV_0099,2022-11-30 18:28:44
47,"[{'imgObject': {}, 'id': 'cheerios', 'src': '/static/foodstim60/cheerios.jpg', 'key': 'u', 'origWidth': 409, 'origHeight': 410, 'width': 409, 'height': 410, 'widthPercent': 0.45, 'rescaleHeight': False, 'trialN': 47, 'loaded': True, 'loadedTime': 6812.79999999702, 'positionName': 'LEFT', 'positionCoords': [493.88, 239], 'bid': 5.62}, {'imgObject': {}, 'id': 'raspberries', 'src': '/static/foodstim60/raspberries.jpg', 'key': 'i', 'origWidth': 411, 'origHeight': 411, 'width': 411, 'height': 411, 'widthPercent': 0.45, 'rescaleHeight': False, 'trialN': 47, 'loaded': True, 'loadedTime': 6701.5999999940395, 'positionName': 'RIGHT', 'positionCoords': [978.12, 238.5], 'bid': 5.16}]",91845.79999999702,1669832609412,cheerios,raspberries,5.62,5.16,-0.45999999999999996,raspberries,1227.7000000029802,1228,1228.2999999970198,True,i,93584.29999999702,1738.5,1669832611150,1738,HRV,HRV_0099,2022-11-30 18:28:44
48,"[{'imgObject': {}, 'id': 'edamame', 'src': '/static/foodstim60/edamame.jpg', 'key': 'u', 'origWidth': 409, 'origHeight': 410, 'width': 409, 'height': 410, 'widthPercent': 0.45, 'rescaleHeight': False, 'trialN': 48, 'loaded': True, 'loadedTime': 6568.9000000059605, 'positionName': 'LEFT', 'positionCoords': [493.88, 239], 'bid': 2.08}, {'imgObject': {}, 'id': 'popsicles', 'src': '/static/foodstim60/popsicles.jpg', 'key': 'i', 'origWidth': 410, 'origHeight': 410, 'width': 410, 'height': 410, 'widthPercent': 0.45, 'rescaleHeight': False, 'trialN': 48, 'loaded': True, 'loadedTime': 6686.29999999702, 'positionName': 'RIGHT', 'positionCoords': [978.12, 239], 'bid': 3.97}]",93584.5,1669832611151,edamame,popsicles,2.08,3.97,1.8900000000000001,popsicles,810.2000000029802,810,810.9000000059605,True,i,94901.59999999404,1317.0999999940395,1669832612468,1317,HRV,HRV_0099,2022-11-30 18:28:44
49,"[{'imgObject': {}, 'id': 'bagel and cc', 'src': '/static/foodstim60/bagel and cc.jpg', 'key': 'u', 'origWidth': 410, 'origHeight': 410, 'width': 410, 'height': 410, 'widthPercent': 0.45, 'rescaleHeight': False, 'trialN': 49, 'loaded': True, 'loadedTime': 6607.4000000059605, 'positionName': 'LEFT', 'positionCoords': [492.88, 239], 'bid': 8.47}, {'imgObject': {}, 'id': 'blackbeanswithrice', 'src': '/static/foodstim60/blackbeanswithrice.jpg', 'key': 'i', 'origWidth': 410, 'origHeight': 410, 'width': 410, 'height': 410, 'widthPercent': 0.45, 'rescaleHeight': False, 'trialN': 49, 'loaded': True, 'loadedTime': 6818.20000000298, 'positionName': 'RIGHT', 'positionCoords': [978.12, 239], 'bid': 6.43}]",94901.79999999702,1669832612468,bagel and cc,blackbeanswithrice,8.47,6.43,-2.040000000000001,bagel and cc,706.9000000059605,707,707.5,True,u,96123.90000000596,1222.1000000089407,1669832613690,1222,HRV,HRV_0099,2022-11-30 18:28:44
50,"[{'imgObject': {}, 'id': 'raspberries', 'src': '/static/foodstim60/raspberries.jpg', 'key': 'u', 'origWidth': 411, 'origHeight': 411, 'width': 411, 'height': 411, 'widthPercent': 0.45, 'rescaleHeight': False, 'trialN': 50, 'loaded': True, 'loadedTime': 6707.79999999702, 'positionName': 'LEFT', 'positionCoords': [491.88, 238.5], 'bid': 5.16}, {'imgObject': {}, 'id': 'rigatoni', 'src': '/static/foodstim60/rigatoni.jpg', 'key': 'i', 'origWidth': 411, 'origHeight': 411, 'width': 411, 'height': 411, 'widthPercent': 0.45, 'rescaleHeight': False, 'trialN': 50, 'loaded': True, 'loadedTime': 6748.20000000298, 'positionName': 'RIGHT', 'positionCoords': [978.12, 238.5], 'bid': 6.03}]",96124.0,1669832613690,raspberries,rigatoni,5.16,6.03,0.8700000000000001,rigatoni,1487.7000000029802,1488,1488.4000000059605,True,i,98122.59999999404,1998.5999999940395,1669832615689,1999,HRV,HRV_0099,2022-11-30 18:28:44
51,"[{'imgObject': {}, 'id': 'olives', 'src': '/static/foodstim60/olives.jpg', 'key': 'u', 'origWidth': 410, 'origHeight': 410, 'width': 410, 'height': 410, 'widthPercent': 0.45, 'rescaleHeight': False, 'trialN': 51, 'loaded': True, 'loadedTime': 6729, 'positionName': 'LEFT', 'positionCoords': [492.88, 239], 'bid': 0.86}, {'imgObject': {}, 'id': 'seaweed', 'src': '/static/foodstim60/seaweed.jpg', 'key': 'i', 'origWidth': 410, 'origHeight': 410, 'width': 410, 'height': 410, 'widthPercent': 0.45, 'rescaleHeight': False, 'trialN': 51, 'loaded': True, 'loadedTime': 6770.5, 'positionName': 'RIGHT', 'positionCoords': [978.12, 239], 'bid': 0.8300000000000001}]",98122.90000000596,1669832615689,olives,seaweed,0.86,0.8300000000000001,-0.029999999999999916,olives,963.7999999970198,964,964.3999999910593,True,u,99593.79999999702,1470.8999999910593,1669832617160,1471,HRV,HRV_0099,2022-11-30 18:28:44
52,"[{'imgObject': {}, 'id': 'yogurt no spoon', 'src': '/static/foodstim60/yogurt no spoon.jpg', 'key': 'u', 'origWidth': 411, 'origHeight': 410, 'width': 411, 'height': 410, 'widthPercent': 0.45, 'rescaleHeight': False, 'trialN': 52, 'loaded': True, 'loadedTime': 6585.0999999940395, 'positionName': 'LEFT', 'positionCoords': [491.88, 239], 'bid': 5.78}, {'imgObject': {}, 'id': 'veggieswithdip', 'src': '/static/foodstim60/veggieswithdip.jpg', 'key': 'i', 'origWidth': 409, 'origHeight': 409, 'width': 409, 'height': 409, 'widthPercent': 0.45, 'rescaleHeight': False, 'trialN': 52, 'loaded': True, 'loadedTime': 6803.29999999702, 'positionName': 'RIGHT', 'positionCoords': [978.12, 239.5], 'bid': 5.36}]",99594.09999999404,1669832617160,yogurt no spoon,veggieswithdip,5.78,5.36,-0.41999999999999993,yogurt no spoon,1525.7000000029802,1526,1526.4000000059605,True,u,101626.09999999404,2032.0,1669832619192,2032,HRV,HRV_0099,2022-11-30 18:28:44
53,"[{'imgObject': {}, 'id': 'banana', 'src': '/static/foodstim60/banana.jpg', 'key': 'u', 'origWidth': 410, 'origHeight': 410, 'width': 410, 'height': 410, 'widthPercent': 0.45, 'rescaleHeight': False, 'trialN': 53, 'loaded': True, 'loadedTime': 6820.20000000298, 'positionName': 'LEFT', 'positionCoords': [492.88, 239], 'bid': 3.33}, {'imgObject': {}, 'id': 'Tribe humus pita', 'src': '/static/foodstim60/Tribe humus pita.jpg', 'key': 'i', 'origWidth': 411, 'origHeight': 411, 'width': 411, 'height': 411, 'widthPercent': 0.45, 'rescaleHeight': False, 'trialN': 53, 'loaded': True, 'loadedTime': 6720.5999999940395, 'positionName': 'RIGHT', 'positionCoords': [978.12, 238.5], 'bid': 5.44}]",101626.40000000596,1669832619192,banana,Tribe humus pita,3.33,5.44,2.1100000000000003,Tribe humus pita,1695.2999999970198,1697,1696.0999999940395,True,i,103825.40000000596,2199.0,1669832621391,2199,HRV,HRV_0099,2022-11-30 18:28:44
54,"[{'imgObject': {}, 'id': 'cantaloupe', 'src': '/static/foodstim60/cantaloupe.jpg', 'key': 'u', 'origWidth': 409, 'origHeight': 409, 'width': 409, 'height': 409, 'widthPercent': 0.45, 'rescaleHeight': False, 'trialN': 54, 'loaded': True, 'loadedTime': 6592.0999999940395, 'positionName': 'LEFT', 'positionCoords': [493.88, 239.5], 'bid': 3.41}, {'imgObject': {}, 'id': 'banana', 'src': '/static/foodstim60/banana.jpg', 'key': 'i', 'origWidth': 410, 'origHeight': 410, 'width': 410, 'height': 410, 'widthPercent': 0.45, 'rescaleHeight': False, 'trialN': 54, 'loaded': True, 'loadedTime': 6820, 'positionName': 'RIGHT', 'positionCoords': [978.12, 239], 'bid': 3.33}]",103825.70000000298,1669832621392,cantaloupe,banana,3.41,3.33,-0.08000000000000007,cantaloupe,1368.0,1368,1368.7000000029802,True,u,105695.5,1869.7999999970198,1669832623262,1870,HRV,HRV_0099,2022-11-30 18:28:44
55,"[{'imgObject': {}, 'id': 'fried eggs', 'src': '/static/foodstim60/fried eggs.jpg', 'key': 'u', 'origWidth': 410, 'origHeight': 410, 'width': 410, 'height': 410, 'widthPercent': 0.45, 'rescaleHeight': False, 'trialN': 55, 'loaded': True, 'loadedTime': 6627.0999999940395, 'positionName': 'LEFT', 'positionCoords': [492.88, 239], 'bid': 6.61}, {'imgObject': {}, 'id': 'roastedpotatoes', 'src': '/static/foodstim60/roastedpotatoes.jpg', 'key': 'i', 'origWidth': 409, 'origHeight': 410, 'width': 409, 'height': 410, 'widthPercent': 0.45, 'rescaleHeight': False, 'trialN': 55, 'loaded': True, 'loadedTime': 6771.79999999702, 'positionName': 'RIGHT', 'positionCoords': [978.12, 239], 'bid': 8.01}]",105695.59999999404,1669832623262,fried eggs,roastedpotatoes,6.61,8.01,1.3999999999999995,roastedpotatoes,918.2000000029802,918,918.9000000059605,True,i,107117.09999999404,1421.5,1669832624683,1421,HRV,HRV_0099,2022-11-30 18:28:44
56,"[{'imgObject': {}, 'id': 'corn cob', 'src': '/static/foodstim60/corn cob.jpg', 'key': 'u', 'origWidth': 411, 'origHeight': 411, 'width': 411, 'height': 411, 'widthPercent': 0.45, 'rescaleHeight': False, 'trialN': 56, 'loaded': True, 'loadedTime': 6680.79999999702, 'positionName': 'LEFT', 'positionCoords': [491.88, 238.5], 'bid': 5.91}, {'imgObject': {}, 'id': 'shreddedwheatwithmilk', 'src': '/static/foodstim60/shreddedwheatwithmilk.jpg', 'key': 'i', 'origWidth': 410, 'origHeight': 410, 'width': 410, 'height': 410, 'widthPercent': 0.45, 'rescaleHeight': False, 'trialN': 56, 'loaded': True, 'loadedTime': 6794.9000000059605, 'positionName': 'RIGHT', 'positionCoords': [978.12, 239], 'bid': 5.1000000000000005}]",107117.40000000596,1669832624683,corn cob,shreddedwheatwithmilk,5.91,5.1000000000000005,-0.8099999999999996,corn cob,657.3999999910593,658,657.8999999910593,True,u,108290.90000000596,1173.5,1669832625857,1174,HRV,HRV_0099,2022-11-30 18:28:44
57,"[{'imgObject': {}, 'id': 'burger', 'src': '/static/foodstim60/burger.jpg', 'key': 'u', 'origWidth': 409, 'origHeight': 409, 'width': 409, 'height': 409, 'widthPercent': 0.45, 'rescaleHeight': False, 'trialN': 57, 'loaded': True, 'loadedTime': 6574.9000000059605, 'positionName': 'LEFT', 'positionCoords': [493.88, 239.5], 'bid': 5.71}, {'imgObject': {}, 'id': 'salmon', 'src': '/static/foodstim60/salmon.jpg', 'key': 'i', 'origWidth': 410, 'origHeight': 409, 'width': 410, 'height': 409, 'widthPercent': 0.45, 'rescaleHeight': False, 'trialN': 57, 'loaded': True, 'loadedTime': 6821.9000000059605, 'positionName': 'RIGHT', 'positionCoords': [978.12, 239.5], 'bid': 7.34}]",108291.09999999404,1669832625857,burger,salmon,5.71,7.34,1.63,salmon,904.7000000029802,905,905.4000000059605,True,i,109703.40000000596,1412.300000011921,1669832627269,1412,HRV,HRV_0099,2022-11-30 18:28:44
58,"[{'imgObject': {}, 'id': 'mashed potato', 'src': '/static/foodstim60/mashed potato.jpg', 'key': 'u', 'origWidth': 409, 'origHeight': 409, 'width': 409, 'height': 409, 'widthPercent': 0.45, 'rescaleHeight': False, 'trialN': 58, 'loaded': True, 'loadedTime': 6692.5, 'positionName': 'LEFT', 'positionCoords': [493.88, 239.5], 'bid': 7.38}, {'imgObject': {}, 'id': 'salmon', 'src': '/static/foodstim60/salmon.jpg', 'key': 'i', 'origWidth': 410, 'origHeight': 409, 'width': 410, 'height': 409, 'widthPercent': 0.45, 'rescaleHeight': False, 'trialN': 58, 'loaded': True, 'loadedTime': 6821.5999999940395, 'positionName': 'RIGHT', 'positionCoords': [978.12, 239.5], 'bid': 7.34}]",109703.59999999404,1669832627270,mashed potato,salmon,7.38,7.34,-0.040000000000000036,salmon,1466.2000000029802,1466,1466.9000000059605,True,i,111675.90000000596,1972.300000011921,1669832629242,1972,HRV,HRV_0099,2022-11-30 18:28:44
59,"[{'imgObject': {}, 'id': 'seaweed', 'src': '/static/foodstim60/seaweed.jpg', 'key': 'u', 'origWidth': 410, 'origHeight': 410, 'width': 410, 'height': 410, 'widthPercent': 0.45, 'rescaleHeight': False, 'trialN': 59, 'loaded': True, 'loadedTime': 6770.5, 'positionName': 'LEFT', 'positionCoords': [492.88, 239], 'bid': 0.8300000000000001}, {'imgObject': {}, 'id': 'cherry tomato', 'src': '/static/foodstim60/cherry tomato.jpg', 'key': 'i', 'origWidth': 410, 'origHeight': 410, 'width': 410, 'height': 410, 'widthPercent': 0.45, 'rescaleHeight': False, 'trialN': 59, 'loaded': True, 'loadedTime': 6763.29999999702, 'positionName': 'RIGHT', 'positionCoords': [978.12, 239], 'bid': 1.74}]",111676.29999999702,1669832629242,seaweed,cherry tomato,0.8300000000000001,1.74,0.9099999999999999,cherry tomato,1368.2999999970198,1369,1369.1000000089407,True,i,113558.29999999702,1882.0,1669832631124,1882,HRV,HRV_0099,2022-11-30 18:28:44
60,"[{'imgObject': {}, 'id': 'fried eggs', 'src': '/static/foodstim60/fried eggs.jpg', 'key': 'u', 'origWidth': 410, 'origHeight': 410, 'width': 410, 'height': 410, 'widthPercent': 0.45, 'rescaleHeight': False, 'trialN': 60, 'loaded': True, 'loadedTime': 6632.29999999702, 'positionName': 'LEFT', 'positionCoords': [492.88, 239], 'bid': 6.61}, {'imgObject': {}, 'id': 'bagel plain', 'src': '/static/foodstim60/bagel plain.jpg', 'key': 'i', 'origWidth': 410, 'origHeight': 410, 'width': 410, 'height': 410, 'widthPercent': 0.45, 'rescaleHeight': False, 'trialN': 60, 'loaded': True, 'loadedTime': 6749.4000000059605, 'positionName': 'RIGHT', 'positionCoords': [978.12, 239], 'bid': 7.17}]",113558.5,1669832631125,fried eggs,bagel plain,6.61,7.17,0.5599999999999996,bagel plain,1092.2000000029802,1093,1092.9000000059605,True,i,115164.20000000298,1605.7000000029802,1669832632731,1606,HRV,HRV_0099,2022-11-30 18:28:44
61,"[{'imgObject': {}, 'id': 'edamame', 'src': '/static/foodstim60/edamame.jpg', 'key': 'u', 'origWidth': 409, 'origHeight': 410, 'width': 409, 'height': 410, 'widthPercent': 0.45, 'rescaleHeight': False, 'trialN': 61, 'loaded': True, 'loadedTime': 6567.0999999940395, 'positionName': 'LEFT', 'positionCoords': [493.88, 239], 'bid': 2.08}, {'imgObject': {}, 'id': 'hashbrowns', 'src': '/static/foodstim60/hashbrowns.jpg', 'key': 'i', 'origWidth': 411, 'origHeight': 410, 'width': 411, 'height': 410, 'widthPercent': 0.45, 'rescaleHeight': False, 'trialN': 61, 'loaded': True, 'loadedTime': 6740.5, 'positionName': 'RIGHT', 'positionCoords': [978.12, 239], 'bid': 2.54}]",115164.40000000596,1669832632731,edamame,hashbrowns,2.08,2.54,0.45999999999999996,edamame,3033.2999999970198,3034,3034.0,True,u,118706.09999999404,3541.699999988079,1669832636272,3541,HRV,HRV_0099,2022-11-30 18:28:44
62,"[{'imgObject': {}, 'id': 'rigatoni and sauce', 'src': '/static/foodstim60/rigatoni and sauce.jpg', 'key': 'u', 'origWidth': 410, 'origHeight': 411, 'width': 410, 'height': 411, 'widthPercent': 0.45, 'rescaleHeight': False, 'trialN': 62, 'loaded': True, 'loadedTime': 6614.20000000298, 'positionName': 'LEFT', 'positionCoords': [492.88, 238.5], 'bid': 6.67}, {'imgObject': {}, 'id': 'steak', 'src': '/static/foodstim60/steak.jpg', 'key': 'i', 'origWidth': 410, 'origHeight': 410, 'width': 410, 'height': 410, 'widthPercent': 0.45, 'rescaleHeight': False, 'trialN': 62, 'loaded': True, 'loadedTime': 6808.29999999702, 'positionName': 'RIGHT', 'positionCoords': [978.12, 239], 'bid': 8.84}]",118706.40000000596,1669832636273,rigatoni and sauce,steak,6.67,8.84,2.17,steak,737.2999999970198,738,738.0999999940395,True,i,119954.79999999702,1248.3999999910593,1669832637521,1248,HRV,HRV_0099,2022-11-30 18:28:44
63,"[{'imgObject': {}, 'id': 'eggs', 'src': '/static/foodstim60/eggs.jpg', 'key': 'u', 'origWidth': 409, 'origHeight': 409, 'width': 409, 'height': 409, 'widthPercent': 0.45, 'rescaleHeight': False, 'trialN': 63, 'loaded': True, 'loadedTime': 6824, 'positionName': 'LEFT', 'positionCoords': [493.88, 239.5], 'bid': 2.6}, {'imgObject': {}, 'id': 'Grapes', 'src': '/static/foodstim60/Grapes.jpg', 'key': 'i', 'origWidth': 411, 'origHeight': 411, 'width': 411, 'height': 411, 'widthPercent': 0.45, 'rescaleHeight': False, 'trialN': 63, 'loaded': True, 'loadedTime': 6801.0999999940395, 'positionName': 'RIGHT', 'positionCoords': [978.12, 238.5], 'bid': 4.18}]",119954.90000000596,1669832637521,eggs,Grapes,2.6,4.18,1.5799999999999996,eggs,1168.7999999970198,1170,1169.5999999940395,True,u,121632.20000000298,1677.2999999970198,1669832639199,1678,HRV,HRV_0099,2022-11-30 18:28:44
64,"[{'imgObject': {}, 'id': 'steak', 'src': '/static/foodstim60/steak.jpg', 'key': 'u', 'origWidth': 410, 'origHeight': 410, 'width': 410, 'height': 410, 'widthPercent': 0.45, 'rescaleHeight': False, 'trialN': 64, 'loaded': True, 'loadedTime': 6809.0999999940395, 'positionName': 'LEFT', 'positionCoords': [492.88, 239], 'bid': 8.84}, {'imgObject': {}, 'id': 'salmon', 'src': '/static/foodstim60/salmon.jpg', 'key': 'i', 'origWidth': 410, 'origHeight': 409, 'width': 410, 'height': 409, 'widthPercent': 0.45, 'rescaleHeight': False, 'trialN': 64, 'loaded': True, 'loadedTime': 6822.5999999940395, 'positionName': 'RIGHT', 'positionCoords': [978.12, 239.5], 'bid': 7.34}]",121632.5,1669832639199,steak,salmon,8.84,7.34,-1.5,steak,797.0,798,797.7000000029802,True,u,122942.5,1310.0,1669832640509,1310,HRV,HRV_0099,2022-11-30 18:28:44
65,"[{'imgObject': {}, 'id': 'chicken nuggets2', 'src': '/static/foodstim60/chicken nuggets2.jpg', 'key': 'u', 'origWidth': 410, 'origHeight': 409, 'width': 410, 'height': 409, 'widthPercent': 0.45, 'rescaleHeight': False, 'trialN': 65, 'loaded': True, 'loadedTime': 6824.20000000298, 'positionName': 'LEFT', 'positionCoords': [492.88, 239.5], 'bid': 7.0600000000000005}, {'imgObject': {}, 'id': 'bagel plain', 'src': '/static/foodstim60/bagel plain.jpg', 'key': 'i', 'origWidth': 410, 'origHeight': 410, 'width': 410, 'height': 410, 'widthPercent': 0.45, 'rescaleHeight': False, 'trialN': 65, 'loaded': True, 'loadedTime': 6749.5, 'positionName': 'RIGHT', 'positionCoords': [978.12, 239], 'bid': 7.17}]",122942.79999999702,1669832640509,chicken nuggets2,bagel plain,7.0600000000000005,7.17,0.10999999999999943,chicken nuggets2,697.0,698,697.7999999970198,True,u,124143.0,1200.2000000029802,1669832641709,1200,HRV,HRV_0099,2022-11-30 18:28:44
66,"[{'imgObject': {}, 'id': 'bagel and cc', 'src': '/static/foodstim60/bagel and cc.jpg', 'key': 'u', 'origWidth': 410, 'origHeight': 410, 'width': 410, 'height': 410, 'widthPercent': 0.45, 'rescaleHeight': False, 'trialN': 66, 'loaded': True, 'loadedTime': 6606.9000000059605, 'positionName': 'LEFT', 'positionCoords': [492.88, 239], 'bid': 8.47}, {'imgObject': {}, 'id': 'omelette', 'src': '/static/foodstim60/omelette.jpg', 'key': 'i', 'origWidth': 410, 'origHeight': 409, 'width': 410, 'height': 409, 'widthPercent': 0.45, 'rescaleHeight': False, 'trialN': 66, 'loaded': True, 'loadedTime': 6721.79999999702, 'positionName': 'RIGHT', 'positionCoords': [978.12, 239.5], 'bid': 8.65}]",124143.09999999404,1669832641709,bagel and cc,omelette,8.47,8.65,0.17999999999999972,bagel and cc,796.6000000089407,798,797.3000000119209,True,u,125443.5,1300.4000000059605,1669832643010,1301,HRV,HRV_0099,2022-11-30 18:28:44
67,"[{'imgObject': {}, 'id': 'pear', 'src': '/static/foodstim60/pear.jpg', 'key': 'u', 'origWidth': 411, 'origHeight': 410, 'width': 411, 'height': 410, 'widthPercent': 0.45, 'rescaleHeight': False, 'trialN': 67, 'loaded': True, 'loadedTime': 6659.29999999702, 'positionName': 'LEFT', 'positionCoords': [491.88, 239], 'bid': 3.3200000000000003}, {'imgObject': {}, 'id': 'popsicles', 'src': '/static/foodstim60/popsicles.jpg', 'key': 'i', 'origWidth': 410, 'origHeight': 410, 'width': 410, 'height': 410, 'widthPercent': 0.45, 'rescaleHeight': False, 'trialN': 67, 'loaded': True, 'loadedTime': 6686, 'positionName': 'RIGHT', 'positionCoords': [978.12, 239], 'bid': 3.97}]",125443.59999999404,1669832643010,pear,popsicles,3.3200000000000003,3.97,0.6499999999999999,pear,3141.1000000089407,3142,3141.9000000059605,True,u,129088.59999999404,3645.0,1669832646655,3645,HRV,HRV_0099,2022-11-30 18:28:44
68,"[{'imgObject': {}, 'id': 'sweetpotato', 'src': '/static/foodstim60/sweetpotato.jpg', 'key': 'u', 'origWidth': 410, 'origHeight': 410, 'width': 410, 'height': 410, 'widthPercent': 0.45, 'rescaleHeight': False, 'trialN': 68, 'loaded': True, 'loadedTime': 6778.9000000059605, 'positionName': 'LEFT', 'positionCoords': [492.88, 239], 'bid': 3.83}, {'imgObject': {}, 'id': 'granola w milk', 'src': '/static/foodstim60/granola w milk.jpg', 'key': 'i', 'origWidth': 410, 'origHeight': 410, 'width': 410, 'height': 410, 'widthPercent': 0.45, 'rescaleHeight': False, 'trialN': 68, 'loaded': True, 'loadedTime': 6826.70000000298, 'positionName': 'RIGHT', 'positionCoords': [978.12, 239], 'bid': 3.46}]",129088.90000000596,1669832646655,sweetpotato,granola w milk,3.83,3.46,-0.3700000000000001,sweetpotato,1201.7999999970198,1203,1202.5,True,u,130804.90000000596,1716.0,1669832648371,1716,HRV,HRV_0099,2022-11-30 18:28:44
69,"[{'imgObject': {}, 'id': 'tacos', 'src': '/static/foodstim60/tacos.jpg', 'key': 'u', 'origWidth': 411, 'origHeight': 411, 'width': 411, 'height': 411, 'widthPercent': 0.45, 'rescaleHeight': False, 'trialN': 69, 'loaded': True, 'loadedTime': 6786.29999999702, 'positionName': 'LEFT', 'positionCoords': [491.88, 238.5], 'bid': 6.24}, {'imgObject': {}, 'id': 'rigatoni and sauce', 'src': '/static/foodstim60/rigatoni and sauce.jpg', 'key': 'i', 'origWidth': 410, 'origHeight': 411, 'width': 410, 'height': 411, 'widthPercent': 0.45, 'rescaleHeight': False, 'trialN': 69, 'loaded': True, 'loadedTime': 6614, 'positionName': 'RIGHT', 'positionCoords': [978.12, 238.5], 'bid': 6.67}]",130805.20000000298,1669832648372,tacos,rigatoni and sauce,6.24,6.67,0.4299999999999997,rigatoni and sauce,920.5,921,921.2999999970198,True,i,132233.20000000298,1428.0,1669832649800,1428,HRV,HRV_0099,2022-11-30 18:28:44
70,"[{'imgObject': {}, 'id': 'mango', 'src': '/static/foodstim60/mango.jpg', 'key': 'u', 'origWidth': 411, 'origHeight': 411, 'width': 411, 'height': 411, 'widthPercent': 0.45, 'rescaleHeight': False, 'trialN': 70, 'loaded': True, 'loadedTime': 6810.70000000298, 'positionName': 'LEFT', 'positionCoords': [491.88, 238.5], 'bid': 3.62}, {'imgObject': {}, 'id': 'eggs', 'src': '/static/foodstim60/eggs.jpg', 'key': 'i', 'origWidth': 409, 'origHeight': 409, 'width': 409, 'height': 409, 'widthPercent': 0.45, 'rescaleHeight': False, 'trialN': 70, 'loaded': True, 'loadedTime': 6823.5999999940395, 'positionName': 'RIGHT', 'positionCoords': [978.12, 239.5], 'bid': 2.6}]",132233.29999999702,1669832649800,mango,eggs,3.62,2.6,-1.02,eggs,1468.5,1469,1469.2000000029802,True,i,134207.09999999404,1973.7999999970198,1669832651773,1973,HRV,HRV_0099,2022-11-30 18:28:44
71,"[{'imgObject': {}, 'id': 'turkeysandwich', 'src': '/static/foodstim60/turkeysandwich.jpg', 'key': 'u', 'origWidth': 409, 'origHeight': 409, 'width': 409, 'height': 409, 'widthPercent': 0.45, 'rescaleHeight': False, 'trialN': 71, 'loaded': True, 'loadedTime': 6639.5999999940395, 'positionName': 'LEFT', 'positionCoords': [493.88, 239.5], 'bid': 8.59}, {'imgObject': {}, 'id': 'luckycharms', 'src': '/static/foodstim60/luckycharms.jpg', 'key': 'i', 'origWidth': 410, 'origHeight': 409, 'width': 410, 'height': 409, 'widthPercent': 0.45, 'rescaleHeight': False, 'trialN': 71, 'loaded': True, 'loadedTime': 6723.5999999940395, 'positionName': 'RIGHT', 'positionCoords': [978.12, 239.5], 'bid': 6.49}]",134207.40000000596,1669832651774,turkeysandwich,luckycharms,8.59,6.49,-2.0999999999999996,turkeysandwich,905.2999999970198,906,906.0,True,u,135624.79999999702,1417.3999999910593,1669832653191,1417,HRV,HRV_0099,2022-11-30 18:28:44
72,"[{'imgObject': {}, 'id': 'olives', 'src': '/static/foodstim60/olives.jpg', 'key': 'u', 'origWidth': 410, 'origHeight': 410, 'width': 410, 'height': 410, 'widthPercent': 0.45, 'rescaleHeight': False, 'trialN': 72, 'loaded': True, 'loadedTime': 6728.79999999702, 'positionName': 'LEFT', 'positionCoords': [492.88, 239], 'bid': 0.86}, {'imgObject': {}, 'id': 'granola w milk', 'src': '/static/foodstim60/granola w milk.jpg', 'key': 'i', 'origWidth': 410, 'origHeight': 410, 'width': 410, 'height': 410, 'widthPercent': 0.45, 'rescaleHeight': False, 'trialN': 72, 'loaded': True, 'loadedTime': 6826.9000000059605, 'positionName': 'RIGHT', 'positionCoords': [978.12, 239], 'bid': 3.46}]",135625.0,1669832653191,olives,granola w milk,0.86,3.46,2.6,granola w milk,1975.7000000029802,1977,1976.4000000059605,True,i,138107.09999999404,2482.0999999940395,1669832655673,2482,HRV,HRV_0099,2022-11-30 18:28:44
73,"[{'imgObject': {}, 'id': 'blackbeanswithrice', 'src': '/static/foodstim60/blackbeanswithrice.jpg', 'key': 'u', 'origWidth': 410, 'origHeight': 410, 'width': 410, 'height': 410, 'widthPercent': 0.45, 'rescaleHeight': False, 'trialN': 73, 'loaded': True, 'loadedTime': 6819.0999999940395, 'positionName': 'LEFT', 'positionCoords': [492.88, 239], 'bid': 6.43}, {'imgObject': {}, 'id': 'rigatoni', 'src': '/static/foodstim60/rigatoni.jpg', 'key': 'i', 'origWidth': 411, 'origHeight': 411, 'width': 411, 'height': 411, 'widthPercent': 0.45, 'rescaleHeight': False, 'trialN': 73, 'loaded': True, 'loadedTime': 6741.20000000298, 'positionName': 'RIGHT', 'positionCoords': [978.12, 238.5], 'bid': 6.03}]",138107.40000000596,1669832655674,blackbeanswithrice,rigatoni,6.43,6.03,-0.39999999999999947,blackbeanswithrice,1068.0999999940395,1068,1068.699999988079,True,u,139687.5,1580.0999999940395,1669832657254,1580,HRV,HRV_0099,2022-11-30 18:28:44
74,"[{'imgObject': {}, 'id': 'blackbeanswithrice', 'src': '/static/foodstim60/blackbeanswithrice.jpg', 'key': 'u', 'origWidth': 410, 'origHeight': 410, 'width': 410, 'height': 410, 'widthPercent': 0.45, 'rescaleHeight': False, 'trialN': 74, 'loaded': True, 'loadedTime': 6819.20000000298, 'positionName': 'LEFT', 'positionCoords': [492.88, 239], 'bid': 6.43}, {'imgObject': {}, 'id': 'kiwi', 'src': '/static/foodstim60/kiwi.jpg', 'key': 'i', 'origWidth': 410, 'origHeight': 410, 'width': 410, 'height': 410, 'widthPercent': 0.45, 'rescaleHeight': False, 'trialN': 74, 'loaded': True, 'loadedTime': 6812.9000000059605, 'positionName': 'RIGHT', 'positionCoords': [978.12, 239], 'bid': 2.61}]",139688.90000000596,1669832657255,blackbeanswithrice,kiwi,6.43,2.61,-3.82,blackbeanswithrice,1358.7999999970198,1360,1359.5,True,u,141552.20000000298,1863.2999999970198,1669832659119,1864,HRV,HRV_0099,2022-11-30 18:28:44
75,"[{'imgObject': {}, 'id': 'omelette', 'src': '/static/foodstim60/omelette.jpg', 'key': 'u', 'origWidth': 410, 'origHeight': 409, 'width': 410, 'height': 409, 'widthPercent': 0.45, 'rescaleHeight': False, 'trialN': 75, 'loaded': True, 'loadedTime': 6721.5, 'positionName': 'LEFT', 'positionCoords': [492.88, 239.5], 'bid': 8.65}, {'imgObject': {}, 'id': 'froot loops w milk', 'src': '/static/foodstim60/froot loops w milk.jpg', 'key': 'i', 'origWidth': 410, 'origHeight': 410, 'width': 410, 'height': 410, 'widthPercent': 0.45, 'rescaleHeight': False, 'trialN': 75, 'loaded': True, 'loadedTime': 6559.29999999702, 'positionName': 'RIGHT', 'positionCoords': [978.12, 239], 'bid': 6.97}]",141552.59999999404,1669832659119,omelette,froot loops w milk,8.65,6.97,-1.6800000000000006,omelette,831.0,832,831.8000000119209,True,u,142887.79999999702,1335.2000000029802,1669832660454,1335,HRV,HRV_0099,2022-11-30 18:28:44
76,"[{'imgObject': {}, 'id': 'burger', 'src': '/static/foodstim60/burger.jpg', 'key': 'u', 'origWidth': 409, 'origHeight': 409, 'width': 409, 'height': 409, 'widthPercent': 0.45, 'rescaleHeight': False, 'trialN': 76, 'loaded': True, 'loadedTime': 6570.70000000298, 'positionName': 'LEFT', 'positionCoords': [493.88, 239.5], 'bid': 5.71}, {'imgObject': {}, 'id': 'corn cob', 'src': '/static/foodstim60/corn cob.jpg', 'key': 'i', 'origWidth': 411, 'origHeight': 411, 'width': 411, 'height': 411, 'widthPercent': 0.45, 'rescaleHeight': False, 'trialN': 76, 'loaded': True, 'loadedTime': 6680.5, 'positionName': 'RIGHT', 'positionCoords': [978.12, 238.5], 'bid': 5.91}]",142888.0,1669832660454,burger,corn cob,5.71,5.91,0.20000000000000018,burger,1180.7000000029802,1182,1181.4000000059605,True,u,144572.29999999702,1684.2999999970198,1669832662139,1685,HRV,HRV_0099,2022-11-30 18:28:44
77,"[{'imgObject': {}, 'id': 'burrito', 'src': '/static/foodstim60/burrito.jpg', 'key': 'u', 'origWidth': 410, 'origHeight': 410, 'width': 410, 'height': 410, 'widthPercent': 0.45, 'rescaleHeight': False, 'trialN': 77, 'loaded': True, 'loadedTime': 6827.79999999702, 'positionName': 'LEFT', 'positionCoords': [492.88, 239], 'bid': 6.640000000000001}, {'imgObject': {}, 'id': 'rigatoni', 'src': '/static/foodstim60/rigatoni.jpg', 'key': 'i', 'origWidth': 411, 'origHeight': 411, 'width': 411, 'height': 411, 'widthPercent': 0.45, 'rescaleHeight': False, 'trialN': 77, 'loaded': True, 'loadedTime': 6748.0999999940395, 'positionName': 'RIGHT', 'positionCoords': [978.12, 238.5], 'bid': 6.03}]",144572.40000000596,1669832662139,burrito,rigatoni,6.640000000000001,6.03,-0.6100000000000003,burrito,749.8999999910593,750,750.5999999940395,True,u,145824.59999999404,1252.199999988079,1669832663391,1252,HRV,HRV_0099,2022-11-30 18:28:44
78,"[{'imgObject': {}, 'id': 'sushi w_condiments', 'src': '/static/foodstim60/sushi w_condiments.jpg', 'key': 'u', 'origWidth': 410, 'origHeight': 410, 'width': 410, 'height': 410, 'widthPercent': 0.45, 'rescaleHeight': False, 'trialN': 78, 'loaded': True, 'loadedTime': 6579, 'positionName': 'LEFT', 'positionCoords': [492.88, 239], 'bid': 1.9}, {'imgObject': {}, 'id': 'cocktailshrimp', 'src': '/static/foodstim60/cocktailshrimp.jpg', 'key': 'i', 'origWidth': 410, 'origHeight': 410, 'width': 410, 'height': 410, 'widthPercent': 0.45, 'rescaleHeight': False, 'trialN': 78, 'loaded': True, 'loadedTime': 6650.9000000059605, 'positionName': 'RIGHT', 'positionCoords': [978.12, 239], 'bid': 3.14}]",145824.79999999702,1669832663391,sushi w_condiments,cocktailshrimp,1.9,3.14,1.2400000000000002,cocktailshrimp,1380.0,1381,1380.9000000059605,True,i,147718.29999999702,1893.5,1669832665285,1894,HRV,HRV_0099,2022-11-30 18:28:44
79,"[{'imgObject': {}, 'id': 'kiwi', 'src': '/static/foodstim60/kiwi.jpg', 'key': 'u', 'origWidth': 410, 'origHeight': 410, 'width': 410, 'height': 410, 'widthPercent': 0.45, 'rescaleHeight': False, 'trialN': 79, 'loaded': True, 'loadedTime': 6817.9000000059605, 'positionName': 'LEFT', 'positionCoords': [492.88, 239], 'bid': 2.61}, {'imgObject': {}, 'id': 'fruitsalad', 'src': '/static/foodstim60/fruitsalad.jpg', 'key': 'i', 'origWidth': 410, 'origHeight': 410, 'width': 410, 'height': 410, 'widthPercent': 0.45, 'rescaleHeight': False, 'trialN': 79, 'loaded': True, 'loadedTime': 6730.29999999702, 'positionName': 'RIGHT', 'positionCoords': [978.12, 239], 'bid': 4.5200000000000005}]",147718.59999999404,1669832665285,kiwi,fruitsalad,2.61,4.5200000000000005,1.9100000000000006,fruitsalad,1063.0,1064,1063.6000000089407,True,i,149294.09999999404,1575.5,1669832666860,1575,HRV,HRV_0099,2022-11-30 18:28:44
80,"[{'imgObject': {}, 'id': 'blueberries', 'src': '/static/foodstim60/blueberries.jpg', 'key': 'u', 'origWidth': 411, 'origHeight': 411, 'width': 411, 'height': 411, 'widthPercent': 0.45, 'rescaleHeight': False, 'trialN': 80, 'loaded': True, 'loadedTime': 6708, 'positionName': 'LEFT', 'positionCoords': [491.88, 238.5], 'bid': 5.54}, {'imgObject': {}, 'id': 'ice cream sundae 002', 'src': '/static/foodstim60/ice cream sundae 002.jpg', 'key': 'i', 'origWidth': 409, 'origHeight': 409, 'width': 409, 'height': 409, 'widthPercent': 0.45, 'rescaleHeight': False, 'trialN': 80, 'loaded': True, 'loadedTime': 6587.79999999702, 'positionName': 'RIGHT', 'positionCoords': [978.12, 239.5], 'bid': 4.11}]",149294.29999999702,1669832666861,blueberries,ice cream sundae 002,5.54,4.11,-1.4299999999999997,blueberries,1822.4000000059605,1823,1823.1000000089407,True,u,151621.29999999702,2327.0,1669832669188,2327,HRV,HRV_0099,2022-11-30 18:28:44
81,"[{'imgObject': {}, 'id': 'avocado', 'src': '/static/foodstim60/avocado.jpg', 'key': 'u', 'origWidth': 409, 'origHeight': 409, 'width': 409, 'height': 409, 'widthPercent': 0.45, 'rescaleHeight': False, 'trialN': 81, 'loaded': True, 'loadedTime': 6672.79999999702, 'positionName': 'LEFT', 'positionCoords': [493.88, 239.5], 'bid': 2.16}, {'imgObject': {}, 'id': 'apple slices', 'src': '/static/foodstim60/apple slices.jpg', 'key': 'i', 'origWidth': 409, 'origHeight': 410, 'width': 409, 'height': 410, 'widthPercent': 0.45, 'rescaleHeight': False, 'trialN': 81, 'loaded': True, 'loadedTime': 6829.20000000298, 'positionName': 'RIGHT', 'positionCoords': [978.12, 239], 'bid': 4.03}]",151621.59999999404,1669832669188,avocado,apple slices,2.16,4.03,1.87,apple slices,1536.2000000029802,1537,1536.9000000059605,True,i,153672.90000000596,2051.300000011921,1669832671239,2051,HRV,HRV_0099,2022-11-30 18:28:44
82,"[{'imgObject': {}, 'id': 'ice cream sundae 002', 'src': '/static/foodstim60/ice cream sundae 002.jpg', 'key': 'u', 'origWidth': 409, 'origHeight': 409, 'width': 409, 'height': 409, 'widthPercent': 0.45, 'rescaleHeight': False, 'trialN': 82, 'loaded': True, 'loadedTime': 6588.5999999940395, 'positionName': 'LEFT', 'positionCoords': [493.88, 239.5], 'bid': 4.11}, {'imgObject': {}, 'id': 'roastedpotatoes', 'src': '/static/foodstim60/roastedpotatoes.jpg', 'key': 'i', 'origWidth': 409, 'origHeight': 410, 'width': 409, 'height': 410, 'widthPercent': 0.45, 'rescaleHeight': False, 'trialN': 82, 'loaded': True, 'loadedTime': 6770.70000000298, 'positionName': 'RIGHT', 'positionCoords': [978.12, 239], 'bid': 8.01}]",153673.09999999404,1669832671239,ice cream sundae 002,roastedpotatoes,4.11,8.01,3.8999999999999995,roastedpotatoes,1854.6000000089407,1856,1855.4000000059605,True,i,156035.79999999702,2362.7000000029802,1669832673602,2363,HRV,HRV_0099,2022-11-30 18:28:44
83,"[{'imgObject': {}, 'id': 'eggs', 'src': '/static/foodstim60/eggs.jpg', 'key': 'u', 'origWidth': 409, 'origHeight': 409, 'width': 409, 'height': 409, 'widthPercent': 0.45, 'rescaleHeight': False, 'trialN': 83, 'loaded': True, 'loadedTime': 6823.9000000059605, 'positionName': 'LEFT', 'positionCoords': [493.88, 239.5], 'bid': 2.6}, {'imgObject': {}, 'id': 'hashbrowns', 'src': '/static/foodstim60/hashbrowns.jpg', 'key': 'i', 'origWidth': 411, 'origHeight': 410, 'width': 411, 'height': 410, 'widthPercent': 0.45, 'rescaleHeight': False, 'trialN': 83, 'loaded': True, 'loadedTime': 6736.29999999702, 'positionName': 'RIGHT', 'positionCoords': [978.12, 239], 'bid': 2.54}]",156035.90000000596,1669832673602,eggs,hashbrowns,2.6,2.54,-0.06000000000000005,eggs,1002.8999999910593,1004,1003.6999999880791,True,u,157554.90000000596,1519.0,1669832675121,1519,HRV,HRV_0099,2022-11-30 18:28:44
84,"[{'imgObject': {}, 'id': 'cheerios', 'src': '/static/foodstim60/cheerios.jpg', 'key': 'u', 'origWidth': 409, 'origHeight': 410, 'width': 409, 'height': 410, 'widthPercent': 0.45, 'rescaleHeight': False, 'trialN': 84, 'loaded': True, 'loadedTime': 6812.4000000059605, 'positionName': 'LEFT', 'positionCoords': [493.88, 239], 'bid': 5.62}, {'imgObject': {}, 'id': 'burger', 'src': '/static/foodstim60/burger.jpg', 'key': 'i', 'origWidth': 409, 'origHeight': 409, 'width': 409, 'height': 409, 'widthPercent': 0.45, 'rescaleHeight': False, 'trialN': 84, 'loaded': True, 'loadedTime': 6574.4000000059605, 'positionName': 'RIGHT', 'positionCoords': [978.12, 239.5], 'bid': 5.71}]",157555.29999999702,1669832675122,cheerios,burger,5.62,5.71,0.08999999999999986,burger,998.4000000059605,999,999.2000000029802,True,i,159063.0,1507.7000000029802,1669832676629,1507,HRV,HRV_0099,2022-11-30 18:28:44
85,"[{'imgObject': {}, 'id': 'chickenfingers', 'src': '/static/foodstim60/chickenfingers.jpg', 'key': 'u', 'origWidth': 410, 'origHeight': 410, 'width': 410, 'height': 410, 'widthPercent': 0.45, 'rescaleHeight': False, 'trialN': 85, 'loaded': True, 'loadedTime': 6757.29999999702, 'positionName': 'LEFT', 'positionCoords': [492.88, 239], 'bid': 8.73}, {'imgObject': {}, 'id': 'burrito', 'src': '/static/foodstim60/burrito.jpg', 'key': 'i', 'origWidth': 410, 'origHeight': 410, 'width': 410, 'height': 410, 'widthPercent': 0.45, 'rescaleHeight': False, 'trialN': 85, 'loaded': True, 'loadedTime': 6828.0999999940395, 'positionName': 'RIGHT', 'positionCoords': [978.12, 239], 'bid': 6.640000000000001}]",159063.29999999702,1669832676630,chickenfingers,burrito,8.73,6.640000000000001,-2.09,chickenfingers,744.5,745,745.1000000089407,True,u,160314.09999999404,1250.7999999970198,1669832677880,1250,HRV,HRV_0099,2022-11-30 18:28:44
86,"[{'imgObject': {}, 'id': 'yogurt no spoon', 'src': '/static/foodstim60/yogurt no spoon.jpg', 'key': 'u', 'origWidth': 411, 'origHeight': 410, 'width': 411, 'height': 410, 'widthPercent': 0.45, 'rescaleHeight': False, 'trialN': 86, 'loaded': True, 'loadedTime': 6583.29999999702, 'positionName': 'LEFT', 'positionCoords': [491.88, 239], 'bid': 5.78}, {'imgObject': {}, 'id': 'mashed potato', 'src': '/static/foodstim60/mashed potato.jpg', 'key': 'i', 'origWidth': 409, 'origHeight': 409, 'width': 409, 'height': 409, 'widthPercent': 0.45, 'rescaleHeight': False, 'trialN': 86, 'loaded': True, 'loadedTime': 6692, 'positionName': 'RIGHT', 'positionCoords': [978.12, 239.5], 'bid': 7.38}]",160314.29999999702,1669832677881,yogurt no spoon,mashed potato,5.78,7.38,1.5999999999999996,mashed potato,964.4000000059605,965,965.2000000029802,True,i,161784.0,1469.7000000029802,1669832679350,1469,HRV,HRV_0099,2022-11-30 18:28:44
87,"[{'imgObject': {}, 'id': 'turkeysandwich', 'src': '/static/foodstim60/turkeysandwich.jpg', 'key': 'u', 'origWidth': 409, 'origHeight': 409, 'width': 409, 'height': 409, 'widthPercent': 0.45, 'rescaleHeight': False, 'trialN': 87, 'loaded': True, 'loadedTime': 6639.9000000059605, 'positionName': 'LEFT', 'positionCoords': [493.88, 239.5], 'bid': 8.59}, {'imgObject': {}, 'id': 'salmon', 'src': '/static/foodstim60/salmon.jpg', 'key': 'i', 'origWidth': 410, 'origHeight': 409, 'width': 410, 'height': 409, 'widthPercent': 0.45, 'rescaleHeight': False, 'trialN': 87, 'loaded': True, 'loadedTime': 6821.5999999940395, 'positionName': 'RIGHT', 'positionCoords': [978.12, 239.5], 'bid': 7.34}]",161784.40000000596,1669832679351,turkeysandwich,salmon,8.59,7.34,-1.25,turkeysandwich,642.2999999970198,643,643.0,True,u,162932.09999999404,1147.699999988079,1669832680498,1147,HRV,HRV_0099,2022-11-30 18:28:44
88,"[{'imgObject': {}, 'id': 'baked potato', 'src': '/static/foodstim60/baked potato.jpg', 'key': 'u', 'origWidth': 409, 'origHeight': 410, 'width': 409, 'height': 410, 'widthPercent': 0.45, 'rescaleHeight': False, 'trialN': 88, 'loaded': True, 'loadedTime': 6625.9000000059605, 'positionName': 'LEFT', 'positionCoords': [493.88, 239], 'bid': 8.92}, {'imgObject': {}, 'id': 'mac & cheese', 'src': '/static/foodstim60/mac & cheese.jpg', 'key': 'i', 'origWidth': 410, 'origHeight': 410, 'width': 410, 'height': 410, 'widthPercent': 0.45, 'rescaleHeight': False, 'trialN': 88, 'loaded': True, 'loadedTime': 6597.5999999940395, 'positionName': 'RIGHT', 'positionCoords': [978.12, 239], 'bid': 6.83}]",162932.29999999702,1669832680499,baked potato,mac & cheese,8.92,6.83,-2.09,mac & cheese,1509.4000000059605,1510,1510.2000000029802,True,i,164955.09999999404,2022.7999999970198,1669832682521,2022,HRV,HRV_0099,2022-11-30 18:28:44
89,"[{'imgObject': {}, 'id': 'seaweed', 'src': '/static/foodstim60/seaweed.jpg', 'key': 'u', 'origWidth': 410, 'origHeight': 410, 'width': 410, 'height': 410, 'widthPercent': 0.45, 'rescaleHeight': False, 'trialN': 89, 'loaded': True, 'loadedTime': 6770.4000000059605, 'positionName': 'LEFT', 'positionCoords': [492.88, 239], 'bid': 0.8300000000000001}, {'imgObject': {}, 'id': 'hotdog w must', 'src': '/static/foodstim60/hotdog w must.jpg', 'key': 'i', 'origWidth': 409, 'origHeight': 409, 'width': 409, 'height': 409, 'widthPercent': 0.45, 'rescaleHeight': False, 'trialN': 89, 'loaded': True, 'loadedTime': 6554.5999999940395, 'positionName': 'RIGHT', 'positionCoords': [978.12, 239.5], 'bid': 5.53}]",164955.70000000298,1669832682522,seaweed,hotdog w must,0.8300000000000001,5.53,4.7,hotdog w must,704.0,705,704.7000000029802,True,i,166161.29999999702,1205.5999999940395,1669832683728,1206,HRV,HRV_0099,2022-11-30 18:28:44
90,"[{'imgObject': {}, 'id': 'eggsalad', 'src': '/static/foodstim60/eggsalad.jpg', 'key': 'u', 'origWidth': 410, 'origHeight': 409, 'width': 410, 'height': 409, 'widthPercent': 0.45, 'rescaleHeight': False, 'trialN': 90, 'loaded': True, 'loadedTime': 6651.70000000298, 'positionName': 'LEFT', 'positionCoords': [492.88, 239.5], 'bid': 6.5600000000000005}, {'imgObject': {}, 'id': 'fried eggs', 'src': '/static/foodstim60/fried eggs.jpg', 'key': 'i', 'origWidth': 410, 'origHeight': 410, 'width': 410, 'height': 410, 'widthPercent': 0.45, 'rescaleHeight': False, 'trialN': 90, 'loaded': True, 'loadedTime': 6626.20000000298, 'positionName': 'RIGHT', 'positionCoords': [978.12, 239], 'bid': 6.61}]",265084.799999997,1669832782651,eggsalad,fried eggs,6.5600000000000005,6.61,0.04999999999999982,fried eggs,2043.9000000059605,2045,2044.7000000029802,True,i,267641.200000003,2556.4000000059605,1669832785207,2556,HRV,HRV_0099,2022-11-30 18:28:44
91,"[{'imgObject': {}, 'id': 'olives', 'src': '/static/foodstim60/olives.jpg', 'key': 'u', 'origWidth': 410, 'origHeight': 410, 'width': 410, 'height': 410, 'widthPercent': 0.45, 'rescaleHeight': False, 'trialN': 91, 'loaded': True, 'loadedTime': 6727.9000000059605, 'positionName': 'LEFT', 'positionCoords': [492.88, 239], 'bid': 0.86}, {'imgObject': {}, 'id': 'blueberries', 'src': '/static/foodstim60/blueberries.jpg', 'key': 'i', 'origWidth': 411, 'origHeight': 411, 'width': 411, 'height': 411, 'widthPercent': 0.45, 'rescaleHeight': False, 'trialN': 91, 'loaded': True, 'loadedTime': 6713.29999999702, 'positionName': 'RIGHT', 'positionCoords': [978.12, 238.5], 'bid': 5.54}]",267641.299999997,1669832785208,olives,blueberries,0.86,5.54,4.68,blueberries,1519.4000000059605,1520,1520.2000000029802,True,i,269666.09999999404,2024.7999999970198,1669832787232,2024,HRV,HRV_0099,2022-11-30 18:28:44
92,"[{'imgObject': {}, 'id': 'cherries', 'src': '/static/foodstim60/cherries.jpg', 'key': 'u', 'origWidth': 410, 'origHeight': 411, 'width': 410, 'height': 411, 'widthPercent': 0.45, 'rescaleHeight': False, 'trialN': 92, 'loaded': True, 'loadedTime': 6565.20000000298, 'positionName': 'LEFT', 'positionCoords': [492.88, 238.5], 'bid': 3.14}, {'imgObject': {}, 'id': 'lox', 'src': '/static/foodstim60/lox.jpg', 'key': 'i', 'origWidth': 410, 'origHeight': 411, 'width': 410, 'height': 411, 'widthPercent': 0.45, 'rescaleHeight': False, 'trialN': 92, 'loaded': True, 'loadedTime': 6640.70000000298, 'positionName': 'RIGHT', 'positionCoords': [978.12, 238.5], 'bid': 3.18}]",269666.40000000596,1669832787233,cherries,lox,3.14,3.18,0.040000000000000036,cherries,2206.5,2207,2207.0999999940395,True,u,272385.09999999404,2718.699999988079,1669832789951,2718,HRV,HRV_0099,2022-11-30 18:28:44
93,"[{'imgObject': {}, 'id': 'mac & cheese', 'src': '/static/foodstim60/mac & cheese.jpg', 'key': 'u', 'origWidth': 410, 'origHeight': 410, 'width': 410, 'height': 410, 'widthPercent': 0.45, 'rescaleHeight': False, 'trialN': 93, 'loaded': True, 'loadedTime': 6597.29999999702, 'positionName': 'LEFT', 'positionCoords': [492.88, 239], 'bid': 6.83}, {'imgObject': {}, 'id': 'banana', 'src': '/static/foodstim60/banana.jpg', 'key': 'i', 'origWidth': 410, 'origHeight': 410, 'width': 410, 'height': 410, 'widthPercent': 0.45, 'rescaleHeight': False, 'trialN': 93, 'loaded': True, 'loadedTime': 6820.4000000059605, 'positionName': 'RIGHT', 'positionCoords': [978.12, 239], 'bid': 3.33}]",272385.700000003,1669832789952,mac & cheese,banana,6.83,3.33,-3.5,mac & cheese,639.0,640,639.7999999970198,True,u,273532.799999997,1147.0999999940395,1669832791099,1147,HRV,HRV_0099,2022-11-30 18:28:44
94,"[{'imgObject': {}, 'id': 'chicken nuggets2', 'src': '/static/foodstim60/chicken nuggets2.jpg', 'key': 'u', 'origWidth': 410, 'origHeight': 409, 'width': 410, 'height': 409, 'widthPercent': 0.45, 'rescaleHeight': False, 'trialN': 94, 'loaded': True, 'loadedTime': 6825.4000000059605, 'positionName': 'LEFT', 'positionCoords': [492.88, 239.5], 'bid': 7.0600000000000005}, {'imgObject': {}, 'id': 'blueberries', 'src': '/static/foodstim60/blueberries.jpg', 'key': 'i', 'origWidth': 411, 'origHeight': 411, 'width': 411, 'height': 411, 'widthPercent': 0.45, 'rescaleHeight': False, 'trialN': 94, 'loaded': True, 'loadedTime': 6709, 'positionName': 'RIGHT', 'positionCoords': [978.12, 238.5], 'bid': 5.54}]",273532.90000000596,1669832791099,chicken nuggets2,blueberries,7.0600000000000005,5.54,-1.5200000000000005,chicken nuggets2,870.8999999910593,872,871.5999999940395,True,u,274915.700000003,1382.7999999970198,1669832792482,1383,HRV,HRV_0099,2022-11-30 18:28:44
95,"[{'imgObject': {}, 'id': 'yogurt no spoon', 'src': '/static/foodstim60/yogurt no spoon.jpg', 'key': 'u', 'origWidth': 411, 'origHeight': 410, 'width': 411, 'height': 410, 'widthPercent': 0.45, 'rescaleHeight': False, 'trialN': 95, 'loaded': True, 'loadedTime': 6584.79999999702, 'positionName': 'LEFT', 'positionCoords': [491.88, 239], 'bid': 5.78}, {'imgObject': {}, 'id': 'cheerios', 'src': '/static/foodstim60/cheerios.jpg', 'key': 'i', 'origWidth': 409, 'origHeight': 410, 'width': 409, 'height': 410, 'widthPercent': 0.45, 'rescaleHeight': False, 'trialN': 95, 'loaded': True, 'loadedTime': 6812.29999999702, 'positionName': 'RIGHT', 'positionCoords': [978.12, 239], 'bid': 5.62}]",274915.799999997,1669832792482,yogurt no spoon,cheerios,5.78,5.62,-0.16000000000000014,yogurt no spoon,1366.7999999970198,1368,1367.5,True,u,276795.299999997,1879.5,1669832794362,1880,HRV,HRV_0099,2022-11-30 18:28:44
96,"[{'imgObject': {}, 'id': 'strawberries', 'src': '/static/foodstim60/strawberries.jpg', 'key': 'u', 'origWidth': 410, 'origHeight': 410, 'width': 410, 'height': 410, 'widthPercent': 0.45, 'rescaleHeight': False, 'trialN': 96, 'loaded': True, 'loadedTime': 6793.9000000059605, 'positionName': 'LEFT', 'positionCoords': [492.88, 239], 'bid': 5.28}, {'imgObject': {}, 'id': 'raspberries', 'src': '/static/foodstim60/raspberries.jpg', 'key': 'i', 'origWidth': 411, 'origHeight': 411, 'width': 411, 'height': 411, 'widthPercent': 0.45, 'rescaleHeight': False, 'trialN': 96, 'loaded': True, 'loadedTime': 6707.4000000059605, 'positionName': 'RIGHT', 'positionCoords': [978.12, 238.5], 'bid': 5.16}]",276795.59999999404,1669832794362,strawberries,raspberries,5.28,5.16,-0.1200000000000001,strawberries,920.1000000089407,921,920.8000000119209,True,u,278216.90000000596,1421.300000011921,1669832795783,1421,HRV,HRV_0099,2022-11-30 18:28:44
97,"[{'imgObject': {}, 'id': 'rigatoni and sauce', 'src': '/static/foodstim60/rigatoni and sauce.jpg', 'key': 'u', 'origWidth': 410, 'origHeight': 411, 'width': 410, 'height': 411, 'widthPercent': 0.45, 'rescaleHeight': False, 'trialN': 97, 'loaded': True, 'loadedTime': 6618.9000000059605, 'positionName': 'LEFT', 'positionCoords': [492.88, 238.5], 'bid': 6.67}, {'imgObject': {}, 'id': 'pear', 'src': '/static/foodstim60/pear.jpg', 'key': 'i', 'origWidth': 411, 'origHeight': 410, 'width': 411, 'height': 410, 'widthPercent': 0.45, 'rescaleHeight': False, 'trialN': 97, 'loaded': True, 'loadedTime': 6664.20000000298, 'positionName': 'RIGHT', 'positionCoords': [978.12, 239], 'bid': 3.3200000000000003}]",278217.200000003,1669832795783,rigatoni and sauce,pear,6.67,3.3200000000000003,-3.3499999999999996,rigatoni and sauce,635.5,637,636.2000000029802,True,u,279356.799999997,1139.5999999940395,1669832796923,1140,HRV,HRV_0099,2022-11-30 18:28:44
98,"[{'imgObject': {}, 'id': 'avocado', 'src': '/static/foodstim60/avocado.jpg', 'key': 'u', 'origWidth': 409, 'origHeight': 409, 'width': 409, 'height': 409, 'widthPercent': 0.45, 'rescaleHeight': False, 'trialN': 98, 'loaded': True, 'loadedTime': 6672.0999999940395, 'positionName': 'LEFT', 'positionCoords': [493.88, 239.5], 'bid': 2.16}, {'imgObject': {}, 'id': 'eggs', 'src': '/static/foodstim60/eggs.jpg', 'key': 'i', 'origWidth': 409, 'origHeight': 409, 'width': 409, 'height': 409, 'widthPercent': 0.45, 'rescaleHeight': False, 'trialN': 98, 'loaded': True, 'loadedTime': 6824, 'positionName': 'RIGHT', 'positionCoords': [978.12, 239.5], 'bid': 2.6}]",279357.200000003,1669832796923,avocado,eggs,2.16,2.6,0.43999999999999995,eggs,653.5,655,654.2999999970198,True,i,280512.90000000596,1155.7000000029802,1669832798079,1156,HRV,HRV_0099,2022-11-30 18:28:44
99,"[{'imgObject': {}, 'id': 'ice cream sundae 002', 'src': '/static/foodstim60/ice cream sundae 002.jpg', 'key': 'u', 'origWidth': 409, 'origHeight': 409, 'width': 409, 'height': 409, 'widthPercent': 0.45, 'rescaleHeight': False, 'trialN': 99, 'loaded': True, 'loadedTime': 6586.5999999940395, 'positionName': 'LEFT', 'positionCoords': [493.88, 239.5], 'bid': 4.11}, {'imgObject': {}, 'id': 'apple slices', 'src': '/static/foodstim60/apple slices.jpg', 'key': 'i', 'origWidth': 409, 'origHeight': 410, 'width': 409, 'height': 410, 'widthPercent': 0.45, 'rescaleHeight': False, 'trialN': 99, 'loaded': True, 'loadedTime': 6829.5, 'positionName': 'RIGHT', 'positionCoords': [978.12, 239], 'bid': 4.03}]",280513.09999999404,1669832798079,ice cream sundae 002,apple slices,4.11,4.03,-0.08000000000000007,ice cream sundae 002,1006.3000000119209,1007,1007.0,True,u,282024.700000003,1511.6000000089407,1669832799591,1512,HRV,HRV_0099,2022-11-30 18:28:44
100,"[{'imgObject': {}, 'id': 'cherries', 'src': '/static/foodstim60/cherries.jpg', 'key': 'u', 'origWidth': 410, 'origHeight': 411, 'width': 410, 'height': 411, 'widthPercent': 0.45, 'rescaleHeight': False, 'trialN': 100, 'loaded': True, 'loadedTime': 6565.79999999702, 'positionName': 'LEFT', 'positionCoords': [492.88, 238.5], 'bid': 3.14}, {'imgObject': {}, 'id': 'shreddedwheatwithmilk', 'src': '/static/foodstim60/shreddedwheatwithmilk.jpg', 'key': 'i', 'origWidth': 410, 'origHeight': 410, 'width': 410, 'height': 410, 'widthPercent': 0.45, 'rescaleHeight': False, 'trialN': 100, 'loaded': True, 'loadedTime': 6795, 'positionName': 'RIGHT', 'positionCoords': [978.12, 239], 'bid': 5.1000000000000005}]",282025.0,1669832799591,cherries,shreddedwheatwithmilk,3.14,5.1000000000000005,1.9600000000000004,cherries,1261.7999999970198,1263,1262.4000000059605,True,u,283799.0,1774.0,1669832801365,1774,HRV,HRV_0099,2022-11-30 18:28:44
101,"[{'imgObject': {}, 'id': 'mango', 'src': '/static/foodstim60/mango.jpg', 'key': 'u', 'origWidth': 411, 'origHeight': 411, 'width': 411, 'height': 411, 'widthPercent': 0.45, 'rescaleHeight': False, 'trialN': 101, 'loaded': True, 'loadedTime': 6810.79999999702, 'positionName': 'LEFT', 'positionCoords': [491.88, 238.5], 'bid': 3.62}, {'imgObject': {}, 'id': 'bagel plain', 'src': '/static/foodstim60/bagel plain.jpg', 'key': 'i', 'origWidth': 410, 'origHeight': 410, 'width': 410, 'height': 410, 'widthPercent': 0.45, 'rescaleHeight': False, 'trialN': 101, 'loaded': True, 'loadedTime': 6749.70000000298, 'positionName': 'RIGHT', 'positionCoords': [978.12, 239], 'bid': 7.17}]",283799.299999997,1669832801366,mango,bagel plain,3.62,7.17,3.55,bagel plain,801.5,802,802.2000000029802,True,i,285117.0,1317.7000000029802,1669832802683,1317,HRV,HRV_0099,2022-11-30 18:28:44
102,"[{'imgObject': {}, 'id': 'grilled chicken strips', 'src': '/static/foodstim60/grilled chicken strips.jpg', 'key': 'u', 'origWidth': 410, 'origHeight': 411, 'width': 410, 'height': 411, 'widthPercent': 0.45, 'rescaleHeight': False, 'trialN': 102, 'loaded': True, 'loadedTime': 6777.79999999702, 'positionName': 'LEFT', 'positionCoords': [492.88, 238.5], 'bid': 7.87}, {'imgObject': {}, 'id': 'salad w chicken', 'src': '/static/foodstim60/salad w chicken.jpg', 'key': 'i', 'origWidth': 411, 'origHeight': 411, 'width': 411, 'height': 411, 'widthPercent': 0.45, 'rescaleHeight': False, 'trialN': 102, 'loaded': True, 'loadedTime': 6694, 'positionName': 'RIGHT', 'positionCoords': [978.12, 238.5], 'bid': 8.69}]",285117.200000003,1669832802683,grilled chicken strips,salad w chicken,7.87,8.69,0.8199999999999994,grilled chicken strips,603.3999999910593,604,604.0999999940395,True,u,286232.90000000596,1115.7000000029802,1669832803799,1116,HRV,HRV_0099,2022-11-30 18:28:44
103,"[{'imgObject': {}, 'id': 'turkey sandwich', 'src': '/static/foodstim60/turkey sandwich.jpg', 'key': 'u', 'origWidth': 409, 'origHeight': 409, 'width': 409, 'height': 409, 'widthPercent': 0.45, 'rescaleHeight': False, 'trialN': 103, 'loaded': True, 'loadedTime': 6785.20000000298, 'positionName': 'LEFT', 'positionCoords': [493.88, 239.5], 'bid': 8.24}, {'imgObject': {}, 'id': 'bagel and cc', 'src': '/static/foodstim60/bagel and cc.jpg', 'key': 'i', 'origWidth': 410, 'origHeight': 410, 'width': 410, 'height': 410, 'widthPercent': 0.45, 'rescaleHeight': False, 'trialN': 103, 'loaded': True, 'loadedTime': 6607.20000000298, 'positionName': 'RIGHT', 'positionCoords': [978.12, 239], 'bid': 8.47}]",286233.09999999404,1669832803799,turkey sandwich,bagel and cc,8.24,8.47,0.23000000000000043,turkey sandwich,687.4000000059605,688,688.1000000089407,True,u,287426.0,1192.9000000059605,1669832804992,1193,HRV,HRV_0099,2022-11-30 18:28:44
104,"[{'imgObject': {}, 'id': 'tacos', 'src': '/static/foodstim60/tacos.jpg', 'key': 'u', 'origWidth': 411, 'origHeight': 411, 'width': 411, 'height': 411, 'widthPercent': 0.45, 'rescaleHeight': False, 'trialN': 104, 'loaded': True, 'loadedTime': 6792.20000000298, 'positionName': 'LEFT', 'positionCoords': [491.88, 238.5], 'bid': 6.24}, {'imgObject': {}, 'id': 'strawberries', 'src': '/static/foodstim60/strawberries.jpg', 'key': 'i', 'origWidth': 410, 'origHeight': 410, 'width': 410, 'height': 410, 'widthPercent': 0.45, 'rescaleHeight': False, 'trialN': 104, 'loaded': True, 'loadedTime': 6793.5999999940395, 'positionName': 'RIGHT', 'positionCoords': [978.12, 239], 'bid': 5.28}]",287426.299999997,1669832804993,tacos,strawberries,6.24,5.28,-0.96,tacos,947.4000000059605,948,948.0,True,u,288884.90000000596,1458.6000000089407,1669832806451,1458,HRV,HRV_0099,2022-11-30 18:28:44
105,"[{'imgObject': {}, 'id': 'salmon', 'src': '/static/foodstim60/salmon.jpg', 'key': 'u', 'origWidth': 410, 'origHeight': 409, 'width': 410, 'height': 409, 'widthPercent': 0.45, 'rescaleHeight': False, 'trialN': 105, 'loaded': True, 'loadedTime': 6821.79999999702, 'positionName': 'LEFT', 'positionCoords': [492.88, 239.5], 'bid': 7.34}, {'imgObject': {}, 'id': 'sweetpotato', 'src': '/static/foodstim60/sweetpotato.jpg', 'key': 'i', 'origWidth': 410, 'origHeight': 410, 'width': 410, 'height': 410, 'widthPercent': 0.45, 'rescaleHeight': False, 'trialN': 105, 'loaded': True, 'loadedTime': 6778.79999999702, 'positionName': 'RIGHT', 'positionCoords': [978.12, 239], 'bid': 3.83}]",288885.299999997,1669832806451,salmon,sweetpotato,7.34,3.83,-3.51,salmon,943.6000000089407,945,944.2000000029802,True,u,290343.299999997,1458.0,1669832807910,1459,HRV,HRV_0099,2022-11-30 18:28:44
106,"[{'imgObject': {}, 'id': 'corn cob', 'src': '/static/foodstim60/corn cob.jpg', 'key': 'u', 'origWidth': 411, 'origHeight': 411, 'width': 411, 'height': 411, 'widthPercent': 0.45, 'rescaleHeight': False, 'trialN': 106, 'loaded': True, 'loadedTime': 6680.5999999940395, 'positionName': 'LEFT', 'positionCoords': [491.88, 238.5], 'bid': 5.91}, {'imgObject': {}, 'id': 'yogurt no spoon', 'src': '/static/foodstim60/yogurt no spoon.jpg', 'key': 'i', 'origWidth': 411, 'origHeight': 410, 'width': 411, 'height': 410, 'widthPercent': 0.45, 'rescaleHeight': False, 'trialN': 106, 'loaded': True, 'loadedTime': 6584.5, 'positionName': 'RIGHT', 'positionCoords': [978.12, 239], 'bid': 5.78}]",290343.5,1669832807910,corn cob,yogurt no spoon,5.91,5.78,-0.1299999999999999,corn cob,772.2000000029802,773,772.9000000059605,True,u,291631.0,1287.5,1669832809197,1287,HRV,HRV_0099,2022-11-30 18:28:44
107,"[{'imgObject': {}, 'id': 'luckycharms', 'src': '/static/foodstim60/luckycharms.jpg', 'key': 'u', 'origWidth': 410, 'origHeight': 409, 'width': 410, 'height': 409, 'widthPercent': 0.45, 'rescaleHeight': False, 'trialN': 107, 'loaded': True, 'loadedTime': 6723.79999999702, 'positionName': 'LEFT', 'positionCoords': [492.88, 239.5], 'bid': 6.49}, {'imgObject': {}, 'id': 'blackbeanswithrice', 'src': '/static/foodstim60/blackbeanswithrice.jpg', 'key': 'i', 'origWidth': 410, 'origHeight': 410, 'width': 410, 'height': 410, 'widthPercent': 0.45, 'rescaleHeight': False, 'trialN': 107, 'loaded': True, 'loadedTime': 6818.9000000059605, 'positionName': 'RIGHT', 'positionCoords': [978.12, 239], 'bid': 6.43}]",291631.299999997,1669832809197,luckycharms,blackbeanswithrice,6.49,6.43,-0.0600000000000005,blackbeanswithrice,906.1000000089407,907,906.7000000029802,True,i,293046.299999997,1415.0,1669832810613,1416,HRV,HRV_0099,2022-11-30 18:28:44
108,"[{'imgObject': {}, 'id': 'pear', 'src': '/static/foodstim60/pear.jpg', 'key': 'u', 'origWidth': 411, 'origHeight': 410, 'width': 411, 'height': 410, 'widthPercent': 0.45, 'rescaleHeight': False, 'trialN': 108, 'loaded': True, 'loadedTime': 6660.20000000298, 'positionName': 'LEFT', 'positionCoords': [491.88, 239], 'bid': 3.3200000000000003}, {'imgObject': {}, 'id': 'veggieswithdip', 'src': '/static/foodstim60/veggieswithdip.jpg', 'key': 'i', 'origWidth': 409, 'origHeight': 409, 'width': 409, 'height': 409, 'widthPercent': 0.45, 'rescaleHeight': False, 'trialN': 108, 'loaded': True, 'loadedTime': 6801.9000000059605, 'positionName': 'RIGHT', 'positionCoords': [978.12, 239.5], 'bid': 5.36}]",293046.5,1669832810613,pear,veggieswithdip,3.3200000000000003,5.36,2.04,veggieswithdip,1273.2000000029802,1274,1274.0,True,i,294827.40000000596,1780.9000000059605,1669832812394,1781,HRV,HRV_0099,2022-11-30 18:28:44
