trialN,stimuli,trialStartTime,trialStartTime_UNIX,stimulus1,stimulus2,stimulus1Bid,stimulus2Bid,delta,selected,rt,rt_UNIX,rt_perfnow,receivedResponse,rsp,trialEndTime,trialDuration,trialEndTime_UNIX,trialDuration_UNIX,exp,subjectId,date
0,"[{'imgObject': {}, 'id': 'raisin bran w milk', 'src': '/static/foodstim60/raisin bran w milk.jpg', 'key': 'u', 'origWidth': 411, 'origHeight': 411, 'width': 411, 'height': 411, 'widthPercent': 0.45, 'rescaleHeight': False, 'trialN': 0, 'loaded': True, 'loadedTime': 2834.5, 'positionName': 'LEFT', 'positionCoords': [572.04, 370.5], 'bid': 0.15}, {'imgObject': {}, 'id': 'cherries', 'src': '/static/foodstim60/cherries.jpg', 'key': 'i', 'origWidth': 410, 'origHeight': 411, 'width': 410, 'height': 411, 'widthPercent': 0.45, 'rescaleHeight': False, 'trialN': 0, 'loaded': True, 'loadedTime': 2857.2999999970198, 'positionName': 'RIGHT', 'positionCoords': [1064.96, 370.5], 'bid': 5.3100000000000005}]",3064.0,1669829384702,raisin bran w milk,cherries,0.15,5.3100000000000005,5.16,cherries,1220.7999999970198,1221,1221.1000000089407,True,i,4795.20000000298,1731.2000000029802,1669829386433,1731,HRV,HRV_0042,2022-11-30 17:34:17
1,"[{'imgObject': {}, 'id': 'popsicles', 'src': '/static/foodstim60/popsicles.jpg', 'key': 'u', 'origWidth': 410, 'origHeight': 410, 'width': 410, 'height': 410, 'widthPercent': 0.45, 'rescaleHeight': False, 'trialN': 1, 'loaded': True, 'loadedTime': 2858.7000000029802, 'positionName': 'LEFT', 'positionCoords': [573.04, 371], 'bid': 7.2}, {'imgObject': {}, 'id': 'omelette', 'src': '/static/foodstim60/omelette.jpg', 'key': 'i', 'origWidth': 410, 'origHeight': 409, 'width': 410, 'height': 409, 'widthPercent': 0.45, 'rescaleHeight': False, 'trialN': 1, 'loaded': True, 'loadedTime': 2861.7000000029802, 'positionName': 'RIGHT', 'positionCoords': [1064.96, 371.5], 'bid': 7.47}]",4795.29999999702,1669829386433,popsicles,omelette,7.2,7.47,0.2699999999999996,popsicles,597,597,597.2000000029802,True,u,5912.29999999702,1117.0,1669829387550,1117,HRV,HRV_0042,2022-11-30 17:34:17
2,"[{'imgObject': {}, 'id': 'mango', 'src': '/static/foodstim60/mango.jpg', 'key': 'u', 'origWidth': 411, 'origHeight': 411, 'width': 411, 'height': 411, 'widthPercent': 0.45, 'rescaleHeight': False, 'trialN': 2, 'loaded': True, 'loadedTime': 2914.7999999970198, 'positionName': 'LEFT', 'positionCoords': [572.04, 370.5], 'bid': 4.87}, {'imgObject': {}, 'id': 'raspberries', 'src': '/static/foodstim60/raspberries.jpg', 'key': 'i', 'origWidth': 411, 'origHeight': 411, 'width': 411, 'height': 411, 'widthPercent': 0.45, 'rescaleHeight': False, 'trialN': 2, 'loaded': True, 'loadedTime': 2917.5, 'positionName': 'RIGHT', 'positionCoords': [1064.96, 370.5], 'bid': 4.91}]",5912.4000000059605,1669829387550,mango,raspberries,4.87,4.91,0.040000000000000036,raspberries,897.2000000029802,897,897.2999999970198,True,i,7316.600000008941,1404.2000000029802,1669829388954,1404,HRV,HRV_0042,2022-11-30 17:34:17
3,"[{'imgObject': {}, 'id': 'omelette', 'src': '/static/foodstim60/omelette.jpg', 'key': 'u', 'origWidth': 410, 'origHeight': 409, 'width': 410, 'height': 409, 'widthPercent': 0.45, 'rescaleHeight': False, 'trialN': 3, 'loaded': True, 'loadedTime': 2862.2999999970198, 'positionName': 'LEFT', 'positionCoords': [573.04, 371.5], 'bid': 7.47}, {'imgObject': {}, 'id': 'strawberries', 'src': '/static/foodstim60/strawberries.jpg', 'key': 'i', 'origWidth': 410, 'origHeight': 410, 'width': 410, 'height': 410, 'widthPercent': 0.45, 'rescaleHeight': False, 'trialN': 3, 'loaded': True, 'loadedTime': 2918.2999999970198, 'positionName': 'RIGHT', 'positionCoords': [1064.96, 371], 'bid': 4.58}]",7316.600000008941,1669829388954,omelette,strawberries,7.47,4.58,-2.8899999999999997,omelette,640.5999999940395,641,640.6999999880791,True,u,8463.5,1146.8999999910593,1669829390101,1147,HRV,HRV_0042,2022-11-30 17:34:17
4,"[{'imgObject': {}, 'id': 'baked potato', 'src': '/static/foodstim60/baked potato.jpg', 'key': 'u', 'origWidth': 409, 'origHeight': 410, 'width': 409, 'height': 410, 'widthPercent': 0.45, 'rescaleHeight': False, 'trialN': 4, 'loaded': True, 'loadedTime': 2919.7999999970198, 'positionName': 'LEFT', 'positionCoords': [574.04, 371], 'bid': 5.17}, {'imgObject': {}, 'id': 'bagel and cc', 'src': '/static/foodstim60/bagel and cc.jpg', 'key': 'i', 'origWidth': 410, 'origHeight': 410, 'width': 410, 'height': 410, 'widthPercent': 0.45, 'rescaleHeight': False, 'trialN': 4, 'loaded': True, 'loadedTime': 2919.7999999970198, 'positionName': 'RIGHT', 'positionCoords': [1064.96, 371], 'bid': 6.88}]",8463.70000000298,1669829390101,baked potato,bagel and cc,5.17,6.88,1.71,bagel and cc,821.0999999940395,822,821.4000000059605,True,i,9790.29999999702,1326.5999999940395,1669829391428,1327,HRV,HRV_0042,2022-11-30 17:34:17
5,"[{'imgObject': {}, 'id': 'chickenfingers', 'src': '/static/foodstim60/chickenfingers.jpg', 'key': 'u', 'origWidth': 410, 'origHeight': 410, 'width': 410, 'height': 410, 'widthPercent': 0.45, 'rescaleHeight': False, 'trialN': 5, 'loaded': True, 'loadedTime': 2921.1000000089407, 'positionName': 'LEFT', 'positionCoords': [573.04, 371], 'bid': 8.42}, {'imgObject': {}, 'id': 'omelette', 'src': '/static/foodstim60/omelette.jpg', 'key': 'i', 'origWidth': 410, 'origHeight': 409, 'width': 410, 'height': 409, 'widthPercent': 0.45, 'rescaleHeight': False, 'trialN': 5, 'loaded': True, 'loadedTime': 2862.5, 'positionName': 'RIGHT', 'positionCoords': [1064.96, 371.5], 'bid': 7.47}]",9790.40000000596,1669829391428,chickenfingers,omelette,8.42,7.47,-0.9500000000000002,chickenfingers,619.8999999910593,620,620.0999999940395,True,u,10922.0,1131.5999999940395,1669829392560,1132,HRV,HRV_0042,2022-11-30 17:34:17
6,"[{'imgObject': {}, 'id': 'froot loops w milk', 'src': '/static/foodstim60/froot loops w milk.jpg', 'key': 'u', 'origWidth': 410, 'origHeight': 410, 'width': 410, 'height': 410, 'widthPercent': 0.45, 'rescaleHeight': False, 'trialN': 6, 'loaded': True, 'loadedTime': 2921.2999999970198, 'positionName': 'LEFT', 'positionCoords': [573.04, 371], 'bid': 0.41}, {'imgObject': {}, 'id': 'pear', 'src': '/static/foodstim60/pear.jpg', 'key': 'i', 'origWidth': 411, 'origHeight': 410, 'width': 411, 'height': 410, 'widthPercent': 0.45, 'rescaleHeight': False, 'trialN': 6, 'loaded': True, 'loadedTime': 2922, 'positionName': 'RIGHT', 'positionCoords': [1064.96, 371], 'bid': 4.57}]",10922.10000000894,1669829392560,froot loops w milk,pear,0.41,4.57,4.16,pear,702.5999999940395,703,702.7999999970198,True,i,12141.90000000596,1219.7999999970198,1669829393780,1220,HRV,HRV_0042,2022-11-30 17:34:17
7,"[{'imgObject': {}, 'id': 'mac & cheese', 'src': '/static/foodstim60/mac & cheese.jpg', 'key': 'u', 'origWidth': 410, 'origHeight': 410, 'width': 410, 'height': 410, 'widthPercent': 0.45, 'rescaleHeight': False, 'trialN': 7, 'loaded': True, 'loadedTime': 2922.7999999970198, 'positionName': 'LEFT', 'positionCoords': [573.04, 371], 'bid': 5.5200000000000005}, {'imgObject': {}, 'id': 'fried eggs', 'src': '/static/foodstim60/fried eggs.jpg', 'key': 'i', 'origWidth': 410, 'origHeight': 410, 'width': 410, 'height': 410, 'widthPercent': 0.45, 'rescaleHeight': False, 'trialN': 7, 'loaded': True, 'loadedTime': 2924, 'positionName': 'RIGHT', 'positionCoords': [1064.96, 371], 'bid': 5.82}]",12142.0,1669829393780,mac & cheese,fried eggs,5.5200000000000005,5.82,0.2999999999999998,mac & cheese,675.1000000089407,675,675.2000000029802,True,u,13334.0,1192.0,1669829394972,1192,HRV,HRV_0042,2022-11-30 17:34:17
8,"[{'imgObject': {}, 'id': 'burrito', 'src': '/static/foodstim60/burrito.jpg', 'key': 'u', 'origWidth': 410, 'origHeight': 410, 'width': 410, 'height': 410, 'widthPercent': 0.45, 'rescaleHeight': False, 'trialN': 8, 'loaded': True, 'loadedTime': 2924.2000000029802, 'positionName': 'LEFT', 'positionCoords': [573.04, 371], 'bid': 6.44}, {'imgObject': {}, 'id': 'avocado', 'src': '/static/foodstim60/avocado.jpg', 'key': 'i', 'origWidth': 409, 'origHeight': 409, 'width': 409, 'height': 409, 'widthPercent': 0.45, 'rescaleHeight': False, 'trialN': 8, 'loaded': True, 'loadedTime': 2925.4000000059605, 'positionName': 'RIGHT', 'positionCoords': [1064.96, 371.5], 'bid': 5.86}]",13334.10000000894,1669829394972,burrito,avocado,6.44,5.86,-0.5800000000000001,burrito,765.5,766,765.7999999970198,True,u,14617.5,1283.3999999910593,1669829396255,1283,HRV,HRV_0042,2022-11-30 17:34:17
9,"[{'imgObject': {}, 'id': 'raisin bran w milk', 'src': '/static/foodstim60/raisin bran w milk.jpg', 'key': 'u', 'origWidth': 411, 'origHeight': 411, 'width': 411, 'height': 411, 'widthPercent': 0.45, 'rescaleHeight': False, 'trialN': 9, 'loaded': True, 'loadedTime': 2846, 'positionName': 'LEFT', 'positionCoords': [572.04, 370.5], 'bid': 0.15}, {'imgObject': {}, 'id': 'cheerios', 'src': '/static/foodstim60/cheerios.jpg', 'key': 'i', 'origWidth': 409, 'origHeight': 410, 'width': 409, 'height': 410, 'widthPercent': 0.45, 'rescaleHeight': False, 'trialN': 9, 'loaded': True, 'loadedTime': 2871.7999999970198, 'positionName': 'RIGHT', 'positionCoords': [1064.96, 371], 'bid': 0.08}]",14617.70000000298,1669829396255,raisin bran w milk,cheerios,0.15,0.08,-0.06999999999999999,cheerios,674.7999999970198,675,675.0999999940395,True,i,15794.79999999702,1177.0999999940395,1669829397433,1178,HRV,HRV_0042,2022-11-30 17:34:17
10,"[{'imgObject': {}, 'id': 'Tribe humus pita', 'src': '/static/foodstim60/Tribe humus pita.jpg', 'key': 'u', 'origWidth': 411, 'origHeight': 411, 'width': 411, 'height': 411, 'widthPercent': 0.45, 'rescaleHeight': False, 'trialN': 10, 'loaded': True, 'loadedTime': 2887.2000000029802, 'positionName': 'LEFT', 'positionCoords': [572.04, 370.5], 'bid': 6.63}, {'imgObject': {}, 'id': 'corn cob', 'src': '/static/foodstim60/corn cob.jpg', 'key': 'i', 'origWidth': 411, 'origHeight': 411, 'width': 411, 'height': 411, 'widthPercent': 0.45, 'rescaleHeight': False, 'trialN': 10, 'loaded': True, 'loadedTime': 2896.5, 'positionName': 'RIGHT', 'positionCoords': [1064.96, 370.5], 'bid': 6.71}]",15794.90000000596,1669829397433,Tribe humus pita,corn cob,6.63,6.71,0.08000000000000007,Tribe humus pita,914.5999999940395,914,914.8999999910593,True,u,17222.90000000596,1428.0,1669829398861,1428,HRV,HRV_0042,2022-11-30 17:34:17
11,"[{'imgObject': {}, 'id': 'fruitsalad', 'src': '/static/foodstim60/fruitsalad.jpg', 'key': 'u', 'origWidth': 410, 'origHeight': 410, 'width': 410, 'height': 410, 'widthPercent': 0.45, 'rescaleHeight': False, 'trialN': 11, 'loaded': True, 'loadedTime': 2913, 'positionName': 'LEFT', 'positionCoords': [573.04, 371], 'bid': 4.99}, {'imgObject': {}, 'id': 'mac & cheese', 'src': '/static/foodstim60/mac & cheese.jpg', 'key': 'i', 'origWidth': 410, 'origHeight': 410, 'width': 410, 'height': 410, 'widthPercent': 0.45, 'rescaleHeight': False, 'trialN': 11, 'loaded': True, 'loadedTime': 2923.2999999970198, 'positionName': 'RIGHT', 'positionCoords': [1064.96, 371], 'bid': 5.5200000000000005}]",17223.0,1669829398861,fruitsalad,mac & cheese,4.99,5.5200000000000005,0.5300000000000002,mac & cheese,927,927,927.2000000029802,True,i,18657.10000000894,1434.1000000089407,1669829400295,1434,HRV,HRV_0042,2022-11-30 17:34:17
12,"[{'imgObject': {}, 'id': 'blueberries', 'src': '/static/foodstim60/blueberries.jpg', 'key': 'u', 'origWidth': 411, 'origHeight': 411, 'width': 411, 'height': 411, 'widthPercent': 0.45, 'rescaleHeight': False, 'trialN': 12, 'loaded': True, 'loadedTime': 2916, 'positionName': 'LEFT', 'positionCoords': [572.04, 370.5], 'bid': 5.03}, {'imgObject': {}, 'id': 'grilled chicken strips', 'src': '/static/foodstim60/grilled chicken strips.jpg', 'key': 'i', 'origWidth': 410, 'origHeight': 411, 'width': 410, 'height': 411, 'widthPercent': 0.45, 'rescaleHeight': False, 'trialN': 12, 'loaded': True, 'loadedTime': 2919.1000000089407, 'positionName': 'RIGHT', 'positionCoords': [1064.96, 370.5], 'bid': 9.73}]",18657.20000000298,1669829400295,blueberries,grilled chicken strips,5.03,9.73,4.7,grilled chicken strips,955,955,955.2000000029802,True,i,20124.5,1467.2999999970198,1669829401762,1467,HRV,HRV_0042,2022-11-30 17:34:17
13,"[{'imgObject': {}, 'id': 'turkeysandwich', 'src': '/static/foodstim60/turkeysandwich.jpg', 'key': 'u', 'origWidth': 409, 'origHeight': 409, 'width': 409, 'height': 409, 'widthPercent': 0.45, 'rescaleHeight': False, 'trialN': 13, 'loaded': True, 'loadedTime': 2926, 'positionName': 'LEFT', 'positionCoords': [574.04, 371.5], 'bid': 7.56}, {'imgObject': {}, 'id': 'banana', 'src': '/static/foodstim60/banana.jpg', 'key': 'i', 'origWidth': 410, 'origHeight': 410, 'width': 410, 'height': 410, 'widthPercent': 0.45, 'rescaleHeight': False, 'trialN': 13, 'loaded': True, 'loadedTime': 2926.7000000029802, 'positionName': 'RIGHT', 'positionCoords': [1064.96, 371], 'bid': 6.5200000000000005}]",20124.60000000894,1669829401762,turkeysandwich,banana,7.56,6.5200000000000005,-1.0399999999999991,turkeysandwich,770.1999999880791,771,770.3999999910593,True,u,21406.79999999702,1282.199999988079,1669829403045,1283,HRV,HRV_0042,2022-11-30 17:34:17
14,"[{'imgObject': {}, 'id': 'apple slices', 'src': '/static/foodstim60/apple slices.jpg', 'key': 'u', 'origWidth': 409, 'origHeight': 410, 'width': 409, 'height': 410, 'widthPercent': 0.45, 'rescaleHeight': False, 'trialN': 14, 'loaded': True, 'loadedTime': 2926.9000000059605, 'positionName': 'LEFT', 'positionCoords': [574.04, 371], 'bid': 4.6000000000000005}, {'imgObject': {}, 'id': 'ice cream sundae 002', 'src': '/static/foodstim60/ice cream sundae 002.jpg', 'key': 'i', 'origWidth': 409, 'origHeight': 409, 'width': 409, 'height': 409, 'widthPercent': 0.45, 'rescaleHeight': False, 'trialN': 14, 'loaded': True, 'loadedTime': 2937.6000000089407, 'positionName': 'RIGHT', 'positionCoords': [1064.96, 371.5], 'bid': 2.07}]",21406.90000000596,1669829403045,apple slices,ice cream sundae 002,4.6000000000000005,2.07,-2.5300000000000007,apple slices,995.5999999940395,995,995.7000000029802,True,u,22911.29999999702,1504.3999999910593,1669829404549,1504,HRV,HRV_0042,2022-11-30 17:34:17
15,"[{'imgObject': {}, 'id': 'granola w milk', 'src': '/static/foodstim60/granola w milk.jpg', 'key': 'u', 'origWidth': 410, 'origHeight': 410, 'width': 410, 'height': 410, 'widthPercent': 0.45, 'rescaleHeight': False, 'trialN': 15, 'loaded': True, 'loadedTime': 2944.6000000089407, 'positionName': 'LEFT', 'positionCoords': [573.04, 371], 'bid': 0.11}, {'imgObject': {}, 'id': 'cheerios', 'src': '/static/foodstim60/cheerios.jpg', 'key': 'i', 'origWidth': 409, 'origHeight': 410, 'width': 409, 'height': 410, 'widthPercent': 0.45, 'rescaleHeight': False, 'trialN': 15, 'loaded': True, 'loadedTime': 2878.1000000089407, 'positionName': 'RIGHT', 'positionCoords': [1064.96, 371], 'bid': 0.08}]",22911.40000000596,1669829404549,granola w milk,cheerios,0.11,0.08,-0.03,cheerios,1425.8999999910593,1426,1426.0999999940395,True,i,24856.20000000298,1944.7999999970198,1669829406494,1945,HRV,HRV_0042,2022-11-30 17:34:17
16,"[{'imgObject': {}, 'id': 'roastedpotatoes', 'src': '/static/foodstim60/roastedpotatoes.jpg', 'key': 'u', 'origWidth': 409, 'origHeight': 410, 'width': 409, 'height': 410, 'widthPercent': 0.45, 'rescaleHeight': False, 'trialN': 16, 'loaded': True, 'loadedTime': 2951.1000000089407, 'positionName': 'LEFT', 'positionCoords': [574.04, 371], 'bid': 4.0600000000000005}, {'imgObject': {}, 'id': 'hotdog w must', 'src': '/static/foodstim60/hotdog w must.jpg', 'key': 'i', 'origWidth': 409, 'origHeight': 409, 'width': 409, 'height': 409, 'widthPercent': 0.45, 'rescaleHeight': False, 'trialN': 16, 'loaded': True, 'loadedTime': 2959.7999999970198, 'positionName': 'RIGHT', 'positionCoords': [1064.96, 371.5], 'bid': 7.19}]",24856.20000000298,1669829406494,roastedpotatoes,hotdog w must,4.0600000000000005,7.19,3.13,roastedpotatoes,718.4000000059605,719,718.7000000029802,True,u,26090.90000000596,1234.7000000029802,1669829407729,1235,HRV,HRV_0042,2022-11-30 17:34:17
17,"[{'imgObject': {}, 'id': 'hotdog w must', 'src': '/static/foodstim60/hotdog w must.jpg', 'key': 'u', 'origWidth': 409, 'origHeight': 409, 'width': 409, 'height': 409, 'widthPercent': 0.45, 'rescaleHeight': False, 'trialN': 17, 'loaded': True, 'loadedTime': 2960, 'positionName': 'LEFT', 'positionCoords': [574.04, 371.5], 'bid': 7.19}, {'imgObject': {}, 'id': 'cherries', 'src': '/static/foodstim60/cherries.jpg', 'key': 'i', 'origWidth': 410, 'origHeight': 411, 'width': 410, 'height': 411, 'widthPercent': 0.45, 'rescaleHeight': False, 'trialN': 17, 'loaded': True, 'loadedTime': 2857.5, 'positionName': 'RIGHT', 'positionCoords': [1064.96, 370.5], 'bid': 5.3100000000000005}]",26091.0,1669829407729,hotdog w must,cherries,7.19,5.3100000000000005,-1.88,hotdog w must,833.5,833,833.7000000029802,True,u,27427.70000000298,1336.7000000029802,1669829409065,1336,HRV,HRV_0042,2022-11-30 17:34:17
18,"[{'imgObject': {}, 'id': 'granola w milk', 'src': '/static/foodstim60/granola w milk.jpg', 'key': 'u', 'origWidth': 410, 'origHeight': 410, 'width': 410, 'height': 410, 'widthPercent': 0.45, 'rescaleHeight': False, 'trialN': 18, 'loaded': True, 'loadedTime': 2944.5, 'positionName': 'LEFT', 'positionCoords': [573.04, 371], 'bid': 0.11}, {'imgObject': {}, 'id': 'blackbeanswithrice', 'src': '/static/foodstim60/blackbeanswithrice.jpg', 'key': 'i', 'origWidth': 410, 'origHeight': 410, 'width': 410, 'height': 410, 'widthPercent': 0.45, 'rescaleHeight': False, 'trialN': 18, 'loaded': True, 'loadedTime': 2967.4000000059605, 'positionName': 'RIGHT', 'positionCoords': [1064.96, 371], 'bid': 1.04}]",27427.79999999702,1669829409066,granola w milk,blackbeanswithrice,0.11,1.04,0.93,blackbeanswithrice,1499.1000000089407,1499,1499.4000000059605,True,i,29438.20000000298,2010.4000000059605,1669829411076,2010,HRV,HRV_0042,2022-11-30 17:34:17
19,"[{'imgObject': {}, 'id': 'blackbeanswithrice', 'src': '/static/foodstim60/blackbeanswithrice.jpg', 'key': 'u', 'origWidth': 410, 'origHeight': 410, 'width': 410, 'height': 410, 'widthPercent': 0.45, 'rescaleHeight': False, 'trialN': 19, 'loaded': True, 'loadedTime': 2967, 'positionName': 'LEFT', 'positionCoords': [573.04, 371], 'bid': 1.04}, {'imgObject': {}, 'id': 'sweetpotato', 'src': '/static/foodstim60/sweetpotato.jpg', 'key': 'i', 'origWidth': 410, 'origHeight': 410, 'width': 410, 'height': 410, 'widthPercent': 0.45, 'rescaleHeight': False, 'trialN': 19, 'loaded': True, 'loadedTime': 2973, 'positionName': 'RIGHT', 'positionCoords': [1064.96, 371], 'bid': 0.17}]",29438.29999999702,1669829411076,blackbeanswithrice,sweetpotato,1.04,0.17,-0.87,blackbeanswithrice,681.6000000089407,682,681.8000000119209,True,u,30627.0,1188.7000000029802,1669829412265,1189,HRV,HRV_0042,2022-11-30 17:34:17
20,"[{'imgObject': {}, 'id': 'mashed potato', 'src': '/static/foodstim60/mashed potato.jpg', 'key': 'u', 'origWidth': 409, 'origHeight': 409, 'width': 409, 'height': 409, 'widthPercent': 0.45, 'rescaleHeight': False, 'trialN': 20, 'loaded': True, 'loadedTime': 2980.7000000029802, 'positionName': 'LEFT', 'positionCoords': [574.04, 371.5], 'bid': 3.72}, {'imgObject': {}, 'id': 'pear', 'src': '/static/foodstim60/pear.jpg', 'key': 'i', 'origWidth': 411, 'origHeight': 410, 'width': 411, 'height': 410, 'widthPercent': 0.45, 'rescaleHeight': False, 'trialN': 20, 'loaded': True, 'loadedTime': 2922.6000000089407, 'positionName': 'RIGHT', 'positionCoords': [1064.96, 371], 'bid': 4.57}]",30627.20000000298,1669829412265,mashed potato,pear,3.72,4.57,0.8500000000000001,mashed potato,820,820,820.2000000029802,True,u,31963.70000000298,1336.5,1669829413601,1336,HRV,HRV_0042,2022-11-30 17:34:17
21,"[{'imgObject': {}, 'id': 'shreddedwheatwithmilk', 'src': '/static/foodstim60/shreddedwheatwithmilk.jpg', 'key': 'u', 'origWidth': 410, 'origHeight': 410, 'width': 410, 'height': 410, 'widthPercent': 0.45, 'rescaleHeight': False, 'trialN': 21, 'loaded': True, 'loadedTime': 2980.7000000029802, 'positionName': 'LEFT', 'positionCoords': [573.04, 371], 'bid': 0.22}, {'imgObject': {}, 'id': 'granola w milk', 'src': '/static/foodstim60/granola w milk.jpg', 'key': 'i', 'origWidth': 410, 'origHeight': 410, 'width': 410, 'height': 410, 'widthPercent': 0.45, 'rescaleHeight': False, 'trialN': 21, 'loaded': True, 'loadedTime': 2944.6000000089407, 'positionName': 'RIGHT', 'positionCoords': [1064.96, 371], 'bid': 0.11}]",31963.79999999702,1669829413602,shreddedwheatwithmilk,granola w milk,0.22,0.11,-0.11,shreddedwheatwithmilk,1440.7000000029802,1441,1441.0,True,u,33921.90000000596,1958.1000000089407,1669829415560,1958,HRV,HRV_0042,2022-11-30 17:34:17
22,"[{'imgObject': {}, 'id': 'chicken nuggets2', 'src': '/static/foodstim60/chicken nuggets2.jpg', 'key': 'u', 'origWidth': 410, 'origHeight': 409, 'width': 410, 'height': 409, 'widthPercent': 0.45, 'rescaleHeight': False, 'trialN': 22, 'loaded': True, 'loadedTime': 2999.5, 'positionName': 'LEFT', 'positionCoords': [573.04, 371.5], 'bid': 7.57}, {'imgObject': {}, 'id': 'lox', 'src': '/static/foodstim60/lox.jpg', 'key': 'i', 'origWidth': 410, 'origHeight': 411, 'width': 410, 'height': 411, 'widthPercent': 0.45, 'rescaleHeight': False, 'trialN': 22, 'loaded': True, 'loadedTime': 3011.2999999970198, 'positionName': 'RIGHT', 'positionCoords': [1064.96, 370.5], 'bid': 7.66}]",33922.10000000894,1669829415560,chicken nuggets2,lox,7.57,7.66,0.08999999999999986,chicken nuggets2,1192.7999999970198,1192,1193.0,True,u,35622.60000000894,1700.5,1669829417260,1700,HRV,HRV_0042,2022-11-30 17:34:17
23,"[{'imgObject': {}, 'id': 'omelette', 'src': '/static/foodstim60/omelette.jpg', 'key': 'u', 'origWidth': 410, 'origHeight': 409, 'width': 410, 'height': 409, 'widthPercent': 0.45, 'rescaleHeight': False, 'trialN': 23, 'loaded': True, 'loadedTime': 2862.6000000089407, 'positionName': 'LEFT', 'positionCoords': [573.04, 371.5], 'bid': 7.47}, {'imgObject': {}, 'id': 'turkeysandwich', 'src': '/static/foodstim60/turkeysandwich.jpg', 'key': 'i', 'origWidth': 409, 'origHeight': 409, 'width': 409, 'height': 409, 'widthPercent': 0.45, 'rescaleHeight': False, 'trialN': 23, 'loaded': True, 'loadedTime': 2926.1000000089407, 'positionName': 'RIGHT', 'positionCoords': [1064.96, 371.5], 'bid': 7.56}]",35622.79999999702,1669829417260,omelette,turkeysandwich,7.47,7.56,0.08999999999999986,turkeysandwich,3220.800000011921,3221,3221.0,True,i,39353.40000000596,3730.6000000089407,1669829420991,3731,HRV,HRV_0042,2022-11-30 17:34:17
24,"[{'imgObject': {}, 'id': 'rigatoni and sauce', 'src': '/static/foodstim60/rigatoni and sauce.jpg', 'key': 'u', 'origWidth': 410, 'origHeight': 411, 'width': 410, 'height': 411, 'widthPercent': 0.45, 'rescaleHeight': False, 'trialN': 24, 'loaded': True, 'loadedTime': 3012.5, 'positionName': 'LEFT', 'positionCoords': [573.04, 370.5], 'bid': 4.8}, {'imgObject': {}, 'id': 'eggs', 'src': '/static/foodstim60/eggs.jpg', 'key': 'i', 'origWidth': 409, 'origHeight': 409, 'width': 409, 'height': 409, 'widthPercent': 0.45, 'rescaleHeight': False, 'trialN': 24, 'loaded': True, 'loadedTime': 3013.7999999970198, 'positionName': 'RIGHT', 'positionCoords': [1064.96, 371.5], 'bid': 4.8500000000000005}]",39353.5,1669829420991,rigatoni and sauce,eggs,4.8,4.8500000000000005,0.05000000000000071,eggs,3361.4000000059605,3361,3361.7000000029802,True,i,43232.79999999702,3879.2999999970198,1669829424870,3879,HRV,HRV_0042,2022-11-30 17:34:17
25,"[{'imgObject': {}, 'id': 'froot loops w milk', 'src': '/static/foodstim60/froot loops w milk.jpg', 'key': 'u', 'origWidth': 410, 'origHeight': 410, 'width': 410, 'height': 410, 'widthPercent': 0.45, 'rescaleHeight': False, 'trialN': 25, 'loaded': True, 'loadedTime': 2921.7000000029802, 'positionName': 'LEFT', 'positionCoords': [573.04, 371], 'bid': 0.41}, {'imgObject': {}, 'id': 'edamame', 'src': '/static/foodstim60/edamame.jpg', 'key': 'i', 'origWidth': 409, 'origHeight': 410, 'width': 409, 'height': 410, 'widthPercent': 0.45, 'rescaleHeight': False, 'trialN': 25, 'loaded': True, 'loadedTime': 3015.1000000089407, 'positionName': 'RIGHT', 'positionCoords': [1064.96, 371], 'bid': 1.01}]",43232.90000000596,1669829424870,froot loops w milk,edamame,0.41,1.01,0.6000000000000001,edamame,3217.2999999970198,3218,3217.5999999940395,True,i,46962.29999999702,3729.3999999910593,1669829428600,3730,HRV,HRV_0042,2022-11-30 17:34:17
26,"[{'imgObject': {}, 'id': 'mango', 'src': '/static/foodstim60/mango.jpg', 'key': 'u', 'origWidth': 411, 'origHeight': 411, 'width': 411, 'height': 411, 'widthPercent': 0.45, 'rescaleHeight': False, 'trialN': 26, 'loaded': True, 'loadedTime': 2915.6000000089407, 'positionName': 'LEFT', 'positionCoords': [572.04, 370.5], 'bid': 4.87}, {'imgObject': {}, 'id': 'luckycharms', 'src': '/static/foodstim60/luckycharms.jpg', 'key': 'i', 'origWidth': 410, 'origHeight': 409, 'width': 410, 'height': 409, 'widthPercent': 0.45, 'rescaleHeight': False, 'trialN': 26, 'loaded': True, 'loadedTime': 3015.7000000029802, 'positionName': 'RIGHT', 'positionCoords': [1064.96, 371.5], 'bid': 0.84}]",46962.40000000596,1669829428600,mango,luckycharms,4.87,0.84,-4.03,mango,1625.2999999970198,1625,1625.5,True,u,49091.70000000298,2129.2999999970198,1669829430729,2129,HRV,HRV_0042,2022-11-30 17:34:17
27,"[{'imgObject': {}, 'id': 'ice cream sundae 002', 'src': '/static/foodstim60/ice cream sundae 002.jpg', 'key': 'u', 'origWidth': 409, 'origHeight': 409, 'width': 409, 'height': 409, 'widthPercent': 0.45, 'rescaleHeight': False, 'trialN': 27, 'loaded': True, 'loadedTime': 2929.6000000089407, 'positionName': 'LEFT', 'positionCoords': [574.04, 371.5], 'bid': 2.07}, {'imgObject': {}, 'id': 'eggsalad', 'src': '/static/foodstim60/eggsalad.jpg', 'key': 'i', 'origWidth': 410, 'origHeight': 409, 'width': 410, 'height': 409, 'widthPercent': 0.45, 'rescaleHeight': False, 'trialN': 27, 'loaded': True, 'loadedTime': 3016.7999999970198, 'positionName': 'RIGHT', 'positionCoords': [1064.96, 371.5], 'bid': 1.87}]",49091.70000000298,1669829430729,ice cream sundae 002,eggsalad,2.07,1.87,-0.19999999999999973,eggsalad,1142.7999999970198,1143,1143.0999999940395,True,i,50740.29999999702,1648.5999999940395,1669829432378,1649,HRV,HRV_0042,2022-11-30 17:34:17
28,"[{'imgObject': {}, 'id': 'turkeysandwich', 'src': '/static/foodstim60/turkeysandwich.jpg', 'key': 'u', 'origWidth': 409, 'origHeight': 409, 'width': 409, 'height': 409, 'widthPercent': 0.45, 'rescaleHeight': False, 'trialN': 28, 'loaded': True, 'loadedTime': 2926.1000000089407, 'positionName': 'LEFT', 'positionCoords': [574.04, 371.5], 'bid': 7.56}, {'imgObject': {}, 'id': 'turkey sandwich', 'src': '/static/foodstim60/turkey sandwich.jpg', 'key': 'i', 'origWidth': 409, 'origHeight': 409, 'width': 409, 'height': 409, 'widthPercent': 0.45, 'rescaleHeight': False, 'trialN': 28, 'loaded': True, 'loadedTime': 3018.1000000089407, 'positionName': 'RIGHT', 'positionCoords': [1064.96, 371.5], 'bid': 7.53}]",50740.5,1669829432378,turkeysandwich,turkey sandwich,7.56,7.53,-0.02999999999999936,turkey sandwich,1761.1000000089407,1761,1761.2999999970198,True,i,53016.90000000596,2276.4000000059605,1669829434654,2276,HRV,HRV_0042,2022-11-30 17:34:17
29,"[{'imgObject': {}, 'id': 'kiwi', 'src': '/static/foodstim60/kiwi.jpg', 'key': 'u', 'origWidth': 410, 'origHeight': 410, 'width': 410, 'height': 410, 'widthPercent': 0.45, 'rescaleHeight': False, 'trialN': 29, 'loaded': True, 'loadedTime': 3020.9000000059605, 'positionName': 'LEFT', 'positionCoords': [573.04, 371], 'bid': 5.42}, {'imgObject': {}, 'id': 'fried eggs', 'src': '/static/foodstim60/fried eggs.jpg', 'key': 'i', 'origWidth': 410, 'origHeight': 410, 'width': 410, 'height': 410, 'widthPercent': 0.45, 'rescaleHeight': False, 'trialN': 29, 'loaded': True, 'loadedTime': 2924, 'positionName': 'RIGHT', 'positionCoords': [1064.96, 371], 'bid': 5.82}]",53016.90000000596,1669829434654,kiwi,fried eggs,5.42,5.82,0.40000000000000036,fried eggs,1222.7999999970198,1223,1222.8999999910593,True,i,54748.90000000596,1732.0,1669829436386,1732,HRV,HRV_0042,2022-11-30 17:34:17
30,"[{'imgObject': {}, 'id': 'apple slices', 'src': '/static/foodstim60/apple slices.jpg', 'key': 'u', 'origWidth': 409, 'origHeight': 410, 'width': 409, 'height': 410, 'widthPercent': 0.45, 'rescaleHeight': False, 'trialN': 30, 'loaded': True, 'loadedTime': 2927.5, 'positionName': 'LEFT', 'positionCoords': [574.04, 371], 'bid': 4.6000000000000005}, {'imgObject': {}, 'id': 'sweetpotato', 'src': '/static/foodstim60/sweetpotato.jpg', 'key': 'i', 'origWidth': 410, 'origHeight': 410, 'width': 410, 'height': 410, 'widthPercent': 0.45, 'rescaleHeight': False, 'trialN': 30, 'loaded': True, 'loadedTime': 2973.7000000029802, 'positionName': 'RIGHT', 'positionCoords': [1064.96, 371], 'bid': 0.17}]",54749.0,1669829436386,apple slices,sweetpotato,4.6000000000000005,0.17,-4.430000000000001,NaN,NaN,NaN,,False,NaN,58755.0,4006.0,1669829440392,4006,HRV,HRV_0042,2022-11-30 17:34:17
31,"[{'imgObject': {}, 'id': 'apple slices', 'src': '/static/foodstim60/apple slices.jpg', 'key': 'u', 'origWidth': 409, 'origHeight': 410, 'width': 409, 'height': 410, 'widthPercent': 0.45, 'rescaleHeight': False, 'trialN': 31, 'loaded': True, 'loadedTime': 2927.5, 'positionName': 'LEFT', 'positionCoords': [574.04, 371], 'bid': 4.6000000000000005}, {'imgObject': {}, 'id': 'rigatoni and sauce', 'src': '/static/foodstim60/rigatoni and sauce.jpg', 'key': 'i', 'origWidth': 410, 'origHeight': 411, 'width': 410, 'height': 411, 'widthPercent': 0.45, 'rescaleHeight': False, 'trialN': 31, 'loaded': True, 'loadedTime': 3012.2000000029802, 'positionName': 'RIGHT', 'positionCoords': [1064.96, 370.5], 'bid': 4.8}]",58755.10000000894,1669829440392,apple slices,rigatoni and sauce,4.6000000000000005,4.8,0.1999999999999993,rigatoni and sauce,1555.8999999910593,1557,1556.199999988079,True,i,60833.29999999702,2078.199999988079,1669829442471,2079,HRV,HRV_0042,2022-11-30 17:34:17
32,"[{'imgObject': {}, 'id': 'chicken nuggets2', 'src': '/static/foodstim60/chicken nuggets2.jpg', 'key': 'u', 'origWidth': 410, 'origHeight': 409, 'width': 410, 'height': 409, 'widthPercent': 0.45, 'rescaleHeight': False, 'trialN': 32, 'loaded': True, 'loadedTime': 3010, 'positionName': 'LEFT', 'positionCoords': [573.04, 371.5], 'bid': 7.57}, {'imgObject': {}, 'id': 'salad w chicken', 'src': '/static/foodstim60/salad w chicken.jpg', 'key': 'i', 'origWidth': 411, 'origHeight': 411, 'width': 411, 'height': 411, 'widthPercent': 0.45, 'rescaleHeight': False, 'trialN': 32, 'loaded': True, 'loadedTime': 3027, 'positionName': 'RIGHT', 'positionCoords': [1064.96, 370.5], 'bid': 6.59}]",60833.5,1669829442471,chicken nuggets2,salad w chicken,7.57,6.59,-0.9800000000000004,chicken nuggets2,696.2000000029802,696,696.4000000059605,True,u,62036.70000000298,1203.2000000029802,1669829443674,1203,HRV,HRV_0042,2022-11-30 17:34:17
33,"[{'imgObject': {}, 'id': 'hashbrowns', 'src': '/static/foodstim60/hashbrowns.jpg', 'key': 'u', 'origWidth': 411, 'origHeight': 410, 'width': 411, 'height': 410, 'widthPercent': 0.45, 'rescaleHeight': False, 'trialN': 33, 'loaded': True, 'loadedTime': 3036.6000000089407, 'positionName': 'LEFT', 'positionCoords': [572.04, 371], 'bid': 0.2}, {'imgObject': {}, 'id': 'shreddedwheatwithmilk', 'src': '/static/foodstim60/shreddedwheatwithmilk.jpg', 'key': 'i', 'origWidth': 410, 'origHeight': 410, 'width': 410, 'height': 410, 'widthPercent': 0.45, 'rescaleHeight': False, 'trialN': 33, 'loaded': True, 'loadedTime': 2989.7000000029802, 'positionName': 'RIGHT', 'positionCoords': [1064.96, 371], 'bid': 0.22}]",62036.90000000596,1669829443674,hashbrowns,shreddedwheatwithmilk,0.2,0.22,0.01999999999999999,shreddedwheatwithmilk,1827.7000000029802,1828,1827.7999999970198,True,i,64378.20000000298,2341.2999999970198,1669829446016,2342,HRV,HRV_0042,2022-11-30 17:34:17
34,"[{'imgObject': {}, 'id': 'mango', 'src': '/static/foodstim60/mango.jpg', 'key': 'u', 'origWidth': 411, 'origHeight': 411, 'width': 411, 'height': 411, 'widthPercent': 0.45, 'rescaleHeight': False, 'trialN': 34, 'loaded': True, 'loadedTime': 2915.7000000029802, 'positionName': 'LEFT', 'positionCoords': [572.04, 370.5], 'bid': 4.87}, {'imgObject': {}, 'id': 'mac & cheese', 'src': '/static/foodstim60/mac & cheese.jpg', 'key': 'i', 'origWidth': 410, 'origHeight': 410, 'width': 410, 'height': 410, 'widthPercent': 0.45, 'rescaleHeight': False, 'trialN': 34, 'loaded': True, 'loadedTime': 2923.2999999970198, 'positionName': 'RIGHT', 'positionCoords': [1064.96, 371], 'bid': 5.5200000000000005}]",64378.40000000596,1669829446016,mango,mac & cheese,4.87,5.5200000000000005,0.6500000000000004,mac & cheese,863.7999999970198,864,864.0,True,i,65754.70000000298,1376.2999999970198,1669829447392,1376,HRV,HRV_0042,2022-11-30 17:34:17
35,"[{'imgObject': {}, 'id': 'tacos', 'src': '/static/foodstim60/tacos.jpg', 'key': 'u', 'origWidth': 411, 'origHeight': 411, 'width': 411, 'height': 411, 'widthPercent': 0.45, 'rescaleHeight': False, 'trialN': 35, 'loaded': True, 'loadedTime': 3037.5, 'positionName': 'LEFT', 'positionCoords': [572.04, 370.5], 'bid': 6.44}, {'imgObject': {}, 'id': 'burrito', 'src': '/static/foodstim60/burrito.jpg', 'key': 'i', 'origWidth': 410, 'origHeight': 410, 'width': 410, 'height': 410, 'widthPercent': 0.45, 'rescaleHeight': False, 'trialN': 35, 'loaded': True, 'loadedTime': 2924.7000000029802, 'positionName': 'RIGHT', 'positionCoords': [1064.96, 371], 'bid': 6.44}]",65754.79999999702,1669829447392,tacos,burrito,6.44,6.44,0.0,burrito,882.3000000119209,883,882.5,True,i,67146.29999999702,1391.5,1669829448784,1392,HRV,HRV_0042,2022-11-30 17:34:17
36,"[{'imgObject': {}, 'id': 'olives', 'src': '/static/foodstim60/olives.jpg', 'key': 'u', 'origWidth': 410, 'origHeight': 410, 'width': 410, 'height': 410, 'widthPercent': 0.45, 'rescaleHeight': False, 'trialN': 36, 'loaded': True, 'loadedTime': 3038.1000000089407, 'positionName': 'LEFT', 'positionCoords': [573.04, 371], 'bid': 4.99}, {'imgObject': {}, 'id': 'orange slices', 'src': '/static/foodstim60/orange slices.jpg', 'key': 'i', 'origWidth': 409, 'origHeight': 410, 'width': 409, 'height': 410, 'widthPercent': 0.45, 'rescaleHeight': False, 'trialN': 36, 'loaded': True, 'loadedTime': 3046.1000000089407, 'positionName': 'RIGHT', 'positionCoords': [1064.96, 371], 'bid': 4.92}]",67146.5,1669829448784,olives,orange slices,4.99,4.92,-0.07000000000000028,olives,683.1000000089407,683,683.2000000029802,True,u,68344.5,1198.0,1669829449982,1198,HRV,HRV_0042,2022-11-30 17:34:17
37,"[{'imgObject': {}, 'id': 'luckycharms', 'src': '/static/foodstim60/luckycharms.jpg', 'key': 'u', 'origWidth': 410, 'origHeight': 409, 'width': 410, 'height': 409, 'widthPercent': 0.45, 'rescaleHeight': False, 'trialN': 37, 'loaded': True, 'loadedTime': 3015.7000000029802, 'positionName': 'LEFT', 'positionCoords': [573.04, 371.5], 'bid': 0.84}, {'imgObject': {}, 'id': 'strawberries', 'src': '/static/foodstim60/strawberries.jpg', 'key': 'i', 'origWidth': 410, 'origHeight': 410, 'width': 410, 'height': 410, 'widthPercent': 0.45, 'rescaleHeight': False, 'trialN': 37, 'loaded': True, 'loadedTime': 2918.1000000089407, 'positionName': 'RIGHT', 'positionCoords': [1064.96, 371], 'bid': 4.58}]",68344.60000000894,1669829449982,luckycharms,strawberries,0.84,4.58,3.74,strawberries,745,745,745.1999999880791,True,i,69607.70000000298,1263.0999999940395,1669829451245,1263,HRV,HRV_0042,2022-11-30 17:34:17
38,"[{'imgObject': {}, 'id': 'burger', 'src': '/static/foodstim60/burger.jpg', 'key': 'u', 'origWidth': 409, 'origHeight': 409, 'width': 409, 'height': 409, 'widthPercent': 0.45, 'rescaleHeight': False, 'trialN': 38, 'loaded': True, 'loadedTime': 3047.9000000059605, 'positionName': 'LEFT', 'positionCoords': [574.04, 371.5], 'bid': 6.62}, {'imgObject': {}, 'id': 'lox', 'src': '/static/foodstim60/lox.jpg', 'key': 'i', 'origWidth': 410, 'origHeight': 411, 'width': 410, 'height': 411, 'widthPercent': 0.45, 'rescaleHeight': False, 'trialN': 38, 'loaded': True, 'loadedTime': 3011.4000000059605, 'positionName': 'RIGHT', 'positionCoords': [1064.96, 370.5], 'bid': 7.66}]",69607.79999999702,1669829451245,burger,lox,6.62,7.66,1.04,burger,607,607,607.1000000089407,True,u,70728.70000000298,1120.9000000059605,1669829452366,1121,HRV,HRV_0042,2022-11-30 17:34:17
39,"[{'imgObject': {}, 'id': 'fruitsalad', 'src': '/static/foodstim60/fruitsalad.jpg', 'key': 'u', 'origWidth': 410, 'origHeight': 410, 'width': 410, 'height': 410, 'widthPercent': 0.45, 'rescaleHeight': False, 'trialN': 39, 'loaded': True, 'loadedTime': 2914.5, 'positionName': 'LEFT', 'positionCoords': [573.04, 371], 'bid': 4.99}, {'imgObject': {}, 'id': 'Grapes', 'src': '/static/foodstim60/Grapes.jpg', 'key': 'i', 'origWidth': 411, 'origHeight': 411, 'width': 411, 'height': 411, 'widthPercent': 0.45, 'rescaleHeight': False, 'trialN': 39, 'loaded': True, 'loadedTime': 3048.6000000089407, 'positionName': 'RIGHT', 'positionCoords': [1064.96, 370.5], 'bid': 5.15}]",70728.70000000298,1669829452366,fruitsalad,Grapes,4.99,5.15,0.16000000000000014,Grapes,633.4000000059605,634,633.5,True,i,71869.5,1140.7999999970198,1669829453507,1141,HRV,HRV_0042,2022-11-30 17:34:17
40,"[{'imgObject': {}, 'id': 'seaweed', 'src': '/static/foodstim60/seaweed.jpg', 'key': 'u', 'origWidth': 410, 'origHeight': 410, 'width': 410, 'height': 410, 'widthPercent': 0.45, 'rescaleHeight': False, 'trialN': 40, 'loaded': True, 'loadedTime': 3049.4000000059605, 'positionName': 'LEFT', 'positionCoords': [573.04, 371], 'bid': 0.16}, {'imgObject': {}, 'id': 'strawberries', 'src': '/static/foodstim60/strawberries.jpg', 'key': 'i', 'origWidth': 410, 'origHeight': 410, 'width': 410, 'height': 410, 'widthPercent': 0.45, 'rescaleHeight': False, 'trialN': 40, 'loaded': True, 'loadedTime': 2918.2000000029802, 'positionName': 'RIGHT', 'positionCoords': [1064.96, 371], 'bid': 4.58}]",71869.60000000894,1669829453507,seaweed,strawberries,0.16,4.58,4.42,strawberries,954.8999999910593,955,955.0999999940395,True,i,73335.40000000596,1465.7999999970198,1669829454973,1466,HRV,HRV_0042,2022-11-30 17:34:17
41,"[{'imgObject': {}, 'id': 'apple slices', 'src': '/static/foodstim60/apple slices.jpg', 'key': 'u', 'origWidth': 409, 'origHeight': 410, 'width': 409, 'height': 410, 'widthPercent': 0.45, 'rescaleHeight': False, 'trialN': 41, 'loaded': True, 'loadedTime': 2929.4000000059605, 'positionName': 'LEFT', 'positionCoords': [574.04, 371], 'bid': 4.6000000000000005}, {'imgObject': {}, 'id': 'Grapes', 'src': '/static/foodstim60/Grapes.jpg', 'key': 'i', 'origWidth': 411, 'origHeight': 411, 'width': 411, 'height': 411, 'widthPercent': 0.45, 'rescaleHeight': False, 'trialN': 41, 'loaded': True, 'loadedTime': 3048.5, 'positionName': 'RIGHT', 'positionCoords': [1064.96, 370.5], 'bid': 5.15}]",73335.40000000596,1669829454973,apple slices,Grapes,4.6000000000000005,5.15,0.5499999999999998,Grapes,569.0999999940395,569,569.2999999970198,True,i,74410.5,1075.0999999940395,1669829456048,1075,HRV,HRV_0042,2022-11-30 17:34:17
42,"[{'imgObject': {}, 'id': 'eggsalad', 'src': '/static/foodstim60/eggsalad.jpg', 'key': 'u', 'origWidth': 410, 'origHeight': 409, 'width': 410, 'height': 409, 'widthPercent': 0.45, 'rescaleHeight': False, 'trialN': 42, 'loaded': True, 'loadedTime': 3016, 'positionName': 'LEFT', 'positionCoords': [573.04, 371.5], 'bid': 1.87}, {'imgObject': {}, 'id': 'pear', 'src': '/static/foodstim60/pear.jpg', 'key': 'i', 'origWidth': 411, 'origHeight': 410, 'width': 411, 'height': 410, 'widthPercent': 0.45, 'rescaleHeight': False, 'trialN': 42, 'loaded': True, 'loadedTime': 2922.7000000029802, 'positionName': 'RIGHT', 'positionCoords': [1064.96, 371], 'bid': 4.57}]",74410.70000000298,1669829456048,eggsalad,pear,1.87,4.57,2.7,pear,1429,1429,1429.0999999940395,True,i,76355.0,1944.2999999970198,1669829457992,1944,HRV,HRV_0042,2022-11-30 17:34:17
43,"[{'imgObject': {}, 'id': 'chickenfingers', 'src': '/static/foodstim60/chickenfingers.jpg', 'key': 'u', 'origWidth': 410, 'origHeight': 410, 'width': 410, 'height': 410, 'widthPercent': 0.45, 'rescaleHeight': False, 'trialN': 43, 'loaded': True, 'loadedTime': 2921.2999999970198, 'positionName': 'LEFT', 'positionCoords': [573.04, 371], 'bid': 8.42}, {'imgObject': {}, 'id': 'bagel plain', 'src': '/static/foodstim60/bagel plain.jpg', 'key': 'i', 'origWidth': 410, 'origHeight': 410, 'width': 410, 'height': 410, 'widthPercent': 0.45, 'rescaleHeight': False, 'trialN': 43, 'loaded': True, 'loadedTime': 3050, 'positionName': 'RIGHT', 'positionCoords': [1064.96, 371], 'bid': 6.5}]",76355.10000000894,1669829457992,chickenfingers,bagel plain,8.42,6.5,-1.92,chickenfingers,542,543,542.1999999880791,True,u,77417.60000000894,1062.5,1669829459055,1063,HRV,HRV_0042,2022-11-30 17:34:17
44,"[{'imgObject': {}, 'id': 'cocktailshrimp', 'src': '/static/foodstim60/cocktailshrimp.jpg', 'key': 'u', 'origWidth': 410, 'origHeight': 410, 'width': 410, 'height': 410, 'widthPercent': 0.45, 'rescaleHeight': False, 'trialN': 44, 'loaded': True, 'loadedTime': 3050.1000000089407, 'positionName': 'LEFT', 'positionCoords': [573.04, 371], 'bid': 8.67}, {'imgObject': {}, 'id': 'orange slices', 'src': '/static/foodstim60/orange slices.jpg', 'key': 'i', 'origWidth': 409, 'origHeight': 410, 'width': 409, 'height': 410, 'widthPercent': 0.45, 'rescaleHeight': False, 'trialN': 44, 'loaded': True, 'loadedTime': 3045.7000000029802, 'positionName': 'RIGHT', 'positionCoords': [1064.96, 371], 'bid': 4.92}]",77417.70000000298,1669829459055,cocktailshrimp,orange slices,8.67,4.92,-3.75,cocktailshrimp,761.9000000059605,762,762.0999999940395,True,u,78688.0,1270.2999999970198,1669829460325,1270,HRV,HRV_0042,2022-11-30 17:34:17
45,"[{'imgObject': {}, 'id': 'turkey sandwich', 'src': '/static/foodstim60/turkey sandwich.jpg', 'key': 'u', 'origWidth': 409, 'origHeight': 409, 'width': 409, 'height': 409, 'widthPercent': 0.45, 'rescaleHeight': False, 'trialN': 45, 'loaded': True, 'loadedTime': 3018.1000000089407, 'positionName': 'LEFT', 'positionCoords': [574.04, 371.5], 'bid': 7.53}, {'imgObject': {}, 'id': 'cocktailshrimp', 'src': '/static/foodstim60/cocktailshrimp.jpg', 'key': 'i', 'origWidth': 410, 'origHeight': 410, 'width': 410, 'height': 410, 'widthPercent': 0.45, 'rescaleHeight': False, 'trialN': 45, 'loaded': True, 'loadedTime': 3050.7999999970198, 'positionName': 'RIGHT', 'positionCoords': [1064.96, 371], 'bid': 8.67}]",78688.20000000298,1669829460325,turkey sandwich,cocktailshrimp,7.53,8.67,1.1399999999999997,cocktailshrimp,1066.2999999970198,1067,1066.4000000059605,True,i,80263.90000000596,1575.7000000029802,1669829461901,1576,HRV,HRV_0042,2022-11-30 17:34:17
46,"[{'imgObject': {}, 'id': 'seaweed', 'src': '/static/foodstim60/seaweed.jpg', 'key': 'u', 'origWidth': 410, 'origHeight': 410, 'width': 410, 'height': 410, 'widthPercent': 0.45, 'rescaleHeight': False, 'trialN': 46, 'loaded': True, 'loadedTime': 3049.2999999970198, 'positionName': 'LEFT', 'positionCoords': [573.04, 371], 'bid': 0.16}, {'imgObject': {}, 'id': 'ice cream sundae 002', 'src': '/static/foodstim60/ice cream sundae 002.jpg', 'key': 'i', 'origWidth': 409, 'origHeight': 409, 'width': 409, 'height': 409, 'widthPercent': 0.45, 'rescaleHeight': False, 'trialN': 46, 'loaded': True, 'loadedTime': 2937.6000000089407, 'positionName': 'RIGHT', 'positionCoords': [1064.96, 371.5], 'bid': 2.07}]",80264.0,1669829461901,seaweed,ice cream sundae 002,0.16,2.07,1.91,ice cream sundae 002,1020.7000000029802,1021,1020.7999999970198,True,i,81797.5,1533.5,1669829463435,1534,HRV,HRV_0042,2022-11-30 17:34:17
47,"[{'imgObject': {}, 'id': 'cheerios', 'src': '/static/foodstim60/cheerios.jpg', 'key': 'u', 'origWidth': 409, 'origHeight': 410, 'width': 409, 'height': 410, 'widthPercent': 0.45, 'rescaleHeight': False, 'trialN': 47, 'loaded': True, 'loadedTime': 2878.2999999970198, 'positionName': 'LEFT', 'positionCoords': [574.04, 371], 'bid': 0.08}, {'imgObject': {}, 'id': 'Grapes', 'src': '/static/foodstim60/Grapes.jpg', 'key': 'i', 'origWidth': 411, 'origHeight': 411, 'width': 411, 'height': 411, 'widthPercent': 0.45, 'rescaleHeight': False, 'trialN': 47, 'loaded': True, 'loadedTime': 3047.9000000059605, 'positionName': 'RIGHT', 'positionCoords': [1064.96, 370.5], 'bid': 5.15}]",81797.5,1669829463435,cheerios,Grapes,0.08,5.15,5.07,Grapes,724.6000000089407,725,724.9000000059605,True,i,83035.60000000894,1238.1000000089407,1669829464673,1238,HRV,HRV_0042,2022-11-30 17:34:17
48,"[{'imgObject': {}, 'id': 'rigatoni and sauce', 'src': '/static/foodstim60/rigatoni and sauce.jpg', 'key': 'u', 'origWidth': 410, 'origHeight': 411, 'width': 410, 'height': 411, 'widthPercent': 0.45, 'rescaleHeight': False, 'trialN': 48, 'loaded': True, 'loadedTime': 3012.1000000089407, 'positionName': 'LEFT', 'positionCoords': [573.04, 370.5], 'bid': 4.8}, {'imgObject': {}, 'id': 'turkeysandwich', 'src': '/static/foodstim60/turkeysandwich.jpg', 'key': 'i', 'origWidth': 409, 'origHeight': 409, 'width': 409, 'height': 409, 'widthPercent': 0.45, 'rescaleHeight': False, 'trialN': 48, 'loaded': True, 'loadedTime': 2926.2000000029802, 'positionName': 'RIGHT', 'positionCoords': [1064.96, 371.5], 'bid': 7.56}]",83035.70000000298,1669829464673,rigatoni and sauce,turkeysandwich,4.8,7.56,2.76,turkeysandwich,903.9000000059605,904,904.0,True,i,84456.79999999702,1421.0999999940395,1669829466094,1421,HRV,HRV_0042,2022-11-30 17:34:17
49,"[{'imgObject': {}, 'id': 'shreddedwheatwithmilk', 'src': '/static/foodstim60/shreddedwheatwithmilk.jpg', 'key': 'u', 'origWidth': 410, 'origHeight': 410, 'width': 410, 'height': 410, 'widthPercent': 0.45, 'rescaleHeight': False, 'trialN': 49, 'loaded': True, 'loadedTime': 2981.1000000089407, 'positionName': 'LEFT', 'positionCoords': [573.04, 371], 'bid': 0.22}, {'imgObject': {}, 'id': 'sweetpotato', 'src': '/static/foodstim60/sweetpotato.jpg', 'key': 'i', 'origWidth': 410, 'origHeight': 410, 'width': 410, 'height': 410, 'widthPercent': 0.45, 'rescaleHeight': False, 'trialN': 49, 'loaded': True, 'loadedTime': 2973.9000000059605, 'positionName': 'RIGHT', 'positionCoords': [1064.96, 371], 'bid': 0.17}]",84456.90000000596,1669829466094,shreddedwheatwithmilk,sweetpotato,0.22,0.17,-0.04999999999999999,shreddedwheatwithmilk,990.2000000029802,991,990.3999999910593,True,u,85969.70000000298,1512.7999999970198,1669829467607,1513,HRV,HRV_0042,2022-11-30 17:34:17
50,"[{'imgObject': {}, 'id': 'salmon', 'src': '/static/foodstim60/salmon.jpg', 'key': 'u', 'origWidth': 410, 'origHeight': 409, 'width': 410, 'height': 409, 'widthPercent': 0.45, 'rescaleHeight': False, 'trialN': 50, 'loaded': True, 'loadedTime': 3051.4000000059605, 'positionName': 'LEFT', 'positionCoords': [573.04, 371.5], 'bid': 9.56}, {'imgObject': {}, 'id': 'salad w chicken', 'src': '/static/foodstim60/salad w chicken.jpg', 'key': 'i', 'origWidth': 411, 'origHeight': 411, 'width': 411, 'height': 411, 'widthPercent': 0.45, 'rescaleHeight': False, 'trialN': 50, 'loaded': True, 'loadedTime': 3027.2000000029802, 'positionName': 'RIGHT', 'positionCoords': [1064.96, 370.5], 'bid': 6.59}]",85969.70000000298,1669829467607,salmon,salad w chicken,9.56,6.59,-2.9700000000000006,salmon,669.9000000059605,670,670.0999999940395,True,u,87161.20000000298,1191.5,1669829468799,1192,HRV,HRV_0042,2022-11-30 17:34:17
51,"[{'imgObject': {}, 'id': 'olives', 'src': '/static/foodstim60/olives.jpg', 'key': 'u', 'origWidth': 410, 'origHeight': 410, 'width': 410, 'height': 410, 'widthPercent': 0.45, 'rescaleHeight': False, 'trialN': 51, 'loaded': True, 'loadedTime': 3044.9000000059605, 'positionName': 'LEFT', 'positionCoords': [573.04, 371], 'bid': 4.99}, {'imgObject': {}, 'id': 'salmon', 'src': '/static/foodstim60/salmon.jpg', 'key': 'i', 'origWidth': 410, 'origHeight': 409, 'width': 410, 'height': 409, 'widthPercent': 0.45, 'rescaleHeight': False, 'trialN': 51, 'loaded': True, 'loadedTime': 3051.6000000089407, 'positionName': 'RIGHT', 'positionCoords': [1064.96, 371.5], 'bid': 9.56}]",87161.40000000596,1669829468799,olives,salmon,4.99,9.56,4.57,salmon,805.5,805,805.7999999970198,True,i,88482.0,1320.5999999940395,1669829470119,1320,HRV,HRV_0042,2022-11-30 17:34:17
52,"[{'imgObject': {}, 'id': 'banana', 'src': '/static/foodstim60/banana.jpg', 'key': 'u', 'origWidth': 410, 'origHeight': 410, 'width': 410, 'height': 410, 'widthPercent': 0.45, 'rescaleHeight': False, 'trialN': 52, 'loaded': True, 'loadedTime': 2926.7000000029802, 'positionName': 'LEFT', 'positionCoords': [573.04, 371], 'bid': 6.5200000000000005}, {'imgObject': {}, 'id': 'bagel plain', 'src': '/static/foodstim60/bagel plain.jpg', 'key': 'i', 'origWidth': 410, 'origHeight': 410, 'width': 410, 'height': 410, 'widthPercent': 0.45, 'rescaleHeight': False, 'trialN': 52, 'loaded': True, 'loadedTime': 3049.9000000059605, 'positionName': 'RIGHT', 'positionCoords': [1064.96, 371], 'bid': 6.5}]",88482.10000000894,1669829470119,banana,bagel plain,6.5200000000000005,6.5,-0.020000000000000462,bagel plain,857.3999999910593,858,857.6999999880791,True,i,89844.29999999702,1362.199999988079,1669829471481,1362,HRV,HRV_0042,2022-11-30 17:34:17
53,"[{'imgObject': {}, 'id': 'grilled chicken strips', 'src': '/static/foodstim60/grilled chicken strips.jpg', 'key': 'u', 'origWidth': 410, 'origHeight': 411, 'width': 410, 'height': 411, 'widthPercent': 0.45, 'rescaleHeight': False, 'trialN': 53, 'loaded': True, 'loadedTime': 2918.9000000059605, 'positionName': 'LEFT', 'positionCoords': [573.04, 370.5], 'bid': 9.73}, {'imgObject': {}, 'id': 'lox', 'src': '/static/foodstim60/lox.jpg', 'key': 'i', 'origWidth': 410, 'origHeight': 411, 'width': 410, 'height': 411, 'widthPercent': 0.45, 'rescaleHeight': False, 'trialN': 53, 'loaded': True, 'loadedTime': 3010.4000000059605, 'positionName': 'RIGHT', 'positionCoords': [1064.96, 370.5], 'bid': 7.66}]",89844.29999999702,1669829471482,grilled chicken strips,lox,9.73,7.66,-2.0700000000000003,grilled chicken strips,642.7000000029802,643,643.0,True,u,90999.5,1155.2000000029802,1669829472637,1155,HRV,HRV_0042,2022-11-30 17:34:17
54,"[{'imgObject': {}, 'id': 'cocktailshrimp', 'src': '/static/foodstim60/cocktailshrimp.jpg', 'key': 'u', 'origWidth': 410, 'origHeight': 410, 'width': 410, 'height': 410, 'widthPercent': 0.45, 'rescaleHeight': False, 'trialN': 54, 'loaded': True, 'loadedTime': 3050.5, 'positionName': 'LEFT', 'positionCoords': [573.04, 371], 'bid': 8.67}, {'imgObject': {}, 'id': 'steak', 'src': '/static/foodstim60/steak.jpg', 'key': 'i', 'origWidth': 410, 'origHeight': 410, 'width': 410, 'height': 410, 'widthPercent': 0.45, 'rescaleHeight': False, 'trialN': 54, 'loaded': True, 'loadedTime': 3052.2999999970198, 'positionName': 'RIGHT', 'positionCoords': [1064.96, 371], 'bid': 9.68}]",90999.60000000894,1669829472637,cocktailshrimp,steak,8.67,9.68,1.0099999999999998,steak,679.7999999970198,680,680.0,True,i,92181.29999999702,1181.699999988079,1669829473819,1182,HRV,HRV_0042,2022-11-30 17:34:17
55,"[{'imgObject': {}, 'id': 'steak', 'src': '/static/foodstim60/steak.jpg', 'key': 'u', 'origWidth': 410, 'origHeight': 410, 'width': 410, 'height': 410, 'widthPercent': 0.45, 'rescaleHeight': False, 'trialN': 55, 'loaded': True, 'loadedTime': 3052.2000000029802, 'positionName': 'LEFT', 'positionCoords': [573.04, 371], 'bid': 9.68}, {'imgObject': {}, 'id': 'popsicles', 'src': '/static/foodstim60/popsicles.jpg', 'key': 'i', 'origWidth': 410, 'origHeight': 410, 'width': 410, 'height': 410, 'widthPercent': 0.45, 'rescaleHeight': False, 'trialN': 55, 'loaded': True, 'loadedTime': 2860.9000000059605, 'positionName': 'RIGHT', 'positionCoords': [1064.96, 371], 'bid': 7.2}]",92181.40000000596,1669829473819,steak,popsicles,9.68,7.2,-2.4799999999999995,steak,510.5,510,510.59999999403954,True,u,93192.60000000894,1011.2000000029802,1669829474830,1011,HRV,HRV_0042,2022-11-30 17:34:17
56,"[{'imgObject': {}, 'id': 'eggs', 'src': '/static/foodstim60/eggs.jpg', 'key': 'u', 'origWidth': 409, 'origHeight': 409, 'width': 409, 'height': 409, 'widthPercent': 0.45, 'rescaleHeight': False, 'trialN': 56, 'loaded': True, 'loadedTime': 3013.1000000089407, 'positionName': 'LEFT', 'positionCoords': [574.04, 371.5], 'bid': 4.8500000000000005}, {'imgObject': {}, 'id': 'kiwi', 'src': '/static/foodstim60/kiwi.jpg', 'key': 'i', 'origWidth': 410, 'origHeight': 410, 'width': 410, 'height': 410, 'widthPercent': 0.45, 'rescaleHeight': False, 'trialN': 56, 'loaded': True, 'loadedTime': 3020.9000000059605, 'positionName': 'RIGHT', 'positionCoords': [1064.96, 371], 'bid': 5.42}]",93192.79999999702,1669829474830,eggs,kiwi,4.8500000000000005,5.42,0.5699999999999994,eggs,714.1000000089407,714,714.2000000029802,True,u,94419.29999999702,1226.5,1669829476057,1227,HRV,HRV_0042,2022-11-30 17:34:17
57,"[{'imgObject': {}, 'id': 'luckycharms', 'src': '/static/foodstim60/luckycharms.jpg', 'key': 'u', 'origWidth': 410, 'origHeight': 409, 'width': 410, 'height': 409, 'widthPercent': 0.45, 'rescaleHeight': False, 'trialN': 57, 'loaded': True, 'loadedTime': 3015.7999999970198, 'positionName': 'LEFT', 'positionCoords': [573.04, 371.5], 'bid': 0.84}, {'imgObject': {}, 'id': 'rigatoni', 'src': '/static/foodstim60/rigatoni.jpg', 'key': 'i', 'origWidth': 411, 'origHeight': 411, 'width': 411, 'height': 411, 'widthPercent': 0.45, 'rescaleHeight': False, 'trialN': 57, 'loaded': True, 'loadedTime': 3053.4000000059605, 'positionName': 'RIGHT', 'positionCoords': [1064.96, 370.5], 'bid': 0.15}]",94419.5,1669829476057,luckycharms,rigatoni,0.84,0.15,-0.69,rigatoni,702.4000000059605,693,702.6000000089407,True,i,95626.79999999702,1207.2999999970198,1669829477254,1197,HRV,HRV_0042,2022-11-30 17:34:17
58,"[{'imgObject': {}, 'id': 'strawberries', 'src': '/static/foodstim60/strawberries.jpg', 'key': 'u', 'origWidth': 410, 'origHeight': 410, 'width': 410, 'height': 410, 'widthPercent': 0.45, 'rescaleHeight': False, 'trialN': 58, 'loaded': True, 'loadedTime': 2918.2999999970198, 'positionName': 'LEFT', 'positionCoords': [573.04, 371], 'bid': 4.58}, {'imgObject': {}, 'id': 'cherry tomato', 'src': '/static/foodstim60/cherry tomato.jpg', 'key': 'i', 'origWidth': 410, 'origHeight': 410, 'width': 410, 'height': 410, 'widthPercent': 0.45, 'rescaleHeight': False, 'trialN': 58, 'loaded': True, 'loadedTime': 3054, 'positionName': 'RIGHT', 'positionCoords': [1064.96, 371], 'bid': 2.06}]",95626.90000000596,1669829477254,strawberries,cherry tomato,4.58,2.06,-2.52,strawberries,890.2999999970198,891,890.5999999940395,True,u,97034.40000000596,1407.5,1669829478662,1408,HRV,HRV_0042,2022-11-30 17:34:17
59,"[{'imgObject': {}, 'id': 'avocado', 'src': '/static/foodstim60/avocado.jpg', 'key': 'u', 'origWidth': 409, 'origHeight': 409, 'width': 409, 'height': 409, 'widthPercent': 0.45, 'rescaleHeight': False, 'trialN': 59, 'loaded': True, 'loadedTime': 2925.4000000059605, 'positionName': 'LEFT', 'positionCoords': [574.04, 371.5], 'bid': 5.86}, {'imgObject': {}, 'id': 'hashbrowns', 'src': '/static/foodstim60/hashbrowns.jpg', 'key': 'i', 'origWidth': 411, 'origHeight': 410, 'width': 411, 'height': 410, 'widthPercent': 0.45, 'rescaleHeight': False, 'trialN': 59, 'loaded': True, 'loadedTime': 3027.9000000059605, 'positionName': 'RIGHT', 'positionCoords': [1064.96, 371], 'bid': 0.2}]",97034.5,1669829478662,avocado,hashbrowns,5.86,0.2,-5.66,avocado,787.5,788,787.6000000089407,True,u,98335.40000000596,1300.9000000059605,1669829479963,1301,HRV,HRV_0042,2022-11-30 17:34:17
60,"[{'imgObject': {}, 'id': 'blackbeanswithrice', 'src': '/static/foodstim60/blackbeanswithrice.jpg', 'key': 'u', 'origWidth': 410, 'origHeight': 410, 'width': 410, 'height': 410, 'widthPercent': 0.45, 'rescaleHeight': False, 'trialN': 60, 'loaded': True, 'loadedTime': 2960.1000000089407, 'positionName': 'LEFT', 'positionCoords': [573.04, 371], 'bid': 1.04}, {'imgObject': {}, 'id': 'luckycharms', 'src': '/static/foodstim60/luckycharms.jpg', 'key': 'i', 'origWidth': 410, 'origHeight': 409, 'width': 410, 'height': 409, 'widthPercent': 0.45, 'rescaleHeight': False, 'trialN': 60, 'loaded': True, 'loadedTime': 3015.7000000029802, 'positionName': 'RIGHT', 'positionCoords': [1064.96, 371.5], 'bid': 0.84}]",98335.5,1669829479963,blackbeanswithrice,luckycharms,1.04,0.84,-0.20000000000000007,blackbeanswithrice,746.2999999970198,746,746.5,True,u,99598.70000000298,1263.2000000029802,1669829481226,1263,HRV,HRV_0042,2022-11-30 17:34:17
61,"[{'imgObject': {}, 'id': 'rigatoni', 'src': '/static/foodstim60/rigatoni.jpg', 'key': 'u', 'origWidth': 411, 'origHeight': 411, 'width': 411, 'height': 411, 'widthPercent': 0.45, 'rescaleHeight': False, 'trialN': 61, 'loaded': True, 'loadedTime': 3052.9000000059605, 'positionName': 'LEFT', 'positionCoords': [572.04, 370.5], 'bid': 0.15}, {'imgObject': {}, 'id': 'raisin bran w milk', 'src': '/static/foodstim60/raisin bran w milk.jpg', 'key': 'i', 'origWidth': 411, 'origHeight': 411, 'width': 411, 'height': 411, 'widthPercent': 0.45, 'rescaleHeight': False, 'trialN': 61, 'loaded': True, 'loadedTime': 2845.7000000029802, 'positionName': 'RIGHT', 'positionCoords': [1064.96, 370.5], 'bid': 0.15}]",99598.70000000298,1669829481226,rigatoni,raisin bran w milk,0.15,0.15,0.0,rigatoni,810.5999999940395,811,810.9000000059605,True,u,100922.0,1323.2999999970198,1669829482549,1323,HRV,HRV_0042,2022-11-30 17:34:17
62,"[{'imgObject': {}, 'id': 'hashbrowns', 'src': '/static/foodstim60/hashbrowns.jpg', 'key': 'u', 'origWidth': 411, 'origHeight': 410, 'width': 411, 'height': 410, 'widthPercent': 0.45, 'rescaleHeight': False, 'trialN': 62, 'loaded': True, 'loadedTime': 3027.9000000059605, 'positionName': 'LEFT', 'positionCoords': [572.04, 371], 'bid': 0.2}, {'imgObject': {}, 'id': 'mashed potato', 'src': '/static/foodstim60/mashed potato.jpg', 'key': 'i', 'origWidth': 409, 'origHeight': 409, 'width': 409, 'height': 409, 'widthPercent': 0.45, 'rescaleHeight': False, 'trialN': 62, 'loaded': True, 'loadedTime': 2980.4000000059605, 'positionName': 'RIGHT', 'positionCoords': [1064.96, 371.5], 'bid': 3.72}]",100922.10000000894,1669829482550,hashbrowns,mashed potato,0.2,3.72,3.52,mashed potato,927.1999999880791,927,927.3999999910593,True,i,102355.60000000894,1433.5,1669829483983,1433,HRV,HRV_0042,2022-11-30 17:34:17
63,"[{'imgObject': {}, 'id': 'blueberries', 'src': '/static/foodstim60/blueberries.jpg', 'key': 'u', 'origWidth': 411, 'origHeight': 411, 'width': 411, 'height': 411, 'widthPercent': 0.45, 'rescaleHeight': False, 'trialN': 63, 'loaded': True, 'loadedTime': 2916.7000000029802, 'positionName': 'LEFT', 'positionCoords': [572.04, 370.5], 'bid': 5.03}, {'imgObject': {}, 'id': 'tacos', 'src': '/static/foodstim60/tacos.jpg', 'key': 'i', 'origWidth': 411, 'origHeight': 411, 'width': 411, 'height': 411, 'widthPercent': 0.45, 'rescaleHeight': False, 'trialN': 63, 'loaded': True, 'loadedTime': 3037.5, 'positionName': 'RIGHT', 'positionCoords': [1064.96, 370.5], 'bid': 6.44}]",102355.70000000298,1669829483983,blueberries,tacos,5.03,6.44,1.4100000000000001,tacos,753.7000000029802,754,753.9000000059605,True,i,103612.60000000894,1256.9000000059605,1669829485240,1257,HRV,HRV_0042,2022-11-30 17:34:17
64,"[{'imgObject': {}, 'id': 'hashbrowns', 'src': '/static/foodstim60/hashbrowns.jpg', 'key': 'u', 'origWidth': 411, 'origHeight': 410, 'width': 411, 'height': 410, 'widthPercent': 0.45, 'rescaleHeight': False, 'trialN': 64, 'loaded': True, 'loadedTime': 3036.5, 'positionName': 'LEFT', 'positionCoords': [572.04, 371], 'bid': 0.2}, {'imgObject': {}, 'id': 'rigatoni and sauce', 'src': '/static/foodstim60/rigatoni and sauce.jpg', 'key': 'i', 'origWidth': 410, 'origHeight': 411, 'width': 410, 'height': 411, 'widthPercent': 0.45, 'rescaleHeight': False, 'trialN': 64, 'loaded': True, 'loadedTime': 3012.2000000029802, 'positionName': 'RIGHT', 'positionCoords': [1064.96, 370.5], 'bid': 4.8}]",103612.70000000298,1669829485240,hashbrowns,rigatoni and sauce,0.2,4.8,4.6,rigatoni and sauce,1229.7000000029802,1230,1229.9000000059605,True,i,105355.20000000298,1742.5,1669829486983,1743,HRV,HRV_0042,2022-11-30 17:34:17
65,"[{'imgObject': {}, 'id': 'olives', 'src': '/static/foodstim60/olives.jpg', 'key': 'u', 'origWidth': 410, 'origHeight': 410, 'width': 410, 'height': 410, 'widthPercent': 0.45, 'rescaleHeight': False, 'trialN': 65, 'loaded': True, 'loadedTime': 3038.1000000089407, 'positionName': 'LEFT', 'positionCoords': [573.04, 371], 'bid': 4.99}, {'imgObject': {}, 'id': 'kiwi', 'src': '/static/foodstim60/kiwi.jpg', 'key': 'i', 'origWidth': 410, 'origHeight': 410, 'width': 410, 'height': 410, 'widthPercent': 0.45, 'rescaleHeight': False, 'trialN': 65, 'loaded': True, 'loadedTime': 3020.7000000029802, 'positionName': 'RIGHT', 'positionCoords': [1064.96, 371], 'bid': 5.42}]",105355.29999999702,1669829486983,olives,kiwi,4.99,5.42,0.4299999999999997,olives,634,634,634.1000000089407,True,u,106497.60000000894,1142.300000011921,1669829488125,1142,HRV,HRV_0042,2022-11-30 17:34:17
66,"[{'imgObject': {}, 'id': 'blackbeanswithrice', 'src': '/static/foodstim60/blackbeanswithrice.jpg', 'key': 'u', 'origWidth': 410, 'origHeight': 410, 'width': 410, 'height': 410, 'widthPercent': 0.45, 'rescaleHeight': False, 'trialN': 66, 'loaded': True, 'loadedTime': 2967.2999999970198, 'positionName': 'LEFT', 'positionCoords': [573.04, 371], 'bid': 1.04}, {'imgObject': {}, 'id': 'orange slices', 'src': '/static/foodstim60/orange slices.jpg', 'key': 'i', 'origWidth': 409, 'origHeight': 410, 'width': 409, 'height': 410, 'widthPercent': 0.45, 'rescaleHeight': False, 'trialN': 66, 'loaded': True, 'loadedTime': 3046.2999999970198, 'positionName': 'RIGHT', 'positionCoords': [1064.96, 371], 'bid': 4.92}]",106497.60000000894,1669829488125,blackbeanswithrice,orange slices,1.04,4.92,3.88,orange slices,684.0999999940395,684,684.2999999970198,True,i,107691.60000000894,1194.0,1669829489319,1194,HRV,HRV_0042,2022-11-30 17:34:17
67,"[{'imgObject': {}, 'id': 'corn cob', 'src': '/static/foodstim60/corn cob.jpg', 'key': 'u', 'origWidth': 411, 'origHeight': 411, 'width': 411, 'height': 411, 'widthPercent': 0.45, 'rescaleHeight': False, 'trialN': 67, 'loaded': True, 'loadedTime': 2896.9000000059605, 'positionName': 'LEFT', 'positionCoords': [572.04, 370.5], 'bid': 6.71}, {'imgObject': {}, 'id': 'yogurt no spoon', 'src': '/static/foodstim60/yogurt no spoon.jpg', 'key': 'i', 'origWidth': 411, 'origHeight': 410, 'width': 411, 'height': 410, 'widthPercent': 0.45, 'rescaleHeight': False, 'trialN': 67, 'loaded': True, 'loadedTime': 3054.2000000029802, 'positionName': 'RIGHT', 'positionCoords': [1064.96, 371], 'bid': 3.63}]",107691.70000000298,1669829489319,corn cob,yogurt no spoon,6.71,3.63,-3.08,corn cob,570.4000000059605,571,570.5999999940395,True,u,108763.29999999702,1071.5999999940395,1669829490391,1072,HRV,HRV_0042,2022-11-30 17:34:17
68,"[{'imgObject': {}, 'id': 'Tribe humus pita', 'src': '/static/foodstim60/Tribe humus pita.jpg', 'key': 'u', 'origWidth': 411, 'origHeight': 411, 'width': 411, 'height': 411, 'widthPercent': 0.45, 'rescaleHeight': False, 'trialN': 68, 'loaded': True, 'loadedTime': 2896.2999999970198, 'positionName': 'LEFT', 'positionCoords': [572.04, 370.5], 'bid': 6.63}, {'imgObject': {}, 'id': 'burrito', 'src': '/static/foodstim60/burrito.jpg', 'key': 'i', 'origWidth': 410, 'origHeight': 410, 'width': 410, 'height': 410, 'widthPercent': 0.45, 'rescaleHeight': False, 'trialN': 68, 'loaded': True, 'loadedTime': 2924.6000000089407, 'positionName': 'RIGHT', 'positionCoords': [1064.96, 371], 'bid': 6.44}]",108763.40000000596,1669829490391,Tribe humus pita,burrito,6.63,6.44,-0.1899999999999995,burrito,645.8999999910593,646,646.0999999940395,True,i,109917.5,1154.0999999940395,1669829491545,1154,HRV,HRV_0042,2022-11-30 17:34:17
69,"[{'imgObject': {}, 'id': 'froot loops w milk', 'src': '/static/foodstim60/froot loops w milk.jpg', 'key': 'u', 'origWidth': 410, 'origHeight': 410, 'width': 410, 'height': 410, 'widthPercent': 0.45, 'rescaleHeight': False, 'trialN': 69, 'loaded': True, 'loadedTime': 2921.9000000059605, 'positionName': 'LEFT', 'positionCoords': [573.04, 371], 'bid': 0.41}, {'imgObject': {}, 'id': 'burrito', 'src': '/static/foodstim60/burrito.jpg', 'key': 'i', 'origWidth': 410, 'origHeight': 410, 'width': 410, 'height': 410, 'widthPercent': 0.45, 'rescaleHeight': False, 'trialN': 69, 'loaded': True, 'loadedTime': 2924.6000000089407, 'positionName': 'RIGHT', 'positionCoords': [1064.96, 371], 'bid': 6.44}]",109917.60000000894,1669829491545,froot loops w milk,burrito,0.41,6.44,6.03,burrito,706.7999999970198,707,707.0,True,i,111143.70000000298,1226.0999999940395,1669829492771,1226,HRV,HRV_0042,2022-11-30 17:34:17
70,"[{'imgObject': {}, 'id': 'apple slices', 'src': '/static/foodstim60/apple slices.jpg', 'key': 'u', 'origWidth': 409, 'origHeight': 410, 'width': 409, 'height': 410, 'widthPercent': 0.45, 'rescaleHeight': False, 'trialN': 70, 'loaded': True, 'loadedTime': 2927.5, 'positionName': 'LEFT', 'positionCoords': [574.04, 371], 'bid': 4.6000000000000005}, {'imgObject': {}, 'id': 'cantaloupe', 'src': '/static/foodstim60/cantaloupe.jpg', 'key': 'i', 'origWidth': 409, 'origHeight': 409, 'width': 409, 'height': 409, 'widthPercent': 0.45, 'rescaleHeight': False, 'trialN': 70, 'loaded': True, 'loadedTime': 3055.4000000059605, 'positionName': 'RIGHT', 'positionCoords': [1064.96, 371.5], 'bid': 4.83}]",111143.79999999702,1669829492771,apple slices,cantaloupe,4.6000000000000005,4.83,0.22999999999999954,apple slices,1212.9000000059605,1213,1213.2000000029802,True,u,112866.29999999702,1722.5,1669829494494,1723,HRV,HRV_0042,2022-11-30 17:34:17
71,"[{'imgObject': {}, 'id': 'salmon', 'src': '/static/foodstim60/salmon.jpg', 'key': 'u', 'origWidth': 410, 'origHeight': 409, 'width': 410, 'height': 409, 'widthPercent': 0.45, 'rescaleHeight': False, 'trialN': 71, 'loaded': True, 'loadedTime': 3051.4000000059605, 'positionName': 'LEFT', 'positionCoords': [573.04, 371.5], 'bid': 9.56}, {'imgObject': {}, 'id': 'grilled chicken strips', 'src': '/static/foodstim60/grilled chicken strips.jpg', 'key': 'i', 'origWidth': 410, 'origHeight': 411, 'width': 410, 'height': 411, 'widthPercent': 0.45, 'rescaleHeight': False, 'trialN': 71, 'loaded': True, 'loadedTime': 2919.1000000089407, 'positionName': 'RIGHT', 'positionCoords': [1064.96, 370.5], 'bid': 9.73}]",112866.5,1669829494494,salmon,grilled chicken strips,9.56,9.73,0.16999999999999993,grilled chicken strips,952.6000000089407,953,952.7999999970198,True,i,114331.60000000894,1465.1000000089407,1669829495959,1465,HRV,HRV_0042,2022-11-30 17:34:17
72,"[{'imgObject': {}, 'id': 'baked potato', 'src': '/static/foodstim60/baked potato.jpg', 'key': 'u', 'origWidth': 409, 'origHeight': 410, 'width': 409, 'height': 410, 'widthPercent': 0.45, 'rescaleHeight': False, 'trialN': 72, 'loaded': True, 'loadedTime': 2919.6000000089407, 'positionName': 'LEFT', 'positionCoords': [574.04, 371], 'bid': 5.17}, {'imgObject': {}, 'id': 'blueberries', 'src': '/static/foodstim60/blueberries.jpg', 'key': 'i', 'origWidth': 411, 'origHeight': 411, 'width': 411, 'height': 411, 'widthPercent': 0.45, 'rescaleHeight': False, 'trialN': 72, 'loaded': True, 'loadedTime': 2916.7999999970198, 'positionName': 'RIGHT', 'positionCoords': [1064.96, 370.5], 'bid': 5.03}]",114331.60000000894,1669829495959,baked potato,blueberries,5.17,5.03,-0.13999999999999968,blueberries,1265.2999999970198,1266,1265.5,True,i,116108.20000000298,1776.5999999940395,1669829497736,1777,HRV,HRV_0042,2022-11-30 17:34:17
73,"[{'imgObject': {}, 'id': 'rigatoni', 'src': '/static/foodstim60/rigatoni.jpg', 'key': 'u', 'origWidth': 411, 'origHeight': 411, 'width': 411, 'height': 411, 'widthPercent': 0.45, 'rescaleHeight': False, 'trialN': 73, 'loaded': True, 'loadedTime': 3052.9000000059605, 'positionName': 'LEFT', 'positionCoords': [572.04, 370.5], 'bid': 0.15}, {'imgObject': {}, 'id': 'kiwi', 'src': '/static/foodstim60/kiwi.jpg', 'key': 'i', 'origWidth': 410, 'origHeight': 410, 'width': 410, 'height': 410, 'widthPercent': 0.45, 'rescaleHeight': False, 'trialN': 73, 'loaded': True, 'loadedTime': 3020.7000000029802, 'positionName': 'RIGHT', 'positionCoords': [1064.96, 371], 'bid': 5.42}]",116108.29999999702,1669829497736,rigatoni,kiwi,0.15,5.42,5.27,kiwi,1040.9000000059605,1041,1041.1000000089407,True,i,117663.90000000596,1555.6000000089407,1669829499291,1555,HRV,HRV_0042,2022-11-30 17:34:17
74,"[{'imgObject': {}, 'id': 'Tribe humus pita', 'src': '/static/foodstim60/Tribe humus pita.jpg', 'key': 'u', 'origWidth': 411, 'origHeight': 411, 'width': 411, 'height': 411, 'widthPercent': 0.45, 'rescaleHeight': False, 'trialN': 74, 'loaded': True, 'loadedTime': 2887, 'positionName': 'LEFT', 'positionCoords': [572.04, 370.5], 'bid': 6.63}, {'imgObject': {}, 'id': 'ice cream sundae 002', 'src': '/static/foodstim60/ice cream sundae 002.jpg', 'key': 'i', 'origWidth': 409, 'origHeight': 409, 'width': 409, 'height': 409, 'widthPercent': 0.45, 'rescaleHeight': False, 'trialN': 74, 'loaded': True, 'loadedTime': 2937.6000000089407, 'positionName': 'RIGHT', 'positionCoords': [1064.96, 371.5], 'bid': 2.07}]",117664.10000000894,1669829499292,Tribe humus pita,ice cream sundae 002,6.63,2.07,-4.5600000000000005,Tribe humus pita,723.1999999880791,723,723.2999999970198,True,u,118898.20000000298,1234.0999999940395,1669829500526,1234,HRV,HRV_0042,2022-11-30 17:34:17
75,"[{'imgObject': {}, 'id': 'turkey sandwich', 'src': '/static/foodstim60/turkey sandwich.jpg', 'key': 'u', 'origWidth': 409, 'origHeight': 409, 'width': 409, 'height': 409, 'widthPercent': 0.45, 'rescaleHeight': False, 'trialN': 75, 'loaded': True, 'loadedTime': 3018.1000000089407, 'positionName': 'LEFT', 'positionCoords': [574.04, 371.5], 'bid': 7.53}, {'imgObject': {}, 'id': 'apple slices', 'src': '/static/foodstim60/apple slices.jpg', 'key': 'i', 'origWidth': 409, 'origHeight': 410, 'width': 409, 'height': 410, 'widthPercent': 0.45, 'rescaleHeight': False, 'trialN': 75, 'loaded': True, 'loadedTime': 2929.5, 'positionName': 'RIGHT', 'positionCoords': [1064.96, 371], 'bid': 4.6000000000000005}]",118898.29999999702,1669829500526,turkey sandwich,apple slices,7.53,4.6000000000000005,-2.9299999999999997,turkey sandwich,748.4000000059605,748,748.5,True,u,120157.70000000298,1259.4000000059605,1669829501785,1259,HRV,HRV_0042,2022-11-30 17:34:17
76,"[{'imgObject': {}, 'id': 'raisin bran w milk', 'src': '/static/foodstim60/raisin bran w milk.jpg', 'key': 'u', 'origWidth': 411, 'origHeight': 411, 'width': 411, 'height': 411, 'widthPercent': 0.45, 'rescaleHeight': False, 'trialN': 76, 'loaded': True, 'loadedTime': 2835.2000000029802, 'positionName': 'LEFT', 'positionCoords': [572.04, 370.5], 'bid': 0.15}, {'imgObject': {}, 'id': 'eggsalad', 'src': '/static/foodstim60/eggsalad.jpg', 'key': 'i', 'origWidth': 410, 'origHeight': 409, 'width': 410, 'height': 409, 'widthPercent': 0.45, 'rescaleHeight': False, 'trialN': 76, 'loaded': True, 'loadedTime': 3017, 'positionName': 'RIGHT', 'positionCoords': [1064.96, 371.5], 'bid': 1.87}]",120157.70000000298,1669829501785,raisin bran w milk,eggsalad,0.15,1.87,1.7200000000000002,eggsalad,816.4000000059605,817,816.5999999940395,True,i,121487.90000000596,1330.2000000029802,1669829503115,1330,HRV,HRV_0042,2022-11-30 17:34:17
77,"[{'imgObject': {}, 'id': 'fruitsalad', 'src': '/static/foodstim60/fruitsalad.jpg', 'key': 'u', 'origWidth': 410, 'origHeight': 410, 'width': 410, 'height': 410, 'widthPercent': 0.45, 'rescaleHeight': False, 'trialN': 77, 'loaded': True, 'loadedTime': 2913.2999999970198, 'positionName': 'LEFT', 'positionCoords': [573.04, 371], 'bid': 4.99}, {'imgObject': {}, 'id': 'blueberries', 'src': '/static/foodstim60/blueberries.jpg', 'key': 'i', 'origWidth': 411, 'origHeight': 411, 'width': 411, 'height': 411, 'widthPercent': 0.45, 'rescaleHeight': False, 'trialN': 77, 'loaded': True, 'loadedTime': 2916.6000000089407, 'positionName': 'RIGHT', 'positionCoords': [1064.96, 370.5], 'bid': 5.03}]",121487.90000000596,1669829503115,fruitsalad,blueberries,4.99,5.03,0.040000000000000036,blueberries,791.7000000029802,792,791.8999999910593,True,i,122789.29999999702,1301.3999999910593,1669829504417,1302,HRV,HRV_0042,2022-11-30 17:34:17
78,"[{'imgObject': {}, 'id': 'blueberries', 'src': '/static/foodstim60/blueberries.jpg', 'key': 'u', 'origWidth': 411, 'origHeight': 411, 'width': 411, 'height': 411, 'widthPercent': 0.45, 'rescaleHeight': False, 'trialN': 78, 'loaded': True, 'loadedTime': 2916.6000000089407, 'positionName': 'LEFT', 'positionCoords': [572.04, 370.5], 'bid': 5.03}, {'imgObject': {}, 'id': 'ice cream sundae 002', 'src': '/static/foodstim60/ice cream sundae 002.jpg', 'key': 'i', 'origWidth': 409, 'origHeight': 409, 'width': 409, 'height': 409, 'widthPercent': 0.45, 'rescaleHeight': False, 'trialN': 78, 'loaded': True, 'loadedTime': 2937.5, 'positionName': 'RIGHT', 'positionCoords': [1064.96, 371.5], 'bid': 2.07}]",122789.29999999702,1669829504417,blueberries,ice cream sundae 002,5.03,2.07,-2.9600000000000004,blueberries,862.4000000059605,862,862.6000000089407,True,u,124167.40000000596,1378.1000000089407,1669829505795,1378,HRV,HRV_0042,2022-11-30 17:34:17
79,"[{'imgObject': {}, 'id': 'cherries', 'src': '/static/foodstim60/cherries.jpg', 'key': 'u', 'origWidth': 410, 'origHeight': 411, 'width': 410, 'height': 411, 'widthPercent': 0.45, 'rescaleHeight': False, 'trialN': 79, 'loaded': True, 'loadedTime': 2857.6000000089407, 'positionName': 'LEFT', 'positionCoords': [573.04, 370.5], 'bid': 5.3100000000000005}, {'imgObject': {}, 'id': 'mac & cheese', 'src': '/static/foodstim60/mac & cheese.jpg', 'key': 'i', 'origWidth': 410, 'origHeight': 410, 'width': 410, 'height': 410, 'widthPercent': 0.45, 'rescaleHeight': False, 'trialN': 79, 'loaded': True, 'loadedTime': 2923.2999999970198, 'positionName': 'RIGHT', 'positionCoords': [1064.96, 371], 'bid': 5.5200000000000005}]",124167.5,1669829505795,cherries,mac & cheese,5.3100000000000005,5.5200000000000005,0.20999999999999996,cherries,654.4000000059605,655,654.7000000029802,True,u,125325.79999999702,1158.2999999970198,1669829506953,1158,HRV,HRV_0042,2022-11-30 17:34:17
80,"[{'imgObject': {}, 'id': 'baked potato', 'src': '/static/foodstim60/baked potato.jpg', 'key': 'u', 'origWidth': 409, 'origHeight': 410, 'width': 409, 'height': 410, 'widthPercent': 0.45, 'rescaleHeight': False, 'trialN': 80, 'loaded': True, 'loadedTime': 2919.2000000029802, 'positionName': 'LEFT', 'positionCoords': [574.04, 371], 'bid': 5.17}, {'imgObject': {}, 'id': 'Grapes', 'src': '/static/foodstim60/Grapes.jpg', 'key': 'i', 'origWidth': 411, 'origHeight': 411, 'width': 411, 'height': 411, 'widthPercent': 0.45, 'rescaleHeight': False, 'trialN': 80, 'loaded': True, 'loadedTime': 3048.6000000089407, 'positionName': 'RIGHT', 'positionCoords': [1064.96, 370.5], 'bid': 5.15}]",125325.90000000596,1669829506953,baked potato,Grapes,5.17,5.15,-0.019999999999999574,Grapes,1048.2999999970198,1049,1048.5999999940395,True,i,126888.5,1562.5999999940395,1669829508516,1563,HRV,HRV_0042,2022-11-30 17:34:17
81,"[{'imgObject': {}, 'id': 'eggs', 'src': '/static/foodstim60/eggs.jpg', 'key': 'u', 'origWidth': 409, 'origHeight': 409, 'width': 409, 'height': 409, 'widthPercent': 0.45, 'rescaleHeight': False, 'trialN': 81, 'loaded': True, 'loadedTime': 3013.9000000059605, 'positionName': 'LEFT', 'positionCoords': [574.04, 371.5], 'bid': 4.8500000000000005}, {'imgObject': {}, 'id': 'lox', 'src': '/static/foodstim60/lox.jpg', 'key': 'i', 'origWidth': 410, 'origHeight': 411, 'width': 410, 'height': 411, 'widthPercent': 0.45, 'rescaleHeight': False, 'trialN': 81, 'loaded': True, 'loadedTime': 3010.9000000059605, 'positionName': 'RIGHT', 'positionCoords': [1064.96, 370.5], 'bid': 7.66}]",126888.60000000894,1669829508516,eggs,lox,4.8500000000000005,7.66,2.8099999999999996,eggs,970.5999999940395,971,970.7999999970198,True,u,128378.0,1489.3999999910593,1669829510005,1489,HRV,HRV_0042,2022-11-30 17:34:17
82,"[{'imgObject': {}, 'id': 'granola w milk', 'src': '/static/foodstim60/granola w milk.jpg', 'key': 'u', 'origWidth': 410, 'origHeight': 410, 'width': 410, 'height': 410, 'widthPercent': 0.45, 'rescaleHeight': False, 'trialN': 82, 'loaded': True, 'loadedTime': 2937.7000000029802, 'positionName': 'LEFT', 'positionCoords': [573.04, 371], 'bid': 0.11}, {'imgObject': {}, 'id': 'baked potato', 'src': '/static/foodstim60/baked potato.jpg', 'key': 'i', 'origWidth': 409, 'origHeight': 410, 'width': 409, 'height': 410, 'widthPercent': 0.45, 'rescaleHeight': False, 'trialN': 82, 'loaded': True, 'loadedTime': 2919.6000000089407, 'positionName': 'RIGHT', 'positionCoords': [1064.96, 371], 'bid': 5.17}]",128378.10000000894,1669829510006,granola w milk,baked potato,0.11,5.17,5.06,baked potato,1236.2999999970198,1236,1236.5,True,i,130133.79999999702,1755.699999988079,1669829511761,1755,HRV,HRV_0042,2022-11-30 17:34:17
83,"[{'imgObject': {}, 'id': 'veggieswithdip', 'src': '/static/foodstim60/veggieswithdip.jpg', 'key': 'u', 'origWidth': 409, 'origHeight': 409, 'width': 409, 'height': 409, 'widthPercent': 0.45, 'rescaleHeight': False, 'trialN': 83, 'loaded': True, 'loadedTime': 3056.1000000089407, 'positionName': 'LEFT', 'positionCoords': [574.04, 371.5], 'bid': 6.21}, {'imgObject': {}, 'id': 'tacos', 'src': '/static/foodstim60/tacos.jpg', 'key': 'i', 'origWidth': 411, 'origHeight': 411, 'width': 411, 'height': 411, 'widthPercent': 0.45, 'rescaleHeight': False, 'trialN': 83, 'loaded': True, 'loadedTime': 3037.5, 'positionName': 'RIGHT', 'positionCoords': [1064.96, 370.5], 'bid': 6.44}]",130133.90000000596,1669829511761,veggieswithdip,tacos,6.21,6.44,0.23000000000000043,veggieswithdip,1100.2000000029802,1101,1100.3999999910593,True,u,131742.29999999702,1608.3999999910593,1669829513370,1609,HRV,HRV_0042,2022-11-30 17:34:17
84,"[{'imgObject': {}, 'id': 'burger', 'src': '/static/foodstim60/burger.jpg', 'key': 'u', 'origWidth': 409, 'origHeight': 409, 'width': 409, 'height': 409, 'widthPercent': 0.45, 'rescaleHeight': False, 'trialN': 84, 'loaded': True, 'loadedTime': 3047.6000000089407, 'positionName': 'LEFT', 'positionCoords': [574.04, 371.5], 'bid': 6.62}, {'imgObject': {}, 'id': 'steak', 'src': '/static/foodstim60/steak.jpg', 'key': 'i', 'origWidth': 410, 'origHeight': 410, 'width': 410, 'height': 410, 'widthPercent': 0.45, 'rescaleHeight': False, 'trialN': 84, 'loaded': True, 'loadedTime': 3052.2000000029802, 'positionName': 'RIGHT', 'positionCoords': [1064.96, 371], 'bid': 9.68}]",131742.40000000596,1669829513370,burger,steak,6.62,9.68,3.0599999999999996,steak,706.8999999910593,707,707.0999999940395,True,i,132957.79999999702,1215.3999999910593,1669829514585,1215,HRV,HRV_0042,2022-11-30 17:34:17
85,"[{'imgObject': {}, 'id': 'fried eggs', 'src': '/static/foodstim60/fried eggs.jpg', 'key': 'u', 'origWidth': 410, 'origHeight': 410, 'width': 410, 'height': 410, 'widthPercent': 0.45, 'rescaleHeight': False, 'trialN': 85, 'loaded': True, 'loadedTime': 2924, 'positionName': 'LEFT', 'positionCoords': [573.04, 371], 'bid': 5.82}, {'imgObject': {}, 'id': 'raspberries', 'src': '/static/foodstim60/raspberries.jpg', 'key': 'i', 'origWidth': 411, 'origHeight': 411, 'width': 411, 'height': 411, 'widthPercent': 0.45, 'rescaleHeight': False, 'trialN': 85, 'loaded': True, 'loadedTime': 2917.4000000059605, 'positionName': 'RIGHT', 'positionCoords': [1064.96, 370.5], 'bid': 4.91}]",132958.0,1669829514585,fried eggs,raspberries,5.82,4.91,-0.9100000000000001,fried eggs,683.7000000029802,684,683.9000000059605,True,u,134150.70000000298,1192.7000000029802,1669829515778,1193,HRV,HRV_0042,2022-11-30 17:34:17
86,"[{'imgObject': {}, 'id': 'edamame', 'src': '/static/foodstim60/edamame.jpg', 'key': 'u', 'origWidth': 409, 'origHeight': 410, 'width': 409, 'height': 410, 'widthPercent': 0.45, 'rescaleHeight': False, 'trialN': 86, 'loaded': True, 'loadedTime': 3015, 'positionName': 'LEFT', 'positionCoords': [574.04, 371], 'bid': 1.01}, {'imgObject': {}, 'id': 'raspberries', 'src': '/static/foodstim60/raspberries.jpg', 'key': 'i', 'origWidth': 411, 'origHeight': 411, 'width': 411, 'height': 411, 'widthPercent': 0.45, 'rescaleHeight': False, 'trialN': 86, 'loaded': True, 'loadedTime': 2917.2999999970198, 'positionName': 'RIGHT', 'positionCoords': [1064.96, 370.5], 'bid': 4.91}]",134150.90000000596,1669829515778,edamame,raspberries,1.01,4.91,3.9000000000000004,raspberries,2861,2862,2861.2999999970198,True,i,137517.40000000596,3366.5,1669829519145,3367,HRV,HRV_0042,2022-11-30 17:34:17
87,"[{'imgObject': {}, 'id': 'popsicles', 'src': '/static/foodstim60/popsicles.jpg', 'key': 'u', 'origWidth': 410, 'origHeight': 410, 'width': 410, 'height': 410, 'widthPercent': 0.45, 'rescaleHeight': False, 'trialN': 87, 'loaded': True, 'loadedTime': 2859.7000000029802, 'positionName': 'LEFT', 'positionCoords': [573.04, 371], 'bid': 7.2}, {'imgObject': {}, 'id': 'sushi w_condiments', 'src': '/static/foodstim60/sushi w_condiments.jpg', 'key': 'i', 'origWidth': 410, 'origHeight': 410, 'width': 410, 'height': 410, 'widthPercent': 0.45, 'rescaleHeight': False, 'trialN': 87, 'loaded': True, 'loadedTime': 3056.7999999970198, 'positionName': 'RIGHT', 'positionCoords': [1064.96, 371], 'bid': 8.24}]",137517.5,1669829519145,popsicles,sushi w_condiments,7.2,8.24,1.04,sushi w_condiments,916.7000000029802,917,916.9000000059605,True,i,138939.40000000596,1421.9000000059605,1669829520567,1422,HRV,HRV_0042,2022-11-30 17:34:17
88,"[{'imgObject': {}, 'id': 'roastedpotatoes', 'src': '/static/foodstim60/roastedpotatoes.jpg', 'key': 'u', 'origWidth': 409, 'origHeight': 410, 'width': 409, 'height': 410, 'widthPercent': 0.45, 'rescaleHeight': False, 'trialN': 88, 'loaded': True, 'loadedTime': 2951.7999999970198, 'positionName': 'LEFT', 'positionCoords': [574.04, 371], 'bid': 4.0600000000000005}, {'imgObject': {}, 'id': 'shreddedwheatwithmilk', 'src': '/static/foodstim60/shreddedwheatwithmilk.jpg', 'key': 'i', 'origWidth': 410, 'origHeight': 410, 'width': 410, 'height': 410, 'widthPercent': 0.45, 'rescaleHeight': False, 'trialN': 88, 'loaded': True, 'loadedTime': 2989.6000000089407, 'positionName': 'RIGHT', 'positionCoords': [1064.96, 371], 'bid': 0.22}]",138939.5,1669829520567,roastedpotatoes,shreddedwheatwithmilk,4.0600000000000005,0.22,-3.8400000000000003,roastedpotatoes,1160,1160,1160.2000000029802,True,u,140609.90000000596,1670.4000000059605,1669829522237,1670,HRV,HRV_0042,2022-11-30 17:34:17
89,"[{'imgObject': {}, 'id': 'fruitsalad', 'src': '/static/foodstim60/fruitsalad.jpg', 'key': 'u', 'origWidth': 410, 'origHeight': 410, 'width': 410, 'height': 410, 'widthPercent': 0.45, 'rescaleHeight': False, 'trialN': 89, 'loaded': True, 'loadedTime': 2912.1000000089407, 'positionName': 'LEFT', 'positionCoords': [573.04, 371], 'bid': 4.99}, {'imgObject': {}, 'id': 'steak', 'src': '/static/foodstim60/steak.jpg', 'key': 'i', 'origWidth': 410, 'origHeight': 410, 'width': 410, 'height': 410, 'widthPercent': 0.45, 'rescaleHeight': False, 'trialN': 89, 'loaded': True, 'loadedTime': 3052.2999999970198, 'positionName': 'RIGHT', 'positionCoords': [1064.96, 371], 'bid': 9.68}]",140610.0,1669829522237,fruitsalad,steak,4.99,9.68,4.6899999999999995,steak,569.2000000029802,570,569.4000000059605,True,i,141697.40000000596,1087.4000000059605,1669829523325,1088,HRV,HRV_0042,2022-11-30 17:34:17
90,"[{'imgObject': {}, 'id': 'sweetpotato', 'src': '/static/foodstim60/sweetpotato.jpg', 'key': 'u', 'origWidth': 410, 'origHeight': 410, 'width': 410, 'height': 410, 'widthPercent': 0.45, 'rescaleHeight': False, 'trialN': 90, 'loaded': True, 'loadedTime': 2973.9000000059605, 'positionName': 'LEFT', 'positionCoords': [573.04, 371], 'bid': 0.17}, {'imgObject': {}, 'id': 'fried eggs', 'src': '/static/foodstim60/fried eggs.jpg', 'key': 'i', 'origWidth': 410, 'origHeight': 410, 'width': 410, 'height': 410, 'widthPercent': 0.45, 'rescaleHeight': False, 'trialN': 90, 'loaded': True, 'loadedTime': 2923.5, 'positionName': 'RIGHT', 'positionCoords': [1064.96, 371], 'bid': 5.82}]",144255.29999999702,1669829525883,sweetpotato,fried eggs,0.17,5.82,5.65,fried eggs,991.4000000059605,991,991.5,True,i,145757.70000000298,1502.4000000059605,1669829527385,1502,HRV,HRV_0042,2022-11-30 17:34:17
91,"[{'imgObject': {}, 'id': 'sushi w_condiments', 'src': '/static/foodstim60/sushi w_condiments.jpg', 'key': 'u', 'origWidth': 410, 'origHeight': 410, 'width': 410, 'height': 410, 'widthPercent': 0.45, 'rescaleHeight': False, 'trialN': 91, 'loaded': True, 'loadedTime': 3056.7000000029802, 'positionName': 'LEFT', 'positionCoords': [573.04, 371], 'bid': 8.24}, {'imgObject': {}, 'id': 'chickenfingers', 'src': '/static/foodstim60/chickenfingers.jpg', 'key': 'i', 'origWidth': 410, 'origHeight': 410, 'width': 410, 'height': 410, 'widthPercent': 0.45, 'rescaleHeight': False, 'trialN': 91, 'loaded': True, 'loadedTime': 2920.6000000089407, 'positionName': 'RIGHT', 'positionCoords': [1064.96, 371], 'bid': 8.42}]",145757.79999999702,1669829527385,sushi w_condiments,chickenfingers,8.24,8.42,0.17999999999999972,chickenfingers,753.9000000059605,754,754.1000000089407,True,i,147030.0,1272.2000000029802,1669829528657,1272,HRV,HRV_0042,2022-11-30 17:34:17
92,"[{'imgObject': {}, 'id': 'burger', 'src': '/static/foodstim60/burger.jpg', 'key': 'u', 'origWidth': 409, 'origHeight': 409, 'width': 409, 'height': 409, 'widthPercent': 0.45, 'rescaleHeight': False, 'trialN': 92, 'loaded': True, 'loadedTime': 3047.9000000059605, 'positionName': 'LEFT', 'positionCoords': [574.04, 371.5], 'bid': 6.62}, {'imgObject': {}, 'id': 'banana', 'src': '/static/foodstim60/banana.jpg', 'key': 'i', 'origWidth': 410, 'origHeight': 410, 'width': 410, 'height': 410, 'widthPercent': 0.45, 'rescaleHeight': False, 'trialN': 92, 'loaded': True, 'loadedTime': 2926.7000000029802, 'positionName': 'RIGHT', 'positionCoords': [1064.96, 371], 'bid': 6.5200000000000005}]",147030.10000000894,1669829528658,burger,banana,6.62,6.5200000000000005,-0.09999999999999964,burger,629,629,629.2999999970198,True,u,148163.29999999702,1133.199999988079,1669829529791,1133,HRV,HRV_0042,2022-11-30 17:34:17
93,"[{'imgObject': {}, 'id': 'hashbrowns', 'src': '/static/foodstim60/hashbrowns.jpg', 'key': 'u', 'origWidth': 411, 'origHeight': 410, 'width': 411, 'height': 410, 'widthPercent': 0.45, 'rescaleHeight': False, 'trialN': 93, 'loaded': True, 'loadedTime': 3028, 'positionName': 'LEFT', 'positionCoords': [572.04, 371], 'bid': 0.2}, {'imgObject': {}, 'id': 'seaweed', 'src': '/static/foodstim60/seaweed.jpg', 'key': 'i', 'origWidth': 410, 'origHeight': 410, 'width': 410, 'height': 410, 'widthPercent': 0.45, 'rescaleHeight': False, 'trialN': 93, 'loaded': True, 'loadedTime': 3049.2999999970198, 'positionName': 'RIGHT', 'positionCoords': [1064.96, 371], 'bid': 0.16}]",148163.40000000596,1669829529791,hashbrowns,seaweed,0.2,0.16,-0.04000000000000001,seaweed,1160.7999999970198,1161,1160.8999999910593,True,i,149835.40000000596,1672.0,1669829531463,1672,HRV,HRV_0042,2022-11-30 17:34:17
94,"[{'imgObject': {}, 'id': 'luckycharms', 'src': '/static/foodstim60/luckycharms.jpg', 'key': 'u', 'origWidth': 410, 'origHeight': 409, 'width': 410, 'height': 409, 'widthPercent': 0.45, 'rescaleHeight': False, 'trialN': 94, 'loaded': True, 'loadedTime': 3015.1000000089407, 'positionName': 'LEFT', 'positionCoords': [573.04, 371.5], 'bid': 0.84}, {'imgObject': {}, 'id': 'tacos', 'src': '/static/foodstim60/tacos.jpg', 'key': 'i', 'origWidth': 411, 'origHeight': 411, 'width': 411, 'height': 411, 'widthPercent': 0.45, 'rescaleHeight': False, 'trialN': 94, 'loaded': True, 'loadedTime': 3037.5, 'positionName': 'RIGHT', 'positionCoords': [1064.96, 370.5], 'bid': 6.44}]",149835.60000000894,1669829531463,luckycharms,tacos,0.84,6.44,5.6000000000000005,tacos,636.2999999970198,636,636.3999999910593,True,i,150992.79999999702,1157.199999988079,1669829532620,1157,HRV,HRV_0042,2022-11-30 17:34:17
95,"[{'imgObject': {}, 'id': 'blackbeanswithrice', 'src': '/static/foodstim60/blackbeanswithrice.jpg', 'key': 'u', 'origWidth': 410, 'origHeight': 410, 'width': 410, 'height': 410, 'widthPercent': 0.45, 'rescaleHeight': False, 'trialN': 95, 'loaded': True, 'loadedTime': 2967.4000000059605, 'positionName': 'LEFT', 'positionCoords': [573.04, 371], 'bid': 1.04}, {'imgObject': {}, 'id': 'banana', 'src': '/static/foodstim60/banana.jpg', 'key': 'i', 'origWidth': 410, 'origHeight': 410, 'width': 410, 'height': 410, 'widthPercent': 0.45, 'rescaleHeight': False, 'trialN': 95, 'loaded': True, 'loadedTime': 2926.7999999970198, 'positionName': 'RIGHT', 'positionCoords': [1064.96, 371], 'bid': 6.5200000000000005}]",150992.90000000596,1669829532620,blackbeanswithrice,banana,1.04,6.5200000000000005,5.48,blackbeanswithrice,671.2000000029802,672,671.3999999910593,True,u,152179.29999999702,1186.3999999910593,1669829533807,1187,HRV,HRV_0042,2022-11-30 17:34:17
96,"[{'imgObject': {}, 'id': 'rigatoni', 'src': '/static/foodstim60/rigatoni.jpg', 'key': 'u', 'origWidth': 411, 'origHeight': 411, 'width': 411, 'height': 411, 'widthPercent': 0.45, 'rescaleHeight': False, 'trialN': 96, 'loaded': True, 'loadedTime': 3052.2999999970198, 'positionName': 'LEFT', 'positionCoords': [572.04, 370.5], 'bid': 0.15}, {'imgObject': {}, 'id': 'granola w milk', 'src': '/static/foodstim60/granola w milk.jpg', 'key': 'i', 'origWidth': 410, 'origHeight': 410, 'width': 410, 'height': 410, 'widthPercent': 0.45, 'rescaleHeight': False, 'trialN': 96, 'loaded': True, 'loadedTime': 2938.2000000029802, 'positionName': 'RIGHT', 'positionCoords': [1064.96, 371], 'bid': 0.11}]",152179.40000000596,1669829533807,rigatoni,granola w milk,0.15,0.11,-0.039999999999999994,rigatoni,677.0999999940395,677,677.2000000029802,True,u,153366.79999999702,1187.3999999910593,1669829534994,1187,HRV,HRV_0042,2022-11-30 17:34:17
97,"[{'imgObject': {}, 'id': 'chickenfingers', 'src': '/static/foodstim60/chickenfingers.jpg', 'key': 'u', 'origWidth': 410, 'origHeight': 410, 'width': 410, 'height': 410, 'widthPercent': 0.45, 'rescaleHeight': False, 'trialN': 97, 'loaded': True, 'loadedTime': 2921.1000000089407, 'positionName': 'LEFT', 'positionCoords': [573.04, 371], 'bid': 8.42}, {'imgObject': {}, 'id': 'lox', 'src': '/static/foodstim60/lox.jpg', 'key': 'i', 'origWidth': 410, 'origHeight': 411, 'width': 410, 'height': 411, 'widthPercent': 0.45, 'rescaleHeight': False, 'trialN': 97, 'loaded': True, 'loadedTime': 3011.4000000059605, 'positionName': 'RIGHT', 'positionCoords': [1064.96, 370.5], 'bid': 7.66}]",153367.0,1669829534994,chickenfingers,lox,8.42,7.66,-0.7599999999999998,chickenfingers,637.2000000029802,638,637.4000000059605,True,u,154516.60000000894,1149.6000000089407,1669829536144,1150,HRV,HRV_0042,2022-11-30 17:34:17
98,"[{'imgObject': {}, 'id': 'pear', 'src': '/static/foodstim60/pear.jpg', 'key': 'u', 'origWidth': 411, 'origHeight': 410, 'width': 411, 'height': 410, 'widthPercent': 0.45, 'rescaleHeight': False, 'trialN': 98, 'loaded': True, 'loadedTime': 2922.6000000089407, 'positionName': 'LEFT', 'positionCoords': [572.04, 371], 'bid': 4.57}, {'imgObject': {}, 'id': 'popsicles', 'src': '/static/foodstim60/popsicles.jpg', 'key': 'i', 'origWidth': 410, 'origHeight': 410, 'width': 410, 'height': 410, 'widthPercent': 0.45, 'rescaleHeight': False, 'trialN': 98, 'loaded': True, 'loadedTime': 2861.2999999970198, 'positionName': 'RIGHT', 'positionCoords': [1064.96, 371], 'bid': 7.2}]",154516.70000000298,1669829536144,pear,popsicles,4.57,7.2,2.63,popsicles,1017.2999999970198,1028,1017.5,True,i,156043.29999999702,1526.5999999940395,1669829537681,1537,HRV,HRV_0042,2022-11-30 17:34:17
99,"[{'imgObject': {}, 'id': 'eggsalad', 'src': '/static/foodstim60/eggsalad.jpg', 'key': 'u', 'origWidth': 410, 'origHeight': 409, 'width': 410, 'height': 409, 'widthPercent': 0.45, 'rescaleHeight': False, 'trialN': 99, 'loaded': True, 'loadedTime': 3016.7000000029802, 'positionName': 'LEFT', 'positionCoords': [573.04, 371.5], 'bid': 1.87}, {'imgObject': {}, 'id': 'olives', 'src': '/static/foodstim60/olives.jpg', 'key': 'i', 'origWidth': 410, 'origHeight': 410, 'width': 410, 'height': 410, 'widthPercent': 0.45, 'rescaleHeight': False, 'trialN': 99, 'loaded': True, 'loadedTime': 3037.6000000089407, 'positionName': 'RIGHT', 'positionCoords': [1064.96, 371], 'bid': 4.99}]",156043.40000000596,1669829537681,eggsalad,olives,1.87,4.99,3.12,olives,863.3999999910593,864,863.5,True,i,157421.0,1377.5999999940395,1669829539059,1378,HRV,HRV_0042,2022-11-30 17:34:17
100,"[{'imgObject': {}, 'id': 'veggieswithdip', 'src': '/static/foodstim60/veggieswithdip.jpg', 'key': 'u', 'origWidth': 409, 'origHeight': 409, 'width': 409, 'height': 409, 'widthPercent': 0.45, 'rescaleHeight': False, 'trialN': 100, 'loaded': True, 'loadedTime': 3056.1000000089407, 'positionName': 'LEFT', 'positionCoords': [574.04, 371.5], 'bid': 6.21}, {'imgObject': {}, 'id': 'burger', 'src': '/static/foodstim60/burger.jpg', 'key': 'i', 'origWidth': 409, 'origHeight': 409, 'width': 409, 'height': 409, 'widthPercent': 0.45, 'rescaleHeight': False, 'trialN': 100, 'loaded': True, 'loadedTime': 3046.9000000059605, 'positionName': 'RIGHT', 'positionCoords': [1064.96, 371.5], 'bid': 6.62}]",157421.10000000894,1669829539059,veggieswithdip,burger,6.21,6.62,0.41000000000000014,veggieswithdip,722.8999999910593,723,723.1999999880791,True,u,158652.0,1230.8999999910593,1669829540290,1231,HRV,HRV_0042,2022-11-30 17:34:17
101,"[{'imgObject': {}, 'id': 'salad w chicken', 'src': '/static/foodstim60/salad w chicken.jpg', 'key': 'u', 'origWidth': 411, 'origHeight': 411, 'width': 411, 'height': 411, 'widthPercent': 0.45, 'rescaleHeight': False, 'trialN': 101, 'loaded': True, 'loadedTime': 3020.9000000059605, 'positionName': 'LEFT', 'positionCoords': [572.04, 370.5], 'bid': 6.59}, {'imgObject': {}, 'id': 'avocado', 'src': '/static/foodstim60/avocado.jpg', 'key': 'i', 'origWidth': 409, 'origHeight': 409, 'width': 409, 'height': 409, 'widthPercent': 0.45, 'rescaleHeight': False, 'trialN': 101, 'loaded': True, 'loadedTime': 2925.2999999970198, 'positionName': 'RIGHT', 'positionCoords': [1064.96, 371.5], 'bid': 5.86}]",158652.10000000894,1669829540290,salad w chicken,avocado,6.59,5.86,-0.7299999999999995,salad w chicken,1494.5,1495,1494.5999999940395,True,u,160653.40000000596,2001.2999999970198,1669829542291,2001,HRV,HRV_0042,2022-11-30 17:34:17
102,"[{'imgObject': {}, 'id': 'froot loops w milk', 'src': '/static/foodstim60/froot loops w milk.jpg', 'key': 'u', 'origWidth': 410, 'origHeight': 410, 'width': 410, 'height': 410, 'widthPercent': 0.45, 'rescaleHeight': False, 'trialN': 102, 'loaded': True, 'loadedTime': 2921.7999999970198, 'positionName': 'LEFT', 'positionCoords': [573.04, 371], 'bid': 0.41}, {'imgObject': {}, 'id': 'raisin bran w milk', 'src': '/static/foodstim60/raisin bran w milk.jpg', 'key': 'i', 'origWidth': 411, 'origHeight': 411, 'width': 411, 'height': 411, 'widthPercent': 0.45, 'rescaleHeight': False, 'trialN': 102, 'loaded': True, 'loadedTime': 2846.1000000089407, 'positionName': 'RIGHT', 'positionCoords': [1064.96, 370.5], 'bid': 0.15}]",160653.5,1669829542291,froot loops w milk,raisin bran w milk,0.41,0.15,-0.26,froot loops w milk,1113.1000000089407,1114,1113.2000000029802,True,u,162286.90000000596,1633.4000000059605,1669829543925,1634,HRV,HRV_0042,2022-11-30 17:34:17
103,"[{'imgObject': {}, 'id': 'cheerios', 'src': '/static/foodstim60/cheerios.jpg', 'key': 'u', 'origWidth': 409, 'origHeight': 410, 'width': 409, 'height': 410, 'widthPercent': 0.45, 'rescaleHeight': False, 'trialN': 103, 'loaded': True, 'loadedTime': 2871.7999999970198, 'positionName': 'LEFT', 'positionCoords': [574.04, 371], 'bid': 0.08}, {'imgObject': {}, 'id': 'yogurt no spoon', 'src': '/static/foodstim60/yogurt no spoon.jpg', 'key': 'i', 'origWidth': 411, 'origHeight': 410, 'width': 411, 'height': 410, 'widthPercent': 0.45, 'rescaleHeight': False, 'trialN': 103, 'loaded': True, 'loadedTime': 3054.7000000029802, 'positionName': 'RIGHT', 'positionCoords': [1064.96, 371], 'bid': 3.63}]",162286.90000000596,1669829543925,cheerios,yogurt no spoon,0.08,3.63,3.55,cheerios,694.5999999940395,695,694.7000000029802,True,u,163496.10000000894,1209.2000000029802,1669829545134,1209,HRV,HRV_0042,2022-11-30 17:34:17
104,"[{'imgObject': {}, 'id': 'pear', 'src': '/static/foodstim60/pear.jpg', 'key': 'u', 'origWidth': 411, 'origHeight': 410, 'width': 411, 'height': 410, 'widthPercent': 0.45, 'rescaleHeight': False, 'trialN': 104, 'loaded': True, 'loadedTime': 2922.4000000059605, 'positionName': 'LEFT', 'positionCoords': [572.04, 371], 'bid': 4.57}, {'imgObject': {}, 'id': 'rigatoni', 'src': '/static/foodstim60/rigatoni.jpg', 'key': 'i', 'origWidth': 411, 'origHeight': 411, 'width': 411, 'height': 411, 'widthPercent': 0.45, 'rescaleHeight': False, 'trialN': 104, 'loaded': True, 'loadedTime': 3053.2999999970198, 'positionName': 'RIGHT', 'positionCoords': [1064.96, 370.5], 'bid': 0.15}]",163496.20000000298,1669829545134,pear,rigatoni,4.57,0.15,-4.42,rigatoni,700.2000000029802,701,700.4000000059605,True,i,164699.40000000596,1203.2000000029802,1669829546337,1203,HRV,HRV_0042,2022-11-30 17:34:17
105,"[{'imgObject': {}, 'id': 'veggieswithdip', 'src': '/static/foodstim60/veggieswithdip.jpg', 'key': 'u', 'origWidth': 409, 'origHeight': 409, 'width': 409, 'height': 409, 'widthPercent': 0.45, 'rescaleHeight': False, 'trialN': 105, 'loaded': True, 'loadedTime': 3056, 'positionName': 'LEFT', 'positionCoords': [574.04, 371.5], 'bid': 6.21}, {'imgObject': {}, 'id': 'chicken nuggets2', 'src': '/static/foodstim60/chicken nuggets2.jpg', 'key': 'i', 'origWidth': 410, 'origHeight': 409, 'width': 410, 'height': 409, 'widthPercent': 0.45, 'rescaleHeight': False, 'trialN': 105, 'loaded': True, 'loadedTime': 2989.7999999970198, 'positionName': 'RIGHT', 'positionCoords': [1064.96, 371.5], 'bid': 7.57}]",164699.5,1669829546337,veggieswithdip,chicken nuggets2,6.21,7.57,1.3600000000000003,veggieswithdip,690,691,690.2999999970198,True,u,165895.0,1195.5,1669829547533,1196,HRV,HRV_0042,2022-11-30 17:34:17
106,"[{'imgObject': {}, 'id': 'corn cob', 'src': '/static/foodstim60/corn cob.jpg', 'key': 'u', 'origWidth': 411, 'origHeight': 411, 'width': 411, 'height': 411, 'widthPercent': 0.45, 'rescaleHeight': False, 'trialN': 106, 'loaded': True, 'loadedTime': 2910.1000000089407, 'positionName': 'LEFT', 'positionCoords': [572.04, 370.5], 'bid': 6.71}, {'imgObject': {}, 'id': 'Grapes', 'src': '/static/foodstim60/Grapes.jpg', 'key': 'i', 'origWidth': 411, 'origHeight': 411, 'width': 411, 'height': 411, 'widthPercent': 0.45, 'rescaleHeight': False, 'trialN': 106, 'loaded': True, 'loadedTime': 3048.5, 'positionName': 'RIGHT', 'positionCoords': [1064.96, 370.5], 'bid': 5.15}]",165895.10000000894,1669829547533,corn cob,Grapes,6.71,5.15,-1.5599999999999996,Grapes,956.8999999910593,957,957.0999999940395,True,i,167364.70000000298,1469.5999999940395,1669829549003,1470,HRV,HRV_0042,2022-11-30 17:34:17
107,"[{'imgObject': {}, 'id': 'tacos', 'src': '/static/foodstim60/tacos.jpg', 'key': 'u', 'origWidth': 411, 'origHeight': 411, 'width': 411, 'height': 411, 'widthPercent': 0.45, 'rescaleHeight': False, 'trialN': 107, 'loaded': True, 'loadedTime': 3037.4000000059605, 'positionName': 'LEFT', 'positionCoords': [572.04, 370.5], 'bid': 6.44}, {'imgObject': {}, 'id': 'corn cob', 'src': '/static/foodstim60/corn cob.jpg', 'key': 'i', 'origWidth': 411, 'origHeight': 411, 'width': 411, 'height': 411, 'widthPercent': 0.45, 'rescaleHeight': False, 'trialN': 107, 'loaded': True, 'loadedTime': 2904, 'positionName': 'RIGHT', 'positionCoords': [1064.96, 370.5], 'bid': 6.71}]",167364.90000000596,1669829549003,tacos,corn cob,6.44,6.71,0.2699999999999996,tacos,1241.5,1241,1241.5999999940395,True,u,169129.70000000298,1764.7999999970198,1669829550768,1765,HRV,HRV_0042,2022-11-30 17:34:17
108,"[{'imgObject': {}, 'id': 'cherry tomato', 'src': '/static/foodstim60/cherry tomato.jpg', 'key': 'u', 'origWidth': 410, 'origHeight': 410, 'width': 410, 'height': 410, 'widthPercent': 0.45, 'rescaleHeight': False, 'trialN': 108, 'loaded': True, 'loadedTime': 3053.9000000059605, 'positionName': 'LEFT', 'positionCoords': [573.04, 371], 'bid': 2.06}, {'imgObject': {}, 'id': 'fruitsalad', 'src': '/static/foodstim60/fruitsalad.jpg', 'key': 'i', 'origWidth': 410, 'origHeight': 410, 'width': 410, 'height': 410, 'widthPercent': 0.45, 'rescaleHeight': False, 'trialN': 108, 'loaded': True, 'loadedTime': 2912.6000000089407, 'positionName': 'RIGHT', 'positionCoords': [1064.96, 371], 'bid': 4.99}]",169129.90000000596,1669829550768,cherry tomato,fruitsalad,2.06,4.99,2.93,cherry tomato,691.5999999940395,692,691.7000000029802,True,u,170328.5,1198.5999999940395,1669829551966,1198,HRV,HRV_0042,2022-11-30 17:34:17
