trialN,stimuli,question,trialStartTime,trialStartTime_UNIX,stimulus1,rt,receivedResponse,rating,trialEndTime,trialDuration,stimulus1Loaded,exp,subjectId,date
0,"[{'imgObject': {}, 'id': 'omelette', 'src': '/static/foodstim60/omelette.jpg', 'key': 'NaN', 'origWidth': 410, 'origHeight': 409, 'width': 410, 'height': 409, 'widthPercent': 0.8, 'rescaleHeight': True, 'trialN': 0, 'loaded': True, 'loadedTime': 2255.3999999910593, 'positionName': 'CENTER', 'positionCoords': [819, 371.5]}]",Rate how much you want to eat this food from 0 (least) to 10 (most).,2261.7000000029802,1669829170676,omelette,1949.2999999970198,True,7.47,4211.0,1949.2999999970198,True,HRV,HRV_0042,2022-11-30 17:27:31
1,"[{'imgObject': {}, 'id': 'rigatoni and sauce', 'src': '/static/foodstim60/rigatoni and sauce.jpg', 'key': 'NaN', 'origWidth': 410, 'origHeight': 411, 'width': 410, 'height': 411, 'widthPercent': 0.8, 'rescaleHeight': True, 'trialN': 1, 'loaded': True, 'loadedTime': 2255.5999999940395, 'positionName': 'CENTER', 'positionCoords': [819, 370.5]}]",Rate how much you want to eat this food from 0 (least) to 10 (most).,4211.70000000298,1669829172626,rigatoni and sauce,1659.2999999970198,True,4.8,5871.0,1659.2999999970198,True,HRV,HRV_0042,2022-11-30 17:27:31
2,"[{'imgObject': {}, 'id': 'kiwi', 'src': '/static/foodstim60/kiwi.jpg', 'key': 'NaN', 'origWidth': 410, 'origHeight': 410, 'width': 410, 'height': 410, 'widthPercent': 0.8, 'rescaleHeight': True, 'trialN': 2, 'loaded': True, 'loadedTime': 2255.7999999970198, 'positionName': 'CENTER', 'positionCoords': [819, 371]}]",Rate how much you want to eat this food from 0 (least) to 10 (most).,5871.899999991059,1669829174286,kiwi,1359.1000000089407,True,5.42,7231.0,1359.1000000089407,True,HRV,HRV_0042,2022-11-30 17:27:31
3,"[{'imgObject': {}, 'id': 'bagel plain', 'src': '/static/foodstim60/bagel plain.jpg', 'key': 'NaN', 'origWidth': 410, 'origHeight': 410, 'width': 410, 'height': 410, 'widthPercent': 0.8, 'rescaleHeight': True, 'trialN': 3, 'loaded': True, 'loadedTime': 2255.7999999970198, 'positionName': 'CENTER', 'positionCoords': [819, 371]}]",Rate how much you want to eat this food from 0 (least) to 10 (most).,7231.70000000298,1669829175646,bagel plain,1147.5,True,6.5,8379.20000000298,1147.5,True,HRV,HRV_0042,2022-11-30 17:27:31
4,"[{'imgObject': {}, 'id': 'blueberries', 'src': '/static/foodstim60/blueberries.jpg', 'key': 'NaN', 'origWidth': 411, 'origHeight': 411, 'width': 411, 'height': 411, 'widthPercent': 0.8, 'rescaleHeight': True, 'trialN': 4, 'loaded': True, 'loadedTime': 2256, 'positionName': 'CENTER', 'positionCoords': [818.5, 370.5]}]",Rate how much you want to eat this food from 0 (least) to 10 (most).,8380.0,1669829176794,blueberries,1101.3999999910593,True,5.03,9481.39999999106,1101.3999999910593,True,HRV,HRV_0042,2022-11-30 17:27:31
5,"[{'imgObject': {}, 'id': 'chicken nuggets2', 'src': '/static/foodstim60/chicken nuggets2.jpg', 'key': 'NaN', 'origWidth': 410, 'origHeight': 409, 'width': 410, 'height': 409, 'widthPercent': 0.8, 'rescaleHeight': True, 'trialN': 5, 'loaded': True, 'loadedTime': 2256, 'positionName': 'CENTER', 'positionCoords': [819, 371.5]}]",Rate how much you want to eat this food from 0 (least) to 10 (most).,9482.20000000298,1669829177896,chicken nuggets2,1332.7999999970198,True,7.57,10815.0,1332.7999999970198,True,HRV,HRV_0042,2022-11-30 17:27:31
6,"[{'imgObject': {}, 'id': 'Tribe humus pita', 'src': '/static/foodstim60/Tribe humus pita.jpg', 'key': 'NaN', 'origWidth': 411, 'origHeight': 411, 'width': 411, 'height': 411, 'widthPercent': 0.8, 'rescaleHeight': True, 'trialN': 6, 'loaded': True, 'loadedTime': 2256.0999999940395, 'positionName': 'CENTER', 'positionCoords': [818.5, 370.5]}]",Rate how much you want to eat this food from 0 (least) to 10 (most).,10815.89999999106,1669829179230,Tribe humus pita,1211.1000000089407,True,6.63,12027.0,1211.1000000089407,True,HRV,HRV_0042,2022-11-30 17:27:31
7,"[{'imgObject': {}, 'id': 'tacos', 'src': '/static/foodstim60/tacos.jpg', 'key': 'NaN', 'origWidth': 411, 'origHeight': 411, 'width': 411, 'height': 411, 'widthPercent': 0.8, 'rescaleHeight': True, 'trialN': 7, 'loaded': True, 'loadedTime': 2256.2000000029802, 'positionName': 'CENTER', 'positionCoords': [818.5, 370.5]}]",Rate how much you want to eat this food from 0 (least) to 10 (most).,12027.70000000298,1669829180442,tacos,2189.3999999910593,True,6.44,14217.09999999404,2189.3999999910593,True,HRV,HRV_0042,2022-11-30 17:27:31
8,"[{'imgObject': {}, 'id': 'salad w chicken', 'src': '/static/foodstim60/salad w chicken.jpg', 'key': 'NaN', 'origWidth': 411, 'origHeight': 411, 'width': 411, 'height': 411, 'widthPercent': 0.8, 'rescaleHeight': True, 'trialN': 8, 'loaded': True, 'loadedTime': 2256.2999999970198, 'positionName': 'CENTER', 'positionCoords': [818.5, 370.5]}]",Rate how much you want to eat this food from 0 (least) to 10 (most).,14217.89999999106,1669829182632,salad w chicken,1183.1000000089407,True,6.59,15401.0,1183.1000000089407,True,HRV,HRV_0042,2022-11-30 17:27:31
9,"[{'imgObject': {}, 'id': 'cheerios', 'src': '/static/foodstim60/cheerios.jpg', 'key': 'NaN', 'origWidth': 409, 'origHeight': 410, 'width': 409, 'height': 410, 'widthPercent': 0.8, 'rescaleHeight': True, 'trialN': 9, 'loaded': True, 'loadedTime': 2256.5, 'positionName': 'CENTER', 'positionCoords': [819.5, 371]}]",Rate how much you want to eat this food from 0 (least) to 10 (most).,15401.70000000298,1669829183816,cheerios,1325.2999999970198,True,0.08,16727.0,1325.2999999970198,True,HRV,HRV_0042,2022-11-30 17:27:31
10,"[{'imgObject': {}, 'id': 'steak', 'src': '/static/foodstim60/steak.jpg', 'key': 'NaN', 'origWidth': 410, 'origHeight': 410, 'width': 410, 'height': 410, 'widthPercent': 0.8, 'rescaleHeight': True, 'trialN': 10, 'loaded': True, 'loadedTime': 2256.5999999940395, 'positionName': 'CENTER', 'positionCoords': [819, 371]}]",Rate how much you want to eat this food from 0 (least) to 10 (most).,16727.79999999702,1669829185142,steak,1497.2999999970198,True,9.68,18225.09999999404,1497.2999999970198,True,HRV,HRV_0042,2022-11-30 17:27:31
11,"[{'imgObject': {}, 'id': 'hashbrowns', 'src': '/static/foodstim60/hashbrowns.jpg', 'key': 'NaN', 'origWidth': 411, 'origHeight': 410, 'width': 411, 'height': 410, 'widthPercent': 0.8, 'rescaleHeight': True, 'trialN': 11, 'loaded': True, 'loadedTime': 2256.5999999940395, 'positionName': 'CENTER', 'positionCoords': [818.5, 371]}]",Rate how much you want to eat this food from 0 (least) to 10 (most).,18225.89999999106,1669829186640,hashbrowns,1811.1000000089407,True,0.2,20037.0,1811.1000000089407,True,HRV,HRV_0042,2022-11-30 17:27:31
12,"[{'imgObject': {}, 'id': 'cantaloupe', 'src': '/static/foodstim60/cantaloupe.jpg', 'key': 'NaN', 'origWidth': 409, 'origHeight': 409, 'width': 409, 'height': 409, 'widthPercent': 0.8, 'rescaleHeight': True, 'trialN': 12, 'loaded': True, 'loadedTime': 2256.7000000029802, 'positionName': 'CENTER', 'positionCoords': [819.5, 371.5]}]",Rate how much you want to eat this food from 0 (least) to 10 (most).,20038.20000000298,1669829188452,cantaloupe,1432.7999999970198,True,4.83,21471.0,1432.7999999970198,True,HRV,HRV_0042,2022-11-30 17:27:31
13,"[{'imgObject': {}, 'id': 'burger', 'src': '/static/foodstim60/burger.jpg', 'key': 'NaN', 'origWidth': 409, 'origHeight': 409, 'width': 409, 'height': 409, 'widthPercent': 0.8, 'rescaleHeight': True, 'trialN': 13, 'loaded': True, 'loadedTime': 2256.7999999970198, 'positionName': 'CENTER', 'positionCoords': [819.5, 371.5]}]",Rate how much you want to eat this food from 0 (least) to 10 (most).,21471.70000000298,1669829189886,burger,1151.8999999910593,True,6.62,22623.59999999404,1151.8999999910593,True,HRV,HRV_0042,2022-11-30 17:27:31
14,"[{'imgObject': {}, 'id': 'grilled chicken strips', 'src': '/static/foodstim60/grilled chicken strips.jpg', 'key': 'NaN', 'origWidth': 410, 'origHeight': 411, 'width': 410, 'height': 411, 'widthPercent': 0.8, 'rescaleHeight': True, 'trialN': 14, 'loaded': True, 'loadedTime': 2257, 'positionName': 'CENTER', 'positionCoords': [819, 370.5]}]",Rate how much you want to eat this food from 0 (least) to 10 (most).,22624.39999999106,1669829191038,grilled chicken strips,1618.800000011921,True,9.73,24243.20000000298,1618.800000011921,True,HRV,HRV_0042,2022-11-30 17:27:31
15,"[{'imgObject': {}, 'id': 'hotdog w must', 'src': '/static/foodstim60/hotdog w must.jpg', 'key': 'NaN', 'origWidth': 409, 'origHeight': 409, 'width': 409, 'height': 409, 'widthPercent': 0.8, 'rescaleHeight': True, 'trialN': 15, 'loaded': True, 'loadedTime': 2257, 'positionName': 'CENTER', 'positionCoords': [819.5, 371.5]}]",Rate how much you want to eat this food from 0 (least) to 10 (most).,24243.79999999702,1669829192658,hotdog w must,1061.2000000029802,True,7.19,25305.0,1061.2000000029802,True,HRV,HRV_0042,2022-11-30 17:27:31
16,"[{'imgObject': {}, 'id': 'lox', 'src': '/static/foodstim60/lox.jpg', 'key': 'NaN', 'origWidth': 410, 'origHeight': 411, 'width': 410, 'height': 411, 'widthPercent': 0.8, 'rescaleHeight': True, 'trialN': 16, 'loaded': True, 'loadedTime': 2257.2000000029802, 'positionName': 'CENTER', 'positionCoords': [819, 370.5]}]",Rate how much you want to eat this food from 0 (least) to 10 (most).,25305.59999999404,1669829193720,lox,1353.4000000059605,True,7.66,26659.0,1353.4000000059605,True,HRV,HRV_0042,2022-11-30 17:27:31
17,"[{'imgObject': {}, 'id': 'turkey sandwich', 'src': '/static/foodstim60/turkey sandwich.jpg', 'key': 'NaN', 'origWidth': 409, 'origHeight': 409, 'width': 409, 'height': 409, 'widthPercent': 0.8, 'rescaleHeight': True, 'trialN': 17, 'loaded': True, 'loadedTime': 2257.2999999970198, 'positionName': 'CENTER', 'positionCoords': [819.5, 371.5]}]",Rate how much you want to eat this food from 0 (least) to 10 (most).,26659.70000000298,1669829195074,turkey sandwich,963.3999999910593,True,7.53,27623.09999999404,963.3999999910593,True,HRV,HRV_0042,2022-11-30 17:27:31
18,"[{'imgObject': {}, 'id': 'popsicles', 'src': '/static/foodstim60/popsicles.jpg', 'key': 'NaN', 'origWidth': 410, 'origHeight': 410, 'width': 410, 'height': 410, 'widthPercent': 0.8, 'rescaleHeight': True, 'trialN': 18, 'loaded': True, 'loadedTime': 2257.3999999910593, 'positionName': 'CENTER', 'positionCoords': [819, 371]}]",Rate how much you want to eat this food from 0 (least) to 10 (most).,27623.70000000298,1669829196038,popsicles,961.2999999970198,True,7.2,28585.0,961.2999999970198,True,HRV,HRV_0042,2022-11-30 17:27:31
19,"[{'imgObject': {}, 'id': 'veggieswithdip', 'src': '/static/foodstim60/veggieswithdip.jpg', 'key': 'NaN', 'origWidth': 409, 'origHeight': 409, 'width': 409, 'height': 409, 'widthPercent': 0.8, 'rescaleHeight': True, 'trialN': 19, 'loaded': True, 'loadedTime': 2257.5, 'positionName': 'CENTER', 'positionCoords': [819.5, 371.5]}]",Rate how much you want to eat this food from 0 (least) to 10 (most).,28585.59999999404,1669829197000,veggieswithdip,1365.5,True,6.21,29951.09999999404,1365.5,True,HRV,HRV_0042,2022-11-30 17:27:31
20,"[{'imgObject': {}, 'id': 'fruitsalad', 'src': '/static/foodstim60/fruitsalad.jpg', 'key': 'NaN', 'origWidth': 410, 'origHeight': 410, 'width': 410, 'height': 410, 'widthPercent': 0.8, 'rescaleHeight': True, 'trialN': 20, 'loaded': True, 'loadedTime': 2257.7000000029802, 'positionName': 'CENTER', 'positionCoords': [819, 371]}]",Rate how much you want to eat this food from 0 (least) to 10 (most).,29951.79999999702,1669829198366,fruitsalad,1005.0999999940395,True,4.99,30956.89999999106,1005.0999999940395,True,HRV,HRV_0042,2022-11-30 17:27:31
21,"[{'imgObject': {}, 'id': 'cherry tomato', 'src': '/static/foodstim60/cherry tomato.jpg', 'key': 'NaN', 'origWidth': 410, 'origHeight': 410, 'width': 410, 'height': 410, 'widthPercent': 0.8, 'rescaleHeight': True, 'trialN': 21, 'loaded': True, 'loadedTime': 2257.8999999910593, 'positionName': 'CENTER', 'positionCoords': [819, 371]}]",Rate how much you want to eat this food from 0 (least) to 10 (most).,30957.59999999404,1669829199372,cherry tomato,1397.4000000059605,True,2.06,32355.0,1397.4000000059605,True,HRV,HRV_0042,2022-11-30 17:27:31
22,"[{'imgObject': {}, 'id': 'pear', 'src': '/static/foodstim60/pear.jpg', 'key': 'NaN', 'origWidth': 411, 'origHeight': 410, 'width': 411, 'height': 410, 'widthPercent': 0.8, 'rescaleHeight': True, 'trialN': 22, 'loaded': True, 'loadedTime': 2258, 'positionName': 'CENTER', 'positionCoords': [818.5, 371]}]",Rate how much you want to eat this food from 0 (least) to 10 (most).,32355.59999999404,1669829200770,pear,1369.7999999970198,True,4.57,33725.39999999106,1369.7999999970198,True,HRV,HRV_0042,2022-11-30 17:27:31
23,"[{'imgObject': {}, 'id': 'froot loops w milk', 'src': '/static/foodstim60/froot loops w milk.jpg', 'key': 'NaN', 'origWidth': 410, 'origHeight': 410, 'width': 410, 'height': 410, 'widthPercent': 0.8, 'rescaleHeight': True, 'trialN': 23, 'loaded': True, 'loadedTime': 2258.2000000029802, 'positionName': 'CENTER', 'positionCoords': [819, 371]}]",Rate how much you want to eat this food from 0 (least) to 10 (most).,33726.09999999404,1669829202140,froot loops w milk,1238.9000000059605,True,0.41000000000000003,34965.0,1238.9000000059605,True,HRV,HRV_0042,2022-11-30 17:27:31
24,"[{'imgObject': {}, 'id': 'raspberries', 'src': '/static/foodstim60/raspberries.jpg', 'key': 'NaN', 'origWidth': 411, 'origHeight': 411, 'width': 411, 'height': 411, 'widthPercent': 0.8, 'rescaleHeight': True, 'trialN': 24, 'loaded': True, 'loadedTime': 2258.2999999970198, 'positionName': 'CENTER', 'positionCoords': [818.5, 370.5]}]",Rate how much you want to eat this food from 0 (least) to 10 (most).,34965.70000000298,1669829203380,raspberries,1269.2999999970198,True,4.91,36235.0,1269.2999999970198,True,HRV,HRV_0042,2022-11-30 17:27:31
25,"[{'imgObject': {}, 'id': 'corn cob', 'src': '/static/foodstim60/corn cob.jpg', 'key': 'NaN', 'origWidth': 411, 'origHeight': 411, 'width': 411, 'height': 411, 'widthPercent': 0.8, 'rescaleHeight': True, 'trialN': 25, 'loaded': True, 'loadedTime': 2258.3999999910593, 'positionName': 'CENTER', 'positionCoords': [818.5, 370.5]}]",Rate how much you want to eat this food from 0 (least) to 10 (most).,36235.5,1669829204650,corn cob,1053.5,True,6.71,37289.0,1053.5,True,HRV,HRV_0042,2022-11-30 17:27:31
26,"[{'imgObject': {}, 'id': 'baked potato', 'src': '/static/foodstim60/baked potato.jpg', 'key': 'NaN', 'origWidth': 409, 'origHeight': 410, 'width': 409, 'height': 410, 'widthPercent': 0.8, 'rescaleHeight': True, 'trialN': 26, 'loaded': True, 'loadedTime': 2258.5, 'positionName': 'CENTER', 'positionCoords': [819.5, 371]}]",Rate how much you want to eat this food from 0 (least) to 10 (most).,37289.59999999404,1669829205704,baked potato,1437.5,True,5.17,38727.09999999404,1437.5,True,HRV,HRV_0042,2022-11-30 17:27:31
27,"[{'imgObject': {}, 'id': 'seaweed', 'src': '/static/foodstim60/seaweed.jpg', 'key': 'NaN', 'origWidth': 410, 'origHeight': 410, 'width': 410, 'height': 410, 'widthPercent': 0.8, 'rescaleHeight': True, 'trialN': 27, 'loaded': True, 'loadedTime': 2259.0999999940395, 'positionName': 'CENTER', 'positionCoords': [819, 371]}]",Rate how much you want to eat this food from 0 (least) to 10 (most).,38727.59999999404,1669829207142,seaweed,1631.4000000059605,True,0.16,40359.0,1631.4000000059605,True,HRV,HRV_0042,2022-11-30 17:27:31
28,"[{'imgObject': {}, 'id': 'cherries', 'src': '/static/foodstim60/cherries.jpg', 'key': 'NaN', 'origWidth': 410, 'origHeight': 411, 'width': 410, 'height': 411, 'widthPercent': 0.8, 'rescaleHeight': True, 'trialN': 28, 'loaded': True, 'loadedTime': 2259.3999999910593, 'positionName': 'CENTER', 'positionCoords': [819, 370.5]}]",Rate how much you want to eat this food from 0 (least) to 10 (most).,40359.70000000298,1669829208774,cherries,1127.2999999970198,True,5.3100000000000005,41487.0,1127.2999999970198,True,HRV,HRV_0042,2022-11-30 17:27:31
29,"[{'imgObject': {}, 'id': 'Grapes', 'src': '/static/foodstim60/Grapes.jpg', 'key': 'NaN', 'origWidth': 411, 'origHeight': 411, 'width': 411, 'height': 411, 'widthPercent': 0.8, 'rescaleHeight': True, 'trialN': 29, 'loaded': True, 'loadedTime': 2259.5999999940395, 'positionName': 'CENTER', 'positionCoords': [818.5, 370.5]}]",Rate how much you want to eat this food from 0 (least) to 10 (most).,41487.5,1669829209902,Grapes,1196.0,True,5.15,42683.5,1196.0,True,HRV,HRV_0042,2022-11-30 17:27:31
30,"[{'imgObject': {}, 'id': 'apple slices', 'src': '/static/foodstim60/apple slices.jpg', 'key': 'NaN', 'origWidth': 409, 'origHeight': 410, 'width': 409, 'height': 410, 'widthPercent': 0.8, 'rescaleHeight': True, 'trialN': 30, 'loaded': True, 'loadedTime': 2259.5999999940395, 'positionName': 'CENTER', 'positionCoords': [819.5, 371]}]",Rate how much you want to eat this food from 0 (least) to 10 (most).,42684.20000000298,1669829211098,apple slices,1085.0999999940395,True,4.6000000000000005,43769.29999999702,1085.0999999940395,True,HRV,HRV_0042,2022-11-30 17:27:31
31,"[{'imgObject': {}, 'id': 'roastedpotatoes', 'src': '/static/foodstim60/roastedpotatoes.jpg', 'key': 'NaN', 'origWidth': 409, 'origHeight': 410, 'width': 409, 'height': 410, 'widthPercent': 0.8, 'rescaleHeight': True, 'trialN': 31, 'loaded': True, 'loadedTime': 2259.7999999970198, 'positionName': 'CENTER', 'positionCoords': [819.5, 371]}]",Rate how much you want to eat this food from 0 (least) to 10 (most).,43770.09999999404,1669829212184,roastedpotatoes,1711.4000000059605,True,4.0600000000000005,45481.5,1711.4000000059605,True,HRV,HRV_0042,2022-11-30 17:27:31
32,"[{'imgObject': {}, 'id': 'bagel and cc', 'src': '/static/foodstim60/bagel and cc.jpg', 'key': 'NaN', 'origWidth': 410, 'origHeight': 410, 'width': 410, 'height': 410, 'widthPercent': 0.8, 'rescaleHeight': True, 'trialN': 32, 'loaded': True, 'loadedTime': 2259.7999999970198, 'positionName': 'CENTER', 'positionCoords': [819, 371]}]",Rate how much you want to eat this food from 0 (least) to 10 (most).,45482.29999999702,1669829213896,bagel and cc,1248.7999999970198,True,6.88,46731.09999999404,1248.7999999970198,True,HRV,HRV_0042,2022-11-30 17:27:31
33,"[{'imgObject': {}, 'id': 'rigatoni', 'src': '/static/foodstim60/rigatoni.jpg', 'key': 'NaN', 'origWidth': 411, 'origHeight': 411, 'width': 411, 'height': 411, 'widthPercent': 0.8, 'rescaleHeight': True, 'trialN': 33, 'loaded': True, 'loadedTime': 2259.8999999910593, 'positionName': 'CENTER', 'positionCoords': [818.5, 370.5]}]",Rate how much you want to eat this food from 0 (least) to 10 (most).,46731.89999999106,1669829215146,rigatoni,1373.0,True,0.15,48104.89999999106,1373.0,True,HRV,HRV_0042,2022-11-30 17:27:31
34,"[{'imgObject': {}, 'id': 'sushi w_condiments', 'src': '/static/foodstim60/sushi w_condiments.jpg', 'key': 'NaN', 'origWidth': 410, 'origHeight': 410, 'width': 410, 'height': 410, 'widthPercent': 0.8, 'rescaleHeight': True, 'trialN': 34, 'loaded': True, 'loadedTime': 2259.8999999910593, 'positionName': 'CENTER', 'positionCoords': [819, 371]}]",Rate how much you want to eat this food from 0 (least) to 10 (most).,48105.79999999702,1669829216520,sushi w_condiments,1283.4000000059605,True,8.24,49389.20000000298,1283.4000000059605,True,HRV,HRV_0042,2022-11-30 17:27:31
35,"[{'imgObject': {}, 'id': 'mac & cheese', 'src': '/static/foodstim60/mac & cheese.jpg', 'key': 'NaN', 'origWidth': 410, 'origHeight': 410, 'width': 410, 'height': 410, 'widthPercent': 0.8, 'rescaleHeight': True, 'trialN': 35, 'loaded': True, 'loadedTime': 2259.8999999910593, 'positionName': 'CENTER', 'positionCoords': [819, 371]}]",Rate how much you want to eat this food from 0 (least) to 10 (most).,49390.09999999404,1669829217804,mac & cheese,1428.9000000059605,True,5.5200000000000005,50819.0,1428.9000000059605,True,HRV,HRV_0042,2022-11-30 17:27:31
36,"[{'imgObject': {}, 'id': 'ice cream sundae 002', 'src': '/static/foodstim60/ice cream sundae 002.jpg', 'key': 'NaN', 'origWidth': 409, 'origHeight': 409, 'width': 409, 'height': 409, 'widthPercent': 0.8, 'rescaleHeight': True, 'trialN': 36, 'loaded': True, 'loadedTime': 2260, 'positionName': 'CENTER', 'positionCoords': [819.5, 371.5]}]",Rate how much you want to eat this food from 0 (least) to 10 (most).,50819.59999999404,1669829219234,ice cream sundae 002,1177.4000000059605,True,2.07,51997.0,1177.4000000059605,True,HRV,HRV_0042,2022-11-30 17:27:31
37,"[{'imgObject': {}, 'id': 'chickenfingers', 'src': '/static/foodstim60/chickenfingers.jpg', 'key': 'NaN', 'origWidth': 410, 'origHeight': 410, 'width': 410, 'height': 410, 'widthPercent': 0.8, 'rescaleHeight': True, 'trialN': 37, 'loaded': True, 'loadedTime': 2260.0999999940395, 'positionName': 'CENTER', 'positionCoords': [819, 371]}]",Rate how much you want to eat this food from 0 (least) to 10 (most).,51997.59999999404,1669829220412,chickenfingers,1153.2999999970198,True,8.42,53150.89999999106,1153.2999999970198,True,HRV,HRV_0042,2022-11-30 17:27:31
38,"[{'imgObject': {}, 'id': 'sweetpotato', 'src': '/static/foodstim60/sweetpotato.jpg', 'key': 'NaN', 'origWidth': 410, 'origHeight': 410, 'width': 410, 'height': 410, 'widthPercent': 0.8, 'rescaleHeight': True, 'trialN': 38, 'loaded': True, 'loadedTime': 2260.0999999940395, 'positionName': 'CENTER', 'positionCoords': [819, 371]}]",Rate how much you want to eat this food from 0 (least) to 10 (most).,53151.5,1669829221566,sweetpotato,1239.8999999910593,True,0.17,54391.39999999106,1239.8999999910593,True,HRV,HRV_0042,2022-11-30 17:27:31
39,"[{'imgObject': {}, 'id': 'eggs', 'src': '/static/foodstim60/eggs.jpg', 'key': 'NaN', 'origWidth': 409, 'origHeight': 409, 'width': 409, 'height': 409, 'widthPercent': 0.8, 'rescaleHeight': True, 'trialN': 39, 'loaded': True, 'loadedTime': 2260.2000000029802, 'positionName': 'CENTER', 'positionCoords': [819.5, 371.5]}]",Rate how much you want to eat this food from 0 (least) to 10 (most).,54392.0,1669829222806,eggs,1122.8999999910593,True,4.8500000000000005,55514.89999999106,1122.8999999910593,True,HRV,HRV_0042,2022-11-30 17:27:31
40,"[{'imgObject': {}, 'id': 'turkeysandwich', 'src': '/static/foodstim60/turkeysandwich.jpg', 'key': 'NaN', 'origWidth': 409, 'origHeight': 409, 'width': 409, 'height': 409, 'widthPercent': 0.8, 'rescaleHeight': True, 'trialN': 40, 'loaded': True, 'loadedTime': 2260.2999999970198, 'positionName': 'CENTER', 'positionCoords': [819.5, 371.5]}]",Rate how much you want to eat this food from 0 (least) to 10 (most).,55515.39999999106,1669829223930,turkeysandwich,1055.5,True,7.5600000000000005,56570.89999999106,1055.5,True,HRV,HRV_0042,2022-11-30 17:27:31
41,"[{'imgObject': {}, 'id': 'fried eggs', 'src': '/static/foodstim60/fried eggs.jpg', 'key': 'NaN', 'origWidth': 410, 'origHeight': 410, 'width': 410, 'height': 410, 'widthPercent': 0.8, 'rescaleHeight': True, 'trialN': 41, 'loaded': True, 'loadedTime': 2260.3999999910593, 'positionName': 'CENTER', 'positionCoords': [819, 371]}]",Rate how much you want to eat this food from 0 (least) to 10 (most).,56571.59999999404,1669829224986,fried eggs,1175.2999999970198,True,5.82,57746.89999999106,1175.2999999970198,True,HRV,HRV_0042,2022-11-30 17:27:31
42,"[{'imgObject': {}, 'id': 'strawberries', 'src': '/static/foodstim60/strawberries.jpg', 'key': 'NaN', 'origWidth': 410, 'origHeight': 410, 'width': 410, 'height': 410, 'widthPercent': 0.8, 'rescaleHeight': True, 'trialN': 42, 'loaded': True, 'loadedTime': 2260.3999999910593, 'positionName': 'CENTER', 'positionCoords': [819, 371]}]",Rate how much you want to eat this food from 0 (least) to 10 (most).,57747.5,1669829226162,strawberries,1111.3999999910593,True,4.58,58858.89999999106,1111.3999999910593,True,HRV,HRV_0042,2022-11-30 17:27:31
43,"[{'imgObject': {}, 'id': 'banana', 'src': '/static/foodstim60/banana.jpg', 'key': 'NaN', 'origWidth': 410, 'origHeight': 410, 'width': 410, 'height': 410, 'widthPercent': 0.8, 'rescaleHeight': True, 'trialN': 43, 'loaded': True, 'loadedTime': 2260.5, 'positionName': 'CENTER', 'positionCoords': [819, 371]}]",Rate how much you want to eat this food from 0 (least) to 10 (most).,58859.70000000298,1669829227274,banana,849.1999999880791,True,6.5200000000000005,59708.89999999106,849.1999999880791,True,HRV,HRV_0042,2022-11-30 17:27:31
44,"[{'imgObject': {}, 'id': 'avocado', 'src': '/static/foodstim60/avocado.jpg', 'key': 'NaN', 'origWidth': 409, 'origHeight': 409, 'width': 409, 'height': 409, 'widthPercent': 0.8, 'rescaleHeight': True, 'trialN': 44, 'loaded': True, 'loadedTime': 2260.5, 'positionName': 'CENTER', 'positionCoords': [819.5, 371.5]}]",Rate how much you want to eat this food from 0 (least) to 10 (most).,59709.5,1669829228124,avocado,1291.5999999940395,True,5.86,61001.09999999404,1291.5999999940395,True,HRV,HRV_0042,2022-11-30 17:27:31
45,"[{'imgObject': {}, 'id': 'eggsalad', 'src': '/static/foodstim60/eggsalad.jpg', 'key': 'NaN', 'origWidth': 410, 'origHeight': 409, 'width': 410, 'height': 409, 'widthPercent': 0.8, 'rescaleHeight': True, 'trialN': 45, 'loaded': True, 'loadedTime': 2260.5999999940395, 'positionName': 'CENTER', 'positionCoords': [819, 371.5]}]",Rate how much you want to eat this food from 0 (least) to 10 (most).,61001.89999999106,1669829229416,eggsalad,2755.2000000029802,True,1.87,63757.09999999404,2755.2000000029802,True,HRV,HRV_0042,2022-11-30 17:27:31
46,"[{'imgObject': {}, 'id': 'yogurt no spoon', 'src': '/static/foodstim60/yogurt no spoon.jpg', 'key': 'NaN', 'origWidth': 411, 'origHeight': 410, 'width': 411, 'height': 410, 'widthPercent': 0.8, 'rescaleHeight': True, 'trialN': 46, 'loaded': True, 'loadedTime': 2260.7000000029802, 'positionName': 'CENTER', 'positionCoords': [818.5, 371]}]",Rate how much you want to eat this food from 0 (least) to 10 (most).,63757.89999999106,1669829232172,yogurt no spoon,1465.1000000089407,True,3.63,65223.0,1465.1000000089407,True,HRV,HRV_0042,2022-11-30 17:27:31
47,"[{'imgObject': {}, 'id': 'orange slices', 'src': '/static/foodstim60/orange slices.jpg', 'key': 'NaN', 'origWidth': 409, 'origHeight': 410, 'width': 409, 'height': 410, 'widthPercent': 0.8, 'rescaleHeight': True, 'trialN': 47, 'loaded': True, 'loadedTime': 2260.7000000029802, 'positionName': 'CENTER', 'positionCoords': [819.5, 371]}]",Rate how much you want to eat this food from 0 (least) to 10 (most).,65223.70000000298,1669829233638,orange slices,1017.2999999970198,True,4.92,66241.0,1017.2999999970198,True,HRV,HRV_0042,2022-11-30 17:27:31
48,"[{'imgObject': {}, 'id': 'raisin bran w milk', 'src': '/static/foodstim60/raisin bran w milk.jpg', 'key': 'NaN', 'origWidth': 411, 'origHeight': 411, 'width': 411, 'height': 411, 'widthPercent': 0.8, 'rescaleHeight': True, 'trialN': 48, 'loaded': True, 'loadedTime': 2260.7999999970198, 'positionName': 'CENTER', 'positionCoords': [818.5, 370.5]}]",Rate how much you want to eat this food from 0 (least) to 10 (most).,66241.70000000298,1669829234656,raisin bran w milk,1469.3999999910593,True,0.15,67711.09999999404,1469.3999999910593,True,HRV,HRV_0042,2022-11-30 17:27:31
49,"[{'imgObject': {}, 'id': 'olives', 'src': '/static/foodstim60/olives.jpg', 'key': 'NaN', 'origWidth': 410, 'origHeight': 410, 'width': 410, 'height': 410, 'widthPercent': 0.8, 'rescaleHeight': True, 'trialN': 49, 'loaded': True, 'loadedTime': 2260.8999999910593, 'positionName': 'CENTER', 'positionCoords': [819, 371]}]",Rate how much you want to eat this food from 0 (least) to 10 (most).,67711.79999999702,1669829236126,olives,1259.0999999940395,True,4.99,68970.89999999106,1259.0999999940395,True,HRV,HRV_0042,2022-11-30 17:27:31
50,"[{'imgObject': {}, 'id': 'burrito', 'src': '/static/foodstim60/burrito.jpg', 'key': 'NaN', 'origWidth': 410, 'origHeight': 410, 'width': 410, 'height': 410, 'widthPercent': 0.8, 'rescaleHeight': True, 'trialN': 50, 'loaded': True, 'loadedTime': 2260.8999999910593, 'positionName': 'CENTER', 'positionCoords': [819, 371]}]",Rate how much you want to eat this food from 0 (least) to 10 (most).,68971.70000000298,1669829237386,burrito,1055.199999988079,True,6.44,70026.89999999106,1055.199999988079,True,HRV,HRV_0042,2022-11-30 17:27:31
51,"[{'imgObject': {}, 'id': 'mashed potato', 'src': '/static/foodstim60/mashed potato.jpg', 'key': 'NaN', 'origWidth': 409, 'origHeight': 409, 'width': 409, 'height': 409, 'widthPercent': 0.8, 'rescaleHeight': True, 'trialN': 51, 'loaded': True, 'loadedTime': 2261, 'positionName': 'CENTER', 'positionCoords': [819.5, 371.5]}]",Rate how much you want to eat this food from 0 (least) to 10 (most).,70027.5,1669829238442,mashed potato,1015.3999999910593,True,3.72,71042.89999999106,1015.3999999910593,True,HRV,HRV_0042,2022-11-30 17:27:31
52,"[{'imgObject': {}, 'id': 'salmon', 'src': '/static/foodstim60/salmon.jpg', 'key': 'NaN', 'origWidth': 410, 'origHeight': 409, 'width': 410, 'height': 409, 'widthPercent': 0.8, 'rescaleHeight': True, 'trialN': 52, 'loaded': True, 'loadedTime': 2261, 'positionName': 'CENTER', 'positionCoords': [819, 371.5]}]",Rate how much you want to eat this food from 0 (least) to 10 (most).,71043.5,1669829239458,salmon,1053.5,True,9.56,72097.0,1053.5,True,HRV,HRV_0042,2022-11-30 17:27:31
53,"[{'imgObject': {}, 'id': 'shreddedwheatwithmilk', 'src': '/static/foodstim60/shreddedwheatwithmilk.jpg', 'key': 'NaN', 'origWidth': 410, 'origHeight': 410, 'width': 410, 'height': 410, 'widthPercent': 0.8, 'rescaleHeight': True, 'trialN': 53, 'loaded': True, 'loadedTime': 2261.0999999940395, 'positionName': 'CENTER', 'positionCoords': [819, 371]}]",Rate how much you want to eat this food from 0 (least) to 10 (most).,72097.5,1669829240512,shreddedwheatwithmilk,1275.5,True,0.22,73373.0,1275.5,True,HRV,HRV_0042,2022-11-30 17:27:31
54,"[{'imgObject': {}, 'id': 'luckycharms', 'src': '/static/foodstim60/luckycharms.jpg', 'key': 'NaN', 'origWidth': 410, 'origHeight': 409, 'width': 410, 'height': 409, 'widthPercent': 0.8, 'rescaleHeight': True, 'trialN': 54, 'loaded': True, 'loadedTime': 2261.2000000029802, 'positionName': 'CENTER', 'positionCoords': [819, 371.5]}]",Rate how much you want to eat this food from 0 (least) to 10 (most).,73373.59999999404,1669829241788,luckycharms,1019.7999999970198,True,0.84,74393.39999999106,1019.7999999970198,True,HRV,HRV_0042,2022-11-30 17:27:31
55,"[{'imgObject': {}, 'id': 'mango', 'src': '/static/foodstim60/mango.jpg', 'key': 'NaN', 'origWidth': 411, 'origHeight': 411, 'width': 411, 'height': 411, 'widthPercent': 0.8, 'rescaleHeight': True, 'trialN': 55, 'loaded': True, 'loadedTime': 2261.2999999970198, 'positionName': 'CENTER', 'positionCoords': [818.5, 370.5]}]",Rate how much you want to eat this food from 0 (least) to 10 (most).,74394.09999999404,1669829242808,mango,1127.2999999970198,True,4.87,75521.39999999106,1127.2999999970198,True,HRV,HRV_0042,2022-11-30 17:27:31
56,"[{'imgObject': {}, 'id': 'edamame', 'src': '/static/foodstim60/edamame.jpg', 'key': 'NaN', 'origWidth': 409, 'origHeight': 410, 'width': 409, 'height': 410, 'widthPercent': 0.8, 'rescaleHeight': True, 'trialN': 56, 'loaded': True, 'loadedTime': 2261.2999999970198, 'positionName': 'CENTER', 'positionCoords': [819.5, 371]}]",Rate how much you want to eat this food from 0 (least) to 10 (most).,75522.20000000298,1669829243936,edamame,1130.699999988079,True,1.01,76652.89999999106,1130.699999988079,True,HRV,HRV_0042,2022-11-30 17:27:31
57,"[{'imgObject': {}, 'id': 'blackbeanswithrice', 'src': '/static/foodstim60/blackbeanswithrice.jpg', 'key': 'NaN', 'origWidth': 410, 'origHeight': 410, 'width': 410, 'height': 410, 'widthPercent': 0.8, 'rescaleHeight': True, 'trialN': 57, 'loaded': True, 'loadedTime': 2261.2999999970198, 'positionName': 'CENTER', 'positionCoords': [819, 371]}]",Rate how much you want to eat this food from 0 (least) to 10 (most).,76653.5,1669829245068,blackbeanswithrice,1057.2999999970198,True,1.04,77710.79999999702,1057.2999999970198,True,HRV,HRV_0042,2022-11-30 17:27:31
58,"[{'imgObject': {}, 'id': 'cocktailshrimp', 'src': '/static/foodstim60/cocktailshrimp.jpg', 'key': 'NaN', 'origWidth': 410, 'origHeight': 410, 'width': 410, 'height': 410, 'widthPercent': 0.8, 'rescaleHeight': True, 'trialN': 58, 'loaded': True, 'loadedTime': 2261.5, 'positionName': 'CENTER', 'positionCoords': [819, 371]}]",Rate how much you want to eat this food from 0 (least) to 10 (most).,77711.59999999404,1669829246126,cocktailshrimp,1547.2999999970198,True,8.67,79258.89999999106,1547.2999999970198,True,HRV,HRV_0042,2022-11-30 17:27:31
59,"[{'imgObject': {}, 'id': 'granola w milk', 'src': '/static/foodstim60/granola w milk.jpg', 'key': 'NaN', 'origWidth': 410, 'origHeight': 410, 'width': 410, 'height': 410, 'widthPercent': 0.8, 'rescaleHeight': True, 'trialN': 59, 'loaded': True, 'loadedTime': 2261.5, 'positionName': 'CENTER', 'positionCoords': [819, 371]}]",Rate how much you want to eat this food from 0 (least) to 10 (most).,79259.70000000298,1669829247674,granola w milk,2081.199999988079,True,0.11,81340.89999999106,2081.199999988079,True,HRV,HRV_0042,2022-11-30 17:27:31
