success,trial_type,trial_index,time_elapsed,internal_node_id,missTrial,missTrialMsg,Block,TrialNumber,TrialTime,trialTimeDiff,FPS_avg,FPS_med,FPS_mode,TrialDur,winResizeTime,rt,block,button_pressed,MotCoh,MotDir,ColCoh,Color,ChoiceKey,Choice,Accuracy,RT,nFrames,FPS,PPD,onsetDelay,fullScreenExitTime,canvCenter,TrialType,Score,BlockTrial,stimulus,button_labels,exp,subjectId,date
True,fullscreen,0,10799,0.0-0.0,True,undefinedblurEvent ,0.0,0.0,,,,,,,,,,,,,,,,,,,,,,,,,,,,,,HRV,HRV_0042,2022-11-30 17:58:55
,wl-check-fps,1,15805,0.0-1.0,,,0.0,1.0,"[11113.5, 11128.5, 11145.1, 11161.8, 11178.6, 11196.1, 11213, 11230.7, 11246.1, 11262.7, 11279.8, 11296.4, 11313.2, 11329.2, 11345.9, 11362.3, 11379.1, 11395.8, 11412.4, 11429.1, 11445.8, 11463, 11479.4, 11495.9, 11512.5, 11529.2, 11546.1, 11562.8, 11579.4, 11596, 11612.7, 11629.4, 11646.1, 11662.6, 11679.3, 11696.1, 11712.7, 11729.3, 11746, 11762.6, 11779.6, 11796.4, 11813, 11829.6, 11846.3, 11863.6, 11879.7, 11896.8, 11913.3, 11929.9, 11946.4, 11963.1, 11979.8, 11996.4, 12013.1, 12029.8, 12046.5, 12063.2, 12079.8, 12096.3, 12113.2, 12129.9, 12146.5, 12163.4, 12179.7, 12196.4, 12213.1, 12229.9, 12246.5, 12263.1, 12279.8, 12296.4, 12313.1, 12329.9, 12346.6, 12363.2, 12379.8, 12396.5, 12413.3, 12430.2, 12446.6, 12463.4, 12480, 12496.7, 12513.4, 12530, 12546.7, 12563.5, 12580.1, 12596.7, 12613.5, 12630.1, 12646.8, 12663.5, 12680.2, 12696.9, 12713.5, 12730.6, 12747.3, 12763.7, 12780.3, 12797.3, 12813.9, 12831.8, 12848.2, 12864.7, 12880.5, 12897.8, 12913.9, 12930.6, 12947.4, 12964, 12980.7, 12997.4, 13014, 13030.5, 13047.1, 13064, 13080.9, 13097.2, 13113.9, 13130.5, 13147.2, 13163.9, 13180.5, 13197.3, 13213.9, 13230.5, 13247.3, 13263.9, 13280.6, 13297.3, 13314, 13331, 13347.4, 13364, 13381.1, 13397.6, 13414.1, 13430.8, 13447.4, 13464, 13480.8, 13498.3, 13514.2, 13530.8, 13547.5, 13564.2, 13580.9, 13597.5, 13614.2, 13630.9, 13647.6, 13664.3, 13681, 13697.6, 13714.4, 13731, 13747.7, 13764.4, 13781, 13797.7, 13814.4, 13831.1, 13848.4, 13864.7, 13882.5, 13898.1, 13914.7, 13931.4, 13948, 13964.7, 13981.4, 13998, 14014.7, 14031.4, 14048, 14064.6, 14081.3, 14098.1, 14114.8, 14131.4, 14148, 14164.8, 14181.5, 14198, 14214.8, 14231.4, 14248.1, 14264.7, 14281.4, 14298.1, 14315, 14331.8, 14348.4, 14365, 14381.6, 14398.2, 14415.4, 14431.6, 14448.2, 14464.9, 14481.6, 14498.6, 14515.1, 14531.6, 14548.4, 14565, 14581.9, 14598.7, 14615.1, 14631.9, 14648.4, 14665, 14681.7, 14698.5, 14715.1, 14731.8, 14748.5, 14765.5, 14782.4, 14799.1, 14815.3, 14833, 14851.3, 14866.5, 14882.1, 14899.7, 14915.9, 14932.6, 14949.2, 14966.1, 14982.7, 14999.3, 15015.9, 15032.4, 15049.2, 15065.7, 15082.4, 15098.8, 15115.8, 15132.5, 15149.2, 15165.9, 15182.5, 15199.2, 15215.9, 15232.5, 15249.2, 15265.9, 15282.5, 15299.3, 15316, 15332.3, 15349.5, 15366.2, 15382.3, 15399.3, 15416, 15433, 15449.5, 15482.4, 15482.6, 15499.1, 15515.7, 15532.5, 15549.1, 15565.8, 15582.4, 15599.2, 15615.9, 15632.5, 15649.2, 15665.9, 15682.5, 15699.3, 15715.9, 15732.7, 15749.4, 15766, 15782.7, 15799.3, 15816.1, 15833, 15850.2, 15867.2, 15883.4, 15900, 15916.3, 15933, 15949.8, 15966.3, 15983, 15999.6, 16016.3, 16032.9, 16049.5, 16066.2, 16082.9, 16099.8]","[1.2, 15, 16.6, 16.7, 16.8, 17.5, 16.9, 17.7, 15.4, 16.6, 17.1, 16.6, 16.8, 16, 16.7, 16.4, 16.8, 16.7, 16.6, 16.7, 16.7, 17.2, 16.4, 16.5, 16.6, 16.7, 16.9, 16.7, 16.6, 16.6, 16.7, 16.7, 16.7, 16.5, 16.7, 16.8, 16.6, 16.6, 16.7, 16.6, 17, 16.8, 16.6, 16.6, 16.7, 17.3, 16.1, 17.1, 16.5, 16.6, 16.5, 16.7, 16.7, 16.6, 16.7, 16.7, 16.7, 16.7, 16.6, 16.5, 16.9, 16.7, 16.6, 16.9, 16.3, 16.7, 16.7, 16.8, 16.6, 16.6, 16.7, 16.6, 16.7, 16.8, 16.7, 16.6, 16.6, 16.7, 16.8, 16.9, 16.4, 16.8, 16.6, 16.7, 16.7, 16.6, 16.7, 16.8, 16.6, 16.6, 16.8, 16.6, 16.7, 16.7, 16.7, 16.7, 16.6, 17.1, 16.7, 16.4, 16.6, 17, 16.6, 17.9, 16.4, 16.5, 15.8, 17.3, 16.1, 16.7, 16.8, 16.6, 16.7, 16.7, 16.6, 16.5, 16.6, 16.9, 16.9, 16.3, 16.7, 16.6, 16.7, 16.7, 16.6, 16.8, 16.6, 16.6, 16.8, 16.6, 16.7, 16.7, 16.7, 17, 16.4, 16.6, 17.1, 16.5, 16.5, 16.7, 16.6, 16.6, 16.8, 17.5, 15.9, 16.6, 16.7, 16.7, 16.7, 16.6, 16.7, 16.7, 16.7, 16.7, 16.7, 16.6, 16.8, 16.6, 16.7, 16.7, 16.6, 16.7, 16.7, 16.7, 17.3, 16.3, 17.8, 15.6, 16.6, 16.7, 16.6, 16.7, 16.7, 16.6, 16.7, 16.7, 16.6, 16.6, 16.7, 16.8, 16.7, 16.6, 16.6, 16.8, 16.7, 16.5, 16.8, 16.6, 16.7, 16.6, 16.7, 16.7, 16.9, 16.8, 16.6, 16.6, 16.6, 16.6, 17.2, 16.2, 16.6, 16.7, 16.7, 17, 16.5, 16.5, 16.8, 16.6, 16.9, 16.8, 16.4, 16.8, 16.5, 16.6, 16.7, 16.8, 16.6, 16.7, 16.7, 17, 16.9, 16.7, 16.2, 17.7, 18.3, 15.2, 15.6, 17.6, 16.2, 16.7, 16.6, 16.9, 16.6, 16.6, 16.6, 16.5, 16.8, 16.5, 16.7, 16.4, 17, 16.7, 16.7, 16.7, 16.6, 16.7, 16.7, 16.6, 16.7, 16.7, 16.6, 16.8, 16.7, 16.3, 17.2, 16.7, 16.1, 17, 16.7, 17, 16.5, 32.9, 0.2, 16.5, 16.6, 16.8, 16.6, 16.7, 16.6, 16.8, 16.7, 16.6, 16.7, 16.7, 16.6, 16.8, 16.6, 16.8, 16.7, 16.6, 16.7, 16.6, 16.8, 16.9, 17.2, 17, 16.2, 16.6, 16.3, 16.7, 16.8, 16.5, 16.7, 16.6, 16.7, 16.6, 16.6, 16.7, 16.7, 16.9]",60.0,60.0,60.0,5004.1,[],,,,,,,,,,,,,,,,,,,,,,,HRV,HRV_0042,2022-11-30 17:58:55
,wl-html-keyboard-response,2,24110,0.0-2.0-0.0,,,0.0,2.0,,,,,,,,6299.5,0.0,0,,,,,,,,,,,,,,,,,,,,HRV,HRV_0042,2022-11-30 17:58:55
,wl-rdm,3,30866,0.0-3.0-0.0,False,,0.0,3.0,,,,,,,[],,,,0.0,0.0,87.9,0.0,u,0.0,True,1185.9999999850988,72.0,60.0,40.0,3000.0,[],"[1024, 576]",ColorTask_Demo,,,,,HRV,HRV_0042,2022-11-30 17:58:55
,wl-rdm,4,35487,0.0-3.0-1.0,False,,0.0,4.0,,,,,,,[],,,,0.0,0.0,87.9,1.0,i,1.0,True,561.2999999970198,34.0,60.0,40.0,2000.0,[],"[1024, 576]",ColorTask_Demo,,,,,HRV,HRV_0042,2022-11-30 17:58:55
,wl-html-keyboard-response,5,41255,0.0-3.0-2.0,,,0.0,5.0,,,,,,,,3763.3999999910593,0.0,1,,,,,,,,,,,,,,,,,,,,HRV,HRV_0042,2022-11-30 17:58:55
,wl-html-keyboard-response,6,49183,0.0-4.0-0.0,,,0.0,6.0,,,,,,,,5919.70000000298,0.0,0,,,,,,,,,,,,,,,,,,,,HRV,HRV_0042,2022-11-30 17:58:55
,wl-html-keyboard-response,7,56959,0.0-5.0-0.0,,,0.0,7.0,,,,,,,,5771.899999991059,0.0,0,,,,,,,,,,,,,,,,,,,,HRV,HRV_0042,2022-11-30 17:58:55
,wl-rdm,8,59357,0.0-6.0-0.0,False,,0.0,8.0,,,,,,,[],,,,,,73.6,0.0,u,0.0,True,1020.9000000059605,62.0,60.0,40.0,307.8488815042174,[],"[1024, 576]",ColorTask,1.0,1.0,,,HRV,HRV_0042,2022-11-30 17:58:55
,wl-rdm,9,61141,0.0-6.1-0.1,False,,0.0,9.0,,,,,,,[],,,,,,53.2,1.0,u,0.0,False,451.59999999403954,28.0,60.0,40.0,258.32539595972696,[],"[1024, 576]",ColorTask,0.0,2.0,,,HRV,HRV_0042,2022-11-30 17:58:55
,wl-rdm,10,63026,0.0-6.2-0.2,False,,0.0,10.0,,,,,,,[],,,,,,62.5,1.0,i,1.0,True,439.59999999403954,27.0,60.0,40.0,376.2701580081924,[],"[1024, 576]",ColorTask,1.0,3.0,,,HRV,HRV_0042,2022-11-30 17:58:55
,wl-rdm,11,64861,0.0-6.3-0.3,False,,0.0,11.0,,,,,,,[],,,,,,62.5,0.0,u,0.0,True,433.29999999701977,26.0,60.0,40.0,341.8762425640093,[],"[1024, 576]",ColorTask,2.0,4.0,,,HRV,HRV_0042,2022-11-30 17:58:55
,wl-rdm,12,66896,0.0-6.4-0.4,False,,0.0,12.0,,,,,,,[],,,,,,53.2,0.0,u,0.0,True,623.1999999880791,38.0,60.0,40.0,335.9452143633843,[],"[1024, 576]",ColorTask,3.0,5.0,,,HRV,HRV_0042,2022-11-30 17:58:55
,wl-rdm,13,68698,0.0-6.5-0.5,False,,0.0,13.0,,,,,,,[],,,,,,50.0,0.0,u,0.0,True,488.29999999701977,30.0,60.0,40.0,236.8761704234641,[],"[1024, 576]",ColorTask,4.0,6.0,,,HRV,HRV_0042,2022-11-30 17:58:55
,wl-rdm,14,70633,0.0-6.6-0.6,False,,0.0,14.0,,,,,,,[],,,,,,50.0,1.0,u,0.0,False,521.8999999910593,32.0,60.0,40.0,346.97818969752655,[],"[1024, 576]",ColorTask,3.0,7.0,,,HRV,HRV_0042,2022-11-30 17:58:55
,wl-rdm,15,72384,0.0-6.7-0.7,False,,0.0,15.0,,,,,,,[],,,,,,50.0,0.0,i,1.0,False,475.5,29.0,60.0,40.0,212.90267075978377,[],"[1024, 576]",ColorTask,2.0,8.0,,,HRV,HRV_0042,2022-11-30 17:58:55
,wl-rdm,16,74169,0.0-6.8-0.8,False,,0.0,16.0,,,,,,,[],,,,,,53.2,1.0,u,0.0,False,434.8999999910593,27.0,60.0,40.0,278.2021343442084,[],"[1024, 576]",ColorTask,1.0,9.0,,,HRV,HRV_0042,2022-11-30 17:58:55
,wl-rdm,17,76137,0.0-6.9-0.9,False,,0.0,17.0,,,,,,,[],,,,,,56.4,1.0,u,0.0,False,530.0,32.0,60.0,40.0,382.1688357320545,[],"[1024, 576]",ColorTask,0.0,10.0,,,HRV,HRV_0042,2022-11-30 17:58:55
,wl-rdm,18,78005,0.0-6.10-0.10,False,,0.0,18.0,,,,,,,[],,,,,,62.5,1.0,i,1.0,True,478.8999999910593,29.0,60.0,40.0,327.6645431287918,[],"[1024, 576]",ColorTask,1.0,11.0,,,HRV,HRV_0042,2022-11-30 17:58:55
,wl-rdm,19,79873,0.0-6.11-0.11,False,,0.0,19.0,,,,,,,[],,,,,,50.0,0.0,u,0.0,True,561.8999999910593,34.0,60.0,40.0,241.1063442714277,[],"[1024, 576]",ColorTask,2.0,12.0,,,HRV,HRV_0042,2022-11-30 17:58:55
,wl-rdm,20,81792,0.0-6.12-0.12,False,,0.0,20.0,,,,,,,[],,,,,,56.4,1.0,i,1.0,True,622.7000000029802,38.0,60.0,40.0,228.0274839606445,[],"[1024, 576]",ColorTask,3.0,13.0,,,HRV,HRV_0042,2022-11-30 17:58:55
,wl-rdm,21,83627,0.0-6.13-0.13,False,,0.0,21.0,,,,,,,[],,,,,,87.9,1.0,i,1.0,True,566.0999999940395,34.0,60.0,40.0,214.17967005955114,[],"[1024, 576]",ColorTask,4.0,14.0,,,HRV,HRV_0042,2022-11-30 17:58:55
,wl-rdm,22,85478,0.0-6.14-0.14,False,,0.0,22.0,,,,,,,[],,,,,,73.6,1.0,i,1.0,True,476.0,29.0,60.0,40.0,305.8785067686132,[],"[1024, 576]",ColorTask,5.0,15.0,,,HRV,HRV_0042,2022-11-30 17:58:55
,wl-rdm,23,87280,0.0-6.15-0.15,False,,0.0,23.0,,,,,,,[],,,,,,87.9,0.0,u,0.0,True,524.9999999850988,32.0,60.0,40.0,202.8745154289147,[],"[1024, 576]",ColorTask,6.0,16.0,,,HRV,HRV_0042,2022-11-30 17:58:55
,wl-rdm,24,89031,0.0-6.16-0.16,False,,0.0,24.0,,,,,,,[],,,,,,87.9,0.0,u,0.0,True,428.2000000178814,26.0,60.0,40.0,265.87875163961786,[],"[1024, 576]",ColorTask,7.0,17.0,,,HRV,HRV_0042,2022-11-30 17:58:55
,wl-rdm,25,90949,0.0-6.17-0.17,False,,0.0,25.0,,,,,,,[],,,,,,73.6,0.0,u,0.0,True,572.5999999940395,35.0,60.0,40.0,266.9973046673896,[],"[1024, 576]",ColorTask,8.0,18.0,,,HRV,HRV_0042,2022-11-30 17:58:55
,wl-rdm,26,92784,0.0-6.18-0.18,False,,0.0,26.0,,,,,,,[],,,,,,53.2,0.0,i,1.0,False,516.3999999910593,31.0,60.0,40.0,259.2461292075406,[],"[1024, 576]",ColorTask,7.0,19.0,,,HRV,HRV_0042,2022-11-30 17:58:55
,wl-rdm,27,94586,0.0-6.19-0.19,False,,0.0,27.0,,,,,,,[],,,,,,87.9,1.0,i,1.0,True,530.9000000059605,32.0,60.0,40.0,200.42993819588585,[],"[1024, 576]",ColorTask,8.0,20.0,,,HRV,HRV_0042,2022-11-30 17:58:55
,wl-rdm,28,96487,0.0-6.20-0.20,False,,0.0,28.0,,,,,,,[],,,,,,87.9,0.0,u,0.0,True,502.90000000596046,31.0,60.0,40.0,331.6319338354419,[],"[1024, 576]",ColorTask,9.0,21.0,,,HRV,HRV_0042,2022-11-30 17:58:55
,wl-rdm,29,98372,0.0-6.21-0.21,False,,0.0,29.0,,,,,,,[],,,,,,62.5,0.0,u,0.0,True,524.7000000029802,32.0,60.0,40.0,291.623550748827,[],"[1024, 576]",ColorTask,10.0,22.0,,,HRV,HRV_0042,2022-11-30 17:58:55
,wl-rdm,30,100107,0.0-6.22-0.22,False,,0.0,30.0,,,,,,,[],,,,,,53.2,0.0,u,0.0,True,389.19999998807907,24.0,60.0,40.0,276.5862950976804,[],"[1024, 576]",ColorTask,11.0,23.0,,,HRV,HRV_0042,2022-11-30 17:58:55
,wl-rdm,31,102242,0.0-6.23-0.23,False,,0.0,31.0,,,,,,,[],,,,,,62.5,1.0,i,1.0,True,725.0999999940395,44.0,60.0,40.0,343.8321539017492,[],"[1024, 576]",ColorTask,12.0,24.0,,,HRV,HRV_0042,2022-11-30 17:58:55
,wl-rdm,32,103977,0.0-6.24-0.24,False,,0.0,32.0,,,,,,,[],,,,,,62.5,1.0,u,0.0,False,456.0,28.0,60.0,40.0,205.41437965590066,[],"[1024, 576]",ColorTask,11.0,25.0,,,HRV,HRV_0042,2022-11-30 17:58:55
,wl-rdm,33,105745,0.0-6.25-0.25,False,,0.0,33.0,,,,,,,[],,,,,,53.2,0.0,u,0.0,True,498.70000000298023,30.0,60.0,40.0,210.218636507606,[],"[1024, 576]",ColorTask,12.0,26.0,,,HRV,HRV_0042,2022-11-30 17:58:55
,wl-rdm,34,107513,0.0-6.26-0.26,False,,0.0,34.0,,,,,,,[],,,,,,53.2,0.0,i,1.0,False,468.90000000596046,29.0,60.0,40.0,230.2050749800966,[],"[1024, 576]",ColorTask,11.0,27.0,,,HRV,HRV_0042,2022-11-30 17:58:55
,wl-rdm,35,109331,0.0-6.27-0.27,False,,0.0,35.0,,,,,,,[],,,,,,50.0,1.0,i,1.0,True,439.3999999910593,27.0,60.0,40.0,303.0854368112988,[],"[1024, 576]",ColorTask,12.0,28.0,,,HRV,HRV_0042,2022-11-30 17:58:55
,wl-rdm,36,111199,0.0-6.28-0.28,False,,0.0,36.0,,,,,,,[],,,,,,53.2,0.0,i,1.0,False,589.2000000029802,36.0,60.0,40.0,209.35317707133362,[],"[1024, 576]",ColorTask,11.0,29.0,,,HRV,HRV_0042,2022-11-30 17:58:55
,wl-rdm,37,113001,0.0-6.29-0.29,False,,0.0,37.0,,,,,,,[],,,,,,73.6,1.0,i,1.0,True,420.70000000298023,26.0,60.0,40.0,301.08641135565847,[],"[1024, 576]",ColorTask,12.0,30.0,,,HRV,HRV_0042,2022-11-30 17:58:55
,wl-rdm,38,114936,0.0-6.30-0.30,False,,0.0,38.0,,,,,,,[],,,,,,62.5,1.0,i,1.0,True,487.6000000089407,30.0,60.0,40.0,375.2110145549148,[],"[1024, 576]",ColorTask,13.0,31.0,,,HRV,HRV_0042,2022-11-30 17:58:55
,wl-rdm,39,116770,0.0-6.31-0.31,False,,0.0,39.0,,,,,,,[],,,,,,73.6,0.0,i,1.0,False,431.0,26.0,60.0,40.0,335.66997780054635,[],"[1024, 576]",ColorTask,12.0,32.0,,,HRV,HRV_0042,2022-11-30 17:58:55
,wl-rdm,40,118805,0.0-6.32-0.32,False,,0.0,40.0,,,,,,,[],,,,,,50.0,1.0,u,0.0,False,687.7000000029802,42.0,60.0,40.0,270.50731565476497,[],"[1024, 576]",ColorTask,11.0,33.0,,,HRV,HRV_0042,2022-11-30 17:58:55
,wl-rdm,41,120890,0.0-6.33-0.33,False,,0.0,41.0,,,,,,,[],,,,,,50.0,1.0,i,1.0,True,711.7999999970198,43.0,60.0,40.0,311.0334729297475,[],"[1024, 576]",ColorTask,12.0,34.0,,,HRV,HRV_0042,2022-11-30 17:58:55
,wl-rdm,42,123142,0.0-6.34-0.34,False,,0.0,42.0,,,,,,,[],,,,,,56.4,1.0,u,0.0,False,955.0,58.0,60.0,40.0,225.47492981967127,[],"[1024, 576]",ColorTask,11.0,35.0,,,HRV,HRV_0042,2022-11-30 17:58:55
,wl-rdm,43,125094,0.0-6.35-0.35,False,,0.0,43.0,,,,,,,[],,,,,,56.4,1.0,i,1.0,True,682.9000000059605,41.0,60.0,40.0,212.4313428320993,[],"[1024, 576]",ColorTask,12.0,36.0,,,HRV,HRV_0042,2022-11-30 17:58:55
,wl-rdm,44,127329,0.0-6.36-0.36,False,,0.0,44.0,,,,,,,[],,,,,,56.4,1.0,i,1.0,True,869.7999999970198,53.0,60.0,40.0,296.73287800549764,[],"[1024, 576]",ColorTask,13.0,37.0,,,HRV,HRV_0042,2022-11-30 17:58:55
,wl-rdm,45,129614,0.0-6.37-0.37,False,,0.0,45.0,,,,,,,[],,,,,,62.5,1.0,u,0.0,False,829.6000000089407,50.0,60.0,40.0,392.4788540446971,[],"[1024, 576]",ColorTask,12.0,38.0,,,HRV,HRV_0042,2022-11-30 17:58:55
,wl-rdm,46,131599,0.0-6.38-0.38,False,,0.0,46.0,,,,,,,[],,,,,,56.4,1.0,i,1.0,True,679.7000000029802,41.0,60.0,40.0,240.8566495711605,[],"[1024, 576]",ColorTask,13.0,39.0,,,HRV,HRV_0042,2022-11-30 17:58:55
,wl-rdm,47,134001,0.0-6.39-0.39,False,,0.0,47.0,,,,,,,[],,,,,,62.5,0.0,u,0.0,True,1079.9000000059605,65.0,60.0,40.0,254.76665574456212,[],"[1024, 576]",ColorTask,14.0,40.0,,,HRV,HRV_0042,2022-11-30 17:58:55
,wl-rdm,48,135969,0.0-6.40-0.40,False,,0.0,48.0,,,,,,,[],,,,,,87.9,1.0,i,1.0,True,657.8999999910593,40.0,60.0,40.0,235.31886296429667,[],"[1024, 576]",ColorTask,15.0,41.0,,,HRV,HRV_0042,2022-11-30 17:58:55
,wl-rdm,49,138038,0.0-6.41-0.41,False,,0.0,49.0,,,,,,,[],,,,,,87.9,1.0,i,1.0,True,626.0,38.0,60.0,40.0,369.60656992577094,[],"[1024, 576]",ColorTask,16.0,42.0,,,HRV,HRV_0042,2022-11-30 17:58:55
,wl-rdm,50,140056,0.0-6.42-0.42,False,,0.0,50.0,,,,,,,[],,,,,,56.4,0.0,u,0.0,True,632.7999999970198,38.0,60.0,40.0,323.34621196151977,[],"[1024, 576]",ColorTask,17.0,43.0,,,HRV,HRV_0042,2022-11-30 17:58:55
,wl-rdm,51,141974,0.0-6.43-0.43,False,,0.0,51.0,,,,,,,[],,,,,,87.9,1.0,i,1.0,True,610.2999999970198,37.0,60.0,40.0,235.69536781564736,[],"[1024, 576]",ColorTask,18.0,44.0,,,HRV,HRV_0042,2022-11-30 17:58:55
,wl-rdm,52,143959,0.0-6.44-0.44,False,,0.0,52.0,,,,,,,[],,,,,,73.6,1.0,i,1.0,True,688.6999999880791,42.0,60.0,40.0,231.79629167250124,[],"[1024, 576]",ColorTask,19.0,45.0,,,HRV,HRV_0042,2022-11-30 17:58:55
,wl-rdm,53,146044,0.0-6.45-0.45,False,,0.0,53.0,,,,,,,[],,,,,,56.4,0.0,u,0.0,True,763.2000000029802,46.0,60.0,40.0,261.32649559696785,[],"[1024, 576]",ColorTask,20.0,46.0,,,HRV,HRV_0042,2022-11-30 17:58:55
,wl-rdm,54,148146,0.0-6.46-0.46,False,,0.0,54.0,,,,,,,[],,,,,,73.6,0.0,u,0.0,True,787.0,48.0,60.0,40.0,245.71133909535916,[],"[1024, 576]",ColorTask,21.0,47.0,,,HRV,HRV_0042,2022-11-30 17:58:55
,wl-rdm,55,150148,0.0-6.47-0.47,False,,0.0,55.0,,,,,,,[],,,,,,73.6,1.0,i,1.0,True,704.5,43.0,60.0,40.0,232.30778530714989,[],"[1024, 576]",ColorTask,22.0,48.0,,,HRV,HRV_0042,2022-11-30 17:58:55
,wl-rdm,56,152683,0.0-6.48-0.48,False,,0.0,56.0,,,,,,,[],,,,,,50.0,1.0,u,0.0,False,1156.2999999970198,70.0,60.0,40.0,301.83600329151454,[],"[1024, 576]",ColorTask,21.0,49.0,,,HRV,HRV_0042,2022-11-30 17:58:55
,wl-rdm,57,155035,0.0-6.49-0.49,False,,0.0,57.0,,,,,,,[],,,,,,50.0,1.0,i,1.0,True,1083.800000011921,65.0,60.0,40.0,206.60213300202747,[],"[1024, 576]",ColorTask,22.0,50.0,,,HRV,HRV_0042,2022-11-30 17:58:55
,wl-rdm,58,157054,0.0-6.50-0.50,False,,0.0,58.0,,,,,,,[],,,,,,87.9,0.0,u,0.0,True,589.5,36.0,60.0,40.0,355.16091975531936,[],"[1024, 576]",ColorTask,23.0,51.0,,,HRV,HRV_0042,2022-11-30 17:58:55
,wl-rdm,59,159055,0.0-6.51-0.51,False,,0.0,59.0,,,,,,,[],,,,,,87.9,1.0,i,1.0,True,640.2999999970198,39.0,60.0,40.0,288.6385419227512,[],"[1024, 576]",ColorTask,24.0,52.0,,,HRV,HRV_0042,2022-11-30 17:58:55
,wl-rdm,60,161190,0.0-6.52-0.52,False,,0.0,60.0,,,,,,,[],,,,,,56.4,0.0,u,0.0,True,809.7999999970198,49.0,60.0,40.0,264.879091378077,[],"[1024, 576]",ColorTask,25.0,53.0,,,HRV,HRV_0042,2022-11-30 17:58:55
,wl-rdm,61,163075,0.0-6.53-0.53,False,,0.0,61.0,,,,,,,[],,,,,,73.6,1.0,i,1.0,True,581.1999999880791,35.0,60.0,40.0,243.15077064602542,[],"[1024, 576]",ColorTask,26.0,54.0,,,HRV,HRV_0042,2022-11-30 17:58:55
,wl-rdm,62,165394,0.0-6.54-0.54,False,,0.0,62.0,,,,,,,[],,,,,,53.2,1.0,i,1.0,True,1024.2000000029802,62.0,60.0,40.0,232.26733857188896,[],"[1024, 576]",ColorTask,27.0,55.0,,,HRV,HRV_0042,2022-11-30 17:58:55
,wl-rdm,63,167846,0.0-6.55-0.55,False,,0.0,63.0,,,,,,,[],,,,,,53.2,1.0,i,1.0,True,1093.3999999910593,66.0,60.0,40.0,289.5677435883651,[],"[1024, 576]",ColorTask,28.0,56.0,,,HRV,HRV_0042,2022-11-30 17:58:55
,wl-rdm,64,169713,0.0-6.56-0.56,False,,0.0,64.0,,,,,,,[],,,,,,73.6,0.0,u,0.0,True,596.2000000029802,36.0,60.0,40.0,209.76949233574308,[],"[1024, 576]",ColorTask,29.0,57.0,,,HRV,HRV_0042,2022-11-30 17:58:55
,wl-rdm,65,172032,0.0-6.57-0.57,False,,0.0,65.0,,,,,,,[],,,,,,53.2,1.0,u,0.0,False,991.1000000089407,60.0,60.0,40.0,261.3308674568855,[],"[1024, 576]",ColorTask,28.0,58.0,,,HRV,HRV_0042,2022-11-30 17:58:55
,wl-rdm,66,174184,0.0-6.58-0.58,False,,0.0,66.0,,,,,,,[],,,,,,50.0,1.0,u,0.0,False,866.1999999880791,52.0,60.0,40.0,217.28120210160847,[],"[1024, 576]",ColorTask,27.0,59.0,,,HRV,HRV_0042,2022-11-30 17:58:55
,wl-rdm,67,176202,0.0-6.59-0.59,False,,0.0,67.0,,,,,,,[],,,,,,73.6,0.0,u,0.0,True,721.2000000029802,44.0,60.0,40.0,218.97961949143948,[],"[1024, 576]",ColorTask,28.0,60.0,,,HRV,HRV_0042,2022-11-30 17:58:55
,wl-rdm,68,178538,0.0-6.60-0.60,False,,0.0,68.0,,,,,,,[],,,,,,56.4,0.0,u,0.0,True,1038.0,63.0,60.0,40.0,226.30879681867293,[],"[1024, 576]",ColorTask,29.0,61.0,,,HRV,HRV_0042,2022-11-30 17:58:55
,wl-rdm,69,180422,0.0-6.61-0.61,False,,0.0,69.0,,,,,,,[],,,,,,62.5,0.0,u,0.0,True,597.7000000029802,36.0,60.0,40.0,218.77585817151152,[],"[1024, 576]",ColorTask,30.0,62.0,,,HRV,HRV_0042,2022-11-30 17:58:55
,wl-rdm,70,182257,0.0-6.62-0.62,False,,0.0,70.0,,,,,,,[],,,,,,87.9,0.0,u,0.0,True,518.2999999970198,32.0,60.0,40.0,238.41854523028485,[],"[1024, 576]",ColorTask,31.0,63.0,,,HRV,HRV_0042,2022-11-30 17:58:55
,wl-rdm,71,184559,0.0-6.63-0.63,False,,0.0,71.0,,,,,,,[],,,,,,53.2,1.0,i,1.0,True,861.7999999970198,52.0,60.0,40.0,372.2829126576255,[],"[1024, 576]",ColorTask,32.0,64.0,,,HRV,HRV_0042,2022-11-30 17:58:55
,wl-rdm,72,186611,0.0-6.64-0.64,False,,0.0,72.0,,,,,,,[],,,,,,56.4,0.0,u,0.0,True,729.8999999910593,44.0,60.0,40.0,263.60238012097636,[],"[1024, 576]",ColorTask,33.0,65.0,,,HRV,HRV_0042,2022-11-30 17:58:55
,wl-rdm,73,188529,0.0-6.65-0.65,False,,0.0,73.0,,,,,,,[],,,,,,56.4,0.0,u,0.0,True,640.8999999910593,39.0,60.0,40.0,216.6850124669067,[],"[1024, 576]",ColorTask,34.0,66.0,,,HRV,HRV_0042,2022-11-30 17:58:55
,wl-rdm,74,190664,0.0-6.66-0.66,False,,0.0,74.0,,,,,,,[],,,,,,50.0,0.0,u,0.0,True,860.2000000029802,52.0,60.0,40.0,204.95322098657695,[],"[1024, 576]",ColorTask,35.0,67.0,,,HRV,HRV_0042,2022-11-30 17:58:55
,wl-rdm,75,192616,0.0-6.67-0.67,False,,0.0,75.0,,,,,,,[],,,,,,56.4,1.0,u,0.0,False,599.3999999910593,36.0,60.0,40.0,286.25116743957574,[],"[1024, 576]",ColorTask,34.0,68.0,,,HRV,HRV_0042,2022-11-30 17:58:55
,wl-rdm,76,194617,0.0-6.68-0.68,False,,0.0,76.0,,,,,,,[],,,,,,50.0,0.0,u,0.0,True,683.5,41.0,60.0,40.0,261.4531120654767,[],"[1024, 576]",ColorTask,35.0,69.0,,,HRV,HRV_0042,2022-11-30 17:58:55
,wl-rdm,77,196852,0.0-6.69-0.69,False,,0.0,77.0,,,,,,,[],,,,,,50.0,1.0,u,0.0,False,853.2000000029802,52.0,60.0,40.0,311.51725194851747,[],"[1024, 576]",ColorTask,34.0,70.0,,,HRV,HRV_0042,2022-11-30 17:58:55
,wl-rdm,78,198871,0.0-6.70-0.70,False,,0.0,78.0,,,,,,,[],,,,,,62.5,1.0,i,1.0,True,732.2999999970198,44.0,60.0,40.0,233.02430405248538,[],"[1024, 576]",ColorTask,35.0,71.0,,,HRV,HRV_0042,2022-11-30 17:58:55
,wl-rdm,79,200839,0.0-6.71-0.71,False,,0.0,79.0,,,,,,,[],,,,,,73.6,0.0,i,1.0,False,504.79999999701977,31.0,60.0,40.0,394.5100300029777,[],"[1024, 576]",ColorTask,34.0,72.0,,,HRV,HRV_0042,2022-11-30 17:58:55
,wl-rdm,80,202774,0.0-6.72-0.72,False,,0.0,80.0,,,,,,,[],,,,,,53.2,0.0,u,0.0,True,654.7000000029802,40.0,60.0,40.0,208.65824517079997,[],"[1024, 576]",ColorTask,35.0,73.0,,,HRV,HRV_0042,2022-11-30 17:58:55
,wl-rdm,81,205009,0.0-6.73-0.73,False,,0.0,81.0,,,,,,,[],,,,,,53.2,1.0,u,0.0,False,964.6000000089407,58.0,60.0,40.0,214.7121179840929,[],"[1024, 576]",ColorTask,34.0,74.0,,,HRV,HRV_0042,2022-11-30 17:58:55
,wl-rdm,82,207261,0.0-6.74-0.74,False,,0.0,82.0,,,,,,,[],,,,,,50.0,0.0,u,0.0,True,829.2000000029802,50.0,60.0,40.0,361.25304976172674,[],"[1024, 576]",ColorTask,35.0,75.0,,,HRV,HRV_0042,2022-11-30 17:58:55
,wl-rdm,83,209129,0.0-6.75-0.75,False,,0.0,83.0,,,,,,,[],,,,,,87.9,0.0,u,0.0,True,600.5,36.0,60.0,40.0,216.0130007979311,[],"[1024, 576]",ColorTask,36.0,76.0,,,HRV,HRV_0042,2022-11-30 17:58:55
,wl-rdm,84,211081,0.0-6.76-0.76,False,,0.0,84.0,,,,,,,[],,,,,,73.6,1.0,i,1.0,True,651.2999999970198,40.0,60.0,40.0,220.1275807006532,[],"[1024, 576]",ColorTask,37.0,77.0,,,HRV,HRV_0042,2022-11-30 17:58:55
,wl-rdm,85,212966,0.0-6.77-0.77,False,,0.0,85.0,,,,,,,[],,,,,,87.9,0.0,u,0.0,True,572.1999999880791,35.0,60.0,40.0,234.8543983841604,[],"[1024, 576]",ColorTask,38.0,78.0,,,HRV,HRV_0042,2022-11-30 17:58:55
,wl-rdm,86,215017,0.0-6.78-0.78,False,,0.0,86.0,,,,,,,[],,,,,,73.6,0.0,u,0.0,True,601.4000000059605,37.0,60.0,40.0,374.1327426362277,[],"[1024, 576]",ColorTask,39.0,79.0,,,HRV,HRV_0042,2022-11-30 17:58:55
,wl-rdm,87,217202,0.0-6.79-0.79,False,,0.0,87.0,,,,,,,[],,,,,,62.5,0.0,u,0.0,True,782.8000000119209,47.0,60.0,40.0,337.0562364625483,[],"[1024, 576]",ColorTask,40.0,80.0,,,HRV,HRV_0042,2022-11-30 17:58:55
,wl-rdm,88,219287,0.0-6.80-0.80,False,,0.0,88.0,,,,,,,[],,,,,,62.5,0.0,u,0.0,True,672.8999999910593,41.0,60.0,40.0,342.8383911440804,[],"[1024, 576]",ColorTask,41.0,81.0,,,HRV,HRV_0042,2022-11-30 17:58:55
,wl-rdm,89,221222,0.0-6.81-0.81,False,,0.0,89.0,,,,,,,[],,,,,,87.9,0.0,u,0.0,True,473.0,29.0,60.0,40.0,393.4581849507729,[],"[1024, 576]",ColorTask,42.0,82.0,,,HRV,HRV_0042,2022-11-30 17:58:55
,wl-rdm,90,223157,0.0-6.82-0.82,False,,0.0,90.0,,,,,,,[],,,,,,73.6,1.0,i,1.0,True,573.0,35.0,60.0,40.0,285.06619524449724,[],"[1024, 576]",ColorTask,43.0,83.0,,,HRV,HRV_0042,2022-11-30 17:58:55
,wl-rdm,91,225292,0.0-6.83-0.83,False,,0.0,91.0,,,,,,,[],,,,,,50.0,0.0,i,1.0,False,858.8999999910593,52.0,60.0,40.0,205.60673194483107,[],"[1024, 576]",ColorTask,42.0,84.0,,,HRV,HRV_0042,2022-11-30 17:58:55
,wl-rdm,92,227294,0.0-6.84-0.84,False,,0.0,92.0,,,,,,,[],,,,,,50.0,0.0,i,1.0,False,726.2000000029802,44.0,60.0,40.0,214.4470569371342,[],"[1024, 576]",ColorTask,41.0,85.0,,,HRV,HRV_0042,2022-11-30 17:58:55
,wl-rdm,93,229279,0.0-6.85-0.85,False,,0.0,93.0,,,,,,,[],,,,,,50.0,0.0,i,1.0,False,654.2999999970198,40.0,60.0,40.0,263.51554838980275,[],"[1024, 576]",ColorTask,40.0,86.0,,,HRV,HRV_0042,2022-11-30 17:58:55
,wl-rdm,94,231164,0.0-6.86-0.86,False,,0.0,94.0,,,,,,,[],,,,,,53.2,1.0,i,1.0,True,593.0,36.0,60.0,40.0,223.36837172597657,[],"[1024, 576]",ColorTask,41.0,87.0,,,HRV,HRV_0042,2022-11-30 17:58:55
,wl-rdm,95,233049,0.0-6.87-0.87,False,,0.0,95.0,,,,,,,[],,,,,,87.9,0.0,u,0.0,True,531.3999999910593,32.0,60.0,40.0,285.6468058324459,[],"[1024, 576]",ColorTask,42.0,88.0,,,HRV,HRV_0042,2022-11-30 17:58:55
,wl-rdm,96,235267,0.0-6.88-0.88,False,,0.0,96.0,,,,,,,[],,,,,,62.5,0.0,u,0.0,True,834.7000000029802,51.0,60.0,40.0,312.68331500825457,[],"[1024, 576]",ColorTask,43.0,89.0,,,HRV,HRV_0042,2022-11-30 17:58:55
,wl-rdm,97,237419,0.0-6.89-0.89,False,,0.0,97.0,,,,,,,[],,,,,,56.4,0.0,u,0.0,True,721.0,44.0,60.0,40.0,355.35162132630745,[],"[1024, 576]",ColorTask,44.0,90.0,,,HRV,HRV_0042,2022-11-30 17:58:55
,wl-rdm,98,239337,0.0-6.90-0.90,False,,0.0,98.0,,,,,,,[],,,,,,87.9,1.0,i,1.0,True,603.6000000089407,37.0,60.0,40.0,235.91568597403008,[],"[1024, 576]",ColorTask,45.0,91.0,,,HRV,HRV_0042,2022-11-30 17:58:55
,wl-rdm,99,241272,0.0-6.91-0.91,False,,0.0,99.0,,,,,,,[],,,,,,53.2,1.0,u,0.0,False,587.0999999940395,36.0,60.0,40.0,277.86951929028976,[],"[1024, 576]",ColorTask,44.0,92.0,,,HRV,HRV_0042,2022-11-30 17:58:55
,wl-rdm,100,243641,0.0-6.92-0.92,False,,0.0,100.0,,,,,,,[],,,,,,56.4,1.0,i,1.0,True,965.8000000119209,58.0,60.0,40.0,341.9984663877983,[],"[1024, 576]",ColorTask,45.0,93.0,,,HRV,HRV_0042,2022-11-30 17:58:55
,wl-rdm,101,245742,0.0-6.93-0.93,False,,0.0,101.0,,,,,,,[],,,,,,73.6,1.0,i,1.0,True,694.2999999970198,42.0,60.0,40.0,339.6374425134837,[],"[1024, 576]",ColorTask,46.0,94.0,,,HRV,HRV_0042,2022-11-30 17:58:55
,wl-rdm,102,247878,0.0-6.94-0.94,False,,0.0,102.0,,,,,,,[],,,,,,73.6,1.0,i,1.0,True,763.5,46.0,60.0,40.0,308.21870552500957,[],"[1024, 576]",ColorTask,47.0,95.0,,,HRV,HRV_0042,2022-11-30 17:58:55
,wl-rdm,103,249913,0.0-6.95-0.95,False,,0.0,103.0,,,,,,,[],,,,,,62.5,0.0,u,0.0,True,753.0999999940395,46.0,60.0,40.0,205.65536604970788,[],"[1024, 576]",ColorTask,48.0,96.0,,,HRV,HRV_0042,2022-11-30 17:58:55
,wl-rdm,104,251931,0.0-6.96-0.96,False,,0.0,104.0,,,,,,,[],,,,,,62.5,0.0,u,0.0,True,676.6000000089407,41.0,60.0,40.0,278.11912033956185,[],"[1024, 576]",ColorTask,49.0,97.0,,,HRV,HRV_0042,2022-11-30 17:58:55
,wl-rdm,105,253916,0.0-6.97-0.97,False,,0.0,105.0,,,,,,,[],,,,,,87.9,1.0,i,1.0,True,571.7000000029802,35.0,60.0,40.0,346.11322816010306,[],"[1024, 576]",ColorTask,50.0,98.0,,,HRV,HRV_0042,2022-11-30 17:58:55
,wl-rdm,106,256251,0.0-6.98-0.98,False,,0.0,106.0,,,,,,,[],,,,,,62.5,1.0,i,1.0,True,1005.2999999970198,61.0,60.0,40.0,256.1369173770715,[],"[1024, 576]",ColorTask,51.0,99.0,,,HRV,HRV_0042,2022-11-30 17:58:55
,wl-rdm,107,258270,0.0-6.99-0.99,False,,0.0,107.0,,,,,,,[],,,,,,73.6,0.0,u,0.0,True,616.2999999970198,37.0,60.0,40.0,338.900802331914,[],"[1024, 576]",ColorTask,52.0,100.0,,,HRV,HRV_0042,2022-11-30 17:58:55
,wl-rdm,108,260888,0.0-6.100-0.100,False,,0.0,108.0,,,,,,,[],,,,,,56.4,1.0,i,1.0,True,1236.0,75.0,60.0,40.0,305.8850186677364,[],"[1024, 576]",ColorTask,53.0,101.0,,,HRV,HRV_0042,2022-11-30 17:58:55
,wl-rdm,109,263057,0.0-6.101-0.101,False,,0.0,109.0,,,,,,,[],,,,,,53.2,0.0,u,0.0,True,733.3000000119209,44.0,60.0,40.0,382.3966960603164,[],"[1024, 576]",ColorTask,54.0,102.0,,,HRV,HRV_0042,2022-11-30 17:58:55
,wl-rdm,110,265409,0.0-6.102-0.102,False,,0.0,110.0,,,,,,,[],,,,,,56.4,0.0,u,0.0,True,905.0,55.0,60.0,40.0,380.3771625832851,[],"[1024, 576]",ColorTask,55.0,103.0,,,HRV,HRV_0042,2022-11-30 17:58:55
,wl-rdm,111,267494,0.0-6.103-0.103,False,,0.0,111.0,,,,,,,[],,,,,,56.4,0.0,u,0.0,True,650.3999999910593,39.0,60.0,40.0,373.6580211707901,[],"[1024, 576]",ColorTask,56.0,104.0,,,HRV,HRV_0042,2022-11-30 17:58:55
,wl-rdm,112,269512,0.0-6.104-0.104,False,,0.0,112.0,,,,,,,[],,,,,,62.5,1.0,i,1.0,True,718.1000000089407,44.0,60.0,40.0,229.08625115205433,[],"[1024, 576]",ColorTask,57.0,105.0,,,HRV,HRV_0042,2022-11-30 17:58:55
,wl-rdm,113,271647,0.0-6.105-0.105,False,,0.0,113.0,,,,,,,[],,,,,,53.2,0.0,i,1.0,False,837.1999999880791,51.0,60.0,40.0,222.0878007969845,[],"[1024, 576]",ColorTask,56.0,106.0,,,HRV,HRV_0042,2022-11-30 17:58:55
,wl-rdm,114,273682,0.0-6.106-0.106,False,,0.0,114.0,,,,,,,[],,,,,,50.0,1.0,i,1.0,True,649.2999999970198,39.0,60.0,40.0,323.6406545261175,[],"[1024, 576]",ColorTask,57.0,107.0,,,HRV,HRV_0042,2022-11-30 17:58:55
,wl-rdm,115,275534,0.0-6.107-0.107,False,,0.0,115.0,,,,,,,[],,,,,,87.9,1.0,i,1.0,True,542.7999999970198,33.0,60.0,40.0,240.799022347859,[],"[1024, 576]",ColorTask,58.0,108.0,,,HRV,HRV_0042,2022-11-30 17:58:55
,wl-html-keyboard-response,116,282962,0.0-7.0-0.0,,,1.0,116.0,,,,,,,,5413.79999999702,1.0,0,,,,,,,,,,,,,,,,,,,,HRV,HRV_0042,2022-11-30 17:58:55
,wl-rdm,117,285041,0.0-8.0-0.0,False,,1.0,117.0,,,,,,,[],,,,,,56.4,0.0,i,1.0,False,730.5,44.0,60.0,40.0,290.6343121111727,[],"[1024, 576]",ColorTask,57.0,1.0,,,HRV,HRV_0042,2022-11-30 17:58:55
,wl-rdm,118,286927,0.0-8.1-0.1,False,,1.0,118.0,,,,,,,[],,,,,,62.5,1.0,i,1.0,True,601.9000000059605,37.0,60.0,40.0,207.15026222804678,[],"[1024, 576]",ColorTask,58.0,2.0,,,HRV,HRV_0042,2022-11-30 17:58:55
,wl-rdm,119,288761,0.0-8.2-0.2,False,,1.0,119.0,,,,,,,[],,,,,,73.6,0.0,u,0.0,True,561.7999999970198,34.0,60.0,40.0,203.25566218843866,[],"[1024, 576]",ColorTask,59.0,3.0,,,HRV,HRV_0042,2022-11-30 17:58:55
,wl-rdm,120,290546,0.0-8.3-0.3,False,,1.0,120.0,,,,,,,[],,,,,,56.4,0.0,u,0.0,True,471.1000000089407,29.0,60.0,40.0,242.44606029677414,[],"[1024, 576]",ColorTask,60.0,4.0,,,HRV,HRV_0042,2022-11-30 17:58:55
,wl-rdm,121,292381,0.0-8.4-0.4,False,,1.0,121.0,,,,,,,[],,,,,,56.4,1.0,i,1.0,True,481.29999999701977,29.0,60.0,40.0,298.1137713591976,[],"[1024, 576]",ColorTask,61.0,5.0,,,HRV,HRV_0042,2022-11-30 17:58:55
,wl-rdm,122,294166,0.0-8.5-0.5,False,,1.0,122.0,,,,,,,[],,,,,,56.4,1.0,i,1.0,True,424.0,26.0,60.0,40.0,284.90170386428906,[],"[1024, 576]",ColorTask,62.0,6.0,,,HRV,HRV_0042,2022-11-30 17:58:55
,wl-rdm,123,296084,0.0-8.6-0.6,False,,1.0,123.0,,,,,,,[],,,,,,53.2,1.0,u,0.0,False,468.29999999701977,29.0,60.0,40.0,372.34761644526907,[],"[1024, 576]",ColorTask,61.0,7.0,,,HRV,HRV_0042,2022-11-30 17:58:55
,wl-rdm,124,297952,0.0-8.7-0.7,False,,1.0,124.0,,,,,,,[],,,,,,50.0,0.0,u,0.0,True,584.2999999970198,36.0,60.0,40.0,206.2627748182963,[],"[1024, 576]",ColorTask,62.0,8.0,,,HRV,HRV_0042,2022-11-30 17:58:55
,wl-rdm,125,299921,0.0-8.8-0.8,False,,1.0,125.0,,,,,,,[],,,,,,73.6,1.0,i,1.0,True,545.8999999910593,33.0,60.0,40.0,365.1981505630579,[],"[1024, 576]",ColorTask,63.0,9.0,,,HRV,HRV_0042,2022-11-30 17:58:55
,wl-rdm,126,301905,0.0-8.9-0.9,False,,1.0,126.0,,,,,,,[],,,,,,73.6,1.0,i,1.0,True,541.0999999940395,33.0,60.0,40.0,366.93780466909135,[],"[1024, 576]",ColorTask,64.0,10.0,,,HRV,HRV_0042,2022-11-30 17:58:55
,wl-rdm,127,303907,0.0-8.10-0.10,False,,1.0,127.0,,,,,,,[],,,,,,56.4,0.0,u,0.0,True,691.7000000029802,42.0,60.0,40.0,244.73065436267913,[],"[1024, 576]",ColorTask,65.0,11.0,,,HRV,HRV_0042,2022-11-30 17:58:55
,wl-rdm,128,305909,0.0-8.11-0.11,False,,1.0,128.0,,,,,,,[],,,,,,73.6,0.0,u,0.0,True,559.4000000059605,34.0,60.0,40.0,380.62830347687725,[],"[1024, 576]",ColorTask,66.0,12.0,,,HRV,HRV_0042,2022-11-30 17:58:55
,wl-rdm,129,307760,0.0-8.12-0.12,False,,1.0,129.0,,,,,,,[],,,,,,87.9,0.0,u,0.0,True,402.69999998807907,25.0,60.0,40.0,381.11706865241376,[],"[1024, 576]",ColorTask,67.0,13.0,,,HRV,HRV_0042,2022-11-30 17:58:55
,wl-rdm,130,309462,0.0-8.13-0.13,False,,1.0,130.0,,,,,,,[],,,,,,87.9,0.0,u,0.0,True,394.70000000298023,24.0,60.0,40.0,250.06606900421545,[],"[1024, 576]",ColorTask,68.0,14.0,,,HRV,HRV_0042,2022-11-30 17:58:55
,wl-rdm,131,311280,0.0-8.14-0.14,False,,1.0,131.0,,,,,,,[],,,,,,62.5,0.0,u,0.0,True,398.8999999910593,24.0,60.0,40.0,361.79894946719764,[],"[1024, 576]",ColorTask,69.0,15.0,,,HRV,HRV_0042,2022-11-30 17:58:55
,wl-rdm,132,313549,0.0-8.15-0.15,False,,1.0,132.0,,,,,,,[],,,,,,62.5,0.0,u,0.0,True,915.0,55.0,60.0,40.0,296.30746261219156,[],"[1024, 576]",ColorTask,70.0,16.0,,,HRV,HRV_0042,2022-11-30 17:58:55
,wl-rdm,133,315450,0.0-8.16-0.16,False,,1.0,133.0,,,,,,,[],,,,,,73.6,1.0,i,1.0,True,574.7999999970198,35.0,60.0,40.0,257.35827938314054,[],"[1024, 576]",ColorTask,71.0,17.0,,,HRV,HRV_0042,2022-11-30 17:58:55
,wl-rdm,134,317318,0.0-8.17-0.17,False,,1.0,134.0,,,,,,,[],,,,,,73.6,0.0,u,0.0,True,573.9000000059605,35.0,60.0,40.0,223.62844800159536,[],"[1024, 576]",ColorTask,72.0,18.0,,,HRV,HRV_0042,2022-11-30 17:58:55
,wl-rdm,135,319437,0.0-8.18-0.18,False,,1.0,135.0,,,,,,,[],,,,,,50.0,0.0,u,0.0,True,770.7999999970198,47.0,60.0,40.0,274.95189599471223,[],"[1024, 576]",ColorTask,73.0,19.0,,,HRV,HRV_0042,2022-11-30 17:58:55
,wl-rdm,136,321255,0.0-8.19-0.19,False,,1.0,136.0,,,,,,,[],,,,,,73.6,1.0,i,1.0,True,474.8999999910593,29.0,60.0,40.0,281.0877003613278,[],"[1024, 576]",ColorTask,74.0,20.0,,,HRV,HRV_0042,2022-11-30 17:58:55
,wl-rdm,137,323140,0.0-8.20-0.20,False,,1.0,137.0,,,,,,,[],,,,,,73.6,0.0,u,0.0,True,480.1000000089407,29.0,60.0,40.0,342.84591719930347,[],"[1024, 576]",ColorTask,75.0,21.0,,,HRV,HRV_0042,2022-11-30 17:58:55
,wl-rdm,138,324974,0.0-8.21-0.21,False,,1.0,138.0,,,,,,,[],,,,,,87.9,1.0,i,1.0,True,551.0,34.0,60.0,40.0,205.3099600902289,[],"[1024, 576]",ColorTask,76.0,22.0,,,HRV,HRV_0042,2022-11-30 17:58:55
,wl-rdm,139,327010,0.0-8.22-0.22,False,,1.0,139.0,,,,,,,[],,,,,,50.0,1.0,i,1.0,True,613.5,37.0,60.0,40.0,363.5125816384221,[],"[1024, 576]",ColorTask,77.0,23.0,,,HRV,HRV_0042,2022-11-30 17:58:55
,wl-rdm,140,329378,0.0-8.23-0.23,False,,1.0,140.0,,,,,,,[],,,,,,50.0,1.0,i,1.0,True,1052.5,64.0,60.0,40.0,248.1758825823398,[],"[1024, 576]",ColorTask,78.0,24.0,,,HRV,HRV_0042,2022-11-30 17:58:55
,wl-rdm,141,331196,0.0-8.24-0.24,False,,1.0,141.0,,,,,,,[],,,,,,53.2,1.0,i,1.0,True,528.5,32.0,60.0,40.0,217.3432566638482,[],"[1024, 576]",ColorTask,79.0,25.0,,,HRV,HRV_0042,2022-11-30 17:58:55
,wl-rdm,142,333198,0.0-8.25-0.25,False,,1.0,142.0,,,,,,,[],,,,,,56.4,0.0,u,0.0,True,612.7999999970198,37.0,60.0,40.0,318.52119592031454,[],"[1024, 576]",ColorTask,80.0,26.0,,,HRV,HRV_0042,2022-11-30 17:58:55
,wl-rdm,143,335266,0.0-8.26-0.26,False,,1.0,143.0,,,,,,,[],,,,,,87.9,1.0,i,1.0,True,697.7000000029802,42.0,60.0,40.0,301.2350188907608,[],"[1024, 576]",ColorTask,81.0,27.0,,,HRV,HRV_0042,2022-11-30 17:58:55
,wl-rdm,144,337185,0.0-8.27-0.27,False,,1.0,144.0,,,,,,,[],,,,,,73.6,1.0,i,1.0,True,641.7000000029802,39.0,60.0,40.0,216.52176282779965,[],"[1024, 576]",ColorTask,82.0,28.0,,,HRV,HRV_0042,2022-11-30 17:58:55
,wl-rdm,145,339270,0.0-8.28-0.28,False,,1.0,145.0,,,,,,,[],,,,,,62.5,1.0,i,1.0,True,816.0,49.0,60.0,40.0,216.53307619028206,[],"[1024, 576]",ColorTask,83.0,29.0,,,HRV,HRV_0042,2022-11-30 17:58:55
,wl-rdm,146,341455,0.0-8.29-0.29,False,,1.0,146.0,,,,,,,[],,,,,,50.0,0.0,i,1.0,False,831.2999999970198,50.0,60.0,40.0,288.8246517753494,[],"[1024, 576]",ColorTask,82.0,30.0,,,HRV,HRV_0042,2022-11-30 17:58:55
,wl-rdm,147,343773,0.0-8.30-0.30,False,,1.0,147.0,,,,,,,[],,,,,,50.0,0.0,i,1.0,False,924.1000000089407,56.0,60.0,40.0,325.78201748702634,[],"[1024, 576]",ColorTask,81.0,31.0,,,HRV,HRV_0042,2022-11-30 17:58:55
,wl-rdm,148,345692,0.0-8.31-0.31,False,,1.0,148.0,,,,,,,[],,,,,,56.4,1.0,i,1.0,True,606.2000000029802,37.0,60.0,40.0,247.38047201766142,[],"[1024, 576]",ColorTask,82.0,32.0,,,HRV,HRV_0042,2022-11-30 17:58:55
,wl-rdm,149,347510,0.0-8.32-0.32,False,,1.0,149.0,,,,,,,[],,,,,,87.9,0.0,u,0.0,True,543.7000000029802,33.0,60.0,40.0,212.16834250610106,[],"[1024, 576]",ColorTask,83.0,33.0,,,HRV,HRV_0042,2022-11-30 17:58:55
,wl-rdm,150,351709,0.0-8.33-0.33,False,,1.0,150.0,,,,,,,[],,,,,,53.2,0.0,u,0.0,True,825.5999999940395,50.0,60.0,40.0,381.1825767464576,[],"[1024, 576]",ColorTask,84.0,34.0,,,HRV,HRV_0042,2022-11-30 17:58:55
,wl-rdm,151,353678,0.0-8.34-0.34,False,,1.0,151.0,,,,,,,[],,,,,,87.9,0.0,u,0.0,True,620.2999999970198,38.0,60.0,40.0,279.1819012353927,[],"[1024, 576]",ColorTask,85.0,35.0,,,HRV,HRV_0042,2022-11-30 17:58:55
,wl-rdm,152,355763,0.0-8.35-0.35,False,,1.0,152.0,,,,,,,[],,,,,,56.4,0.0,u,0.0,True,661.4000000059605,40.0,60.0,40.0,351.32576677395537,[],"[1024, 576]",ColorTask,86.0,36.0,,,HRV,HRV_0042,2022-11-30 17:58:55
,wl-rdm,153,357814,0.0-8.36-0.36,False,,1.0,153.0,,,,,,,[],,,,,,73.6,1.0,i,1.0,True,590.5,36.0,60.0,40.0,387.4038029259274,[],"[1024, 576]",ColorTask,87.0,37.0,,,HRV,HRV_0042,2022-11-30 17:58:55
,wl-rdm,154,359816,0.0-8.37-0.37,False,,1.0,154.0,,,,,,,[],,,,,,53.2,1.0,i,1.0,True,724.5,44.0,60.0,40.0,214.6493057049937,[],"[1024, 576]",ColorTask,88.0,38.0,,,HRV,HRV_0042,2022-11-30 17:58:55
,wl-rdm,155,361934,0.0-8.38-0.38,False,,1.0,155.0,,,,,,,[],,,,,,62.5,0.0,u,0.0,True,721.1000000089407,44.0,60.0,40.0,323.4864800593967,[],"[1024, 576]",ColorTask,89.0,39.0,,,HRV,HRV_0042,2022-11-30 17:58:55
,wl-rdm,156,363936,0.0-8.39-0.39,False,,1.0,156.0,,,,,,,[],,,,,,73.6,0.0,u,0.0,True,588.7000000029802,36.0,60.0,40.0,345.9922991774227,[],"[1024, 576]",ColorTask,90.0,40.0,,,HRV,HRV_0042,2022-11-30 17:58:55
,wl-rdm,157,365821,0.0-8.40-0.40,False,,1.0,157.0,,,,,,,[],,,,,,62.5,0.0,u,0.0,True,543.7999999970198,33.0,60.0,40.0,272.66599364106,[],"[1024, 576]",ColorTask,91.0,41.0,,,HRV,HRV_0042,2022-11-30 17:58:55
,wl-rdm,158,367639,0.0-8.41-0.41,False,,1.0,158.0,,,,,,,[],,,,,,87.9,0.0,u,0.0,True,547.7999999970198,33.0,60.0,40.0,215.01479262126685,[],"[1024, 576]",ColorTask,92.0,42.0,,,HRV,HRV_0042,2022-11-30 17:58:55
,wl-rdm,159,369757,0.0-8.42-0.42,False,,1.0,159.0,,,,,,,[],,,,,,56.4,0.0,i,1.0,False,777.8999999910593,47.0,60.0,40.0,274.8013449718511,[],"[1024, 576]",ColorTask,91.0,43.0,,,HRV,HRV_0042,2022-11-30 17:58:55
,wl-rdm,160,371609,0.0-8.43-0.43,False,,1.0,160.0,,,,,,,[],,,,,,73.6,1.0,i,1.0,True,521.1999999880791,32.0,60.0,40.0,251.621339717567,[],"[1024, 576]",ColorTask,92.0,44.0,,,HRV,HRV_0042,2022-11-30 17:58:55
,wl-rdm,161,373444,0.0-8.44-0.44,False,,1.0,161.0,,,,,,,[],,,,,,87.9,0.0,u,0.0,True,514.7999999970198,31.0,60.0,40.0,257.50640993800687,[],"[1024, 576]",ColorTask,93.0,45.0,,,HRV,HRV_0042,2022-11-30 17:58:55
,wl-rdm,162,375245,0.0-8.45-0.45,False,,1.0,162.0,,,,,,,[],,,,,,87.9,1.0,i,1.0,True,463.29999999701977,28.0,60.0,40.0,274.8482850007858,[],"[1024, 576]",ColorTask,94.0,46.0,,,HRV,HRV_0042,2022-11-30 17:58:55
,wl-rdm,163,377114,0.0-8.46-0.46,False,,1.0,163.0,,,,,,,[],,,,,,50.0,1.0,u,0.0,False,579.7000000029802,35.0,60.0,40.0,226.11563513112804,[],"[1024, 576]",ColorTask,93.0,47.0,,,HRV,HRV_0042,2022-11-30 17:58:55
,wl-rdm,164,379182,0.0-8.47-0.47,False,,1.0,164.0,,,,,,,[],,,,,,50.0,1.0,i,1.0,True,797.7999999970198,48.0,60.0,40.0,212.08735666200116,[],"[1024, 576]",ColorTask,94.0,48.0,,,HRV,HRV_0042,2022-11-30 17:58:55
,wl-rdm,165,381234,0.0-8.48-0.48,False,,1.0,165.0,,,,,,,[],,,,,,50.0,1.0,i,1.0,True,676.7999999970198,41.0,60.0,40.0,300.6469950328995,[],"[1024, 576]",ColorTask,95.0,49.0,,,HRV,HRV_0042,2022-11-30 17:58:55
,wl-rdm,166,383335,0.0-8.49-0.49,False,,1.0,166.0,,,,,,,[],,,,,,53.2,1.0,i,1.0,True,751.0999999940395,46.0,60.0,40.0,274.10992406082937,[],"[1024, 576]",ColorTask,96.0,50.0,,,HRV,HRV_0042,2022-11-30 17:58:55
,wl-rdm,167,385153,0.0-8.50-0.50,False,,1.0,167.0,,,,,,,[],,,,,,62.5,0.0,u,0.0,True,538.5999999940395,33.0,60.0,40.0,211.98615565460773,[],"[1024, 576]",ColorTask,97.0,51.0,,,HRV,HRV_0042,2022-11-30 17:58:55
,wl-rdm,168,386972,0.0-8.51-0.51,False,,1.0,168.0,,,,,,,[],,,,,,62.5,0.0,u,0.0,True,492.90000000596046,30.0,60.0,40.0,256.2681018605974,[],"[1024, 576]",ColorTask,98.0,52.0,,,HRV,HRV_0042,2022-11-30 17:58:55
,wl-rdm,169,389023,0.0-8.52-0.52,False,,1.0,169.0,,,,,,,[],,,,,,62.5,1.0,i,1.0,True,605.5,37.0,60.0,40.0,377.93121357010415,[],"[1024, 576]",ColorTask,99.0,53.0,,,HRV,HRV_0042,2022-11-30 17:58:55
,wl-rdm,170,390908,0.0-8.53-0.53,False,,1.0,170.0,,,,,,,[],,,,,,87.9,1.0,i,1.0,True,610.4000000059605,37.0,60.0,40.0,214.2069366952886,[],"[1024, 576]",ColorTask,100.0,54.0,,,HRV,HRV_0042,2022-11-30 17:58:55
,wl-rdm,171,392826,0.0-8.54-0.54,False,,1.0,171.0,,,,,,,[],,,,,,73.6,1.0,i,1.0,True,521.2999999970198,32.0,60.0,40.0,326.2759675764174,[],"[1024, 576]",ColorTask,101.0,55.0,,,HRV,HRV_0042,2022-11-30 17:58:55
,wl-rdm,172,394578,0.0-8.55-0.55,False,,1.0,172.0,,,,,,,[],,,,,,87.9,1.0,i,1.0,True,491.30000001192093,30.0,60.0,40.0,200.01128552191466,[],"[1024, 576]",ColorTask,102.0,56.0,,,HRV,HRV_0042,2022-11-30 17:58:55
,wl-rdm,173,396630,0.0-8.56-0.56,False,,1.0,173.0,,,,,,,[],,,,,,53.2,0.0,i,1.0,False,687.4000000059605,42.0,60.0,40.0,296.4668481929455,[],"[1024, 576]",ColorTask,101.0,57.0,,,HRV,HRV_0042,2022-11-30 17:58:55
,wl-rdm,174,398498,0.0-8.57-0.57,False,,1.0,174.0,,,,,,,[],,,,,,50.0,1.0,i,1.0,True,469.5,29.0,60.0,40.0,322.8967841849211,[],"[1024, 576]",ColorTask,102.0,58.0,,,HRV,HRV_0042,2022-11-30 17:58:55
,wl-rdm,175,400500,0.0-8.58-0.58,False,,1.0,175.0,,,,,,,[],,,,,,50.0,0.0,i,1.0,False,654.0999999940395,40.0,60.0,40.0,276.5198720356446,[],"[1024, 576]",ColorTask,101.0,59.0,,,HRV,HRV_0042,2022-11-30 17:58:55
,wl-rdm,176,402468,0.0-8.59-0.59,False,,1.0,176.0,,,,,,,[],,,,,,62.5,1.0,i,1.0,True,515.5,31.0,60.0,40.0,397.0040137010738,[],"[1024, 576]",ColorTask,102.0,60.0,,,HRV,HRV_0042,2022-11-30 17:58:55
,wl-rdm,177,404453,0.0-8.60-0.60,False,,1.0,177.0,,,,,,,[],,,,,,53.2,1.0,i,1.0,True,527.4000000059605,32.0,60.0,40.0,385.45028458903033,[],"[1024, 576]",ColorTask,103.0,61.0,,,HRV,HRV_0042,2022-11-30 17:58:55
,wl-rdm,178,406171,0.0-8.61-0.61,False,,1.0,178.0,,,,,,,[],,,,,,73.6,0.0,u,0.0,True,419.20000000298023,26.0,60.0,40.0,230.37127667507073,[],"[1024, 576]",ColorTask,104.0,62.0,,,HRV,HRV_0042,2022-11-30 17:58:55
,wl-rdm,179,408056,0.0-8.62-0.62,False,,1.0,179.0,,,,,,,[],,,,,,53.2,1.0,u,0.0,False,608.0999999940395,37.0,60.0,40.0,211.58139216248853,[],"[1024, 576]",ColorTask,103.0,63.0,,,HRV,HRV_0042,2022-11-30 17:58:55
,wl-rdm,180,410041,0.0-8.63-0.63,False,,1.0,180.0,,,,,,,[],,,,,,56.4,1.0,i,1.0,True,602.9000000059605,37.0,60.0,40.0,305.82598493103666,[],"[1024, 576]",ColorTask,104.0,64.0,,,HRV,HRV_0042,2022-11-30 17:58:55
,wl-rdm,181,412143,0.0-8.64-0.64,False,,1.0,181.0,,,,,,,[],,,,,,53.2,0.0,u,0.0,True,699.7000000029802,42.0,60.0,40.0,347.49355738363397,[],"[1024, 576]",ColorTask,105.0,65.0,,,HRV,HRV_0042,2022-11-30 17:58:55
,wl-rdm,182,414145,0.0-8.65-0.65,False,,1.0,182.0,,,,,,,[],,,,,,62.5,1.0,i,1.0,True,733.9000000059605,44.0,60.0,40.0,201.8124181785731,[],"[1024, 576]",ColorTask,106.0,66.0,,,HRV,HRV_0042,2022-11-30 17:58:55
,wl-rdm,183,416163,0.0-8.66-0.66,False,,1.0,183.0,,,,,,,[],,,,,,87.9,0.0,u,0.0,True,567.8000000119209,35.0,60.0,40.0,381.93375548046674,[],"[1024, 576]",ColorTask,107.0,67.0,,,HRV,HRV_0042,2022-11-30 17:58:55
,wl-rdm,184,417998,0.0-8.67-0.67,False,,1.0,184.0,,,,,,,[],,,,,,53.2,0.0,u,0.0,True,561.6000000089407,34.0,60.0,40.0,205.53180086887983,[],"[1024, 576]",ColorTask,108.0,68.0,,,HRV,HRV_0042,2022-11-30 17:58:55
,wl-rdm,185,419816,0.0-8.68-0.68,False,,1.0,185.0,,,,,,,[],,,,,,73.6,0.0,u,0.0,True,482.1000000089407,29.0,60.0,40.0,275.5018992339292,[],"[1024, 576]",ColorTask,109.0,69.0,,,HRV,HRV_0042,2022-11-30 17:58:55
,wl-rdm,186,421517,0.0-8.69-0.69,False,,1.0,186.0,,,,,,,[],,,,,,53.2,1.0,u,0.0,False,418.1000000089407,26.0,60.0,40.0,210.30241853680099,[],"[1024, 576]",ColorTask,108.0,70.0,,,HRV,HRV_0042,2022-11-30 17:58:55
,wl-rdm,187,423486,0.0-8.70-0.70,False,,1.0,187.0,,,,,,,[],,,,,,56.4,1.0,i,1.0,True,546.5999999940395,33.0,60.0,40.0,353.3381845068854,[],"[1024, 576]",ColorTask,109.0,71.0,,,HRV,HRV_0042,2022-11-30 17:58:55
,wl-rdm,188,425404,0.0-8.71-0.71,False,,1.0,188.0,,,,,,,[],,,,,,53.2,1.0,i,1.0,True,540.7999999970198,33.0,60.0,40.0,300.97428715996784,[],"[1024, 576]",ColorTask,110.0,72.0,,,HRV,HRV_0042,2022-11-30 17:58:55
,wl-rdm,189,427389,0.0-8.72-0.72,False,,1.0,189.0,,,,,,,[],,,,,,62.5,1.0,i,1.0,True,602.8999999910593,37.0,60.0,40.0,305.0981299591161,[],"[1024, 576]",ColorTask,111.0,73.0,,,HRV,HRV_0042,2022-11-30 17:58:55
,wl-rdm,190,429357,0.0-8.73-0.73,False,,1.0,190.0,,,,,,,[],,,,,,56.4,1.0,i,1.0,True,697.7000000029802,42.0,60.0,40.0,206.70157617129152,[],"[1024, 576]",ColorTask,112.0,74.0,,,HRV,HRV_0042,2022-11-30 17:58:55
,wl-rdm,191,431125,0.0-8.74-0.74,False,,1.0,191.0,,,,,,,[],,,,,,87.9,1.0,i,1.0,True,484.59999999403954,30.0,60.0,40.0,201.9588742792235,[],"[1024, 576]",ColorTask,113.0,75.0,,,HRV,HRV_0042,2022-11-30 17:58:55
,wl-rdm,192,433210,0.0-8.75-0.75,False,,1.0,192.0,,,,,,,[],,,,,,73.6,1.0,i,1.0,True,625.4000000059605,38.0,60.0,40.0,398.59392708664654,[],"[1024, 576]",ColorTask,114.0,76.0,,,HRV,HRV_0042,2022-11-30 17:58:55
,wl-rdm,193,435145,0.0-8.76-0.76,False,,1.0,193.0,,,,,,,[],,,,,,50.0,0.0,u,0.0,True,592.1000000089407,36.0,60.0,40.0,283.35335264035416,[],"[1024, 576]",ColorTask,115.0,77.0,,,HRV,HRV_0042,2022-11-30 17:58:55
,wl-rdm,194,436997,0.0-8.77-0.77,False,,1.0,194.0,,,,,,,[],,,,,,50.0,1.0,u,0.0,False,502.1000000089407,31.0,60.0,40.0,277.6846345226718,[],"[1024, 576]",ColorTask,114.0,78.0,,,HRV,HRV_0042,2022-11-30 17:58:55
,wl-rdm,195,438932,0.0-8.78-0.78,False,,1.0,195.0,,,,,,,[],,,,,,87.9,1.0,i,1.0,True,602.0999999940395,37.0,60.0,40.0,250.92470638802462,[],"[1024, 576]",ColorTask,115.0,79.0,,,HRV,HRV_0042,2022-11-30 17:58:55
,wl-rdm,196,441150,0.0-8.79-0.79,False,,1.0,196.0,,,,,,,[],,,,,,53.2,1.0,u,0.0,False,756.7000000029802,46.0,60.0,40.0,396.6877789115198,[],"[1024, 576]",ColorTask,114.0,80.0,,,HRV,HRV_0042,2022-11-30 17:58:55
,wl-rdm,197,443018,0.0-8.80-0.80,False,,1.0,197.0,,,,,,,[],,,,,,50.0,0.0,u,0.0,True,527.1000000089407,32.0,60.0,40.0,275.73132225528764,[],"[1024, 576]",ColorTask,115.0,81.0,,,HRV,HRV_0042,2022-11-30 17:58:55
,wl-rdm,198,444903,0.0-8.81-0.81,False,,1.0,198.0,,,,,,,[],,,,,,62.5,0.0,u,0.0,True,582.4000000059605,35.0,60.0,40.0,235.99771182592292,[],"[1024, 576]",ColorTask,116.0,82.0,,,HRV,HRV_0042,2022-11-30 17:58:55
,wl-rdm,199,446871,0.0-8.82-0.82,False,,1.0,199.0,,,,,,,[],,,,,,87.9,1.0,i,1.0,True,538.0999999940395,33.0,60.0,40.0,366.68102310369653,[],"[1024, 576]",ColorTask,117.0,83.0,,,HRV,HRV_0042,2022-11-30 17:58:55
,wl-rdm,200,448823,0.0-8.83-0.83,False,,1.0,200.0,,,,,,,[],,,,,,87.9,0.0,u,0.0,True,493.8999999910593,30.0,60.0,40.0,388.96781720504725,[],"[1024, 576]",ColorTask,118.0,84.0,,,HRV,HRV_0042,2022-11-30 17:58:55
,wl-rdm,201,451092,0.0-8.84-0.84,False,,1.0,201.0,,,,,,,[],,,,,,50.0,1.0,u,0.0,False,843.6999999880791,51.0,60.0,40.0,363.0871625040829,[],"[1024, 576]",ColorTask,117.0,85.0,,,HRV,HRV_0042,2022-11-30 17:58:55
,wl-rdm,202,452960,0.0-8.85-0.85,False,,1.0,202.0,,,,,,,[],,,,,,62.5,0.0,u,0.0,True,597.2999999970198,36.0,60.0,40.0,203.3847241820152,[],"[1024, 576]",ColorTask,118.0,86.0,,,HRV,HRV_0042,2022-11-30 17:58:55
,wl-rdm,203,454795,0.0-8.86-0.86,False,,1.0,203.0,,,,,,,[],,,,,,56.4,0.0,u,0.0,True,485.20000000298023,30.0,60.0,40.0,271.50651024447814,[],"[1024, 576]",ColorTask,119.0,87.0,,,HRV,HRV_0042,2022-11-30 17:58:55
,wl-rdm,204,456629,0.0-8.87-0.87,False,,1.0,204.0,,,,,,,[],,,,,,50.0,1.0,i,1.0,True,444.79999999701977,27.0,60.0,40.0,329.65807001716587,[],"[1024, 576]",ColorTask,120.0,88.0,,,HRV,HRV_0042,2022-11-30 17:58:55
,wl-rdm,205,458515,0.0-8.88-0.88,False,,1.0,205.0,,,,,,,[],,,,,,53.2,0.0,u,0.0,True,450.09999999403954,27.0,60.0,40.0,367.61324467033444,[],"[1024, 576]",ColorTask,121.0,89.0,,,HRV,HRV_0042,2022-11-30 17:58:55
,wl-rdm,206,460416,0.0-8.89-0.89,False,,1.0,206.0,,,,,,,[],,,,,,50.0,0.0,u,0.0,True,521.8999999910593,32.0,60.0,40.0,316.6438045450924,[],"[1024, 576]",ColorTask,122.0,90.0,,,HRV,HRV_0042,2022-11-30 17:58:55
,wl-rdm,207,462318,0.0-8.90-0.90,False,,1.0,207.0,,,,,,,[],,,,,,73.6,0.0,u,0.0,True,449.30000001192093,27.0,60.0,40.0,393.7448410062167,[],"[1024, 576]",ColorTask,123.0,91.0,,,HRV,HRV_0042,2022-11-30 17:58:55
,wl-rdm,208,464186,0.0-8.91-0.91,False,,1.0,208.0,,,,,,,[],,,,,,62.5,1.0,i,1.0,True,481.90000000596046,29.0,60.0,40.0,319.16392174847044,[],"[1024, 576]",ColorTask,124.0,92.0,,,HRV,HRV_0042,2022-11-30 17:58:55
,wl-rdm,209,466221,0.0-8.92-0.92,False,,1.0,209.0,,,,,,,[],,,,,,53.2,0.0,i,1.0,False,605.3000000119209,37.0,60.0,40.0,365.49152226143644,[],"[1024, 576]",ColorTask,123.0,93.0,,,HRV,HRV_0042,2022-11-30 17:58:55
,wl-rdm,210,468106,0.0-8.93-0.93,False,,1.0,210.0,,,,,,,[],,,,,,56.4,0.0,u,0.0,True,510.5,31.0,60.0,40.0,310.9615683284786,[],"[1024, 576]",ColorTask,124.0,94.0,,,HRV,HRV_0042,2022-11-30 17:58:55
,wl-rdm,211,469924,0.0-8.94-0.94,False,,1.0,211.0,,,,,,,[],,,,,,53.2,0.0,u,0.0,True,531.5,32.0,60.0,40.0,217.32227456815346,[],"[1024, 576]",ColorTask,125.0,95.0,,,HRV,HRV_0042,2022-11-30 17:58:55
,wl-rdm,212,471859,0.0-8.95-0.95,False,,1.0,212.0,,,,,,,[],,,,,,87.9,0.0,u,0.0,True,548.2000000029802,33.0,60.0,40.0,331.32492222095925,[],"[1024, 576]",ColorTask,126.0,96.0,,,HRV,HRV_0042,2022-11-30 17:58:55
,wl-rdm,213,474077,0.0-8.96-0.96,False,,1.0,213.0,,,,,,,[],,,,,,53.2,0.0,u,0.0,True,869.4000000059605,53.0,60.0,40.0,280.2327357758253,[],"[1024, 576]",ColorTask,127.0,97.0,,,HRV,HRV_0042,2022-11-30 17:58:55
,wl-rdm,214,475962,0.0-8.97-0.97,False,,1.0,214.0,,,,,,,[],,,,,,73.6,0.0,u,0.0,True,489.80000001192093,30.0,60.0,40.0,326.9982905506747,[],"[1024, 576]",ColorTask,128.0,98.0,,,HRV,HRV_0042,2022-11-30 17:58:55
,wl-rdm,215,478030,0.0-8.98-0.98,False,,1.0,215.0,,,,,,,[],,,,,,56.4,1.0,u,0.0,False,725.0,44.0,60.0,40.0,272.7066082780715,[],"[1024, 576]",ColorTask,127.0,99.0,,,HRV,HRV_0042,2022-11-30 17:58:55
,wl-rdm,216,479915,0.0-8.99-0.99,False,,1.0,216.0,,,,,,,[],,,,,,53.2,0.0,u,0.0,True,529.9000000059605,32.0,60.0,40.0,288.07772496748305,[],"[1024, 576]",ColorTask,128.0,100.0,,,HRV,HRV_0042,2022-11-30 17:58:55
,wl-rdm,217,482034,0.0-8.100-0.100,False,,1.0,217.0,,,,,,,[],,,,,,62.5,1.0,i,1.0,True,660.0999999940395,40.0,60.0,40.0,399.6397660834012,[],"[1024, 576]",ColorTask,129.0,101.0,,,HRV,HRV_0042,2022-11-30 17:58:55
,wl-rdm,218,484035,0.0-8.101-0.101,False,,1.0,218.0,,,,,,,[],,,,,,62.5,1.0,i,1.0,True,644.0,39.0,60.0,40.0,299.1233877120633,[],"[1024, 576]",ColorTask,130.0,102.0,,,HRV,HRV_0042,2022-11-30 17:58:55
,wl-rdm,219,486037,0.0-8.102-0.102,False,,1.0,219.0,,,,,,,[],,,,,,87.9,1.0,i,1.0,True,545.0999999940395,33.0,60.0,40.0,390.49031171185425,[],"[1024, 576]",ColorTask,131.0,103.0,,,HRV,HRV_0042,2022-11-30 17:58:55
,wl-rdm,220,488139,0.0-8.103-0.103,False,,1.0,220.0,,,,,,,[],,,,,,50.0,0.0,u,0.0,True,669.1999999880791,41.0,60.0,40.0,355.9727189313896,[],"[1024, 576]",ColorTask,132.0,104.0,,,HRV,HRV_0042,2022-11-30 17:58:55
,wl-rdm,221,490224,0.0-8.104-0.104,False,,1.0,221.0,,,,,,,[],,,,,,56.4,1.0,u,0.0,False,793.0,48.0,60.0,40.0,227.40823147607813,[],"[1024, 576]",ColorTask,131.0,105.0,,,HRV,HRV_0042,2022-11-30 17:58:55
,wl-rdm,222,492042,0.0-8.105-0.105,False,,1.0,222.0,,,,,,,[],,,,,,56.4,0.0,u,0.0,True,547.4000000059605,33.0,60.0,40.0,201.99142401667444,[],"[1024, 576]",ColorTask,132.0,106.0,,,HRV,HRV_0042,2022-11-30 17:58:55
,wl-rdm,223,494160,0.0-8.106-0.106,False,,1.0,223.0,,,,,,,[],,,,,,62.5,0.0,u,0.0,True,677.5,41.0,60.0,40.0,368.447534031699,[],"[1024, 576]",ColorTask,133.0,107.0,,,HRV,HRV_0042,2022-11-30 17:58:55
,wl-rdm,224,495962,0.0-8.107-0.107,False,,1.0,224.0,,,,,,,[],,,,,,56.4,1.0,u,0.0,False,475.6000000089407,29.0,60.0,40.0,250.59046074245305,[],"[1024, 576]",ColorTask,132.0,108.0,,,HRV,HRV_0042,2022-11-30 17:58:55
,wl-html-button-response,225,498703,0.0-9.0-0.0,,,,,,,,,,,,2738.7999999970198,,0,,,,,,,,,,,,,,,,,,<h3>End of this session. Thank you!</h3><br>,['Close window'],HRV,HRV_0042,2022-11-30 17:58:55
