trialN,stimuli,trialStartTime,trialStartTime_UNIX,stimulus1,stimulus2,stimulus1Bid,stimulus2Bid,delta,selected,rsp,rt,rt_UNIX,receivedResponse,trialEndTime,trialDuration,trialEndTime_UNIX,trialDuration_UNIX,rt_perfnow,exp,subjectId,date
0,"[{'imgObject': {}, 'id': 'strawberries', 'src': '/static/foodstim60/strawberries.jpg', 'key': 'u', 'origWidth': 410, 'origHeight': 410, 'width': 410, 'height': 410, 'widthPercent': 0.45, 'rescaleHeight': False, 'trialN': 0, 'loaded': True, 'loadedTime': 2216.100000023842, 'positionName': 'LEFT', 'positionCoords': [327.28, 227], 'bid': 8.59}, {'imgObject': {}, 'id': 'rigatoni', 'src': '/static/foodstim60/rigatoni.jpg', 'key': 'i', 'origWidth': 411, 'origHeight': 411, 'width': 411, 'height': 411, 'widthPercent': 0.45, 'rescaleHeight': False, 'trialN': 0, 'loaded': True, 'loadedTime': 2267.2000000476837, 'positionName': 'RIGHT', 'positionCoords': [798.72, 226.5], 'bid': 7.85}]",2544.4000000953674,1669843954760,strawberries,rigatoni,8.59,7.85,-0.7400000000000002,NaN,NaN,NaN,NaN,False,6568.200000047684,4023.7999999523163,1669843958784,4024,,HRV,HRV_0303,2022-11-30 21:37:06
1,"[{'imgObject': {}, 'id': 'Grapes', 'src': '/static/foodstim60/Grapes.jpg', 'key': 'u', 'origWidth': 411, 'origHeight': 411, 'width': 411, 'height': 411, 'widthPercent': 0.45, 'rescaleHeight': False, 'trialN': 1, 'loaded': True, 'loadedTime': 2269.2000000476837, 'positionName': 'LEFT', 'positionCoords': [326.28, 226.5], 'bid': 6.7700000000000005}, {'imgObject': {}, 'id': 'apple slices', 'src': '/static/foodstim60/apple slices.jpg', 'key': 'i', 'origWidth': 409, 'origHeight': 410, 'width': 409, 'height': 410, 'widthPercent': 0.45, 'rescaleHeight': False, 'trialN': 1, 'loaded': True, 'loadedTime': 2275.2000000476837, 'positionName': 'RIGHT', 'positionCoords': [798.72, 227], 'bid': 6.83}]",6568.5,1669843958784,Grapes,apple slices,6.7700000000000005,6.83,0.05999999999999961,NaN,NaN,NaN,NaN,False,10598.400000095367,4029.9000000953674,1669843962814,4030,,HRV,HRV_0303,2022-11-30 21:37:06
2,"[{'imgObject': {}, 'id': 'eggs', 'src': '/static/foodstim60/eggs.jpg', 'key': 'u', 'origWidth': 409, 'origHeight': 409, 'width': 409, 'height': 409, 'widthPercent': 0.45, 'rescaleHeight': False, 'trialN': 2, 'loaded': True, 'loadedTime': 2276.4000000953674, 'positionName': 'LEFT', 'positionCoords': [328.28, 227.5], 'bid': 5.03}, {'imgObject': {}, 'id': 'cherries', 'src': '/static/foodstim60/cherries.jpg', 'key': 'i', 'origWidth': 410, 'origHeight': 411, 'width': 410, 'height': 411, 'widthPercent': 0.45, 'rescaleHeight': False, 'trialN': 2, 'loaded': True, 'loadedTime': 2277.7000000476837, 'positionName': 'RIGHT', 'positionCoords': [798.72, 226.5], 'bid': 4.38}]",10598.600000023842,1669843962814,eggs,cherries,5.03,4.38,-0.6500000000000004,eggs,u,356,357,True,11475.700000047684,877.1000000238419,1669843963691,877,356.8000000715256,HRV,HRV_0303,2022-11-30 21:37:06
3,"[{'imgObject': {}, 'id': 'salmon', 'src': '/static/foodstim60/salmon.jpg', 'key': 'u', 'origWidth': 410, 'origHeight': 409, 'width': 410, 'height': 409, 'widthPercent': 0.45, 'rescaleHeight': False, 'trialN': 3, 'loaded': True, 'loadedTime': 2280.3000000715256, 'positionName': 'LEFT', 'positionCoords': [327.28, 227.5], 'bid': 7.13}, {'imgObject': {}, 'id': 'chicken nuggets2', 'src': '/static/foodstim60/chicken nuggets2.jpg', 'key': 'i', 'origWidth': 410, 'origHeight': 409, 'width': 410, 'height': 409, 'widthPercent': 0.45, 'rescaleHeight': False, 'trialN': 3, 'loaded': True, 'loadedTime': 2282.4000000953674, 'positionName': 'RIGHT', 'positionCoords': [798.72, 227.5], 'bid': 5.87}]",11476.0,1669843963691,salmon,chicken nuggets2,7.13,5.87,-1.2599999999999998,salmon,u,1246.1000000238419,1247,True,13243.700000047684,1767.7000000476837,1669843965459,1768,1246.4000000953674,HRV,HRV_0303,2022-11-30 21:37:06
4,"[{'imgObject': {}, 'id': 'edamame', 'src': '/static/foodstim60/edamame.jpg', 'key': 'u', 'origWidth': 409, 'origHeight': 410, 'width': 409, 'height': 410, 'widthPercent': 0.45, 'rescaleHeight': False, 'trialN': 4, 'loaded': True, 'loadedTime': 2284.4000000953674, 'positionName': 'LEFT', 'positionCoords': [328.28, 227], 'bid': 0.15}, {'imgObject': {}, 'id': 'yogurt no spoon', 'src': '/static/foodstim60/yogurt no spoon.jpg', 'key': 'i', 'origWidth': 411, 'origHeight': 410, 'width': 411, 'height': 410, 'widthPercent': 0.45, 'rescaleHeight': False, 'trialN': 4, 'loaded': True, 'loadedTime': 2285.3000000715256, 'positionName': 'RIGHT', 'positionCoords': [798.72, 227], 'bid': 0.23}]",13243.800000071526,1669843965459,edamame,yogurt no spoon,0.15,0.23,0.08000000000000002,yogurt no spoon,i,840.1000000238419,841,True,14586.300000071526,1342.5,1669843966802,1343,840.6999999284744,HRV,HRV_0303,2022-11-30 21:37:06
5,"[{'imgObject': {}, 'id': 'baked potato', 'src': '/static/foodstim60/baked potato.jpg', 'key': 'u', 'origWidth': 409, 'origHeight': 410, 'width': 409, 'height': 410, 'widthPercent': 0.45, 'rescaleHeight': False, 'trialN': 5, 'loaded': True, 'loadedTime': 2285.4000000953674, 'positionName': 'LEFT', 'positionCoords': [328.28, 227], 'bid': 7.87}, {'imgObject': {}, 'id': 'bagel and cc', 'src': '/static/foodstim60/bagel and cc.jpg', 'key': 'i', 'origWidth': 410, 'origHeight': 410, 'width': 410, 'height': 410, 'widthPercent': 0.45, 'rescaleHeight': False, 'trialN': 5, 'loaded': True, 'loadedTime': 2286.9000000953674, 'positionName': 'RIGHT', 'positionCoords': [798.72, 227], 'bid': 7.890000000000001}]",14586.600000023842,1669843966802,baked potato,bagel and cc,7.87,7.890000000000001,0.020000000000000462,baked potato,u,1051.3000000715256,1052,True,16146.800000071526,1560.2000000476837,1669843968362,1560,1051.7000000476837,HRV,HRV_0303,2022-11-30 21:37:06
6,"[{'imgObject': {}, 'id': 'turkeysandwich', 'src': '/static/foodstim60/turkeysandwich.jpg', 'key': 'u', 'origWidth': 409, 'origHeight': 409, 'width': 409, 'height': 409, 'widthPercent': 0.45, 'rescaleHeight': False, 'trialN': 6, 'loaded': True, 'loadedTime': 2287.8000000715256, 'positionName': 'LEFT', 'positionCoords': [328.28, 227.5], 'bid': 8.45}, {'imgObject': {}, 'id': 'mashed potato', 'src': '/static/foodstim60/mashed potato.jpg', 'key': 'i', 'origWidth': 409, 'origHeight': 409, 'width': 409, 'height': 409, 'widthPercent': 0.45, 'rescaleHeight': False, 'trialN': 6, 'loaded': True, 'loadedTime': 2291.600000023842, 'positionName': 'RIGHT', 'positionCoords': [798.72, 227.5], 'bid': 8.370000000000001}]",16147.0,1669843968363,turkeysandwich,mashed potato,8.45,8.370000000000001,-0.0799999999999983,turkeysandwich,u,824,824,True,17480.400000095367,1333.4000000953674,1669843969696,1333,824.4000000953674,HRV,HRV_0303,2022-11-30 21:37:06
7,"[{'imgObject': {}, 'id': 'hotdog w must', 'src': '/static/foodstim60/hotdog w must.jpg', 'key': 'u', 'origWidth': 409, 'origHeight': 409, 'width': 409, 'height': 409, 'widthPercent': 0.45, 'rescaleHeight': False, 'trialN': 7, 'loaded': True, 'loadedTime': 2308.8000000715256, 'positionName': 'LEFT', 'positionCoords': [328.28, 227.5], 'bid': 7.76}, {'imgObject': {}, 'id': 'baked potato', 'src': '/static/foodstim60/baked potato.jpg', 'key': 'i', 'origWidth': 409, 'origHeight': 410, 'width': 409, 'height': 410, 'widthPercent': 0.45, 'rescaleHeight': False, 'trialN': 7, 'loaded': True, 'loadedTime': 2286.2000000476837, 'positionName': 'RIGHT', 'positionCoords': [798.72, 227], 'bid': 7.87}]",17480.700000047684,1669843969696,hotdog w must,baked potato,7.76,7.87,0.11000000000000032,baked potato,i,970.7000000476837,971,True,18963.200000047684,1482.5,1669843971179,1483,971.1000000238419,HRV,HRV_0303,2022-11-30 21:37:06
8,"[{'imgObject': {}, 'id': 'orange slices', 'src': '/static/foodstim60/orange slices.jpg', 'key': 'u', 'origWidth': 409, 'origHeight': 410, 'width': 409, 'height': 410, 'widthPercent': 0.45, 'rescaleHeight': False, 'trialN': 8, 'loaded': True, 'loadedTime': 2338.3000000715256, 'positionName': 'LEFT', 'positionCoords': [328.28, 227], 'bid': 7.35}, {'imgObject': {}, 'id': 'olives', 'src': '/static/foodstim60/olives.jpg', 'key': 'i', 'origWidth': 410, 'origHeight': 410, 'width': 410, 'height': 410, 'widthPercent': 0.45, 'rescaleHeight': False, 'trialN': 8, 'loaded': True, 'loadedTime': 2341.3000000715256, 'positionName': 'RIGHT', 'positionCoords': [798.72, 227], 'bid': 0.07}]",18963.5,1669843971179,orange slices,olives,7.35,0.07,-7.279999999999999,orange slices,u,852.6000000238419,853,True,20330.5,1367.0,1669843972546,1367,852.9000000953674,HRV,HRV_0303,2022-11-30 21:37:06
9,"[{'imgObject': {}, 'id': 'froot loops w milk', 'src': '/static/foodstim60/froot loops w milk.jpg', 'key': 'u', 'origWidth': 410, 'origHeight': 410, 'width': 410, 'height': 410, 'widthPercent': 0.45, 'rescaleHeight': False, 'trialN': 9, 'loaded': True, 'loadedTime': 2239.600000023842, 'positionName': 'LEFT', 'positionCoords': [327.28, 227], 'bid': 7.96}, {'imgObject': {}, 'id': 'banana', 'src': '/static/foodstim60/banana.jpg', 'key': 'i', 'origWidth': 410, 'origHeight': 410, 'width': 410, 'height': 410, 'widthPercent': 0.45, 'rescaleHeight': False, 'trialN': 9, 'loaded': True, 'loadedTime': 2258.3000000715256, 'positionName': 'RIGHT', 'positionCoords': [798.72, 227], 'bid': 7.91}]",20330.900000095367,1669843972546,froot loops w milk,banana,7.96,7.91,-0.04999999999999982,froot loops w milk,u,1033.3999999761581,1034,True,21870.300000071526,1539.3999999761581,1669843974086,1540,1033.7999999523163,HRV,HRV_0303,2022-11-30 21:37:06
10,"[{'imgObject': {}, 'id': 'eggsalad', 'src': '/static/foodstim60/eggsalad.jpg', 'key': 'u', 'origWidth': 410, 'origHeight': 409, 'width': 410, 'height': 409, 'widthPercent': 0.45, 'rescaleHeight': False, 'trialN': 10, 'loaded': True, 'loadedTime': 2283.4000000953674, 'positionName': 'LEFT', 'positionCoords': [327.28, 227.5], 'bid': 7.23}, {'imgObject': {}, 'id': 'cantaloupe', 'src': '/static/foodstim60/cantaloupe.jpg', 'key': 'i', 'origWidth': 409, 'origHeight': 409, 'width': 409, 'height': 409, 'widthPercent': 0.45, 'rescaleHeight': False, 'trialN': 10, 'loaded': True, 'loadedTime': 2308.3000000715256, 'positionName': 'RIGHT', 'positionCoords': [798.72, 227.5], 'bid': 0.03}]",21870.5,1669843974086,eggsalad,cantaloupe,7.23,0.03,-7.2,eggsalad,u,681.6000000238419,682,True,23068.600000023842,1198.1000000238419,1669843975284,1198,681.8000000715256,HRV,HRV_0303,2022-11-30 21:37:06
11,"[{'imgObject': {}, 'id': 'omelette', 'src': '/static/foodstim60/omelette.jpg', 'key': 'u', 'origWidth': 410, 'origHeight': 409, 'width': 410, 'height': 409, 'widthPercent': 0.45, 'rescaleHeight': False, 'trialN': 11, 'loaded': True, 'loadedTime': 2333.7000000476837, 'positionName': 'LEFT', 'positionCoords': [327.28, 227.5], 'bid': 0}, {'imgObject': {}, 'id': 'avocado', 'src': '/static/foodstim60/avocado.jpg', 'key': 'i', 'origWidth': 409, 'origHeight': 409, 'width': 409, 'height': 409, 'widthPercent': 0.45, 'rescaleHeight': False, 'trialN': 11, 'loaded': True, 'loadedTime': 2346.8000000715256, 'positionName': 'RIGHT', 'positionCoords': [798.72, 227.5], 'bid': 0}]",23068.800000071526,1669843975284,omelette,avocado,0.0,0.0,0.0,omelette,u,1179.6999999284744,1180,True,24752.200000047684,1683.3999999761581,1669843976968,1684,1180.1000000238419,HRV,HRV_0303,2022-11-30 21:37:06
12,"[{'imgObject': {}, 'id': 'cantaloupe', 'src': '/static/foodstim60/cantaloupe.jpg', 'key': 'u', 'origWidth': 409, 'origHeight': 409, 'width': 409, 'height': 409, 'widthPercent': 0.45, 'rescaleHeight': False, 'trialN': 12, 'loaded': True, 'loadedTime': 2291.600000023842, 'positionName': 'LEFT', 'positionCoords': [328.28, 227.5], 'bid': 0.03}, {'imgObject': {}, 'id': 'mango', 'src': '/static/foodstim60/mango.jpg', 'key': 'i', 'origWidth': 411, 'origHeight': 411, 'width': 411, 'height': 411, 'widthPercent': 0.45, 'rescaleHeight': False, 'trialN': 12, 'loaded': True, 'loadedTime': 2352.3000000715256, 'positionName': 'RIGHT', 'positionCoords': [798.72, 226.5], 'bid': 0.1}]",24752.300000071526,1669843976968,cantaloupe,mango,0.03,0.1,0.07,mango,i,1345.8999999761581,1346,True,26608.5,1856.1999999284744,1669843978824,1856,1346.5,HRV,HRV_0303,2022-11-30 21:37:06
13,"[{'imgObject': {}, 'id': 'sushi w_condiments', 'src': '/static/foodstim60/sushi w_condiments.jpg', 'key': 'u', 'origWidth': 410, 'origHeight': 410, 'width': 410, 'height': 410, 'widthPercent': 0.45, 'rescaleHeight': False, 'trialN': 13, 'loaded': True, 'loadedTime': 2375, 'positionName': 'LEFT', 'positionCoords': [327.28, 227], 'bid': 0.13}, {'imgObject': {}, 'id': 'salad w chicken', 'src': '/static/foodstim60/salad w chicken.jpg', 'key': 'i', 'origWidth': 411, 'origHeight': 411, 'width': 411, 'height': 411, 'widthPercent': 0.45, 'rescaleHeight': False, 'trialN': 13, 'loaded': True, 'loadedTime': 2389.3000000715256, 'positionName': 'RIGHT', 'positionCoords': [798.72, 226.5], 'bid': 5.44}]",26608.700000047684,1669843978824,sushi w_condiments,salad w chicken,0.13,5.44,5.3100000000000005,salad w chicken,i,892.7000000476837,893,True,28002.900000095367,1394.2000000476837,1669843980218,1394,893.0,HRV,HRV_0303,2022-11-30 21:37:06
14,"[{'imgObject': {}, 'id': 'mac & cheese', 'src': '/static/foodstim60/mac & cheese.jpg', 'key': 'u', 'origWidth': 410, 'origHeight': 410, 'width': 410, 'height': 410, 'widthPercent': 0.45, 'rescaleHeight': False, 'trialN': 14, 'loaded': True, 'loadedTime': 2390.9000000953674, 'positionName': 'LEFT', 'positionCoords': [327.28, 227], 'bid': 7.83}, {'imgObject': {}, 'id': 'pear', 'src': '/static/foodstim60/pear.jpg', 'key': 'i', 'origWidth': 411, 'origHeight': 410, 'width': 411, 'height': 410, 'widthPercent': 0.45, 'rescaleHeight': False, 'trialN': 14, 'loaded': True, 'loadedTime': 2391.100000023842, 'positionName': 'RIGHT', 'positionCoords': [798.72, 227], 'bid': 7.01}]",28003.100000023842,1669843980219,mac & cheese,pear,7.83,7.01,-0.8200000000000003,mac & cheese,u,736.8000000715256,737,True,29250.700000047684,1247.6000000238419,1669843981466,1247,737.2000000476837,HRV,HRV_0303,2022-11-30 21:37:06
15,"[{'imgObject': {}, 'id': 'grilled chicken strips', 'src': '/static/foodstim60/grilled chicken strips.jpg', 'key': 'u', 'origWidth': 410, 'origHeight': 411, 'width': 410, 'height': 411, 'widthPercent': 0.45, 'rescaleHeight': False, 'trialN': 15, 'loaded': True, 'loadedTime': 2420.100000023842, 'positionName': 'LEFT', 'positionCoords': [327.28, 226.5], 'bid': 10}, {'imgObject': {}, 'id': 'burrito', 'src': '/static/foodstim60/burrito.jpg', 'key': 'i', 'origWidth': 410, 'origHeight': 410, 'width': 410, 'height': 410, 'widthPercent': 0.45, 'rescaleHeight': False, 'trialN': 15, 'loaded': True, 'loadedTime': 2420.9000000953674, 'positionName': 'RIGHT', 'positionCoords': [798.72, 227], 'bid': 8.75}]",29250.800000071526,1669843981466,grilled chicken strips,burrito,10.0,8.75,-1.25,burrito,i,966.6000000238419,967,True,30729.300000071526,1478.5,1669843982945,1479,966.8999999761581,HRV,HRV_0303,2022-11-30 21:37:06
16,"[{'imgObject': {}, 'id': 'burger', 'src': '/static/foodstim60/burger.jpg', 'key': 'u', 'origWidth': 409, 'origHeight': 409, 'width': 409, 'height': 409, 'widthPercent': 0.45, 'rescaleHeight': False, 'trialN': 16, 'loaded': True, 'loadedTime': 2423.7000000476837, 'positionName': 'LEFT', 'positionCoords': [328.28, 227.5], 'bid': 7.87}, {'imgObject': {}, 'id': 'chickenfingers', 'src': '/static/foodstim60/chickenfingers.jpg', 'key': 'i', 'origWidth': 410, 'origHeight': 410, 'width': 410, 'height': 410, 'widthPercent': 0.45, 'rescaleHeight': False, 'trialN': 16, 'loaded': True, 'loadedTime': 2428, 'positionName': 'RIGHT', 'positionCoords': [798.72, 227], 'bid': 7.86}]",30729.5,1669843982945,burger,chickenfingers,7.87,7.86,-0.009999999999999787,chickenfingers,i,1253.3000000715256,1254,True,32486.900000095367,1757.4000000953674,1669843984702,1757,1253.7000000476837,HRV,HRV_0303,2022-11-30 21:37:06
17,"[{'imgObject': {}, 'id': 'froot loops w milk', 'src': '/static/foodstim60/froot loops w milk.jpg', 'key': 'u', 'origWidth': 410, 'origHeight': 410, 'width': 410, 'height': 410, 'widthPercent': 0.45, 'rescaleHeight': False, 'trialN': 17, 'loaded': True, 'loadedTime': 2239.7000000476837, 'positionName': 'LEFT', 'positionCoords': [327.28, 227], 'bid': 7.96}, {'imgObject': {}, 'id': 'rigatoni', 'src': '/static/foodstim60/rigatoni.jpg', 'key': 'i', 'origWidth': 411, 'origHeight': 411, 'width': 411, 'height': 411, 'widthPercent': 0.45, 'rescaleHeight': False, 'trialN': 17, 'loaded': True, 'loadedTime': 2262.9000000953674, 'positionName': 'RIGHT', 'positionCoords': [798.72, 226.5], 'bid': 7.85}]",32487.100000023842,1669843984703,froot loops w milk,rigatoni,7.96,7.85,-0.11000000000000032,froot loops w milk,u,804.6000000238419,805,True,33797.0,1309.8999999761581,1669843986013,1310,805.1000000238419,HRV,HRV_0303,2022-11-30 21:37:06
18,"[{'imgObject': {}, 'id': 'luckycharms', 'src': '/static/foodstim60/luckycharms.jpg', 'key': 'u', 'origWidth': 410, 'origHeight': 409, 'width': 410, 'height': 409, 'widthPercent': 0.45, 'rescaleHeight': False, 'trialN': 18, 'loaded': True, 'loadedTime': 2431.8000000715256, 'positionName': 'LEFT', 'positionCoords': [327.28, 227.5], 'bid': 8.89}, {'imgObject': {}, 'id': 'mac & cheese', 'src': '/static/foodstim60/mac & cheese.jpg', 'key': 'i', 'origWidth': 410, 'origHeight': 410, 'width': 410, 'height': 410, 'widthPercent': 0.45, 'rescaleHeight': False, 'trialN': 18, 'loaded': True, 'loadedTime': 2389.9000000953674, 'positionName': 'RIGHT', 'positionCoords': [798.72, 227], 'bid': 7.83}]",33797.300000071526,1669843986013,luckycharms,mac & cheese,8.89,7.83,-1.0600000000000005,luckycharms,u,984.8999999761581,985,True,35292.90000009537,1495.6000000238419,1669843987508,1495,985.2999999523163,HRV,HRV_0303,2022-11-30 21:37:06
19,"[{'imgObject': {}, 'id': 'turkey sandwich', 'src': '/static/foodstim60/turkey sandwich.jpg', 'key': 'u', 'origWidth': 409, 'origHeight': 409, 'width': 409, 'height': 409, 'widthPercent': 0.45, 'rescaleHeight': False, 'trialN': 19, 'loaded': True, 'loadedTime': 2462.5, 'positionName': 'LEFT', 'positionCoords': [328.28, 227.5], 'bid': 9.94}, {'imgObject': {}, 'id': 'chickenfingers', 'src': '/static/foodstim60/chickenfingers.jpg', 'key': 'i', 'origWidth': 410, 'origHeight': 410, 'width': 410, 'height': 410, 'widthPercent': 0.45, 'rescaleHeight': False, 'trialN': 19, 'loaded': True, 'loadedTime': 2431.8000000715256, 'positionName': 'RIGHT', 'positionCoords': [798.72, 227], 'bid': 7.86}]",35293.0,1669843987509,turkey sandwich,chickenfingers,9.94,7.86,-2.079999999999999,turkey sandwich,u,842,842,True,36643.700000047684,1350.7000000476837,1669843988864,1355,842.3000000715256,HRV,HRV_0303,2022-11-30 21:37:06
20,"[{'imgObject': {}, 'id': 'hotdog w must', 'src': '/static/foodstim60/hotdog w must.jpg', 'key': 'u', 'origWidth': 409, 'origHeight': 409, 'width': 409, 'height': 409, 'widthPercent': 0.45, 'rescaleHeight': False, 'trialN': 20, 'loaded': True, 'loadedTime': 2332.9000000953674, 'positionName': 'LEFT', 'positionCoords': [328.28, 227.5], 'bid': 7.76}, {'imgObject': {}, 'id': 'rigatoni and sauce', 'src': '/static/foodstim60/rigatoni and sauce.jpg', 'key': 'i', 'origWidth': 410, 'origHeight': 411, 'width': 410, 'height': 411, 'widthPercent': 0.45, 'rescaleHeight': False, 'trialN': 20, 'loaded': True, 'loadedTime': 2467.2000000476837, 'positionName': 'RIGHT', 'positionCoords': [798.72, 226.5], 'bid': 7.51}]",36643.800000071526,1669843988864,hotdog w must,rigatoni and sauce,7.76,7.51,-0.25,rigatoni and sauce,i,805.6000000238419,806,True,37951.0,1307.1999999284744,1669843990171,1307,806.0,HRV,HRV_0303,2022-11-30 21:37:06
21,"[{'imgObject': {}, 'id': 'cherries', 'src': '/static/foodstim60/cherries.jpg', 'key': 'u', 'origWidth': 410, 'origHeight': 411, 'width': 410, 'height': 411, 'widthPercent': 0.45, 'rescaleHeight': False, 'trialN': 21, 'loaded': True, 'loadedTime': 2277.5, 'positionName': 'LEFT', 'positionCoords': [327.28, 226.5], 'bid': 4.38}, {'imgObject': {}, 'id': 'chicken nuggets2', 'src': '/static/foodstim60/chicken nuggets2.jpg', 'key': 'i', 'origWidth': 410, 'origHeight': 409, 'width': 410, 'height': 409, 'widthPercent': 0.45, 'rescaleHeight': False, 'trialN': 21, 'loaded': True, 'loadedTime': 2281, 'positionName': 'RIGHT', 'positionCoords': [798.72, 227.5], 'bid': 5.87}]",37951.300000071526,1669843990171,cherries,chicken nuggets2,4.38,5.87,1.4900000000000002,chicken nuggets2,i,844,845,True,39304.800000071526,1353.5,1669843991525,1354,844.5,HRV,HRV_0303,2022-11-30 21:37:06
22,"[{'imgObject': {}, 'id': 'rigatoni and sauce', 'src': '/static/foodstim60/rigatoni and sauce.jpg', 'key': 'u', 'origWidth': 410, 'origHeight': 411, 'width': 410, 'height': 411, 'widthPercent': 0.45, 'rescaleHeight': False, 'trialN': 22, 'loaded': True, 'loadedTime': 2462.7000000476837, 'positionName': 'LEFT', 'positionCoords': [327.28, 226.5], 'bid': 7.51}, {'imgObject': {}, 'id': 'veggieswithdip', 'src': '/static/foodstim60/veggieswithdip.jpg', 'key': 'i', 'origWidth': 409, 'origHeight': 409, 'width': 409, 'height': 409, 'widthPercent': 0.45, 'rescaleHeight': False, 'trialN': 22, 'loaded': True, 'loadedTime': 2470.9000000953674, 'positionName': 'RIGHT', 'positionCoords': [798.72, 227.5], 'bid': 7.6}]",39305.0,1669843991525,rigatoni and sauce,veggieswithdip,7.51,7.6,0.08999999999999986,veggieswithdip,i,1081.7000000476837,1082,True,40900.300000071526,1595.3000000715256,1669843993120,1595,1082.1000000238419,HRV,HRV_0303,2022-11-30 21:37:06
23,"[{'imgObject': {}, 'id': 'cocktailshrimp', 'src': '/static/foodstim60/cocktailshrimp.jpg', 'key': 'u', 'origWidth': 410, 'origHeight': 410, 'width': 410, 'height': 410, 'widthPercent': 0.45, 'rescaleHeight': False, 'trialN': 23, 'loaded': True, 'loadedTime': 2472.9000000953674, 'positionName': 'LEFT', 'positionCoords': [327.28, 227], 'bid': 7.13}, {'imgObject': {}, 'id': 'lox', 'src': '/static/foodstim60/lox.jpg', 'key': 'i', 'origWidth': 410, 'origHeight': 411, 'width': 410, 'height': 411, 'widthPercent': 0.45, 'rescaleHeight': False, 'trialN': 23, 'loaded': True, 'loadedTime': 2474.600000023842, 'positionName': 'RIGHT', 'positionCoords': [798.72, 226.5], 'bid': 5.54}]",40900.5,1669843993121,cocktailshrimp,lox,7.13,5.54,-1.5899999999999999,cocktailshrimp,u,1029.8000000715256,1030,True,42445.300000071526,1544.8000000715256,1669843994665,1544,1030.3000000715256,HRV,HRV_0303,2022-11-30 21:37:06
24,"[{'imgObject': {}, 'id': 'orange slices', 'src': '/static/foodstim60/orange slices.jpg', 'key': 'u', 'origWidth': 409, 'origHeight': 410, 'width': 409, 'height': 410, 'widthPercent': 0.45, 'rescaleHeight': False, 'trialN': 24, 'loaded': True, 'loadedTime': 2339, 'positionName': 'LEFT', 'positionCoords': [328.28, 227], 'bid': 7.35}, {'imgObject': {}, 'id': 'fried eggs', 'src': '/static/foodstim60/fried eggs.jpg', 'key': 'i', 'origWidth': 410, 'origHeight': 410, 'width': 410, 'height': 410, 'widthPercent': 0.45, 'rescaleHeight': False, 'trialN': 24, 'loaded': True, 'loadedTime': 2478.600000023842, 'positionName': 'RIGHT', 'positionCoords': [798.72, 227], 'bid': 8.45}]",42445.60000002384,1669843994666,orange slices,fried eggs,7.35,8.45,1.0999999999999996,orange slices,u,704.8999999761581,705,True,43657.800000071526,1212.2000000476837,1669843995878,1212,705.3000000715256,HRV,HRV_0303,2022-11-30 21:37:06
25,"[{'imgObject': {}, 'id': 'grilled chicken strips', 'src': '/static/foodstim60/grilled chicken strips.jpg', 'key': 'u', 'origWidth': 410, 'origHeight': 411, 'width': 410, 'height': 411, 'widthPercent': 0.45, 'rescaleHeight': False, 'trialN': 25, 'loaded': True, 'loadedTime': 2419.9000000953674, 'positionName': 'LEFT', 'positionCoords': [327.28, 226.5], 'bid': 10}, {'imgObject': {}, 'id': 'baked potato', 'src': '/static/foodstim60/baked potato.jpg', 'key': 'i', 'origWidth': 409, 'origHeight': 410, 'width': 409, 'height': 410, 'widthPercent': 0.45, 'rescaleHeight': False, 'trialN': 25, 'loaded': True, 'loadedTime': 2286, 'positionName': 'RIGHT', 'positionCoords': [798.72, 227], 'bid': 7.87}]",43657.90000009537,1669843995878,grilled chicken strips,baked potato,10.0,7.87,-2.13,grilled chicken strips,u,1535.3999999761581,1536,True,45699.700000047684,2041.7999999523163,1669843997920,2042,1536.2999999523163,HRV,HRV_0303,2022-11-30 21:37:06
26,"[{'imgObject': {}, 'id': 'bagel and cc', 'src': '/static/foodstim60/bagel and cc.jpg', 'key': 'u', 'origWidth': 410, 'origHeight': 410, 'width': 410, 'height': 410, 'widthPercent': 0.45, 'rescaleHeight': False, 'trialN': 26, 'loaded': True, 'loadedTime': 2287, 'positionName': 'LEFT', 'positionCoords': [327.28, 227], 'bid': 7.890000000000001}, {'imgObject': {}, 'id': 'popsicles', 'src': '/static/foodstim60/popsicles.jpg', 'key': 'i', 'origWidth': 410, 'origHeight': 410, 'width': 410, 'height': 410, 'widthPercent': 0.45, 'rescaleHeight': False, 'trialN': 26, 'loaded': True, 'loadedTime': 2542.3000000715256, 'positionName': 'RIGHT', 'positionCoords': [798.72, 227], 'bid': 4.3}]",45699.800000071526,1669843997920,bagel and cc,popsicles,7.890000000000001,4.3,-3.5900000000000007,bagel and cc,u,752.2999999523163,753,True,46961.300000071526,1261.5,1669843999181,1261,752.6999999284744,HRV,HRV_0303,2022-11-30 21:37:06
27,"[{'imgObject': {}, 'id': 'corn cob', 'src': '/static/foodstim60/corn cob.jpg', 'key': 'u', 'origWidth': 411, 'origHeight': 411, 'width': 411, 'height': 411, 'widthPercent': 0.45, 'rescaleHeight': False, 'trialN': 27, 'loaded': True, 'loadedTime': 2479.600000023842, 'positionName': 'LEFT', 'positionCoords': [326.28, 226.5], 'bid': 8.67}, {'imgObject': {}, 'id': 'veggieswithdip', 'src': '/static/foodstim60/veggieswithdip.jpg', 'key': 'i', 'origWidth': 409, 'origHeight': 409, 'width': 409, 'height': 409, 'widthPercent': 0.45, 'rescaleHeight': False, 'trialN': 27, 'loaded': True, 'loadedTime': 2470, 'positionName': 'RIGHT', 'positionCoords': [798.72, 227.5], 'bid': 7.6}]",46961.5,1669843999182,corn cob,veggieswithdip,8.67,7.6,-1.0700000000000003,veggieswithdip,i,1031.6000000238419,1032,True,48507.700000047684,1546.2000000476837,1669844000728,1546,1032.1000000238419,HRV,HRV_0303,2022-11-30 21:37:06
28,"[{'imgObject': {}, 'id': 'raspberries', 'src': '/static/foodstim60/raspberries.jpg', 'key': 'u', 'origWidth': 411, 'origHeight': 411, 'width': 411, 'height': 411, 'widthPercent': 0.45, 'rescaleHeight': False, 'trialN': 28, 'loaded': True, 'loadedTime': 2479.8000000715256, 'positionName': 'LEFT', 'positionCoords': [326.28, 226.5], 'bid': 6.0200000000000005}, {'imgObject': {}, 'id': 'chicken nuggets2', 'src': '/static/foodstim60/chicken nuggets2.jpg', 'key': 'i', 'origWidth': 410, 'origHeight': 409, 'width': 410, 'height': 409, 'widthPercent': 0.45, 'rescaleHeight': False, 'trialN': 28, 'loaded': True, 'loadedTime': 2282.100000023842, 'positionName': 'RIGHT', 'positionCoords': [798.72, 227.5], 'bid': 5.87}]",48507.90000009537,1669844000728,raspberries,chicken nuggets2,6.0200000000000005,5.87,-0.15000000000000036,chicken nuggets2,i,837.2999999523163,838,True,49857.60000002384,1349.6999999284744,1669844002078,1350,837.6999999284744,HRV,HRV_0303,2022-11-30 21:37:06
29,"[{'imgObject': {}, 'id': 'cocktailshrimp', 'src': '/static/foodstim60/cocktailshrimp.jpg', 'key': 'u', 'origWidth': 410, 'origHeight': 410, 'width': 410, 'height': 410, 'widthPercent': 0.45, 'rescaleHeight': False, 'trialN': 29, 'loaded': True, 'loadedTime': 2471.600000023842, 'positionName': 'LEFT', 'positionCoords': [327.28, 227], 'bid': 7.13}, {'imgObject': {}, 'id': 'Grapes', 'src': '/static/foodstim60/Grapes.jpg', 'key': 'i', 'origWidth': 411, 'origHeight': 411, 'width': 411, 'height': 411, 'widthPercent': 0.45, 'rescaleHeight': False, 'trialN': 29, 'loaded': True, 'loadedTime': 2273, 'positionName': 'RIGHT', 'positionCoords': [798.72, 226.5], 'bid': 6.7700000000000005}]",49857.800000071526,1669844002078,cocktailshrimp,Grapes,7.13,6.7700000000000005,-0.35999999999999943,cocktailshrimp,u,1170.1000000238419,1170,True,51540.200000047684,1682.3999999761581,1669844003760,1682,1170.5,HRV,HRV_0303,2022-11-30 21:37:06
30,"[{'imgObject': {}, 'id': 'edamame', 'src': '/static/foodstim60/edamame.jpg', 'key': 'u', 'origWidth': 409, 'origHeight': 410, 'width': 409, 'height': 410, 'widthPercent': 0.45, 'rescaleHeight': False, 'trialN': 30, 'loaded': True, 'loadedTime': 2284.600000023842, 'positionName': 'LEFT', 'positionCoords': [328.28, 227], 'bid': 0.15}, {'imgObject': {}, 'id': 'roastedpotatoes', 'src': '/static/foodstim60/roastedpotatoes.jpg', 'key': 'i', 'origWidth': 409, 'origHeight': 410, 'width': 409, 'height': 410, 'widthPercent': 0.45, 'rescaleHeight': False, 'trialN': 30, 'loaded': True, 'loadedTime': 2481.8000000715256, 'positionName': 'RIGHT', 'positionCoords': [798.72, 227], 'bid': 7.85}]",51540.40000009537,1669844003760,edamame,roastedpotatoes,0.15,7.85,7.699999999999999,roastedpotatoes,i,683.0999999046326,684,True,52728.60000002384,1188.1999999284744,1669844004949,1189,683.5999999046326,HRV,HRV_0303,2022-11-30 21:37:06
31,"[{'imgObject': {}, 'id': 'edamame', 'src': '/static/foodstim60/edamame.jpg', 'key': 'u', 'origWidth': 409, 'origHeight': 410, 'width': 409, 'height': 410, 'widthPercent': 0.45, 'rescaleHeight': False, 'trialN': 31, 'loaded': True, 'loadedTime': 2284.600000023842, 'positionName': 'LEFT', 'positionCoords': [328.28, 227], 'bid': 0.15}, {'imgObject': {}, 'id': 'avocado', 'src': '/static/foodstim60/avocado.jpg', 'key': 'i', 'origWidth': 409, 'origHeight': 409, 'width': 409, 'height': 409, 'widthPercent': 0.45, 'rescaleHeight': False, 'trialN': 31, 'loaded': True, 'loadedTime': 2349.3000000715256, 'positionName': 'RIGHT', 'positionCoords': [798.72, 227.5], 'bid': 0}]",52728.700000047684,1669844004949,edamame,avocado,0.15,0.0,-0.15,avocado,i,1026,1026,True,54263.800000071526,1535.1000000238419,1669844006484,1535,1026.5,HRV,HRV_0303,2022-11-30 21:37:06
32,"[{'imgObject': {}, 'id': 'omelette', 'src': '/static/foodstim60/omelette.jpg', 'key': 'u', 'origWidth': 410, 'origHeight': 409, 'width': 410, 'height': 409, 'widthPercent': 0.45, 'rescaleHeight': False, 'trialN': 32, 'loaded': True, 'loadedTime': 2334.9000000953674, 'positionName': 'LEFT', 'positionCoords': [327.28, 227.5], 'bid': 0}, {'imgObject': {}, 'id': 'seaweed', 'src': '/static/foodstim60/seaweed.jpg', 'key': 'i', 'origWidth': 410, 'origHeight': 410, 'width': 410, 'height': 410, 'widthPercent': 0.45, 'rescaleHeight': False, 'trialN': 32, 'loaded': True, 'loadedTime': 2492.600000023842, 'positionName': 'RIGHT', 'positionCoords': [798.72, 227], 'bid': 0.11}]",54264.10000002384,1669844006484,omelette,seaweed,0.0,0.11,0.11,omelette,u,817.5,818,True,55593.5,1329.3999999761581,1669844007813,1329,817.8999999761581,HRV,HRV_0303,2022-11-30 21:37:06
33,"[{'imgObject': {}, 'id': 'rigatoni', 'src': '/static/foodstim60/rigatoni.jpg', 'key': 'u', 'origWidth': 411, 'origHeight': 411, 'width': 411, 'height': 411, 'widthPercent': 0.45, 'rescaleHeight': False, 'trialN': 33, 'loaded': True, 'loadedTime': 2261.9000000953674, 'positionName': 'LEFT', 'positionCoords': [326.28, 226.5], 'bid': 7.85}, {'imgObject': {}, 'id': 'ice cream sundae 002', 'src': '/static/foodstim60/ice cream sundae 002.jpg', 'key': 'i', 'origWidth': 409, 'origHeight': 409, 'width': 409, 'height': 409, 'widthPercent': 0.45, 'rescaleHeight': False, 'trialN': 33, 'loaded': True, 'loadedTime': 2499.2000000476837, 'positionName': 'RIGHT', 'positionCoords': [798.72, 227.5], 'bid': 9.83}]",55593.60000002384,1669844007814,rigatoni,ice cream sundae 002,7.85,9.83,1.9800000000000004,ice cream sundae 002,i,729.8999999761581,730,True,56835.200000047684,1241.6000000238419,1669844009055,1241,730.3000000715256,HRV,HRV_0303,2022-11-30 21:37:06
34,"[{'imgObject': {}, 'id': 'cherries', 'src': '/static/foodstim60/cherries.jpg', 'key': 'u', 'origWidth': 410, 'origHeight': 411, 'width': 410, 'height': 411, 'widthPercent': 0.45, 'rescaleHeight': False, 'trialN': 34, 'loaded': True, 'loadedTime': 2277.600000023842, 'positionName': 'LEFT', 'positionCoords': [327.28, 226.5], 'bid': 4.38}, {'imgObject': {}, 'id': 'banana', 'src': '/static/foodstim60/banana.jpg', 'key': 'i', 'origWidth': 410, 'origHeight': 410, 'width': 410, 'height': 410, 'widthPercent': 0.45, 'rescaleHeight': False, 'trialN': 34, 'loaded': True, 'loadedTime': 2256.4000000953674, 'positionName': 'RIGHT', 'positionCoords': [798.72, 227], 'bid': 7.91}]",56835.40000009537,1669844009055,cherries,banana,4.38,7.91,3.5300000000000002,banana,i,1049.5999999046326,1051,True,58403.700000047684,1568.2999999523163,1669844010624,1569,1050.0,HRV,HRV_0303,2022-11-30 21:37:06
35,"[{'imgObject': {}, 'id': 'rigatoni and sauce', 'src': '/static/foodstim60/rigatoni and sauce.jpg', 'key': 'u', 'origWidth': 410, 'origHeight': 411, 'width': 410, 'height': 411, 'widthPercent': 0.45, 'rescaleHeight': False, 'trialN': 35, 'loaded': True, 'loadedTime': 2466.8000000715256, 'positionName': 'LEFT', 'positionCoords': [327.28, 226.5], 'bid': 7.51}, {'imgObject': {}, 'id': 'chickenfingers', 'src': '/static/foodstim60/chickenfingers.jpg', 'key': 'i', 'origWidth': 410, 'origHeight': 410, 'width': 410, 'height': 410, 'widthPercent': 0.45, 'rescaleHeight': False, 'trialN': 35, 'loaded': True, 'loadedTime': 2431.600000023842, 'positionName': 'RIGHT', 'positionCoords': [798.72, 227], 'bid': 7.86}]",58403.90000009537,1669844010624,rigatoni and sauce,chickenfingers,7.51,7.86,0.35000000000000053,chickenfingers,i,951.1999999284744,952,True,59861.800000071526,1457.8999999761581,1669844012082,1458,951.5999999046326,HRV,HRV_0303,2022-11-30 21:37:06
36,"[{'imgObject': {}, 'id': 'kiwi', 'src': '/static/foodstim60/kiwi.jpg', 'key': 'u', 'origWidth': 410, 'origHeight': 410, 'width': 410, 'height': 410, 'widthPercent': 0.45, 'rescaleHeight': False, 'trialN': 36, 'loaded': True, 'loadedTime': 2502.5, 'positionName': 'LEFT', 'positionCoords': [327.28, 227], 'bid': 6.09}, {'imgObject': {}, 'id': 'Grapes', 'src': '/static/foodstim60/Grapes.jpg', 'key': 'i', 'origWidth': 411, 'origHeight': 411, 'width': 411, 'height': 411, 'widthPercent': 0.45, 'rescaleHeight': False, 'trialN': 36, 'loaded': True, 'loadedTime': 2273.4000000953674, 'positionName': 'RIGHT', 'positionCoords': [798.72, 226.5], 'bid': 6.7700000000000005}]",59862.10000002384,1669844012082,kiwi,Grapes,6.09,6.7700000000000005,0.6800000000000006,Grapes,i,590.8000000715256,591,True,60963.90000009537,1101.8000000715256,1669844013184,1102,591.1000000238419,HRV,HRV_0303,2022-11-30 21:37:06
37,"[{'imgObject': {}, 'id': 'mango', 'src': '/static/foodstim60/mango.jpg', 'key': 'u', 'origWidth': 411, 'origHeight': 411, 'width': 411, 'height': 411, 'widthPercent': 0.45, 'rescaleHeight': False, 'trialN': 37, 'loaded': True, 'loadedTime': 2354.2000000476837, 'positionName': 'LEFT', 'positionCoords': [326.28, 226.5], 'bid': 0.1}, {'imgObject': {}, 'id': 'rigatoni and sauce', 'src': '/static/foodstim60/rigatoni and sauce.jpg', 'key': 'i', 'origWidth': 410, 'origHeight': 411, 'width': 410, 'height': 411, 'widthPercent': 0.45, 'rescaleHeight': False, 'trialN': 37, 'loaded': True, 'loadedTime': 2467.100000023842, 'positionName': 'RIGHT', 'positionCoords': [798.72, 226.5], 'bid': 7.51}]",60964.10000002384,1669844013184,mango,rigatoni and sauce,0.1,7.51,7.41,rigatoni and sauce,i,1138.8999999761581,1139,True,62610.0,1645.8999999761581,1669844014830,1646,1139.3000000715256,HRV,HRV_0303,2022-11-30 21:37:06
38,"[{'imgObject': {}, 'id': 'turkeysandwich', 'src': '/static/foodstim60/turkeysandwich.jpg', 'key': 'u', 'origWidth': 409, 'origHeight': 409, 'width': 409, 'height': 409, 'widthPercent': 0.45, 'rescaleHeight': False, 'trialN': 38, 'loaded': True, 'loadedTime': 2287.8000000715256, 'positionName': 'LEFT', 'positionCoords': [328.28, 227.5], 'bid': 8.45}, {'imgObject': {}, 'id': 'grilled chicken strips', 'src': '/static/foodstim60/grilled chicken strips.jpg', 'key': 'i', 'origWidth': 410, 'origHeight': 411, 'width': 410, 'height': 411, 'widthPercent': 0.45, 'rescaleHeight': False, 'trialN': 38, 'loaded': True, 'loadedTime': 2418.9000000953674, 'positionName': 'RIGHT', 'positionCoords': [798.72, 226.5], 'bid': 10}]",62610.10000002384,1669844014830,turkeysandwich,grilled chicken strips,8.45,10.0,1.5500000000000007,turkeysandwich,u,1101.1000000238419,1102,True,64221.200000047684,1611.1000000238419,1669844016441,1611,1101.5,HRV,HRV_0303,2022-11-30 21:37:06
39,"[{'imgObject': {}, 'id': 'luckycharms', 'src': '/static/foodstim60/luckycharms.jpg', 'key': 'u', 'origWidth': 410, 'origHeight': 409, 'width': 410, 'height': 409, 'widthPercent': 0.45, 'rescaleHeight': False, 'trialN': 39, 'loaded': True, 'loadedTime': 2432.600000023842, 'positionName': 'LEFT', 'positionCoords': [327.28, 227.5], 'bid': 8.89}, {'imgObject': {}, 'id': 'tacos', 'src': '/static/foodstim60/tacos.jpg', 'key': 'i', 'origWidth': 411, 'origHeight': 411, 'width': 411, 'height': 411, 'widthPercent': 0.45, 'rescaleHeight': False, 'trialN': 39, 'loaded': True, 'loadedTime': 2506.3000000715256, 'positionName': 'RIGHT', 'positionCoords': [798.72, 226.5], 'bid': 9.44}]",64221.300000071526,1669844016441,luckycharms,tacos,8.89,9.44,0.5499999999999989,luckycharms,u,769.6000000238419,770,True,65499.300000071526,1278.0,1669844017719,1278,770.0,HRV,HRV_0303,2022-11-30 21:37:06
40,"[{'imgObject': {}, 'id': 'rigatoni and sauce', 'src': '/static/foodstim60/rigatoni and sauce.jpg', 'key': 'u', 'origWidth': 410, 'origHeight': 411, 'width': 410, 'height': 411, 'widthPercent': 0.45, 'rescaleHeight': False, 'trialN': 40, 'loaded': True, 'loadedTime': 2467.2000000476837, 'positionName': 'LEFT', 'positionCoords': [327.28, 226.5], 'bid': 7.51}, {'imgObject': {}, 'id': 'fruitsalad', 'src': '/static/foodstim60/fruitsalad.jpg', 'key': 'i', 'origWidth': 410, 'origHeight': 410, 'width': 410, 'height': 410, 'widthPercent': 0.45, 'rescaleHeight': False, 'trialN': 40, 'loaded': True, 'loadedTime': 2506.9000000953674, 'positionName': 'RIGHT', 'positionCoords': [798.72, 227], 'bid': 6.7700000000000005}]",65499.5,1669844017720,rigatoni and sauce,fruitsalad,7.51,6.7700000000000005,-0.7399999999999993,fruitsalad,i,789.3000000715256,789,True,66799.5,1300.0,1669844019020,1300,789.9000000953674,HRV,HRV_0303,2022-11-30 21:37:06
41,"[{'imgObject': {}, 'id': 'shreddedwheatwithmilk', 'src': '/static/foodstim60/shreddedwheatwithmilk.jpg', 'key': 'u', 'origWidth': 410, 'origHeight': 410, 'width': 410, 'height': 410, 'widthPercent': 0.45, 'rescaleHeight': False, 'trialN': 41, 'loaded': True, 'loadedTime': 2507.100000023842, 'positionName': 'LEFT', 'positionCoords': [327.28, 227], 'bid': 0.03}, {'imgObject': {}, 'id': 'sushi w_condiments', 'src': '/static/foodstim60/sushi w_condiments.jpg', 'key': 'i', 'origWidth': 410, 'origHeight': 410, 'width': 410, 'height': 410, 'widthPercent': 0.45, 'rescaleHeight': False, 'trialN': 41, 'loaded': True, 'loadedTime': 2355, 'positionName': 'RIGHT', 'positionCoords': [798.72, 227], 'bid': 0.13}]",66799.80000007153,1669844019020,shreddedwheatwithmilk,sushi w_condiments,0.03,0.13,0.1,shreddedwheatwithmilk,u,764.7999999523163,765,True,68070.70000004768,1270.8999999761581,1669844020291,1271,765.1999999284744,HRV,HRV_0303,2022-11-30 21:37:06
42,"[{'imgObject': {}, 'id': 'mac & cheese', 'src': '/static/foodstim60/mac & cheese.jpg', 'key': 'u', 'origWidth': 410, 'origHeight': 410, 'width': 410, 'height': 410, 'widthPercent': 0.45, 'rescaleHeight': False, 'trialN': 42, 'loaded': True, 'loadedTime': 2390.8000000715256, 'positionName': 'LEFT', 'positionCoords': [327.28, 227], 'bid': 7.83}, {'imgObject': {}, 'id': 'sushi w_condiments', 'src': '/static/foodstim60/sushi w_condiments.jpg', 'key': 'i', 'origWidth': 410, 'origHeight': 410, 'width': 410, 'height': 410, 'widthPercent': 0.45, 'rescaleHeight': False, 'trialN': 42, 'loaded': True, 'loadedTime': 2374.600000023842, 'positionName': 'RIGHT', 'positionCoords': [798.72, 227], 'bid': 0.13}]",68070.90000009537,1669844020291,mac & cheese,sushi w_condiments,7.83,0.13,-7.7,mac & cheese,u,580.8999999761581,581,True,69167.40000009537,1096.5,1669844021387,1096,581.3999999761581,HRV,HRV_0303,2022-11-30 21:37:06
43,"[{'imgObject': {}, 'id': 'hotdog w must', 'src': '/static/foodstim60/hotdog w must.jpg', 'key': 'u', 'origWidth': 409, 'origHeight': 409, 'width': 409, 'height': 409, 'widthPercent': 0.45, 'rescaleHeight': False, 'trialN': 43, 'loaded': True, 'loadedTime': 2310.2000000476837, 'positionName': 'LEFT', 'positionCoords': [328.28, 227.5], 'bid': 7.76}, {'imgObject': {}, 'id': 'burrito', 'src': '/static/foodstim60/burrito.jpg', 'key': 'i', 'origWidth': 410, 'origHeight': 410, 'width': 410, 'height': 410, 'widthPercent': 0.45, 'rescaleHeight': False, 'trialN': 43, 'loaded': True, 'loadedTime': 2422.4000000953674, 'positionName': 'RIGHT', 'positionCoords': [798.72, 227], 'bid': 8.75}]",69167.60000002384,1669844021388,hotdog w must,burrito,7.76,8.75,0.9900000000000002,burrito,i,1022,1022,True,70697.70000004768,1530.1000000238419,1669844022918,1530,1022.3999999761581,HRV,HRV_0303,2022-11-30 21:37:06
44,"[{'imgObject': {}, 'id': 'burrito', 'src': '/static/foodstim60/burrito.jpg', 'key': 'u', 'origWidth': 410, 'origHeight': 410, 'width': 410, 'height': 410, 'widthPercent': 0.45, 'rescaleHeight': False, 'trialN': 44, 'loaded': True, 'loadedTime': 2422.5, 'positionName': 'LEFT', 'positionCoords': [327.28, 227], 'bid': 8.75}, {'imgObject': {}, 'id': 'corn cob', 'src': '/static/foodstim60/corn cob.jpg', 'key': 'i', 'origWidth': 411, 'origHeight': 411, 'width': 411, 'height': 411, 'widthPercent': 0.45, 'rescaleHeight': False, 'trialN': 44, 'loaded': True, 'loadedTime': 2479.600000023842, 'positionName': 'RIGHT', 'positionCoords': [798.72, 226.5], 'bid': 8.67}]",70698.10000002384,1669844022918,burrito,corn cob,8.75,8.67,-0.08000000000000007,burrito,u,794.3999999761581,795,True,71999.0,1300.8999999761581,1669844024219,1301,794.8000000715256,HRV,HRV_0303,2022-11-30 21:37:06
45,"[{'imgObject': {}, 'id': 'omelette', 'src': '/static/foodstim60/omelette.jpg', 'key': 'u', 'origWidth': 410, 'origHeight': 409, 'width': 410, 'height': 409, 'widthPercent': 0.45, 'rescaleHeight': False, 'trialN': 45, 'loaded': True, 'loadedTime': 2335.3000000715256, 'positionName': 'LEFT', 'positionCoords': [327.28, 227.5], 'bid': 0}, {'imgObject': {}, 'id': 'shreddedwheatwithmilk', 'src': '/static/foodstim60/shreddedwheatwithmilk.jpg', 'key': 'i', 'origWidth': 410, 'origHeight': 410, 'width': 410, 'height': 410, 'widthPercent': 0.45, 'rescaleHeight': False, 'trialN': 45, 'loaded': True, 'loadedTime': 2522, 'positionName': 'RIGHT', 'positionCoords': [798.72, 227], 'bid': 0.03}]",71999.20000004768,1669844024219,omelette,shreddedwheatwithmilk,0.0,0.03,0.03,omelette,u,1119.7000000476837,1120,True,73626.80000007153,1627.6000000238419,1669844025847,1628,1120.0,HRV,HRV_0303,2022-11-30 21:37:06
46,"[{'imgObject': {}, 'id': 'cherry tomato', 'src': '/static/foodstim60/cherry tomato.jpg', 'key': 'u', 'origWidth': 410, 'origHeight': 410, 'width': 410, 'height': 410, 'widthPercent': 0.45, 'rescaleHeight': False, 'trialN': 46, 'loaded': True, 'loadedTime': 2523.4000000953674, 'positionName': 'LEFT', 'positionCoords': [327.28, 227], 'bid': 0.26}, {'imgObject': {}, 'id': 'apple slices', 'src': '/static/foodstim60/apple slices.jpg', 'key': 'i', 'origWidth': 409, 'origHeight': 410, 'width': 409, 'height': 410, 'widthPercent': 0.45, 'rescaleHeight': False, 'trialN': 46, 'loaded': True, 'loadedTime': 2275.5, 'positionName': 'RIGHT', 'positionCoords': [798.72, 227], 'bid': 6.83}]",73627.10000002384,1669844025847,cherry tomato,apple slices,0.26,6.83,6.57,apple slices,i,647,648,True,74790.5,1163.3999999761581,1669844027011,1164,647.3999999761581,HRV,HRV_0303,2022-11-30 21:37:06
47,"[{'imgObject': {}, 'id': 'edamame', 'src': '/static/foodstim60/edamame.jpg', 'key': 'u', 'origWidth': 409, 'origHeight': 410, 'width': 409, 'height': 410, 'widthPercent': 0.45, 'rescaleHeight': False, 'trialN': 47, 'loaded': True, 'loadedTime': 2284.3000000715256, 'positionName': 'LEFT', 'positionCoords': [328.28, 227], 'bid': 0.15}, {'imgObject': {}, 'id': 'seaweed', 'src': '/static/foodstim60/seaweed.jpg', 'key': 'i', 'origWidth': 410, 'origHeight': 410, 'width': 410, 'height': 410, 'widthPercent': 0.45, 'rescaleHeight': False, 'trialN': 47, 'loaded': True, 'loadedTime': 2496, 'positionName': 'RIGHT', 'positionCoords': [798.72, 227], 'bid': 0.11}]",74790.70000004768,1669844027011,edamame,seaweed,0.15,0.11,-0.039999999999999994,seaweed,i,674.7000000476837,675,True,75972.40000009537,1181.7000000476837,1669844028192,1181,675.1000000238419,HRV,HRV_0303,2022-11-30 21:37:06
48,"[{'imgObject': {}, 'id': 'raisin bran w milk', 'src': '/static/foodstim60/raisin bran w milk.jpg', 'key': 'u', 'origWidth': 411, 'origHeight': 411, 'width': 411, 'height': 411, 'widthPercent': 0.45, 'rescaleHeight': False, 'trialN': 48, 'loaded': True, 'loadedTime': 2523.7000000476837, 'positionName': 'LEFT', 'positionCoords': [326.28, 226.5], 'bid': 5}, {'imgObject': {}, 'id': 'salad w chicken', 'src': '/static/foodstim60/salad w chicken.jpg', 'key': 'i', 'origWidth': 411, 'origHeight': 411, 'width': 411, 'height': 411, 'widthPercent': 0.45, 'rescaleHeight': False, 'trialN': 48, 'loaded': True, 'loadedTime': 2375.3000000715256, 'positionName': 'RIGHT', 'positionCoords': [798.72, 226.5], 'bid': 5.44}]",75972.60000002384,1669844028193,raisin bran w milk,salad w chicken,5.0,5.44,0.4400000000000004,salad w chicken,i,944.8999999761581,945,True,77427.20000004768,1454.6000000238419,1669844029647,1454,945.3999999761581,HRV,HRV_0303,2022-11-30 21:37:06
49,"[{'imgObject': {}, 'id': 'orange slices', 'src': '/static/foodstim60/orange slices.jpg', 'key': 'u', 'origWidth': 409, 'origHeight': 410, 'width': 409, 'height': 410, 'widthPercent': 0.45, 'rescaleHeight': False, 'trialN': 49, 'loaded': True, 'loadedTime': 2338.3000000715256, 'positionName': 'LEFT', 'positionCoords': [328.28, 227], 'bid': 7.35}, {'imgObject': {}, 'id': 'Grapes', 'src': '/static/foodstim60/Grapes.jpg', 'key': 'i', 'origWidth': 411, 'origHeight': 411, 'width': 411, 'height': 411, 'widthPercent': 0.45, 'rescaleHeight': False, 'trialN': 49, 'loaded': True, 'loadedTime': 2272.5, 'positionName': 'RIGHT', 'positionCoords': [798.72, 226.5], 'bid': 6.7700000000000005}]",77427.40000009537,1669844029647,orange slices,Grapes,7.35,6.7700000000000005,-0.5799999999999992,orange slices,u,619.0999999046326,620,True,78555.40000009537,1128.0,1669844030776,1129,619.5,HRV,HRV_0303,2022-11-30 21:37:06
50,"[{'imgObject': {}, 'id': 'Tribe humus pita', 'src': '/static/foodstim60/Tribe humus pita.jpg', 'key': 'u', 'origWidth': 411, 'origHeight': 411, 'width': 411, 'height': 411, 'widthPercent': 0.45, 'rescaleHeight': False, 'trialN': 50, 'loaded': True, 'loadedTime': 2530, 'positionName': 'LEFT', 'positionCoords': [326.28, 226.5], 'bid': 4.14}, {'imgObject': {}, 'id': 'cherry tomato', 'src': '/static/foodstim60/cherry tomato.jpg', 'key': 'i', 'origWidth': 410, 'origHeight': 410, 'width': 410, 'height': 410, 'widthPercent': 0.45, 'rescaleHeight': False, 'trialN': 50, 'loaded': True, 'loadedTime': 2523.3000000715256, 'positionName': 'RIGHT', 'positionCoords': [798.72, 227], 'bid': 0.26}]",78555.70000004768,1669844030776,Tribe humus pita,cherry tomato,4.14,0.26,-3.88,Tribe humus pita,u,1279.6000000238419,1280,True,80353.20000004768,1797.5,1669844032573,1797,1280.1000000238419,HRV,HRV_0303,2022-11-30 21:37:06
51,"[{'imgObject': {}, 'id': 'cheerios', 'src': '/static/foodstim60/cheerios.jpg', 'key': 'u', 'origWidth': 409, 'origHeight': 410, 'width': 409, 'height': 410, 'widthPercent': 0.45, 'rescaleHeight': False, 'trialN': 51, 'loaded': True, 'loadedTime': 2530.8000000715256, 'positionName': 'LEFT', 'positionCoords': [328.28, 227], 'bid': 7.08}, {'imgObject': {}, 'id': 'bagel plain', 'src': '/static/foodstim60/bagel plain.jpg', 'key': 'i', 'origWidth': 410, 'origHeight': 410, 'width': 410, 'height': 410, 'widthPercent': 0.45, 'rescaleHeight': False, 'trialN': 51, 'loaded': True, 'loadedTime': 2531, 'positionName': 'RIGHT', 'positionCoords': [798.72, 227], 'bid': 6.84}]",80353.30000007153,1669844032573,cheerios,bagel plain,7.08,6.84,-0.2400000000000002,bagel plain,i,792,793,True,81653.20000004768,1299.8999999761581,1669844033873,1300,792.3999999761581,HRV,HRV_0303,2022-11-30 21:37:06
52,"[{'imgObject': {}, 'id': 'cantaloupe', 'src': '/static/foodstim60/cantaloupe.jpg', 'key': 'u', 'origWidth': 409, 'origHeight': 409, 'width': 409, 'height': 409, 'widthPercent': 0.45, 'rescaleHeight': False, 'trialN': 52, 'loaded': True, 'loadedTime': 2308.100000023842, 'positionName': 'LEFT', 'positionCoords': [328.28, 227.5], 'bid': 0.03}, {'imgObject': {}, 'id': 'edamame', 'src': '/static/foodstim60/edamame.jpg', 'key': 'i', 'origWidth': 409, 'origHeight': 410, 'width': 409, 'height': 410, 'widthPercent': 0.45, 'rescaleHeight': False, 'trialN': 52, 'loaded': True, 'loadedTime': 2284.5, 'positionName': 'RIGHT', 'positionCoords': [798.72, 227], 'bid': 0.15}]",81653.40000009537,1669844033873,cantaloupe,edamame,0.03,0.15,0.12,cantaloupe,u,970.2999999523163,971,True,83130.90000009537,1477.5,1669844035351,1478,970.7999999523163,HRV,HRV_0303,2022-11-30 21:37:06
53,"[{'imgObject': {}, 'id': 'burger', 'src': '/static/foodstim60/burger.jpg', 'key': 'u', 'origWidth': 409, 'origHeight': 409, 'width': 409, 'height': 409, 'widthPercent': 0.45, 'rescaleHeight': False, 'trialN': 53, 'loaded': True, 'loadedTime': 2426.5, 'positionName': 'LEFT', 'positionCoords': [328.28, 227.5], 'bid': 7.87}, {'imgObject': {}, 'id': 'rigatoni', 'src': '/static/foodstim60/rigatoni.jpg', 'key': 'i', 'origWidth': 411, 'origHeight': 411, 'width': 411, 'height': 411, 'widthPercent': 0.45, 'rescaleHeight': False, 'trialN': 53, 'loaded': True, 'loadedTime': 2258.9000000953674, 'positionName': 'RIGHT', 'positionCoords': [798.72, 226.5], 'bid': 7.85}]",83131.10000002384,1669844035351,burger,rigatoni,7.87,7.85,-0.020000000000000462,burger,u,797.2000000476837,798,True,84446.0,1314.8999999761581,1669844036666,1315,797.7000000476837,HRV,HRV_0303,2022-11-30 21:37:06
54,"[{'imgObject': {}, 'id': 'corn cob', 'src': '/static/foodstim60/corn cob.jpg', 'key': 'u', 'origWidth': 411, 'origHeight': 411, 'width': 411, 'height': 411, 'widthPercent': 0.45, 'rescaleHeight': False, 'trialN': 54, 'loaded': True, 'loadedTime': 2479.5, 'positionName': 'LEFT', 'positionCoords': [326.28, 226.5], 'bid': 8.67}, {'imgObject': {}, 'id': 'chicken nuggets2', 'src': '/static/foodstim60/chicken nuggets2.jpg', 'key': 'i', 'origWidth': 410, 'origHeight': 409, 'width': 410, 'height': 409, 'widthPercent': 0.45, 'rescaleHeight': False, 'trialN': 54, 'loaded': True, 'loadedTime': 2282.600000023842, 'positionName': 'RIGHT', 'positionCoords': [798.72, 227.5], 'bid': 5.87}]",84446.20000004768,1669844036666,corn cob,chicken nuggets2,8.67,5.87,-2.8,chicken nuggets2,i,788.8999999761581,790,True,85753.30000007153,1307.1000000238419,1669844037973,1307,789.5,HRV,HRV_0303,2022-11-30 21:37:06
55,"[{'imgObject': {}, 'id': 'hashbrowns', 'src': '/static/foodstim60/hashbrowns.jpg', 'key': 'u', 'origWidth': 411, 'origHeight': 410, 'width': 411, 'height': 410, 'widthPercent': 0.45, 'rescaleHeight': False, 'trialN': 55, 'loaded': True, 'loadedTime': 2532.8000000715256, 'positionName': 'LEFT', 'positionCoords': [326.28, 227], 'bid': 3.12}, {'imgObject': {}, 'id': 'shreddedwheatwithmilk', 'src': '/static/foodstim60/shreddedwheatwithmilk.jpg', 'key': 'i', 'origWidth': 410, 'origHeight': 410, 'width': 410, 'height': 410, 'widthPercent': 0.45, 'rescaleHeight': False, 'trialN': 55, 'loaded': True, 'loadedTime': 2519, 'positionName': 'RIGHT', 'positionCoords': [798.72, 227], 'bid': 0.03}]",85753.5,1669844037974,hashbrowns,shreddedwheatwithmilk,3.12,0.03,-3.0900000000000003,hashbrowns,u,1436.7000000476837,1437,True,87698.90000009537,1945.4000000953674,1669844039919,1945,1437.2000000476837,HRV,HRV_0303,2022-11-30 21:37:06
56,"[{'imgObject': {}, 'id': 'salmon', 'src': '/static/foodstim60/salmon.jpg', 'key': 'u', 'origWidth': 410, 'origHeight': 409, 'width': 410, 'height': 409, 'widthPercent': 0.45, 'rescaleHeight': False, 'trialN': 56, 'loaded': True, 'loadedTime': 2277.8000000715256, 'positionName': 'LEFT', 'positionCoords': [327.28, 227.5], 'bid': 7.13}, {'imgObject': {}, 'id': 'blueberries', 'src': '/static/foodstim60/blueberries.jpg', 'key': 'i', 'origWidth': 411, 'origHeight': 411, 'width': 411, 'height': 411, 'widthPercent': 0.45, 'rescaleHeight': False, 'trialN': 56, 'loaded': True, 'loadedTime': 2533.5, 'positionName': 'RIGHT', 'positionCoords': [798.72, 226.5], 'bid': 7.18}]",87699.10000002384,1669844039919,salmon,blueberries,7.13,7.18,0.04999999999999982,salmon,u,789.6000000238419,790,True,88999.90000009537,1300.8000000715256,1669844041220,1301,790.0,HRV,HRV_0303,2022-11-30 21:37:06
57,"[{'imgObject': {}, 'id': 'eggsalad', 'src': '/static/foodstim60/eggsalad.jpg', 'key': 'u', 'origWidth': 410, 'origHeight': 409, 'width': 410, 'height': 409, 'widthPercent': 0.45, 'rescaleHeight': False, 'trialN': 57, 'loaded': True, 'loadedTime': 2283.5, 'positionName': 'LEFT', 'positionCoords': [327.28, 227.5], 'bid': 7.23}, {'imgObject': {}, 'id': 'kiwi', 'src': '/static/foodstim60/kiwi.jpg', 'key': 'i', 'origWidth': 410, 'origHeight': 410, 'width': 410, 'height': 410, 'widthPercent': 0.45, 'rescaleHeight': False, 'trialN': 57, 'loaded': True, 'loadedTime': 2505, 'positionName': 'RIGHT', 'positionCoords': [798.72, 227], 'bid': 6.09}]",89000.0,1669844041220,eggsalad,kiwi,7.23,6.09,-1.1400000000000006,eggsalad,u,713,714,True,90219.60000002384,1219.6000000238419,1669844042440,1220,713.6000000238419,HRV,HRV_0303,2022-11-30 21:37:06
58,"[{'imgObject': {}, 'id': 'cherries', 'src': '/static/foodstim60/cherries.jpg', 'key': 'u', 'origWidth': 410, 'origHeight': 411, 'width': 410, 'height': 411, 'widthPercent': 0.45, 'rescaleHeight': False, 'trialN': 58, 'loaded': True, 'loadedTime': 2277.600000023842, 'positionName': 'LEFT', 'positionCoords': [327.28, 226.5], 'bid': 4.38}, {'imgObject': {}, 'id': 'sweetpotato', 'src': '/static/foodstim60/sweetpotato.jpg', 'key': 'i', 'origWidth': 410, 'origHeight': 410, 'width': 410, 'height': 410, 'widthPercent': 0.45, 'rescaleHeight': False, 'trialN': 58, 'loaded': True, 'loadedTime': 2534.2000000476837, 'positionName': 'RIGHT', 'positionCoords': [798.72, 227], 'bid': 0}]",90219.80000007153,1669844042440,cherries,sweetpotato,4.38,0.0,-4.38,cherries,u,975.6999999284744,976,True,91705.60000002384,1485.7999999523163,1669844043926,1486,976.1999999284744,HRV,HRV_0303,2022-11-30 21:37:06
59,"[{'imgObject': {}, 'id': 'steak', 'src': '/static/foodstim60/steak.jpg', 'key': 'u', 'origWidth': 410, 'origHeight': 410, 'width': 410, 'height': 410, 'widthPercent': 0.45, 'rescaleHeight': False, 'trialN': 59, 'loaded': True, 'loadedTime': 2535, 'positionName': 'LEFT', 'positionCoords': [327.28, 227], 'bid': 9.98}, {'imgObject': {}, 'id': 'ice cream sundae 002', 'src': '/static/foodstim60/ice cream sundae 002.jpg', 'key': 'i', 'origWidth': 409, 'origHeight': 409, 'width': 409, 'height': 409, 'widthPercent': 0.45, 'rescaleHeight': False, 'trialN': 59, 'loaded': True, 'loadedTime': 2501.7000000476837, 'positionName': 'RIGHT', 'positionCoords': [798.72, 227.5], 'bid': 9.83}]",91705.80000007153,1669844043926,steak,ice cream sundae 002,9.98,9.83,-0.15000000000000036,ice cream sundae 002,i,836.6999999284744,837,True,93052.90000009537,1347.1000000238419,1669844045273,1347,837.1000000238419,HRV,HRV_0303,2022-11-30 21:37:06
60,"[{'imgObject': {}, 'id': 'ice cream sundae 002', 'src': '/static/foodstim60/ice cream sundae 002.jpg', 'key': 'u', 'origWidth': 409, 'origHeight': 409, 'width': 409, 'height': 409, 'widthPercent': 0.45, 'rescaleHeight': False, 'trialN': 60, 'loaded': True, 'loadedTime': 2501.3000000715256, 'positionName': 'LEFT', 'positionCoords': [328.28, 227.5], 'bid': 9.83}, {'imgObject': {}, 'id': 'turkey sandwich', 'src': '/static/foodstim60/turkey sandwich.jpg', 'key': 'i', 'origWidth': 409, 'origHeight': 409, 'width': 409, 'height': 409, 'widthPercent': 0.45, 'rescaleHeight': False, 'trialN': 60, 'loaded': True, 'loadedTime': 2462.3000000715256, 'positionName': 'RIGHT', 'positionCoords': [798.72, 227.5], 'bid': 9.94}]",93053.0,1669844045273,ice cream sundae 002,turkey sandwich,9.83,9.94,0.10999999999999943,turkey sandwich,i,982.8000000715256,983,True,94545.70000004768,1492.7000000476837,1669844046766,1493,983.2000000476837,HRV,HRV_0303,2022-11-30 21:37:06
61,"[{'imgObject': {}, 'id': 'orange slices', 'src': '/static/foodstim60/orange slices.jpg', 'key': 'u', 'origWidth': 409, 'origHeight': 410, 'width': 409, 'height': 410, 'widthPercent': 0.45, 'rescaleHeight': False, 'trialN': 61, 'loaded': True, 'loadedTime': 2338.7000000476837, 'positionName': 'LEFT', 'positionCoords': [328.28, 227], 'bid': 7.35}, {'imgObject': {}, 'id': 'pear', 'src': '/static/foodstim60/pear.jpg', 'key': 'i', 'origWidth': 411, 'origHeight': 410, 'width': 411, 'height': 410, 'widthPercent': 0.45, 'rescaleHeight': False, 'trialN': 61, 'loaded': True, 'loadedTime': 2418.8000000715256, 'positionName': 'RIGHT', 'positionCoords': [798.72, 227], 'bid': 7.01}]",94545.90000009537,1669844046766,orange slices,pear,7.35,7.01,-0.33999999999999986,orange slices,u,659.7999999523163,660,True,95726.0,1180.0999999046326,1669844047946,1180,660.1999999284744,HRV,HRV_0303,2022-11-30 21:37:06
62,"[{'imgObject': {}, 'id': 'fried eggs', 'src': '/static/foodstim60/fried eggs.jpg', 'key': 'u', 'origWidth': 410, 'origHeight': 410, 'width': 410, 'height': 410, 'widthPercent': 0.45, 'rescaleHeight': False, 'trialN': 62, 'loaded': True, 'loadedTime': 2474.8000000715256, 'positionName': 'LEFT', 'positionCoords': [327.28, 227], 'bid': 8.45}, {'imgObject': {}, 'id': 'strawberries', 'src': '/static/foodstim60/strawberries.jpg', 'key': 'i', 'origWidth': 410, 'origHeight': 410, 'width': 410, 'height': 410, 'widthPercent': 0.45, 'rescaleHeight': False, 'trialN': 62, 'loaded': True, 'loadedTime': 2216.2000000476837, 'positionName': 'RIGHT', 'positionCoords': [798.72, 227], 'bid': 8.59}]",95726.20000004768,1669844047946,fried eggs,strawberries,8.45,8.59,0.14000000000000057,fried eggs,u,870.8999999761581,872,True,97110.20000004768,1384.0,1669844049330,1384,871.5,HRV,HRV_0303,2022-11-30 21:37:06
63,"[{'imgObject': {}, 'id': 'raisin bran w milk', 'src': '/static/foodstim60/raisin bran w milk.jpg', 'key': 'u', 'origWidth': 411, 'origHeight': 411, 'width': 411, 'height': 411, 'widthPercent': 0.45, 'rescaleHeight': False, 'trialN': 63, 'loaded': True, 'loadedTime': 2525.7000000476837, 'positionName': 'LEFT', 'positionCoords': [326.28, 226.5], 'bid': 5}, {'imgObject': {}, 'id': 'cherries', 'src': '/static/foodstim60/cherries.jpg', 'key': 'i', 'origWidth': 410, 'origHeight': 411, 'width': 410, 'height': 411, 'widthPercent': 0.45, 'rescaleHeight': False, 'trialN': 63, 'loaded': True, 'loadedTime': 2276.8000000715256, 'positionName': 'RIGHT', 'positionCoords': [798.72, 226.5], 'bid': 4.38}]",97110.40000009537,1669844049330,raisin bran w milk,cherries,5.0,4.38,-0.6200000000000001,raisin bran w milk,u,1043.5999999046326,1045,True,98668.10000002384,1557.6999999284744,1669844050888,1558,1044.0999999046326,HRV,HRV_0303,2022-11-30 21:37:06
64,"[{'imgObject': {}, 'id': 'cheerios', 'src': '/static/foodstim60/cheerios.jpg', 'key': 'u', 'origWidth': 409, 'origHeight': 410, 'width': 409, 'height': 410, 'widthPercent': 0.45, 'rescaleHeight': False, 'trialN': 64, 'loaded': True, 'loadedTime': 2530, 'positionName': 'LEFT', 'positionCoords': [328.28, 227], 'bid': 7.08}, {'imgObject': {}, 'id': 'cocktailshrimp', 'src': '/static/foodstim60/cocktailshrimp.jpg', 'key': 'i', 'origWidth': 410, 'origHeight': 410, 'width': 410, 'height': 410, 'widthPercent': 0.45, 'rescaleHeight': False, 'trialN': 64, 'loaded': True, 'loadedTime': 2471.600000023842, 'positionName': 'RIGHT', 'positionCoords': [798.72, 227], 'bid': 7.13}]",98668.30000007153,1669844050888,cheerios,cocktailshrimp,7.08,7.13,0.04999999999999982,cheerios,u,1434.2999999523163,1435,True,100617.0,1948.6999999284744,1669844052837,1949,1434.7999999523163,HRV,HRV_0303,2022-11-30 21:37:06
65,"[{'imgObject': {}, 'id': 'blackbeanswithrice', 'src': '/static/foodstim60/blackbeanswithrice.jpg', 'key': 'u', 'origWidth': 410, 'origHeight': 410, 'width': 410, 'height': 410, 'widthPercent': 0.45, 'rescaleHeight': False, 'trialN': 65, 'loaded': True, 'loadedTime': 2535.7000000476837, 'positionName': 'LEFT', 'positionCoords': [327.28, 227], 'bid': 0.1}, {'imgObject': {}, 'id': 'olives', 'src': '/static/foodstim60/olives.jpg', 'key': 'i', 'origWidth': 410, 'origHeight': 410, 'width': 410, 'height': 410, 'widthPercent': 0.45, 'rescaleHeight': False, 'trialN': 65, 'loaded': True, 'loadedTime': 2340.600000023842, 'positionName': 'RIGHT', 'positionCoords': [798.72, 227], 'bid': 0.07}]",100617.30000007153,1669844052837,blackbeanswithrice,olives,0.1,0.07,-0.03,olives,i,1276.6000000238419,1277,True,102410.80000007153,1793.5,1669844054631,1794,1277.0,HRV,HRV_0303,2022-11-30 21:37:06
66,"[{'imgObject': {}, 'id': 'eggsalad', 'src': '/static/foodstim60/eggsalad.jpg', 'key': 'u', 'origWidth': 410, 'origHeight': 409, 'width': 410, 'height': 409, 'widthPercent': 0.45, 'rescaleHeight': False, 'trialN': 66, 'loaded': True, 'loadedTime': 2282.7000000476837, 'positionName': 'LEFT', 'positionCoords': [327.28, 227.5], 'bid': 7.23}, {'imgObject': {}, 'id': 'bagel plain', 'src': '/static/foodstim60/bagel plain.jpg', 'key': 'i', 'origWidth': 410, 'origHeight': 410, 'width': 410, 'height': 410, 'widthPercent': 0.45, 'rescaleHeight': False, 'trialN': 66, 'loaded': True, 'loadedTime': 2531.9000000953674, 'positionName': 'RIGHT', 'positionCoords': [798.72, 227], 'bid': 6.84}]",102411.0,1669844054631,eggsalad,bagel plain,7.23,6.84,-0.39000000000000057,bagel plain,i,1332,1332,True,104252.70000004768,1841.7000000476837,1669844056473,1842,1332.3000000715256,HRV,HRV_0303,2022-11-30 21:37:06
67,"[{'imgObject': {}, 'id': 'blueberries', 'src': '/static/foodstim60/blueberries.jpg', 'key': 'u', 'origWidth': 411, 'origHeight': 411, 'width': 411, 'height': 411, 'widthPercent': 0.45, 'rescaleHeight': False, 'trialN': 67, 'loaded': True, 'loadedTime': 2533.5, 'positionName': 'LEFT', 'positionCoords': [326.28, 226.5], 'bid': 7.18}, {'imgObject': {}, 'id': 'mashed potato', 'src': '/static/foodstim60/mashed potato.jpg', 'key': 'i', 'origWidth': 409, 'origHeight': 409, 'width': 409, 'height': 409, 'widthPercent': 0.45, 'rescaleHeight': False, 'trialN': 67, 'loaded': True, 'loadedTime': 2288, 'positionName': 'RIGHT', 'positionCoords': [798.72, 227.5], 'bid': 8.370000000000001}]",104252.80000007153,1669844056473,blueberries,mashed potato,7.18,8.370000000000001,1.1900000000000013,mashed potato,i,832,832,True,105603.60000002384,1350.7999999523163,1669844057824,1351,832.2999999523163,HRV,HRV_0303,2022-11-30 21:37:06
68,"[{'imgObject': {}, 'id': 'yogurt no spoon', 'src': '/static/foodstim60/yogurt no spoon.jpg', 'key': 'u', 'origWidth': 411, 'origHeight': 410, 'width': 411, 'height': 410, 'widthPercent': 0.45, 'rescaleHeight': False, 'trialN': 68, 'loaded': True, 'loadedTime': 2285.100000023842, 'positionName': 'LEFT', 'positionCoords': [326.28, 227], 'bid': 0.23}, {'imgObject': {}, 'id': 'sweetpotato', 'src': '/static/foodstim60/sweetpotato.jpg', 'key': 'i', 'origWidth': 410, 'origHeight': 410, 'width': 410, 'height': 410, 'widthPercent': 0.45, 'rescaleHeight': False, 'trialN': 68, 'loaded': True, 'loadedTime': 2533.600000023842, 'positionName': 'RIGHT', 'positionCoords': [798.72, 227], 'bid': 0}]",105603.70000004768,1669844057824,yogurt no spoon,sweetpotato,0.23,0.0,-0.23,yogurt no spoon,u,1173.6000000238419,1174,True,107281.0,1677.2999999523163,1669844059501,1677,1174.0,HRV,HRV_0303,2022-11-30 21:37:06
69,"[{'imgObject': {}, 'id': 'seaweed', 'src': '/static/foodstim60/seaweed.jpg', 'key': 'u', 'origWidth': 410, 'origHeight': 410, 'width': 410, 'height': 410, 'widthPercent': 0.45, 'rescaleHeight': False, 'trialN': 69, 'loaded': True, 'loadedTime': 2496.4000000953674, 'positionName': 'LEFT', 'positionCoords': [327.28, 227], 'bid': 0.11}, {'imgObject': {}, 'id': 'sushi w_condiments', 'src': '/static/foodstim60/sushi w_condiments.jpg', 'key': 'i', 'origWidth': 410, 'origHeight': 410, 'width': 410, 'height': 410, 'widthPercent': 0.45, 'rescaleHeight': False, 'trialN': 69, 'loaded': True, 'loadedTime': 2375.2000000476837, 'positionName': 'RIGHT', 'positionCoords': [798.72, 227], 'bid': 0.13}]",107281.20000004768,1669844059501,seaweed,sushi w_condiments,0.11,0.13,0.020000000000000004,sushi w_condiments,i,868.6000000238419,869,True,108665.60000002384,1384.3999999761581,1669844060886,1385,868.8999999761581,HRV,HRV_0303,2022-11-30 21:37:06
70,"[{'imgObject': {}, 'id': 'grilled chicken strips', 'src': '/static/foodstim60/grilled chicken strips.jpg', 'key': 'u', 'origWidth': 410, 'origHeight': 411, 'width': 410, 'height': 411, 'widthPercent': 0.45, 'rescaleHeight': False, 'trialN': 70, 'loaded': True, 'loadedTime': 2420.5, 'positionName': 'LEFT', 'positionCoords': [327.28, 226.5], 'bid': 10}, {'imgObject': {}, 'id': 'steak', 'src': '/static/foodstim60/steak.jpg', 'key': 'i', 'origWidth': 410, 'origHeight': 410, 'width': 410, 'height': 410, 'widthPercent': 0.45, 'rescaleHeight': False, 'trialN': 70, 'loaded': True, 'loadedTime': 2534.3000000715256, 'positionName': 'RIGHT', 'positionCoords': [798.72, 227], 'bid': 9.98}]",108665.80000007153,1669844060886,grilled chicken strips,steak,10.0,9.98,-0.019999999999999574,steak,i,823,823,True,110003.20000004768,1337.3999999761581,1669844062223,1337,823.2999999523163,HRV,HRV_0303,2022-11-30 21:37:06
71,"[{'imgObject': {}, 'id': 'grilled chicken strips', 'src': '/static/foodstim60/grilled chicken strips.jpg', 'key': 'u', 'origWidth': 410, 'origHeight': 411, 'width': 410, 'height': 411, 'widthPercent': 0.45, 'rescaleHeight': False, 'trialN': 71, 'loaded': True, 'loadedTime': 2420, 'positionName': 'LEFT', 'positionCoords': [327.28, 226.5], 'bid': 10}, {'imgObject': {}, 'id': 'turkey sandwich', 'src': '/static/foodstim60/turkey sandwich.jpg', 'key': 'i', 'origWidth': 409, 'origHeight': 409, 'width': 409, 'height': 409, 'widthPercent': 0.45, 'rescaleHeight': False, 'trialN': 71, 'loaded': True, 'loadedTime': 2462.7000000476837, 'positionName': 'RIGHT', 'positionCoords': [798.72, 227.5], 'bid': 9.94}]",110003.40000009537,1669844062224,grilled chicken strips,turkey sandwich,10.0,9.94,-0.0600000000000005,turkey sandwich,i,1578.5,1579,True,112097.30000007153,2093.899999976158,1669844064317,2093,1579.0,HRV,HRV_0303,2022-11-30 21:37:06
72,"[{'imgObject': {}, 'id': 'kiwi', 'src': '/static/foodstim60/kiwi.jpg', 'key': 'u', 'origWidth': 410, 'origHeight': 410, 'width': 410, 'height': 410, 'widthPercent': 0.45, 'rescaleHeight': False, 'trialN': 72, 'loaded': True, 'loadedTime': 2505.100000023842, 'positionName': 'LEFT', 'positionCoords': [327.28, 227], 'bid': 6.09}, {'imgObject': {}, 'id': 'sushi w_condiments', 'src': '/static/foodstim60/sushi w_condiments.jpg', 'key': 'i', 'origWidth': 410, 'origHeight': 410, 'width': 410, 'height': 410, 'widthPercent': 0.45, 'rescaleHeight': False, 'trialN': 72, 'loaded': True, 'loadedTime': 2375.100000023842, 'positionName': 'RIGHT', 'positionCoords': [798.72, 227], 'bid': 0.13}]",112097.5,1669844064318,kiwi,sushi w_condiments,6.09,0.13,-5.96,kiwi,u,1008.1000000238419,1008,True,113618.5,1521.0,1669844065839,1521,1008.4000000953674,HRV,HRV_0303,2022-11-30 21:37:06
73,"[{'imgObject': {}, 'id': 'baked potato', 'src': '/static/foodstim60/baked potato.jpg', 'key': 'u', 'origWidth': 409, 'origHeight': 410, 'width': 409, 'height': 410, 'widthPercent': 0.45, 'rescaleHeight': False, 'trialN': 73, 'loaded': True, 'loadedTime': 2286, 'positionName': 'LEFT', 'positionCoords': [328.28, 227], 'bid': 7.87}, {'imgObject': {}, 'id': 'Tribe humus pita', 'src': '/static/foodstim60/Tribe humus pita.jpg', 'key': 'i', 'origWidth': 411, 'origHeight': 411, 'width': 411, 'height': 411, 'widthPercent': 0.45, 'rescaleHeight': False, 'trialN': 73, 'loaded': True, 'loadedTime': 2529.600000023842, 'positionName': 'RIGHT', 'positionCoords': [798.72, 226.5], 'bid': 4.14}]",113618.60000002384,1669844065839,baked potato,Tribe humus pita,7.87,4.14,-3.7300000000000004,baked potato,u,1058.5,1059,True,115194.0,1575.3999999761581,1669844067414,1575,1058.8999999761581,HRV,HRV_0303,2022-11-30 21:37:06
74,"[{'imgObject': {}, 'id': 'granola w milk', 'src': '/static/foodstim60/granola w milk.jpg', 'key': 'u', 'origWidth': 410, 'origHeight': 410, 'width': 410, 'height': 410, 'widthPercent': 0.45, 'rescaleHeight': False, 'trialN': 74, 'loaded': True, 'loadedTime': 2535.8000000715256, 'positionName': 'LEFT', 'positionCoords': [327.28, 227], 'bid': 5.5200000000000005}, {'imgObject': {}, 'id': 'olives', 'src': '/static/foodstim60/olives.jpg', 'key': 'i', 'origWidth': 410, 'origHeight': 410, 'width': 410, 'height': 410, 'widthPercent': 0.45, 'rescaleHeight': False, 'trialN': 74, 'loaded': True, 'loadedTime': 2339.5, 'positionName': 'RIGHT', 'positionCoords': [798.72, 227], 'bid': 0.07}]",115194.30000007153,1669844067414,granola w milk,olives,5.5200000000000005,0.07,-5.45,granola w milk,u,802.7999999523163,804,True,116504.0,1309.6999999284744,1669844068724,1310,803.1999999284744,HRV,HRV_0303,2022-11-30 21:37:06
75,"[{'imgObject': {}, 'id': 'fruitsalad', 'src': '/static/foodstim60/fruitsalad.jpg', 'key': 'u', 'origWidth': 410, 'origHeight': 410, 'width': 410, 'height': 410, 'widthPercent': 0.45, 'rescaleHeight': False, 'trialN': 75, 'loaded': True, 'loadedTime': 2507, 'positionName': 'LEFT', 'positionCoords': [327.28, 227], 'bid': 6.7700000000000005}, {'imgObject': {}, 'id': 'ice cream sundae 002', 'src': '/static/foodstim60/ice cream sundae 002.jpg', 'key': 'i', 'origWidth': 409, 'origHeight': 409, 'width': 409, 'height': 409, 'widthPercent': 0.45, 'rescaleHeight': False, 'trialN': 75, 'loaded': True, 'loadedTime': 2499.7000000476837, 'positionName': 'RIGHT', 'positionCoords': [798.72, 227.5], 'bid': 9.83}]",116504.10000002384,1669844068724,fruitsalad,ice cream sundae 002,6.7700000000000005,9.83,3.0599999999999996,ice cream sundae 002,i,770,771,True,117797.80000007153,1293.7000000476837,1669844070018,1294,770.5,HRV,HRV_0303,2022-11-30 21:37:06
76,"[{'imgObject': {}, 'id': 'orange slices', 'src': '/static/foodstim60/orange slices.jpg', 'key': 'u', 'origWidth': 409, 'origHeight': 410, 'width': 409, 'height': 410, 'widthPercent': 0.45, 'rescaleHeight': False, 'trialN': 76, 'loaded': True, 'loadedTime': 2337.8000000715256, 'positionName': 'LEFT', 'positionCoords': [328.28, 227], 'bid': 7.35}, {'imgObject': {}, 'id': 'blueberries', 'src': '/static/foodstim60/blueberries.jpg', 'key': 'i', 'origWidth': 411, 'origHeight': 411, 'width': 411, 'height': 411, 'widthPercent': 0.45, 'rescaleHeight': False, 'trialN': 76, 'loaded': True, 'loadedTime': 2533.5, 'positionName': 'RIGHT', 'positionCoords': [798.72, 226.5], 'bid': 7.18}]",117798.0,1669844070018,orange slices,blueberries,7.35,7.18,-0.16999999999999993,orange slices,u,696.7000000476837,697,True,118998.5,1200.5,1669844071219,1201,697.1000000238419,HRV,HRV_0303,2022-11-30 21:37:06
77,"[{'imgObject': {}, 'id': 'chickenfingers', 'src': '/static/foodstim60/chickenfingers.jpg', 'key': 'u', 'origWidth': 410, 'origHeight': 410, 'width': 410, 'height': 410, 'widthPercent': 0.45, 'rescaleHeight': False, 'trialN': 77, 'loaded': True, 'loadedTime': 2428.600000023842, 'positionName': 'LEFT', 'positionCoords': [327.28, 227], 'bid': 7.86}, {'imgObject': {}, 'id': 'roastedpotatoes', 'src': '/static/foodstim60/roastedpotatoes.jpg', 'key': 'i', 'origWidth': 409, 'origHeight': 410, 'width': 409, 'height': 410, 'widthPercent': 0.45, 'rescaleHeight': False, 'trialN': 77, 'loaded': True, 'loadedTime': 2481.8000000715256, 'positionName': 'RIGHT', 'positionCoords': [798.72, 227], 'bid': 7.85}]",118998.70000004768,1669844071219,chickenfingers,roastedpotatoes,7.86,7.85,-0.010000000000000675,roastedpotatoes,i,1018.6000000238419,1019,True,120528.90000009537,1530.2000000476837,1669844072749,1530,1019.1000000238419,HRV,HRV_0303,2022-11-30 21:37:06
78,"[{'imgObject': {}, 'id': 'yogurt no spoon', 'src': '/static/foodstim60/yogurt no spoon.jpg', 'key': 'u', 'origWidth': 411, 'origHeight': 410, 'width': 411, 'height': 410, 'widthPercent': 0.45, 'rescaleHeight': False, 'trialN': 78, 'loaded': True, 'loadedTime': 2284.7000000476837, 'positionName': 'LEFT', 'positionCoords': [326.28, 227], 'bid': 0.23}, {'imgObject': {}, 'id': 'rigatoni', 'src': '/static/foodstim60/rigatoni.jpg', 'key': 'i', 'origWidth': 411, 'origHeight': 411, 'width': 411, 'height': 411, 'widthPercent': 0.45, 'rescaleHeight': False, 'trialN': 78, 'loaded': True, 'loadedTime': 2267.8000000715256, 'positionName': 'RIGHT', 'positionCoords': [798.72, 226.5], 'bid': 7.85}]",120529.20000004768,1669844072749,yogurt no spoon,rigatoni,0.23,7.85,7.619999999999999,rigatoni,i,1066.7999999523163,1068,True,122103.5,1574.2999999523163,1669844074324,1575,1067.2000000476837,HRV,HRV_0303,2022-11-30 21:37:06
79,"[{'imgObject': {}, 'id': 'turkeysandwich', 'src': '/static/foodstim60/turkeysandwich.jpg', 'key': 'u', 'origWidth': 409, 'origHeight': 409, 'width': 409, 'height': 409, 'widthPercent': 0.45, 'rescaleHeight': False, 'trialN': 79, 'loaded': True, 'loadedTime': 2287.9000000953674, 'positionName': 'LEFT', 'positionCoords': [328.28, 227.5], 'bid': 8.45}, {'imgObject': {}, 'id': 'strawberries', 'src': '/static/foodstim60/strawberries.jpg', 'key': 'i', 'origWidth': 410, 'origHeight': 410, 'width': 410, 'height': 410, 'widthPercent': 0.45, 'rescaleHeight': False, 'trialN': 79, 'loaded': True, 'loadedTime': 2216, 'positionName': 'RIGHT', 'positionCoords': [798.72, 227], 'bid': 8.59}]",122103.70000004768,1669844074324,turkeysandwich,strawberries,8.45,8.59,0.14000000000000057,turkeysandwich,u,963.7999999523163,964,True,123578.0,1474.2999999523163,1669844075798,1474,964.2000000476837,HRV,HRV_0303,2022-11-30 21:37:06
80,"[{'imgObject': {}, 'id': 'veggieswithdip', 'src': '/static/foodstim60/veggieswithdip.jpg', 'key': 'u', 'origWidth': 409, 'origHeight': 409, 'width': 409, 'height': 409, 'widthPercent': 0.45, 'rescaleHeight': False, 'trialN': 80, 'loaded': True, 'loadedTime': 2469.7000000476837, 'positionName': 'LEFT', 'positionCoords': [328.28, 227.5], 'bid': 7.6}, {'imgObject': {}, 'id': 'apple slices', 'src': '/static/foodstim60/apple slices.jpg', 'key': 'i', 'origWidth': 409, 'origHeight': 410, 'width': 409, 'height': 410, 'widthPercent': 0.45, 'rescaleHeight': False, 'trialN': 80, 'loaded': True, 'loadedTime': 2275.4000000953674, 'positionName': 'RIGHT', 'positionCoords': [798.72, 227], 'bid': 6.83}]",123578.10000002384,1669844075798,veggieswithdip,apple slices,7.6,6.83,-0.7699999999999996,veggieswithdip,u,849.3000000715256,850,True,124948.5,1370.3999999761581,1669844077169,1371,849.8000000715256,HRV,HRV_0303,2022-11-30 21:37:06
81,"[{'imgObject': {}, 'id': 'raspberries', 'src': '/static/foodstim60/raspberries.jpg', 'key': 'u', 'origWidth': 411, 'origHeight': 411, 'width': 411, 'height': 411, 'widthPercent': 0.45, 'rescaleHeight': False, 'trialN': 81, 'loaded': True, 'loadedTime': 2480.7000000476837, 'positionName': 'LEFT', 'positionCoords': [326.28, 226.5], 'bid': 6.0200000000000005}, {'imgObject': {}, 'id': 'burrito', 'src': '/static/foodstim60/burrito.jpg', 'key': 'i', 'origWidth': 410, 'origHeight': 410, 'width': 410, 'height': 410, 'widthPercent': 0.45, 'rescaleHeight': False, 'trialN': 81, 'loaded': True, 'loadedTime': 2423.3000000715256, 'positionName': 'RIGHT', 'positionCoords': [798.72, 227], 'bid': 8.75}]",124948.80000007153,1669844077169,raspberries,burrito,6.0200000000000005,8.75,2.7299999999999995,burrito,i,679.6000000238419,680,True,126143.5,1194.6999999284744,1669844078364,1195,679.8999999761581,HRV,HRV_0303,2022-11-30 21:37:06
82,"[{'imgObject': {}, 'id': 'salad w chicken', 'src': '/static/foodstim60/salad w chicken.jpg', 'key': 'u', 'origWidth': 411, 'origHeight': 411, 'width': 411, 'height': 411, 'widthPercent': 0.45, 'rescaleHeight': False, 'trialN': 82, 'loaded': True, 'loadedTime': 2389.600000023842, 'positionName': 'LEFT', 'positionCoords': [326.28, 226.5], 'bid': 5.44}, {'imgObject': {}, 'id': 'eggs', 'src': '/static/foodstim60/eggs.jpg', 'key': 'i', 'origWidth': 409, 'origHeight': 409, 'width': 409, 'height': 409, 'widthPercent': 0.45, 'rescaleHeight': False, 'trialN': 82, 'loaded': True, 'loadedTime': 2276.5, 'positionName': 'RIGHT', 'positionCoords': [798.72, 227.5], 'bid': 5.03}]",126143.70000004768,1669844078364,salad w chicken,eggs,5.44,5.03,-0.41000000000000014,eggs,i,1054.3999999761581,1055,True,127704.40000009537,1560.7000000476837,1669844079925,1561,1054.8999999761581,HRV,HRV_0303,2022-11-30 21:37:06
83,"[{'imgObject': {}, 'id': 'raisin bran w milk', 'src': '/static/foodstim60/raisin bran w milk.jpg', 'key': 'u', 'origWidth': 411, 'origHeight': 411, 'width': 411, 'height': 411, 'widthPercent': 0.45, 'rescaleHeight': False, 'trialN': 83, 'loaded': True, 'loadedTime': 2524.5, 'positionName': 'LEFT', 'positionCoords': [326.28, 226.5], 'bid': 5}, {'imgObject': {}, 'id': 'omelette', 'src': '/static/foodstim60/omelette.jpg', 'key': 'i', 'origWidth': 410, 'origHeight': 409, 'width': 410, 'height': 409, 'widthPercent': 0.45, 'rescaleHeight': False, 'trialN': 83, 'loaded': True, 'loadedTime': 2336.4000000953674, 'positionName': 'RIGHT', 'positionCoords': [798.72, 227.5], 'bid': 0}]",127704.60000002384,1669844079925,raisin bran w milk,omelette,5.0,0.0,-5.0,omelette,i,919.3000000715256,919,True,129134.10000002384,1429.5,1669844081354,1429,919.7000000476837,HRV,HRV_0303,2022-11-30 21:37:06
84,"[{'imgObject': {}, 'id': 'hashbrowns', 'src': '/static/foodstim60/hashbrowns.jpg', 'key': 'u', 'origWidth': 411, 'origHeight': 410, 'width': 411, 'height': 410, 'widthPercent': 0.45, 'rescaleHeight': False, 'trialN': 84, 'loaded': True, 'loadedTime': 2532.600000023842, 'positionName': 'LEFT', 'positionCoords': [326.28, 227], 'bid': 3.12}, {'imgObject': {}, 'id': 'popsicles', 'src': '/static/foodstim60/popsicles.jpg', 'key': 'i', 'origWidth': 410, 'origHeight': 410, 'width': 410, 'height': 410, 'widthPercent': 0.45, 'rescaleHeight': False, 'trialN': 84, 'loaded': True, 'loadedTime': 2542.2000000476837, 'positionName': 'RIGHT', 'positionCoords': [798.72, 227], 'bid': 4.3}]",129134.30000007153,1669844081354,hashbrowns,popsicles,3.12,4.3,1.1799999999999997,hashbrowns,u,621.2999999523163,622,True,130269.10000002384,1134.7999999523163,1669844082489,1135,621.7999999523163,HRV,HRV_0303,2022-11-30 21:37:06
85,"[{'imgObject': {}, 'id': 'popsicles', 'src': '/static/foodstim60/popsicles.jpg', 'key': 'u', 'origWidth': 410, 'origHeight': 410, 'width': 410, 'height': 410, 'widthPercent': 0.45, 'rescaleHeight': False, 'trialN': 85, 'loaded': True, 'loadedTime': 2542, 'positionName': 'LEFT', 'positionCoords': [327.28, 227], 'bid': 4.3}, {'imgObject': {}, 'id': 'avocado', 'src': '/static/foodstim60/avocado.jpg', 'key': 'i', 'origWidth': 409, 'origHeight': 409, 'width': 409, 'height': 409, 'widthPercent': 0.45, 'rescaleHeight': False, 'trialN': 85, 'loaded': True, 'loadedTime': 2347.8000000715256, 'positionName': 'RIGHT', 'positionCoords': [798.72, 227.5], 'bid': 0}]",130269.20000004768,1669844082489,popsicles,avocado,4.3,0.0,-4.3,popsicles,u,969.3999999761581,970,True,131745.20000004768,1476.0,1669844083965,1476,969.6000000238419,HRV,HRV_0303,2022-11-30 21:37:06
86,"[{'imgObject': {}, 'id': 'sweetpotato', 'src': '/static/foodstim60/sweetpotato.jpg', 'key': 'u', 'origWidth': 410, 'origHeight': 410, 'width': 410, 'height': 410, 'widthPercent': 0.45, 'rescaleHeight': False, 'trialN': 86, 'loaded': True, 'loadedTime': 2534.100000023842, 'positionName': 'LEFT', 'positionCoords': [327.28, 227], 'bid': 0}, {'imgObject': {}, 'id': 'blackbeanswithrice', 'src': '/static/foodstim60/blackbeanswithrice.jpg', 'key': 'i', 'origWidth': 410, 'origHeight': 410, 'width': 410, 'height': 410, 'widthPercent': 0.45, 'rescaleHeight': False, 'trialN': 86, 'loaded': True, 'loadedTime': 2535.100000023842, 'positionName': 'RIGHT', 'positionCoords': [798.72, 227], 'bid': 0.1}]",131745.40000009537,1669844083965,sweetpotato,blackbeanswithrice,0.0,0.1,0.1,sweetpotato,u,702.0999999046326,703,True,132958.0,1212.5999999046326,1669844085178,1213,702.5,HRV,HRV_0303,2022-11-30 21:37:06
87,"[{'imgObject': {}, 'id': 'salad w chicken', 'src': '/static/foodstim60/salad w chicken.jpg', 'key': 'u', 'origWidth': 411, 'origHeight': 411, 'width': 411, 'height': 411, 'widthPercent': 0.45, 'rescaleHeight': False, 'trialN': 87, 'loaded': True, 'loadedTime': 2389.9000000953674, 'positionName': 'LEFT', 'positionCoords': [326.28, 226.5], 'bid': 5.44}, {'imgObject': {}, 'id': 'turkeysandwich', 'src': '/static/foodstim60/turkeysandwich.jpg', 'key': 'i', 'origWidth': 409, 'origHeight': 409, 'width': 409, 'height': 409, 'widthPercent': 0.45, 'rescaleHeight': False, 'trialN': 87, 'loaded': True, 'loadedTime': 2287.7000000476837, 'positionName': 'RIGHT', 'positionCoords': [798.72, 227.5], 'bid': 8.45}]",132958.20000004768,1669844085178,salad w chicken,turkeysandwich,5.44,8.45,3.009999999999999,turkeysandwich,i,780.7000000476837,781,True,134254.5,1296.2999999523163,1669844086475,1297,781.2000000476837,HRV,HRV_0303,2022-11-30 21:37:06
88,"[{'imgObject': {}, 'id': 'bagel and cc', 'src': '/static/foodstim60/bagel and cc.jpg', 'key': 'u', 'origWidth': 410, 'origHeight': 410, 'width': 410, 'height': 410, 'widthPercent': 0.45, 'rescaleHeight': False, 'trialN': 88, 'loaded': True, 'loadedTime': 2287, 'positionName': 'LEFT', 'positionCoords': [327.28, 227], 'bid': 7.890000000000001}, {'imgObject': {}, 'id': 'mac & cheese', 'src': '/static/foodstim60/mac & cheese.jpg', 'key': 'i', 'origWidth': 410, 'origHeight': 410, 'width': 410, 'height': 410, 'widthPercent': 0.45, 'rescaleHeight': False, 'trialN': 88, 'loaded': True, 'loadedTime': 2391, 'positionName': 'RIGHT', 'positionCoords': [798.72, 227], 'bid': 7.83}]",134254.70000004768,1669844086475,bagel and cc,mac & cheese,7.890000000000001,7.83,-0.0600000000000005,bagel and cc,u,1236.8999999761581,1237,True,136001.10000002384,1746.3999999761581,1669844088221,1746,1237.2999999523163,HRV,HRV_0303,2022-11-30 21:37:06
89,"[{'imgObject': {}, 'id': 'tacos', 'src': '/static/foodstim60/tacos.jpg', 'key': 'u', 'origWidth': 411, 'origHeight': 411, 'width': 411, 'height': 411, 'widthPercent': 0.45, 'rescaleHeight': False, 'trialN': 89, 'loaded': True, 'loadedTime': 2506.3000000715256, 'positionName': 'LEFT', 'positionCoords': [326.28, 226.5], 'bid': 9.44}, {'imgObject': {}, 'id': 'bagel and cc', 'src': '/static/foodstim60/bagel and cc.jpg', 'key': 'i', 'origWidth': 410, 'origHeight': 410, 'width': 410, 'height': 410, 'widthPercent': 0.45, 'rescaleHeight': False, 'trialN': 89, 'loaded': True, 'loadedTime': 2286.9000000953674, 'positionName': 'RIGHT', 'positionCoords': [798.72, 227], 'bid': 7.890000000000001}]",136001.20000004768,1669844088221,tacos,bagel and cc,9.44,7.890000000000001,-1.549999999999999,bagel and cc,i,726.5,727,True,137238.10000002384,1236.8999999761581,1669844089458,1237,727.0,HRV,HRV_0303,2022-11-30 21:37:06
90,"[{'imgObject': {}, 'id': 'blackbeanswithrice', 'src': '/static/foodstim60/blackbeanswithrice.jpg', 'key': 'u', 'origWidth': 410, 'origHeight': 410, 'width': 410, 'height': 410, 'widthPercent': 0.45, 'rescaleHeight': False, 'trialN': 90, 'loaded': True, 'loadedTime': 2535.7000000476837, 'positionName': 'LEFT', 'positionCoords': [327.28, 227], 'bid': 0.1}, {'imgObject': {}, 'id': 'raisin bran w milk', 'src': '/static/foodstim60/raisin bran w milk.jpg', 'key': 'i', 'origWidth': 411, 'origHeight': 411, 'width': 411, 'height': 411, 'widthPercent': 0.45, 'rescaleHeight': False, 'trialN': 90, 'loaded': True, 'loadedTime': 2524.5, 'positionName': 'RIGHT', 'positionCoords': [798.72, 226.5], 'bid': 5}]",141973.10000002384,1669844094193,blackbeanswithrice,raisin bran w milk,0.1,5.0,4.9,raisin bran w milk,i,1754.2000000476837,1755,True,144244.90000009537,2271.8000000715256,1669844096465,2272,1754.6000000238419,HRV,HRV_0303,2022-11-30 21:37:06
91,"[{'imgObject': {}, 'id': 'eggsalad', 'src': '/static/foodstim60/eggsalad.jpg', 'key': 'u', 'origWidth': 410, 'origHeight': 409, 'width': 410, 'height': 409, 'widthPercent': 0.45, 'rescaleHeight': False, 'trialN': 91, 'loaded': True, 'loadedTime': 2283.4000000953674, 'positionName': 'LEFT', 'positionCoords': [327.28, 227.5], 'bid': 7.23}, {'imgObject': {}, 'id': 'turkeysandwich', 'src': '/static/foodstim60/turkeysandwich.jpg', 'key': 'i', 'origWidth': 409, 'origHeight': 409, 'width': 409, 'height': 409, 'widthPercent': 0.45, 'rescaleHeight': False, 'trialN': 91, 'loaded': True, 'loadedTime': 2287.2000000476837, 'positionName': 'RIGHT', 'positionCoords': [798.72, 227.5], 'bid': 8.45}]",144245.10000002384,1669844096465,eggsalad,turkeysandwich,7.23,8.45,1.2199999999999989,turkeysandwich,i,897,898,True,145649.60000002384,1404.5,1669844097870,1405,897.5,HRV,HRV_0303,2022-11-30 21:37:06
92,"[{'imgObject': {}, 'id': 'burger', 'src': '/static/foodstim60/burger.jpg', 'key': 'u', 'origWidth': 409, 'origHeight': 409, 'width': 409, 'height': 409, 'widthPercent': 0.45, 'rescaleHeight': False, 'trialN': 92, 'loaded': True, 'loadedTime': 2426.8000000715256, 'positionName': 'LEFT', 'positionCoords': [328.28, 227.5], 'bid': 7.87}, {'imgObject': {}, 'id': 'hashbrowns', 'src': '/static/foodstim60/hashbrowns.jpg', 'key': 'i', 'origWidth': 411, 'origHeight': 410, 'width': 411, 'height': 410, 'widthPercent': 0.45, 'rescaleHeight': False, 'trialN': 92, 'loaded': True, 'loadedTime': 2532.8000000715256, 'positionName': 'RIGHT', 'positionCoords': [798.72, 227], 'bid': 3.12}]",145649.70000004768,1669844097870,burger,hashbrowns,7.87,3.12,-4.75,burger,u,813.2000000476837,814,True,146977.80000007153,1328.1000000238419,1669844099198,1328,813.7000000476837,HRV,HRV_0303,2022-11-30 21:37:06
93,"[{'imgObject': {}, 'id': 'mac & cheese', 'src': '/static/foodstim60/mac & cheese.jpg', 'key': 'u', 'origWidth': 410, 'origHeight': 410, 'width': 410, 'height': 410, 'widthPercent': 0.45, 'rescaleHeight': False, 'trialN': 93, 'loaded': True, 'loadedTime': 2390.9000000953674, 'positionName': 'LEFT', 'positionCoords': [327.28, 227], 'bid': 7.83}, {'imgObject': {}, 'id': 'hotdog w must', 'src': '/static/foodstim60/hotdog w must.jpg', 'key': 'i', 'origWidth': 409, 'origHeight': 409, 'width': 409, 'height': 409, 'widthPercent': 0.45, 'rescaleHeight': False, 'trialN': 93, 'loaded': True, 'loadedTime': 2309.8000000715256, 'positionName': 'RIGHT', 'positionCoords': [798.72, 227.5], 'bid': 7.76}]",146978.0,1669844099198,mac & cheese,hotdog w must,7.83,7.76,-0.07000000000000028,hotdog w must,i,1181.6000000238419,1182,True,148666.5,1688.5,1669844100887,1689,1182.1000000238419,HRV,HRV_0303,2022-11-30 21:37:06
94,"[{'imgObject': {}, 'id': 'eggs', 'src': '/static/foodstim60/eggs.jpg', 'key': 'u', 'origWidth': 409, 'origHeight': 409, 'width': 409, 'height': 409, 'widthPercent': 0.45, 'rescaleHeight': False, 'trialN': 94, 'loaded': True, 'loadedTime': 2276.2000000476837, 'positionName': 'LEFT', 'positionCoords': [328.28, 227.5], 'bid': 5.03}, {'imgObject': {}, 'id': 'shreddedwheatwithmilk', 'src': '/static/foodstim60/shreddedwheatwithmilk.jpg', 'key': 'i', 'origWidth': 410, 'origHeight': 410, 'width': 410, 'height': 410, 'widthPercent': 0.45, 'rescaleHeight': False, 'trialN': 94, 'loaded': True, 'loadedTime': 2507.5, 'positionName': 'RIGHT', 'positionCoords': [798.72, 227], 'bid': 0.03}]",148666.80000007153,1669844100887,eggs,shreddedwheatwithmilk,5.03,0.03,-5.0,eggs,u,725.6000000238419,726,True,149901.30000007153,1234.5,1669844102121,1234,726.1000000238419,HRV,HRV_0303,2022-11-30 21:37:06
95,"[{'imgObject': {}, 'id': 'omelette', 'src': '/static/foodstim60/omelette.jpg', 'key': 'u', 'origWidth': 410, 'origHeight': 409, 'width': 410, 'height': 409, 'widthPercent': 0.45, 'rescaleHeight': False, 'trialN': 95, 'loaded': True, 'loadedTime': 2335.2000000476837, 'positionName': 'LEFT', 'positionCoords': [327.28, 227.5], 'bid': 0}, {'imgObject': {}, 'id': 'salmon', 'src': '/static/foodstim60/salmon.jpg', 'key': 'i', 'origWidth': 410, 'origHeight': 409, 'width': 410, 'height': 409, 'widthPercent': 0.45, 'rescaleHeight': False, 'trialN': 95, 'loaded': True, 'loadedTime': 2278.8000000715256, 'positionName': 'RIGHT', 'positionCoords': [798.72, 227.5], 'bid': 7.13}]",149901.60000002384,1669844102122,omelette,salmon,0.0,7.13,7.13,salmon,i,1034.6000000238419,1035,True,151446.80000007153,1545.2000000476837,1669844103667,1545,1035.0,HRV,HRV_0303,2022-11-30 21:37:06
96,"[{'imgObject': {}, 'id': 'luckycharms', 'src': '/static/foodstim60/luckycharms.jpg', 'key': 'u', 'origWidth': 410, 'origHeight': 409, 'width': 410, 'height': 409, 'widthPercent': 0.45, 'rescaleHeight': False, 'trialN': 96, 'loaded': True, 'loadedTime': 2450.8000000715256, 'positionName': 'LEFT', 'positionCoords': [327.28, 227.5], 'bid': 8.89}, {'imgObject': {}, 'id': 'corn cob', 'src': '/static/foodstim60/corn cob.jpg', 'key': 'i', 'origWidth': 411, 'origHeight': 411, 'width': 411, 'height': 411, 'widthPercent': 0.45, 'rescaleHeight': False, 'trialN': 96, 'loaded': True, 'loadedTime': 2479.600000023842, 'positionName': 'RIGHT', 'positionCoords': [798.72, 226.5], 'bid': 8.67}]",151447.0,1669844103667,luckycharms,corn cob,8.89,8.67,-0.22000000000000064,luckycharms,u,1110,1111,True,153068.60000002384,1621.6000000238419,1669844105289,1622,1110.5,HRV,HRV_0303,2022-11-30 21:37:06
97,"[{'imgObject': {}, 'id': 'cherries', 'src': '/static/foodstim60/cherries.jpg', 'key': 'u', 'origWidth': 410, 'origHeight': 411, 'width': 410, 'height': 411, 'widthPercent': 0.45, 'rescaleHeight': False, 'trialN': 97, 'loaded': True, 'loadedTime': 2277.7000000476837, 'positionName': 'LEFT', 'positionCoords': [327.28, 226.5], 'bid': 4.38}, {'imgObject': {}, 'id': 'mango', 'src': '/static/foodstim60/mango.jpg', 'key': 'i', 'origWidth': 411, 'origHeight': 411, 'width': 411, 'height': 411, 'widthPercent': 0.45, 'rescaleHeight': False, 'trialN': 97, 'loaded': True, 'loadedTime': 2353.9000000953674, 'positionName': 'RIGHT', 'positionCoords': [798.72, 226.5], 'bid': 0.1}]",153068.80000007153,1669844105289,cherries,mango,4.38,0.1,-4.28,cherries,u,1356.3999999761581,1357,True,154930.10000002384,1861.2999999523163,1669844107150,1861,1356.8999999761581,HRV,HRV_0303,2022-11-30 21:37:06
98,"[{'imgObject': {}, 'id': 'turkeysandwich', 'src': '/static/foodstim60/turkeysandwich.jpg', 'key': 'u', 'origWidth': 409, 'origHeight': 409, 'width': 409, 'height': 409, 'widthPercent': 0.45, 'rescaleHeight': False, 'trialN': 98, 'loaded': True, 'loadedTime': 2287.9000000953674, 'positionName': 'LEFT', 'positionCoords': [328.28, 227.5], 'bid': 8.45}, {'imgObject': {}, 'id': 'tacos', 'src': '/static/foodstim60/tacos.jpg', 'key': 'i', 'origWidth': 411, 'origHeight': 411, 'width': 411, 'height': 411, 'widthPercent': 0.45, 'rescaleHeight': False, 'trialN': 98, 'loaded': True, 'loadedTime': 2506.2000000476837, 'positionName': 'RIGHT', 'positionCoords': [798.72, 226.5], 'bid': 9.44}]",154930.30000007153,1669844107150,turkeysandwich,tacos,8.45,9.44,0.9900000000000002,turkeysandwich,u,904.1000000238419,905,True,156344.5,1414.1999999284744,1669844108565,1415,904.5,HRV,HRV_0303,2022-11-30 21:37:06
99,"[{'imgObject': {}, 'id': 'blueberries', 'src': '/static/foodstim60/blueberries.jpg', 'key': 'u', 'origWidth': 411, 'origHeight': 411, 'width': 411, 'height': 411, 'widthPercent': 0.45, 'rescaleHeight': False, 'trialN': 99, 'loaded': True, 'loadedTime': 2533.4000000953674, 'positionName': 'LEFT', 'positionCoords': [326.28, 226.5], 'bid': 7.18}, {'imgObject': {}, 'id': 'apple slices', 'src': '/static/foodstim60/apple slices.jpg', 'key': 'i', 'origWidth': 409, 'origHeight': 410, 'width': 409, 'height': 410, 'widthPercent': 0.45, 'rescaleHeight': False, 'trialN': 99, 'loaded': True, 'loadedTime': 2273.9000000953674, 'positionName': 'RIGHT', 'positionCoords': [798.72, 227], 'bid': 6.83}]",156344.80000007153,1669844108565,blueberries,apple slices,7.18,6.83,-0.34999999999999964,apple slices,i,730.6000000238419,731,True,157585.0,1240.1999999284744,1669844109805,1240,731.0,HRV,HRV_0303,2022-11-30 21:37:06
100,"[{'imgObject': {}, 'id': 'strawberries', 'src': '/static/foodstim60/strawberries.jpg', 'key': 'u', 'origWidth': 410, 'origHeight': 410, 'width': 410, 'height': 410, 'widthPercent': 0.45, 'rescaleHeight': False, 'trialN': 100, 'loaded': True, 'loadedTime': 2166.600000023842, 'positionName': 'LEFT', 'positionCoords': [327.28, 227], 'bid': 8.59}, {'imgObject': {}, 'id': 'lox', 'src': '/static/foodstim60/lox.jpg', 'key': 'i', 'origWidth': 410, 'origHeight': 411, 'width': 410, 'height': 411, 'widthPercent': 0.45, 'rescaleHeight': False, 'trialN': 100, 'loaded': True, 'loadedTime': 2474.5, 'positionName': 'RIGHT', 'positionCoords': [798.72, 226.5], 'bid': 5.54}]",157585.20000004768,1669844109805,strawberries,lox,8.59,5.54,-3.05,strawberries,u,1007.3999999761581,1008,True,159106.30000007153,1521.1000000238419,1669844111326,1521,1007.7999999523163,HRV,HRV_0303,2022-11-30 21:37:06
101,"[{'imgObject': {}, 'id': 'steak', 'src': '/static/foodstim60/steak.jpg', 'key': 'u', 'origWidth': 410, 'origHeight': 410, 'width': 410, 'height': 410, 'widthPercent': 0.45, 'rescaleHeight': False, 'trialN': 101, 'loaded': True, 'loadedTime': 2535, 'positionName': 'LEFT', 'positionCoords': [327.28, 227], 'bid': 9.98}, {'imgObject': {}, 'id': 'burger', 'src': '/static/foodstim60/burger.jpg', 'key': 'i', 'origWidth': 409, 'origHeight': 409, 'width': 409, 'height': 409, 'widthPercent': 0.45, 'rescaleHeight': False, 'trialN': 101, 'loaded': True, 'loadedTime': 2424.8000000715256, 'positionName': 'RIGHT', 'positionCoords': [798.72, 227.5], 'bid': 7.87}]",159106.5,1669844111327,steak,burger,9.98,7.87,-2.1100000000000003,steak,u,816.7000000476837,817,True,160434.60000002384,1328.1000000238419,1669844112655,1328,817.2000000476837,HRV,HRV_0303,2022-11-30 21:37:06
102,"[{'imgObject': {}, 'id': 'grilled chicken strips', 'src': '/static/foodstim60/grilled chicken strips.jpg', 'key': 'u', 'origWidth': 410, 'origHeight': 411, 'width': 410, 'height': 411, 'widthPercent': 0.45, 'rescaleHeight': False, 'trialN': 102, 'loaded': True, 'loadedTime': 2420.100000023842, 'positionName': 'LEFT', 'positionCoords': [327.28, 226.5], 'bid': 10}, {'imgObject': {}, 'id': 'pear', 'src': '/static/foodstim60/pear.jpg', 'key': 'i', 'origWidth': 411, 'origHeight': 410, 'width': 411, 'height': 410, 'widthPercent': 0.45, 'rescaleHeight': False, 'trialN': 102, 'loaded': True, 'loadedTime': 2391.600000023842, 'positionName': 'RIGHT', 'positionCoords': [798.72, 227], 'bid': 7.01}]",160434.80000007153,1669844112655,grilled chicken strips,pear,10.0,7.01,-2.99,grilled chicken strips,u,880.5,881,True,161827.30000007153,1392.5,1669844114047,1392,880.7999999523163,HRV,HRV_0303,2022-11-30 21:37:06
103,"[{'imgObject': {}, 'id': 'sweetpotato', 'src': '/static/foodstim60/sweetpotato.jpg', 'key': 'u', 'origWidth': 410, 'origHeight': 410, 'width': 410, 'height': 410, 'widthPercent': 0.45, 'rescaleHeight': False, 'trialN': 103, 'loaded': True, 'loadedTime': 2534.2000000476837, 'positionName': 'LEFT', 'positionCoords': [327.28, 227], 'bid': 0}, {'imgObject': {}, 'id': 'avocado', 'src': '/static/foodstim60/avocado.jpg', 'key': 'i', 'origWidth': 409, 'origHeight': 409, 'width': 409, 'height': 409, 'widthPercent': 0.45, 'rescaleHeight': False, 'trialN': 103, 'loaded': True, 'loadedTime': 2342.8000000715256, 'positionName': 'RIGHT', 'positionCoords': [798.72, 227.5], 'bid': 0}]",161827.5,1669844114048,sweetpotato,avocado,0.0,0.0,0.0,avocado,i,924.5,925,True,163263.80000007153,1436.3000000715256,1669844115484,1436,924.9000000953674,HRV,HRV_0303,2022-11-30 21:37:06
104,"[{'imgObject': {}, 'id': 'seaweed', 'src': '/static/foodstim60/seaweed.jpg', 'key': 'u', 'origWidth': 410, 'origHeight': 410, 'width': 410, 'height': 410, 'widthPercent': 0.45, 'rescaleHeight': False, 'trialN': 104, 'loaded': True, 'loadedTime': 2496.600000023842, 'positionName': 'LEFT', 'positionCoords': [327.28, 227], 'bid': 0.11}, {'imgObject': {}, 'id': 'eggs', 'src': '/static/foodstim60/eggs.jpg', 'key': 'i', 'origWidth': 409, 'origHeight': 409, 'width': 409, 'height': 409, 'widthPercent': 0.45, 'rescaleHeight': False, 'trialN': 104, 'loaded': True, 'loadedTime': 2276.600000023842, 'positionName': 'RIGHT', 'positionCoords': [798.72, 227.5], 'bid': 5.03}]",163264.0,1669844115484,seaweed,eggs,0.11,5.03,4.92,eggs,i,640.9000000953674,641,True,164410.0,1146.0,1669844116630,1146,641.3000000715256,HRV,HRV_0303,2022-11-30 21:37:06
105,"[{'imgObject': {}, 'id': 'burrito', 'src': '/static/foodstim60/burrito.jpg', 'key': 'u', 'origWidth': 410, 'origHeight': 410, 'width': 410, 'height': 410, 'widthPercent': 0.45, 'rescaleHeight': False, 'trialN': 105, 'loaded': True, 'loadedTime': 2421.8000000715256, 'positionName': 'LEFT', 'positionCoords': [327.28, 227], 'bid': 8.75}, {'imgObject': {}, 'id': 'tacos', 'src': '/static/foodstim60/tacos.jpg', 'key': 'i', 'origWidth': 411, 'origHeight': 411, 'width': 411, 'height': 411, 'widthPercent': 0.45, 'rescaleHeight': False, 'trialN': 105, 'loaded': True, 'loadedTime': 2506.3000000715256, 'positionName': 'RIGHT', 'positionCoords': [798.72, 226.5], 'bid': 9.44}]",164410.20000004768,1669844116630,burrito,tacos,8.75,9.44,0.6899999999999995,burrito,u,749.5,750,True,165674.40000009537,1264.2000000476837,1669844117895,1265,750.0,HRV,HRV_0303,2022-11-30 21:37:06
106,"[{'imgObject': {}, 'id': 'bagel plain', 'src': '/static/foodstim60/bagel plain.jpg', 'key': 'u', 'origWidth': 410, 'origHeight': 410, 'width': 410, 'height': 410, 'widthPercent': 0.45, 'rescaleHeight': False, 'trialN': 106, 'loaded': True, 'loadedTime': 2531.600000023842, 'positionName': 'LEFT', 'positionCoords': [327.28, 227], 'bid': 6.84}, {'imgObject': {}, 'id': 'steak', 'src': '/static/foodstim60/steak.jpg', 'key': 'i', 'origWidth': 410, 'origHeight': 410, 'width': 410, 'height': 410, 'widthPercent': 0.45, 'rescaleHeight': False, 'trialN': 106, 'loaded': True, 'loadedTime': 2534.9000000953674, 'positionName': 'RIGHT', 'positionCoords': [798.72, 227], 'bid': 9.98}]",165674.70000004768,1669844117895,bagel plain,steak,6.84,9.98,3.1400000000000006,steak,i,737.1000000238419,737,True,166918.90000009537,1244.2000000476837,1669844119139,1244,737.6000000238419,HRV,HRV_0303,2022-11-30 21:37:06
107,"[{'imgObject': {}, 'id': 'cheerios', 'src': '/static/foodstim60/cheerios.jpg', 'key': 'u', 'origWidth': 409, 'origHeight': 410, 'width': 409, 'height': 410, 'widthPercent': 0.45, 'rescaleHeight': False, 'trialN': 107, 'loaded': True, 'loadedTime': 2530.7000000476837, 'positionName': 'LEFT', 'positionCoords': [328.28, 227], 'bid': 7.08}, {'imgObject': {}, 'id': 'granola w milk', 'src': '/static/foodstim60/granola w milk.jpg', 'key': 'i', 'origWidth': 410, 'origHeight': 410, 'width': 410, 'height': 410, 'widthPercent': 0.45, 'rescaleHeight': False, 'trialN': 107, 'loaded': True, 'loadedTime': 2536.5, 'positionName': 'RIGHT', 'positionCoords': [798.72, 227], 'bid': 5.5200000000000005}]",166919.10000002384,1669844119139,cheerios,granola w milk,7.08,5.5200000000000005,-1.5599999999999996,granola w milk,i,1027.8999999761581,1028,True,168461.10000002384,1542.0,1669844120681,1542,1028.2000000476837,HRV,HRV_0303,2022-11-30 21:37:06
108,"[{'imgObject': {}, 'id': 'sweetpotato', 'src': '/static/foodstim60/sweetpotato.jpg', 'key': 'u', 'origWidth': 410, 'origHeight': 410, 'width': 410, 'height': 410, 'widthPercent': 0.45, 'rescaleHeight': False, 'trialN': 108, 'loaded': True, 'loadedTime': 2534.2000000476837, 'positionName': 'LEFT', 'positionCoords': [327.28, 227], 'bid': 0}, {'imgObject': {}, 'id': 'cocktailshrimp', 'src': '/static/foodstim60/cocktailshrimp.jpg', 'key': 'i', 'origWidth': 410, 'origHeight': 410, 'width': 410, 'height': 410, 'widthPercent': 0.45, 'rescaleHeight': False, 'trialN': 108, 'loaded': True, 'loadedTime': 2472, 'positionName': 'RIGHT', 'positionCoords': [798.72, 227], 'bid': 7.13}]",168461.30000007153,1669844120681,sweetpotato,cocktailshrimp,0.0,7.13,7.13,cocktailshrimp,i,959.1999999284744,960,True,169933.60000002384,1472.2999999523163,1669844122154,1473,959.5,HRV,HRV_0303,2022-11-30 21:37:06
