success,trial_type,trial_index,time_elapsed,internal_node_id,Block,TrialNumber,TrialTime,trialTimeDiff,FPS_avg,FPS_med,FPS_mode,TrialDur,winResizeTime,rt,block,button_pressed,MotCoh,MotDir,ColCoh,Color,ChoiceKey,Choice,Accuracy,RT,nFrames,FPS,PPD,missTrial,missTrialMsg,onsetDelay,fullScreenExitTime,canvCenter,TrialType,Score,BlockTrial,stimulus,button_labels,exp,subjectId,date
True,fullscreen,0,3293,0.0-0.0,0.0,1.0,,,,,,,,,,,,,,,,,,,,,,,,,,,,,,,,HRV,HRV_0303,2022-11-30 21:51:46
,wl-check-fps,1,8315,0.0-1.0,0.0,2.0,"[3907.4, 3923.8, 3940.4, 3957.1, 3974, 3990.3, 4006.9, 4023.7, 4040.5, 4056.8, 4073.8, 4090.4, 4106.6, 4122.9, 4139.5, 4156.3, 4172.8, 4189.4, 4206.2, 4222.9, 4239.5, 4255.9, 4272.5, 4289.3, 4305.9, 4322.5, 4339, 4355.6, 4372.3, 4389, 4405.5, 4422.3, 4438.9, 4455.5, 4472, 4489, 4505.7, 4522.4, 4538.7, 4555.5, 4572.6, 4588.7, 4605.3, 4621.9, 4639, 4655.1, 4672, 4688.6, 4705.1, 4721.7, 4738.2, 4755, 4771.7, 4788.4, 4804.9, 4821.2, 4838.2, 4854.9, 4871.5, 4888.3, 4904.5, 4921.2, 4937.7, 4954.7, 4971.2, 4987.5, 5004.2, 5021, 5037.6, 5054.2, 5071, 5087.5, 5104.3, 5120.7, 5137.7, 5154, 5170.6, 5187.4, 5203.6, 5237.4, 5253.6, 5270.5, 5286.8, 5303.7, 5320.6, 5336.8, 5353.5, 5370.3, 5386.8, 5403.6, 5420.1, 5436.6, 5453.2, 5469.9, 5486.2, 5503.3, 5519.6, 5536.2, 5553, 5569.6, 5586, 5602.9, 5619.8, 5636, 5652.6, 5669.3, 5685.9, 5702.2, 5719, 5735.4, 5752.5, 5769.3, 5785.4, 5802.3, 5818.9, 5835.4, 5852.4, 5868.9, 5885, 5902.1, 5918.4, 5935, 5951.7, 5968.6, 5985.1, 6001.3, 6018.5, 6034.7, 6051.6, 6068.3, 6085, 6101.7, 6118.2, 6134.7, 6151.4, 6167.9, 6184.5, 6201.2, 6217.8, 6234.4, 6251, 6267.6, 6284.1, 6300.7, 6317.3, 6334.5, 6350.6, 6367.7, 6384.1, 6400.5, 6417.4, 6433.8, 6450.6, 6467.4, 6483.7, 6500.6, 6516.8, 6533.7, 6550.2, 6566.9, 6583.2, 6599.9, 6616.4, 6633.3, 6650.1, 6666.6, 6683.4, 6699.7, 6716.3, 6732.7, 6749.6, 6766.2, 6782.9, 6799.3, 6816.1, 6832.7, 6849.2, 6865.7, 6882.6, 6899, 6915.6, 6932.3, 6949.2, 6965.8, 6982.7, 6999.1, 7015.1, 7032.5, 7048.8, 7065.4, 7082.4, 7098.8, 7115.1, 7132, 7148.8, 7164.9, 7183.9, 7198.3, 7215.2, 7231.6, 7248.2, 7265, 7281.7, 7298.2, 7315, 7331.4, 7347.9, 7364.8, 7381.2, 7397.9, 7414.5, 7430.8, 7447.7, 7464.2, 7481.1, 7497.8, 7514.1, 7530.8, 7547.9, 7564.4, 7580.7, 7597, 7613.7, 7630.5, 7647.1, 7663.9, 7680.2, 7696.9, 7713.8, 7730.5, 7746.9, 7763.5, 7780.3, 7796.5, 7812.9, 7830, 7846.6, 7863.3, 7879.9, 7896.6, 7913.1, 7929.7, 7946.3, 7962.9, 7979.8, 7996.2, 8012.7, 8029.7, 8046.2, 8062.8, 8079, 8096, 8112.7, 8129.2, 8145.8, 8162.4, 8179.4, 8195.5, 8212.1, 8228.7, 8245.3, 8262.1, 8278.9, 8295.1, 8311.7, 8328.6, 8345.3, 8362, 8378.7, 8395.2, 8411.9, 8428.4, 8445.1, 8461.6, 8478.3, 8495, 8511.5, 8528.3, 8545, 8561.5, 8577.9, 8594.7, 8611.5, 8628.3, 8644.3, 8661, 8677.7, 8694.3, 8710.9, 8727.4, 8744.5, 8760.7, 8777.3, 8793.9, 8810.6, 8827.7, 8843.8, 8860.6, 8877.1, 8894]","[2.3, 16.4, 16.6, 16.7, 16.9, 16.3, 16.6, 16.8, 16.8, 16.3, 17, 16.6, 16.2, 16.3, 16.6, 16.8, 16.5, 16.6, 16.8, 16.7, 16.6, 16.4, 16.6, 16.8, 16.6, 16.6, 16.5, 16.6, 16.7, 16.7, 16.5, 16.8, 16.6, 16.6, 16.5, 17, 16.7, 16.7, 16.3, 16.8, 17.1, 16.1, 16.6, 16.6, 17.1, 16.1, 16.9, 16.6, 16.5, 16.6, 16.5, 16.8, 16.7, 16.7, 16.5, 16.3, 17, 16.7, 16.6, 16.8, 16.2, 16.7, 16.5, 17, 16.5, 16.3, 16.7, 16.8, 16.6, 16.6, 16.8, 16.5, 16.8, 16.4, 17, 16.3, 16.6, 16.8, 16.2, 33.8, 16.2, 16.9, 16.3, 16.9, 16.9, 16.2, 16.7, 16.8, 16.5, 16.8, 16.5, 16.5, 16.6, 16.7, 16.3, 17.1, 16.3, 16.6, 16.8, 16.6, 16.4, 16.9, 16.9, 16.2, 16.6, 16.7, 16.6, 16.3, 16.8, 16.4, 17.1, 16.8, 16.1, 16.9, 16.6, 16.5, 17, 16.5, 16.1, 17.1, 16.3, 16.6, 16.7, 16.9, 16.5, 16.2, 17.2, 16.2, 16.9, 16.7, 16.7, 16.7, 16.5, 16.5, 16.7, 16.5, 16.6, 16.7, 16.6, 16.6, 16.6, 16.6, 16.5, 16.6, 16.6, 17.2, 16.1, 17.1, 16.4, 16.4, 16.9, 16.4, 16.8, 16.8, 16.3, 16.9, 16.2, 16.9, 16.5, 16.7, 16.3, 16.7, 16.5, 16.9, 16.8, 16.5, 16.8, 16.3, 16.6, 16.4, 16.9, 16.6, 16.7, 16.4, 16.8, 16.6, 16.5, 16.5, 16.9, 16.4, 16.6, 16.7, 16.9, 16.6, 16.9, 16.4, 16, 17.4, 16.3, 16.6, 17, 16.4, 16.3, 16.9, 16.8, 16.1, 19, 14.4, 16.9, 16.4, 16.6, 16.8, 16.7, 16.5, 16.8, 16.4, 16.5, 16.9, 16.4, 16.7, 16.6, 16.3, 16.9, 16.5, 16.9, 16.7, 16.3, 16.7, 17.1, 16.5, 16.3, 16.3, 16.7, 16.8, 16.6, 16.8, 16.3, 16.7, 16.9, 16.7, 16.4, 16.6, 16.8, 16.2, 16.4, 17.1, 16.6, 16.7, 16.6, 16.7, 16.5, 16.6, 16.6, 16.6, 16.9, 16.4, 16.5, 17, 16.5, 16.6, 16.2, 17, 16.7, 16.5, 16.6, 16.6, 17, 16.1, 16.6, 16.6, 16.6, 16.8, 16.8, 16.2, 16.6, 16.9, 16.7, 16.7, 16.7, 16.5, 16.7, 16.5, 16.7, 16.5, 16.7, 16.7, 16.5, 16.8, 16.7, 16.5, 16.4, 16.8, 16.8, 16.8, 16, 16.7, 16.7, 16.6, 16.6, 16.5, 17.1, 16.2, 16.6, 16.6, 16.7, 17.1, 16.1, 16.8, 16.5, 16.9]",60.0,60.0,60.0,5005.5,[],,,,,,,,,,,,,,,,,,,,,,,,,HRV,HRV_0303,2022-11-30 21:51:46
,wl-html-keyboard-response,2,25097,0.0-2.0-0.0,0.0,3.0,,,,,,,,14774.600000023842,0.0,0,,,,,,,,,,,,,,,,,,,,,,HRV,HRV_0303,2022-11-30 21:51:46
,wl-rdm,3,38946,0.0-3.0-0.0,0.0,4.0,,,,,,,[],,,,0.0,0.0,87.9,0.0,u,0.0,True,951.6999999284744,58.0,60.0,40.0,False,too_early too_early ,3000.0,[],"[768, 432]",ColorTask_Demo,,,,,HRV,HRV_0303,2022-11-30 21:51:46
,wl-rdm,4,43766,0.0-3.0-1.0,0.0,5.0,,,,,,,[],,,,0.0,0.0,87.9,1.0,i,1.0,True,741.6999999284744,45.0,60.0,40.0,False,,2000.0,[],"[768, 432]",ColorTask_Demo,,,,,HRV,HRV_0303,2022-11-30 21:51:46
,wl-html-keyboard-response,5,198502,0.0-3.0-2.0,0.0,6.0,,,,,,,,,0.0,0,,,,,,,,,,,,,,,,,,,,,,HRV,HRV_0303,2022-11-30 21:51:46
,wl-rdm,6,204844,0.0-3.1-0.1,0.0,4.0,,,,,,,[],,,,0.0,0.0,87.9,0.0,u,0.0,True,761.5000001192093,46.0,60.0,40.0,False,,3000.0,[],"[768, 432]",ColorTask_Demo,,,,,HRV,HRV_0303,2022-11-30 21:51:46
,wl-rdm,7,209664,0.0-3.1-1.1,0.0,5.0,,,,,,,[],,,,0.0,0.0,87.9,1.0,i,1.0,True,740.0,45.0,60.0,40.0,False,,2000.0,[],"[768, 432]",ColorTask_Demo,,,,,HRV,HRV_0303,2022-11-30 21:51:46
,wl-html-keyboard-response,8,215562,0.0-3.1-2.1,0.0,6.0,,,,,,,,,0.0,0,,,,,,,,,,,,,,,,,,,,,,HRV,HRV_0303,2022-11-30 21:51:46
,wl-rdm,9,221914,0.0-3.2-0.2,0.0,4.0,,,,,,,[],,,,0.0,0.0,87.9,0.0,u,0.0,True,767.5999999046326,47.0,60.0,40.0,False,,3000.0,[],"[768, 432]",ColorTask_Demo,,,,,HRV,HRV_0303,2022-11-30 21:51:46
,wl-rdm,10,226718,0.0-3.2-1.2,0.0,5.0,,,,,,,[],,,,0.0,0.0,87.9,1.0,i,1.0,True,725.9000000953674,44.0,60.0,40.0,False,,2000.0,[],"[768, 432]",ColorTask_Demo,,,,,HRV,HRV_0303,2022-11-30 21:51:46
,wl-html-keyboard-response,11,233903,0.0-3.2-2.2,0.0,6.0,,,,,,,,5180.600000023842,0.0,1,,,,,,,,,,,,,,,,,,,,,,HRV,HRV_0303,2022-11-30 21:51:46
,wl-html-keyboard-response,12,241247,0.0-4.0-0.0,0.0,7.0,,,,,,,,5338.200000047684,0.0,0,,,,,,,,,,,,,,,,,,,,,,HRV,HRV_0303,2022-11-30 21:51:46
,wl-html-keyboard-response,13,248519,0.0-5.0-0.0,0.0,8.0,,,,,,,,5263.599999904633,0.0,0,,,,,,,,,,,,,,,,,,,,,,HRV,HRV_0303,2022-11-30 21:51:46
,wl-rdm,14,251367,0.0-6.0-0.0,0.0,9.0,,,,,,,[],,,,,,87.9,1.0,i,1.0,True,1381.5,84.0,60.0,40.0,False,,377.2278004766815,[],"[768, 432]",ColorTask,1.0,1.0,,,HRV,HRV_0303,2022-11-30 21:51:46
,wl-rdm,15,253594,0.0-6.1-0.1,0.0,10.0,,,,,,,[],,,,,,62.5,1.0,i,1.0,True,942.8000000715256,57.0,60.0,40.0,False,,204.46654682315113,[],"[768, 432]",ColorTask,2.0,2.0,,,HRV,HRV_0303,2022-11-30 21:51:46
,wl-rdm,16,255838,0.0-6.2-0.2,0.0,11.0,,,,,,,[],,,,,,50.0,0.0,i,1.0,False,774.3999999761581,47.0,60.0,40.0,False,,383.1533380780524,[],"[768, 432]",ColorTask,1.0,3.0,,,HRV,HRV_0303,2022-11-30 21:51:46
,wl-rdm,17,257982,0.0-6.3-0.3,0.0,12.0,,,,,,,[],,,,,,73.6,1.0,i,1.0,True,721.7999999523163,44.0,60.0,40.0,False,,348.36874791578373,[],"[768, 432]",ColorTask,2.0,4.0,,,HRV,HRV_0303,2022-11-30 21:51:46
,wl-rdm,18,259977,0.0-6.4-0.4,0.0,13.0,,,,,,,[],,,,,,87.9,0.0,u,0.0,True,702.5999999046326,43.0,60.0,40.0,False,,205.69821650062644,[],"[768, 432]",ColorTask,3.0,5.0,,,HRV,HRV_0303,2022-11-30 21:51:46
,wl-rdm,19,262702,0.0-6.5-0.5,0.0,14.0,,,,,,,[],,,,,,50.0,1.0,i,1.0,True,1380.7999999523163,84.0,60.0,40.0,False,,255.52622878839605,[],"[768, 432]",ColorTask,4.0,6.0,,,HRV,HRV_0303,2022-11-30 21:51:46
,wl-rdm,20,264763,0.0-6.6-0.6,0.0,15.0,,,,,,,[],,,,,,50.0,0.0,i,1.0,False,732.5,45.0,60.0,40.0,False,,234.02033541384134,[],"[768, 432]",ColorTask,3.0,7.0,,,HRV,HRV_0303,2022-11-30 21:51:46
,wl-rdm,21,266908,0.0-6.7-0.7,0.0,16.0,,,,,,,[],,,,,,53.2,0.0,i,1.0,False,816.0,50.0,60.0,40.0,False,,246.7755091346568,[],"[768, 432]",ColorTask,2.0,8.0,,,HRV,HRV_0303,2022-11-30 21:51:46
,wl-rdm,22,269268,0.0-6.8-0.8,0.0,17.0,,,,,,,[],,,,,,62.5,0.0,u,0.0,True,958.5,58.0,60.0,40.0,False,,319.8812585669531,[],"[768, 432]",ColorTask,3.0,9.0,,,HRV,HRV_0303,2022-11-30 21:51:46
,wl-rdm,23,271329,0.0-6.9-0.9,0.0,18.0,,,,,,,[],,,,,,87.9,1.0,i,1.0,True,672.6000000238419,41.0,60.0,40.0,False,,303.58223667027147,[],"[768, 432]",ColorTask,4.0,10.0,,,HRV,HRV_0303,2022-11-30 21:51:46
,wl-rdm,24,273440,0.0-6.10-0.10,0.0,19.0,,,,,,,[],,,,,,56.4,0.0,u,0.0,True,799.1000000238419,49.0,60.0,40.0,False,,224.8185766100051,[],"[768, 432]",ColorTask,5.0,11.0,,,HRV,HRV_0303,2022-11-30 21:51:46
,wl-rdm,25,275584,0.0-6.11-0.11,0.0,20.0,,,,,,,[],,,,,,87.9,1.0,i,1.0,True,731.3000000715256,44.0,60.0,40.0,False,,337.3325332348003,[],"[768, 432]",ColorTask,6.0,12.0,,,HRV,HRV_0303,2022-11-30 21:51:46
,wl-rdm,26,278077,0.0-6.12-0.12,0.0,21.0,,,,,,,[],,,,,,62.5,0.0,u,0.0,True,1034.2999999523163,63.0,60.0,40.0,False,,370.5707560616771,[],"[768, 432]",ColorTask,7.0,13.0,,,HRV,HRV_0303,2022-11-30 21:51:46
,wl-rdm,27,280238,0.0-6.13-0.13,0.0,22.0,,,,,,,[],,,,,,56.4,1.0,i,1.0,True,682.3000000715256,42.0,60.0,40.0,False,,391.1228567412036,[],"[768, 432]",ColorTask,8.0,14.0,,,HRV,HRV_0303,2022-11-30 21:51:46
,wl-rdm,28,282731,0.0-6.14-0.14,0.0,23.0,,,,,,,[],,,,,,62.5,1.0,i,1.0,True,1047.6000000238419,63.0,60.0,40.0,False,,380.7076217609592,[],"[768, 432]",ColorTask,9.0,15.0,,,HRV,HRV_0303,2022-11-30 21:51:46
,wl-rdm,29,284809,0.0-6.15-0.15,0.0,24.0,,,,,,,[],,,,,,62.5,1.0,i,1.0,True,786.1000000238419,48.0,60.0,40.0,False,,205.16387719762912,[],"[768, 432]",ColorTask,10.0,16.0,,,HRV,HRV_0303,2022-11-30 21:51:46
,wl-rdm,30,286754,0.0-6.16-0.16,0.0,25.0,,,,,,,[],,,,,,73.6,1.0,i,1.0,True,635.6000000238419,39.0,60.0,40.0,False,,216.7158040745366,[],"[768, 432]",ColorTask,11.0,17.0,,,HRV,HRV_0303,2022-11-30 21:51:46
,wl-rdm,31,289363,0.0-6.17-0.17,0.0,26.0,,,,,,,[],,,,,,50.0,0.0,i,1.0,False,1256.8999999761581,76.0,60.0,40.0,False,,268.91742502430964,[],"[768, 432]",ColorTask,10.0,18.0,,,HRV,HRV_0303,2022-11-30 21:51:46
,wl-rdm,32,291757,0.0-6.18-0.18,0.0,27.0,,,,,,,[],,,,,,62.5,1.0,u,0.0,False,919.3000000715256,56.0,60.0,40.0,False,,388.5444523696506,[],"[768, 432]",ColorTask,9.0,19.0,,,HRV,HRV_0303,2022-11-30 21:51:46
,wl-rdm,33,294333,0.0-6.19-0.19,0.0,28.0,,,,,,,[],,,,,,73.6,1.0,u,0.0,False,1248.7000000476837,76.0,60.0,40.0,False,,234.83317545592067,[],"[768, 432]",ColorTask,8.0,20.0,,,HRV,HRV_0303,2022-11-30 21:51:46
,wl-rdm,34,296693,0.0-6.20-0.20,0.0,29.0,,,,,,,[],,,,,,53.2,1.0,i,1.0,True,962.9999998807907,58.0,60.0,40.0,False,,324.0802298130741,[],"[768, 432]",ColorTask,9.0,21.0,,,HRV,HRV_0303,2022-11-30 21:51:46
,wl-rdm,35,299618,0.0-6.21-0.21,0.0,30.0,,,,,,,[],,,,,,73.6,0.0,u,0.0,True,1613.1000000238419,98.0,60.0,40.0,False,,226.29596364372182,[],"[768, 432]",ColorTask,10.0,22.0,,,HRV,HRV_0303,2022-11-30 21:51:46
,wl-rdm,36,302659,0.0-6.22-0.22,0.0,31.0,,,,,,,[],,,,,,73.6,1.0,u,0.0,False,1665.4000000953674,101.0,60.0,40.0,False,,290.85991054952433,[],"[768, 432]",ColorTask,9.0,23.0,,,HRV,HRV_0303,2022-11-30 21:51:46
,wl-rdm,37,304820,0.0-6.23-0.23,0.0,32.0,,,,,,,[],,,,,,56.4,0.0,i,1.0,False,791.6000000238419,48.0,60.0,40.0,False,,286.61959766051916,[],"[768, 432]",ColorTask,8.0,24.0,,,HRV,HRV_0303,2022-11-30 21:51:46
,wl-rdm,38,307197,0.0-6.24-0.24,0.0,33.0,,,,,,,[],,,,,,62.5,0.0,u,0.0,True,1090.1000000238419,66.0,60.0,40.0,False,,208.93781968926623,[],"[768, 432]",ColorTask,9.0,25.0,,,HRV,HRV_0303,2022-11-30 21:51:46
,wl-rdm,39,309540,0.0-6.25-0.25,0.0,34.0,,,,,,,[],,,,,,87.9,0.0,u,0.0,True,1045.6999999284744,63.0,60.0,40.0,False,,223.3677218380334,[],"[768, 432]",ColorTask,10.0,26.0,,,HRV,HRV_0303,2022-11-30 21:51:46
,wl-rdm,40,311917,0.0-6.26-0.26,0.0,35.0,,,,,,,[],,,,,,87.9,0.0,u,0.0,True,983.0000001192093,60.0,60.0,40.0,False,,313.3971339608124,[],"[768, 432]",ColorTask,11.0,27.0,,,HRV,HRV_0303,2022-11-30 21:51:46
,wl-rdm,41,314477,0.0-6.27-0.27,0.0,36.0,,,,,,,[],,,,,,56.4,0.0,i,1.0,False,1207.2999999523163,73.0,60.0,40.0,False,,276.73760826747053,[],"[768, 432]",ColorTask,10.0,28.0,,,HRV,HRV_0303,2022-11-30 21:51:46
,wl-rdm,42,317086,0.0-6.28-0.28,0.0,37.0,,,,,,,[],,,,,,50.0,1.0,i,1.0,True,1187.8999999761581,72.0,60.0,40.0,False,,344.1556496998811,[],"[768, 432]",ColorTask,11.0,29.0,,,HRV,HRV_0303,2022-11-30 21:51:46
,wl-rdm,43,319530,0.0-6.29-0.29,0.0,38.0,,,,,,,[],,,,,,62.5,1.0,i,1.0,True,1034.1999999284744,63.0,60.0,40.0,False,,326.0413145012603,[],"[768, 432]",ColorTask,12.0,30.0,,,HRV,HRV_0303,2022-11-30 21:51:46
,wl-rdm,44,322306,0.0-6.30-0.30,0.0,39.0,,,,,,,[],,,,,,73.6,1.0,i,1.0,True,1468.5000001192093,88.0,60.0,40.0,False,,228.0327529863014,[],"[768, 432]",ColorTask,13.0,31.0,,,HRV,HRV_0303,2022-11-30 21:51:46
,wl-rdm,45,324949,0.0-6.31-0.31,0.0,40.0,,,,,,,[],,,,,,53.2,1.0,i,1.0,True,1221.7000000476837,74.0,60.0,40.0,False,,332.73554995947717,[],"[768, 432]",ColorTask,14.0,32.0,,,HRV,HRV_0303,2022-11-30 21:51:46
,wl-rdm,46,327093,0.0-6.32-0.32,0.0,41.0,,,,,,,[],,,,,,50.0,0.0,i,1.0,False,852.7999999523163,52.0,60.0,40.0,False,,215.61716400693882,[],"[768, 432]",ColorTask,13.0,33.0,,,HRV,HRV_0303,2022-11-30 21:51:46
,wl-rdm,47,329586,0.0-6.33-0.33,0.0,42.0,,,,,,,[],,,,,,53.2,0.0,i,1.0,False,1166.8000000715256,71.0,60.0,40.0,False,,236.10699255019966,[],"[768, 432]",ColorTask,12.0,34.0,,,HRV,HRV_0303,2022-11-30 21:51:46
,wl-rdm,48,332062,0.0-6.34-0.34,0.0,43.0,,,,,,,[],,,,,,56.4,1.0,u,0.0,False,1185.6999998092651,72.0,60.0,40.0,False,,204.98571227040458,[],"[768, 432]",ColorTask,11.0,35.0,,,HRV,HRV_0303,2022-11-30 21:51:46
,wl-rdm,49,334157,0.0-6.35-0.35,0.0,44.0,,,,,,,[],,,,,,73.6,1.0,i,1.0,True,810.3999999761581,49.0,60.0,40.0,False,,211.160250888642,[],"[768, 432]",ColorTask,12.0,36.0,,,HRV,HRV_0303,2022-11-30 21:51:46
,wl-rdm,50,336849,0.0-6.36-0.36,0.0,45.0,,,,,,,[],,,,,,50.0,1.0,u,0.0,False,1388.6000001430511,84.0,60.0,40.0,False,,219.12169069449214,[],"[768, 432]",ColorTask,11.0,37.0,,,HRV,HRV_0303,2022-11-30 21:51:46
,wl-rdm,51,339343,0.0-6.37-0.37,0.0,46.0,,,,,,,[],,,,,,50.0,1.0,u,0.0,False,1041.2000000476837,63.0,60.0,40.0,False,,379.37229588755184,[],"[768, 432]",ColorTask,10.0,38.0,,,HRV,HRV_0303,2022-11-30 21:51:46
,wl-rdm,52,341836,0.0-6.38-0.38,0.0,47.0,,,,,,,[],,,,,,56.4,1.0,i,1.0,True,1092.0,66.0,60.0,40.0,False,,325.60954382783245,[],"[768, 432]",ColorTask,11.0,39.0,,,HRV,HRV_0303,2022-11-30 21:51:46
,wl-rdm,53,344063,0.0-6.39-0.39,0.0,48.0,,,,,,,[],,,,,,53.2,1.0,i,1.0,True,901.3000000715256,55.0,60.0,40.0,False,,243.98818677927244,[],"[768, 432]",ColorTask,12.0,40.0,,,HRV,HRV_0303,2022-11-30 21:51:46
,wl-rdm,54,347121,0.0-6.40-0.40,0.0,49.0,,,,,,,[],,,,,,56.4,0.0,i,1.0,False,1625.1000001430511,98.0,60.0,40.0,False,,363.4358746642981,[],"[768, 432]",ColorTask,11.0,41.0,,,HRV,HRV_0303,2022-11-30 21:51:46
,wl-rdm,55,349348,0.0-6.41-0.41,0.0,50.0,,,,,,,[],,,,,,87.9,1.0,i,1.0,True,840.0,51.0,60.0,40.0,False,,307.54981678096146,[],"[768, 432]",ColorTask,12.0,42.0,,,HRV,HRV_0303,2022-11-30 21:51:46
,wl-rdm,56,351809,0.0-6.42-0.42,0.0,51.0,,,,,,,[],,,,,,56.4,1.0,i,1.0,True,1072.6000000238419,65.0,60.0,40.0,False,,311.1665214944268,[],"[768, 432]",ColorTask,13.0,43.0,,,HRV,HRV_0303,2022-11-30 21:51:46
,wl-rdm,57,354152,0.0-6.43-0.43,0.0,52.0,,,,,,,[],,,,,,73.6,0.0,u,0.0,True,1007.8000000715256,61.0,60.0,40.0,False,,264.60858430274186,[],"[768, 432]",ColorTask,14.0,44.0,,,HRV,HRV_0303,2022-11-30 21:51:46
,wl-rdm,58,356562,0.0-6.44-0.44,0.0,53.0,,,,,,,[],,,,,,87.9,0.0,u,0.0,True,932.2999999523163,57.0,60.0,40.0,False,,396.15675917486783,[],"[768, 432]",ColorTask,15.0,45.0,,,HRV,HRV_0303,2022-11-30 21:51:46
,wl-rdm,59,359122,0.0-6.45-0.45,0.0,54.0,,,,,,,[],,,,,,53.2,1.0,i,1.0,True,1202.0,73.0,60.0,40.0,False,,279.1384212675373,[],"[768, 432]",ColorTask,16.0,46.0,,,HRV,HRV_0303,2022-11-30 21:51:46
,wl-rdm,60,361732,0.0-6.46-0.46,0.0,55.0,,,,,,,[],,,,,,53.2,1.0,i,1.0,True,1134.5999999046326,69.0,60.0,40.0,False,,398.84118996094463,[],"[768, 432]",ColorTask,17.0,47.0,,,HRV,HRV_0303,2022-11-30 21:51:46
,wl-rdm,61,364425,0.0-6.47-0.47,0.0,56.0,,,,,,,[],,,,,,56.4,1.0,i,1.0,True,1406.2999999523163,85.0,60.0,40.0,False,,212.37790882310136,[],"[768, 432]",ColorTask,18.0,48.0,,,HRV,HRV_0303,2022-11-30 21:51:46
,wl-rdm,62,366735,0.0-6.48-0.48,0.0,57.0,,,,,,,[],,,,,,50.0,0.0,i,1.0,False,964.8999999761581,59.0,60.0,40.0,False,,255.0283959990504,[],"[768, 432]",ColorTask,17.0,49.0,,,HRV,HRV_0303,2022-11-30 21:51:46
,wl-rdm,63,369461,0.0-6.49-0.49,0.0,58.0,,,,,,,[],,,,,,73.6,0.0,u,0.0,True,1319.0,80.0,60.0,40.0,False,,326.59981615646393,[],"[768, 432]",ColorTask,18.0,50.0,,,HRV,HRV_0303,2022-11-30 21:51:46
,wl-rdm,64,371855,0.0-6.50-0.50,0.0,59.0,,,,,,,[],,,,,,62.5,0.0,u,0.0,True,991.0,60.0,60.0,40.0,False,,325.85726717199503,[],"[768, 432]",ColorTask,19.0,51.0,,,HRV,HRV_0303,2022-11-30 21:51:46
,wl-rdm,65,374979,0.0-6.51-0.51,0.0,60.0,,,,,,,[],,,,,,50.0,1.0,i,1.0,True,1812.6000000238419,110.0,60.0,40.0,False,,229.56040017035463,[],"[768, 432]",ColorTask,20.0,52.0,,,HRV,HRV_0303,2022-11-30 21:51:46
,wl-rdm,66,377540,0.0-6.52-0.52,0.0,61.0,,,,,,,[],,,,,,87.9,0.0,u,0.0,True,1125.0000001192093,68.0,60.0,40.0,False,,362.7717399584609,[],"[768, 432]",ColorTask,21.0,53.0,,,HRV,HRV_0303,2022-11-30 21:51:46
,wl-rdm,67,380497,0.0-6.53-0.53,0.0,62.0,,,,,,,[],,,,,,87.9,0.0,u,0.0,True,1627.6000000238419,98.0,60.0,40.0,False,,251.87787410531877,[],"[768, 432]",ColorTask,22.0,54.0,,,HRV,HRV_0303,2022-11-30 21:51:46
,wl-rdm,68,383174,0.0-6.54-0.54,0.0,63.0,,,,,,,[],,,,,,50.0,1.0,i,1.0,True,1311.7999999523163,79.0,60.0,40.0,False,,289.03542436292713,[],"[768, 432]",ColorTask,23.0,55.0,,,HRV,HRV_0303,2022-11-30 21:51:46
,wl-rdm,69,386265,0.0-6.55-0.55,0.0,64.0,,,,,,,[],,,,,,73.6,0.0,u,0.0,True,1783.8999999761581,108.0,60.0,40.0,False,,229.04601591661867,[],"[768, 432]",ColorTask,24.0,56.0,,,HRV,HRV_0303,2022-11-30 21:51:46
,wl-rdm,70,389174,0.0-6.56-0.56,0.0,65.0,,,,,,,[],,,,,,62.5,0.0,u,0.0,True,1477.7000000476837,89.0,60.0,40.0,False,,352.8350943503784,[],"[768, 432]",ColorTask,25.0,57.0,,,HRV,HRV_0303,2022-11-30 21:51:46
,wl-rdm,71,392216,0.0-6.57-0.57,0.0,66.0,,,,,,,[],,,,,,87.9,0.0,u,0.0,True,1596.8999999761581,97.0,60.0,40.0,False,,360.244125201869,[],"[768, 432]",ColorTask,26.0,58.0,,,HRV,HRV_0303,2022-11-30 21:51:46
,wl-rdm,72,394642,0.0-6.58-0.58,0.0,67.0,,,,,,,[],,,,,,87.9,0.0,u,0.0,True,1015.0,62.0,60.0,40.0,False,,330.6417128786282,[],"[768, 432]",ColorTask,27.0,59.0,,,HRV,HRV_0303,2022-11-30 21:51:46
,wl-rdm,73,397368,0.0-6.59-0.59,0.0,68.0,,,,,,,[],,,,,,53.2,0.0,u,0.0,True,1280.799999833107,78.0,60.0,40.0,False,,355.7058760904628,[],"[768, 432]",ColorTask,28.0,60.0,,,HRV,HRV_0303,2022-11-30 21:51:46
,wl-rdm,74,400078,0.0-6.60-0.60,0.0,69.0,,,,,,,[],,,,,,53.2,1.0,i,1.0,True,1329.9000000953674,80.0,60.0,40.0,False,,304.0309007322109,[],"[768, 432]",ColorTask,29.0,61.0,,,HRV,HRV_0303,2022-11-30 21:51:46
,wl-rdm,75,403568,0.0-6.61-0.61,0.0,70.0,,,,,,,[],,,,,,53.2,0.0,i,1.0,False,2024.8999999761581,122.0,60.0,40.0,False,,392.2000211258382,[],"[768, 432]",ColorTask,28.0,62.0,,,HRV,HRV_0303,2022-11-30 21:51:46
,wl-rdm,76,406527,0.0-6.62-0.62,0.0,71.0,,,,,,,[],,,,,,50.0,1.0,i,1.0,True,1554.2000000476837,94.0,60.0,40.0,False,,318.5992574037759,[],"[768, 432]",ColorTask,29.0,63.0,,,HRV,HRV_0303,2022-11-30 21:51:46
,wl-rdm,77,409153,0.0-6.63-0.63,0.0,72.0,,,,,,,[],,,,,,56.4,0.0,i,1.0,False,1317.0,80.0,60.0,40.0,False,,225.8207860888464,[],"[768, 432]",ColorTask,28.0,64.0,,,HRV,HRV_0303,2022-11-30 21:51:46
,wl-rdm,78,411829,0.0-6.64-0.64,0.0,73.0,,,,,,,[],,,,,,53.2,1.0,i,1.0,True,1358.6000000238419,82.0,60.0,40.0,False,,239.878402366658,[],"[768, 432]",ColorTask,29.0,65.0,,,HRV,HRV_0303,2022-11-30 21:51:46
,wl-rdm,79,414472,0.0-6.65-0.65,0.0,74.0,,,,,,,[],,,,,,53.2,1.0,i,1.0,True,1326.8000000715256,80.0,60.0,40.0,False,,247.02536285833233,[],"[768, 432]",ColorTask,30.0,66.0,,,HRV,HRV_0303,2022-11-30 21:51:46
,wl-rdm,80,417347,0.0-6.66-0.66,0.0,75.0,,,,,,,[],,,,,,62.5,0.0,i,1.0,False,1424.7000000476837,86.0,60.0,40.0,False,,373.53480513654637,[],"[768, 432]",ColorTask,29.0,67.0,,,HRV,HRV_0303,2022-11-30 21:51:46
,wl-rdm,81,419724,0.0-6.67-0.67,0.0,76.0,,,,,,,[],,,,,,62.5,1.0,i,1.0,True,1044.1000000238419,63.0,60.0,40.0,False,,262.75167732801873,[],"[768, 432]",ColorTask,30.0,68.0,,,HRV,HRV_0303,2022-11-30 21:51:46
,wl-rdm,82,422582,0.0-6.68-0.68,0.0,77.0,,,,,,,[],,,,,,56.4,0.0,i,1.0,False,1474.2000000476837,89.0,60.0,40.0,False,,310.979219263745,[],"[768, 432]",ColorTask,29.0,69.0,,,HRV,HRV_0303,2022-11-30 21:51:46
,wl-rdm,83,425292,0.0-6.69-0.69,0.0,78.0,,,,,,,[],,,,,,56.4,1.0,i,1.0,True,1385.0999999046326,84.0,60.0,40.0,False,,236.56937013498398,[],"[768, 432]",ColorTask,30.0,70.0,,,HRV,HRV_0303,2022-11-30 21:51:46
,wl-rdm,84,428201,0.0-6.70-0.70,0.0,79.0,,,,,,,[],,,,,,53.2,0.0,i,1.0,False,1525.6000000238419,92.0,60.0,40.0,False,,300.3716869029837,[],"[768, 432]",ColorTask,29.0,71.0,,,HRV,HRV_0303,2022-11-30 21:51:46
,wl-rdm,85,431059,0.0-6.71-0.71,0.0,80.0,,,,,,,[],,,,,,73.6,0.0,u,0.0,True,1433.7000000476837,87.0,60.0,40.0,False,,336.7451613533543,[],"[768, 432]",ColorTask,30.0,72.0,,,HRV,HRV_0303,2022-11-30 21:51:46
,wl-rdm,86,433752,0.0-6.72-0.72,0.0,81.0,,,,,,,[],,,,,,53.2,0.0,i,1.0,False,1390.0,84.0,60.0,40.0,False,,217.00930183261164,[],"[768, 432]",ColorTask,29.0,73.0,,,HRV,HRV_0303,2022-11-30 21:51:46
,wl-rdm,87,436295,0.0-6.73-0.73,0.0,82.0,,,,,,,[],,,,,,50.0,0.0,i,1.0,False,1172.0,71.0,60.0,40.0,False,,284.0118494543229,[],"[768, 432]",ColorTask,28.0,74.0,,,HRV,HRV_0303,2022-11-30 21:51:46
,wl-rdm,88,438605,0.0-6.74-0.74,0.0,83.0,,,,,,,[],,,,,,87.9,1.0,i,1.0,True,939.1000000238419,57.0,60.0,40.0,False,,290.8181940882198,[],"[768, 432]",ColorTask,29.0,75.0,,,HRV,HRV_0303,2022-11-30 21:51:46
,wl-rdm,89,441747,0.0-6.75-0.75,0.0,84.0,,,,,,,[],,,,,,62.5,0.0,u,0.0,True,1738.1999999284744,105.0,60.0,40.0,False,,330.4743012755313,[],"[768, 432]",ColorTask,30.0,76.0,,,HRV,HRV_0303,2022-11-30 21:51:46
,wl-rdm,90,444905,0.0-6.76-0.76,0.0,85.0,,,,,,,[],,,,,,62.5,0.0,u,0.0,True,1846.2999999523163,112.0,60.0,40.0,False,,229.27156584654304,[],"[768, 432]",ColorTask,31.0,77.0,,,HRV,HRV_0303,2022-11-30 21:51:46
,wl-rdm,91,447415,0.0-6.77-0.77,0.0,86.0,,,,,,,[],,,,,,50.0,0.0,u,0.0,True,1189.1999999284744,72.0,60.0,40.0,False,,242.16441766373902,[],"[768, 432]",ColorTask,32.0,78.0,,,HRV,HRV_0303,2022-11-30 21:51:46
,wl-rdm,92,449825,0.0-6.78-0.78,0.0,87.0,,,,,,,[],,,,,,73.6,1.0,i,1.0,True,993.2000000476837,60.0,60.0,40.0,False,,336.5255877243345,[],"[768, 432]",ColorTask,33.0,79.0,,,HRV,HRV_0303,2022-11-30 21:51:46
,wl-rdm,93,452185,0.0-6.79-0.79,0.0,88.0,,,,,,,[],,,,,,73.6,1.0,i,1.0,True,906.5,55.0,60.0,40.0,False,,381.1887055633201,[],"[768, 432]",ColorTask,34.0,80.0,,,HRV,HRV_0303,2022-11-30 21:51:46
,wl-rdm,94,454878,0.0-6.80-0.80,0.0,89.0,,,,,,,[],,,,,,62.5,1.0,i,1.0,True,1266.3999999761581,77.0,60.0,40.0,False,,348.47399221676943,[],"[768, 432]",ColorTask,35.0,81.0,,,HRV,HRV_0303,2022-11-30 21:51:46
,wl-rdm,95,458019,0.0-6.81-0.81,0.0,90.0,,,,,,,[],,,,,,56.4,0.0,u,0.0,True,1807.4999998807907,109.0,60.0,40.0,False,,250.24352159805238,[],"[768, 432]",ColorTask,36.0,82.0,,,HRV,HRV_0303,2022-11-30 21:51:46
,wl-rdm,96,461144,0.0-6.82-0.82,0.0,91.0,,,,,,,[],,,,,,56.4,1.0,u,0.0,False,1702.2000000476837,103.0,60.0,40.0,False,,340.3926229209442,[],"[768, 432]",ColorTask,35.0,83.0,,,HRV,HRV_0303,2022-11-30 21:51:46
,wl-rdm,97,464269,0.0-6.83-0.83,0.0,92.0,,,,,,,[],,,,,,50.0,0.0,u,0.0,True,1799.0,109.0,60.0,40.0,False,,236.29965446607687,[],"[768, 432]",ColorTask,36.0,84.0,,,HRV,HRV_0303,2022-11-30 21:51:46
,wl-rdm,98,467560,0.0-6.84-0.84,0.0,93.0,,,,,,,[],,,,,,62.5,0.0,i,1.0,False,1958.6000000238419,118.0,60.0,40.0,False,,265.3861140533295,[],"[768, 432]",ColorTask,35.0,85.0,,,HRV,HRV_0303,2022-11-30 21:51:46
,wl-rdm,99,470037,0.0-6.85-0.85,0.0,94.0,,,,,,,[],,,,,,73.6,0.0,u,0.0,True,1099.6999999284744,67.0,60.0,40.0,False,,293.71895182892234,[],"[768, 432]",ColorTask,36.0,86.0,,,HRV,HRV_0303,2022-11-30 21:51:46
,wl-rdm,100,472929,0.0-6.86-0.86,0.0,95.0,,,,,,,[],,,,,,62.5,1.0,i,1.0,True,1538.6999999284744,93.0,60.0,40.0,False,,269.23511462323876,[],"[768, 432]",ColorTask,37.0,87.0,,,HRV,HRV_0303,2022-11-30 21:51:46
,wl-rdm,101,475255,0.0-6.87-0.87,0.0,96.0,,,,,,,[],,,,,,62.5,1.0,i,1.0,True,961.0,58.0,60.0,40.0,False,,288.3512698004294,[],"[768, 432]",ColorTask,38.0,88.0,,,HRV,HRV_0303,2022-11-30 21:51:46
,wl-rdm,102,477932,0.0-6.88-0.88,0.0,97.0,,,,,,,[],,,,,,56.4,1.0,i,1.0,True,1388.2000000476837,84.0,60.0,40.0,False,,205.85562892177518,[],"[768, 432]",ColorTask,39.0,89.0,,,HRV,HRV_0303,2022-11-30 21:51:46
,wl-rdm,103,480441,0.0-6.89-0.89,0.0,98.0,,,,,,,[],,,,,,87.9,0.0,u,0.0,True,1150.6000000238419,70.0,60.0,40.0,False,,271.7689253435543,[],"[768, 432]",ColorTask,40.0,90.0,,,HRV,HRV_0303,2022-11-30 21:51:46
,wl-rdm,104,483316,0.0-6.90-0.90,0.0,99.0,,,,,,,[],,,,,,73.6,0.0,u,0.0,True,1550.8000000715256,94.0,60.0,40.0,False,,241.62631251536004,[],"[768, 432]",ColorTask,41.0,91.0,,,HRV,HRV_0303,2022-11-30 21:51:46
,wl-rdm,105,486325,0.0-6.91-0.91,0.0,100.0,,,,,,,[],,,,,,56.4,0.0,u,0.0,True,1665.299999833107,101.0,60.0,40.0,False,,262.72236320784145,[],"[768, 432]",ColorTask,42.0,92.0,,,HRV,HRV_0303,2022-11-30 21:51:46
,wl-rdm,106,489067,0.0-6.92-0.92,0.0,101.0,,,,,,,[],,,,,,56.4,1.0,i,1.0,True,1446.3999999761581,87.0,60.0,40.0,False,,219.0103331041288,[],"[768, 432]",ColorTask,43.0,93.0,,,HRV,HRV_0303,2022-11-30 21:51:46
,wl-rdm,107,491461,0.0-6.93-0.93,0.0,102.0,,,,,,,[],,,,,,73.6,1.0,i,1.0,True,1058.2000000476837,64.0,60.0,40.0,False,,265.40322529281303,[],"[768, 432]",ColorTask,44.0,94.0,,,HRV,HRV_0303,2022-11-30 21:51:46
,wl-rdm,108,494070,0.0-6.94-0.94,0.0,103.0,,,,,,,[],,,,,,87.9,1.0,i,1.0,True,1133.6000000238419,69.0,60.0,40.0,False,,394.71081587638264,[],"[768, 432]",ColorTask,45.0,95.0,,,HRV,HRV_0303,2022-11-30 21:51:46
,wl-rdm,109,497561,0.0-6.95-0.95,0.0,104.0,,,,,,,[],,,,,,53.2,0.0,u,0.0,True,2184.600000023842,132.0,60.0,40.0,False,,226.29881804448345,[],"[768, 432]",ColorTask,46.0,96.0,,,HRV,HRV_0303,2022-11-30 21:51:46
,wl-rdm,110,499988,0.0-6.96-0.96,0.0,105.0,,,,,,,[],,,,,,87.9,1.0,i,1.0,True,1098.0000001192093,67.0,60.0,40.0,False,,235.02857631165733,[],"[768, 432]",ColorTask,47.0,97.0,,,HRV,HRV_0303,2022-11-30 21:51:46
,wl-rdm,111,502980,0.0-6.97-0.97,0.0,106.0,,,,,,,[],,,,,,53.2,0.0,i,1.0,False,1688.2999999523163,102.0,60.0,40.0,False,,222.0339197677023,[],"[768, 432]",ColorTask,46.0,98.0,,,HRV,HRV_0303,2022-11-30 21:51:46
,wl-rdm,112,505523,0.0-6.98-0.98,0.0,107.0,,,,,,,[],,,,,,87.9,1.0,i,1.0,True,1108.4000000953674,67.0,60.0,40.0,False,,349.44956026690306,[],"[768, 432]",ColorTask,47.0,99.0,,,HRV,HRV_0303,2022-11-30 21:51:46
,wl-rdm,113,507833,0.0-6.99-0.99,0.0,108.0,,,,,,,[],,,,,,87.9,1.0,i,1.0,True,989.7000000476837,60.0,60.0,40.0,False,,248.73964654699958,[],"[768, 432]",ColorTask,48.0,100.0,,,HRV,HRV_0303,2022-11-30 21:51:46
,wl-rdm,114,510875,0.0-6.100-0.100,0.0,109.0,,,,,,,[],,,,,,56.4,0.0,u,0.0,True,1677.2999999523163,101.0,60.0,40.0,False,,290.2206172849194,[],"[768, 432]",ColorTask,49.0,101.0,,,HRV,HRV_0303,2022-11-30 21:51:46
,wl-rdm,115,514066,0.0-6.101-0.101,0.0,110.0,,,,,,,[],,,,,,50.0,0.0,i,1.0,False,1763.0999999046326,107.0,60.0,40.0,False,,339.46196834805903,[],"[768, 432]",ColorTask,48.0,102.0,,,HRV,HRV_0303,2022-11-30 21:51:46
,wl-rdm,116,516792,0.0-6.102-0.102,0.0,111.0,,,,,,,[],,,,,,50.0,1.0,u,0.0,False,1335.9000000953674,81.0,60.0,40.0,False,,302.0643399804498,[],"[768, 432]",ColorTask,47.0,103.0,,,HRV,HRV_0303,2022-11-30 21:51:46
,wl-rdm,117,519485,0.0-6.103-0.103,0.0,112.0,,,,,,,[],,,,,,53.2,1.0,i,1.0,True,1411.4999998807907,85.0,60.0,40.0,False,,205.92550965423467,[],"[768, 432]",ColorTask,48.0,104.0,,,HRV,HRV_0303,2022-11-30 21:51:46
,wl-rdm,118,522942,0.0-6.104-0.104,0.0,113.0,,,,,,,[],,,,,,73.6,0.0,u,0.0,True,2171.4000000953674,131.0,60.0,40.0,False,,206.79791597799215,[],"[768, 432]",ColorTask,49.0,105.0,,,HRV,HRV_0303,2022-11-30 21:51:46
,wl-rdm,119,526449,0.0-6.105-0.105,0.0,114.0,,,,,,,[],,,,,,53.2,0.0,i,1.0,False,2166.100000023842,131.0,60.0,40.0,False,,251.6381152678663,[],"[768, 432]",ColorTask,48.0,106.0,,,HRV,HRV_0303,2022-11-30 21:51:46
,wl-rdm,120,529806,0.0-6.106-0.106,0.0,115.0,,,,,,,[],,,,,,50.0,1.0,i,1.0,True,2032.6000000238419,123.0,60.0,40.0,False,,243.40340850562782,[],"[768, 432]",ColorTask,49.0,107.0,,,HRV,HRV_0303,2022-11-30 21:51:46
,wl-rdm,121,532615,0.0-6.107-0.107,0.0,116.0,,,,,,,[],,,,,,73.6,0.0,u,0.0,True,1483.0999999046326,90.0,60.0,40.0,False,,242.75727589348804,[],"[768, 432]",ColorTask,50.0,108.0,,,HRV,HRV_0303,2022-11-30 21:51:46
,wl-html-keyboard-response,122,576054,0.0-7.0-0.0,1.0,117.0,,,,,,,,41429.200000047684,1.0,0,,,,,,,,,,,,,,,,,,,,,,HRV,HRV_0303,2022-11-30 21:51:46
,wl-rdm,123,579688,0.0-8.0-0.0,1.0,118.0,,,,,,,[],,,,,,53.2,0.0,i,1.0,False,2322.6999999284744,140.0,60.0,40.0,False,,241.39868297219465,[],"[768, 432]",ColorTask,49.0,1.0,,,HRV,HRV_0303,2022-11-30 21:51:46
,wl-rdm,124,583278,0.0-8.1-0.1,1.0,119.0,,,,,,,[],,,,,,50.0,1.0,i,1.0,True,2290.5999999046326,138.0,60.0,40.0,False,,231.9257671535838,[],"[768, 432]",ColorTask,50.0,2.0,,,HRV,HRV_0303,2022-11-30 21:51:46
,wl-rdm,125,586004,0.0-8.2-0.2,1.0,120.0,,,,,,,[],,,,,,56.4,0.0,u,0.0,True,1253.2000000476837,76.0,60.0,40.0,False,,394.9735862426176,[],"[768, 432]",ColorTask,51.0,3.0,,,HRV,HRV_0303,2022-11-30 21:51:46
,wl-rdm,126,588447,0.0-8.3-0.3,1.0,121.0,,,,,,,[],,,,,,53.2,1.0,u,0.0,False,983.3999999761581,60.0,60.0,40.0,False,,370.67230813001953,[],"[768, 432]",ColorTask,50.0,4.0,,,HRV,HRV_0303,2022-11-30 21:51:46
,wl-rdm,127,591506,0.0-8.4-0.4,1.0,122.0,,,,,,,[],,,,,,62.5,0.0,u,0.0,True,1690.2999999523163,102.0,60.0,40.0,False,,299.15153040869353,[],"[768, 432]",ColorTask,51.0,5.0,,,HRV,HRV_0303,2022-11-30 21:51:46
,wl-rdm,128,594347,0.0-8.5-0.5,1.0,123.0,,,,,,,[],,,,,,87.9,0.0,u,0.0,True,1464.0,89.0,60.0,40.0,False,,286.5894245458687,[],"[768, 432]",ColorTask,52.0,6.0,,,HRV,HRV_0303,2022-11-30 21:51:46
,wl-rdm,129,597290,0.0-8.6-0.6,1.0,124.0,,,,,,,[],,,,,,62.5,0.0,u,0.0,True,1642.0,99.0,60.0,40.0,False,,228.73652456253203,[],"[768, 432]",ColorTask,53.0,7.0,,,HRV,HRV_0303,2022-11-30 21:51:46
,wl-rdm,130,599783,0.0-8.7-0.7,1.0,125.0,,,,,,,[],,,,,,87.9,1.0,i,1.0,True,1037.6999999284744,63.0,60.0,40.0,False,,379.2161551813648,[],"[768, 432]",ColorTask,54.0,8.0,,,HRV,HRV_0303,2022-11-30 21:51:46
,wl-rdm,131,603008,0.0-8.8-0.8,1.0,126.0,,,,,,,[],,,,,,62.5,0.0,i,1.0,False,1811.8999999761581,109.0,60.0,40.0,False,,336.2406329861236,[],"[768, 432]",ColorTask,53.0,9.0,,,HRV,HRV_0303,2022-11-30 21:51:46
,wl-rdm,132,605484,0.0-8.9-0.9,1.0,127.0,,,,,,,[],,,,,,87.9,1.0,i,1.0,True,1170.5,71.0,60.0,40.0,False,,223.17345288232497,[],"[768, 432]",ColorTask,54.0,10.0,,,HRV,HRV_0303,2022-11-30 21:51:46
,wl-rdm,133,607828,0.0-8.10-0.10,1.0,128.0,,,,,,,[],,,,,,62.5,1.0,i,1.0,True,1004.9000000953674,61.0,60.0,40.0,False,,252.8200539558609,[],"[768, 432]",ColorTask,55.0,11.0,,,HRV,HRV_0303,2022-11-30 21:51:46
,wl-rdm,134,610205,0.0-8.11-0.11,1.0,129.0,,,,,,,[],,,,,,87.9,1.0,i,1.0,True,1078.3999999761581,65.0,60.0,40.0,False,,224.70875446870875,[],"[768, 432]",ColorTask,56.0,12.0,,,HRV,HRV_0303,2022-11-30 21:51:46
,wl-rdm,135,612665,0.0-8.12-0.12,1.0,130.0,,,,,,,[],,,,,,56.4,1.0,i,1.0,True,1085.7000000476837,66.0,60.0,40.0,False,,284.69756106051375,[],"[768, 432]",ColorTask,57.0,13.0,,,HRV,HRV_0303,2022-11-30 21:51:46
,wl-rdm,136,615374,0.0-8.13-0.13,1.0,131.0,,,,,,,[],,,,,,62.5,0.0,u,0.0,True,1240.2000000476837,75.0,60.0,40.0,False,,399.62086044081786,[],"[768, 432]",ColorTask,58.0,14.0,,,HRV,HRV_0303,2022-11-30 21:51:46
,wl-rdm,137,618582,0.0-8.14-0.14,1.0,132.0,,,,,,,[],,,,,,56.4,0.0,u,0.0,True,1908.7999999523163,115.0,60.0,40.0,False,,232.04269773249206,[],"[768, 432]",ColorTask,59.0,15.0,,,HRV,HRV_0303,2022-11-30 21:51:46
,wl-rdm,138,621191,0.0-8.15-0.15,1.0,133.0,,,,,,,[],,,,,,53.2,0.0,i,1.0,False,1322.3000000715256,80.0,60.0,40.0,False,,201.5852565001451,[],"[768, 432]",ColorTask,58.0,16.0,,,HRV,HRV_0303,2022-11-30 21:51:46
,wl-rdm,139,623951,0.0-8.16-0.16,1.0,134.0,,,,,,,[],,,,,,62.5,1.0,i,1.0,True,1331.8000000715256,81.0,60.0,40.0,False,,332.83100703142304,[],"[768, 432]",ColorTask,59.0,17.0,,,HRV,HRV_0303,2022-11-30 21:51:46
,wl-rdm,140,627308,0.0-8.17-0.17,1.0,135.0,,,,,,,[],,,,,,56.4,0.0,u,0.0,True,1967.9000000953674,119.0,60.0,40.0,False,,301.46576359305664,[],"[768, 432]",ColorTask,60.0,18.0,,,HRV,HRV_0303,2022-11-30 21:51:46
,wl-rdm,141,630566,0.0-8.18-0.18,1.0,136.0,,,,,,,[],,,,,,73.6,0.0,u,0.0,True,1801.1999999284744,109.0,60.0,40.0,False,,369.4328378250875,[],"[768, 432]",ColorTask,61.0,19.0,,,HRV,HRV_0303,2022-11-30 21:51:46
,wl-rdm,142,633657,0.0-8.19-0.19,1.0,137.0,,,,,,,[],,,,,,50.0,0.0,i,1.0,False,1759.7999999523163,106.0,60.0,40.0,False,,261.1160944054934,[],"[768, 432]",ColorTask,60.0,20.0,,,HRV,HRV_0303,2022-11-30 21:51:46
,wl-rdm,143,636617,0.0-8.20-0.20,1.0,138.0,,,,,,,[],,,,,,73.6,0.0,u,0.0,True,1620.0,98.0,60.0,40.0,False,,260.0863099146464,[],"[768, 432]",ColorTask,61.0,21.0,,,HRV,HRV_0303,2022-11-30 21:51:46
,wl-rdm,144,638943,0.0-8.21-0.21,1.0,139.0,,,,,,,[],,,,,,87.9,0.0,u,0.0,True,926.1000000238419,56.0,60.0,40.0,False,,316.78777562615375,[],"[768, 432]",ColorTask,62.0,22.0,,,HRV,HRV_0303,2022-11-30 21:51:46
,wl-rdm,145,641536,0.0-8.22-0.22,1.0,140.0,,,,,,,[],,,,,,53.2,1.0,i,1.0,True,1256.1000000238419,76.0,60.0,40.0,False,,256.1115207021095,[],"[768, 432]",ColorTask,63.0,23.0,,,HRV,HRV_0303,2022-11-30 21:51:46
,wl-rdm,146,643979,0.0-8.23-0.23,1.0,141.0,,,,,,,[],,,,,,73.6,1.0,u,0.0,False,1053.1999999284744,64.0,60.0,40.0,False,,310.2481934327834,[],"[768, 432]",ColorTask,62.0,24.0,,,HRV,HRV_0303,2022-11-30 21:51:46
,wl-rdm,147,646789,0.0-8.24-0.24,1.0,142.0,,,,,,,[],,,,,,50.0,1.0,u,0.0,False,1469.8000000715256,89.0,60.0,40.0,False,,255.70821249857894,[],"[768, 432]",ColorTask,61.0,25.0,,,HRV,HRV_0303,2022-11-30 21:51:46
,wl-rdm,148,649680,0.0-8.25-0.25,1.0,143.0,,,,,,,[],,,,,,50.0,1.0,i,1.0,True,1542.4000000953674,93.0,60.0,40.0,False,,280.39971970375467,[],"[768, 432]",ColorTask,62.0,26.0,,,HRV,HRV_0303,2022-11-30 21:51:46
,wl-rdm,149,652191,0.0-8.26-0.26,1.0,144.0,,,,,,,[],,,,,,53.2,1.0,i,1.0,True,1215.2000000476837,74.0,60.0,40.0,False,,214.66190485286953,[],"[768, 432]",ColorTask,63.0,27.0,,,HRV,HRV_0303,2022-11-30 21:51:46
,wl-rdm,150,654933,0.0-8.27-0.27,1.0,145.0,,,,,,,[],,,,,,73.6,0.0,u,0.0,True,1417.3000000715256,86.0,60.0,40.0,False,,237.10162707141285,[],"[768, 432]",ColorTask,64.0,28.0,,,HRV,HRV_0303,2022-11-30 21:51:46
,wl-rdm,151,657858,0.0-8.28-0.28,1.0,146.0,,,,,,,[],,,,,,53.2,1.0,i,1.0,True,1568.7999999523163,95.0,60.0,40.0,False,,270.908031385251,[],"[768, 432]",ColorTask,65.0,29.0,,,HRV,HRV_0303,2022-11-30 21:51:46
,wl-rdm,152,661332,0.0-8.29-0.29,1.0,147.0,,,,,,,[],,,,,,50.0,0.0,i,1.0,False,1996.5,121.0,60.0,40.0,False,,390.2870519068848,[],"[768, 432]",ColorTask,64.0,30.0,,,HRV,HRV_0303,2022-11-30 21:51:46
,wl-rdm,153,663758,0.0-8.30-0.30,1.0,148.0,,,,,,,[],,,,,,87.9,1.0,i,1.0,True,1096.8999999761581,66.0,60.0,40.0,False,,261.50174086755135,[],"[768, 432]",ColorTask,65.0,31.0,,,HRV,HRV_0303,2022-11-30 21:51:46
,wl-rdm,154,666651,0.0-8.31-0.31,1.0,149.0,,,,,,,[],,,,,,73.6,1.0,i,1.0,True,1501.6000000238419,91.0,60.0,40.0,False,,315.2673214050733,[],"[768, 432]",ColorTask,66.0,32.0,,,HRV,HRV_0303,2022-11-30 21:51:46
,wl-rdm,155,669710,0.0-8.32-0.32,1.0,150.0,,,,,,,[],,,,,,73.6,0.0,u,0.0,True,1756.3999999761581,106.0,60.0,40.0,False,,224.26382894111495,[],"[768, 432]",ColorTask,67.0,33.0,,,HRV,HRV_0303,2022-11-30 21:51:46
,wl-rdm,156,672269,0.0-8.33-0.33,1.0,151.0,,,,,,,[],,,,,,50.0,0.0,i,1.0,False,1182.7000000476837,72.0,60.0,40.0,False,,291.71435962242464,[],"[768, 432]",ColorTask,66.0,34.0,,,HRV,HRV_0303,2022-11-30 21:51:46
,wl-rdm,157,674795,0.0-8.34-0.34,1.0,152.0,,,,,,,[],,,,,,62.5,1.0,u,0.0,False,1242.9000000953674,75.0,60.0,40.0,False,,212.68256535483115,[],"[768, 432]",ColorTask,65.0,35.0,,,HRV,HRV_0303,2022-11-30 21:51:46
,wl-rdm,158,677405,0.0-8.35-0.35,1.0,153.0,,,,,,,[],,,,,,56.4,1.0,u,0.0,False,1176.7999999523163,71.0,60.0,40.0,False,,359.67078854119876,[],"[768, 432]",ColorTask,64.0,36.0,,,HRV,HRV_0303,2022-11-30 21:51:46
,wl-rdm,159,679815,0.0-8.36-0.36,1.0,154.0,,,,,,,[],,,,,,56.4,0.0,i,1.0,False,1087.0,66.0,60.0,40.0,False,,237.63238164392828,[],"[768, 432]",ColorTask,63.0,37.0,,,HRV,HRV_0303,2022-11-30 21:51:46
,wl-rdm,160,682973,0.0-8.37-0.37,1.0,155.0,,,,,,,[],,,,,,53.2,1.0,i,1.0,True,1842.7999999523163,111.0,60.0,40.0,False,,248.58138337745146,[],"[768, 432]",ColorTask,64.0,38.0,,,HRV,HRV_0303,2022-11-30 21:51:46
,wl-rdm,161,686397,0.0-8.38-0.38,1.0,156.0,,,,,,,[],,,,,,50.0,1.0,u,0.0,False,2138.899999976158,129.0,60.0,40.0,False,,213.28905472450163,[],"[768, 432]",ColorTask,63.0,39.0,,,HRV,HRV_0303,2022-11-30 21:51:46
,wl-rdm,162,688857,0.0-8.39-0.39,1.0,157.0,,,,,,,[],,,,,,50.0,1.0,i,1.0,True,1170.8999999761581,71.0,60.0,40.0,False,,210.99985809477923,[],"[768, 432]",ColorTask,64.0,40.0,,,HRV,HRV_0303,2022-11-30 21:51:46
,wl-rdm,163,691117,0.0-8.40-0.40,1.0,158.0,,,,,,,[],,,,,,73.6,1.0,i,1.0,True,953.3999999761581,58.0,60.0,40.0,False,,227.0696148088195,[],"[768, 432]",ColorTask,65.0,41.0,,,HRV,HRV_0303,2022-11-30 21:51:46
,wl-rdm,164,693278,0.0-8.41-0.41,1.0,159.0,,,,,,,[],,,,,,87.9,1.0,i,1.0,True,802.7000000476837,49.0,60.0,40.0,False,,269.8019882017788,[],"[768, 432]",ColorTask,66.0,42.0,,,HRV,HRV_0303,2022-11-30 21:51:46
,wl-rdm,165,696403,0.0-8.42-0.42,1.0,160.0,,,,,,,[],,,,,,50.0,0.0,i,1.0,False,1834.9000000953674,111.0,60.0,40.0,False,,209.62176794673937,[],"[768, 432]",ColorTask,65.0,43.0,,,HRV,HRV_0303,2022-11-30 21:51:46
,wl-rdm,166,698531,0.0-8.43-0.43,1.0,161.0,,,,,,,[],,,,,,73.6,1.0,i,1.0,True,803.0,49.0,60.0,40.0,False,,235.95624214516016,[],"[768, 432]",ColorTask,66.0,44.0,,,HRV,HRV_0303,2022-11-30 21:51:46
,wl-rdm,167,701706,0.0-8.44-0.44,1.0,162.0,,,,,,,[],,,,,,62.5,0.0,i,1.0,False,1768.5,107.0,60.0,40.0,False,,317.3159931464501,[],"[768, 432]",ColorTask,65.0,45.0,,,HRV,HRV_0303,2022-11-30 21:51:46
,wl-rdm,168,703899,0.0-8.45-0.45,1.0,163.0,,,,,,,[],,,,,,62.5,1.0,i,1.0,True,859.0999999046326,52.0,60.0,40.0,False,,259.9841740733754,[],"[768, 432]",ColorTask,66.0,46.0,,,HRV,HRV_0303,2022-11-30 21:51:46
,wl-rdm,169,707256,0.0-8.46-0.46,1.0,164.0,,,,,,,[],,,,,,62.5,1.0,i,1.0,True,2045.6999999284744,124.0,60.0,40.0,False,,216.58516800055662,[],"[768, 432]",ColorTask,67.0,47.0,,,HRV,HRV_0303,2022-11-30 21:51:46
,wl-rdm,170,709368,0.0-8.47-0.47,1.0,165.0,,,,,,,[],,,,,,87.9,1.0,i,1.0,True,761.3000000715256,46.0,60.0,40.0,False,,279.74672402191834,[],"[768, 432]",ColorTask,68.0,48.0,,,HRV,HRV_0303,2022-11-30 21:51:46
,wl-rdm,171,712393,0.0-8.48-0.48,1.0,166.0,,,,,,,[],,,,,,62.5,0.0,u,0.0,True,1623.2999999523163,98.0,60.0,40.0,False,,317.4899970352839,[],"[768, 432]",ColorTask,69.0,49.0,,,HRV,HRV_0303,2022-11-30 21:51:46
,wl-rdm,172,714537,0.0-8.49-0.49,1.0,167.0,,,,,,,[],,,,,,87.9,0.0,u,0.0,True,766.3999999761581,47.0,60.0,40.0,False,,299.3297070002937,[],"[768, 432]",ColorTask,70.0,50.0,,,HRV,HRV_0303,2022-11-30 21:51:46
,wl-rdm,173,716765,0.0-8.50-0.50,1.0,168.0,,,,,,,[],,,,,,53.2,0.0,i,1.0,False,865.7000000476837,53.0,60.0,40.0,False,,278.10552187654736,[],"[768, 432]",ColorTask,69.0,51.0,,,HRV,HRV_0303,2022-11-30 21:51:46
,wl-rdm,174,719124,0.0-8.51-0.51,1.0,169.0,,,,,,,[],,,,,,56.4,1.0,i,1.0,True,960.4999998807907,58.0,60.0,40.0,False,,319.673945224327,[],"[768, 432]",ColorTask,70.0,52.0,,,HRV,HRV_0303,2022-11-30 21:51:46
,wl-rdm,175,721120,0.0-8.52-0.52,1.0,170.0,,,,,,,[],,,,,,56.4,1.0,i,1.0,True,704.8999999761581,43.0,60.0,40.0,False,,207.58665199491955,[],"[768, 432]",ColorTask,71.0,53.0,,,HRV,HRV_0303,2022-11-30 21:51:46
,wl-rdm,176,723612,0.0-8.53-0.53,1.0,171.0,,,,,,,[],,,,,,87.9,0.0,u,0.0,True,1079.3999999761581,65.0,60.0,40.0,False,,337.4386257499832,[],"[768, 432]",ColorTask,72.0,54.0,,,HRV,HRV_0303,2022-11-30 21:51:46
,wl-rdm,177,726089,0.0-8.54-0.54,1.0,172.0,,,,,,,[],,,,,,73.6,1.0,i,1.0,True,1184.4000000953674,72.0,60.0,40.0,False,,210.86958776889395,[],"[768, 432]",ColorTask,73.0,55.0,,,HRV,HRV_0303,2022-11-30 21:51:46
,wl-rdm,178,728898,0.0-8.55-0.55,1.0,173.0,,,,,,,[],,,,,,56.4,1.0,i,1.0,True,1404.5999999046326,85.0,60.0,40.0,False,,331.152215454715,[],"[768, 432]",ColorTask,74.0,56.0,,,HRV,HRV_0303,2022-11-30 21:51:46
,wl-rdm,179,732056,0.0-8.56-0.56,1.0,174.0,,,,,,,[],,,,,,56.4,0.0,u,0.0,True,1681.5,102.0,60.0,40.0,False,,392.1842116299007,[],"[768, 432]",ColorTask,75.0,57.0,,,HRV,HRV_0303,2022-11-30 21:51:46
,wl-rdm,180,735613,0.0-8.57-0.57,1.0,175.0,,,,,,,[],,,,,,73.6,0.0,u,0.0,True,2109.0,127.0,60.0,40.0,False,,372.2982247011894,[],"[768, 432]",ColorTask,76.0,58.0,,,HRV,HRV_0303,2022-11-30 21:51:46
,wl-rdm,181,738073,0.0-8.58-0.58,1.0,176.0,,,,,,,[],,,,,,53.2,0.0,i,1.0,False,1098.3000000715256,67.0,60.0,40.0,False,,267.45739678750834,[],"[768, 432]",ColorTask,75.0,59.0,,,HRV,HRV_0303,2022-11-30 21:51:46
,wl-rdm,182,741498,0.0-8.59-0.59,1.0,177.0,,,,,,,[],,,,,,53.2,1.0,i,1.0,True,2058.0,124.0,60.0,40.0,False,,295.68399536907395,[],"[768, 432]",ColorTask,76.0,60.0,,,HRV,HRV_0303,2022-11-30 21:51:46
,wl-rdm,183,743857,0.0-8.60-0.60,1.0,178.0,,,,,,,[],,,,,,62.5,0.0,i,1.0,False,1020.2000000476837,62.0,60.0,40.0,False,,258.1226534412281,[],"[768, 432]",ColorTask,75.0,61.0,,,HRV,HRV_0303,2022-11-30 21:51:46
,wl-rdm,184,746815,0.0-8.61-0.61,1.0,179.0,,,,,,,[],,,,,,62.5,1.0,i,1.0,True,1509.6000000238419,91.0,60.0,40.0,False,,377.1695905943766,[],"[768, 432]",ColorTask,76.0,62.0,,,HRV,HRV_0303,2022-11-30 21:51:46
,wl-rdm,185,748926,0.0-8.62-0.62,1.0,180.0,,,,,,,[],,,,,,73.6,1.0,i,1.0,True,816.7000000476837,50.0,60.0,40.0,False,,212.12604445529038,[],"[768, 432]",ColorTask,77.0,63.0,,,HRV,HRV_0303,2022-11-30 21:51:46
,wl-rdm,186,751337,0.0-8.63-0.63,1.0,181.0,,,,,,,[],,,,,,56.4,1.0,i,1.0,True,1092.7999999523163,66.0,60.0,40.0,False,,243.70639819945842,[],"[768, 432]",ColorTask,78.0,64.0,,,HRV,HRV_0303,2022-11-30 21:51:46
,wl-rdm,187,753531,0.0-8.64-0.64,1.0,182.0,,,,,,,[],,,,,,50.0,1.0,i,1.0,True,728.7999999523163,44.0,60.0,40.0,False,,390.617682400264,[],"[768, 432]",ColorTask,79.0,65.0,,,HRV,HRV_0303,2022-11-30 21:51:46
,wl-rdm,188,756290,0.0-8.65-0.65,1.0,183.0,,,,,,,[],,,,,,53.2,1.0,i,1.0,True,1283.8999999761581,78.0,60.0,40.0,False,,396.66630396472095,[],"[768, 432]",ColorTask,80.0,66.0,,,HRV,HRV_0303,2022-11-30 21:51:46
,wl-rdm,189,758999,0.0-8.66-0.66,1.0,184.0,,,,,,,[],,,,,,53.2,0.0,i,1.0,False,1423.3999998569489,86.0,60.0,40.0,False,,215.98372252676268,[],"[768, 432]",ColorTask,79.0,67.0,,,HRV,HRV_0303,2022-11-30 21:51:46
,wl-rdm,190,762324,0.0-8.67-0.67,1.0,185.0,,,,,,,[],,,,,,53.2,0.0,u,0.0,True,2029.6999999284744,123.0,60.0,40.0,False,,208.28458576361757,[],"[768, 432]",ColorTask,80.0,68.0,,,HRV,HRV_0303,2022-11-30 21:51:46
,wl-rdm,191,765083,0.0-8.68-0.68,1.0,186.0,,,,,,,[],,,,,,56.4,1.0,i,1.0,True,1403.6999999284744,85.0,60.0,40.0,False,,273.87176127480336,[],"[768, 432]",ColorTask,81.0,69.0,,,HRV,HRV_0303,2022-11-30 21:51:46
,wl-rdm,192,768042,0.0-8.69-0.69,1.0,187.0,,,,,,,[],,,,,,50.0,0.0,i,1.0,False,1647.8999999761581,100.0,60.0,40.0,False,,222.28674651782268,[],"[768, 432]",ColorTask,80.0,70.0,,,HRV,HRV_0303,2022-11-30 21:51:46
,wl-rdm,193,770717,0.0-8.70-0.70,1.0,188.0,,,,,,,[],,,,,,50.0,0.0,i,1.0,False,1295.3000000715256,78.0,60.0,40.0,False,,308.7751363985079,[],"[768, 432]",ColorTask,79.0,71.0,,,HRV,HRV_0303,2022-11-30 21:51:46
,wl-rdm,194,773044,0.0-8.71-0.71,1.0,189.0,,,,,,,[],,,,,,53.2,1.0,i,1.0,True,925.2999999523163,56.0,60.0,40.0,False,,320.20803446319013,[],"[768, 432]",ColorTask,80.0,72.0,,,HRV,HRV_0303,2022-11-30 21:51:46
,wl-rdm,195,775172,0.0-8.72-0.72,1.0,190.0,,,,,,,[],,,,,,62.5,1.0,i,1.0,True,759.1999999284744,46.0,60.0,40.0,False,,291.4382853894293,[],"[768, 432]",ColorTask,81.0,73.0,,,HRV,HRV_0303,2022-11-30 21:51:46
,wl-rdm,196,777432,0.0-8.73-0.73,1.0,191.0,,,,,,,[],,,,,,87.9,0.0,u,0.0,True,864.1000000238419,52.0,60.0,40.0,False,,320.74113384014925,[],"[768, 432]",ColorTask,82.0,74.0,,,HRV,HRV_0303,2022-11-30 21:51:46
,wl-rdm,197,779777,0.0-8.74-0.74,1.0,192.0,,,,,,,[],,,,,,62.5,0.0,u,0.0,True,884.2999999523163,54.0,60.0,40.0,False,,374.4641045712665,[],"[768, 432]",ColorTask,83.0,75.0,,,HRV,HRV_0303,2022-11-30 21:51:46
,wl-rdm,198,782801,0.0-8.75-0.75,1.0,193.0,,,,,,,[],,,,,,62.5,0.0,i,1.0,False,1641.4000000953674,99.0,60.0,40.0,False,,315.13279514447197,[],"[768, 432]",ColorTask,82.0,76.0,,,HRV,HRV_0303,2022-11-30 21:51:46
,wl-rdm,199,784945,0.0-8.76-0.76,1.0,194.0,,,,,,,[],,,,,,87.9,1.0,i,1.0,True,809.8999999761581,49.0,60.0,40.0,False,,259.86696508475825,[],"[768, 432]",ColorTask,83.0,77.0,,,HRV,HRV_0303,2022-11-30 21:51:46
,wl-rdm,200,788120,0.0-8.77-0.77,1.0,195.0,,,,,,,[],,,,,,73.6,0.0,u,0.0,True,1853.6000000238419,112.0,60.0,40.0,False,,236.05000989461732,[],"[768, 432]",ColorTask,84.0,78.0,,,HRV,HRV_0303,2022-11-30 21:51:46
,wl-rdm,201,790696,0.0-8.78-0.78,1.0,196.0,,,,,,,[],,,,,,56.4,0.0,u,0.0,True,1292.4000000953674,78.0,60.0,40.0,False,,214.00632199073357,[],"[768, 432]",ColorTask,85.0,79.0,,,HRV,HRV_0303,2022-11-30 21:51:46
,wl-rdm,202,793588,0.0-8.79-0.79,1.0,197.0,,,,,,,[],,,,,,62.5,1.0,i,1.0,True,1481.7999999523163,90.0,60.0,40.0,False,,321.4353777616268,[],"[768, 432]",ColorTask,86.0,80.0,,,HRV,HRV_0303,2022-11-30 21:51:46
,wl-rdm,203,797062,0.0-8.80-0.80,1.0,198.0,,,,,,,[],,,,,,53.2,0.0,i,1.0,False,2112.899999976158,128.0,60.0,40.0,False,,277.6382797052743,[],"[768, 432]",ColorTask,85.0,81.0,,,HRV,HRV_0303,2022-11-30 21:51:46
,wl-rdm,204,799489,0.0-8.81-0.81,1.0,199.0,,,,,,,[],,,,,,56.4,1.0,i,1.0,True,1116.9000000953674,68.0,60.0,40.0,False,,219.16602078934716,[],"[768, 432]",ColorTask,86.0,82.0,,,HRV,HRV_0303,2022-11-30 21:51:46
,wl-rdm,205,802829,0.0-8.82-0.82,1.0,200.0,,,,,,,[],,,,,,56.4,0.0,u,0.0,True,2041.6000000238419,123.0,60.0,40.0,False,,224.23081295684597,[],"[768, 432]",ColorTask,87.0,83.0,,,HRV,HRV_0303,2022-11-30 21:51:46
,wl-rdm,206,805788,0.0-8.83-0.83,1.0,201.0,,,,,,,[],,,,,,50.0,0.0,i,1.0,False,1648.2999999523163,100.0,60.0,40.0,False,,220.9937990716045,[],"[768, 432]",ColorTask,86.0,84.0,,,HRV,HRV_0303,2022-11-30 21:51:46
,wl-rdm,207,808497,0.0-8.84-0.84,1.0,202.0,,,,,,,[],,,,,,50.0,1.0,u,0.0,False,1264.8999999761581,77.0,60.0,40.0,False,,352.3589412097481,[],"[768, 432]",ColorTask,85.0,85.0,,,HRV,HRV_0303,2022-11-30 21:51:46
,wl-rdm,208,810807,0.0-8.85-0.85,1.0,203.0,,,,,,,[],,,,,,56.4,1.0,i,1.0,True,990.8000000715256,60.0,60.0,40.0,False,,234.4216924494854,[],"[768, 432]",ColorTask,86.0,86.0,,,HRV,HRV_0303,2022-11-30 21:51:46
,wl-rdm,209,813351,0.0-8.86-0.86,1.0,204.0,,,,,,,[],,,,,,56.4,0.0,i,1.0,False,1198.7000000476837,73.0,60.0,40.0,False,,251.0215951803495,[],"[768, 432]",ColorTask,85.0,87.0,,,HRV,HRV_0303,2022-11-30 21:51:46
,wl-rdm,210,816160,0.0-8.87-0.87,1.0,205.0,,,,,,,[],,,,,,73.6,0.0,u,0.0,True,1488.7000000476837,90.0,60.0,40.0,False,,246.65682392442886,[],"[768, 432]",ColorTask,86.0,88.0,,,HRV,HRV_0303,2022-11-30 21:51:46
,wl-rdm,211,818752,0.0-8.88-0.88,1.0,206.0,,,,,,,[],,,,,,50.0,1.0,i,1.0,True,1183.2999999523163,72.0,60.0,40.0,False,,325.1398083230374,[],"[768, 432]",ColorTask,87.0,89.0,,,HRV,HRV_0303,2022-11-30 21:51:46
,wl-rdm,212,821728,0.0-8.89-0.89,1.0,207.0,,,,,,,[],,,,,,73.6,0.0,u,0.0,True,1674.4999998807907,101.0,60.0,40.0,False,,215.51496954136297,[],"[768, 432]",ColorTask,88.0,90.0,,,HRV,HRV_0303,2022-11-30 21:51:46
,wl-rdm,213,825052,0.0-8.90-0.90,1.0,208.0,,,,,,,[],,,,,,50.0,0.0,u,0.0,True,2030.2999999523163,123.0,60.0,40.0,False,,202.85275927913014,[],"[768, 432]",ColorTask,89.0,91.0,,,HRV,HRV_0303,2022-11-30 21:51:46
,wl-rdm,214,827794,0.0-8.91-0.91,1.0,209.0,,,,,,,[],,,,,,87.9,0.0,u,0.0,True,1336.1999999284744,81.0,60.0,40.0,False,,318.42727746125655,[],"[768, 432]",ColorTask,90.0,92.0,,,HRV,HRV_0303,2022-11-30 21:51:46
,wl-rdm,215,830454,0.0-8.92-0.92,1.0,210.0,,,,,,,[],,,,,,62.5,1.0,i,1.0,True,1339.6000000238419,81.0,60.0,40.0,False,,232.42144128130423,[],"[768, 432]",ColorTask,91.0,93.0,,,HRV,HRV_0303,2022-11-30 21:51:46
,wl-rdm,216,833845,0.0-8.93-0.93,1.0,211.0,,,,,,,[],,,,,,87.9,1.0,i,1.0,True,1996.4000000953674,121.0,60.0,40.0,False,,301.956686680752,[],"[768, 432]",ColorTask,92.0,94.0,,,HRV,HRV_0303,2022-11-30 21:51:46
,wl-rdm,217,836155,0.0-8.94-0.94,1.0,212.0,,,,,,,[],,,,,,73.6,1.0,i,1.0,True,849.7000000476837,52.0,60.0,40.0,False,,368.84600282324135,[],"[768, 432]",ColorTask,93.0,95.0,,,HRV,HRV_0303,2022-11-30 21:51:46
,wl-rdm,218,838715,0.0-8.95-0.95,1.0,213.0,,,,,,,[],,,,,,87.9,0.0,u,0.0,True,1259.8999999761581,76.0,60.0,40.0,False,,230.49788209815912,[],"[768, 432]",ColorTask,94.0,96.0,,,HRV,HRV_0303,2022-11-30 21:51:46
,wl-rdm,219,840892,0.0-8.96-0.96,1.0,214.0,,,,,,,[],,,,,,53.2,0.0,i,1.0,False,879.6000000238419,53.0,60.0,40.0,False,,218.80686991108786,[],"[768, 432]",ColorTask,93.0,97.0,,,HRV,HRV_0303,2022-11-30 21:51:46
,wl-rdm,220,843967,0.0-8.97-0.97,1.0,215.0,,,,,,,[],,,,,,73.6,0.0,i,1.0,False,1632.6000000238419,99.0,60.0,40.0,False,,356.1151116316705,[],"[768, 432]",ColorTask,92.0,98.0,,,HRV,HRV_0303,2022-11-30 21:51:46
,wl-rdm,221,846394,0.0-8.98-0.98,1.0,216.0,,,,,,,[],,,,,,56.4,0.0,i,1.0,False,1125.8999999761581,68.0,60.0,40.0,False,,228.89454191228387,[],"[768, 432]",ColorTask,91.0,99.0,,,HRV,HRV_0303,2022-11-30 21:51:46
,wl-rdm,222,848754,0.0-8.99-0.99,1.0,217.0,,,,,,,[],,,,,,87.9,0.0,u,0.0,True,1069.1999999284744,65.0,60.0,40.0,False,,209.50807485537192,[],"[768, 432]",ColorTask,92.0,100.0,,,HRV,HRV_0303,2022-11-30 21:51:46
,wl-rdm,223,852177,0.0-8.100-0.100,1.0,218.0,,,,,,,[],,,,,,53.2,1.0,i,1.0,True,2081.7999999523163,126.0,60.0,40.0,False,,263.7669245977766,[],"[768, 432]",ColorTask,93.0,101.0,,,HRV,HRV_0303,2022-11-30 21:51:46
,wl-rdm,224,854588,0.0-8.101-0.101,1.0,219.0,,,,,,,[],,,,,,73.6,1.0,i,1.0,True,1109.0,67.0,60.0,40.0,False,,226.01832325173854,[],"[768, 432]",ColorTask,94.0,102.0,,,HRV,HRV_0303,2022-11-30 21:51:46
,wl-rdm,225,857496,0.0-8.102-0.102,1.0,220.0,,,,,,,[],,,,,,87.9,0.0,u,0.0,True,1545.6000000238419,93.0,60.0,40.0,False,,296.18352367721377,[],"[768, 432]",ColorTask,95.0,103.0,,,HRV,HRV_0303,2022-11-30 21:51:46
,wl-rdm,226,859774,0.0-8.103-0.103,1.0,221.0,,,,,,,[],,,,,,87.9,1.0,i,1.0,True,811.2999999523163,49.0,60.0,40.0,False,,395.75090985897396,[],"[768, 432]",ColorTask,96.0,104.0,,,HRV,HRV_0303,2022-11-30 21:51:46
,wl-rdm,227,862217,0.0-8.104-0.104,1.0,222.0,,,,,,,[],,,,,,73.6,1.0,i,1.0,True,1027.7000000476837,62.0,60.0,40.0,False,,337.3601317229876,[],"[768, 432]",ColorTask,97.0,105.0,,,HRV,HRV_0303,2022-11-30 21:51:46
,wl-rdm,228,864810,0.0-8.105-0.105,1.0,223.0,,,,,,,[],,,,,,53.2,0.0,u,0.0,True,1238.3999999761581,75.0,60.0,40.0,False,,268.4244964673978,[],"[768, 432]",ColorTask,98.0,106.0,,,HRV,HRV_0303,2022-11-30 21:51:46
,wl-rdm,229,867984,0.0-8.106-0.106,1.0,224.0,,,,,,,[],,,,,,50.0,0.0,u,0.0,True,1828.8999999761581,111.0,60.0,40.0,False,,250.85383689416773,[],"[768, 432]",ColorTask,99.0,107.0,,,HRV,HRV_0303,2022-11-30 21:51:46
,wl-rdm,230,871142,0.0-8.107-0.107,1.0,225.0,,,,,,,[],,,,,,50.0,1.0,i,1.0,True,1759.9000000953674,106.0,60.0,40.0,False,,319.7363103357045,[],"[768, 432]",ColorTask,100.0,108.0,,,HRV,HRV_0303,2022-11-30 21:51:46
,wl-html-button-response,231,874147,0.0-9.0-0.0,,,,,,,,,,3000.9000000953674,,0,,,,,,,,,,,,,,,,,,,,<h3>End of this session. Thank you!</h3><br>,['Close window'],HRV,HRV_0303,2022-11-30 21:51:46
