success,trial_type,trial_index,time_elapsed,internal_node_id,Block,TrialNumber,TrialTime,trialTimeDiff,FPS_avg,FPS_med,FPS_mode,TrialDur,winResizeTime,rt,block,button_pressed,MotCoh,MotDir,ColCoh,Color,ChoiceKey,Choice,Accuracy,RT,nFrames,FPS,PPD,missTrial,missTrialMsg,onsetDelay,fullScreenExitTime,canvCenter,TrialType,Score,BlockTrial,stimulus,button_labels,exp,subjectId,date
True,fullscreen,0,2744,0.0-0.0,0.0,1.0,,,,,,,,,,,,,,,,,,,,,,,,,,,,,,,,HRV,HRV_0158,2022-11-30 18:30:34
,wl-check-fps,1,7726,0.0-1.0,0.0,2.0,"[3685.5, 3686.8, 3701.1, 3717.7, 3734.5, 3751, 3767.7, 3784.4, 3801.1, 3817.7, 3834.6, 3850.9, 3867.9, 3884.3, 3901.2, 3917.5, 3934, 3951.6, 3967.4, 3984.2, 4002.1, 4018.4, 4034.2, 4051, 4067.6, 4084.2, 4101, 4117.4, 4134.2, 4151, 4167.6, 4184.6, 4201.5, 4217.4, 4234.1, 4250.8, 4267.2, 4283.9, 4300.5, 4317.6, 4334.8, 4351.3, 4368.2, 4384, 4400.8, 4417.4, 4434.1, 4450.8, 4467.1, 4483.9, 4500.2, 4517, 4533.8, 4550.5, 4566.9, 4583.5, 4600.2, 4616.8, 4633.6, 4650.3, 4666.8, 4683.5, 4700.2, 4716.8, 4733.4, 4750.4, 4766.5, 4783.6, 4800.4, 4816.6, 4833.6, 4850.2, 4866.6, 4883.5, 4900.2, 4916.8, 4933.6, 4950.5, 4966.6, 4983.5, 5000.2, 5016.4, 5033.5, 5050.1, 5066.5, 5083.4, 5100, 5116.6, 5133.2, 5149.9, 5166.4, 5183.2, 5199.8, 5216.4, 5233.2, 5249.7, 5266.3, 5283.2, 5299.8, 5316.1, 5333.3, 5349.5, 5366.6, 5383.1, 5399.9, 5417.3, 5433.7, 5449.7, 5466.2, 5482.9, 5499.5, 5516.1, 5532.8, 5549.6, 5566, 5582.9, 5599.5, 5615.9, 5632.8, 5649.5, 5666, 5682.8, 5699.3, 5716.2, 5732.6, 5749.5, 5766, 5782.7, 5799.3, 5815.8, 5832.6, 5849.3, 5866, 5882.5, 5899.3, 5916, 5932.6, 5950, 5965.9, 5982.6, 5999.2, 6015.8, 6032.2, 6048.8, 6065.8, 6082.5, 6098.8, 6115.7, 6132.6, 6149.1, 6165.4, 6182.4, 6199, 6215.7, 6232.3, 6249, 6265.5, 6282.3, 6298.8, 6315.4, 6332.1, 6348.9, 6365.4, 6382, 6398.8, 6415.3, 6432.2, 6448.7, 6465.2, 6481.9, 6498.8, 6515.3, 6532, 6548.7, 6565.2, 6582, 6598.6, 6615.1, 6631.9, 6648.6, 6665.1, 6681.9, 6698.4, 6715, 6731.6, 6748.4, 6765.1, 6781.8, 6798.5, 6815, 6831.8, 6848.4, 6865.1, 6881.6, 6898.2, 6915, 6931.8, 6948.2, 6965.1, 6981.6, 6998.3, 7015, 7031.6, 7048.2, 7064.7, 7081.4, 7098, 7114.9, 7131.4, 7148.1, 7164.7, 7181.4, 7198, 7214.5, 7231.4, 7248.2, 7264.7, 7281.4, 7298.1, 7314.5, 7331.3, 7348, 7364.7, 7381.2, 7398, 7414.4, 7431.1, 7447.8, 7464.5, 7481.8, 7498.6, 7514.6, 7531.1, 7548, 7564.5, 7581.4, 7597.6, 7614.2, 7631.2, 7647.5, 7664.8, 7681, 7697.6, 7714, 7730.9, 7747.4, 7764.3, 7781.1, 7797.4, 7814.4, 7831, 7847.5, 7864, 7880.9, 7897.4, 7914.3, 7930.6, 7947.2, 7964.2, 7980.7, 7997.1, 8014.1, 8030.7, 8047.1, 8064, 8080.7, 8097.2, 8113.9, 8130.5, 8147.2, 8164.1, 8180.6, 8197.1, 8213.8, 8230.6, 8247.1, 8263.9, 8280.5, 8297, 8313.8, 8330.5, 8347, 8363.9, 8380.4, 8397, 8413.7, 8430.3, 8446.9, 8464.2, 8480.4, 8496.7, 8513.3, 8531.2, 8546.9, 8563.4, 8580.3, 8596.9, 8613.6, 8630.5, 8646.5]","[1.4, 1.3, 14.3, 16.6, 16.8, 16.5, 16.7, 16.7, 16.7, 16.6, 16.9, 16.3, 17, 16.4, 16.9, 16.3, 16.5, 17.6, 15.8, 16.8, 17.9, 16.3, 15.8, 16.8, 16.6, 16.6, 16.8, 16.4, 16.8, 16.8, 16.6, 17, 16.9, 15.9, 16.7, 16.7, 16.4, 16.7, 16.6, 17.1, 17.2, 16.5, 16.9, 15.8, 16.8, 16.6, 16.7, 16.7, 16.3, 16.8, 16.3, 16.8, 16.8, 16.7, 16.4, 16.6, 16.7, 16.6, 16.8, 16.7, 16.5, 16.7, 16.7, 16.6, 16.6, 17, 16.1, 17.1, 16.8, 16.2, 17, 16.6, 16.4, 16.9, 16.7, 16.6, 16.8, 16.9, 16.1, 16.9, 16.7, 16.2, 17.1, 16.6, 16.4, 16.9, 16.6, 16.6, 16.6, 16.7, 16.5, 16.8, 16.6, 16.6, 16.8, 16.5, 16.6, 16.9, 16.6, 16.3, 17.2, 16.2, 17.1, 16.5, 16.8, 17.4, 16.4, 16, 16.5, 16.7, 16.6, 16.6, 16.7, 16.8, 16.4, 16.9, 16.6, 16.4, 16.9, 16.7, 16.5, 16.8, 16.5, 16.9, 16.4, 16.9, 16.5, 16.7, 16.6, 16.5, 16.8, 16.7, 16.7, 16.5, 16.8, 16.7, 16.6, 17.4, 15.9, 16.7, 16.6, 16.6, 16.4, 16.6, 17, 16.7, 16.3, 16.9, 16.9, 16.5, 16.3, 17, 16.6, 16.7, 16.6, 16.7, 16.5, 16.8, 16.5, 16.6, 16.7, 16.8, 16.5, 16.6, 16.8, 16.5, 16.9, 16.5, 16.5, 16.7, 16.9, 16.5, 16.7, 16.7, 16.5, 16.8, 16.6, 16.5, 16.8, 16.7, 16.5, 16.8, 16.5, 16.6, 16.6, 16.8, 16.7, 16.7, 16.7, 16.5, 16.8, 16.6, 16.7, 16.5, 16.6, 16.8, 16.8, 16.4, 16.9, 16.5, 16.7, 16.7, 16.6, 16.6, 16.5, 16.7, 16.6, 16.9, 16.5, 16.7, 16.6, 16.7, 16.6, 16.5, 16.9, 16.8, 16.5, 16.7, 16.7, 16.4, 16.8, 16.7, 16.7, 16.5, 16.8, 16.4, 16.7, 16.7, 16.7, 17.3, 16.8, 16, 16.5, 16.9, 16.5, 16.9, 16.2, 16.6, 17, 16.3, 17.3, 16.2, 16.6, 16.4, 16.9, 16.5, 16.9, 16.8, 16.3, 17, 16.6, 16.5, 16.5, 16.9, 16.5, 16.9, 16.3, 16.6, 17, 16.5, 16.4, 17, 16.6, 16.4, 16.9, 16.7, 16.5, 16.7, 16.6, 16.7, 16.9, 16.5, 16.5, 16.7, 16.8, 16.5, 16.8, 16.6, 16.5, 16.8, 16.7, 16.5, 16.9, 16.5, 16.6, 16.7, 16.6, 16.6, 17.3, 16.2, 16.3, 16.6, 17.9, 15.7, 16.5, 16.9, 16.6, 16.7, 16.9, 16]",60.0,61.0,60.0,4979.2,[],,,,,,,,,,,,,,,,,,,,,,,,,HRV,HRV_0158,2022-11-30 18:30:34
,wl-html-keyboard-response,2,29521,0.0-2.0-0.0,0.0,3.0,,,,,,,,19778.200000047684,0.0,0,,,,,,,,,,,,,,,,,,,,,,HRV,HRV_0158,2022-11-30 18:30:34
,wl-rdm,3,37151,0.0-3.0-0.0,0.0,4.0,,,,,,,[],,,,0.0,0.0,87.9,0.0,u,0.0,True,2018.0,122.0,60.0,40.0,False,,3000.0,[],"[674, 379]",ColorTask_Demo,,,,,HRV,HRV_0158,2022-11-30 18:30:34
,wl-rdm,4,41946,0.0-3.0-1.0,0.0,5.0,,,,,,,[],,,,0.0,0.0,87.9,1.0,i,1.0,True,713.8000000119209,43.0,60.0,40.0,False,,2000.0,[],"[674, 379]",ColorTask_Demo,,,,,HRV,HRV_0158,2022-11-30 18:30:34
,wl-html-keyboard-response,5,58789,0.0-3.0-2.0,0.0,6.0,,,,,,,,14828.900000035763,0.0,1,,,,,,,,,,,,,,,,,,,,,,HRV,HRV_0158,2022-11-30 18:30:34
,wl-html-keyboard-response,6,66548,0.0-4.0-0.0,0.0,7.0,,,,,,,,5747.600000023842,0.0,0,,,,,,,,,,,,,,,,,,,,,,HRV,HRV_0158,2022-11-30 18:30:34
,wl-html-keyboard-response,7,80846,0.0-5.0-0.0,0.0,8.0,,,,,,,,12292.199999988079,0.0,0,,,,,,,,,,,,,,,,,,,,,,HRV,HRV_0158,2022-11-30 18:30:34
,wl-rdm,8,83326,0.0-6.0-0.0,0.0,9.0,,,,,,,[],,,,,,73.6,1.0,i,1.0,True,1058.0,64.0,60.0,40.0,False,,338.7011539392543,[],"[674, 379]",ColorTask,1.0,1.0,,,HRV,HRV_0158,2022-11-30 18:30:34
,wl-rdm,9,85541,0.0-6.1-0.1,0.0,10.0,,,,,,,[],,,,,,73.6,0.0,u,0.0,True,769.3999999761581,47.0,60.0,40.0,False,,353.9519419036205,[],"[674, 379]",ColorTask,2.0,2.0,,,HRV,HRV_0158,2022-11-30 18:30:34
,wl-rdm,10,87789,0.0-6.2-0.2,0.0,11.0,,,,,,,[],,,,,,62.5,1.0,i,1.0,True,837.3999999761581,51.0,60.0,40.0,False,,318.4303745663066,[],"[674, 379]",ColorTask,3.0,3.0,,,HRV,HRV_0158,2022-11-30 18:30:34
,wl-rdm,11,89854,0.0-6.3-0.3,0.0,12.0,,,,,,,[],,,,,,53.2,1.0,i,1.0,True,769.1000000238419,47.0,60.0,40.0,False,,215.56823907656877,[],"[674, 379]",ColorTask,4.0,4.0,,,HRV,HRV_0158,2022-11-30 18:30:34
,wl-rdm,12,92551,0.0-6.4-0.4,0.0,13.0,,,,,,,[],,,,,,62.5,0.0,u,0.0,True,1338.5999999642372,81.0,60.0,40.0,False,,279.23761470663425,[],"[674, 379]",ColorTask,5.0,5.0,,,HRV,HRV_0158,2022-11-30 18:30:34
,wl-rdm,13,95149,0.0-6.5-0.5,0.0,14.0,,,,,,,[],,,,,,50.0,1.0,i,1.0,True,1202.0,73.0,60.0,40.0,False,,313.1578013790319,[],"[674, 379]",ColorTask,6.0,6.0,,,HRV,HRV_0158,2022-11-30 18:30:34
,wl-rdm,14,97463,0.0-6.6-0.6,0.0,15.0,,,,,,,[],,,,,,87.9,0.0,u,0.0,True,946.3999999761581,57.0,60.0,40.0,False,,286.3236257056569,[],"[674, 379]",ColorTask,7.0,7.0,,,HRV,HRV_0158,2022-11-30 18:30:34
,wl-rdm,15,99845,0.0-6.7-0.7,0.0,16.0,,,,,,,[],,,,,,73.6,0.0,u,0.0,True,982.4000000357628,59.0,60.0,40.0,False,,321.50366591330993,[],"[674, 379]",ColorTask,8.0,8.0,,,HRV,HRV_0158,2022-11-30 18:30:34
,wl-rdm,16,101959,0.0-6.8-0.8,0.0,17.0,,,,,,,[],,,,,,53.2,0.0,i,1.0,False,776.0,47.0,60.0,40.0,False,,257.0262813893706,[],"[674, 379]",ColorTask,7.0,9.0,,,HRV,HRV_0158,2022-11-30 18:30:34
,wl-rdm,17,104358,0.0-6.9-0.9,0.0,18.0,,,,,,,[],,,,,,62.5,0.0,u,0.0,True,1005.2000000476837,61.0,60.0,40.0,False,,312.02360645056416,[],"[674, 379]",ColorTask,8.0,10.0,,,HRV,HRV_0158,2022-11-30 18:30:34
,wl-rdm,18,106589,0.0-6.10-0.10,0.0,19.0,,,,,,,[],,,,,,53.2,1.0,i,1.0,True,815.3999999761581,49.0,60.0,40.0,False,,342.0838350539095,[],"[674, 379]",ColorTask,9.0,11.0,,,HRV,HRV_0158,2022-11-30 18:30:34
,wl-rdm,19,109203,0.0-6.11-0.11,0.0,20.0,,,,,,,[],,,,,,56.4,1.0,u,0.0,False,1206.0999999642372,73.0,60.0,40.0,False,,316.7200642960211,[],"[674, 379]",ColorTask,8.0,12.0,,,HRV,HRV_0158,2022-11-30 18:30:34
,wl-rdm,20,111334,0.0-6.12-0.12,0.0,21.0,,,,,,,[],,,,,,56.4,1.0,i,1.0,True,821.6000000834465,50.0,60.0,40.0,False,,222.2486281219097,[],"[674, 379]",ColorTask,9.0,13.0,,,HRV,HRV_0158,2022-11-30 18:30:34
,wl-rdm,21,113616,0.0-6.13-0.13,0.0,22.0,,,,,,,[],,,,,,73.6,0.0,u,0.0,True,990.3999999761581,60.0,60.0,40.0,False,,210.55885980484783,[],"[674, 379]",ColorTask,10.0,14.0,,,HRV,HRV_0158,2022-11-30 18:30:34
,wl-rdm,22,116363,0.0-6.14-0.14,0.0,23.0,,,,,,,[],,,,,,62.5,0.0,i,1.0,False,1271.5999999642372,77.0,60.0,40.0,False,,399.69228838600486,[],"[674, 379]",ColorTask,9.0,15.0,,,HRV,HRV_0158,2022-11-30 18:30:34
,wl-rdm,23,118611,0.0-6.15-0.15,0.0,24.0,,,,,,,[],,,,,,56.4,0.0,i,1.0,False,939.7999999523163,57.0,60.0,40.0,False,,228.62777274279654,[],"[674, 379]",ColorTask,8.0,16.0,,,HRV,HRV_0158,2022-11-30 18:30:34
,wl-rdm,24,120809,0.0-6.16-0.16,0.0,25.0,,,,,,,[],,,,,,73.6,0.0,u,0.0,True,867.8999999165535,53.0,60.0,40.0,False,,234.530598140908,[],"[674, 379]",ColorTask,9.0,17.0,,,HRV,HRV_0158,2022-11-30 18:30:34
,wl-rdm,25,123357,0.0-6.17-0.17,0.0,26.0,,,,,,,[],,,,,,62.5,0.0,u,0.0,True,1194.199999988079,72.0,60.0,40.0,False,,275.03163325786176,[],"[674, 379]",ColorTask,10.0,18.0,,,HRV,HRV_0158,2022-11-30 18:30:34
,wl-rdm,26,125706,0.0-6.18-0.18,0.0,27.0,,,,,,,[],,,,,,50.0,1.0,u,0.0,False,921.3000000119209,56.0,60.0,40.0,False,,354.3311695423448,[],"[674, 379]",ColorTask,9.0,19.0,,,HRV,HRV_0158,2022-11-30 18:30:34
,wl-rdm,27,127920,0.0-6.19-0.19,0.0,28.0,,,,,,,[],,,,,,56.4,0.0,u,0.0,True,897.1000000238419,54.0,60.0,40.0,False,,249.1571783909795,[],"[674, 379]",ColorTask,10.0,20.0,,,HRV,HRV_0158,2022-11-30 18:30:34
,wl-rdm,28,130118,0.0-6.20-0.20,0.0,29.0,,,,,,,[],,,,,,62.5,0.0,i,1.0,False,756.1999999880791,46.0,60.0,40.0,False,,357.0333080008272,[],"[674, 379]",ColorTask,9.0,21.0,,,HRV,HRV_0158,2022-11-30 18:30:34
,wl-rdm,29,132549,0.0-6.21-0.21,0.0,30.0,,,,,,,[],,,,,,56.4,0.0,u,0.0,True,995.6999999880791,60.0,60.0,40.0,False,,351.8176595404399,[],"[674, 379]",ColorTask,10.0,22.0,,,HRV,HRV_0158,2022-11-30 18:30:34
,wl-rdm,30,134948,0.0-6.22-0.22,0.0,31.0,,,,,,,[],,,,,,73.6,0.0,u,0.0,True,1059.6000000238419,64.0,60.0,40.0,False,,265.28068850362376,[],"[674, 379]",ColorTask,11.0,23.0,,,HRV,HRV_0158,2022-11-30 18:30:34
,wl-rdm,31,137412,0.0-6.23-0.23,0.0,32.0,,,,,,,[],,,,,,50.0,0.0,i,1.0,False,1151.0,70.0,60.0,40.0,False,,226.0804607778519,[],"[674, 379]",ColorTask,10.0,24.0,,,HRV,HRV_0158,2022-11-30 18:30:34
,wl-rdm,32,139510,0.0-6.24-0.24,0.0,33.0,,,,,,,[],,,,,,56.4,1.0,i,1.0,True,798.3999999165535,48.0,60.0,40.0,False,,222.6380416844148,[],"[674, 379]",ColorTask,11.0,25.0,,,HRV,HRV_0158,2022-11-30 18:30:34
,wl-rdm,33,141792,0.0-6.25-0.25,0.0,34.0,,,,,,,[],,,,,,53.2,0.0,i,1.0,False,834.8999999761581,51.0,60.0,40.0,False,,370.8149872290419,[],"[674, 379]",ColorTask,10.0,26.0,,,HRV,HRV_0158,2022-11-30 18:30:34
,wl-rdm,34,144123,0.0-6.26-0.26,0.0,35.0,,,,,,,[],,,,,,56.4,1.0,i,1.0,True,920.1999999880791,56.0,60.0,40.0,False,,326.10613087640064,[],"[674, 379]",ColorTask,11.0,27.0,,,HRV,HRV_0158,2022-11-30 18:30:34
,wl-rdm,35,146420,0.0-6.27-0.27,0.0,36.0,,,,,,,[],,,,,,50.0,1.0,u,0.0,False,1015.8999999761581,61.0,60.0,40.0,False,,206.2637650089797,[],"[674, 379]",ColorTask,10.0,28.0,,,HRV,HRV_0158,2022-11-30 18:30:34
,wl-rdm,36,148685,0.0-6.28-0.28,0.0,37.0,,,,,,,[],,,,,,50.0,0.0,i,1.0,False,827.1999999880791,50.0,60.0,40.0,False,,361.27590578511865,[],"[674, 379]",ColorTask,9.0,29.0,,,HRV,HRV_0158,2022-11-30 18:30:34
,wl-rdm,37,150984,0.0-6.29-0.29,0.0,38.0,,,,,,,[],,,,,,50.0,1.0,i,1.0,True,844.3000000119209,51.0,60.0,40.0,False,,394.0173509755556,[],"[674, 379]",ColorTask,10.0,30.0,,,HRV,HRV_0158,2022-11-30 18:30:34
,wl-rdm,38,153298,0.0-6.30-0.30,0.0,39.0,,,,,,,[],,,,,,53.2,0.0,u,0.0,True,879.5,53.0,60.0,40.0,False,,363.56543147511945,[],"[674, 379]",ColorTask,11.0,31.0,,,HRV,HRV_0158,2022-11-30 18:30:34
,wl-rdm,39,155929,0.0-6.31-0.31,0.0,40.0,,,,,,,[],,,,,,50.0,0.0,u,0.0,True,1303.2000000476837,79.0,60.0,40.0,False,,234.49306318464681,[],"[674, 379]",ColorTask,12.0,32.0,,,HRV,HRV_0158,2022-11-30 18:30:34
,wl-rdm,40,158743,0.0-6.32-0.32,0.0,41.0,,,,,,,[],,,,,,53.2,1.0,i,1.0,True,1395.0999999642372,84.0,60.0,40.0,False,,348.28688228109195,[],"[674, 379]",ColorTask,13.0,33.0,,,HRV,HRV_0158,2022-11-30 18:30:34
,wl-rdm,41,161591,0.0-6.33-0.33,0.0,42.0,,,,,,,[],,,,,,62.5,0.0,i,1.0,False,1368.1000000238419,83.0,60.0,40.0,False,,397.10814356743765,[],"[674, 379]",ColorTask,12.0,34.0,,,HRV,HRV_0158,2022-11-30 18:30:34
,wl-rdm,42,163939,0.0-6.34-0.34,0.0,43.0,,,,,,,[],,,,,,62.5,0.0,u,0.0,True,991.0999999642372,60.0,60.0,40.0,False,,266.30841099849596,[],"[674, 379]",ColorTask,13.0,35.0,,,HRV,HRV_0158,2022-11-30 18:30:34
,wl-rdm,43,166170,0.0-6.35-0.35,0.0,44.0,,,,,,,[],,,,,,87.9,0.0,u,0.0,True,872.4000000357628,53.0,60.0,40.0,False,,276.63076297197154,[],"[674, 379]",ColorTask,14.0,36.0,,,HRV,HRV_0158,2022-11-30 18:30:34
,wl-rdm,44,168219,0.0-6.36-0.36,0.0,45.0,,,,,,,[],,,,,,87.9,1.0,i,1.0,True,756.3999999761581,46.0,60.0,40.0,False,,223.6774426642316,[],"[674, 379]",ColorTask,15.0,37.0,,,HRV,HRV_0158,2022-11-30 18:30:34
,wl-rdm,45,170999,0.0-6.37-0.37,0.0,46.0,,,,,,,[],,,,,,53.2,1.0,u,0.0,False,1368.8999999761581,83.0,60.0,40.0,False,,327.898598416093,[],"[674, 379]",ColorTask,14.0,38.0,,,HRV,HRV_0158,2022-11-30 18:30:34
,wl-rdm,46,173614,0.0-6.38-0.38,0.0,47.0,,,,,,,[],,,,,,53.2,0.0,i,1.0,False,1168.300000011921,71.0,60.0,40.0,False,,362.80906716448743,[],"[674, 379]",ColorTask,13.0,39.0,,,HRV,HRV_0158,2022-11-30 18:30:34
,wl-rdm,47,176195,0.0-6.39-0.39,0.0,48.0,,,,,,,[],,,,,,73.6,0.0,u,0.0,True,1235.1000000238419,75.0,60.0,40.0,False,,254.29227809797644,[],"[674, 379]",ColorTask,14.0,40.0,,,HRV,HRV_0158,2022-11-30 18:30:34
,wl-rdm,48,178243,0.0-6.40-0.40,0.0,49.0,,,,,,,[],,,,,,53.2,0.0,i,1.0,False,680.9000000357628,41.0,60.0,40.0,False,,296.4674763525321,[],"[674, 379]",ColorTask,13.0,41.0,,,HRV,HRV_0158,2022-11-30 18:30:34
,wl-rdm,49,180425,0.0-6.41-0.41,0.0,50.0,,,,,,,[],,,,,,87.9,0.0,u,0.0,True,851.0999999642372,52.0,60.0,40.0,False,,233.94071512999773,[],"[674, 379]",ColorTask,14.0,42.0,,,HRV,HRV_0158,2022-11-30 18:30:34
,wl-rdm,50,182905,0.0-6.42-0.42,0.0,51.0,,,,,,,[],,,,,,87.9,0.0,u,0.0,True,1115.2000000476837,67.0,60.0,40.0,False,,298.4215613243219,[],"[674, 379]",ColorTask,15.0,43.0,,,HRV,HRV_0158,2022-11-30 18:30:34
,wl-rdm,51,185420,0.0-6.43-0.43,0.0,52.0,,,,,,,[],,,,,,56.4,1.0,i,1.0,True,1053.8999999761581,64.0,60.0,40.0,False,,378.36931291508404,[],"[674, 379]",ColorTask,16.0,44.0,,,HRV,HRV_0158,2022-11-30 18:30:34
,wl-rdm,52,187686,0.0-6.44-0.44,0.0,53.0,,,,,,,[],,,,,,56.4,1.0,i,1.0,True,895.0,54.0,60.0,40.0,False,,296.5145544548894,[],"[674, 379]",ColorTask,17.0,45.0,,,HRV,HRV_0158,2022-11-30 18:30:34
,wl-rdm,53,189950,0.0-6.45-0.45,0.0,54.0,,,,,,,[],,,,,,50.0,0.0,i,1.0,False,971.3999999761581,59.0,60.0,40.0,False,,205.68951647354433,[],"[674, 379]",ColorTask,16.0,46.0,,,HRV,HRV_0158,2022-11-30 18:30:34
,wl-rdm,54,193331,0.0-6.46-0.46,0.0,55.0,,,,,,,[],,,,,,53.2,0.0,u,0.0,True,1994.1000000238419,120.0,60.0,40.0,False,,304.4602740140699,[],"[674, 379]",ColorTask,17.0,47.0,,,HRV,HRV_0158,2022-11-30 18:30:34
,wl-rdm,55,196128,0.0-6.47-0.47,0.0,56.0,,,,,,,[],,,,,,56.4,0.0,u,0.0,True,1406.0000000596046,85.0,60.0,40.0,False,,315.3308869534405,[],"[674, 379]",ColorTask,18.0,48.0,,,HRV,HRV_0158,2022-11-30 18:30:34
,wl-rdm,56,199209,0.0-6.48-0.48,0.0,57.0,,,,,,,[],,,,,,62.5,1.0,i,1.0,True,1646.800000011921,99.0,60.0,40.0,False,,361.60002503486993,[],"[674, 379]",ColorTask,19.0,49.0,,,HRV,HRV_0158,2022-11-30 18:30:34
,wl-rdm,57,202040,0.0-6.49-0.49,0.0,58.0,,,,,,,[],,,,,,50.0,1.0,i,1.0,True,1386.5999999642372,84.0,60.0,40.0,False,,351.2386030613078,[],"[674, 379]",ColorTask,20.0,50.0,,,HRV,HRV_0158,2022-11-30 18:30:34
,wl-rdm,58,204421,0.0-6.50-0.50,0.0,59.0,,,,,,,[],,,,,,73.6,1.0,i,1.0,True,906.6000000238419,55.0,60.0,40.0,False,,393.8316373261124,[],"[674, 379]",ColorTask,21.0,51.0,,,HRV,HRV_0158,2022-11-30 18:30:34
,wl-rdm,59,206802,0.0-6.51-0.51,0.0,60.0,,,,,,,[],,,,,,53.2,1.0,i,1.0,True,1087.2000000476837,66.0,60.0,40.0,False,,211.53959789756723,[],"[674, 379]",ColorTask,22.0,52.0,,,HRV,HRV_0158,2022-11-30 18:30:34
,wl-rdm,60,209800,0.0-6.52-0.52,0.0,61.0,,,,,,,[],,,,,,56.4,1.0,i,1.0,True,1671.8000000715256,101.0,60.0,40.0,False,,245.73599371120667,[],"[674, 379]",ColorTask,23.0,53.0,,,HRV,HRV_0158,2022-11-30 18:30:34
,wl-rdm,61,212015,0.0-6.53-0.53,0.0,62.0,,,,,,,[],,,,,,87.9,0.0,u,0.0,True,835.3999999761581,51.0,60.0,40.0,False,,294.86829278855157,[],"[674, 379]",ColorTask,24.0,54.0,,,HRV,HRV_0158,2022-11-30 18:30:34
,wl-rdm,62,214629,0.0-6.54-0.54,0.0,63.0,,,,,,,[],,,,,,53.2,1.0,u,0.0,False,1198.1000000238419,72.0,60.0,40.0,False,,345.2079070339058,[],"[674, 379]",ColorTask,23.0,55.0,,,HRV,HRV_0158,2022-11-30 18:30:34
,wl-rdm,63,217192,0.0-6.55-0.55,0.0,64.0,,,,,,,[],,,,,,50.0,0.0,i,1.0,False,1203.5000000596046,73.0,60.0,40.0,False,,269.21372023250655,[],"[674, 379]",ColorTask,22.0,56.0,,,HRV,HRV_0158,2022-11-30 18:30:34
,wl-rdm,64,219757,0.0-6.56-0.56,0.0,65.0,,,,,,,[],,,,,,56.4,1.0,i,1.0,True,1277.699999988079,77.0,60.0,40.0,False,,207.54665002948795,[],"[674, 379]",ColorTask,23.0,57.0,,,HRV,HRV_0158,2022-11-30 18:30:34
,wl-rdm,65,222172,0.0-6.57-0.57,0.0,66.0,,,,,,,[],,,,,,56.4,0.0,i,1.0,False,1023.5,62.0,60.0,40.0,False,,306.55519651149854,[],"[674, 379]",ColorTask,22.0,58.0,,,HRV,HRV_0158,2022-11-30 18:30:34
,wl-rdm,66,224187,0.0-6.58-0.58,0.0,67.0,,,,,,,[],,,,,,73.6,1.0,i,1.0,True,679.3000000119209,41.0,60.0,40.0,False,,253.4314351226686,[],"[674, 379]",ColorTask,23.0,59.0,,,HRV,HRV_0158,2022-11-30 18:30:34
,wl-rdm,67,226635,0.0-6.59-0.59,0.0,68.0,,,,,,,[],,,,,,73.6,1.0,i,1.0,True,1156.2000000476837,70.0,60.0,40.0,False,,214.3670955084899,[],"[674, 379]",ColorTask,24.0,60.0,,,HRV,HRV_0158,2022-11-30 18:30:34
,wl-rdm,68,228883,0.0-6.60-0.60,0.0,69.0,,,,,,,[],,,,,,62.5,1.0,i,1.0,True,810.3000000119209,49.0,60.0,40.0,False,,358.26830755388664,[],"[674, 379]",ColorTask,25.0,61.0,,,HRV,HRV_0158,2022-11-30 18:30:34
,wl-rdm,69,231164,0.0-6.61-0.61,0.0,70.0,,,,,,,[],,,,,,62.5,0.0,u,0.0,True,924.5,56.0,60.0,40.0,False,,282.41901056013523,[],"[674, 379]",ColorTask,26.0,62.0,,,HRV,HRV_0158,2022-11-30 18:30:34
,wl-rdm,70,233445,0.0-6.62-0.62,0.0,71.0,,,,,,,[],,,,,,87.9,1.0,i,1.0,True,846.3000000715256,51.0,60.0,40.0,False,,364.63393779667024,[],"[674, 379]",ColorTask,27.0,63.0,,,HRV,HRV_0158,2022-11-30 18:30:34
,wl-rdm,71,235610,0.0-6.63-0.63,0.0,72.0,,,,,,,[],,,,,,87.9,0.0,u,0.0,True,869.9000000357628,53.0,60.0,40.0,False,,201.42812117556082,[],"[674, 379]",ColorTask,28.0,64.0,,,HRV,HRV_0158,2022-11-30 18:30:34
,wl-rdm,72,238092,0.0-6.64-0.64,0.0,73.0,,,,,,,[],,,,,,50.0,1.0,i,1.0,True,1130.199999988079,68.0,60.0,40.0,False,,274.15848987777645,[],"[674, 379]",ColorTask,29.0,65.0,,,HRV,HRV_0158,2022-11-30 18:30:34
,wl-rdm,73,240006,0.0-6.65-0.65,0.0,74.0,,,,,,,[],,,,,,73.6,1.0,i,1.0,True,627.5000000596046,38.0,60.0,40.0,False,,206.91700081916784,[],"[674, 379]",ColorTask,30.0,66.0,,,HRV,HRV_0158,2022-11-30 18:30:34
,wl-rdm,74,242271,0.0-6.66-0.66,0.0,75.0,,,,,,,[],,,,,,56.4,1.0,i,1.0,True,934.9000000357628,57.0,60.0,40.0,False,,237.41633803835882,[],"[674, 379]",ColorTask,31.0,67.0,,,HRV,HRV_0158,2022-11-30 18:30:34
,wl-rdm,75,245318,0.0-6.67-0.67,0.0,76.0,,,,,,,[],,,,,,53.2,0.0,i,1.0,False,1684.5999999642372,102.0,60.0,40.0,False,,280.5410817840365,[],"[674, 379]",ColorTask,30.0,68.0,,,HRV,HRV_0158,2022-11-30 18:30:34
,wl-rdm,76,247599,0.0-6.68-0.68,0.0,77.0,,,,,,,[],,,,,,50.0,0.0,i,1.0,False,805.3000000119209,49.0,60.0,40.0,False,,391.4159448125868,[],"[674, 379]",ColorTask,29.0,69.0,,,HRV,HRV_0158,2022-11-30 18:30:34
,wl-rdm,77,249598,0.0-6.69-0.69,0.0,78.0,,,,,,,[],,,,,,87.9,1.0,i,1.0,True,679.0,41.0,60.0,40.0,False,,233.18336426376834,[],"[674, 379]",ColorTask,30.0,70.0,,,HRV,HRV_0158,2022-11-30 18:30:34
,wl-rdm,78,252278,0.0-6.70-0.70,0.0,79.0,,,,,,,[],,,,,,53.2,1.0,u,0.0,False,1354.2000000476837,82.0,60.0,40.0,False,,235.59254711719004,[],"[674, 379]",ColorTask,29.0,71.0,,,HRV,HRV_0158,2022-11-30 18:30:34
,wl-rdm,79,254377,0.0-6.71-0.71,0.0,80.0,,,,,,,[],,,,,,73.6,1.0,i,1.0,True,785.1000000238419,48.0,60.0,40.0,False,,217.40734698613736,[],"[674, 379]",ColorTask,30.0,72.0,,,HRV,HRV_0158,2022-11-30 18:30:34
,wl-rdm,80,256775,0.0-6.72-0.72,0.0,81.0,,,,,,,[],,,,,,53.2,1.0,u,0.0,False,1081.9000000357628,65.0,60.0,40.0,False,,247.9204928849437,[],"[674, 379]",ColorTask,29.0,73.0,,,HRV,HRV_0158,2022-11-30 18:30:34
,wl-rdm,81,259306,0.0-6.73-0.73,0.0,82.0,,,,,,,[],,,,,,62.5,1.0,i,1.0,True,1232.5,74.0,60.0,40.0,False,,226.14445689114578,[],"[674, 379]",ColorTask,30.0,74.0,,,HRV,HRV_0158,2022-11-30 18:30:34
,wl-rdm,82,262070,0.0-6.74-0.74,0.0,83.0,,,,,,,[],,,,,,62.5,1.0,i,1.0,True,1406.2999999523163,85.0,60.0,40.0,False,,277.49769513199146,[],"[674, 379]",ColorTask,31.0,75.0,,,HRV,HRV_0158,2022-11-30 18:30:34
,wl-rdm,83,264718,0.0-6.75-0.75,0.0,84.0,,,,,,,[],,,,,,62.5,1.0,u,0.0,False,1281.699999988079,77.0,60.0,40.0,False,,288.0994660307502,[],"[674, 379]",ColorTask,30.0,76.0,,,HRV,HRV_0158,2022-11-30 18:30:34
,wl-rdm,84,266816,0.0-6.76-0.76,0.0,85.0,,,,,,,[],,,,,,73.6,1.0,i,1.0,True,757.5,46.0,60.0,40.0,False,,257.78541086335713,[],"[674, 379]",ColorTask,31.0,77.0,,,HRV,HRV_0158,2022-11-30 18:30:34
,wl-rdm,85,269280,0.0-6.77-0.77,0.0,86.0,,,,,,,[],,,,,,50.0,0.0,i,1.0,False,1160.7000000476837,70.0,60.0,40.0,False,,226.9316985694241,[],"[674, 379]",ColorTask,30.0,78.0,,,HRV,HRV_0158,2022-11-30 18:30:34
,wl-rdm,86,271445,0.0-6.78-0.78,0.0,87.0,,,,,,,[],,,,,,87.9,1.0,i,1.0,True,839.8000000119209,51.0,60.0,40.0,False,,246.20027759979598,[],"[674, 379]",ColorTask,31.0,79.0,,,HRV,HRV_0158,2022-11-30 18:30:34
,wl-rdm,87,273943,0.0-6.79-0.79,0.0,88.0,,,,,,,[],,,,,,56.4,0.0,u,0.0,True,1071.2999999523163,65.0,60.0,40.0,False,,344.09360286656073,[],"[674, 379]",ColorTask,32.0,80.0,,,HRV,HRV_0158,2022-11-30 18:30:34
,wl-rdm,88,276591,0.0-6.80-0.80,0.0,89.0,,,,,,,[],,,,,,50.0,0.0,u,0.0,True,1184.800000011921,72.0,60.0,40.0,False,,398.64682488012323,[],"[674, 379]",ColorTask,33.0,81.0,,,HRV,HRV_0158,2022-11-30 18:30:34
,wl-rdm,89,278689,0.0-6.81-0.81,0.0,90.0,,,,,,,[],,,,,,87.9,0.0,u,0.0,True,764.0999999642372,46.0,60.0,40.0,False,,267.74316828754274,[],"[674, 379]",ColorTask,34.0,82.0,,,HRV,HRV_0158,2022-11-30 18:30:34
,wl-rdm,90,281186,0.0-6.82-0.82,0.0,91.0,,,,,,,[],,,,,,50.0,1.0,u,0.0,False,1041.7999999523163,63.0,60.0,40.0,False,,379.5040586758656,[],"[674, 379]",ColorTask,33.0,83.0,,,HRV,HRV_0158,2022-11-30 18:30:34
,wl-rdm,91,284201,0.0-6.83-0.83,0.0,92.0,,,,,,,[],,,,,,56.4,0.0,u,0.0,True,1708.3999999761581,103.0,60.0,40.0,False,,222.69854138213725,[],"[674, 379]",ColorTask,34.0,84.0,,,HRV,HRV_0158,2022-11-30 18:30:34
,wl-rdm,92,286316,0.0-6.84-0.84,0.0,93.0,,,,,,,[],,,,,,87.9,1.0,i,1.0,True,676.0,41.0,60.0,40.0,False,,354.2505729900776,[],"[674, 379]",ColorTask,35.0,85.0,,,HRV,HRV_0158,2022-11-30 18:30:34
,wl-rdm,93,289246,0.0-6.85-0.85,0.0,94.0,,,,,,,[],,,,,,73.6,0.0,u,0.0,True,1483.5,90.0,60.0,40.0,False,,358.80335166093664,[],"[674, 379]",ColorTask,36.0,86.0,,,HRV,HRV_0158,2022-11-30 18:30:34
,wl-rdm,94,291411,0.0-6.86-0.86,0.0,95.0,,,,,,,[],,,,,,87.9,1.0,i,1.0,True,734.8000000119209,45.0,60.0,40.0,False,,338.1988780925218,[],"[674, 379]",ColorTask,37.0,87.0,,,HRV,HRV_0158,2022-11-30 18:30:34
,wl-rdm,95,294059,0.0-6.87-0.87,0.0,96.0,,,,,,,[],,,,,,62.5,1.0,u,0.0,False,1209.4000000357628,73.0,60.0,40.0,False,,380.5744780949708,[],"[674, 379]",ColorTask,36.0,88.0,,,HRV,HRV_0158,2022-11-30 18:30:34
,wl-rdm,96,296490,0.0-6.88-0.88,0.0,97.0,,,,,,,[],,,,,,87.9,0.0,u,0.0,True,1112.4999999403954,67.0,60.0,40.0,False,,246.87415380374156,[],"[674, 379]",ColorTask,37.0,89.0,,,HRV,HRV_0158,2022-11-30 18:30:34
,wl-rdm,97,299238,0.0-6.89-0.89,0.0,98.0,,,,,,,[],,,,,,50.0,1.0,i,1.0,True,1380.699999988079,83.0,60.0,40.0,False,,299.51431959778216,[],"[674, 379]",ColorTask,38.0,90.0,,,HRV,HRV_0158,2022-11-30 18:30:34
,wl-rdm,98,301619,0.0-6.90-0.90,0.0,99.0,,,,,,,[],,,,,,73.6,1.0,i,1.0,True,954.4000000357628,58.0,60.0,40.0,False,,348.9290883525149,[],"[674, 379]",ColorTask,39.0,91.0,,,HRV,HRV_0158,2022-11-30 18:30:34
,wl-rdm,99,304166,0.0-6.91-0.91,0.0,100.0,,,,,,,[],,,,,,53.2,0.0,i,1.0,False,1195.9000000357628,72.0,60.0,40.0,False,,276.1299352510176,[],"[674, 379]",ColorTask,38.0,92.0,,,HRV,HRV_0158,2022-11-30 18:30:34
,wl-rdm,100,306248,0.0-6.92-0.92,0.0,101.0,,,,,,,[],,,,,,87.9,1.0,i,1.0,True,797.6000000238419,48.0,60.0,40.0,False,,201.5139638126109,[],"[674, 379]",ColorTask,39.0,93.0,,,HRV,HRV_0158,2022-11-30 18:30:34
,wl-rdm,101,308597,0.0-6.93-0.93,0.0,102.0,,,,,,,[],,,,,,73.6,0.0,u,0.0,True,910.2000000476837,55.0,60.0,40.0,False,,357.7660434229354,[],"[674, 379]",ColorTask,40.0,94.0,,,HRV,HRV_0158,2022-11-30 18:30:34
,wl-rdm,102,310795,0.0-6.94-0.94,0.0,103.0,,,,,,,[],,,,,,62.5,0.0,i,1.0,False,896.7999999523163,54.0,60.0,40.0,False,,248.53851841443944,[],"[674, 379]",ColorTask,39.0,95.0,,,HRV,HRV_0158,2022-11-30 18:30:34
,wl-rdm,103,313825,0.0-6.95-0.95,0.0,104.0,,,,,,,[],,,,,,50.0,1.0,i,1.0,True,1602.4000000357628,97.0,60.0,40.0,False,,354.329664110292,[],"[674, 379]",ColorTask,40.0,96.0,,,HRV,HRV_0158,2022-11-30 18:30:34
,wl-rdm,104,316473,0.0-6.96-0.96,0.0,105.0,,,,,,,[],,,,,,50.0,0.0,u,0.0,True,1201.699999988079,73.0,60.0,40.0,False,,366.493650174756,[],"[674, 379]",ColorTask,41.0,97.0,,,HRV,HRV_0158,2022-11-30 18:30:34
,wl-rdm,105,318788,0.0-6.97-0.97,0.0,106.0,,,,,,,[],,,,,,87.9,0.0,u,0.0,True,845.8999999761581,51.0,60.0,40.0,False,,393.42953956490123,[],"[674, 379]",ColorTask,42.0,98.0,,,HRV,HRV_0158,2022-11-30 18:30:34
,wl-rdm,106,321301,0.0-6.98-0.98,0.0,107.0,,,,,,,[],,,,,,56.4,0.0,u,0.0,True,1132.6000000238419,68.0,60.0,40.0,False,,302.86134534872184,[],"[674, 379]",ColorTask,43.0,99.0,,,HRV,HRV_0158,2022-11-30 18:30:34
,wl-rdm,107,323750,0.0-6.99-0.99,0.0,108.0,,,,,,,[],,,,,,56.4,0.0,i,1.0,False,1164.4000000357628,70.0,60.0,40.0,False,,204.22113299585396,[],"[674, 379]",ColorTask,42.0,100.0,,,HRV,HRV_0158,2022-11-30 18:30:34
,wl-rdm,108,326147,0.0-6.100-0.100,0.0,109.0,,,,,,,[],,,,,,62.5,1.0,i,1.0,True,1037.6000000238419,63.0,60.0,40.0,False,,275.91920927648295,[],"[674, 379]",ColorTask,43.0,101.0,,,HRV,HRV_0158,2022-11-30 18:30:34
,wl-rdm,109,328529,0.0-6.101-0.101,0.0,110.0,,,,,,,[],,,,,,73.6,0.0,u,0.0,True,1095.9999999403954,66.0,60.0,40.0,False,,203.73854344130203,[],"[674, 379]",ColorTask,44.0,102.0,,,HRV,HRV_0158,2022-11-30 18:30:34
,wl-rdm,110,330694,0.0-6.102-0.102,0.0,111.0,,,,,,,[],,,,,,87.9,1.0,i,1.0,True,784.5999999642372,48.0,60.0,40.0,False,,288.27837439591764,[],"[674, 379]",ColorTask,45.0,103.0,,,HRV,HRV_0158,2022-11-30 18:30:34
,wl-rdm,111,332875,0.0-6.103-0.103,0.0,112.0,,,,,,,[],,,,,,87.9,1.0,i,1.0,True,738.8000000119209,45.0,60.0,40.0,False,,362.87252956824153,[],"[674, 379]",ColorTask,46.0,104.0,,,HRV,HRV_0158,2022-11-30 18:30:34
,wl-rdm,112,335623,0.0-6.104-0.104,0.0,113.0,,,,,,,[],,,,,,53.2,1.0,i,1.0,True,1425.1000000238419,86.0,60.0,40.0,False,,243.44523331346494,[],"[674, 379]",ColorTask,47.0,105.0,,,HRV,HRV_0158,2022-11-30 18:30:34
,wl-rdm,113,338587,0.0-6.105-0.105,0.0,114.0,,,,,,,[],,,,,,53.2,0.0,i,1.0,False,1567.0,95.0,60.0,40.0,False,,306.0700539029662,[],"[674, 379]",ColorTask,46.0,106.0,,,HRV,HRV_0158,2022-11-30 18:30:34
,wl-rdm,114,340801,0.0-6.106-0.106,0.0,115.0,,,,,,,[],,,,,,73.6,1.0,i,1.0,True,787.1000000238419,48.0,60.0,40.0,False,,334.3257101337749,[],"[674, 379]",ColorTask,47.0,107.0,,,HRV,HRV_0158,2022-11-30 18:30:34
,wl-rdm,115,343516,0.0-6.107-0.107,0.0,116.0,,,,,,,[],,,,,,62.5,1.0,u,0.0,False,1324.8999999761581,80.0,60.0,40.0,False,,308.6982785864908,[],"[674, 379]",ColorTask,46.0,108.0,,,HRV,HRV_0158,2022-11-30 18:30:34
,wl-html-keyboard-response,116,353518,0.0-7.0-0.0,1.0,117.0,,,,,,,,7989.199999988079,1.0,0,,,,,,,,,,,,,,,,,,,,,,HRV,HRV_0158,2022-11-30 18:30:34
,wl-rdm,117,356421,0.0-8.0-0.0,1.0,118.0,,,,,,,[],,,,,,87.9,1.0,i,1.0,True,1529.5,92.0,60.0,40.0,False,,309.1239728001525,[],"[674, 379]",ColorTask,47.0,1.0,,,HRV,HRV_0158,2022-11-30 18:30:34
,wl-rdm,118,358720,0.0-8.1-0.1,1.0,119.0,,,,,,,[],,,,,,87.9,0.0,u,0.0,True,960.3999999761581,58.0,60.0,40.0,False,,262.1072023182296,[],"[674, 379]",ColorTask,48.0,2.0,,,HRV,HRV_0158,2022-11-30 18:30:34
,wl-rdm,119,361267,0.0-8.2-0.2,1.0,120.0,,,,,,,[],,,,,,56.4,0.0,i,1.0,False,1207.0999999642372,73.0,60.0,40.0,False,,258.8810039772345,[],"[674, 379]",ColorTask,47.0,3.0,,,HRV,HRV_0158,2022-11-30 18:30:34
,wl-rdm,120,363948,0.0-8.3-0.3,1.0,121.0,,,,,,,[],,,,,,73.6,0.0,u,0.0,True,1218.5999999642372,74.0,60.0,40.0,False,,376.3930950725402,[],"[674, 379]",ColorTask,48.0,4.0,,,HRV,HRV_0158,2022-11-30 18:30:34
,wl-rdm,121,366213,0.0-8.4-0.4,1.0,122.0,,,,,,,[],,,,,,73.6,1.0,i,1.0,True,799.6000000238419,48.0,60.0,40.0,False,,386.34747481800713,[],"[674, 379]",ColorTask,49.0,5.0,,,HRV,HRV_0158,2022-11-30 18:30:34
,wl-rdm,122,369277,0.0-8.5-0.5,1.0,123.0,,,,,,,[],,,,,,56.4,0.0,i,1.0,False,1654.0000000596046,100.0,60.0,40.0,False,,328.9479197582064,[],"[674, 379]",ColorTask,48.0,6.0,,,HRV,HRV_0158,2022-11-30 18:30:34
,wl-rdm,123,372057,0.0-8.6-0.6,1.0,124.0,,,,,,,[],,,,,,56.4,0.0,u,0.0,True,1409.199999988079,85.0,60.0,40.0,False,,294.8844884972392,[],"[674, 379]",ColorTask,49.0,7.0,,,HRV,HRV_0158,2022-11-30 18:30:34
,wl-rdm,124,374373,0.0-8.7-0.7,1.0,125.0,,,,,,,[],,,,,,62.5,1.0,i,1.0,True,952.0999999642372,58.0,60.0,40.0,False,,269.87977075088816,[],"[674, 379]",ColorTask,50.0,8.0,,,HRV,HRV_0158,2022-11-30 18:30:34
,wl-rdm,125,376820,0.0-8.8-0.8,1.0,126.0,,,,,,,[],,,,,,53.2,0.0,u,0.0,True,1042.800000011921,63.0,60.0,40.0,False,,324.2342002777322,[],"[674, 379]",ColorTask,51.0,9.0,,,HRV,HRV_0158,2022-11-30 18:30:34
,wl-rdm,126,378985,0.0-8.9-0.9,1.0,127.0,,,,,,,[],,,,,,62.5,1.0,i,1.0,True,814.9999999403954,49.0,60.0,40.0,False,,278.4095019334821,[],"[674, 379]",ColorTask,52.0,10.0,,,HRV,HRV_0158,2022-11-30 18:30:34
,wl-rdm,127,381316,0.0-8.10-0.10,1.0,128.0,,,,,,,[],,,,,,73.6,1.0,i,1.0,True,1000.5,61.0,60.0,40.0,False,,243.92489760711,[],"[674, 379]",ColorTask,53.0,11.0,,,HRV,HRV_0158,2022-11-30 18:30:34
,wl-rdm,128,384463,0.0-8.11-0.11,1.0,129.0,,,,,,,[],,,,,,56.4,1.0,u,0.0,False,1848.800000011921,112.0,60.0,40.0,False,,216.58417829684947,[],"[674, 379]",ColorTask,52.0,12.0,,,HRV,HRV_0158,2022-11-30 18:30:34
,wl-rdm,129,386861,0.0-8.12-0.12,1.0,130.0,,,,,,,[],,,,,,56.4,1.0,i,1.0,True,964.1000000238419,58.0,60.0,40.0,False,,376.1548067031342,[],"[674, 379]",ColorTask,53.0,13.0,,,HRV,HRV_0158,2022-11-30 18:30:34
,wl-rdm,130,390025,0.0-8.13-0.13,1.0,131.0,,,,,,,[],,,,,,53.2,1.0,i,1.0,True,1858.5,112.0,60.0,40.0,False,,238.72985027591378,[],"[674, 379]",ColorTask,54.0,14.0,,,HRV,HRV_0158,2022-11-30 18:30:34
,wl-rdm,131,392857,0.0-8.14-0.14,1.0,132.0,,,,,,,[],,,,,,50.0,1.0,i,1.0,True,1514.8999999761581,91.0,60.0,40.0,False,,247.5107279583765,[],"[674, 379]",ColorTask,55.0,15.0,,,HRV,HRV_0158,2022-11-30 18:30:34
,wl-rdm,132,395287,0.0-8.15-0.15,1.0,133.0,,,,,,,[],,,,,,53.2,1.0,u,0.0,False,955.0000000596046,58.0,60.0,40.0,False,,384.25352532440365,[],"[674, 379]",ColorTask,54.0,16.0,,,HRV,HRV_0158,2022-11-30 18:30:34
,wl-rdm,133,398035,0.0-8.16-0.16,1.0,134.0,,,,,,,[],,,,,,50.0,0.0,i,1.0,False,1370.9000000357628,83.0,60.0,40.0,False,,295.4785260183143,[],"[674, 379]",ColorTask,53.0,17.0,,,HRV,HRV_0158,2022-11-30 18:30:34
,wl-rdm,134,401198,0.0-8.17-0.17,1.0,135.0,,,,,,,[],,,,,,56.4,0.0,u,0.0,True,1876.800000011921,113.0,60.0,40.0,False,,203.17135444446228,[],"[674, 379]",ColorTask,54.0,18.0,,,HRV,HRV_0158,2022-11-30 18:30:34
,wl-rdm,135,403330,0.0-8.18-0.18,1.0,136.0,,,,,,,[],,,,,,62.5,1.0,i,1.0,True,817.0999999642372,50.0,60.0,40.0,False,,232.33015389852645,[],"[674, 379]",ColorTask,55.0,19.0,,,HRV,HRV_0158,2022-11-30 18:30:34
,wl-rdm,136,405678,0.0-8.19-0.19,1.0,137.0,,,,,,,[],,,,,,87.9,0.0,u,0.0,True,915.0,55.0,60.0,40.0,False,,376.87693701560045,[],"[674, 379]",ColorTask,56.0,20.0,,,HRV,HRV_0158,2022-11-30 18:30:34
,wl-rdm,137,408093,0.0-8.20-0.20,1.0,138.0,,,,,,,[],,,,,,50.0,1.0,i,1.0,True,1074.8999999761581,65.0,60.0,40.0,False,,254.20934351442855,[],"[674, 379]",ColorTask,57.0,21.0,,,HRV,HRV_0158,2022-11-30 18:30:34
,wl-rdm,138,410774,0.0-8.21-0.21,1.0,139.0,,,,,,,[],,,,,,62.5,0.0,u,0.0,True,1283.9000000357628,78.0,60.0,40.0,False,,313.73572378486324,[],"[674, 379]",ColorTask,58.0,22.0,,,HRV,HRV_0158,2022-11-30 18:30:34
,wl-rdm,139,413255,0.0-8.22-0.22,1.0,140.0,,,,,,,[],,,,,,56.4,0.0,i,1.0,False,1209.300000011921,73.0,60.0,40.0,False,,207.93485852187675,[],"[674, 379]",ColorTask,57.0,23.0,,,HRV,HRV_0158,2022-11-30 18:30:34
,wl-rdm,140,415919,0.0-8.23-0.23,1.0,141.0,,,,,,,[],,,,,,87.9,0.0,u,0.0,True,1343.8999999761581,81.0,60.0,40.0,False,,245.93732803510656,[],"[674, 379]",ColorTask,58.0,24.0,,,HRV,HRV_0158,2022-11-30 18:30:34
,wl-rdm,141,418434,0.0-8.24-0.24,1.0,142.0,,,,,,,[],,,,,,56.4,1.0,i,1.0,True,1150.800000011921,70.0,60.0,40.0,False,,274.7927216624414,[],"[674, 379]",ColorTask,59.0,25.0,,,HRV,HRV_0158,2022-11-30 18:30:34
,wl-rdm,142,420998,0.0-8.25-0.25,1.0,143.0,,,,,,,[],,,,,,73.6,0.0,u,0.0,True,1219.800000011921,74.0,60.0,40.0,False,,253.7944334349291,[],"[674, 379]",ColorTask,60.0,26.0,,,HRV,HRV_0158,2022-11-30 18:30:34
,wl-rdm,143,423529,0.0-8.26-0.26,1.0,144.0,,,,,,,[],,,,,,53.2,1.0,u,0.0,False,1122.1000000238419,68.0,60.0,40.0,False,,317.15983247211096,[],"[674, 379]",ColorTask,59.0,27.0,,,HRV,HRV_0158,2022-11-30 18:30:34
,wl-rdm,144,425794,0.0-8.27-0.27,1.0,145.0,,,,,,,[],,,,,,87.9,1.0,i,1.0,True,817.6000000238419,50.0,60.0,40.0,False,,364.2869584630829,[],"[674, 379]",ColorTask,60.0,28.0,,,HRV,HRV_0158,2022-11-30 18:30:34
,wl-rdm,145,428658,0.0-8.28-0.28,1.0,146.0,,,,,,,[],,,,,,53.2,1.0,i,1.0,True,1535.0,93.0,60.0,40.0,False,,245.36347272167495,[],"[674, 379]",ColorTask,61.0,29.0,,,HRV,HRV_0158,2022-11-30 18:30:34
,wl-rdm,146,431539,0.0-8.29-0.29,1.0,147.0,,,,,,,[],,,,,,56.4,0.0,u,0.0,True,1455.2000000476837,88.0,60.0,40.0,False,,343.2794146066707,[],"[674, 379]",ColorTask,62.0,30.0,,,HRV,HRV_0158,2022-11-30 18:30:34
,wl-rdm,147,433920,0.0-8.30-0.30,1.0,148.0,,,,,,,[],,,,,,50.0,1.0,i,1.0,True,928.2000000476837,56.0,60.0,40.0,False,,379.5631225523347,[],"[674, 379]",ColorTask,63.0,31.0,,,HRV,HRV_0158,2022-11-30 18:30:34
,wl-rdm,148,436218,0.0-8.31-0.31,1.0,149.0,,,,,,,[],,,,,,87.9,0.0,u,0.0,True,930.5999999642372,56.0,60.0,40.0,False,,299.17694725912327,[],"[674, 379]",ColorTask,64.0,32.0,,,HRV,HRV_0158,2022-11-30 18:30:34
,wl-rdm,149,438799,0.0-8.32-0.32,1.0,150.0,,,,,,,[],,,,,,73.6,0.0,u,0.0,True,1236.699999988079,75.0,60.0,40.0,False,,262.3487560770993,[],"[674, 379]",ColorTask,65.0,33.0,,,HRV,HRV_0158,2022-11-30 18:30:34
,wl-rdm,150,442113,0.0-8.33-0.33,1.0,151.0,,,,,,,[],,,,,,62.5,1.0,i,1.0,True,1929.7999999523163,116.0,60.0,40.0,False,,315.3918968216706,[],"[674, 379]",ColorTask,66.0,34.0,,,HRV,HRV_0158,2022-11-30 18:30:34
,wl-rdm,151,444511,0.0-8.34-0.34,1.0,152.0,,,,,,,[],,,,,,87.9,1.0,i,1.0,True,1057.0,64.0,60.0,40.0,False,,257.4510328944606,[],"[674, 379]",ColorTask,67.0,35.0,,,HRV,HRV_0158,2022-11-30 18:30:34
,wl-rdm,152,447075,0.0-8.35-0.35,1.0,153.0,,,,,,,[],,,,,,87.9,0.0,u,0.0,True,1253.3999999165535,76.0,60.0,40.0,False,,225.40921140686982,[],"[674, 379]",ColorTask,68.0,36.0,,,HRV,HRV_0158,2022-11-30 18:30:34
,wl-rdm,153,450955,0.0-8.36-0.36,1.0,154.0,,,,,,,[],,,,,,53.2,1.0,i,1.0,True,2487.199999988079,150.0,60.0,40.0,False,,321.9090130276426,[],"[674, 379]",ColorTask,69.0,37.0,,,HRV,HRV_0158,2022-11-30 18:30:34
,wl-rdm,154,453370,0.0-8.37-0.37,1.0,155.0,,,,,,,[],,,,,,87.9,1.0,i,1.0,True,980.8999999761581,59.0,60.0,40.0,False,,357.68637019488233,[],"[674, 379]",ColorTask,70.0,38.0,,,HRV,HRV_0158,2022-11-30 18:30:34
,wl-rdm,155,457450,0.0-8.38-0.38,1.0,156.0,,,,,,,[],,,,,,50.0,0.0,u,0.0,True,2782.5,168.0,60.0,40.0,False,,206.7404050130436,[],"[674, 379]",ColorTask,71.0,39.0,,,HRV,HRV_0158,2022-11-30 18:30:34
,wl-rdm,156,459831,0.0-8.39-0.39,1.0,157.0,,,,,,,[],,,,,,73.6,0.0,u,0.0,True,1038.699999988079,63.0,60.0,40.0,False,,263.61437957921294,[],"[674, 379]",ColorTask,72.0,40.0,,,HRV,HRV_0158,2022-11-30 18:30:34
,wl-rdm,157,463162,0.0-8.40-0.40,1.0,158.0,,,,,,,[],,,,,,53.2,1.0,i,1.0,True,1866.8999999761581,113.0,60.0,40.0,False,,376.8720141101552,[],"[674, 379]",ColorTask,73.0,41.0,,,HRV,HRV_0158,2022-11-30 18:30:34
,wl-rdm,158,465343,0.0-8.41-0.41,1.0,159.0,,,,,,,[],,,,,,73.6,1.0,i,1.0,True,854.0,52.0,60.0,40.0,False,,235.3483911990112,[],"[674, 379]",ColorTask,74.0,42.0,,,HRV,HRV_0158,2022-11-30 18:30:34
,wl-rdm,159,468390,0.0-8.42-0.42,1.0,160.0,,,,,,,[],,,,,,56.4,1.0,u,0.0,False,1681.3999999761581,101.0,60.0,40.0,False,,297.10814885544175,[],"[674, 379]",ColorTask,73.0,43.0,,,HRV,HRV_0158,2022-11-30 18:30:34
,wl-rdm,160,471737,0.0-8.43-0.43,1.0,161.0,,,,,,,[],,,,,,56.4,0.0,u,0.0,True,2028.6000000238419,122.0,60.0,40.0,False,,249.08910823713606,[],"[674, 379]",ColorTask,74.0,44.0,,,HRV,HRV_0158,2022-11-30 18:30:34
,wl-rdm,161,474435,0.0-8.44-0.44,1.0,162.0,,,,,,,[],,,,,,62.5,1.0,i,1.0,True,1320.7000000476837,80.0,60.0,40.0,False,,285.21682088389605,[],"[674, 379]",ColorTask,75.0,45.0,,,HRV,HRV_0158,2022-11-30 18:30:34
,wl-rdm,162,477216,0.0-8.45-0.45,1.0,163.0,,,,,,,[],,,,,,53.2,0.0,i,1.0,False,1456.5,88.0,60.0,40.0,False,,247.58789788788607,[],"[674, 379]",ColorTask,74.0,46.0,,,HRV,HRV_0158,2022-11-30 18:30:34
,wl-rdm,163,480413,0.0-8.46-0.46,1.0,164.0,,,,,,,[],,,,,,50.0,1.0,u,0.0,False,1722.8999999761581,104.0,60.0,40.0,False,,387.6856454120401,[],"[674, 379]",ColorTask,73.0,47.0,,,HRV,HRV_0158,2022-11-30 18:30:34
,wl-rdm,164,482678,0.0-8.47-0.47,1.0,165.0,,,,,,,[],,,,,,53.2,1.0,i,1.0,True,918.2999999523163,56.0,60.0,40.0,False,,252.66053573344084,[],"[674, 379]",ColorTask,74.0,48.0,,,HRV,HRV_0158,2022-11-30 18:30:34
,wl-rdm,165,486075,0.0-8.48-0.48,1.0,166.0,,,,,,,[],,,,,,53.2,0.0,u,0.0,True,2038.5999999642372,123.0,60.0,40.0,False,,278.8405461161092,[],"[674, 379]",ColorTask,75.0,49.0,,,HRV,HRV_0158,2022-11-30 18:30:34
,wl-rdm,166,489272,0.0-8.49-0.49,1.0,167.0,,,,,,,[],,,,,,50.0,1.0,u,0.0,False,1891.7000000476837,114.0,60.0,40.0,False,,225.7216003803125,[],"[674, 379]",ColorTask,74.0,50.0,,,HRV,HRV_0158,2022-11-30 18:30:34
,wl-rdm,167,492885,0.0-8.50-0.50,1.0,168.0,,,,,,,[],,,,,,62.5,0.0,u,0.0,True,2239.5,135.0,60.0,40.0,False,,296.79571212299476,[],"[674, 379]",ColorTask,75.0,51.0,,,HRV,HRV_0158,2022-11-30 18:30:34
,wl-rdm,168,495549,0.0-8.51-0.51,1.0,169.0,,,,,,,[],,,,,,50.0,0.0,i,1.0,False,1319.6000000238419,80.0,60.0,40.0,False,,260.24303284672726,[],"[674, 379]",ColorTask,74.0,52.0,,,HRV,HRV_0158,2022-11-30 18:30:34
,wl-rdm,169,498247,0.0-8.52-0.52,1.0,170.0,,,,,,,[],,,,,,50.0,0.0,i,1.0,False,1407.2999999523163,85.0,60.0,40.0,False,,201.0367364516061,[],"[674, 379]",ColorTask,73.0,53.0,,,HRV,HRV_0158,2022-11-30 18:30:34
,wl-rdm,170,500529,0.0-8.53-0.53,1.0,171.0,,,,,,,[],,,,,,87.9,0.0,u,0.0,True,950.7000000476837,58.0,60.0,40.0,False,,247.3613032244333,[],"[674, 379]",ColorTask,74.0,54.0,,,HRV,HRV_0158,2022-11-30 18:30:34
,wl-rdm,171,503592,0.0-8.54-0.54,1.0,172.0,,,,,,,[],,,,,,50.0,1.0,u,0.0,False,1756.6000000238419,106.0,60.0,40.0,False,,229.96291947284323,[],"[674, 379]",ColorTask,73.0,55.0,,,HRV,HRV_0158,2022-11-30 18:30:34
,wl-rdm,172,506507,0.0-8.55-0.55,1.0,173.0,,,,,,,[],,,,,,73.6,0.0,u,0.0,True,1532.699999988079,93.0,60.0,40.0,False,,284.1902764528281,[],"[674, 379]",ColorTask,74.0,56.0,,,HRV,HRV_0158,2022-11-30 18:30:34
,wl-rdm,173,508688,0.0-8.56-0.56,1.0,174.0,,,,,,,[],,,,,,87.9,1.0,i,1.0,True,765.3999999761581,46.0,60.0,40.0,False,,334.54469149866446,[],"[674, 379]",ColorTask,75.0,57.0,,,HRV,HRV_0158,2022-11-30 18:30:34
,wl-rdm,174,512285,0.0-8.57-0.57,1.0,175.0,,,,,,,[],,,,,,53.2,0.0,u,0.0,True,2275.199999988079,137.0,60.0,40.0,False,,236.46900011211,[],"[674, 379]",ColorTask,76.0,58.0,,,HRV,HRV_0158,2022-11-30 18:30:34
,wl-rdm,175,515482,0.0-8.58-0.58,1.0,176.0,,,,,,,[],,,,,,56.4,1.0,i,1.0,True,1851.800000011921,112.0,60.0,40.0,False,,261.8488722554545,[],"[674, 379]",ColorTask,77.0,59.0,,,HRV,HRV_0158,2022-11-30 18:30:34
,wl-rdm,176,518663,0.0-8.59-0.59,1.0,177.0,,,,,,,[],,,,,,56.4,1.0,i,1.0,True,1765.6000000238419,106.0,60.0,40.0,False,,337.1588032417472,[],"[674, 379]",ColorTask,78.0,60.0,,,HRV,HRV_0158,2022-11-30 18:30:34
,wl-rdm,177,520911,0.0-8.60-0.60,1.0,178.0,,,,,,,[],,,,,,87.9,1.0,i,1.0,True,867.2000000476837,53.0,60.0,40.0,False,,286.77816625491425,[],"[674, 379]",ColorTask,79.0,61.0,,,HRV,HRV_0158,2022-11-30 18:30:34
,wl-rdm,178,523975,0.0-8.61-0.61,1.0,179.0,,,,,,,[],,,,,,73.6,0.0,u,0.0,True,1748.8999999761581,105.0,60.0,40.0,False,,236.39929253063409,[],"[674, 379]",ColorTask,80.0,62.0,,,HRV,HRV_0158,2022-11-30 18:30:34
,wl-rdm,179,527755,0.0-8.62-0.62,1.0,180.0,,,,,,,[],,,,,,53.2,0.0,u,0.0,True,2318.900000035763,140.0,60.0,40.0,False,,377.79701197260863,[],"[674, 379]",ColorTask,81.0,63.0,,,HRV,HRV_0158,2022-11-30 18:30:34
,wl-rdm,180,531519,0.0-8.63-0.63,1.0,181.0,,,,,,,[],,,,,,62.5,0.0,u,0.0,True,2394.300000011921,144.0,60.0,40.0,False,,289.1282021827002,[],"[674, 379]",ColorTask,82.0,64.0,,,HRV,HRV_0158,2022-11-30 18:30:34
,wl-rdm,181,535381,0.0-8.64-0.64,1.0,182.0,,,,,,,[],,,,,,62.5,0.0,u,0.0,True,2514.800000011921,152.0,60.0,40.0,False,,250.64689339143834,[],"[674, 379]",ColorTask,83.0,65.0,,,HRV,HRV_0158,2022-11-30 18:30:34
,wl-rdm,182,538363,0.0-8.65-0.65,1.0,183.0,,,,,,,[],,,,,,50.0,0.0,i,1.0,False,1680.5,101.0,60.0,40.0,False,,231.28767874936622,[],"[674, 379]",ColorTask,82.0,66.0,,,HRV,HRV_0158,2022-11-30 18:30:34
,wl-rdm,183,540544,0.0-8.66-0.66,1.0,184.0,,,,,,,[],,,,,,62.5,1.0,i,1.0,True,843.0,51.0,60.0,40.0,False,,255.28124429539145,[],"[674, 379]",ColorTask,83.0,67.0,,,HRV,HRV_0158,2022-11-30 18:30:34
,wl-rdm,184,543924,0.0-8.67-0.67,1.0,185.0,,,,,,,[],,,,,,62.5,0.0,u,0.0,True,2033.6000000238419,123.0,60.0,40.0,False,,262.3846068701365,[],"[674, 379]",ColorTask,84.0,68.0,,,HRV,HRV_0158,2022-11-30 18:30:34
,wl-rdm,185,546439,0.0-8.68-0.68,1.0,186.0,,,,,,,[],,,,,,73.6,1.0,i,1.0,True,1087.9000000357628,66.0,60.0,40.0,False,,359.86150838930274,[],"[674, 379]",ColorTask,85.0,69.0,,,HRV,HRV_0158,2022-11-30 18:30:34
,wl-rdm,186,550752,0.0-8.69-0.69,1.0,187.0,,,,,,,[],,,,,,53.2,0.0,u,0.0,True,2850.0,172.0,60.0,40.0,False,,368.4105162521483,[],"[674, 379]",ColorTask,86.0,70.0,,,HRV,HRV_0158,2022-11-30 18:30:34
,wl-rdm,187,554865,0.0-8.70-0.70,1.0,188.0,,,,,,,[],,,,,,53.2,0.0,u,0.0,True,2788.0,168.0,60.0,40.0,False,,248.54061360770658,[],"[674, 379]",ColorTask,87.0,71.0,,,HRV,HRV_0158,2022-11-30 18:30:34
,wl-rdm,188,558312,0.0-8.71-0.71,1.0,189.0,,,,,,,[],,,,,,73.6,0.0,u,0.0,True,2109.399999976158,127.0,60.0,40.0,False,,257.78581955679323,[],"[674, 379]",ColorTask,88.0,72.0,,,HRV,HRV_0158,2022-11-30 18:30:34
,wl-rdm,189,560710,0.0-8.72-0.72,1.0,190.0,,,,,,,[],,,,,,73.6,1.0,i,1.0,True,1113.699999988079,67.0,60.0,40.0,False,,205.6038787097698,[],"[674, 379]",ColorTask,89.0,73.0,,,HRV,HRV_0158,2022-11-30 18:30:34
,wl-rdm,190,563025,0.0-8.73-0.73,1.0,191.0,,,,,,,[],,,,,,87.9,1.0,i,1.0,True,1020.8000000119209,62.0,60.0,40.0,False,,218.4864079659391,[],"[674, 379]",ColorTask,90.0,74.0,,,HRV,HRV_0158,2022-11-30 18:30:34
,wl-rdm,191,565439,0.0-8.74-0.74,1.0,192.0,,,,,,,[],,,,,,87.9,0.0,u,0.0,True,958.1999999880791,58.0,60.0,40.0,False,,377.4483084791782,[],"[674, 379]",ColorTask,91.0,75.0,,,HRV,HRV_0158,2022-11-30 18:30:34
,wl-rdm,192,567637,0.0-8.75-0.75,1.0,193.0,,,,,,,[],,,,,,87.9,0.0,u,0.0,True,847.8999999761581,51.0,60.0,40.0,False,,267.22865815933085,[],"[674, 379]",ColorTask,92.0,76.0,,,HRV,HRV_0158,2022-11-30 18:30:34
,wl-rdm,193,569786,0.0-8.76-0.76,1.0,194.0,,,,,,,[],,,,,,87.9,1.0,i,1.0,True,854.8999999761581,52.0,60.0,40.0,False,,211.26654750116066,[],"[674, 379]",ColorTask,93.0,77.0,,,HRV,HRV_0158,2022-11-30 18:30:34
,wl-rdm,194,572766,0.0-8.77-0.77,1.0,195.0,,,,,,,[],,,,,,53.2,1.0,i,1.0,True,1614.0,97.0,60.0,40.0,False,,283.8734692536709,[],"[674, 379]",ColorTask,94.0,78.0,,,HRV,HRV_0158,2022-11-30 18:30:34
,wl-rdm,195,574981,0.0-8.78-0.78,1.0,196.0,,,,,,,[],,,,,,87.9,1.0,i,1.0,True,815.0999999642372,49.0,60.0,40.0,False,,324.26666693175065,[],"[674, 379]",ColorTask,95.0,79.0,,,HRV,HRV_0158,2022-11-30 18:30:34
,wl-rdm,196,578961,0.0-8.79-0.79,1.0,197.0,,,,,,,[],,,,,,62.5,1.0,i,1.0,True,2571.1999999284744,155.0,60.0,40.0,False,,318.87227126316265,[],"[674, 379]",ColorTask,96.0,80.0,,,HRV,HRV_0158,2022-11-30 18:30:34
,wl-rdm,197,582191,0.0-8.80-0.80,1.0,198.0,,,,,,,[],,,,,,56.4,0.0,u,0.0,True,1882.0999999642372,113.0,60.0,40.0,False,,281.1966056261532,[],"[674, 379]",ColorTask,97.0,81.0,,,HRV,HRV_0158,2022-11-30 18:30:34
,wl-rdm,198,584489,0.0-8.81-0.81,1.0,199.0,,,,,,,[],,,,,,73.6,1.0,i,1.0,True,968.7000000476837,59.0,60.0,40.0,False,,248.18015534069238,[],"[674, 379]",ColorTask,98.0,82.0,,,HRV,HRV_0158,2022-11-30 18:30:34
,wl-rdm,199,587953,0.0-8.82-0.82,1.0,200.0,,,,,,,[],,,,,,56.4,1.0,i,1.0,True,2072.399999976158,125.0,60.0,40.0,False,,324.4942722428717,[],"[674, 379]",ColorTask,99.0,83.0,,,HRV,HRV_0158,2022-11-30 18:30:34
,wl-rdm,200,591733,0.0-8.83-0.83,1.0,201.0,,,,,,,[],,,,,,53.2,0.0,u,0.0,True,2373.8999999165535,143.0,60.0,40.0,False,,326.3758281954995,[],"[674, 379]",ColorTask,100.0,84.0,,,HRV,HRV_0158,2022-11-30 18:30:34
,wl-rdm,201,595130,0.0-8.84-0.84,1.0,202.0,,,,,,,[],,,,,,73.6,1.0,i,1.0,True,1976.7000000476837,119.0,60.0,40.0,False,,343.762346154685,[],"[674, 379]",ColorTask,101.0,85.0,,,HRV,HRV_0158,2022-11-30 18:30:34
,wl-rdm,202,598727,0.0-8.85-0.85,1.0,203.0,,,,,,,[],,,,,,73.6,1.0,i,1.0,True,2246.399999976158,135.0,60.0,40.0,False,,275.39984891266226,[],"[674, 379]",ColorTask,102.0,86.0,,,HRV,HRV_0158,2022-11-30 18:30:34
,wl-rdm,203,602323,0.0-8.86-0.86,1.0,204.0,,,,,,,[],,,,,,50.0,1.0,u,0.0,False,2307.400000035763,139.0,60.0,40.0,False,,211.09828453139687,[],"[674, 379]",ColorTask,101.0,87.0,,,HRV,HRV_0158,2022-11-30 18:30:34
,wl-rdm,204,605787,0.0-8.87-0.87,1.0,205.0,,,,,,,[],,,,,,50.0,0.0,u,0.0,True,2116.699999988079,128.0,60.0,40.0,False,,254.2929236145005,[],"[674, 379]",ColorTask,102.0,88.0,,,HRV,HRV_0158,2022-11-30 18:30:34
,wl-rdm,205,610117,0.0-8.88-0.88,1.0,205.0,,,,,,,[],,,,,,56.4,1.0,u,,,3428.099999964237,179.0,60.0,40.0,True,RT_timeout ,218.9811992810719,[],"[674, 379]",ColorTask,101.0,89.0,,,HRV,HRV_0158,2022-11-30 18:30:34
,wl-rdm,206,612848,0.0-8.89-0.89,1.0,206.0,,,,,,,[],,,,,,56.4,1.0,i,1.0,True,1309.3999999761581,79.0,60.0,40.0,False,,337.3597159418322,[],"[674, 379]",ColorTask,102.0,90.0,,,HRV,HRV_0158,2022-11-30 18:30:34
,wl-rdm,207,615778,0.0-8.90-0.90,1.0,207.0,,,,,,,[],,,,,,53.2,1.0,u,0.0,False,1482.699999988079,90.0,60.0,40.0,False,,356.4951504647381,[],"[674, 379]",ColorTask,101.0,91.0,,,HRV,HRV_0158,2022-11-30 18:30:34
,wl-rdm,208,618576,0.0-8.91-0.91,1.0,208.0,,,,,,,[],,,,,,50.0,0.0,i,1.0,False,1441.4000000357628,87.0,60.0,40.0,False,,267.36888924938614,[],"[674, 379]",ColorTask,100.0,92.0,,,HRV,HRV_0158,2022-11-30 18:30:34
,wl-rdm,209,621041,0.0-8.92-0.92,1.0,209.0,,,,,,,[],,,,,,87.9,0.0,u,0.0,True,1142.9000000357628,69.0,60.0,40.0,False,,263.1929296710129,[],"[674, 379]",ColorTask,101.0,93.0,,,HRV,HRV_0158,2022-11-30 18:30:34
,wl-rdm,210,623871,0.0-8.93-0.93,1.0,210.0,,,,,,,[],,,,,,73.6,1.0,i,1.0,True,1363.5,82.0,60.0,40.0,False,,385.0711054218758,[],"[674, 379]",ColorTask,102.0,94.0,,,HRV,HRV_0158,2022-11-30 18:30:34
,wl-rdm,211,626935,0.0-8.94-0.94,1.0,211.0,,,,,,,[],,,,,,62.5,0.0,u,0.0,True,1795.800000011921,108.0,60.0,40.0,False,,212.7078042599467,[],"[674, 379]",ColorTask,103.0,95.0,,,HRV,HRV_0158,2022-11-30 18:30:34
,wl-rdm,212,629916,0.0-8.95-0.95,1.0,212.0,,,,,,,[],,,,,,56.4,0.0,i,1.0,False,1672.5,101.0,60.0,40.0,False,,221.8245210061974,[],"[674, 379]",ColorTask,102.0,96.0,,,HRV,HRV_0158,2022-11-30 18:30:34
,wl-rdm,213,632664,0.0-8.96-0.96,1.0,213.0,,,,,,,[],,,,,,50.0,1.0,u,0.0,False,1459.8000000715256,88.0,60.0,40.0,False,,200.99819602855845,[],"[674, 379]",ColorTask,101.0,97.0,,,HRV,HRV_0158,2022-11-30 18:30:34
,wl-rdm,214,635678,0.0-8.97-0.97,1.0,214.0,,,,,,,[],,,,,,53.2,0.0,u,0.0,True,1727.5,104.0,60.0,40.0,False,,216.07132213579172,[],"[674, 379]",ColorTask,102.0,98.0,,,HRV,HRV_0158,2022-11-30 18:30:34
,wl-rdm,215,638242,0.0-8.98-0.98,1.0,215.0,,,,,,,[],,,,,,50.0,0.0,u,0.0,True,1159.800000011921,70.0,60.0,40.0,False,,317.7159792387751,[],"[674, 379]",ColorTask,103.0,99.0,,,HRV,HRV_0158,2022-11-30 18:30:34
,wl-rdm,216,640840,0.0-8.99-0.99,1.0,216.0,,,,,,,[],,,,,,73.6,0.0,u,0.0,True,1313.9999999403954,79.0,60.0,40.0,False,,201.47709792007944,[],"[674, 379]",ColorTask,104.0,100.0,,,HRV,HRV_0158,2022-11-30 18:30:34
,wl-rdm,217,643987,0.0-8.100-0.100,1.0,217.0,,,,,,,[],,,,,,50.0,1.0,u,0.0,False,1833.5999999642372,111.0,60.0,40.0,False,,221.38393994086982,[],"[674, 379]",ColorTask,103.0,101.0,,,HRV,HRV_0158,2022-11-30 18:30:34
,wl-rdm,218,647001,0.0-8.101-0.101,1.0,218.0,,,,,,,[],,,,,,62.5,0.0,u,0.0,True,1595.8000000715256,96.0,60.0,40.0,False,,339.53163745316766,[],"[674, 379]",ColorTask,104.0,102.0,,,HRV,HRV_0158,2022-11-30 18:30:34
,wl-rdm,219,649882,0.0-8.102-0.102,1.0,219.0,,,,,,,[],,,,,,56.4,1.0,u,0.0,False,1557.3999999761581,94.0,60.0,40.0,False,,246.96615705159223,[],"[674, 379]",ColorTask,103.0,103.0,,,HRV,HRV_0158,2022-11-30 18:30:34
,wl-rdm,220,653545,0.0-8.103-0.103,1.0,220.0,,,,,,,[],,,,,,62.5,0.0,u,0.0,True,2233.400000035763,135.0,60.0,40.0,False,,349.81634593280086,[],"[674, 379]",ColorTask,104.0,104.0,,,HRV,HRV_0158,2022-11-30 18:30:34
,wl-rdm,221,656226,0.0-8.104-0.104,1.0,221.0,,,,,,,[],,,,,,62.5,1.0,i,1.0,True,1234.5,75.0,60.0,40.0,False,,364.9567592277607,[],"[674, 379]",ColorTask,105.0,105.0,,,HRV,HRV_0158,2022-11-30 18:30:34
,wl-rdm,222,659041,0.0-8.105-0.105,1.0,222.0,,,,,,,[],,,,,,62.5,0.0,u,0.0,True,1356.9000000357628,82.0,60.0,40.0,False,,385.69493679387375,[],"[674, 379]",ColorTask,106.0,106.0,,,HRV,HRV_0158,2022-11-30 18:30:34
,wl-rdm,223,661555,0.0-8.106-0.106,1.0,223.0,,,,,,,[],,,,,,62.5,1.0,i,1.0,True,1198.1000000238419,72.0,60.0,40.0,False,,245.28497343989906,[],"[674, 379]",ColorTask,107.0,107.0,,,HRV,HRV_0158,2022-11-30 18:30:34
,wl-rdm,224,664286,0.0-8.107-0.107,1.0,224.0,,,,,,,[],,,,,,50.0,0.0,i,1.0,False,1290.7000000476837,78.0,60.0,40.0,False,,352.4717153658918,[],"[674, 379]",ColorTask,106.0,108.0,,,HRV,HRV_0158,2022-11-30 18:30:34
,wl-rdm,225,666700,0.0-8.108-0.108,1.0,225.0,,,,,,,[],,,,,,73.6,0.0,u,0.0,True,1045.800000011921,63.0,60.0,40.0,False,,282.74359606496665,[],"[674, 379]",ColorTask,107.0,109.0,,,HRV,HRV_0158,2022-11-30 18:30:34
,wl-html-button-response,226,671352,0.0-9.0-0.0,,,,,,,,,,4644.700000047684,,0,,,,,,,,,,,,,,,,,,,,<h3>End of this session. Thank you!</h3><br>,['Close window'],HRV,HRV_0158,2022-11-30 18:30:34
