trialN,stimuli,trialStartTime,trialStartTime_UNIX,stimulus1,stimulus2,stimulus1Bid,stimulus2Bid,delta,selected,rt,rt_UNIX,rt_perfnow,receivedResponse,rsp,trialEndTime,trialDuration,trialEndTime_UNIX,trialDuration_UNIX,exp,subjectId,date
0,"[{'imgObject': {}, 'id': 'avocado', 'src': '/static/foodstim60/avocado.jpg', 'key': 'u', 'origWidth': 409, 'origHeight': 409, 'width': 409, 'height': 409, 'widthPercent': 0.45, 'rescaleHeight': False, 'trialN': 0, 'loaded': True, 'loadedTime': 3078.600000023842, 'positionName': 'LEFT', 'positionCoords': [238.04, 174.5], 'bid': 9.55}, {'imgObject': {}, 'id': 'salmon', 'src': '/static/foodstim60/salmon.jpg', 'key': 'i', 'origWidth': 410, 'origHeight': 409, 'width': 410, 'height': 409, 'widthPercent': 0.45, 'rescaleHeight': False, 'trialN': 0, 'loaded': True, 'loadedTime': 3118.5, 'positionName': 'RIGHT', 'positionCoords': [700.96, 174.5], 'bid': 10}]",3380.100000023842,1669831066463,avocado,salmon,9.55,10.0,0.4499999999999993,avocado,827.1999999880791,828,828.1999999880791,True,u,4721.100000023842,1341.0,1669831067804,1341,HRV,HRV_0158,2022-11-30 18:03:18
1,"[{'imgObject': {}, 'id': 'mango', 'src': '/static/foodstim60/mango.jpg', 'key': 'u', 'origWidth': 411, 'origHeight': 411, 'width': 411, 'height': 411, 'widthPercent': 0.45, 'rescaleHeight': False, 'trialN': 1, 'loaded': True, 'loadedTime': 3126.199999988079, 'positionName': 'LEFT', 'positionCoords': [236.04, 173.5], 'bid': 8.93}, {'imgObject': {}, 'id': 'pear', 'src': '/static/foodstim60/pear.jpg', 'key': 'i', 'origWidth': 411, 'origHeight': 410, 'width': 411, 'height': 410, 'widthPercent': 0.45, 'rescaleHeight': False, 'trialN': 1, 'loaded': True, 'loadedTime': 3133.5, 'positionName': 'RIGHT', 'positionCoords': [700.96, 174], 'bid': 9.89}]",4721.699999988079,1669831067804,mango,pear,8.93,9.89,0.9600000000000009,mango,1104.199999988079,1105,1104.699999988079,True,u,6333.199999988079,1611.5,1669831069416,1612,HRV,HRV_0158,2022-11-30 18:03:18
2,"[{'imgObject': {}, 'id': 'chicken nuggets2', 'src': '/static/foodstim60/chicken nuggets2.jpg', 'key': 'u', 'origWidth': 410, 'origHeight': 409, 'width': 410, 'height': 409, 'widthPercent': 0.45, 'rescaleHeight': False, 'trialN': 2, 'loaded': True, 'loadedTime': 3134.800000011921, 'positionName': 'LEFT', 'positionCoords': [237.04, 174.5], 'bid': 9.89}, {'imgObject': {}, 'id': 'strawberries', 'src': '/static/foodstim60/strawberries.jpg', 'key': 'i', 'origWidth': 410, 'origHeight': 410, 'width': 410, 'height': 410, 'widthPercent': 0.45, 'rescaleHeight': False, 'trialN': 2, 'loaded': True, 'loadedTime': 3142.300000011921, 'positionName': 'RIGHT', 'positionCoords': [700.96, 174], 'bid': 8.94}]",6333.699999988079,1669831069416,chicken nuggets2,strawberries,9.89,8.94,-0.9500000000000011,chicken nuggets2,665.4000000357628,666,666.1999999880791,True,u,7505.600000023842,1171.9000000357628,1669831070588,1172,HRV,HRV_0158,2022-11-30 18:03:18
3,"[{'imgObject': {}, 'id': 'banana', 'src': '/static/foodstim60/banana.jpg', 'key': 'u', 'origWidth': 410, 'origHeight': 410, 'width': 410, 'height': 410, 'widthPercent': 0.45, 'rescaleHeight': False, 'trialN': 3, 'loaded': True, 'loadedTime': 3150.699999988079, 'positionName': 'LEFT', 'positionCoords': [237.04, 174], 'bid': 6.91}, {'imgObject': {}, 'id': 'omelette', 'src': '/static/foodstim60/omelette.jpg', 'key': 'i', 'origWidth': 410, 'origHeight': 409, 'width': 410, 'height': 409, 'widthPercent': 0.45, 'rescaleHeight': False, 'trialN': 3, 'loaded': True, 'loadedTime': 3164.899999976158, 'positionName': 'RIGHT', 'positionCoords': [700.96, 174.5], 'bid': 2.18}]",7505.699999988079,1669831070588,banana,omelette,6.91,2.18,-4.73,banana,779.1000000238419,780,779.8000000119209,True,u,8794.399999976158,1288.699999988079,1669831071877,1289,HRV,HRV_0158,2022-11-30 18:03:18
4,"[{'imgObject': {}, 'id': 'sweetpotato', 'src': '/static/foodstim60/sweetpotato.jpg', 'key': 'u', 'origWidth': 410, 'origHeight': 410, 'width': 410, 'height': 410, 'widthPercent': 0.45, 'rescaleHeight': False, 'trialN': 4, 'loaded': True, 'loadedTime': 3165.300000011921, 'positionName': 'LEFT', 'positionCoords': [237.04, 174], 'bid': 8.66}, {'imgObject': {}, 'id': 'cherries', 'src': '/static/foodstim60/cherries.jpg', 'key': 'i', 'origWidth': 410, 'origHeight': 411, 'width': 410, 'height': 411, 'widthPercent': 0.45, 'rescaleHeight': False, 'trialN': 4, 'loaded': True, 'loadedTime': 3083.899999976158, 'positionName': 'RIGHT', 'positionCoords': [700.96, 173.5], 'bid': 9.76}]",8794.899999976158,1669831071878,sweetpotato,cherries,8.66,9.76,1.0999999999999996,cherries,829.3000000119209,830,829.9000000357628,True,i,10144.600000023842,1349.7000000476837,1669831073228,1350,HRV,HRV_0158,2022-11-30 18:03:18
5,"[{'imgObject': {}, 'id': 'luckycharms', 'src': '/static/foodstim60/luckycharms.jpg', 'key': 'u', 'origWidth': 410, 'origHeight': 409, 'width': 410, 'height': 409, 'widthPercent': 0.45, 'rescaleHeight': False, 'trialN': 5, 'loaded': True, 'loadedTime': 3106.800000011921, 'positionName': 'LEFT', 'positionCoords': [237.04, 174.5], 'bid': 1.52}, {'imgObject': {}, 'id': 'turkey sandwich', 'src': '/static/foodstim60/turkey sandwich.jpg', 'key': 'i', 'origWidth': 409, 'origHeight': 409, 'width': 409, 'height': 409, 'widthPercent': 0.45, 'rescaleHeight': False, 'trialN': 5, 'loaded': True, 'loadedTime': 3150.5, 'positionName': 'RIGHT', 'positionCoords': [700.96, 174.5], 'bid': 2.92}]",10144.899999976158,1669831073228,luckycharms,turkey sandwich,1.52,2.92,1.4,turkey sandwich,722.4000000357628,723,723.2000000476837,True,i,11377.300000011921,1232.4000000357628,1669831074460,1232,HRV,HRV_0158,2022-11-30 18:03:18
6,"[{'imgObject': {}, 'id': 'eggs', 'src': '/static/foodstim60/eggs.jpg', 'key': 'u', 'origWidth': 409, 'origHeight': 409, 'width': 409, 'height': 409, 'widthPercent': 0.45, 'rescaleHeight': False, 'trialN': 6, 'loaded': True, 'loadedTime': 3175, 'positionName': 'LEFT', 'positionCoords': [238.04, 174.5], 'bid': 5.84}, {'imgObject': {}, 'id': 'banana', 'src': '/static/foodstim60/banana.jpg', 'key': 'i', 'origWidth': 410, 'origHeight': 410, 'width': 410, 'height': 410, 'widthPercent': 0.45, 'rescaleHeight': False, 'trialN': 6, 'loaded': True, 'loadedTime': 3157.300000011921, 'positionName': 'RIGHT', 'positionCoords': [700.96, 174], 'bid': 6.91}]",11377.699999988079,1669831074461,eggs,banana,5.84,6.91,1.0700000000000003,eggs,975.5,976,976.1000000238419,True,u,12859.100000023842,1481.4000000357628,1669831075942,1481,HRV,HRV_0158,2022-11-30 18:03:18
7,"[{'imgObject': {}, 'id': 'kiwi', 'src': '/static/foodstim60/kiwi.jpg', 'key': 'u', 'origWidth': 410, 'origHeight': 410, 'width': 410, 'height': 410, 'widthPercent': 0.45, 'rescaleHeight': False, 'trialN': 7, 'loaded': True, 'loadedTime': 3181.100000023842, 'positionName': 'LEFT', 'positionCoords': [237.04, 174], 'bid': 7.67}, {'imgObject': {}, 'id': 'bagel and cc', 'src': '/static/foodstim60/bagel and cc.jpg', 'key': 'i', 'origWidth': 410, 'origHeight': 410, 'width': 410, 'height': 410, 'widthPercent': 0.45, 'rescaleHeight': False, 'trialN': 7, 'loaded': True, 'loadedTime': 3189.300000011921, 'positionName': 'RIGHT', 'positionCoords': [700.96, 174], 'bid': 7.86}]",12859.600000023842,1669831075943,kiwi,bagel and cc,7.67,7.86,0.1900000000000004,kiwi,1137.0,1137,1137.699999988079,True,u,14506.800000011921,1647.199999988079,1669831077590,1647,HRV,HRV_0158,2022-11-30 18:03:18
8,"[{'imgObject': {}, 'id': 'grilled chicken strips', 'src': '/static/foodstim60/grilled chicken strips.jpg', 'key': 'u', 'origWidth': 410, 'origHeight': 411, 'width': 410, 'height': 411, 'widthPercent': 0.45, 'rescaleHeight': False, 'trialN': 8, 'loaded': True, 'loadedTime': 3190.699999988079, 'positionName': 'LEFT', 'positionCoords': [237.04, 173.5], 'bid': 8.91}, {'imgObject': {}, 'id': 'strawberries', 'src': '/static/foodstim60/strawberries.jpg', 'key': 'i', 'origWidth': 410, 'origHeight': 410, 'width': 410, 'height': 410, 'widthPercent': 0.45, 'rescaleHeight': False, 'trialN': 8, 'loaded': True, 'loadedTime': 3142.800000011921, 'positionName': 'RIGHT', 'positionCoords': [700.96, 174], 'bid': 8.94}]",14507.199999988079,1669831077590,grilled chicken strips,strawberries,8.91,8.94,0.02999999999999936,strawberries,664.6999999880791,666,665.4000000357628,True,i,15674.399999976158,1167.199999988079,1669831078757,1167,HRV,HRV_0158,2022-11-30 18:03:18
9,"[{'imgObject': {}, 'id': 'corn cob', 'src': '/static/foodstim60/corn cob.jpg', 'key': 'u', 'origWidth': 411, 'origHeight': 411, 'width': 411, 'height': 411, 'widthPercent': 0.45, 'rescaleHeight': False, 'trialN': 9, 'loaded': True, 'loadedTime': 3199.300000011921, 'positionName': 'LEFT', 'positionCoords': [236.04, 173.5], 'bid': 6.83}, {'imgObject': {}, 'id': 'burrito', 'src': '/static/foodstim60/burrito.jpg', 'key': 'i', 'origWidth': 410, 'origHeight': 410, 'width': 410, 'height': 410, 'widthPercent': 0.45, 'rescaleHeight': False, 'trialN': 9, 'loaded': True, 'loadedTime': 3206.699999988079, 'positionName': 'RIGHT', 'positionCoords': [700.96, 174], 'bid': 5.3500000000000005}]",15674.899999976158,1669831078758,corn cob,burrito,6.83,5.3500000000000005,-1.4799999999999995,corn cob,1132.9000000357628,1134,1133.6000000238419,True,u,17322.19999998808,1647.300000011921,1669831080405,1647,HRV,HRV_0158,2022-11-30 18:03:18
10,"[{'imgObject': {}, 'id': 'tacos', 'src': '/static/foodstim60/tacos.jpg', 'key': 'u', 'origWidth': 411, 'origHeight': 411, 'width': 411, 'height': 411, 'widthPercent': 0.45, 'rescaleHeight': False, 'trialN': 10, 'loaded': True, 'loadedTime': 3208.300000011921, 'positionName': 'LEFT', 'positionCoords': [236.04, 173.5], 'bid': 5.5}, {'imgObject': {}, 'id': 'steak', 'src': '/static/foodstim60/steak.jpg', 'key': 'i', 'origWidth': 410, 'origHeight': 410, 'width': 410, 'height': 410, 'widthPercent': 0.45, 'rescaleHeight': False, 'trialN': 10, 'loaded': True, 'loadedTime': 3215.5, 'positionName': 'RIGHT', 'positionCoords': [700.96, 174], 'bid': 9.86}]",17322.80000001192,1669831080406,tacos,steak,5.5,9.86,4.359999999999999,steak,868.6999999880791,869,869.5,True,i,18703.399999976158,1380.5999999642372,1669831081786,1380,HRV,HRV_0158,2022-11-30 18:03:18
11,"[{'imgObject': {}, 'id': 'raspberries', 'src': '/static/foodstim60/raspberries.jpg', 'key': 'u', 'origWidth': 411, 'origHeight': 411, 'width': 411, 'height': 411, 'widthPercent': 0.45, 'rescaleHeight': False, 'trialN': 11, 'loaded': True, 'loadedTime': 3218.300000011921, 'positionName': 'LEFT', 'positionCoords': [236.04, 173.5], 'bid': 8.81}, {'imgObject': {}, 'id': 'cantaloupe', 'src': '/static/foodstim60/cantaloupe.jpg', 'key': 'i', 'origWidth': 409, 'origHeight': 409, 'width': 409, 'height': 409, 'widthPercent': 0.45, 'rescaleHeight': False, 'trialN': 11, 'loaded': True, 'loadedTime': 3225.5, 'positionName': 'RIGHT', 'positionCoords': [700.96, 174.5], 'bid': 8.73}]",18703.69999998808,1669831081787,raspberries,cantaloupe,8.81,8.73,-0.08000000000000007,cantaloupe,960.9000000357628,961,961.5,True,i,20170.399999976158,1466.699999988079,1669831083253,1466,HRV,HRV_0158,2022-11-30 18:03:18
12,"[{'imgObject': {}, 'id': 'hotdog w must', 'src': '/static/foodstim60/hotdog w must.jpg', 'key': 'u', 'origWidth': 409, 'origHeight': 409, 'width': 409, 'height': 409, 'widthPercent': 0.45, 'rescaleHeight': False, 'trialN': 12, 'loaded': True, 'loadedTime': 3233.800000011921, 'positionName': 'LEFT', 'positionCoords': [238.04, 174.5], 'bid': 1.94}, {'imgObject': {}, 'id': 'omelette', 'src': '/static/foodstim60/omelette.jpg', 'key': 'i', 'origWidth': 410, 'origHeight': 409, 'width': 410, 'height': 409, 'widthPercent': 0.45, 'rescaleHeight': False, 'trialN': 12, 'loaded': True, 'loadedTime': 3164.399999976158, 'positionName': 'RIGHT', 'positionCoords': [700.96, 174.5], 'bid': 2.18}]",20170.69999998808,1669831083254,hotdog w must,omelette,1.94,2.18,0.2400000000000002,hotdog w must,877.9000000357628,878,878.1999999880791,True,u,21567.19999998808,1396.5,1669831084650,1396,HRV,HRV_0158,2022-11-30 18:03:18
13,"[{'imgObject': {}, 'id': 'seaweed', 'src': '/static/foodstim60/seaweed.jpg', 'key': 'u', 'origWidth': 410, 'origHeight': 410, 'width': 410, 'height': 410, 'widthPercent': 0.45, 'rescaleHeight': False, 'trialN': 13, 'loaded': True, 'loadedTime': 3242.699999988079, 'positionName': 'LEFT', 'positionCoords': [237.04, 174], 'bid': 0.63}, {'imgObject': {}, 'id': 'fried eggs', 'src': '/static/foodstim60/fried eggs.jpg', 'key': 'i', 'origWidth': 410, 'origHeight': 410, 'width': 410, 'height': 410, 'widthPercent': 0.45, 'rescaleHeight': False, 'trialN': 13, 'loaded': True, 'loadedTime': 3243.699999988079, 'positionName': 'RIGHT', 'positionCoords': [700.96, 174], 'bid': 3.13}]",21567.5,1669831084651,seaweed,fried eggs,0.63,3.13,2.5,fried eggs,1095.3999999761581,1096,1096.199999988079,True,i,23183.69999998808,1616.199999988079,1669831086267,1616,HRV,HRV_0158,2022-11-30 18:03:18
14,"[{'imgObject': {}, 'id': 'ice cream sundae 002', 'src': '/static/foodstim60/ice cream sundae 002.jpg', 'key': 'u', 'origWidth': 409, 'origHeight': 409, 'width': 409, 'height': 409, 'widthPercent': 0.45, 'rescaleHeight': False, 'trialN': 14, 'loaded': True, 'loadedTime': 3250.800000011921, 'positionName': 'LEFT', 'positionCoords': [238.04, 174.5], 'bid': 3.69}, {'imgObject': {}, 'id': 'mashed potato', 'src': '/static/foodstim60/mashed potato.jpg', 'key': 'i', 'origWidth': 409, 'origHeight': 409, 'width': 409, 'height': 409, 'widthPercent': 0.45, 'rescaleHeight': False, 'trialN': 14, 'loaded': True, 'loadedTime': 3252.5, 'positionName': 'RIGHT', 'positionCoords': [700.96, 174.5], 'bid': 2.89}]",23183.80000001192,1669831086267,ice cream sundae 002,mashed potato,3.69,2.89,-0.7999999999999998,ice cream sundae 002,942.3999999761581,943,943.0999999642372,True,u,24648.19999998808,1464.3999999761581,1669831087731,1464,HRV,HRV_0158,2022-11-30 18:03:18
15,"[{'imgObject': {}, 'id': 'hotdog w must', 'src': '/static/foodstim60/hotdog w must.jpg', 'key': 'u', 'origWidth': 409, 'origHeight': 409, 'width': 409, 'height': 409, 'widthPercent': 0.45, 'rescaleHeight': False, 'trialN': 15, 'loaded': True, 'loadedTime': 3233.100000023842, 'positionName': 'LEFT', 'positionCoords': [238.04, 174.5], 'bid': 1.94}, {'imgObject': {}, 'id': 'blackbeanswithrice', 'src': '/static/foodstim60/blackbeanswithrice.jpg', 'key': 'i', 'origWidth': 410, 'origHeight': 410, 'width': 410, 'height': 410, 'widthPercent': 0.45, 'rescaleHeight': False, 'trialN': 15, 'loaded': True, 'loadedTime': 3259.399999976158, 'positionName': 'RIGHT', 'positionCoords': [700.96, 174], 'bid': 2.87}]",24648.5,1669831087731,hotdog w must,blackbeanswithrice,1.94,2.87,0.9300000000000002,blackbeanswithrice,827.1999999880791,828,827.8999999761581,True,i,25981.80000001192,1333.300000011921,1669831089065,1334,HRV,HRV_0158,2022-11-30 18:03:18
16,"[{'imgObject': {}, 'id': 'roastedpotatoes', 'src': '/static/foodstim60/roastedpotatoes.jpg', 'key': 'u', 'origWidth': 409, 'origHeight': 410, 'width': 409, 'height': 410, 'widthPercent': 0.45, 'rescaleHeight': False, 'trialN': 16, 'loaded': True, 'loadedTime': 3261.899999976158, 'positionName': 'LEFT', 'positionCoords': [238.04, 174], 'bid': 7.930000000000001}, {'imgObject': {}, 'id': 'orange slices', 'src': '/static/foodstim60/orange slices.jpg', 'key': 'i', 'origWidth': 409, 'origHeight': 410, 'width': 409, 'height': 410, 'widthPercent': 0.45, 'rescaleHeight': False, 'trialN': 16, 'loaded': True, 'loadedTime': 3270.699999988079, 'positionName': 'RIGHT', 'positionCoords': [700.96, 174], 'bid': 7.92}]",25982.19999998808,1669831089065,roastedpotatoes,orange slices,7.930000000000001,7.92,-0.010000000000000675,roastedpotatoes,1006.5,1007,1007.1000000238419,True,u,27497.80000001192,1515.6000000238419,1669831090581,1516,HRV,HRV_0158,2022-11-30 18:03:18
17,"[{'imgObject': {}, 'id': 'veggieswithdip', 'src': '/static/foodstim60/veggieswithdip.jpg', 'key': 'u', 'origWidth': 409, 'origHeight': 409, 'width': 409, 'height': 409, 'widthPercent': 0.45, 'rescaleHeight': False, 'trialN': 17, 'loaded': True, 'loadedTime': 3272.100000023842, 'positionName': 'LEFT', 'positionCoords': [238.04, 174.5], 'bid': 5.57}, {'imgObject': {}, 'id': 'burrito', 'src': '/static/foodstim60/burrito.jpg', 'key': 'i', 'origWidth': 410, 'origHeight': 410, 'width': 410, 'height': 410, 'widthPercent': 0.45, 'rescaleHeight': False, 'trialN': 17, 'loaded': True, 'loadedTime': 3199.5, 'positionName': 'RIGHT', 'positionCoords': [700.96, 174], 'bid': 5.3500000000000005}]",27498.30000001192,1669831090581,veggieswithdip,burrito,5.57,5.3500000000000005,-0.21999999999999975,burrito,1283.0999999642372,1284,1283.8999999761581,True,i,29293.600000023842,1795.300000011921,1669831092377,1796,HRV,HRV_0158,2022-11-30 18:03:18
18,"[{'imgObject': {}, 'id': 'mac & cheese', 'src': '/static/foodstim60/mac & cheese.jpg', 'key': 'u', 'origWidth': 410, 'origHeight': 410, 'width': 410, 'height': 410, 'widthPercent': 0.45, 'rescaleHeight': False, 'trialN': 18, 'loaded': True, 'loadedTime': 3281, 'positionName': 'LEFT', 'positionCoords': [237.04, 174], 'bid': 6.05}, {'imgObject': {}, 'id': 'yogurt no spoon', 'src': '/static/foodstim60/yogurt no spoon.jpg', 'key': 'i', 'origWidth': 411, 'origHeight': 410, 'width': 411, 'height': 410, 'widthPercent': 0.45, 'rescaleHeight': False, 'trialN': 18, 'loaded': True, 'loadedTime': 3282.5, 'positionName': 'RIGHT', 'positionCoords': [700.96, 174], 'bid': 6.26}]",29294.0,1669831092377,mac & cheese,yogurt no spoon,6.05,6.26,0.20999999999999996,mac & cheese,795.1999999880791,796,795.8999999761581,True,u,30594.899999976158,1300.8999999761581,1669831093678,1301,HRV,HRV_0158,2022-11-30 18:03:18
19,"[{'imgObject': {}, 'id': 'olives', 'src': '/static/foodstim60/olives.jpg', 'key': 'u', 'origWidth': 410, 'origHeight': 410, 'width': 410, 'height': 410, 'widthPercent': 0.45, 'rescaleHeight': False, 'trialN': 19, 'loaded': True, 'loadedTime': 3292.399999976158, 'positionName': 'LEFT', 'positionCoords': [237.04, 174], 'bid': 8.42}, {'imgObject': {}, 'id': 'baked potato', 'src': '/static/foodstim60/baked potato.jpg', 'key': 'i', 'origWidth': 409, 'origHeight': 410, 'width': 409, 'height': 410, 'widthPercent': 0.45, 'rescaleHeight': False, 'trialN': 19, 'loaded': True, 'loadedTime': 3293.699999988079, 'positionName': 'RIGHT', 'positionCoords': [700.96, 174], 'bid': 8.02}]",30595.30000001192,1669831093678,olives,baked potato,8.42,8.02,-0.40000000000000036,baked potato,1206.8999999761581,1208,1207.5,True,i,32310.399999976158,1715.0999999642372,1669831095393,1715,HRV,HRV_0158,2022-11-30 18:03:18
20,"[{'imgObject': {}, 'id': 'popsicles', 'src': '/static/foodstim60/popsicles.jpg', 'key': 'u', 'origWidth': 410, 'origHeight': 410, 'width': 410, 'height': 410, 'widthPercent': 0.45, 'rescaleHeight': False, 'trialN': 20, 'loaded': True, 'loadedTime': 3379.5, 'positionName': 'LEFT', 'positionCoords': [237.04, 174], 'bid': 0.65}, {'imgObject': {}, 'id': 'luckycharms', 'src': '/static/foodstim60/luckycharms.jpg', 'key': 'i', 'origWidth': 410, 'origHeight': 409, 'width': 410, 'height': 409, 'widthPercent': 0.45, 'rescaleHeight': False, 'trialN': 20, 'loaded': True, 'loadedTime': 3107.899999976158, 'positionName': 'RIGHT', 'positionCoords': [700.96, 174.5], 'bid': 1.52}]",32311.100000023842,1669831095394,popsicles,luckycharms,0.65,1.52,0.87,popsicles,1981.3999999761581,1982,1982.0999999642372,True,u,34806.0,2494.899999976158,1669831097889,2495,HRV,HRV_0158,2022-11-30 18:03:18
21,"[{'imgObject': {}, 'id': 'chicken nuggets2', 'src': '/static/foodstim60/chicken nuggets2.jpg', 'key': 'u', 'origWidth': 410, 'origHeight': 409, 'width': 410, 'height': 409, 'widthPercent': 0.45, 'rescaleHeight': False, 'trialN': 21, 'loaded': True, 'loadedTime': 3140.800000011921, 'positionName': 'LEFT', 'positionCoords': [237.04, 174.5], 'bid': 9.89}, {'imgObject': {}, 'id': 'salmon', 'src': '/static/foodstim60/salmon.jpg', 'key': 'i', 'origWidth': 410, 'origHeight': 409, 'width': 410, 'height': 409, 'widthPercent': 0.45, 'rescaleHeight': False, 'trialN': 21, 'loaded': True, 'loadedTime': 3116.800000011921, 'positionName': 'RIGHT', 'positionCoords': [700.96, 174.5], 'bid': 10}]",34806.5,1669831097889,chicken nuggets2,salmon,9.89,10.0,0.10999999999999943,chicken nuggets2,849.6999999880791,851,850.3000000119209,True,u,36170.89999997616,1364.3999999761581,1669831099254,1365,HRV,HRV_0158,2022-11-30 18:03:18
22,"[{'imgObject': {}, 'id': 'fruitsalad', 'src': '/static/foodstim60/fruitsalad.jpg', 'key': 'u', 'origWidth': 410, 'origHeight': 410, 'width': 410, 'height': 410, 'widthPercent': 0.45, 'rescaleHeight': False, 'trialN': 22, 'loaded': True, 'loadedTime': 3300.699999988079, 'positionName': 'LEFT', 'positionCoords': [237.04, 174], 'bid': 9.02}, {'imgObject': {}, 'id': 'cherries', 'src': '/static/foodstim60/cherries.jpg', 'key': 'i', 'origWidth': 410, 'origHeight': 411, 'width': 410, 'height': 411, 'widthPercent': 0.45, 'rescaleHeight': False, 'trialN': 22, 'loaded': True, 'loadedTime': 3085.100000023842, 'positionName': 'RIGHT', 'positionCoords': [700.96, 173.5], 'bid': 9.76}]",36171.19999998808,1669831099254,fruitsalad,cherries,9.02,9.76,0.7400000000000002,fruitsalad,2199.400000035763,2200,2200.100000023842,True,u,38886.30000001192,2715.100000023842,1669831101969,2715,HRV,HRV_0158,2022-11-30 18:03:18
23,"[{'imgObject': {}, 'id': 'seaweed', 'src': '/static/foodstim60/seaweed.jpg', 'key': 'u', 'origWidth': 410, 'origHeight': 410, 'width': 410, 'height': 410, 'widthPercent': 0.45, 'rescaleHeight': False, 'trialN': 23, 'loaded': True, 'loadedTime': 3235.5, 'positionName': 'LEFT', 'positionCoords': [237.04, 174], 'bid': 0.63}, {'imgObject': {}, 'id': 'sushi w_condiments', 'src': '/static/foodstim60/sushi w_condiments.jpg', 'key': 'i', 'origWidth': 410, 'origHeight': 410, 'width': 410, 'height': 410, 'widthPercent': 0.45, 'rescaleHeight': False, 'trialN': 23, 'loaded': True, 'loadedTime': 3302.399999976158, 'positionName': 'RIGHT', 'positionCoords': [700.96, 174], 'bid': 2.29}]",38886.69999998808,1669831101970,seaweed,sushi w_condiments,0.63,2.29,1.6600000000000001,sushi w_condiments,1351.4000000357628,1352,1352.1000000238419,True,i,40750.0,1863.300000011921,1669831103833,1863,HRV,HRV_0158,2022-11-30 18:03:18
24,"[{'imgObject': {}, 'id': 'chickenfingers', 'src': '/static/foodstim60/chickenfingers.jpg', 'key': 'u', 'origWidth': 410, 'origHeight': 410, 'width': 410, 'height': 410, 'widthPercent': 0.45, 'rescaleHeight': False, 'trialN': 24, 'loaded': True, 'loadedTime': 3309.100000023842, 'positionName': 'LEFT', 'positionCoords': [237.04, 174], 'bid': 10}, {'imgObject': {}, 'id': 'Grapes', 'src': '/static/foodstim60/Grapes.jpg', 'key': 'i', 'origWidth': 411, 'origHeight': 411, 'width': 411, 'height': 411, 'widthPercent': 0.45, 'rescaleHeight': False, 'trialN': 24, 'loaded': True, 'loadedTime': 3310.699999988079, 'positionName': 'RIGHT', 'positionCoords': [700.96, 173.5], 'bid': 8.57}]",40750.19999998808,1669831103833,chickenfingers,Grapes,10.0,8.57,-1.4299999999999997,chickenfingers,1404.300000011921,1405,1405.0,True,u,42665.69999998808,1915.5,1669831105749,1916,HRV,HRV_0158,2022-11-30 18:03:18
25,"[{'imgObject': {}, 'id': 'yogurt no spoon', 'src': '/static/foodstim60/yogurt no spoon.jpg', 'key': 'u', 'origWidth': 411, 'origHeight': 410, 'width': 411, 'height': 410, 'widthPercent': 0.45, 'rescaleHeight': False, 'trialN': 25, 'loaded': True, 'loadedTime': 3283.5, 'positionName': 'LEFT', 'positionCoords': [236.04, 174], 'bid': 6.26}, {'imgObject': {}, 'id': 'popsicles', 'src': '/static/foodstim60/popsicles.jpg', 'key': 'i', 'origWidth': 410, 'origHeight': 410, 'width': 410, 'height': 410, 'widthPercent': 0.45, 'rescaleHeight': False, 'trialN': 25, 'loaded': True, 'loadedTime': 3379.399999976158, 'positionName': 'RIGHT', 'positionCoords': [700.96, 174], 'bid': 0.65}]",42666.10000002384,1669831105749,yogurt no spoon,popsicles,6.26,0.65,-5.609999999999999,yogurt no spoon,889.2999999523163,890,889.7999999523163,True,u,44064.89999997616,1398.7999999523163,1669831107148,1399,HRV,HRV_0158,2022-11-30 18:03:18
26,"[{'imgObject': {}, 'id': 'hashbrowns', 'src': '/static/foodstim60/hashbrowns.jpg', 'key': 'u', 'origWidth': 411, 'origHeight': 410, 'width': 411, 'height': 410, 'widthPercent': 0.45, 'rescaleHeight': False, 'trialN': 26, 'loaded': True, 'loadedTime': 3312.100000023842, 'positionName': 'LEFT', 'positionCoords': [236.04, 174], 'bid': 2.81}, {'imgObject': {}, 'id': 'burrito', 'src': '/static/foodstim60/burrito.jpg', 'key': 'i', 'origWidth': 410, 'origHeight': 410, 'width': 410, 'height': 410, 'widthPercent': 0.45, 'rescaleHeight': False, 'trialN': 26, 'loaded': True, 'loadedTime': 3206.800000011921, 'positionName': 'RIGHT', 'positionCoords': [700.96, 174], 'bid': 5.3500000000000005}]",44065.19999998808,1669831107148,hashbrowns,burrito,2.81,5.3500000000000005,2.5400000000000005,burrito,1337.4000000357628,1338,1338.199999988079,True,i,45912.60000002384,1847.4000000357628,1669831108996,1848,HRV,HRV_0158,2022-11-30 18:03:18
27,"[{'imgObject': {}, 'id': 'bagel and cc', 'src': '/static/foodstim60/bagel and cc.jpg', 'key': 'u', 'origWidth': 410, 'origHeight': 410, 'width': 410, 'height': 410, 'widthPercent': 0.45, 'rescaleHeight': False, 'trialN': 27, 'loaded': True, 'loadedTime': 3182, 'positionName': 'LEFT', 'positionCoords': [237.04, 174], 'bid': 7.86}, {'imgObject': {}, 'id': 'turkeysandwich', 'src': '/static/foodstim60/turkeysandwich.jpg', 'key': 'i', 'origWidth': 409, 'origHeight': 409, 'width': 409, 'height': 409, 'widthPercent': 0.45, 'rescaleHeight': False, 'trialN': 27, 'loaded': True, 'loadedTime': 3318.800000011921, 'positionName': 'RIGHT', 'positionCoords': [700.96, 174.5], 'bid': 5.68}]",45912.89999997616,1669831108996,bagel and cc,turkeysandwich,7.86,5.68,-2.1800000000000006,turkeysandwich,1108.300000011921,1109,1109.1000000238419,True,i,47529.0,1616.1000000238419,1669831110612,1616,HRV,HRV_0158,2022-11-30 18:03:18
28,"[{'imgObject': {}, 'id': 'seaweed', 'src': '/static/foodstim60/seaweed.jpg', 'key': 'u', 'origWidth': 410, 'origHeight': 410, 'width': 410, 'height': 410, 'widthPercent': 0.45, 'rescaleHeight': False, 'trialN': 28, 'loaded': True, 'loadedTime': 3242.5, 'positionName': 'LEFT', 'positionCoords': [237.04, 174], 'bid': 0.63}, {'imgObject': {}, 'id': 'popsicles', 'src': '/static/foodstim60/popsicles.jpg', 'key': 'i', 'origWidth': 410, 'origHeight': 410, 'width': 410, 'height': 410, 'widthPercent': 0.45, 'rescaleHeight': False, 'trialN': 28, 'loaded': True, 'loadedTime': 3379.600000023842, 'positionName': 'RIGHT', 'positionCoords': [700.96, 174], 'bid': 0.65}]",47529.5,1669831110612,seaweed,popsicles,0.63,0.65,0.020000000000000018,popsicles,1122.800000011921,1124,1123.3999999761581,True,i,49175.60000002384,1646.1000000238419,1669831112259,1647,HRV,HRV_0158,2022-11-30 18:03:18
29,"[{'imgObject': {}, 'id': 'raspberries', 'src': '/static/foodstim60/raspberries.jpg', 'key': 'u', 'origWidth': 411, 'origHeight': 411, 'width': 411, 'height': 411, 'widthPercent': 0.45, 'rescaleHeight': False, 'trialN': 29, 'loaded': True, 'loadedTime': 3225.199999988079, 'positionName': 'LEFT', 'positionCoords': [236.04, 173.5], 'bid': 8.81}, {'imgObject': {}, 'id': 'Tribe humus pita', 'src': '/static/foodstim60/Tribe humus pita.jpg', 'key': 'i', 'origWidth': 411, 'origHeight': 411, 'width': 411, 'height': 411, 'widthPercent': 0.45, 'rescaleHeight': False, 'trialN': 29, 'loaded': True, 'loadedTime': 3320, 'positionName': 'RIGHT', 'positionCoords': [700.96, 173.5], 'bid': 8.78}]",49175.89999997616,1669831112259,raspberries,Tribe humus pita,8.81,8.78,-0.030000000000001137,raspberries,2899.300000011921,2900,2899.900000035763,True,u,52589.5,3413.600000023842,1669831115673,3414,HRV,HRV_0158,2022-11-30 18:03:18
30,"[{'imgObject': {}, 'id': 'edamame', 'src': '/static/foodstim60/edamame.jpg', 'key': 'u', 'origWidth': 409, 'origHeight': 410, 'width': 409, 'height': 410, 'widthPercent': 0.45, 'rescaleHeight': False, 'trialN': 30, 'loaded': True, 'loadedTime': 3321.199999988079, 'positionName': 'LEFT', 'positionCoords': [238.04, 174], 'bid': 3.17}, {'imgObject': {}, 'id': 'salad w chicken', 'src': '/static/foodstim60/salad w chicken.jpg', 'key': 'i', 'origWidth': 411, 'origHeight': 411, 'width': 411, 'height': 411, 'widthPercent': 0.45, 'rescaleHeight': False, 'trialN': 30, 'loaded': True, 'loadedTime': 3329.5, 'positionName': 'RIGHT', 'positionCoords': [700.96, 173.5], 'bid': 3.36}]",52589.60000002384,1669831115673,edamame,salad w chicken,3.17,3.36,0.18999999999999995,salad w chicken,1718.5,1719,1719.199999988079,True,i,54820.5,2230.899999976158,1669831117904,2231,HRV,HRV_0158,2022-11-30 18:03:18
31,"[{'imgObject': {}, 'id': 'luckycharms', 'src': '/static/foodstim60/luckycharms.jpg', 'key': 'u', 'origWidth': 410, 'origHeight': 409, 'width': 410, 'height': 409, 'widthPercent': 0.45, 'rescaleHeight': False, 'trialN': 31, 'loaded': True, 'loadedTime': 3107.5, 'positionName': 'LEFT', 'positionCoords': [237.04, 174.5], 'bid': 1.52}, {'imgObject': {}, 'id': 'blueberries', 'src': '/static/foodstim60/blueberries.jpg', 'key': 'i', 'origWidth': 411, 'origHeight': 411, 'width': 411, 'height': 411, 'widthPercent': 0.45, 'rescaleHeight': False, 'trialN': 31, 'loaded': True, 'loadedTime': 3329.699999988079, 'positionName': 'RIGHT', 'positionCoords': [700.96, 173.5], 'bid': 6.51}]",54820.89999997616,1669831117904,luckycharms,blueberries,1.52,6.51,4.99,blueberries,905.0,905,905.3000000119209,True,i,56236.10000002384,1415.2000000476837,1669831119319,1415,HRV,HRV_0158,2022-11-30 18:03:18
32,"[{'imgObject': {}, 'id': 'eggsalad', 'src': '/static/foodstim60/eggsalad.jpg', 'key': 'u', 'origWidth': 410, 'origHeight': 409, 'width': 410, 'height': 409, 'widthPercent': 0.45, 'rescaleHeight': False, 'trialN': 32, 'loaded': True, 'loadedTime': 3339.399999976158, 'positionName': 'LEFT', 'positionCoords': [237.04, 174.5], 'bid': 2.32}, {'imgObject': {}, 'id': 'omelette', 'src': '/static/foodstim60/omelette.jpg', 'key': 'i', 'origWidth': 410, 'origHeight': 409, 'width': 410, 'height': 409, 'widthPercent': 0.45, 'rescaleHeight': False, 'trialN': 32, 'loaded': True, 'loadedTime': 3158.399999976158, 'positionName': 'RIGHT', 'positionCoords': [700.96, 174.5], 'bid': 2.18}]",56236.39999997616,1669831119319,eggsalad,omelette,2.32,2.18,-0.13999999999999968,eggsalad,1240.2000000476837,1241,1240.800000011921,True,u,57987.19999998808,1750.800000011921,1669831121070,1751,HRV,HRV_0158,2022-11-30 18:03:18
33,"[{'imgObject': {}, 'id': 'mashed potato', 'src': '/static/foodstim60/mashed potato.jpg', 'key': 'u', 'origWidth': 409, 'origHeight': 409, 'width': 409, 'height': 409, 'widthPercent': 0.45, 'rescaleHeight': False, 'trialN': 33, 'loaded': True, 'loadedTime': 3252.699999988079, 'positionName': 'LEFT', 'positionCoords': [238.04, 174.5], 'bid': 2.89}, {'imgObject': {}, 'id': 'turkeysandwich', 'src': '/static/foodstim60/turkeysandwich.jpg', 'key': 'i', 'origWidth': 409, 'origHeight': 409, 'width': 409, 'height': 409, 'widthPercent': 0.45, 'rescaleHeight': False, 'trialN': 33, 'loaded': True, 'loadedTime': 3318.899999976158, 'positionName': 'RIGHT', 'positionCoords': [700.96, 174.5], 'bid': 5.68}]",57987.60000002384,1669831121071,mashed potato,turkeysandwich,2.89,5.68,2.7899999999999996,turkeysandwich,2053.2999999523163,2054,2054.0,True,i,60549.89999997616,2562.2999999523163,1669831123633,2562,HRV,HRV_0158,2022-11-30 18:03:18
34,"[{'imgObject': {}, 'id': 'eggsalad', 'src': '/static/foodstim60/eggsalad.jpg', 'key': 'u', 'origWidth': 410, 'origHeight': 409, 'width': 410, 'height': 409, 'widthPercent': 0.45, 'rescaleHeight': False, 'trialN': 34, 'loaded': True, 'loadedTime': 3339.5, 'positionName': 'LEFT', 'positionCoords': [237.04, 174.5], 'bid': 2.32}, {'imgObject': {}, 'id': 'popsicles', 'src': '/static/foodstim60/popsicles.jpg', 'key': 'i', 'origWidth': 410, 'origHeight': 410, 'width': 410, 'height': 410, 'widthPercent': 0.45, 'rescaleHeight': False, 'trialN': 34, 'loaded': True, 'loadedTime': 3378.699999988079, 'positionName': 'RIGHT', 'positionCoords': [700.96, 174], 'bid': 0.65}]",60550.19999998808,1669831123633,eggsalad,popsicles,2.32,0.65,-1.67,eggsalad,1623.5,1625,1624.300000011921,True,u,62684.80000001192,2134.600000023842,1669831125768,2135,HRV,HRV_0158,2022-11-30 18:03:18
35,"[{'imgObject': {}, 'id': 'hotdog w must', 'src': '/static/foodstim60/hotdog w must.jpg', 'key': 'u', 'origWidth': 409, 'origHeight': 409, 'width': 409, 'height': 409, 'widthPercent': 0.45, 'rescaleHeight': False, 'trialN': 35, 'loaded': True, 'loadedTime': 3226.800000011921, 'positionName': 'LEFT', 'positionCoords': [238.04, 174.5], 'bid': 1.94}, {'imgObject': {}, 'id': 'rigatoni and sauce', 'src': '/static/foodstim60/rigatoni and sauce.jpg', 'key': 'i', 'origWidth': 410, 'origHeight': 411, 'width': 410, 'height': 411, 'widthPercent': 0.45, 'rescaleHeight': False, 'trialN': 35, 'loaded': True, 'loadedTime': 3340.600000023842, 'positionName': 'RIGHT', 'positionCoords': [700.96, 173.5], 'bid': 3.88}]",62685.10000002384,1669831125768,hotdog w must,rigatoni and sauce,1.94,3.88,1.94,rigatoni and sauce,1356.2999999523163,1357,1357.0,True,i,64547.19999998808,1862.0999999642372,1669831127630,1862,HRV,HRV_0158,2022-11-30 18:03:18
36,"[{'imgObject': {}, 'id': 'raisin bran w milk', 'src': '/static/foodstim60/raisin bran w milk.jpg', 'key': 'u', 'origWidth': 411, 'origHeight': 411, 'width': 411, 'height': 411, 'widthPercent': 0.45, 'rescaleHeight': False, 'trialN': 36, 'loaded': True, 'loadedTime': 3341.699999988079, 'positionName': 'LEFT', 'positionCoords': [236.04, 173.5], 'bid': 4.8}, {'imgObject': {}, 'id': 'rigatoni', 'src': '/static/foodstim60/rigatoni.jpg', 'key': 'i', 'origWidth': 411, 'origHeight': 411, 'width': 411, 'height': 411, 'widthPercent': 0.45, 'rescaleHeight': False, 'trialN': 36, 'loaded': True, 'loadedTime': 3343, 'positionName': 'RIGHT', 'positionCoords': [700.96, 173.5], 'bid': 2.4}]",64547.60000002384,1669831127631,raisin bran w milk,rigatoni,4.8,2.4,-2.4,raisin bran w milk,1250.7999999523163,1251,1251.0999999642372,True,u,66311.5,1763.8999999761581,1669831129395,1764,HRV,HRV_0158,2022-11-30 18:03:18
37,"[{'imgObject': {}, 'id': 'pear', 'src': '/static/foodstim60/pear.jpg', 'key': 'u', 'origWidth': 411, 'origHeight': 410, 'width': 411, 'height': 410, 'widthPercent': 0.45, 'rescaleHeight': False, 'trialN': 37, 'loaded': True, 'loadedTime': 3133.699999988079, 'positionName': 'LEFT', 'positionCoords': [236.04, 174], 'bid': 9.89}, {'imgObject': {}, 'id': 'cocktailshrimp', 'src': '/static/foodstim60/cocktailshrimp.jpg', 'key': 'i', 'origWidth': 410, 'origHeight': 410, 'width': 410, 'height': 410, 'widthPercent': 0.45, 'rescaleHeight': False, 'trialN': 37, 'loaded': True, 'loadedTime': 3350.100000023842, 'positionName': 'RIGHT', 'positionCoords': [700.96, 174], 'bid': 8.33}]",66311.89999997616,1669831129395,pear,cocktailshrimp,9.89,8.33,-1.5600000000000005,cocktailshrimp,955.3000000119209,956,956.0,True,i,67777.0,1465.1000000238419,1669831130860,1465,HRV,HRV_0158,2022-11-30 18:03:18
38,"[{'imgObject': {}, 'id': 'olives', 'src': '/static/foodstim60/olives.jpg', 'key': 'u', 'origWidth': 410, 'origHeight': 410, 'width': 410, 'height': 410, 'widthPercent': 0.45, 'rescaleHeight': False, 'trialN': 38, 'loaded': True, 'loadedTime': 3292.300000011921, 'positionName': 'LEFT', 'positionCoords': [237.04, 174], 'bid': 8.42}, {'imgObject': {}, 'id': 'chicken nuggets2', 'src': '/static/foodstim60/chicken nuggets2.jpg', 'key': 'i', 'origWidth': 410, 'origHeight': 409, 'width': 410, 'height': 409, 'widthPercent': 0.45, 'rescaleHeight': False, 'trialN': 38, 'loaded': True, 'loadedTime': 3141.300000011921, 'positionName': 'RIGHT', 'positionCoords': [700.96, 174.5], 'bid': 9.89}]",67777.10000002384,1669831130860,olives,chicken nuggets2,8.42,9.89,1.4700000000000006,chicken nuggets2,770.7999999523163,771,771.1999999880791,True,i,69059.30000001192,1282.199999988079,1669831132142,1282,HRV,HRV_0158,2022-11-30 18:03:18
39,"[{'imgObject': {}, 'id': 'rigatoni and sauce', 'src': '/static/foodstim60/rigatoni and sauce.jpg', 'key': 'u', 'origWidth': 410, 'origHeight': 411, 'width': 410, 'height': 411, 'widthPercent': 0.45, 'rescaleHeight': False, 'trialN': 39, 'loaded': True, 'loadedTime': 3340.5, 'positionName': 'LEFT', 'positionCoords': [237.04, 173.5], 'bid': 3.88}, {'imgObject': {}, 'id': 'ice cream sundae 002', 'src': '/static/foodstim60/ice cream sundae 002.jpg', 'key': 'i', 'origWidth': 409, 'origHeight': 409, 'width': 409, 'height': 409, 'widthPercent': 0.45, 'rescaleHeight': False, 'trialN': 39, 'loaded': True, 'loadedTime': 3251.600000023842, 'positionName': 'RIGHT', 'positionCoords': [700.96, 174.5], 'bid': 3.69}]",69059.80000001192,1669831132143,rigatoni and sauce,ice cream sundae 002,3.88,3.69,-0.18999999999999995,ice cream sundae 002,1218.699999988079,1219,1219.3999999761581,True,i,70790.60000002384,1730.800000011921,1669831133874,1731,HRV,HRV_0158,2022-11-30 18:03:18
40,"[{'imgObject': {}, 'id': 'rigatoni', 'src': '/static/foodstim60/rigatoni.jpg', 'key': 'u', 'origWidth': 411, 'origHeight': 411, 'width': 411, 'height': 411, 'widthPercent': 0.45, 'rescaleHeight': False, 'trialN': 40, 'loaded': True, 'loadedTime': 3342.800000011921, 'positionName': 'LEFT', 'positionCoords': [236.04, 173.5], 'bid': 2.4}, {'imgObject': {}, 'id': 'ice cream sundae 002', 'src': '/static/foodstim60/ice cream sundae 002.jpg', 'key': 'i', 'origWidth': 409, 'origHeight': 409, 'width': 409, 'height': 409, 'widthPercent': 0.45, 'rescaleHeight': False, 'trialN': 40, 'loaded': True, 'loadedTime': 3251.199999988079, 'positionName': 'RIGHT', 'positionCoords': [700.96, 174.5], 'bid': 3.69}]",70790.89999997616,1669831133874,rigatoni,ice cream sundae 002,2.4,3.69,1.29,ice cream sundae 002,1152.1000000238419,1153,1152.800000011921,True,i,72455.60000002384,1664.7000000476837,1669831135539,1665,HRV,HRV_0158,2022-11-30 18:03:18
41,"[{'imgObject': {}, 'id': 'roastedpotatoes', 'src': '/static/foodstim60/roastedpotatoes.jpg', 'key': 'u', 'origWidth': 409, 'origHeight': 410, 'width': 409, 'height': 410, 'widthPercent': 0.45, 'rescaleHeight': False, 'trialN': 41, 'loaded': True, 'loadedTime': 3268.699999988079, 'positionName': 'LEFT', 'positionCoords': [238.04, 174], 'bid': 7.930000000000001}, {'imgObject': {}, 'id': 'hashbrowns', 'src': '/static/foodstim60/hashbrowns.jpg', 'key': 'i', 'origWidth': 411, 'origHeight': 410, 'width': 411, 'height': 410, 'widthPercent': 0.45, 'rescaleHeight': False, 'trialN': 41, 'loaded': True, 'loadedTime': 3310.699999988079, 'positionName': 'RIGHT', 'positionCoords': [700.96, 174], 'bid': 2.81}]",72456.0,1669831135539,roastedpotatoes,hashbrowns,7.930000000000001,2.81,-5.120000000000001,roastedpotatoes,1470.0,1470,1470.3999999761581,True,u,74437.39999997616,1981.3999999761581,1669831137520,1981,HRV,HRV_0158,2022-11-30 18:03:18
42,"[{'imgObject': {}, 'id': 'orange slices', 'src': '/static/foodstim60/orange slices.jpg', 'key': 'u', 'origWidth': 409, 'origHeight': 410, 'width': 409, 'height': 410, 'widthPercent': 0.45, 'rescaleHeight': False, 'trialN': 42, 'loaded': True, 'loadedTime': 3270.5, 'positionName': 'LEFT', 'positionCoords': [238.04, 174], 'bid': 7.92}, {'imgObject': {}, 'id': 'kiwi', 'src': '/static/foodstim60/kiwi.jpg', 'key': 'i', 'origWidth': 410, 'origHeight': 410, 'width': 410, 'height': 410, 'widthPercent': 0.45, 'rescaleHeight': False, 'trialN': 42, 'loaded': True, 'loadedTime': 3181.5, 'positionName': 'RIGHT', 'positionCoords': [700.96, 174], 'bid': 7.67}]",74437.69999998808,1669831137521,orange slices,kiwi,7.92,7.67,-0.25,orange slices,1796.1000000238419,1797,1796.800000011921,True,u,76737.5,2299.800000011921,1669831139820,2299,HRV,HRV_0158,2022-11-30 18:03:18
43,"[{'imgObject': {}, 'id': 'fruitsalad', 'src': '/static/foodstim60/fruitsalad.jpg', 'key': 'u', 'origWidth': 410, 'origHeight': 410, 'width': 410, 'height': 410, 'widthPercent': 0.45, 'rescaleHeight': False, 'trialN': 43, 'loaded': True, 'loadedTime': 3301.100000023842, 'positionName': 'LEFT', 'positionCoords': [237.04, 174], 'bid': 9.02}, {'imgObject': {}, 'id': 'avocado', 'src': '/static/foodstim60/avocado.jpg', 'key': 'i', 'origWidth': 409, 'origHeight': 409, 'width': 409, 'height': 409, 'widthPercent': 0.45, 'rescaleHeight': False, 'trialN': 43, 'loaded': True, 'loadedTime': 3004.899999976158, 'positionName': 'RIGHT', 'positionCoords': [700.96, 174.5], 'bid': 9.55}]",76738.0,1669831139821,fruitsalad,avocado,9.02,9.55,0.5300000000000011,avocado,1799.8999999761581,1801,1800.699999988079,True,i,79050.30000001192,2312.300000011921,1669831142133,2312,HRV,HRV_0158,2022-11-30 18:03:18
44,"[{'imgObject': {}, 'id': 'apple slices', 'src': '/static/foodstim60/apple slices.jpg', 'key': 'u', 'origWidth': 409, 'origHeight': 410, 'width': 409, 'height': 410, 'widthPercent': 0.45, 'rescaleHeight': False, 'trialN': 44, 'loaded': True, 'loadedTime': 3351.100000023842, 'positionName': 'LEFT', 'positionCoords': [238.04, 174], 'bid': 8.88}, {'imgObject': {}, 'id': 'blueberries', 'src': '/static/foodstim60/blueberries.jpg', 'key': 'i', 'origWidth': 411, 'origHeight': 411, 'width': 411, 'height': 411, 'widthPercent': 0.45, 'rescaleHeight': False, 'trialN': 44, 'loaded': True, 'loadedTime': 3330.800000011921, 'positionName': 'RIGHT', 'positionCoords': [700.96, 173.5], 'bid': 6.51}]",79050.60000002384,1669831142134,apple slices,blueberries,8.88,6.51,-2.370000000000001,apple slices,1696.5999999642372,1697,1697.199999988079,True,u,81250.89999997616,2200.2999999523163,1669831144334,2200,HRV,HRV_0158,2022-11-30 18:03:18
45,"[{'imgObject': {}, 'id': 'fruitsalad', 'src': '/static/foodstim60/fruitsalad.jpg', 'key': 'u', 'origWidth': 410, 'origHeight': 410, 'width': 410, 'height': 410, 'widthPercent': 0.45, 'rescaleHeight': False, 'trialN': 45, 'loaded': True, 'loadedTime': 3300.5, 'positionName': 'LEFT', 'positionCoords': [237.04, 174], 'bid': 9.02}, {'imgObject': {}, 'id': 'olives', 'src': '/static/foodstim60/olives.jpg', 'key': 'i', 'origWidth': 410, 'origHeight': 410, 'width': 410, 'height': 410, 'widthPercent': 0.45, 'rescaleHeight': False, 'trialN': 45, 'loaded': True, 'loadedTime': 3291.399999976158, 'positionName': 'RIGHT', 'positionCoords': [700.96, 174], 'bid': 8.42}]",81251.30000001192,1669831144334,fruitsalad,olives,9.02,8.42,-0.5999999999999996,olives,1185.199999988079,1186,1185.8999999761581,True,i,82946.69999998808,1695.3999999761581,1669831146030,1696,HRV,HRV_0158,2022-11-30 18:03:18
46,"[{'imgObject': {}, 'id': 'hotdog w must', 'src': '/static/foodstim60/hotdog w must.jpg', 'key': 'u', 'origWidth': 409, 'origHeight': 409, 'width': 409, 'height': 409, 'widthPercent': 0.45, 'rescaleHeight': False, 'trialN': 46, 'loaded': True, 'loadedTime': 3233.5, 'positionName': 'LEFT', 'positionCoords': [238.04, 174.5], 'bid': 1.94}, {'imgObject': {}, 'id': 'sushi w_condiments', 'src': '/static/foodstim60/sushi w_condiments.jpg', 'key': 'i', 'origWidth': 410, 'origHeight': 410, 'width': 410, 'height': 410, 'widthPercent': 0.45, 'rescaleHeight': False, 'trialN': 46, 'loaded': True, 'loadedTime': 3302.399999976158, 'positionName': 'RIGHT', 'positionCoords': [700.96, 174], 'bid': 2.29}]",82947.10000002384,1669831146030,hotdog w must,sushi w_condiments,1.94,2.29,0.3500000000000001,sushi w_condiments,1236.7999999523163,1238,1237.3999999761581,True,i,84695.39999997616,1748.2999999523163,1669831147778,1748,HRV,HRV_0158,2022-11-30 18:03:18
47,"[{'imgObject': {}, 'id': 'mac & cheese', 'src': '/static/foodstim60/mac & cheese.jpg', 'key': 'u', 'origWidth': 410, 'origHeight': 410, 'width': 410, 'height': 410, 'widthPercent': 0.45, 'rescaleHeight': False, 'trialN': 47, 'loaded': True, 'loadedTime': 3282.100000023842, 'positionName': 'LEFT', 'positionCoords': [237.04, 174], 'bid': 6.05}, {'imgObject': {}, 'id': 'seaweed', 'src': '/static/foodstim60/seaweed.jpg', 'key': 'i', 'origWidth': 410, 'origHeight': 410, 'width': 410, 'height': 410, 'widthPercent': 0.45, 'rescaleHeight': False, 'trialN': 47, 'loaded': True, 'loadedTime': 3242.199999988079, 'positionName': 'RIGHT', 'positionCoords': [700.96, 174], 'bid': 0.63}]",84695.69999998808,1669831147779,mac & cheese,seaweed,6.05,0.63,-5.42,mac & cheese,840.0,840,840.6999999880791,True,u,86046.0,1350.300000011921,1669831149129,1350,HRV,HRV_0158,2022-11-30 18:03:18
48,"[{'imgObject': {}, 'id': 'sushi w_condiments', 'src': '/static/foodstim60/sushi w_condiments.jpg', 'key': 'u', 'origWidth': 410, 'origHeight': 410, 'width': 410, 'height': 410, 'widthPercent': 0.45, 'rescaleHeight': False, 'trialN': 48, 'loaded': True, 'loadedTime': 3302.199999988079, 'positionName': 'LEFT', 'positionCoords': [237.04, 174], 'bid': 2.29}, {'imgObject': {}, 'id': 'kiwi', 'src': '/static/foodstim60/kiwi.jpg', 'key': 'i', 'origWidth': 410, 'origHeight': 410, 'width': 410, 'height': 410, 'widthPercent': 0.45, 'rescaleHeight': False, 'trialN': 48, 'loaded': True, 'loadedTime': 3181.699999988079, 'positionName': 'RIGHT', 'positionCoords': [700.96, 174], 'bid': 7.67}]",86046.19999998808,1669831149129,sushi w_condiments,kiwi,2.29,7.67,5.38,kiwi,853.9000000357628,855,854.6000000238419,True,i,87409.10000002384,1362.9000000357628,1669831150492,1363,HRV,HRV_0158,2022-11-30 18:03:18
49,"[{'imgObject': {}, 'id': 'baked potato', 'src': '/static/foodstim60/baked potato.jpg', 'key': 'u', 'origWidth': 409, 'origHeight': 410, 'width': 409, 'height': 410, 'widthPercent': 0.45, 'rescaleHeight': False, 'trialN': 49, 'loaded': True, 'loadedTime': 3293.699999988079, 'positionName': 'LEFT', 'positionCoords': [238.04, 174], 'bid': 8.02}, {'imgObject': {}, 'id': 'mango', 'src': '/static/foodstim60/mango.jpg', 'key': 'i', 'origWidth': 411, 'origHeight': 411, 'width': 411, 'height': 411, 'widthPercent': 0.45, 'rescaleHeight': False, 'trialN': 49, 'loaded': True, 'loadedTime': 3118.699999988079, 'positionName': 'RIGHT', 'positionCoords': [700.96, 173.5], 'bid': 8.93}]",87409.30000001192,1669831150492,baked potato,mango,8.02,8.93,0.9100000000000001,baked potato,1031.199999988079,1032,1032.0,True,u,88957.5,1548.199999988079,1669831152040,1548,HRV,HRV_0158,2022-11-30 18:03:18
50,"[{'imgObject': {}, 'id': 'apple slices', 'src': '/static/foodstim60/apple slices.jpg', 'key': 'u', 'origWidth': 409, 'origHeight': 410, 'width': 409, 'height': 410, 'widthPercent': 0.45, 'rescaleHeight': False, 'trialN': 50, 'loaded': True, 'loadedTime': 3351.199999988079, 'positionName': 'LEFT', 'positionCoords': [238.04, 174], 'bid': 8.88}, {'imgObject': {}, 'id': 'grilled chicken strips', 'src': '/static/foodstim60/grilled chicken strips.jpg', 'key': 'i', 'origWidth': 410, 'origHeight': 411, 'width': 410, 'height': 411, 'widthPercent': 0.45, 'rescaleHeight': False, 'trialN': 50, 'loaded': True, 'loadedTime': 3197.399999976158, 'positionName': 'RIGHT', 'positionCoords': [700.96, 173.5], 'bid': 8.91}]",88957.60000002384,1669831152041,apple slices,grilled chicken strips,8.88,8.91,0.02999999999999936,grilled chicken strips,990.2999999523163,991,991.0999999642372,True,i,90458.10000002384,1500.5,1669831153541,1500,HRV,HRV_0158,2022-11-30 18:03:18
51,"[{'imgObject': {}, 'id': 'raisin bran w milk', 'src': '/static/foodstim60/raisin bran w milk.jpg', 'key': 'u', 'origWidth': 411, 'origHeight': 411, 'width': 411, 'height': 411, 'widthPercent': 0.45, 'rescaleHeight': False, 'trialN': 51, 'loaded': True, 'loadedTime': 3341.600000023842, 'positionName': 'LEFT', 'positionCoords': [236.04, 173.5], 'bid': 4.8}, {'imgObject': {}, 'id': 'avocado', 'src': '/static/foodstim60/avocado.jpg', 'key': 'i', 'origWidth': 409, 'origHeight': 409, 'width': 409, 'height': 409, 'widthPercent': 0.45, 'rescaleHeight': False, 'trialN': 51, 'loaded': True, 'loadedTime': 3079, 'positionName': 'RIGHT', 'positionCoords': [700.96, 174.5], 'bid': 9.55}]",90458.60000002384,1669831153542,raisin bran w milk,avocado,4.8,9.55,4.750000000000001,avocado,1046.0,1046,1046.5999999642372,True,i,92022.19999998808,1563.5999999642372,1669831155105,1563,HRV,HRV_0158,2022-11-30 18:03:18
52,"[{'imgObject': {}, 'id': 'froot loops w milk', 'src': '/static/foodstim60/froot loops w milk.jpg', 'key': 'u', 'origWidth': 410, 'origHeight': 410, 'width': 410, 'height': 410, 'widthPercent': 0.45, 'rescaleHeight': False, 'trialN': 52, 'loaded': True, 'loadedTime': 3351.199999988079, 'positionName': 'LEFT', 'positionCoords': [237.04, 174], 'bid': 1.02}, {'imgObject': {}, 'id': 'salad w chicken', 'src': '/static/foodstim60/salad w chicken.jpg', 'key': 'i', 'origWidth': 411, 'origHeight': 411, 'width': 411, 'height': 411, 'widthPercent': 0.45, 'rescaleHeight': False, 'trialN': 52, 'loaded': True, 'loadedTime': 3329.199999988079, 'positionName': 'RIGHT', 'positionCoords': [700.96, 173.5], 'bid': 3.36}]",92022.60000002384,1669831155106,froot loops w milk,salad w chicken,1.02,3.36,2.34,salad w chicken,1156.3999999761581,1156,1156.5999999642372,True,i,93686.89999997616,1664.2999999523163,1669831156770,1664,HRV,HRV_0158,2022-11-30 18:03:18
53,"[{'imgObject': {}, 'id': 'cocktailshrimp', 'src': '/static/foodstim60/cocktailshrimp.jpg', 'key': 'u', 'origWidth': 410, 'origHeight': 410, 'width': 410, 'height': 410, 'widthPercent': 0.45, 'rescaleHeight': False, 'trialN': 53, 'loaded': True, 'loadedTime': 3343.199999988079, 'positionName': 'LEFT', 'positionCoords': [237.04, 174], 'bid': 8.33}, {'imgObject': {}, 'id': 'Grapes', 'src': '/static/foodstim60/Grapes.jpg', 'key': 'i', 'origWidth': 411, 'origHeight': 411, 'width': 411, 'height': 411, 'widthPercent': 0.45, 'rescaleHeight': False, 'trialN': 53, 'loaded': True, 'loadedTime': 3310.5, 'positionName': 'RIGHT', 'positionCoords': [700.96, 173.5], 'bid': 8.57}]",93687.30000001192,1669831156770,cocktailshrimp,Grapes,8.33,8.57,0.2400000000000002,cocktailshrimp,1520.300000011921,1521,1520.699999988079,True,u,95718.19999998808,2030.8999999761581,1669831158801,2031,HRV,HRV_0158,2022-11-30 18:03:18
54,"[{'imgObject': {}, 'id': 'turkey sandwich', 'src': '/static/foodstim60/turkey sandwich.jpg', 'key': 'u', 'origWidth': 409, 'origHeight': 409, 'width': 409, 'height': 409, 'widthPercent': 0.45, 'rescaleHeight': False, 'trialN': 54, 'loaded': True, 'loadedTime': 3150.5, 'positionName': 'LEFT', 'positionCoords': [238.04, 174.5], 'bid': 2.92}, {'imgObject': {}, 'id': 'fried eggs', 'src': '/static/foodstim60/fried eggs.jpg', 'key': 'i', 'origWidth': 410, 'origHeight': 410, 'width': 410, 'height': 410, 'widthPercent': 0.45, 'rescaleHeight': False, 'trialN': 54, 'loaded': True, 'loadedTime': 3243.899999976158, 'positionName': 'RIGHT', 'positionCoords': [700.96, 174], 'bid': 3.13}]",95718.60000002384,1669831158802,turkey sandwich,fried eggs,2.92,3.13,0.20999999999999996,turkey sandwich,1378.2999999523163,1379,1379.0,True,u,97602.39999997616,1883.7999999523163,1669831160685,1883,HRV,HRV_0158,2022-11-30 18:03:18
55,"[{'imgObject': {}, 'id': 'steak', 'src': '/static/foodstim60/steak.jpg', 'key': 'u', 'origWidth': 410, 'origHeight': 410, 'width': 410, 'height': 410, 'widthPercent': 0.45, 'rescaleHeight': False, 'trialN': 55, 'loaded': True, 'loadedTime': 3216.800000011921, 'positionName': 'LEFT', 'positionCoords': [237.04, 174], 'bid': 9.86}, {'imgObject': {}, 'id': 'cantaloupe', 'src': '/static/foodstim60/cantaloupe.jpg', 'key': 'i', 'origWidth': 409, 'origHeight': 409, 'width': 409, 'height': 409, 'widthPercent': 0.45, 'rescaleHeight': False, 'trialN': 55, 'loaded': True, 'loadedTime': 3226.800000011921, 'positionName': 'RIGHT', 'positionCoords': [700.96, 174.5], 'bid': 8.73}]",97602.80000001192,1669831160686,steak,cantaloupe,9.86,8.73,-1.129999999999999,steak,855.3999999761581,856,855.8000000119209,True,u,98968.19999998808,1365.3999999761581,1669831162051,1365,HRV,HRV_0158,2022-11-30 18:03:18
56,"[{'imgObject': {}, 'id': 'edamame', 'src': '/static/foodstim60/edamame.jpg', 'key': 'u', 'origWidth': 409, 'origHeight': 410, 'width': 409, 'height': 410, 'widthPercent': 0.45, 'rescaleHeight': False, 'trialN': 56, 'loaded': True, 'loadedTime': 3321.5, 'positionName': 'LEFT', 'positionCoords': [238.04, 174], 'bid': 3.17}, {'imgObject': {}, 'id': 'Tribe humus pita', 'src': '/static/foodstim60/Tribe humus pita.jpg', 'key': 'i', 'origWidth': 411, 'origHeight': 411, 'width': 411, 'height': 411, 'widthPercent': 0.45, 'rescaleHeight': False, 'trialN': 56, 'loaded': True, 'loadedTime': 3320.100000023842, 'positionName': 'RIGHT', 'positionCoords': [700.96, 173.5], 'bid': 8.78}]",98968.60000002384,1669831162052,edamame,Tribe humus pita,3.17,8.78,5.609999999999999,Tribe humus pita,1019.8999999761581,1020,1020.5999999642372,True,i,100498.19999998808,1529.5999999642372,1669831163581,1529,HRV,HRV_0158,2022-11-30 18:03:18
57,"[{'imgObject': {}, 'id': 'steak', 'src': '/static/foodstim60/steak.jpg', 'key': 'u', 'origWidth': 410, 'origHeight': 410, 'width': 410, 'height': 410, 'widthPercent': 0.45, 'rescaleHeight': False, 'trialN': 57, 'loaded': True, 'loadedTime': 3217, 'positionName': 'LEFT', 'positionCoords': [237.04, 174], 'bid': 9.86}, {'imgObject': {}, 'id': 'avocado', 'src': '/static/foodstim60/avocado.jpg', 'key': 'i', 'origWidth': 409, 'origHeight': 409, 'width': 409, 'height': 409, 'widthPercent': 0.45, 'rescaleHeight': False, 'trialN': 57, 'loaded': True, 'loadedTime': 3078.899999976158, 'positionName': 'RIGHT', 'positionCoords': [700.96, 174.5], 'bid': 9.55}]",100498.39999997616,1669831163581,steak,avocado,9.86,9.55,-0.3099999999999987,steak,1117.9000000357628,1119,1118.6000000238419,True,u,102130.80000001192,1632.4000000357628,1669831165214,1633,HRV,HRV_0158,2022-11-30 18:03:18
58,"[{'imgObject': {}, 'id': 'apple slices', 'src': '/static/foodstim60/apple slices.jpg', 'key': 'u', 'origWidth': 409, 'origHeight': 410, 'width': 409, 'height': 410, 'widthPercent': 0.45, 'rescaleHeight': False, 'trialN': 58, 'loaded': True, 'loadedTime': 3351, 'positionName': 'LEFT', 'positionCoords': [238.04, 174], 'bid': 8.88}, {'imgObject': {}, 'id': 'chickenfingers', 'src': '/static/foodstim60/chickenfingers.jpg', 'key': 'i', 'origWidth': 410, 'origHeight': 410, 'width': 410, 'height': 410, 'widthPercent': 0.45, 'rescaleHeight': False, 'trialN': 58, 'loaded': True, 'loadedTime': 3303.100000023842, 'positionName': 'RIGHT', 'positionCoords': [700.96, 174], 'bid': 10}]",102130.89999997616,1669831165214,apple slices,chickenfingers,8.88,10.0,1.1199999999999992,chickenfingers,843.0,844,843.6000000238419,True,i,103496.39999997616,1365.5,1669831166579,1365,HRV,HRV_0158,2022-11-30 18:03:18
59,"[{'imgObject': {}, 'id': 'veggieswithdip', 'src': '/static/foodstim60/veggieswithdip.jpg', 'key': 'u', 'origWidth': 409, 'origHeight': 409, 'width': 409, 'height': 409, 'widthPercent': 0.45, 'rescaleHeight': False, 'trialN': 59, 'loaded': True, 'loadedTime': 3272.100000023842, 'positionName': 'LEFT', 'positionCoords': [238.04, 174.5], 'bid': 5.57}, {'imgObject': {}, 'id': 'turkeysandwich', 'src': '/static/foodstim60/turkeysandwich.jpg', 'key': 'i', 'origWidth': 409, 'origHeight': 409, 'width': 409, 'height': 409, 'widthPercent': 0.45, 'rescaleHeight': False, 'trialN': 59, 'loaded': True, 'loadedTime': 3319, 'positionName': 'RIGHT', 'positionCoords': [700.96, 174.5], 'bid': 5.68}]",103496.69999998808,1669831166580,veggieswithdip,turkeysandwich,5.57,5.68,0.10999999999999943,turkeysandwich,1115.1000000238419,1115,1115.4000000357628,True,i,105127.89999997616,1631.199999988079,1669831168211,1631,HRV,HRV_0158,2022-11-30 18:03:18
60,"[{'imgObject': {}, 'id': 'yogurt no spoon', 'src': '/static/foodstim60/yogurt no spoon.jpg', 'key': 'u', 'origWidth': 411, 'origHeight': 410, 'width': 411, 'height': 410, 'widthPercent': 0.45, 'rescaleHeight': False, 'trialN': 60, 'loaded': True, 'loadedTime': 3283.600000023842, 'positionName': 'LEFT', 'positionCoords': [236.04, 174], 'bid': 6.26}, {'imgObject': {}, 'id': 'eggs', 'src': '/static/foodstim60/eggs.jpg', 'key': 'i', 'origWidth': 409, 'origHeight': 409, 'width': 409, 'height': 409, 'widthPercent': 0.45, 'rescaleHeight': False, 'trialN': 60, 'loaded': True, 'loadedTime': 3175, 'positionName': 'RIGHT', 'positionCoords': [700.96, 174.5], 'bid': 5.84}]",105128.30000001192,1669831168211,yogurt no spoon,eggs,6.26,5.84,-0.41999999999999993,eggs,1043.800000011921,1045,1044.5,True,i,106693.19999998808,1564.8999999761581,1669831169776,1565,HRV,HRV_0158,2022-11-30 18:03:18
61,"[{'imgObject': {}, 'id': 'lox', 'src': '/static/foodstim60/lox.jpg', 'key': 'u', 'origWidth': 410, 'origHeight': 411, 'width': 410, 'height': 411, 'widthPercent': 0.45, 'rescaleHeight': False, 'trialN': 61, 'loaded': True, 'loadedTime': 3352.199999988079, 'positionName': 'LEFT', 'positionCoords': [237.04, 173.5], 'bid': 2.87}, {'imgObject': {}, 'id': 'popsicles', 'src': '/static/foodstim60/popsicles.jpg', 'key': 'i', 'origWidth': 410, 'origHeight': 410, 'width': 410, 'height': 410, 'widthPercent': 0.45, 'rescaleHeight': False, 'trialN': 61, 'loaded': True, 'loadedTime': 3379.300000011921, 'positionName': 'RIGHT', 'positionCoords': [700.96, 174], 'bid': 0.65}]",106693.60000002384,1669831169777,lox,popsicles,2.87,0.65,-2.22,lox,673.3999999761581,673,673.6999999880791,True,u,107875.69999998808,1182.0999999642372,1669831170959,1182,HRV,HRV_0158,2022-11-30 18:03:18
62,"[{'imgObject': {}, 'id': 'cantaloupe', 'src': '/static/foodstim60/cantaloupe.jpg', 'key': 'u', 'origWidth': 409, 'origHeight': 409, 'width': 409, 'height': 409, 'widthPercent': 0.45, 'rescaleHeight': False, 'trialN': 62, 'loaded': True, 'loadedTime': 3226.600000023842, 'positionName': 'LEFT', 'positionCoords': [238.04, 174.5], 'bid': 8.73}, {'imgObject': {}, 'id': 'mac & cheese', 'src': '/static/foodstim60/mac & cheese.jpg', 'key': 'i', 'origWidth': 410, 'origHeight': 410, 'width': 410, 'height': 410, 'widthPercent': 0.45, 'rescaleHeight': False, 'trialN': 62, 'loaded': True, 'loadedTime': 3282.399999976158, 'positionName': 'RIGHT', 'positionCoords': [700.96, 174], 'bid': 6.05}]",107876.0,1669831170959,cantaloupe,mac & cheese,8.73,6.05,-2.6800000000000006,mac & cheese,913.6000000238419,914,913.8999999761581,True,i,109308.60000002384,1432.6000000238419,1669831172392,1433,HRV,HRV_0158,2022-11-30 18:03:18
63,"[{'imgObject': {}, 'id': 'mashed potato', 'src': '/static/foodstim60/mashed potato.jpg', 'key': 'u', 'origWidth': 409, 'origHeight': 409, 'width': 409, 'height': 409, 'widthPercent': 0.45, 'rescaleHeight': False, 'trialN': 63, 'loaded': True, 'loadedTime': 3252.800000011921, 'positionName': 'LEFT', 'positionCoords': [238.04, 174.5], 'bid': 2.89}, {'imgObject': {}, 'id': 'olives', 'src': '/static/foodstim60/olives.jpg', 'key': 'i', 'origWidth': 410, 'origHeight': 410, 'width': 410, 'height': 410, 'widthPercent': 0.45, 'rescaleHeight': False, 'trialN': 63, 'loaded': True, 'loadedTime': 3292.199999988079, 'positionName': 'RIGHT', 'positionCoords': [700.96, 174], 'bid': 8.42}]",109309.10000002384,1669831172392,mashed potato,olives,2.89,8.42,5.529999999999999,olives,1034.2999999523163,1035,1035.199999988079,True,i,110855.89999997616,1546.7999999523163,1669831173939,1547,HRV,HRV_0158,2022-11-30 18:03:18
64,"[{'imgObject': {}, 'id': 'baked potato', 'src': '/static/foodstim60/baked potato.jpg', 'key': 'u', 'origWidth': 409, 'origHeight': 410, 'width': 409, 'height': 410, 'widthPercent': 0.45, 'rescaleHeight': False, 'trialN': 64, 'loaded': True, 'loadedTime': 3293.300000011921, 'positionName': 'LEFT', 'positionCoords': [238.04, 174], 'bid': 8.02}, {'imgObject': {}, 'id': 'steak', 'src': '/static/foodstim60/steak.jpg', 'key': 'i', 'origWidth': 410, 'origHeight': 410, 'width': 410, 'height': 410, 'widthPercent': 0.45, 'rescaleHeight': False, 'trialN': 64, 'loaded': True, 'loadedTime': 3217.100000023842, 'positionName': 'RIGHT', 'positionCoords': [700.96, 174], 'bid': 9.86}]",110856.10000002384,1669831173939,baked potato,steak,8.02,9.86,1.8399999999999999,steak,640.3999999761581,641,641.0,True,i,112006.60000002384,1150.5,1669831175090,1151,HRV,HRV_0158,2022-11-30 18:03:18
65,"[{'imgObject': {}, 'id': 'froot loops w milk', 'src': '/static/foodstim60/froot loops w milk.jpg', 'key': 'u', 'origWidth': 410, 'origHeight': 410, 'width': 410, 'height': 410, 'widthPercent': 0.45, 'rescaleHeight': False, 'trialN': 65, 'loaded': True, 'loadedTime': 3352, 'positionName': 'LEFT', 'positionCoords': [237.04, 174], 'bid': 1.02}, {'imgObject': {}, 'id': 'rigatoni', 'src': '/static/foodstim60/rigatoni.jpg', 'key': 'i', 'origWidth': 411, 'origHeight': 411, 'width': 411, 'height': 411, 'widthPercent': 0.45, 'rescaleHeight': False, 'trialN': 65, 'loaded': True, 'loadedTime': 3342.899999976158, 'positionName': 'RIGHT', 'positionCoords': [700.96, 173.5], 'bid': 2.4}]",112006.80000001192,1669831175090,froot loops w milk,rigatoni,1.02,2.4,1.38,rigatoni,745.8000000119209,746,746.1999999880791,True,i,113271.60000002384,1264.800000011921,1669831176355,1265,HRV,HRV_0158,2022-11-30 18:03:18
66,"[{'imgObject': {}, 'id': 'seaweed', 'src': '/static/foodstim60/seaweed.jpg', 'key': 'u', 'origWidth': 410, 'origHeight': 410, 'width': 410, 'height': 410, 'widthPercent': 0.45, 'rescaleHeight': False, 'trialN': 66, 'loaded': True, 'loadedTime': 3235.399999976158, 'positionName': 'LEFT', 'positionCoords': [237.04, 174], 'bid': 0.63}, {'imgObject': {}, 'id': 'froot loops w milk', 'src': '/static/foodstim60/froot loops w milk.jpg', 'key': 'i', 'origWidth': 410, 'origHeight': 410, 'width': 410, 'height': 410, 'widthPercent': 0.45, 'rescaleHeight': False, 'trialN': 66, 'loaded': True, 'loadedTime': 3352.100000023842, 'positionName': 'RIGHT', 'positionCoords': [700.96, 174], 'bid': 1.02}]",113272.0,1669831176355,seaweed,froot loops w milk,0.63,1.02,0.39,froot loops w milk,731.0,731,731.3999999761581,True,i,114513.5,1241.5,1669831177596,1241,HRV,HRV_0158,2022-11-30 18:03:18
67,"[{'imgObject': {}, 'id': 'orange slices', 'src': '/static/foodstim60/orange slices.jpg', 'key': 'u', 'origWidth': 409, 'origHeight': 410, 'width': 409, 'height': 410, 'widthPercent': 0.45, 'rescaleHeight': False, 'trialN': 67, 'loaded': True, 'loadedTime': 3270.699999988079, 'positionName': 'LEFT', 'positionCoords': [238.04, 174], 'bid': 7.92}, {'imgObject': {}, 'id': 'avocado', 'src': '/static/foodstim60/avocado.jpg', 'key': 'i', 'origWidth': 409, 'origHeight': 409, 'width': 409, 'height': 409, 'widthPercent': 0.45, 'rescaleHeight': False, 'trialN': 67, 'loaded': True, 'loadedTime': 3079.100000023842, 'positionName': 'RIGHT', 'positionCoords': [700.96, 174.5], 'bid': 9.55}]",114513.60000002384,1669831177597,orange slices,avocado,7.92,9.55,1.6300000000000008,avocado,1839.2999999523163,1839,1839.5999999642372,True,i,116867.69999998808,2354.099999964237,1669831179951,2354,HRV,HRV_0158,2022-11-30 18:03:18
68,"[{'imgObject': {}, 'id': 'strawberries', 'src': '/static/foodstim60/strawberries.jpg', 'key': 'u', 'origWidth': 410, 'origHeight': 410, 'width': 410, 'height': 410, 'widthPercent': 0.45, 'rescaleHeight': False, 'trialN': 68, 'loaded': True, 'loadedTime': 3142.5, 'positionName': 'LEFT', 'positionCoords': [237.04, 174], 'bid': 8.94}, {'imgObject': {}, 'id': 'cocktailshrimp', 'src': '/static/foodstim60/cocktailshrimp.jpg', 'key': 'i', 'origWidth': 410, 'origHeight': 410, 'width': 410, 'height': 410, 'widthPercent': 0.45, 'rescaleHeight': False, 'trialN': 68, 'loaded': True, 'loadedTime': 3349.800000011921, 'positionName': 'RIGHT', 'positionCoords': [700.96, 174], 'bid': 8.33}]",116868.10000002384,1669831179951,strawberries,cocktailshrimp,8.94,8.33,-0.6099999999999994,cocktailshrimp,1329.7999999523163,1331,1330.5999999642372,True,i,118717.80000001192,1849.699999988079,1669831181801,1850,HRV,HRV_0158,2022-11-30 18:03:18
69,"[{'imgObject': {}, 'id': 'seaweed', 'src': '/static/foodstim60/seaweed.jpg', 'key': 'u', 'origWidth': 410, 'origHeight': 410, 'width': 410, 'height': 410, 'widthPercent': 0.45, 'rescaleHeight': False, 'trialN': 69, 'loaded': True, 'loadedTime': 3234.199999988079, 'positionName': 'LEFT', 'positionCoords': [237.04, 174], 'bid': 0.63}, {'imgObject': {}, 'id': 'blackbeanswithrice', 'src': '/static/foodstim60/blackbeanswithrice.jpg', 'key': 'i', 'origWidth': 410, 'origHeight': 410, 'width': 410, 'height': 410, 'widthPercent': 0.45, 'rescaleHeight': False, 'trialN': 69, 'loaded': True, 'loadedTime': 3260.699999988079, 'positionName': 'RIGHT', 'positionCoords': [700.96, 174], 'bid': 2.87}]",118718.0,1669831181801,seaweed,blackbeanswithrice,0.63,2.87,2.24,blackbeanswithrice,891.6000000238419,892,892.3000000119209,True,i,120114.60000002384,1396.6000000238419,1669831183198,1397,HRV,HRV_0158,2022-11-30 18:03:18
70,"[{'imgObject': {}, 'id': 'orange slices', 'src': '/static/foodstim60/orange slices.jpg', 'key': 'u', 'origWidth': 409, 'origHeight': 410, 'width': 409, 'height': 410, 'widthPercent': 0.45, 'rescaleHeight': False, 'trialN': 70, 'loaded': True, 'loadedTime': 3270.800000011921, 'positionName': 'LEFT', 'positionCoords': [238.04, 174], 'bid': 7.92}, {'imgObject': {}, 'id': 'sweetpotato', 'src': '/static/foodstim60/sweetpotato.jpg', 'key': 'i', 'origWidth': 410, 'origHeight': 410, 'width': 410, 'height': 410, 'widthPercent': 0.45, 'rescaleHeight': False, 'trialN': 70, 'loaded': True, 'loadedTime': 3166.100000023842, 'positionName': 'RIGHT', 'positionCoords': [700.96, 174], 'bid': 8.66}]",120114.80000001192,1669831183198,orange slices,sweetpotato,7.92,8.66,0.7400000000000002,orange slices,1273.199999988079,1274,1274.0,True,u,121897.80000001192,1783.0,1669831184981,1783,HRV,HRV_0158,2022-11-30 18:03:18
71,"[{'imgObject': {}, 'id': 'rigatoni and sauce', 'src': '/static/foodstim60/rigatoni and sauce.jpg', 'key': 'u', 'origWidth': 410, 'origHeight': 411, 'width': 410, 'height': 411, 'widthPercent': 0.45, 'rescaleHeight': False, 'trialN': 71, 'loaded': True, 'loadedTime': 3340.5, 'positionName': 'LEFT', 'positionCoords': [237.04, 173.5], 'bid': 3.88}, {'imgObject': {}, 'id': 'salad w chicken', 'src': '/static/foodstim60/salad w chicken.jpg', 'key': 'i', 'origWidth': 411, 'origHeight': 411, 'width': 411, 'height': 411, 'widthPercent': 0.45, 'rescaleHeight': False, 'trialN': 71, 'loaded': True, 'loadedTime': 3321.699999988079, 'positionName': 'RIGHT', 'positionCoords': [700.96, 173.5], 'bid': 3.36}]",121898.19999998808,1669831184981,rigatoni and sauce,salad w chicken,3.88,3.36,-0.52,salad w chicken,1272.4000000357628,1273,1272.800000011921,True,i,123678.89999997616,1780.699999988079,1669831186762,1781,HRV,HRV_0158,2022-11-30 18:03:18
72,"[{'imgObject': {}, 'id': 'chicken nuggets2', 'src': '/static/foodstim60/chicken nuggets2.jpg', 'key': 'u', 'origWidth': 410, 'origHeight': 409, 'width': 410, 'height': 409, 'widthPercent': 0.45, 'rescaleHeight': False, 'trialN': 72, 'loaded': True, 'loadedTime': 3141.199999988079, 'positionName': 'LEFT', 'positionCoords': [237.04, 174.5], 'bid': 9.89}, {'imgObject': {}, 'id': 'pear', 'src': '/static/foodstim60/pear.jpg', 'key': 'i', 'origWidth': 411, 'origHeight': 410, 'width': 411, 'height': 410, 'widthPercent': 0.45, 'rescaleHeight': False, 'trialN': 72, 'loaded': True, 'loadedTime': 3133.100000023842, 'positionName': 'RIGHT', 'positionCoords': [700.96, 174], 'bid': 9.89}]",123679.10000002384,1669831186762,chicken nuggets2,pear,9.89,9.89,0.0,chicken nuggets2,1155.3999999761581,1156,1156.0999999642372,True,u,125348.0,1668.8999999761581,1669831188431,1669,HRV,HRV_0158,2022-11-30 18:03:18
73,"[{'imgObject': {}, 'id': 'ice cream sundae 002', 'src': '/static/foodstim60/ice cream sundae 002.jpg', 'key': 'u', 'origWidth': 409, 'origHeight': 409, 'width': 409, 'height': 409, 'widthPercent': 0.45, 'rescaleHeight': False, 'trialN': 73, 'loaded': True, 'loadedTime': 3251.399999976158, 'positionName': 'LEFT', 'positionCoords': [238.04, 174.5], 'bid': 3.69}, {'imgObject': {}, 'id': 'luckycharms', 'src': '/static/foodstim60/luckycharms.jpg', 'key': 'i', 'origWidth': 410, 'origHeight': 409, 'width': 410, 'height': 409, 'widthPercent': 0.45, 'rescaleHeight': False, 'trialN': 73, 'loaded': True, 'loadedTime': 3108.199999988079, 'positionName': 'RIGHT', 'positionCoords': [700.96, 174.5], 'bid': 1.52}]",125348.60000002384,1669831188432,ice cream sundae 002,luckycharms,3.69,1.52,-2.17,ice cream sundae 002,1015.5,1016,1016.2999999523163,True,u,126874.69999998808,1526.0999999642372,1669831189958,1526,HRV,HRV_0158,2022-11-30 18:03:18
74,"[{'imgObject': {}, 'id': 'bagel plain', 'src': '/static/foodstim60/bagel plain.jpg', 'key': 'u', 'origWidth': 410, 'origHeight': 410, 'width': 410, 'height': 410, 'widthPercent': 0.45, 'rescaleHeight': False, 'trialN': 74, 'loaded': True, 'loadedTime': 3354.199999988079, 'positionName': 'LEFT', 'positionCoords': [237.04, 174], 'bid': 6.48}, {'imgObject': {}, 'id': 'granola w milk', 'src': '/static/foodstim60/granola w milk.jpg', 'key': 'i', 'origWidth': 410, 'origHeight': 410, 'width': 410, 'height': 410, 'widthPercent': 0.45, 'rescaleHeight': False, 'trialN': 74, 'loaded': True, 'loadedTime': 3355.600000023842, 'positionName': 'RIGHT', 'positionCoords': [700.96, 174], 'bid': 4.73}]",126875.0,1669831189958,bagel plain,granola w milk,6.48,4.73,-1.75,bagel plain,1323.5,1324,1324.1000000238419,True,u,128708.69999998808,1833.699999988079,1669831191792,1834,HRV,HRV_0158,2022-11-30 18:03:18
75,"[{'imgObject': {}, 'id': 'shreddedwheatwithmilk', 'src': '/static/foodstim60/shreddedwheatwithmilk.jpg', 'key': 'u', 'origWidth': 410, 'origHeight': 410, 'width': 410, 'height': 410, 'widthPercent': 0.45, 'rescaleHeight': False, 'trialN': 75, 'loaded': True, 'loadedTime': 3356.399999976158, 'positionName': 'LEFT', 'positionCoords': [237.04, 174], 'bid': 4.16}, {'imgObject': {}, 'id': 'mac & cheese', 'src': '/static/foodstim60/mac & cheese.jpg', 'key': 'i', 'origWidth': 410, 'origHeight': 410, 'width': 410, 'height': 410, 'widthPercent': 0.45, 'rescaleHeight': False, 'trialN': 75, 'loaded': True, 'loadedTime': 3282.199999988079, 'positionName': 'RIGHT', 'positionCoords': [700.96, 174], 'bid': 6.05}]",128709.0,1669831191792,shreddedwheatwithmilk,mac & cheese,4.16,6.05,1.8899999999999997,mac & cheese,983.3000000119209,984,984.1999999880791,True,i,130203.89999997616,1494.8999999761581,1669831193287,1495,HRV,HRV_0158,2022-11-30 18:03:18
76,"[{'imgObject': {}, 'id': 'lox', 'src': '/static/foodstim60/lox.jpg', 'key': 'u', 'origWidth': 410, 'origHeight': 411, 'width': 410, 'height': 411, 'widthPercent': 0.45, 'rescaleHeight': False, 'trialN': 76, 'loaded': True, 'loadedTime': 3353.399999976158, 'positionName': 'LEFT', 'positionCoords': [237.04, 173.5], 'bid': 2.87}, {'imgObject': {}, 'id': 'hashbrowns', 'src': '/static/foodstim60/hashbrowns.jpg', 'key': 'i', 'origWidth': 411, 'origHeight': 410, 'width': 411, 'height': 410, 'widthPercent': 0.45, 'rescaleHeight': False, 'trialN': 76, 'loaded': True, 'loadedTime': 3311.600000023842, 'positionName': 'RIGHT', 'positionCoords': [700.96, 174], 'bid': 2.81}]",130204.30000001192,1669831193287,lox,hashbrowns,2.87,2.81,-0.06000000000000005,hashbrowns,1005.8999999761581,1007,1006.5999999642372,True,i,131720.69999998808,1516.3999999761581,1669831194803,1516,HRV,HRV_0158,2022-11-30 18:03:18
77,"[{'imgObject': {}, 'id': 'turkey sandwich', 'src': '/static/foodstim60/turkey sandwich.jpg', 'key': 'u', 'origWidth': 409, 'origHeight': 409, 'width': 409, 'height': 409, 'widthPercent': 0.45, 'rescaleHeight': False, 'trialN': 77, 'loaded': True, 'loadedTime': 3148.699999988079, 'positionName': 'LEFT', 'positionCoords': [238.04, 174.5], 'bid': 2.92}, {'imgObject': {}, 'id': 'cherry tomato', 'src': '/static/foodstim60/cherry tomato.jpg', 'key': 'i', 'origWidth': 410, 'origHeight': 410, 'width': 410, 'height': 410, 'widthPercent': 0.45, 'rescaleHeight': False, 'trialN': 77, 'loaded': True, 'loadedTime': 3364.199999988079, 'positionName': 'RIGHT', 'positionCoords': [700.96, 174], 'bid': 5.8}]",131721.0,1669831194804,turkey sandwich,cherry tomato,2.92,5.8,2.88,turkey sandwich,866.1999999880791,866,866.8999999761581,True,u,133102.80000001192,1381.800000011921,1669831196185,1381,HRV,HRV_0158,2022-11-30 18:03:18
78,"[{'imgObject': {}, 'id': 'granola w milk', 'src': '/static/foodstim60/granola w milk.jpg', 'key': 'u', 'origWidth': 410, 'origHeight': 410, 'width': 410, 'height': 410, 'widthPercent': 0.45, 'rescaleHeight': False, 'trialN': 78, 'loaded': True, 'loadedTime': 3355.5, 'positionName': 'LEFT', 'positionCoords': [237.04, 174], 'bid': 4.73}, {'imgObject': {}, 'id': 'shreddedwheatwithmilk', 'src': '/static/foodstim60/shreddedwheatwithmilk.jpg', 'key': 'i', 'origWidth': 410, 'origHeight': 410, 'width': 410, 'height': 410, 'widthPercent': 0.45, 'rescaleHeight': False, 'trialN': 78, 'loaded': True, 'loadedTime': 3355.699999988079, 'positionName': 'RIGHT', 'positionCoords': [700.96, 174], 'bid': 4.16}]",133102.89999997616,1669831196186,granola w milk,shreddedwheatwithmilk,4.73,4.16,-0.5700000000000003,granola w milk,1256.9000000357628,1257,1257.800000011921,True,u,134869.30000001192,1766.4000000357628,1669831197952,1766,HRV,HRV_0158,2022-11-30 18:03:18
79,"[{'imgObject': {}, 'id': 'Tribe humus pita', 'src': '/static/foodstim60/Tribe humus pita.jpg', 'key': 'u', 'origWidth': 411, 'origHeight': 411, 'width': 411, 'height': 411, 'widthPercent': 0.45, 'rescaleHeight': False, 'trialN': 79, 'loaded': True, 'loadedTime': 3320, 'positionName': 'LEFT', 'positionCoords': [236.04, 173.5], 'bid': 8.78}, {'imgObject': {}, 'id': 'baked potato', 'src': '/static/foodstim60/baked potato.jpg', 'key': 'i', 'origWidth': 409, 'origHeight': 410, 'width': 409, 'height': 410, 'widthPercent': 0.45, 'rescaleHeight': False, 'trialN': 79, 'loaded': True, 'loadedTime': 3293.600000023842, 'positionName': 'RIGHT', 'positionCoords': [700.96, 174], 'bid': 8.02}]",134869.60000002384,1669831197952,Tribe humus pita,baked potato,8.78,8.02,-0.7599999999999998,baked potato,1448.5,1449,1449.199999988079,True,i,136831.39999997616,1961.7999999523163,1669831199914,1962,HRV,HRV_0158,2022-11-30 18:03:18
80,"[{'imgObject': {}, 'id': 'salmon', 'src': '/static/foodstim60/salmon.jpg', 'key': 'u', 'origWidth': 410, 'origHeight': 409, 'width': 410, 'height': 409, 'widthPercent': 0.45, 'rescaleHeight': False, 'trialN': 80, 'loaded': True, 'loadedTime': 3118.199999988079, 'positionName': 'LEFT', 'positionCoords': [237.04, 174.5], 'bid': 10}, {'imgObject': {}, 'id': 'eggs', 'src': '/static/foodstim60/eggs.jpg', 'key': 'i', 'origWidth': 409, 'origHeight': 409, 'width': 409, 'height': 409, 'widthPercent': 0.45, 'rescaleHeight': False, 'trialN': 80, 'loaded': True, 'loadedTime': 3175.300000011921, 'positionName': 'RIGHT', 'positionCoords': [700.96, 174.5], 'bid': 5.84}]",136831.69999998808,1669831199914,salmon,eggs,10.0,5.84,-4.16,salmon,834.0,835,834.6999999880791,True,u,138184.30000001192,1352.6000000238419,1669831201267,1353,HRV,HRV_0158,2022-11-30 18:03:18
81,"[{'imgObject': {}, 'id': 'corn cob', 'src': '/static/foodstim60/corn cob.jpg', 'key': 'u', 'origWidth': 411, 'origHeight': 411, 'width': 411, 'height': 411, 'widthPercent': 0.45, 'rescaleHeight': False, 'trialN': 81, 'loaded': True, 'loadedTime': 3197.800000011921, 'positionName': 'LEFT', 'positionCoords': [236.04, 173.5], 'bid': 6.83}, {'imgObject': {}, 'id': 'hotdog w must', 'src': '/static/foodstim60/hotdog w must.jpg', 'key': 'i', 'origWidth': 409, 'origHeight': 409, 'width': 409, 'height': 409, 'widthPercent': 0.45, 'rescaleHeight': False, 'trialN': 81, 'loaded': True, 'loadedTime': 3233.899999976158, 'positionName': 'RIGHT', 'positionCoords': [700.96, 174.5], 'bid': 1.94}]",138184.60000002384,1669831201267,corn cob,hotdog w must,6.83,1.94,-4.890000000000001,corn cob,1045.5,1046,1045.8999999761581,True,u,139747.69999998808,1563.0999999642372,1669831202830,1563,HRV,HRV_0158,2022-11-30 18:03:18
82,"[{'imgObject': {}, 'id': 'fried eggs', 'src': '/static/foodstim60/fried eggs.jpg', 'key': 'u', 'origWidth': 410, 'origHeight': 410, 'width': 410, 'height': 410, 'widthPercent': 0.45, 'rescaleHeight': False, 'trialN': 82, 'loaded': True, 'loadedTime': 3243.699999988079, 'positionName': 'LEFT', 'positionCoords': [237.04, 174], 'bid': 3.13}, {'imgObject': {}, 'id': 'burger', 'src': '/static/foodstim60/burger.jpg', 'key': 'i', 'origWidth': 409, 'origHeight': 409, 'width': 409, 'height': 409, 'widthPercent': 0.45, 'rescaleHeight': False, 'trialN': 82, 'loaded': True, 'loadedTime': 3365.100000023842, 'positionName': 'RIGHT', 'positionCoords': [700.96, 174.5], 'bid': 4.62}]",139748.10000002384,1669831202831,fried eggs,burger,3.13,4.62,1.4900000000000002,burger,929.5,930,930.0999999642372,True,i,141196.30000001192,1448.199999988079,1669831204279,1448,HRV,HRV_0158,2022-11-30 18:03:18
83,"[{'imgObject': {}, 'id': 'bagel plain', 'src': '/static/foodstim60/bagel plain.jpg', 'key': 'u', 'origWidth': 410, 'origHeight': 410, 'width': 410, 'height': 410, 'widthPercent': 0.45, 'rescaleHeight': False, 'trialN': 83, 'loaded': True, 'loadedTime': 3354.399999976158, 'positionName': 'LEFT', 'positionCoords': [237.04, 174], 'bid': 6.48}, {'imgObject': {}, 'id': 'raspberries', 'src': '/static/foodstim60/raspberries.jpg', 'key': 'i', 'origWidth': 411, 'origHeight': 411, 'width': 411, 'height': 411, 'widthPercent': 0.45, 'rescaleHeight': False, 'trialN': 83, 'loaded': True, 'loadedTime': 3218.199999988079, 'positionName': 'RIGHT', 'positionCoords': [700.96, 173.5], 'bid': 8.81}]",141196.60000002384,1669831204279,bagel plain,raspberries,6.48,8.81,2.33,raspberries,1536.0999999642372,1537,1536.8999999761581,True,i,143243.39999997616,2046.7999999523163,1669831206326,2047,HRV,HRV_0158,2022-11-30 18:03:18
84,"[{'imgObject': {}, 'id': 'hashbrowns', 'src': '/static/foodstim60/hashbrowns.jpg', 'key': 'u', 'origWidth': 411, 'origHeight': 410, 'width': 411, 'height': 410, 'widthPercent': 0.45, 'rescaleHeight': False, 'trialN': 84, 'loaded': True, 'loadedTime': 3311.699999988079, 'positionName': 'LEFT', 'positionCoords': [236.04, 174], 'bid': 2.81}, {'imgObject': {}, 'id': 'rigatoni and sauce', 'src': '/static/foodstim60/rigatoni and sauce.jpg', 'key': 'i', 'origWidth': 410, 'origHeight': 411, 'width': 410, 'height': 411, 'widthPercent': 0.45, 'rescaleHeight': False, 'trialN': 84, 'loaded': True, 'loadedTime': 3340.699999988079, 'positionName': 'RIGHT', 'positionCoords': [700.96, 173.5], 'bid': 3.88}]",143243.5,1669831206326,hashbrowns,rigatoni and sauce,2.81,3.88,1.0699999999999998,rigatoni and sauce,991.3999999761581,992,992.1000000238419,True,i,144737.39999997616,1493.8999999761581,1669831207820,1494,HRV,HRV_0158,2022-11-30 18:03:18
85,"[{'imgObject': {}, 'id': 'cantaloupe', 'src': '/static/foodstim60/cantaloupe.jpg', 'key': 'u', 'origWidth': 409, 'origHeight': 409, 'width': 409, 'height': 409, 'widthPercent': 0.45, 'rescaleHeight': False, 'trialN': 85, 'loaded': True, 'loadedTime': 3226.600000023842, 'positionName': 'LEFT', 'positionCoords': [238.04, 174.5], 'bid': 8.73}, {'imgObject': {}, 'id': 'sweetpotato', 'src': '/static/foodstim60/sweetpotato.jpg', 'key': 'i', 'origWidth': 410, 'origHeight': 410, 'width': 410, 'height': 410, 'widthPercent': 0.45, 'rescaleHeight': False, 'trialN': 85, 'loaded': True, 'loadedTime': 3166.5, 'positionName': 'RIGHT', 'positionCoords': [700.96, 174], 'bid': 8.66}]",144737.60000002384,1669831207820,cantaloupe,sweetpotato,8.73,8.66,-0.07000000000000028,cantaloupe,1287.7999999523163,1289,1288.3999999761581,True,u,146542.80000001192,1805.199999988079,1669831209626,1806,HRV,HRV_0158,2022-11-30 18:03:18
86,"[{'imgObject': {}, 'id': 'rigatoni', 'src': '/static/foodstim60/rigatoni.jpg', 'key': 'u', 'origWidth': 411, 'origHeight': 411, 'width': 411, 'height': 411, 'widthPercent': 0.45, 'rescaleHeight': False, 'trialN': 86, 'loaded': True, 'loadedTime': 3342.899999976158, 'positionName': 'LEFT', 'positionCoords': [236.04, 173.5], 'bid': 2.4}, {'imgObject': {}, 'id': 'orange slices', 'src': '/static/foodstim60/orange slices.jpg', 'key': 'i', 'origWidth': 409, 'origHeight': 410, 'width': 409, 'height': 410, 'widthPercent': 0.45, 'rescaleHeight': False, 'trialN': 86, 'loaded': True, 'loadedTime': 3269.100000023842, 'positionName': 'RIGHT', 'positionCoords': [700.96, 174], 'bid': 7.92}]",146543.19999998808,1669831209626,rigatoni,orange slices,2.4,7.92,5.52,orange slices,952.3000000119209,953,952.8000000119209,True,i,148007.80000001192,1464.6000000238419,1669831211090,1464,HRV,HRV_0158,2022-11-30 18:03:18
87,"[{'imgObject': {}, 'id': 'cherry tomato', 'src': '/static/foodstim60/cherry tomato.jpg', 'key': 'u', 'origWidth': 410, 'origHeight': 410, 'width': 410, 'height': 410, 'widthPercent': 0.45, 'rescaleHeight': False, 'trialN': 87, 'loaded': True, 'loadedTime': 3364, 'positionName': 'LEFT', 'positionCoords': [237.04, 174], 'bid': 5.8}, {'imgObject': {}, 'id': 'orange slices', 'src': '/static/foodstim60/orange slices.jpg', 'key': 'i', 'origWidth': 409, 'origHeight': 410, 'width': 409, 'height': 410, 'widthPercent': 0.45, 'rescaleHeight': False, 'trialN': 87, 'loaded': True, 'loadedTime': 3270.600000023842, 'positionName': 'RIGHT', 'positionCoords': [700.96, 174], 'bid': 7.92}]",148008.0,1669831211091,cherry tomato,orange slices,5.8,7.92,2.12,orange slices,1264.0,1264,1264.6000000238419,True,i,149787.69999998808,1779.699999988079,1669831212870,1779,HRV,HRV_0158,2022-11-30 18:03:18
88,"[{'imgObject': {}, 'id': 'veggieswithdip', 'src': '/static/foodstim60/veggieswithdip.jpg', 'key': 'u', 'origWidth': 409, 'origHeight': 409, 'width': 409, 'height': 409, 'widthPercent': 0.45, 'rescaleHeight': False, 'trialN': 88, 'loaded': True, 'loadedTime': 3271.899999976158, 'positionName': 'LEFT', 'positionCoords': [238.04, 174.5], 'bid': 5.57}, {'imgObject': {}, 'id': 'bagel plain', 'src': '/static/foodstim60/bagel plain.jpg', 'key': 'i', 'origWidth': 410, 'origHeight': 410, 'width': 410, 'height': 410, 'widthPercent': 0.45, 'rescaleHeight': False, 'trialN': 88, 'loaded': True, 'loadedTime': 3353.399999976158, 'positionName': 'RIGHT', 'positionCoords': [700.96, 174], 'bid': 6.48}]",149788.19999998808,1669831212871,veggieswithdip,bagel plain,5.57,6.48,0.9100000000000001,veggieswithdip,1053.800000011921,1054,1054.6000000238419,True,u,151352.80000001192,1564.6000000238419,1669831214435,1564,HRV,HRV_0158,2022-11-30 18:03:18
89,"[{'imgObject': {}, 'id': 'ice cream sundae 002', 'src': '/static/foodstim60/ice cream sundae 002.jpg', 'key': 'u', 'origWidth': 409, 'origHeight': 409, 'width': 409, 'height': 409, 'widthPercent': 0.45, 'rescaleHeight': False, 'trialN': 89, 'loaded': True, 'loadedTime': 3244.100000023842, 'positionName': 'LEFT', 'positionCoords': [238.04, 174.5], 'bid': 3.69}, {'imgObject': {}, 'id': 'edamame', 'src': '/static/foodstim60/edamame.jpg', 'key': 'i', 'origWidth': 409, 'origHeight': 410, 'width': 409, 'height': 410, 'widthPercent': 0.45, 'rescaleHeight': False, 'trialN': 89, 'loaded': True, 'loadedTime': 3321.600000023842, 'positionName': 'RIGHT', 'positionCoords': [700.96, 174], 'bid': 3.17}]",151352.89999997616,1669831214436,ice cream sundae 002,edamame,3.69,3.17,-0.52,ice cream sundae 002,1134.2000000476837,1134,1134.9000000357628,True,u,153002.80000001192,1649.9000000357628,1669831216085,1649,HRV,HRV_0158,2022-11-30 18:03:18
90,"[{'imgObject': {}, 'id': 'cocktailshrimp', 'src': '/static/foodstim60/cocktailshrimp.jpg', 'key': 'u', 'origWidth': 410, 'origHeight': 410, 'width': 410, 'height': 410, 'widthPercent': 0.45, 'rescaleHeight': False, 'trialN': 90, 'loaded': True, 'loadedTime': 3350.100000023842, 'positionName': 'LEFT', 'positionCoords': [237.04, 174], 'bid': 8.33}, {'imgObject': {}, 'id': 'baked potato', 'src': '/static/foodstim60/baked potato.jpg', 'key': 'i', 'origWidth': 409, 'origHeight': 410, 'width': 409, 'height': 410, 'widthPercent': 0.45, 'rescaleHeight': False, 'trialN': 90, 'loaded': True, 'loadedTime': 3293.399999976158, 'positionName': 'RIGHT', 'positionCoords': [700.96, 174], 'bid': 8.02}]",190502.69999998808,1669831253586,cocktailshrimp,baked potato,8.33,8.02,-0.3100000000000005,cocktailshrimp,1278.4000000357628,1279,1279.0,True,u,192301.89999997616,1799.199999988079,1669831255385,1799,HRV,HRV_0158,2022-11-30 18:03:18
91,"[{'imgObject': {}, 'id': 'lox', 'src': '/static/foodstim60/lox.jpg', 'key': 'u', 'origWidth': 410, 'origHeight': 411, 'width': 410, 'height': 411, 'widthPercent': 0.45, 'rescaleHeight': False, 'trialN': 91, 'loaded': True, 'loadedTime': 3353.199999988079, 'positionName': 'LEFT', 'positionCoords': [237.04, 173.5], 'bid': 2.87}, {'imgObject': {}, 'id': 'blackbeanswithrice', 'src': '/static/foodstim60/blackbeanswithrice.jpg', 'key': 'i', 'origWidth': 410, 'origHeight': 410, 'width': 410, 'height': 410, 'widthPercent': 0.45, 'rescaleHeight': False, 'trialN': 91, 'loaded': True, 'loadedTime': 3260.600000023842, 'positionName': 'RIGHT', 'positionCoords': [700.96, 174], 'bid': 2.87}]",192302.19999998808,1669831255386,lox,blackbeanswithrice,2.87,2.87,0.0,lox,1068.800000011921,1069,1069.4000000357628,True,u,193883.60000002384,1581.4000000357628,1669831256967,1581,HRV,HRV_0158,2022-11-30 18:03:18
92,"[{'imgObject': {}, 'id': 'banana', 'src': '/static/foodstim60/banana.jpg', 'key': 'u', 'origWidth': 410, 'origHeight': 410, 'width': 410, 'height': 410, 'widthPercent': 0.45, 'rescaleHeight': False, 'trialN': 92, 'loaded': True, 'loadedTime': 3157, 'positionName': 'LEFT', 'positionCoords': [237.04, 174], 'bid': 6.91}, {'imgObject': {}, 'id': 'tacos', 'src': '/static/foodstim60/tacos.jpg', 'key': 'i', 'origWidth': 411, 'origHeight': 411, 'width': 411, 'height': 411, 'widthPercent': 0.45, 'rescaleHeight': False, 'trialN': 92, 'loaded': True, 'loadedTime': 3208.199999988079, 'positionName': 'RIGHT', 'positionCoords': [700.96, 173.5], 'bid': 5.5}]",193884.0,1669831256967,banana,tacos,6.91,5.5,-1.4100000000000001,tacos,881.3000000119209,882,882.0,True,i,195283.39999997616,1399.3999999761581,1669831258367,1400,HRV,HRV_0158,2022-11-30 18:03:18
93,"[{'imgObject': {}, 'id': 'cheerios', 'src': '/static/foodstim60/cheerios.jpg', 'key': 'u', 'origWidth': 409, 'origHeight': 410, 'width': 409, 'height': 410, 'widthPercent': 0.45, 'rescaleHeight': False, 'trialN': 93, 'loaded': True, 'loadedTime': 3366.199999988079, 'positionName': 'LEFT', 'positionCoords': [238.04, 174], 'bid': 2.95}, {'imgObject': {}, 'id': 'sweetpotato', 'src': '/static/foodstim60/sweetpotato.jpg', 'key': 'i', 'origWidth': 410, 'origHeight': 410, 'width': 410, 'height': 410, 'widthPercent': 0.45, 'rescaleHeight': False, 'trialN': 93, 'loaded': True, 'loadedTime': 3166.300000011921, 'positionName': 'RIGHT', 'positionCoords': [700.96, 174], 'bid': 8.66}]",195283.80000001192,1669831258367,cheerios,sweetpotato,2.95,8.66,5.71,sweetpotato,867.8000000119209,869,868.3999999761581,True,i,196664.80000001192,1381.0,1669831259748,1381,HRV,HRV_0158,2022-11-30 18:03:18
94,"[{'imgObject': {}, 'id': 'turkey sandwich', 'src': '/static/foodstim60/turkey sandwich.jpg', 'key': 'u', 'origWidth': 409, 'origHeight': 409, 'width': 409, 'height': 409, 'widthPercent': 0.45, 'rescaleHeight': False, 'trialN': 94, 'loaded': True, 'loadedTime': 3150.100000023842, 'positionName': 'LEFT', 'positionCoords': [238.04, 174.5], 'bid': 2.92}, {'imgObject': {}, 'id': 'mashed potato', 'src': '/static/foodstim60/mashed potato.jpg', 'key': 'i', 'origWidth': 409, 'origHeight': 409, 'width': 409, 'height': 409, 'widthPercent': 0.45, 'rescaleHeight': False, 'trialN': 94, 'loaded': True, 'loadedTime': 3251.699999988079, 'positionName': 'RIGHT', 'positionCoords': [700.96, 174.5], 'bid': 2.89}]",196665.30000001192,1669831259749,turkey sandwich,mashed potato,2.92,2.89,-0.029999999999999805,turkey sandwich,697.0999999642372,697,697.3999999761581,True,u,197865.30000001192,1200.0,1669831260949,1200,HRV,HRV_0158,2022-11-30 18:03:18
95,"[{'imgObject': {}, 'id': 'rigatoni', 'src': '/static/foodstim60/rigatoni.jpg', 'key': 'u', 'origWidth': 411, 'origHeight': 411, 'width': 411, 'height': 411, 'widthPercent': 0.45, 'rescaleHeight': False, 'trialN': 95, 'loaded': True, 'loadedTime': 3342.699999988079, 'positionName': 'LEFT', 'positionCoords': [236.04, 173.5], 'bid': 2.4}, {'imgObject': {}, 'id': 'hashbrowns', 'src': '/static/foodstim60/hashbrowns.jpg', 'key': 'i', 'origWidth': 411, 'origHeight': 410, 'width': 411, 'height': 410, 'widthPercent': 0.45, 'rescaleHeight': False, 'trialN': 95, 'loaded': True, 'loadedTime': 3311.800000011921, 'positionName': 'RIGHT', 'positionCoords': [700.96, 174], 'bid': 2.81}]",197865.69999998808,1669831260949,rigatoni,hashbrowns,2.4,2.81,0.41000000000000014,rigatoni,750.1999999880791,751,751.1000000238419,True,u,199128.5,1262.800000011921,1669831262212,1263,HRV,HRV_0158,2022-11-30 18:03:18
96,"[{'imgObject': {}, 'id': 'mac & cheese', 'src': '/static/foodstim60/mac & cheese.jpg', 'key': 'u', 'origWidth': 410, 'origHeight': 410, 'width': 410, 'height': 410, 'widthPercent': 0.45, 'rescaleHeight': False, 'trialN': 96, 'loaded': True, 'loadedTime': 3282.300000011921, 'positionName': 'LEFT', 'positionCoords': [237.04, 174], 'bid': 6.05}, {'imgObject': {}, 'id': 'cherry tomato', 'src': '/static/foodstim60/cherry tomato.jpg', 'key': 'i', 'origWidth': 410, 'origHeight': 410, 'width': 410, 'height': 410, 'widthPercent': 0.45, 'rescaleHeight': False, 'trialN': 96, 'loaded': True, 'loadedTime': 3364.199999988079, 'positionName': 'RIGHT', 'positionCoords': [700.96, 174], 'bid': 5.8}]",199128.89999997616,1669831262212,mac & cheese,cherry tomato,6.05,5.8,-0.25,mac & cheese,687.6000000238419,689,688.3000000119209,True,u,200328.69999998808,1199.800000011921,1669831263412,1200,HRV,HRV_0158,2022-11-30 18:03:18
97,"[{'imgObject': {}, 'id': 'raisin bran w milk', 'src': '/static/foodstim60/raisin bran w milk.jpg', 'key': 'u', 'origWidth': 411, 'origHeight': 411, 'width': 411, 'height': 411, 'widthPercent': 0.45, 'rescaleHeight': False, 'trialN': 97, 'loaded': True, 'loadedTime': 3341.800000011921, 'positionName': 'LEFT', 'positionCoords': [236.04, 173.5], 'bid': 4.8}, {'imgObject': {}, 'id': 'granola w milk', 'src': '/static/foodstim60/granola w milk.jpg', 'key': 'i', 'origWidth': 410, 'origHeight': 410, 'width': 410, 'height': 410, 'widthPercent': 0.45, 'rescaleHeight': False, 'trialN': 97, 'loaded': True, 'loadedTime': 3355.300000011921, 'positionName': 'RIGHT', 'positionCoords': [700.96, 174], 'bid': 4.73}]",200329.10000002384,1669831263413,raisin bran w milk,granola w milk,4.8,4.73,-0.0699999999999994,raisin bran w milk,834.5,835,835.1999999880791,True,u,201677.39999997616,1348.2999999523163,1669831264761,1348,HRV,HRV_0158,2022-11-30 18:03:18
98,"[{'imgObject': {}, 'id': 'turkeysandwich', 'src': '/static/foodstim60/turkeysandwich.jpg', 'key': 'u', 'origWidth': 409, 'origHeight': 409, 'width': 409, 'height': 409, 'widthPercent': 0.45, 'rescaleHeight': False, 'trialN': 98, 'loaded': True, 'loadedTime': 3318.5, 'positionName': 'LEFT', 'positionCoords': [238.04, 174.5], 'bid': 5.68}, {'imgObject': {}, 'id': 'chicken nuggets2', 'src': '/static/foodstim60/chicken nuggets2.jpg', 'key': 'i', 'origWidth': 410, 'origHeight': 409, 'width': 410, 'height': 409, 'widthPercent': 0.45, 'rescaleHeight': False, 'trialN': 98, 'loaded': True, 'loadedTime': 3141.100000023842, 'positionName': 'RIGHT', 'positionCoords': [700.96, 174.5], 'bid': 9.89}]",201677.89999997616,1669831264761,turkeysandwich,chicken nuggets2,5.68,9.89,4.210000000000001,chicken nuggets2,652.0,653,652.3000000119209,True,i,202842.69999998808,1164.800000011921,1669831265926,1165,HRV,HRV_0158,2022-11-30 18:03:18
99,"[{'imgObject': {}, 'id': 'shreddedwheatwithmilk', 'src': '/static/foodstim60/shreddedwheatwithmilk.jpg', 'key': 'u', 'origWidth': 410, 'origHeight': 410, 'width': 410, 'height': 410, 'widthPercent': 0.45, 'rescaleHeight': False, 'trialN': 99, 'loaded': True, 'loadedTime': 3356.5, 'positionName': 'LEFT', 'positionCoords': [237.04, 174], 'bid': 4.16}, {'imgObject': {}, 'id': 'cheerios', 'src': '/static/foodstim60/cheerios.jpg', 'key': 'i', 'origWidth': 409, 'origHeight': 410, 'width': 409, 'height': 410, 'widthPercent': 0.45, 'rescaleHeight': False, 'trialN': 99, 'loaded': True, 'loadedTime': 3365.399999976158, 'positionName': 'RIGHT', 'positionCoords': [700.96, 174], 'bid': 2.95}]",202843.10000002384,1669831265926,shreddedwheatwithmilk,cheerios,4.16,2.95,-1.21,shreddedwheatwithmilk,1303.3999999761581,1305,1304.0,True,u,204657.60000002384,1814.5,1669831267741,1815,HRV,HRV_0158,2022-11-30 18:03:18
100,"[{'imgObject': {}, 'id': 'Tribe humus pita', 'src': '/static/foodstim60/Tribe humus pita.jpg', 'key': 'u', 'origWidth': 411, 'origHeight': 411, 'width': 411, 'height': 411, 'widthPercent': 0.45, 'rescaleHeight': False, 'trialN': 100, 'loaded': True, 'loadedTime': 3320.199999988079, 'positionName': 'LEFT', 'positionCoords': [236.04, 173.5], 'bid': 8.78}, {'imgObject': {}, 'id': 'pear', 'src': '/static/foodstim60/pear.jpg', 'key': 'i', 'origWidth': 411, 'origHeight': 410, 'width': 411, 'height': 410, 'widthPercent': 0.45, 'rescaleHeight': False, 'trialN': 100, 'loaded': True, 'loadedTime': 3126.300000011921, 'positionName': 'RIGHT', 'positionCoords': [700.96, 174], 'bid': 9.89}]",204658.0,1669831267741,Tribe humus pita,pear,8.78,9.89,1.1100000000000012,pear,1344.6000000238419,1345,1345.0,True,i,206506.39999997616,1848.3999999761581,1669831269590,1849,HRV,HRV_0158,2022-11-30 18:03:18
101,"[{'imgObject': {}, 'id': 'froot loops w milk', 'src': '/static/foodstim60/froot loops w milk.jpg', 'key': 'u', 'origWidth': 410, 'origHeight': 410, 'width': 410, 'height': 410, 'widthPercent': 0.45, 'rescaleHeight': False, 'trialN': 101, 'loaded': True, 'loadedTime': 3351.899999976158, 'positionName': 'LEFT', 'positionCoords': [237.04, 174], 'bid': 1.02}, {'imgObject': {}, 'id': 'mashed potato', 'src': '/static/foodstim60/mashed potato.jpg', 'key': 'i', 'origWidth': 409, 'origHeight': 409, 'width': 409, 'height': 409, 'widthPercent': 0.45, 'rescaleHeight': False, 'trialN': 101, 'loaded': True, 'loadedTime': 3259, 'positionName': 'RIGHT', 'positionCoords': [700.96, 174.5], 'bid': 2.89}]",206506.60000002384,1669831269590,froot loops w milk,mashed potato,1.02,2.89,1.87,mashed potato,704.0,704,704.3999999761581,True,i,207721.69999998808,1215.0999999642372,1669831270805,1215,HRV,HRV_0158,2022-11-30 18:03:18
102,"[{'imgObject': {}, 'id': 'sushi w_condiments', 'src': '/static/foodstim60/sushi w_condiments.jpg', 'key': 'u', 'origWidth': 410, 'origHeight': 410, 'width': 410, 'height': 410, 'widthPercent': 0.45, 'rescaleHeight': False, 'trialN': 102, 'loaded': True, 'loadedTime': 3301.300000011921, 'positionName': 'LEFT', 'positionCoords': [237.04, 174], 'bid': 2.29}, {'imgObject': {}, 'id': 'burger', 'src': '/static/foodstim60/burger.jpg', 'key': 'i', 'origWidth': 409, 'origHeight': 409, 'width': 409, 'height': 409, 'widthPercent': 0.45, 'rescaleHeight': False, 'trialN': 102, 'loaded': True, 'loadedTime': 3365.199999988079, 'positionName': 'RIGHT', 'positionCoords': [700.96, 174.5], 'bid': 4.62}]",207722.0,1669831270805,sushi w_condiments,burger,2.29,4.62,2.33,burger,948.1999999880791,949,948.5,True,i,209186.89999997616,1464.8999999761581,1669831272270,1465,HRV,HRV_0158,2022-11-30 18:03:18
103,"[{'imgObject': {}, 'id': 'turkey sandwich', 'src': '/static/foodstim60/turkey sandwich.jpg', 'key': 'u', 'origWidth': 409, 'origHeight': 409, 'width': 409, 'height': 409, 'widthPercent': 0.45, 'rescaleHeight': False, 'trialN': 103, 'loaded': True, 'loadedTime': 3150.699999988079, 'positionName': 'LEFT', 'positionCoords': [238.04, 174.5], 'bid': 2.92}, {'imgObject': {}, 'id': 'Grapes', 'src': '/static/foodstim60/Grapes.jpg', 'key': 'i', 'origWidth': 411, 'origHeight': 411, 'width': 411, 'height': 411, 'widthPercent': 0.45, 'rescaleHeight': False, 'trialN': 103, 'loaded': True, 'loadedTime': 3310.699999988079, 'positionName': 'RIGHT', 'positionCoords': [700.96, 173.5], 'bid': 8.57}]",209187.10000002384,1669831272271,turkey sandwich,Grapes,2.92,8.57,5.65,turkey sandwich,917.2999999523163,917,917.8999999761581,True,u,210617.89999997616,1430.7999999523163,1669831273701,1430,HRV,HRV_0158,2022-11-30 18:03:18
104,"[{'imgObject': {}, 'id': 'Tribe humus pita', 'src': '/static/foodstim60/Tribe humus pita.jpg', 'key': 'u', 'origWidth': 411, 'origHeight': 411, 'width': 411, 'height': 411, 'widthPercent': 0.45, 'rescaleHeight': False, 'trialN': 104, 'loaded': True, 'loadedTime': 3320.300000011921, 'positionName': 'LEFT', 'positionCoords': [236.04, 173.5], 'bid': 8.78}, {'imgObject': {}, 'id': 'yogurt no spoon', 'src': '/static/foodstim60/yogurt no spoon.jpg', 'key': 'i', 'origWidth': 411, 'origHeight': 410, 'width': 411, 'height': 410, 'widthPercent': 0.45, 'rescaleHeight': False, 'trialN': 104, 'loaded': True, 'loadedTime': 3283.300000011921, 'positionName': 'RIGHT', 'positionCoords': [700.96, 174], 'bid': 6.26}]",210618.30000001192,1669831273702,Tribe humus pita,yogurt no spoon,8.78,6.26,-2.5199999999999996,Tribe humus pita,1651.0999999642372,1652,1651.8999999761581,True,u,212784.30000001192,2166.0,1669831275868,2166,HRV,HRV_0158,2022-11-30 18:03:18
105,"[{'imgObject': {}, 'id': 'cherry tomato', 'src': '/static/foodstim60/cherry tomato.jpg', 'key': 'u', 'origWidth': 410, 'origHeight': 410, 'width': 410, 'height': 410, 'widthPercent': 0.45, 'rescaleHeight': False, 'trialN': 105, 'loaded': True, 'loadedTime': 3364.100000023842, 'positionName': 'LEFT', 'positionCoords': [237.04, 174], 'bid': 5.8}, {'imgObject': {}, 'id': 'eggs', 'src': '/static/foodstim60/eggs.jpg', 'key': 'i', 'origWidth': 409, 'origHeight': 409, 'width': 409, 'height': 409, 'widthPercent': 0.45, 'rescaleHeight': False, 'trialN': 105, 'loaded': True, 'loadedTime': 3175.100000023842, 'positionName': 'RIGHT', 'positionCoords': [700.96, 174.5], 'bid': 5.84}]",212785.0,1669831275868,cherry tomato,eggs,5.8,5.84,0.040000000000000036,eggs,1437.6000000238419,1439,1438.3999999761581,True,i,214733.5,1948.5,1669831277817,1949,HRV,HRV_0158,2022-11-30 18:03:18
106,"[{'imgObject': {}, 'id': 'rigatoni and sauce', 'src': '/static/foodstim60/rigatoni and sauce.jpg', 'key': 'u', 'origWidth': 410, 'origHeight': 411, 'width': 410, 'height': 411, 'widthPercent': 0.45, 'rescaleHeight': False, 'trialN': 106, 'loaded': True, 'loadedTime': 3339.600000023842, 'positionName': 'LEFT', 'positionCoords': [237.04, 173.5], 'bid': 3.88}, {'imgObject': {}, 'id': 'turkey sandwich', 'src': '/static/foodstim60/turkey sandwich.jpg', 'key': 'i', 'origWidth': 409, 'origHeight': 409, 'width': 409, 'height': 409, 'widthPercent': 0.45, 'rescaleHeight': False, 'trialN': 106, 'loaded': True, 'loadedTime': 3150.399999976158, 'positionName': 'RIGHT', 'positionCoords': [700.96, 174.5], 'bid': 2.92}]",214733.89999997616,1669831277817,rigatoni and sauce,turkey sandwich,3.88,2.92,-0.96,turkey sandwich,939.7000000476837,940,940.0,True,i,216179.60000002384,1445.7000000476837,1669831279263,1446,HRV,HRV_0158,2022-11-30 18:03:18
107,"[{'imgObject': {}, 'id': 'bagel plain', 'src': '/static/foodstim60/bagel plain.jpg', 'key': 'u', 'origWidth': 410, 'origHeight': 410, 'width': 410, 'height': 410, 'widthPercent': 0.45, 'rescaleHeight': False, 'trialN': 107, 'loaded': True, 'loadedTime': 3354.5, 'positionName': 'LEFT', 'positionCoords': [237.04, 174], 'bid': 6.48}, {'imgObject': {}, 'id': 'blueberries', 'src': '/static/foodstim60/blueberries.jpg', 'key': 'i', 'origWidth': 411, 'origHeight': 411, 'width': 411, 'height': 411, 'widthPercent': 0.45, 'rescaleHeight': False, 'trialN': 107, 'loaded': True, 'loadedTime': 3330.899999976158, 'positionName': 'RIGHT', 'positionCoords': [700.96, 173.5], 'bid': 6.51}]",216179.80000001192,1669831279263,bagel plain,blueberries,6.48,6.51,0.02999999999999936,bagel plain,901.6999999880791,902,902.0999999642372,True,u,217595.80000001192,1416.0,1669831280679,1416,HRV,HRV_0158,2022-11-30 18:03:18
108,"[{'imgObject': {}, 'id': 'eggsalad', 'src': '/static/foodstim60/eggsalad.jpg', 'key': 'u', 'origWidth': 410, 'origHeight': 409, 'width': 410, 'height': 409, 'widthPercent': 0.45, 'rescaleHeight': False, 'trialN': 108, 'loaded': True, 'loadedTime': 3331.100000023842, 'positionName': 'LEFT', 'positionCoords': [237.04, 174.5], 'bid': 2.32}, {'imgObject': {}, 'id': 'bagel and cc', 'src': '/static/foodstim60/bagel and cc.jpg', 'key': 'i', 'origWidth': 410, 'origHeight': 410, 'width': 410, 'height': 410, 'widthPercent': 0.45, 'rescaleHeight': False, 'trialN': 108, 'loaded': True, 'loadedTime': 3182.800000011921, 'positionName': 'RIGHT', 'positionCoords': [700.96, 174], 'bid': 7.86}]",217595.89999997616,1669831280679,eggsalad,bagel and cc,2.32,7.86,5.540000000000001,bagel and cc,1001.1000000238419,1002,1001.5,True,i,219111.10000002384,1515.2000000476837,1669831282194,1515,HRV,HRV_0158,2022-11-30 18:03:18
