trialN,stimuli,question,trialStartTime,trialStartTime_UNIX,stimulus1,rt,receivedResponse,rating,trialEndTime,trialDuration,stimulus1Loaded,exp,subjectId,date
0,"[{'imgObject': {}, 'id': 'bagel plain', 'src': '/static/foodstim60/bagel plain.jpg', 'key': 'NaN', 'origWidth': 410, 'origHeight': 410, 'width': 410, 'height': 410, 'widthPercent': 0.8, 'rescaleHeight': True, 'trialN': 0, 'loaded': True, 'loadedTime': 3320.199999988079, 'positionName': 'CENTER', 'positionCoords': [469, 174]}]",Rate how much you want to eat this food from 0 (least) to 10 (most).,4390.5,1669830743298,bagel plain,2183.199999988079,True,7.78,6573.699999988079,2183.199999988079,True,HRV,HRV_0158,2022-11-30 17:54:19
1,"[{'imgObject': {}, 'id': 'raisin bran w milk', 'src': '/static/foodstim60/raisin bran w milk.jpg', 'key': 'NaN', 'origWidth': 411, 'origHeight': 411, 'width': 411, 'height': 411, 'widthPercent': 0.8, 'rescaleHeight': True, 'trialN': 1, 'loaded': True, 'loadedTime': 3321.699999988079, 'positionName': 'CENTER', 'positionCoords': [468.5, 173.5]}]",Rate how much you want to eat this food from 0 (least) to 10 (most).,6575.399999976158,1669830745483,raisin bran w milk,1590.0,True,7.95,8165.399999976158,1590.0,True,HRV,HRV_0158,2022-11-30 17:54:19
2,"[{'imgObject': {}, 'id': 'bagel and cc', 'src': '/static/foodstim60/bagel and cc.jpg', 'key': 'NaN', 'origWidth': 410, 'origHeight': 410, 'width': 410, 'height': 410, 'widthPercent': 0.8, 'rescaleHeight': True, 'trialN': 2, 'loaded': True, 'loadedTime': 3304.099999964237, 'positionName': 'CENTER', 'positionCoords': [469, 174]}]",Rate how much you want to eat this food from 0 (least) to 10 (most).,8170.0,1669830747078,bagel and cc,1037.0,True,7.5200000000000005,9207.0,1037.0,True,HRV,HRV_0158,2022-11-30 17:54:19
3,"[{'imgObject': {}, 'id': 'veggieswithdip', 'src': '/static/foodstim60/veggieswithdip.jpg', 'key': 'NaN', 'origWidth': 409, 'origHeight': 409, 'width': 409, 'height': 409, 'widthPercent': 0.8, 'rescaleHeight': True, 'trialN': 3, 'loaded': True, 'loadedTime': 3310.899999976158, 'positionName': 'CENTER', 'positionCoords': [469.5, 174.5]}]",Rate how much you want to eat this food from 0 (least) to 10 (most).,9211.699999988079,1669830748119,veggieswithdip,1273.3999999761581,True,9.19,10485.099999964237,1273.3999999761581,True,HRV,HRV_0158,2022-11-30 17:54:19
4,"[{'imgObject': {}, 'id': 'hashbrowns', 'src': '/static/foodstim60/hashbrowns.jpg', 'key': 'NaN', 'origWidth': 411, 'origHeight': 410, 'width': 411, 'height': 410, 'widthPercent': 0.8, 'rescaleHeight': True, 'trialN': 4, 'loaded': True, 'loadedTime': 3334.099999964237, 'positionName': 'CENTER', 'positionCoords': [468.5, 174]}]",Rate how much you want to eat this food from 0 (least) to 10 (most).,10489.399999976158,1669830749397,hashbrowns,1684.1000000238419,True,6.72,12173.5,1684.1000000238419,True,HRV,HRV_0158,2022-11-30 17:54:19
5,"[{'imgObject': {}, 'id': 'chicken nuggets2', 'src': '/static/foodstim60/chicken nuggets2.jpg', 'key': 'NaN', 'origWidth': 410, 'origHeight': 409, 'width': 410, 'height': 409, 'widthPercent': 0.8, 'rescaleHeight': True, 'trialN': 5, 'loaded': True, 'loadedTime': 3323.5, 'positionName': 'CENTER', 'positionCoords': [469, 174.5]}]",Rate how much you want to eat this food from 0 (least) to 10 (most).,12177.899999976158,1669830751085,chicken nuggets2,2597.899999976158,True,8.42,14775.799999952316,2597.899999976158,True,HRV,HRV_0158,2022-11-30 17:54:19
6,"[{'imgObject': {}, 'id': 'steak', 'src': '/static/foodstim60/steak.jpg', 'key': 'NaN', 'origWidth': 410, 'origHeight': 410, 'width': 410, 'height': 410, 'widthPercent': 0.8, 'rescaleHeight': True, 'trialN': 6, 'loaded': True, 'loadedTime': 3422, 'positionName': 'CENTER', 'positionCoords': [469, 174]}]",Rate how much you want to eat this food from 0 (least) to 10 (most).,14780.199999988079,1669830753688,steak,1317.8999999761581,True,10.0,16098.099999964237,1317.8999999761581,True,HRV,HRV_0158,2022-11-30 17:54:19
7,"[{'imgObject': {}, 'id': 'froot loops w milk', 'src': '/static/foodstim60/froot loops w milk.jpg', 'key': 'NaN', 'origWidth': 410, 'origHeight': 410, 'width': 410, 'height': 410, 'widthPercent': 0.8, 'rescaleHeight': True, 'trialN': 7, 'loaded': True, 'loadedTime': 3461, 'positionName': 'CENTER', 'positionCoords': [469, 174]}]",Rate how much you want to eat this food from 0 (least) to 10 (most).,16102.5,1669830755010,froot loops w milk,1538.0,True,4.03,17640.5,1538.0,True,HRV,HRV_0158,2022-11-30 17:54:19
8,"[{'imgObject': {}, 'id': 'yogurt no spoon', 'src': '/static/foodstim60/yogurt no spoon.jpg', 'key': 'NaN', 'origWidth': 411, 'origHeight': 410, 'width': 411, 'height': 410, 'widthPercent': 0.8, 'rescaleHeight': True, 'trialN': 8, 'loaded': True, 'loadedTime': 3453.2999999523163, 'positionName': 'CENTER', 'positionCoords': [468.5, 174]}]",Rate how much you want to eat this food from 0 (least) to 10 (most).,17644.899999976158,1669830756552,yogurt no spoon,1433.199999988079,True,5.29,19078.099999964237,1433.199999988079,True,HRV,HRV_0158,2022-11-30 17:54:19
9,"[{'imgObject': {}, 'id': 'apple slices', 'src': '/static/foodstim60/apple slices.jpg', 'key': 'NaN', 'origWidth': 409, 'origHeight': 410, 'width': 409, 'height': 410, 'widthPercent': 0.8, 'rescaleHeight': True, 'trialN': 9, 'loaded': True, 'loadedTime': 3456.599999964237, 'positionName': 'CENTER', 'positionCoords': [469.5, 174]}]",Rate how much you want to eat this food from 0 (least) to 10 (most).,19081.599999964237,1669830757990,apple slices,1296.4000000357628,True,8.96,20378.0,1296.4000000357628,True,HRV,HRV_0158,2022-11-30 17:54:19
10,"[{'imgObject': {}, 'id': 'mashed potato', 'src': '/static/foodstim60/mashed potato.jpg', 'key': 'NaN', 'origWidth': 409, 'origHeight': 409, 'width': 409, 'height': 409, 'widthPercent': 0.8, 'rescaleHeight': True, 'trialN': 10, 'loaded': True, 'loadedTime': 3458.5, 'positionName': 'CENTER', 'positionCoords': [469.5, 174.5]}]",Rate how much you want to eat this food from 0 (least) to 10 (most).,20381.299999952316,1669830759289,mashed potato,1829.800000011921,True,4.86,22211.099999964237,1829.800000011921,True,HRV,HRV_0158,2022-11-30 17:54:19
11,"[{'imgObject': {}, 'id': 'seaweed', 'src': '/static/foodstim60/seaweed.jpg', 'key': 'NaN', 'origWidth': 410, 'origHeight': 410, 'width': 410, 'height': 410, 'widthPercent': 0.8, 'rescaleHeight': True, 'trialN': 11, 'loaded': True, 'loadedTime': 3566.2999999523163, 'positionName': 'CENTER', 'positionCoords': [469, 174]}]",Rate how much you want to eat this food from 0 (least) to 10 (most).,22214.299999952316,1669830761122,seaweed,2055.800000011921,True,1.75,24270.099999964237,2055.800000011921,True,HRV,HRV_0158,2022-11-30 17:54:19
12,"[{'imgObject': {}, 'id': 'omelette', 'src': '/static/foodstim60/omelette.jpg', 'key': 'NaN', 'origWidth': 410, 'origHeight': 409, 'width': 410, 'height': 409, 'widthPercent': 0.8, 'rescaleHeight': True, 'trialN': 12, 'loaded': True, 'loadedTime': 3501.099999964237, 'positionName': 'CENTER', 'positionCoords': [469, 174.5]}]",Rate how much you want to eat this food from 0 (least) to 10 (most).,24274.19999998808,1669830763182,omelette,2126.0,True,1.6,26400.19999998808,2126.0,True,HRV,HRV_0158,2022-11-30 17:54:19
13,"[{'imgObject': {}, 'id': 'granola w milk', 'src': '/static/foodstim60/granola w milk.jpg', 'key': 'NaN', 'origWidth': 410, 'origHeight': 410, 'width': 410, 'height': 410, 'widthPercent': 0.8, 'rescaleHeight': True, 'trialN': 13, 'loaded': True, 'loadedTime': 3565.199999988079, 'positionName': 'CENTER', 'positionCoords': [469, 174]}]",Rate how much you want to eat this food from 0 (least) to 10 (most).,26403.399999976158,1669830765311,granola w milk,1464.800000011921,True,3.02,27868.19999998808,1464.800000011921,True,HRV,HRV_0158,2022-11-30 17:54:19
14,"[{'imgObject': {}, 'id': 'popsicles', 'src': '/static/foodstim60/popsicles.jpg', 'key': 'NaN', 'origWidth': 410, 'origHeight': 410, 'width': 410, 'height': 410, 'widthPercent': 0.8, 'rescaleHeight': True, 'trialN': 14, 'loaded': True, 'loadedTime': 3534, 'positionName': 'CENTER', 'positionCoords': [469, 174]}]",Rate how much you want to eat this food from 0 (least) to 10 (most).,27871.599999964237,1669830766779,popsicles,1684.699999988079,True,0.96,29556.299999952316,1684.699999988079,True,HRV,HRV_0158,2022-11-30 17:54:19
15,"[{'imgObject': {}, 'id': 'Grapes', 'src': '/static/foodstim60/Grapes.jpg', 'key': 'NaN', 'origWidth': 411, 'origHeight': 411, 'width': 411, 'height': 411, 'widthPercent': 0.8, 'rescaleHeight': True, 'trialN': 15, 'loaded': True, 'loadedTime': 3520.2999999523163, 'positionName': 'CENTER', 'positionCoords': [468.5, 173.5]}]",Rate how much you want to eat this food from 0 (least) to 10 (most).,29558.399999976158,1669830768466,Grapes,1522.300000011921,True,7.74,31080.69999998808,1522.300000011921,True,HRV,HRV_0158,2022-11-30 17:54:19
16,"[{'imgObject': {}, 'id': 'cheerios', 'src': '/static/foodstim60/cheerios.jpg', 'key': 'NaN', 'origWidth': 409, 'origHeight': 410, 'width': 409, 'height': 410, 'widthPercent': 0.8, 'rescaleHeight': True, 'trialN': 16, 'loaded': True, 'loadedTime': 3526.2999999523163, 'positionName': 'CENTER', 'positionCoords': [469.5, 174]}]",Rate how much you want to eat this food from 0 (least) to 10 (most).,31085.799999952316,1669830769994,cheerios,1433.300000011921,True,2.25,32519.099999964237,1433.300000011921,True,HRV,HRV_0158,2022-11-30 17:54:19
17,"[{'imgObject': {}, 'id': 'burger', 'src': '/static/foodstim60/burger.jpg', 'key': 'NaN', 'origWidth': 409, 'origHeight': 409, 'width': 409, 'height': 409, 'widthPercent': 0.8, 'rescaleHeight': True, 'trialN': 17, 'loaded': True, 'loadedTime': 3584.5, 'positionName': 'CENTER', 'positionCoords': [469.5, 174.5]}]",Rate how much you want to eat this food from 0 (least) to 10 (most).,32524.399999976158,1669830771432,burger,1622.3999999761581,True,7.18,34146.799999952316,1622.3999999761581,True,HRV,HRV_0158,2022-11-30 17:54:19
18,"[{'imgObject': {}, 'id': 'orange slices', 'src': '/static/foodstim60/orange slices.jpg', 'key': 'NaN', 'origWidth': 409, 'origHeight': 410, 'width': 409, 'height': 410, 'widthPercent': 0.8, 'rescaleHeight': True, 'trialN': 18, 'loaded': True, 'loadedTime': 3590.899999976158, 'positionName': 'CENTER', 'positionCoords': [469.5, 174]}]",Rate how much you want to eat this food from 0 (least) to 10 (most).,34151.0,1669830773059,orange slices,1279.0999999642372,True,8.78,35430.09999996424,1279.0999999642372,True,HRV,HRV_0158,2022-11-30 17:54:19
19,"[{'imgObject': {}, 'id': 'olives', 'src': '/static/foodstim60/olives.jpg', 'key': 'NaN', 'origWidth': 410, 'origHeight': 410, 'width': 410, 'height': 410, 'widthPercent': 0.8, 'rescaleHeight': True, 'trialN': 19, 'loaded': True, 'loadedTime': 3601.2999999523163, 'positionName': 'CENTER', 'positionCoords': [469, 174]}]",Rate how much you want to eat this food from 0 (least) to 10 (most).,35433.799999952316,1669830774342,olives,1346.6000000238419,True,7.930000000000001,36780.39999997616,1346.6000000238419,True,HRV,HRV_0158,2022-11-30 17:54:19
20,"[{'imgObject': {}, 'id': 'chickenfingers', 'src': '/static/foodstim60/chickenfingers.jpg', 'key': 'NaN', 'origWidth': 410, 'origHeight': 410, 'width': 410, 'height': 410, 'widthPercent': 0.8, 'rescaleHeight': True, 'trialN': 20, 'loaded': True, 'loadedTime': 3802.2999999523163, 'positionName': 'CENTER', 'positionCoords': [469, 174]}]",Rate how much you want to eat this food from 0 (least) to 10 (most).,36784.0,1669830775692,chickenfingers,2381.7999999523163,True,9.89,39165.799999952316,2381.7999999523163,True,HRV,HRV_0158,2022-11-30 17:54:19
21,"[{'imgObject': {}, 'id': 'raspberries', 'src': '/static/foodstim60/raspberries.jpg', 'key': 'NaN', 'origWidth': 411, 'origHeight': 411, 'width': 411, 'height': 411, 'widthPercent': 0.8, 'rescaleHeight': True, 'trialN': 21, 'loaded': True, 'loadedTime': 3801.2999999523163, 'positionName': 'CENTER', 'positionCoords': [468.5, 173.5]}]",Rate how much you want to eat this food from 0 (least) to 10 (most).,39168.59999996424,1669830778077,raspberries,3154.199999988079,True,8.32,42322.799999952316,3154.199999988079,True,HRV,HRV_0158,2022-11-30 17:54:19
22,"[{'imgObject': {}, 'id': 'shreddedwheatwithmilk', 'src': '/static/foodstim60/shreddedwheatwithmilk.jpg', 'key': 'NaN', 'origWidth': 410, 'origHeight': 410, 'width': 410, 'height': 410, 'widthPercent': 0.8, 'rescaleHeight': True, 'trialN': 22, 'loaded': True, 'loadedTime': 3764.7999999523163, 'positionName': 'CENTER', 'positionCoords': [469, 174]}]",Rate how much you want to eat this food from 0 (least) to 10 (most).,42325.09999996424,1669830781233,shreddedwheatwithmilk,1398.5,True,4.36,43723.59999996424,1398.5,True,HRV,HRV_0158,2022-11-30 17:54:19
23,"[{'imgObject': {}, 'id': 'cantaloupe', 'src': '/static/foodstim60/cantaloupe.jpg', 'key': 'NaN', 'origWidth': 409, 'origHeight': 409, 'width': 409, 'height': 409, 'widthPercent': 0.8, 'rescaleHeight': True, 'trialN': 23, 'loaded': True, 'loadedTime': 3754.599999964237, 'positionName': 'CENTER', 'positionCoords': [469.5, 174.5]}]",Rate how much you want to eat this food from 0 (least) to 10 (most).,43726.299999952316,1669830782634,cantaloupe,1479.2000000476837,True,8.75,45205.5,1479.2000000476837,True,HRV,HRV_0158,2022-11-30 17:54:19
24,"[{'imgObject': {}, 'id': 'ice cream sundae 002', 'src': '/static/foodstim60/ice cream sundae 002.jpg', 'key': 'NaN', 'origWidth': 409, 'origHeight': 409, 'width': 409, 'height': 409, 'widthPercent': 0.8, 'rescaleHeight': True, 'trialN': 24, 'loaded': True, 'loadedTime': 3799.399999976158, 'positionName': 'CENTER', 'positionCoords': [469.5, 174.5]}]",Rate how much you want to eat this food from 0 (least) to 10 (most).,45208.299999952316,1669830784116,ice cream sundae 002,1643.9000000357628,True,4.22,46852.19999998808,1643.9000000357628,True,HRV,HRV_0158,2022-11-30 17:54:19
25,"[{'imgObject': {}, 'id': 'tacos', 'src': '/static/foodstim60/tacos.jpg', 'key': 'NaN', 'origWidth': 411, 'origHeight': 411, 'width': 411, 'height': 411, 'widthPercent': 0.8, 'rescaleHeight': True, 'trialN': 25, 'loaded': True, 'loadedTime': 3787.7999999523163, 'positionName': 'CENTER', 'positionCoords': [468.5, 173.5]}]",Rate how much you want to eat this food from 0 (least) to 10 (most).,46858.5,1669830785766,tacos,1855.5999999642372,True,7.8,48714.09999996424,1855.5999999642372,True,HRV,HRV_0158,2022-11-30 17:54:19
26,"[{'imgObject': {}, 'id': 'roastedpotatoes', 'src': '/static/foodstim60/roastedpotatoes.jpg', 'key': 'NaN', 'origWidth': 409, 'origHeight': 410, 'width': 409, 'height': 410, 'widthPercent': 0.8, 'rescaleHeight': True, 'trialN': 26, 'loaded': True, 'loadedTime': 3840.5, 'positionName': 'CENTER', 'positionCoords': [469.5, 174]}]",Rate how much you want to eat this food from 0 (least) to 10 (most).,48719.19999998808,1669830787627,roastedpotatoes,1651.8999999761581,True,5.74,50371.09999996424,1651.8999999761581,True,HRV,HRV_0158,2022-11-30 17:54:19
27,"[{'imgObject': {}, 'id': 'strawberries', 'src': '/static/foodstim60/strawberries.jpg', 'key': 'NaN', 'origWidth': 410, 'origHeight': 410, 'width': 410, 'height': 410, 'widthPercent': 0.8, 'rescaleHeight': True, 'trialN': 27, 'loaded': True, 'loadedTime': 3844.899999976158, 'positionName': 'CENTER', 'positionCoords': [469, 174]}]",Rate how much you want to eat this food from 0 (least) to 10 (most).,50375.5,1669830789283,strawberries,1427.8999999761581,True,9.450000000000001,51803.39999997616,1427.8999999761581,True,HRV,HRV_0158,2022-11-30 17:54:19
28,"[{'imgObject': {}, 'id': 'kiwi', 'src': '/static/foodstim60/kiwi.jpg', 'key': 'NaN', 'origWidth': 410, 'origHeight': 410, 'width': 410, 'height': 410, 'widthPercent': 0.8, 'rescaleHeight': True, 'trialN': 28, 'loaded': True, 'loadedTime': 3847.099999964237, 'positionName': 'CENTER', 'positionCoords': [469, 174]}]",Rate how much you want to eat this food from 0 (least) to 10 (most).,51807.59999996424,1669830790715,kiwi,1743.4000000357628,True,7.930000000000001,53551.0,1743.4000000357628,True,HRV,HRV_0158,2022-11-30 17:54:19
29,"[{'imgObject': {}, 'id': 'edamame', 'src': '/static/foodstim60/edamame.jpg', 'key': 'NaN', 'origWidth': 409, 'origHeight': 410, 'width': 409, 'height': 410, 'widthPercent': 0.8, 'rescaleHeight': True, 'trialN': 29, 'loaded': True, 'loadedTime': 3867.099999964237, 'positionName': 'CENTER', 'positionCoords': [469.5, 174]}]",Rate how much you want to eat this food from 0 (least) to 10 (most).,53553.89999997616,1669830792462,edamame,1802.199999988079,True,3.5100000000000002,55356.09999996424,1802.199999988079,True,HRV,HRV_0158,2022-11-30 17:54:19
30,"[{'imgObject': {}, 'id': 'luckycharms', 'src': '/static/foodstim60/luckycharms.jpg', 'key': 'NaN', 'origWidth': 410, 'origHeight': 409, 'width': 410, 'height': 409, 'widthPercent': 0.8, 'rescaleHeight': True, 'trialN': 30, 'loaded': True, 'loadedTime': 3863.099999964237, 'positionName': 'CENTER', 'positionCoords': [469, 174.5]}]",Rate how much you want to eat this food from 0 (least) to 10 (most).,55361.0,1669830794269,luckycharms,1522.699999988079,True,1.2,56883.69999998808,1522.699999988079,True,HRV,HRV_0158,2022-11-30 17:54:19
31,"[{'imgObject': {}, 'id': 'cherries', 'src': '/static/foodstim60/cherries.jpg', 'key': 'NaN', 'origWidth': 410, 'origHeight': 411, 'width': 410, 'height': 411, 'widthPercent': 0.8, 'rescaleHeight': True, 'trialN': 31, 'loaded': True, 'loadedTime': 3856.699999988079, 'positionName': 'CENTER', 'positionCoords': [469, 173.5]}]",Rate how much you want to eat this food from 0 (least) to 10 (most).,56884.89999997616,1669830795793,cherries,1687.1000000238419,True,8.23,58572.0,1687.1000000238419,True,HRV,HRV_0158,2022-11-30 17:54:19
32,"[{'imgObject': {}, 'id': 'salad w chicken', 'src': '/static/foodstim60/salad w chicken.jpg', 'key': 'NaN', 'origWidth': 411, 'origHeight': 411, 'width': 411, 'height': 411, 'widthPercent': 0.8, 'rescaleHeight': True, 'trialN': 32, 'loaded': True, 'loadedTime': 3912, 'positionName': 'CENTER', 'positionCoords': [468.5, 173.5]}]",Rate how much you want to eat this food from 0 (least) to 10 (most).,58573.89999997616,1669830797482,salad w chicken,2823.0,True,2.92,61396.89999997616,2823.0,True,HRV,HRV_0158,2022-11-30 17:54:19
33,"[{'imgObject': {}, 'id': 'mac & cheese', 'src': '/static/foodstim60/mac & cheese.jpg', 'key': 'NaN', 'origWidth': 410, 'origHeight': 410, 'width': 410, 'height': 410, 'widthPercent': 0.8, 'rescaleHeight': True, 'trialN': 33, 'loaded': True, 'loadedTime': 3970.199999988079, 'positionName': 'CENTER', 'positionCoords': [469, 174]}]",Rate how much you want to eat this food from 0 (least) to 10 (most).,61400.89999997616,1669830800309,mac & cheese,2355.0,True,5.0,63755.89999997616,2355.0,True,HRV,HRV_0158,2022-11-30 17:54:19
34,"[{'imgObject': {}, 'id': 'fruitsalad', 'src': '/static/foodstim60/fruitsalad.jpg', 'key': 'NaN', 'origWidth': 410, 'origHeight': 410, 'width': 410, 'height': 410, 'widthPercent': 0.8, 'rescaleHeight': True, 'trialN': 34, 'loaded': True, 'loadedTime': 3965.199999988079, 'positionName': 'CENTER', 'positionCoords': [469, 174]}]",Rate how much you want to eat this food from 0 (least) to 10 (most).,63760.0,1669830802668,fruitsalad,1401.199999988079,True,9.4,65161.19999998808,1401.199999988079,True,HRV,HRV_0158,2022-11-30 17:54:19
35,"[{'imgObject': {}, 'id': 'banana', 'src': '/static/foodstim60/banana.jpg', 'key': 'NaN', 'origWidth': 410, 'origHeight': 410, 'width': 410, 'height': 410, 'widthPercent': 0.8, 'rescaleHeight': True, 'trialN': 35, 'loaded': True, 'loadedTime': 3997.199999988079, 'positionName': 'CENTER', 'positionCoords': [469, 174]}]",Rate how much you want to eat this food from 0 (least) to 10 (most).,65164.299999952316,1669830804072,banana,2376.900000035763,True,6.91,67541.19999998808,2376.900000035763,True,HRV,HRV_0158,2022-11-30 17:54:19
36,"[{'imgObject': {}, 'id': 'hotdog w must', 'src': '/static/foodstim60/hotdog w must.jpg', 'key': 'NaN', 'origWidth': 409, 'origHeight': 409, 'width': 409, 'height': 409, 'widthPercent': 0.8, 'rescaleHeight': True, 'trialN': 36, 'loaded': True, 'loadedTime': 3994.899999976158, 'positionName': 'CENTER', 'positionCoords': [469.5, 174.5]}]",Rate how much you want to eat this food from 0 (least) to 10 (most).,67545.19999998808,1669830806453,hotdog w must,1474.800000011921,True,1.33,69020.0,1474.800000011921,True,HRV,HRV_0158,2022-11-30 17:54:19
37,"[{'imgObject': {}, 'id': 'fried eggs', 'src': '/static/foodstim60/fried eggs.jpg', 'key': 'NaN', 'origWidth': 410, 'origHeight': 410, 'width': 410, 'height': 410, 'widthPercent': 0.8, 'rescaleHeight': True, 'trialN': 37, 'loaded': True, 'loadedTime': 4003, 'positionName': 'CENTER', 'positionCoords': [469, 174]}]",Rate how much you want to eat this food from 0 (least) to 10 (most).,69025.19999998808,1669830807933,fried eggs,2679.5,True,4.1,71704.69999998808,2679.5,True,HRV,HRV_0158,2022-11-30 17:54:19
38,"[{'imgObject': {}, 'id': 'lox', 'src': '/static/foodstim60/lox.jpg', 'key': 'NaN', 'origWidth': 410, 'origHeight': 411, 'width': 410, 'height': 411, 'widthPercent': 0.8, 'rescaleHeight': True, 'trialN': 38, 'loaded': True, 'loadedTime': 4001.199999988079, 'positionName': 'CENTER', 'positionCoords': [469, 173.5]}]",Rate how much you want to eat this food from 0 (least) to 10 (most).,71710.29999995232,1669830810618,lox,5694.700000047684,True,4.3100000000000005,77405.0,5694.700000047684,True,HRV,HRV_0158,2022-11-30 17:54:19
39,"[{'imgObject': {}, 'id': 'cherry tomato', 'src': '/static/foodstim60/cherry tomato.jpg', 'key': 'NaN', 'origWidth': 410, 'origHeight': 410, 'width': 410, 'height': 410, 'widthPercent': 0.8, 'rescaleHeight': True, 'trialN': 39, 'loaded': True, 'loadedTime': 4058.899999976158, 'positionName': 'CENTER', 'positionCoords': [469, 174]}]",Rate how much you want to eat this food from 0 (least) to 10 (most).,77406.79999995232,1669830816315,cherry tomato,1819.0,True,6.890000000000001,79225.79999995232,1819.0,True,HRV,HRV_0158,2022-11-30 17:54:19
40,"[{'imgObject': {}, 'id': 'salmon', 'src': '/static/foodstim60/salmon.jpg', 'key': 'NaN', 'origWidth': 410, 'origHeight': 409, 'width': 410, 'height': 409, 'widthPercent': 0.8, 'rescaleHeight': True, 'trialN': 40, 'loaded': True, 'loadedTime': 4071.099999964237, 'positionName': 'CENTER', 'positionCoords': [469, 174.5]}]",Rate how much you want to eat this food from 0 (least) to 10 (most).,79229.19999998808,1669830818136,salmon,1889.199999988079,True,9.59,81118.39999997616,1889.199999988079,True,HRV,HRV_0158,2022-11-30 17:54:19
41,"[{'imgObject': {}, 'id': 'Tribe humus pita', 'src': '/static/foodstim60/Tribe humus pita.jpg', 'key': 'NaN', 'origWidth': 411, 'origHeight': 411, 'width': 411, 'height': 411, 'widthPercent': 0.8, 'rescaleHeight': True, 'trialN': 41, 'loaded': True, 'loadedTime': 4106.199999988079, 'positionName': 'CENTER', 'positionCoords': [468.5, 173.5]}]",Rate how much you want to eat this food from 0 (least) to 10 (most).,81122.0,1669830820029,Tribe humus pita,1562.0999999642372,True,6.11,82684.09999996424,1562.0999999642372,True,HRV,HRV_0158,2022-11-30 17:54:19
42,"[{'imgObject': {}, 'id': 'pear', 'src': '/static/foodstim60/pear.jpg', 'key': 'NaN', 'origWidth': 411, 'origHeight': 410, 'width': 411, 'height': 410, 'widthPercent': 0.8, 'rescaleHeight': True, 'trialN': 42, 'loaded': True, 'loadedTime': 4053.5, 'positionName': 'CENTER', 'positionCoords': [468.5, 174]}]",Rate how much you want to eat this food from 0 (least) to 10 (most).,82686.59999996424,1669830821594,pear,1506.6000000238419,True,9.92,84193.19999998808,1506.6000000238419,True,HRV,HRV_0158,2022-11-30 17:54:19
43,"[{'imgObject': {}, 'id': 'sweetpotato', 'src': '/static/foodstim60/sweetpotato.jpg', 'key': 'NaN', 'origWidth': 410, 'origHeight': 410, 'width': 410, 'height': 410, 'widthPercent': 0.8, 'rescaleHeight': True, 'trialN': 43, 'loaded': True, 'loadedTime': 4121, 'positionName': 'CENTER', 'positionCoords': [469, 174]}]",Rate how much you want to eat this food from 0 (least) to 10 (most).,84196.5,1669830823104,sweetpotato,1958.0999999642372,True,8.5,86154.59999996424,1958.0999999642372,True,HRV,HRV_0158,2022-11-30 17:54:19
44,"[{'imgObject': {}, 'id': 'grilled chicken strips', 'src': '/static/foodstim60/grilled chicken strips.jpg', 'key': 'NaN', 'origWidth': 410, 'origHeight': 411, 'width': 410, 'height': 411, 'widthPercent': 0.8, 'rescaleHeight': True, 'trialN': 44, 'loaded': True, 'loadedTime': 4110.699999988079, 'positionName': 'CENTER', 'positionCoords': [469, 173.5]}]",Rate how much you want to eat this food from 0 (least) to 10 (most).,86158.89999997616,1669830825066,grilled chicken strips,1949.6000000238419,True,9.790000000000001,88108.5,1949.6000000238419,True,HRV,HRV_0158,2022-11-30 17:54:19
45,"[{'imgObject': {}, 'id': 'eggs', 'src': '/static/foodstim60/eggs.jpg', 'key': 'NaN', 'origWidth': 409, 'origHeight': 409, 'width': 409, 'height': 409, 'widthPercent': 0.8, 'rescaleHeight': True, 'trialN': 45, 'loaded': True, 'loadedTime': 4131.5, 'positionName': 'CENTER', 'positionCoords': [469.5, 174.5]}]",Rate how much you want to eat this food from 0 (least) to 10 (most).,88112.09999996424,1669830827019,eggs,2672.600000023842,True,5.9,90784.69999998808,2672.600000023842,True,HRV,HRV_0158,2022-11-30 17:54:19
46,"[{'imgObject': {}, 'id': 'rigatoni', 'src': '/static/foodstim60/rigatoni.jpg', 'key': 'NaN', 'origWidth': 411, 'origHeight': 411, 'width': 411, 'height': 411, 'widthPercent': 0.8, 'rescaleHeight': True, 'trialN': 46, 'loaded': True, 'loadedTime': 4128.299999952316, 'positionName': 'CENTER', 'positionCoords': [468.5, 173.5]}]",Rate how much you want to eat this food from 0 (least) to 10 (most).,90787.39999997616,1669830829695,rigatoni,1404.3999999761581,True,3.5100000000000002,92191.79999995232,1404.3999999761581,True,HRV,HRV_0158,2022-11-30 17:54:19
47,"[{'imgObject': {}, 'id': 'burrito', 'src': '/static/foodstim60/burrito.jpg', 'key': 'NaN', 'origWidth': 410, 'origHeight': 410, 'width': 410, 'height': 410, 'widthPercent': 0.8, 'rescaleHeight': True, 'trialN': 47, 'loaded': True, 'loadedTime': 4191.199999988079, 'positionName': 'CENTER', 'positionCoords': [469, 174]}]",Rate how much you want to eat this food from 0 (least) to 10 (most).,92196.39999997616,1669830831104,burrito,2966.600000023842,True,6.890000000000001,95163.0,2966.600000023842,True,HRV,HRV_0158,2022-11-30 17:54:19
48,"[{'imgObject': {}, 'id': 'eggsalad', 'src': '/static/foodstim60/eggsalad.jpg', 'key': 'NaN', 'origWidth': 410, 'origHeight': 409, 'width': 410, 'height': 409, 'widthPercent': 0.8, 'rescaleHeight': True, 'trialN': 48, 'loaded': True, 'loadedTime': 4194.199999988079, 'positionName': 'CENTER', 'positionCoords': [469, 174.5]}]",Rate how much you want to eat this food from 0 (least) to 10 (most).,95167.09999996424,1669830834074,eggsalad,2185.100000023842,True,3.45,97352.19999998808,2185.100000023842,True,HRV,HRV_0158,2022-11-30 17:54:19
49,"[{'imgObject': {}, 'id': 'mango', 'src': '/static/foodstim60/mango.jpg', 'key': 'NaN', 'origWidth': 411, 'origHeight': 411, 'width': 411, 'height': 411, 'widthPercent': 0.8, 'rescaleHeight': True, 'trialN': 49, 'loaded': True, 'loadedTime': 4192.5, 'positionName': 'CENTER', 'positionCoords': [468.5, 173.5]}]",Rate how much you want to eat this food from 0 (least) to 10 (most).,97355.09999996424,1669830836262,mango,2020.0,True,8.08,99375.09999996424,2020.0,True,HRV,HRV_0158,2022-11-30 17:54:19
50,"[{'imgObject': {}, 'id': 'baked potato', 'src': '/static/foodstim60/baked potato.jpg', 'key': 'NaN', 'origWidth': 409, 'origHeight': 410, 'width': 409, 'height': 410, 'widthPercent': 0.8, 'rescaleHeight': True, 'trialN': 50, 'loaded': True, 'loadedTime': 4201.199999988079, 'positionName': 'CENTER', 'positionCoords': [469.5, 174]}]",Rate how much you want to eat this food from 0 (least) to 10 (most).,99378.19999998808,1669830838285,baked potato,1652.8999999761581,True,8.5,101031.09999996424,1652.8999999761581,True,HRV,HRV_0158,2022-11-30 17:54:19
51,"[{'imgObject': {}, 'id': 'cocktailshrimp', 'src': '/static/foodstim60/cocktailshrimp.jpg', 'key': 'NaN', 'origWidth': 410, 'origHeight': 410, 'width': 410, 'height': 410, 'widthPercent': 0.8, 'rescaleHeight': True, 'trialN': 51, 'loaded': True, 'loadedTime': 4198, 'positionName': 'CENTER', 'positionCoords': [469, 174]}]",Rate how much you want to eat this food from 0 (least) to 10 (most).,101035.19999998808,1669830839942,cocktailshrimp,2589.399999976158,True,9.370000000000001,103624.59999996424,2589.399999976158,True,HRV,HRV_0158,2022-11-30 17:54:19
52,"[{'imgObject': {}, 'id': 'turkey sandwich', 'src': '/static/foodstim60/turkey sandwich.jpg', 'key': 'NaN', 'origWidth': 409, 'origHeight': 409, 'width': 409, 'height': 409, 'widthPercent': 0.8, 'rescaleHeight': True, 'trialN': 52, 'loaded': True, 'loadedTime': 4298.099999964237, 'positionName': 'CENTER', 'positionCoords': [469.5, 174.5]}]",Rate how much you want to eat this food from 0 (least) to 10 (most).,103628.89999997616,1669830842536,turkey sandwich,2021.300000011921,True,3.73,105650.19999998808,2021.300000011921,True,HRV,HRV_0158,2022-11-30 17:54:19
53,"[{'imgObject': {}, 'id': 'avocado', 'src': '/static/foodstim60/avocado.jpg', 'key': 'NaN', 'origWidth': 409, 'origHeight': 409, 'width': 409, 'height': 409, 'widthPercent': 0.8, 'rescaleHeight': True, 'trialN': 53, 'loaded': True, 'loadedTime': 4351.199999988079, 'positionName': 'CENTER', 'positionCoords': [469.5, 174.5]}]",Rate how much you want to eat this food from 0 (least) to 10 (most).,105655.39999997616,1669830844563,avocado,1842.5,True,8.53,107497.89999997616,1842.5,True,HRV,HRV_0158,2022-11-30 17:54:19
54,"[{'imgObject': {}, 'id': 'turkeysandwich', 'src': '/static/foodstim60/turkeysandwich.jpg', 'key': 'NaN', 'origWidth': 409, 'origHeight': 409, 'width': 409, 'height': 409, 'widthPercent': 0.8, 'rescaleHeight': True, 'trialN': 54, 'loaded': True, 'loadedTime': 4321.299999952316, 'positionName': 'CENTER', 'positionCoords': [469.5, 174.5]}]",Rate how much you want to eat this food from 0 (least) to 10 (most).,107502.0,1669830846409,turkeysandwich,2389.199999988079,True,7.1000000000000005,109891.19999998808,2389.199999988079,True,HRV,HRV_0158,2022-11-30 17:54:19
55,"[{'imgObject': {}, 'id': 'corn cob', 'src': '/static/foodstim60/corn cob.jpg', 'key': 'NaN', 'origWidth': 411, 'origHeight': 411, 'width': 411, 'height': 411, 'widthPercent': 0.8, 'rescaleHeight': True, 'trialN': 55, 'loaded': True, 'loadedTime': 4308.899999976158, 'positionName': 'CENTER', 'positionCoords': [468.5, 173.5]}]",Rate how much you want to eat this food from 0 (least) to 10 (most).,109894.89999997616,1669830848802,corn cob,1867.3999999761581,True,7.8100000000000005,111762.29999995232,1867.3999999761581,True,HRV,HRV_0158,2022-11-30 17:54:19
56,"[{'imgObject': {}, 'id': 'rigatoni and sauce', 'src': '/static/foodstim60/rigatoni and sauce.jpg', 'key': 'NaN', 'origWidth': 410, 'origHeight': 411, 'width': 410, 'height': 411, 'widthPercent': 0.8, 'rescaleHeight': True, 'trialN': 56, 'loaded': True, 'loadedTime': 4319.299999952316, 'positionName': 'CENTER', 'positionCoords': [469, 173.5]}]",Rate how much you want to eat this food from 0 (least) to 10 (most).,111766.0,1669830850673,rigatoni and sauce,1474.0999999642372,True,3.44,113240.09999996424,1474.0999999642372,True,HRV,HRV_0158,2022-11-30 17:54:19
57,"[{'imgObject': {}, 'id': 'blackbeanswithrice', 'src': '/static/foodstim60/blackbeanswithrice.jpg', 'key': 'NaN', 'origWidth': 410, 'origHeight': 410, 'width': 410, 'height': 410, 'widthPercent': 0.8, 'rescaleHeight': True, 'trialN': 57, 'loaded': True, 'loadedTime': 4352.099999964237, 'positionName': 'CENTER', 'positionCoords': [469, 174]}]",Rate how much you want to eat this food from 0 (least) to 10 (most).,113243.59999996424,1669830852151,blackbeanswithrice,3419.600000023842,True,4.2700000000000005,116663.19999998808,3419.600000023842,True,HRV,HRV_0158,2022-11-30 17:54:19
58,"[{'imgObject': {}, 'id': 'sushi w_condiments', 'src': '/static/foodstim60/sushi w_condiments.jpg', 'key': 'NaN', 'origWidth': 410, 'origHeight': 410, 'width': 410, 'height': 410, 'widthPercent': 0.8, 'rescaleHeight': True, 'trialN': 58, 'loaded': True, 'loadedTime': 4363.599999964237, 'positionName': 'CENTER', 'positionCoords': [469, 174]}]",Rate how much you want to eat this food from 0 (least) to 10 (most).,116666.89999997616,1669830855574,sushi w_condiments,2135.199999988079,True,2.29,118802.09999996424,2135.199999988079,True,HRV,HRV_0158,2022-11-30 17:54:19
59,"[{'imgObject': {}, 'id': 'blueberries', 'src': '/static/foodstim60/blueberries.jpg', 'key': 'NaN', 'origWidth': 411, 'origHeight': 411, 'width': 411, 'height': 411, 'widthPercent': 0.8, 'rescaleHeight': True, 'trialN': 59, 'loaded': True, 'loadedTime': 4390, 'positionName': 'CENTER', 'positionCoords': [468.5, 173.5]}]",Rate how much you want to eat this food from 0 (least) to 10 (most).,118805.69999998808,1669830857713,blueberries,1503.5,True,6.92,120309.19999998808,1503.5,True,HRV,HRV_0158,2022-11-30 17:54:19
